File: XRD/07-10-2025 Dep 6/XY Data/BTO_Mapping_Theta2Theta_07-10-2025_001_20_-3-136_29-836.xy
20.00000 468.170
20.04000 472.953
20.08000 480.924
20.12000 472.961
20.16000 476.762
20.20000 465.252
20.24000 458.451
20.28000 457.276
20.32000 453.899
20.36000 462.880
20.40000 455.377
20.44000 467.042
20.48000 449.131
20.52000 436.030
20.56000 466.581
20.60000 466.621
20.64000 463.046
20.68000 451.786
20.72000 451.416
20.76000 454.733
20.80000 455.707
20.84000 468.975
20.88000 469.046
20.92000 479.579
20.96000 462.460
21.00000 471.994
21.04000 456.324
21.08000 465.991
21.12000 468.645
21.16000 473.934
21.20000 462.281
21.24000 452.379
21.28000 464.509
21.32000 456.398
21.36000 452.018
21.40000 442.648
21.44000 456.646
21.48000 451.306
21.52000 464.616
21.56000 454.049
21.60000 437.831
21.64000 450.246
21.68000 460.212
21.72000 471.971
21.76000 463.938
21.80000 480.259
21.84000 480.400
21.88000 472.701
21.92000 483.375
21.96000 500.856
22.00000 508.921
22.04000 493.268
22.08000 515.400
22.12000 503.393
22.16000 520.258
22.20000 483.555
22.24000 476.786
22.28000 483.203
22.32000 482.409
22.36000 472.731
22.40000 472.249
22.44000 457.646
22.48000 442.959
22.52000 443.740
22.56000 447.757
22.60000 442.646
22.64000 433.242
22.68000 446.943
22.72000 441.586
22.76000 442.136
22.80000 430.804
22.84000 441.994
22.88000 443.620
22.92000 443.197
22.96000 448.586
23.00000 435.127
23.04000 441.680
23.08000 429.066
23.12000 439.645
23.16000 429.104
23.20000 424.204
23.24000 438.668
23.28000 423.823
23.32000 419.541
23.36000 432.041
23.40000 419.626
23.44000 445.632
23.48000 445.142
23.52000 417.770
23.56000 438.904
23.60000 433.696
23.64000 445.578
23.68000 456.335
23.72000 457.177
23.76000 469.047
23.80000 470.229
23.84000 494.377
23.88000 498.888
23.92000 501.298
23.96000 481.273
24.00000 498.505
24.04000 494.333
24.08000 484.096
24.12000 490.214
24.16000 476.010
24.20000 462.734
24.24000 440.071
24.28000 459.230
24.32000 439.613
24.36000 419.458
24.40000 436.556
24.44000 421.360
24.48000 423.686
24.52000 408.915
24.56000 393.514
24.60000 423.611
24.64000 397.123
24.68000 412.166
24.72000 413.584
24.76000 399.365
24.80000 413.919
24.84000 419.514
24.88000 408.267
24.92000 401.749
24.96000 410.931
25.00000 402.806
25.04000 408.823
25.08000 390.444
25.12000 399.981
25.16000 404.083
25.20000 401.543
25.24000 386.757
25.28000 387.106
25.32000 390.792
25.36000 403.256
25.40000 415.605
25.44000 408.139
25.48000 405.337
25.52000 373.069
25.56000 395.043
25.60000 417.980
25.64000 393.525
25.68000 392.635
25.72000 399.195
25.76000 380.050
25.80000 383.820
25.84000 398.939
25.88000 394.747
25.92000 406.331
25.96000 389.557
26.00000 393.971
26.04000 396.263
26.08000 387.399
26.12000 383.266
26.16000 406.335
26.20000 392.400
26.24000 386.927
26.28000 395.007
26.32000 375.536
26.36000 367.514
26.40000 384.198
26.44000 390.070
26.48000 389.023
26.52000 383.734
26.56000 370.551
26.60000 371.305
26.64000 369.334
26.68000 369.801
26.72000 374.539
26.76000 384.925
26.80000 367.507
26.84000 372.916
26.88000 379.861
26.92000 378.259
26.96000 375.790
27.00000 370.973
27.04000 364.316
27.08000 360.139
27.12000 376.985
27.16000 377.910
27.20000 362.662
27.24000 376.538
27.28000 379.447
27.32000 375.509
27.36000 408.714
27.40000 355.145
27.44000 356.699
27.48000 345.873
27.52000 358.211
27.56000 374.484
27.60000 370.855
27.64000 368.525
27.68000 357.963
27.72000 351.875
27.76000 369.740
27.80000 354.802
27.84000 359.899
27.88000 388.546
27.92000 371.766
27.96000 378.278
28.00000 356.801
28.04000 363.615
28.08000 360.210
28.12000 348.634
28.16000 359.246
28.20000 364.149
28.24000 360.389
28.28000 355.148
28.32000 355.363
28.36000 364.438
28.40000 354.387
28.44000 366.264
28.48000 355.739
28.52000 342.665
28.56000 350.909
28.60000 354.991
28.64000 341.065
28.68000 356.115
28.72000 357.965
28.76000 341.554
28.80000 352.160
28.84000 366.776
28.88000 367.091
28.92000 354.248
28.96000 358.018
29.00000 351.614
29.04000 360.449
29.08000 353.854
29.12000 352.372
29.16000 346.204
29.20000 331.296
29.24000 358.595
29.28000 347.655
29.32000 351.153
29.36000 364.576
29.40000 350.371
29.44000 343.776
29.48000 346.044
29.52000 327.248
29.56000 337.162
29.60000 349.866
29.64000 361.001
29.68000 349.768
29.72000 344.977
29.76000 366.048
29.80000 359.096
29.84000 369.104
29.88000 368.645
29.92000 381.995
29.96000 377.996
30.00000 382.102
30.04000 378.426
30.08000 380.011
30.12000 369.273
30.16000 369.564
30.20000 382.251
30.24000 363.305
30.28000 383.674
30.32000 358.071
30.36000 363.806
30.40000 373.038
30.44000 365.541
30.48000 394.811
30.52000 348.792
30.56000 366.349
30.60000 359.144
30.64000 370.592
30.68000 381.349
30.72000 380.306
30.76000 362.891
30.80000 382.383
30.84000 394.653
30.88000 397.576
30.92000 424.686
30.96000 432.364
31.00000 459.280
31.04000 488.110
31.08000 525.503
31.12000 585.247
31.16000 682.148
31.20000 759.789
31.24000 910.183
31.28000 1036.332
31.32000 1141.955
31.36000 1226.128
31.40000 1254.129
31.44000 1163.052
31.48000 1110.630
31.52000 1004.863
31.56000 875.535
31.60000 738.029
31.64000 628.089
31.68000 551.720
31.72000 492.925
31.76000 444.607
31.80000 421.801
31.84000 396.802
31.88000 384.765
31.92000 376.454
31.96000 357.041
32.00000 366.994
32.04000 362.925
32.08000 346.983
32.12000 334.027
32.16000 345.763
32.20000 323.879
32.24000 319.739
32.28000 334.281
32.32000 337.308
32.36000 339.602
32.40000 326.678
32.44000 329.983
32.48000 324.090
32.52000 319.809
32.56000 315.418
32.60000 323.299
32.64000 312.283
32.68000 327.966
32.72000 316.757
32.76000 318.020
32.80000 333.609
32.84000 398.618
32.88000 451.779
32.92000 527.255
32.96000 533.329
33.00000 503.554
33.04000 504.225
33.08000 437.163
33.12000 359.143
33.16000 328.451
33.20000 300.737
33.24000 308.901
33.28000 282.533
33.32000 309.822
33.36000 290.393
33.40000 292.962
33.44000 295.910
33.48000 292.599
33.52000 284.642
33.56000 302.080
33.60000 299.167
33.64000 310.494
33.68000 277.780
33.72000 306.509
33.76000 289.320
33.80000 293.892
33.84000 301.469
33.88000 303.585
33.92000 299.442
33.96000 306.777
34.00000 291.869
34.04000 301.001
34.08000 301.303
34.12000 305.108
34.16000 321.079
34.20000 310.172
34.24000 332.628
34.28000 328.533
34.32000 324.895
34.36000 330.621
34.40000 304.884
34.44000 327.465
34.48000 320.946
34.52000 328.618
34.56000 315.142
34.60000 305.247
34.64000 307.670
34.68000 288.694
34.72000 294.251
34.76000 289.611
34.80000 293.254
34.84000 302.634
34.88000 284.677
34.92000 275.058
34.96000 270.644
35.00000 276.124
35.04000 275.273
35.08000 270.349
35.12000 259.826
35.16000 257.090
35.20000 263.235
35.24000 266.220
35.28000 260.398
35.32000 258.004
35.36000 276.810
35.40000 264.979
35.44000 263.595
35.48000 259.471
35.52000 262.455
35.56000 253.471
35.60000 265.389
35.64000 258.439
35.68000 261.695
35.72000 256.810
35.76000 259.081
35.80000 257.844
35.84000 266.439
35.88000 265.152
35.92000 239.278
35.96000 258.178
36.00000 250.531
36.04000 260.035
36.08000 263.975
36.12000 250.976
36.16000 257.351
36.20000 250.619
36.24000 257.134
36.28000 249.823
36.32000 244.491
36.36000 242.377
36.40000 254.515
36.44000 251.173
36.48000 253.924
36.52000 240.455
36.56000 268.269
36.60000 252.258
36.64000 245.647
36.68000 252.469
36.72000 258.618
36.76000 248.514
36.80000 252.790
36.84000 262.302
36.88000 255.154
36.92000 267.018
36.96000 259.798
37.00000 260.201
37.04000 267.925
37.08000 273.481
37.12000 279.131
37.16000 263.369
37.20000 257.835
37.24000 259.141
37.28000 257.591
37.32000 245.573
37.36000 259.326
37.40000 248.852
37.44000 245.029
37.48000 244.182
37.52000 252.810
37.56000 238.990
37.60000 253.766
37.64000 241.034
37.68000 238.598
37.72000 240.516
37.76000 250.399
37.80000 244.160
37.84000 246.487
37.88000 255.212
37.92000 245.202
37.96000 255.622
38.00000 248.330
38.04000 245.737
38.08000 252.695
38.12000 250.946
38.16000 264.830
38.20000 254.373
38.24000 257.207
38.28000 252.768
38.32000 263.726
38.36000 272.597
38.40000 297.020
38.44000 338.775
38.48000 376.753
38.52000 438.021
38.56000 502.770
38.60000 615.957
38.64000 682.826
38.68000 738.290
38.72000 771.275
38.76000 792.090
38.80000 718.357
38.84000 645.542
38.88000 560.799
38.92000 486.684
38.96000 400.697
39.00000 325.031
39.04000 296.143
39.08000 277.954
39.12000 244.864
39.16000 242.776
39.20000 249.747
39.24000 234.550
39.28000 233.709
39.32000 246.099
39.36000 242.311
39.40000 237.223
39.44000 244.213
39.48000 239.414
39.52000 231.181
39.56000 242.910
39.60000 233.648
39.64000 232.104
39.68000 231.298
39.72000 245.873
39.76000 219.914
39.80000 226.201
39.84000 226.533
39.88000 237.257
39.92000 228.538
39.96000 237.558
40.00000 221.009
40.04000 229.720
40.08000 216.323
40.12000 221.802
40.16000 230.650
40.20000 227.848
40.24000 216.828
40.28000 224.375
40.32000 217.907
40.36000 210.366
40.40000 217.241
40.44000 216.427
40.48000 225.405
40.52000 206.764
40.56000 220.373
40.60000 213.054
40.64000 219.864
40.68000 213.089
40.72000 210.607
40.76000 213.874
40.80000 212.319
40.84000 207.289
40.88000 200.736
40.92000 197.336
40.96000 212.866
41.00000 204.253
41.04000 209.695
41.08000 215.353
41.12000 202.836
41.16000 205.053
41.20000 205.633
41.24000 200.972
41.28000 208.906
41.32000 198.180
41.36000 195.211
41.40000 207.086
41.44000 202.707
41.48000 207.993
41.52000 204.286
41.56000 203.417
41.60000 203.766
41.64000 204.158
41.68000 212.519
41.72000 215.092
41.76000 213.866
41.80000 199.382
41.84000 210.301
41.88000 213.536
41.92000 205.837
41.96000 203.929
42.00000 203.089
42.04000 227.643
42.08000 218.658
42.12000 200.630
42.16000 207.639
42.20000 223.747
42.24000 207.095
42.28000 207.562
42.32000 216.689
42.36000 197.922
42.40000 216.740
42.44000 220.290
42.48000 206.599
42.52000 217.805
42.56000 205.531
42.60000 204.109
42.64000 210.372
42.68000 200.755
42.72000 193.782
42.76000 205.534
42.80000 211.825
42.84000 204.900
42.88000 190.473
42.92000 188.974
42.96000 190.439
43.00000 195.449
43.04000 200.029
43.08000 200.450
43.12000 192.576
43.16000 187.688
43.20000 179.007
43.24000 193.781
43.28000 192.879
43.32000 197.865
43.36000 198.380
43.40000 191.696
43.44000 189.336
43.48000 193.648
43.52000 191.880
43.56000 181.136
43.60000 186.614
43.64000 180.914
43.68000 186.827
43.72000 196.029
43.76000 193.469
43.80000 185.648
43.84000 196.192
43.88000 190.639
43.92000 193.955
43.96000 187.733
44.00000 183.100
44.04000 186.253
44.08000 206.440
44.12000 196.281
44.16000 193.197
44.20000 197.694
44.24000 189.005
44.28000 190.092
44.32000 189.097
44.36000 194.348
44.40000 184.978
44.44000 198.532
44.48000 198.126
44.52000 194.293
44.56000 194.131
44.60000 206.629
44.64000 213.531
44.68000 201.463
44.72000 217.478
44.76000 208.009
44.80000 211.647
44.84000 227.299
44.88000 221.649
44.92000 223.516
44.96000 215.273
45.00000 228.758
45.04000 233.744
45.08000 223.531
45.12000 228.744
45.16000 218.017
45.20000 210.118
45.24000 227.144
45.28000 223.270
45.32000 214.708
45.36000 205.223
45.40000 216.650
45.44000 215.824
45.48000 209.310
45.52000 206.031
45.56000 189.137
45.60000 194.979
45.64000 203.240
45.68000 185.190
45.72000 181.740
45.76000 177.612
45.80000 194.807
45.84000 181.289
45.88000 183.927
45.92000 189.196
45.96000 188.753
46.00000 180.650
46.04000 165.679
46.08000 161.577
46.12000 179.804
46.16000 176.977
46.20000 177.018
46.24000 174.968
46.28000 166.528
46.32000 183.221
46.36000 169.606
46.40000 169.037
46.44000 178.725
46.48000 166.365
46.52000 168.168
46.56000 174.280
46.60000 177.360
46.64000 167.823
46.68000 184.550
46.72000 174.147
46.76000 174.332
46.80000 163.550
46.84000 172.244
46.88000 169.452
46.92000 172.193
46.96000 170.432
47.00000 153.893
47.04000 167.702
47.08000 171.362
47.12000 160.613
47.16000 167.024
47.20000 171.761
47.24000 161.545
47.28000 161.031
47.32000 164.858
47.36000 165.852
47.40000 154.402
47.44000 161.232
47.48000 157.648
47.52000 154.552
47.56000 178.978
47.60000 173.773
47.64000 159.926
47.68000 157.065
47.72000 152.935
47.76000 167.393
47.80000 155.997
47.84000 160.998
47.88000 151.838
47.92000 158.885
47.96000 157.220
48.00000 163.692
48.04000 147.475
48.08000 159.289
48.12000 156.433
48.16000 162.777
48.20000 157.013
48.24000 135.604
48.28000 161.499
48.32000 157.208
48.36000 163.290
48.40000 171.798
48.44000 164.619
48.48000 168.321
48.52000 157.029
48.56000 149.689
48.60000 159.766
48.64000 162.093
48.68000 155.700
48.72000 151.119
48.76000 151.036
48.80000 155.518
48.84000 154.357
48.88000 156.737
48.92000 156.754
48.96000 170.581
49.00000 153.325
49.04000 155.942
49.08000 154.356
49.12000 152.833
49.16000 150.371
49.20000 143.529
49.24000 152.532
49.28000 166.663
49.32000 141.514
49.36000 153.022
49.40000 143.701
49.44000 156.833
49.48000 164.072
49.52000 163.661
49.56000 147.235
49.60000 156.169
49.64000 152.028
49.68000 148.424
49.72000 153.549
49.76000 157.841
49.80000 149.125
49.84000 137.887
49.88000 152.989
49.92000 140.960
49.96000 148.281
50.00000 148.623
50.04000 153.124
50.08000 144.976
50.12000 155.480
50.16000 151.161
50.20000 155.958
50.24000 155.466
50.28000 150.184
50.32000 149.498
50.36000 147.491
50.40000 157.131
50.44000 160.064
50.48000 160.249
50.52000 148.204
50.56000 153.354
50.60000 163.715
50.64000 155.920
50.68000 156.152
50.72000 159.759
50.76000 154.586
50.80000 155.825
50.84000 159.596
50.88000 165.727
50.92000 159.555
50.96000 153.744
51.00000 155.487
51.04000 148.000
51.08000 154.080
51.12000 155.899
51.16000 145.531
51.20000 150.157
51.24000 144.812
51.28000 139.123
51.32000 146.065
51.36000 146.313
51.40000 146.723
51.44000 150.805
51.48000 145.513
51.52000 144.332
51.56000 138.968
51.60000 136.517
51.64000 139.513
51.68000 140.116
51.72000 149.952
51.76000 139.155
51.80000 142.498
51.84000 138.367
51.88000 146.164
51.92000 145.263
51.96000 134.462
52.00000 142.923
52.04000 143.540
52.08000 146.797
52.12000 143.375
52.16000 142.972
52.20000 143.847
52.24000 134.579
52.28000 139.345
52.32000 134.461
52.36000 139.723
52.40000 142.006
52.44000 136.636
52.48000 130.237
52.52000 138.606
52.56000 138.580
52.60000 133.979
52.64000 134.443
52.68000 143.790
52.72000 131.881
52.76000 137.803
52.80000 141.596
52.84000 138.285
52.88000 135.148
52.92000 127.955
52.96000 143.777
53.00000 133.083
53.04000 133.088
53.08000 144.676
53.12000 154.740
53.16000 145.021
53.20000 139.307
53.24000 149.452
53.28000 144.104
53.32000 144.843
53.36000 150.273
53.40000 140.251
53.44000 151.978
53.48000 141.170
53.52000 151.756
53.56000 145.457
53.60000 142.570
53.64000 147.692
53.68000 134.509
53.72000 146.093
53.76000 146.635
53.80000 146.863
53.84000 142.749
53.88000 132.587
53.92000 137.558
53.96000 150.563
54.00000 143.413
54.04000 140.262
54.08000 134.436
54.12000 130.101
54.16000 142.581
54.20000 137.836
54.24000 137.223
54.28000 140.835
54.32000 132.951
54.36000 144.879
54.40000 144.651
54.44000 136.021
54.48000 133.514
54.52000 139.891
54.56000 138.855
54.60000 147.385
54.64000 142.399
54.68000 133.468
54.72000 138.048
54.76000 136.994
54.80000 133.761
54.84000 138.999
54.88000 136.534
54.92000 142.344
54.96000 145.062
55.00000 147.137
55.04000 142.435
55.08000 145.487
55.12000 140.314
55.16000 141.847
55.20000 148.301
55.24000 147.061
55.28000 145.565
55.32000 152.190
55.36000 162.492
55.40000 151.636
55.44000 179.484
55.48000 175.437
55.52000 175.333
55.56000 201.256
55.60000 206.812
55.64000 226.956
55.68000 238.147
55.72000 261.627
55.76000 319.429
55.80000 351.265
55.84000 368.711
55.88000 399.591
55.92000 413.909
55.96000 425.773
56.00000 425.261
56.04000 418.165
56.08000 390.936
56.12000 371.478
56.16000 319.710
56.20000 290.495
56.24000 251.551
56.28000 235.301
56.32000 206.395
56.36000 188.970
56.40000 190.489
56.44000 171.552
56.48000 165.001
56.52000 146.089
56.56000 155.265
56.60000 147.495
56.64000 134.983
56.68000 148.503
56.72000 143.692
56.76000 130.750
56.80000 133.040
56.84000 129.470
56.88000 129.942
56.92000 138.857
56.96000 131.384
57.00000 138.307
57.04000 133.547
57.08000 142.652
57.12000 137.111
57.16000 129.861
57.20000 119.380
57.24000 132.832
57.28000 130.756
57.32000 125.705
57.36000 118.103
57.40000 130.769
57.44000 124.816
57.48000 118.858
57.52000 129.760
57.56000 125.338
57.60000 119.868
57.64000 130.537
57.68000 115.835
57.72000 119.599
57.76000 116.283
57.80000 127.332
57.84000 129.442
57.88000 121.349
57.92000 129.549
57.96000 127.922
58.00000 134.722
58.04000 121.831
58.08000 120.573
58.12000 131.689
58.16000 115.920
58.20000 123.420
58.24000 117.150
58.28000 122.820
58.32000 122.557
58.36000 121.421
58.40000 117.566
58.44000 114.613
58.48000 121.042
58.52000 115.830
58.56000 124.609
58.60000 123.841
58.64000 118.762
58.68000 121.514
58.72000 120.234
58.76000 119.956
58.80000 116.213
58.84000 122.116
58.88000 120.453
58.92000 109.323
58.96000 108.396
59.00000 115.920
59.04000 117.776
59.08000 122.686
59.12000 117.491
59.16000 121.185
59.20000 121.254
59.24000 113.722
59.28000 112.105
59.32000 111.108
59.36000 120.090
59.40000 119.805
59.44000 113.604
59.48000 110.569
59.52000 115.142
59.56000 109.668
59.60000 113.267
59.64000 118.594
59.68000 131.954
59.72000 116.283
59.76000 116.121
59.80000 116.421
59.84000 118.236
59.88000 100.688
59.92000 116.424
59.96000 121.187
60.00000 120.229
60.04000 113.454
60.08000 113.797
60.12000 115.311
60.16000 116.724
60.20000 110.382
60.24000 123.281
60.28000 123.518
60.32000 115.981
60.36000 112.377
60.40000 126.733
60.44000 108.716
60.48000 117.224
60.52000 126.368
60.56000 118.222
60.60000 123.259
60.64000 115.252
60.68000 123.095
60.72000 121.530
60.76000 116.680
60.80000 127.143
60.84000 112.113
60.88000 115.084
60.92000 130.014
60.96000 120.291
61.00000 104.132
61.04000 120.657
61.08000 123.908
61.12000 122.940
61.16000 129.971
61.20000 122.489
61.24000 118.875
61.28000 128.867
61.32000 124.905
61.36000 133.030
61.40000 124.449
61.44000 127.445
61.48000 140.609
61.52000 172.884
61.56000 224.804
61.60000 253.155
61.64000 285.642
61.68000 292.619
61.72000 296.222
61.76000 282.960
61.80000 219.747
61.84000 167.033
61.88000 149.929
61.92000 130.483
61.96000 134.849
62.00000 131.869
62.04000 128.887
62.08000 138.051
62.12000 119.945
62.16000 131.132
62.20000 124.012
62.24000 129.626
62.28000 124.310
62.32000 125.368
62.36000 125.517
62.40000 122.814
62.44000 131.334
62.48000 132.552
62.52000 125.517
62.56000 122.301
62.60000 127.202
62.64000 134.663
62.68000 117.932
62.72000 128.307
62.76000 123.732
62.80000 126.554
62.84000 128.001
62.88000 122.130
62.92000 133.246
62.96000 133.518
63.00000 135.488
63.04000 126.155
63.08000 131.701
63.12000 130.339
63.16000 132.126
63.20000 130.765
63.24000 131.606
63.28000 132.017
63.32000 133.361
63.36000 130.725
63.40000 142.365
63.44000 140.157
63.48000 126.790
63.52000 134.069
63.56000 133.822
63.60000 136.285
63.64000 135.506
63.68000 150.212
63.72000 143.279
63.76000 146.164
63.80000 145.347
63.84000 138.612
63.88000 141.909
63.92000 130.747
63.96000 150.000
64.00000 134.162
64.04000 135.011
64.08000 149.204
64.12000 147.357
64.16000 132.752
64.20000 143.705
64.24000 160.353
64.28000 146.073
64.32000 141.921
64.36000 157.331
64.40000 149.088
64.44000 163.442
64.48000 155.760
64.52000 158.700
64.56000 169.834
64.60000 162.152
64.64000 168.648
64.68000 173.649
64.72000 177.592
64.76000 170.831
64.80000 178.140
64.84000 173.952
64.88000 184.120
64.92000 180.031
64.96000 183.817
65.00000 186.421
65.04000 205.874
65.08000 204.946
65.12000 209.692
65.16000 202.745
65.20000 229.978
65.24000 236.251
65.28000 228.059
65.32000 223.772
65.36000 245.758
65.40000 256.025
65.44000 274.740
65.48000 285.841
65.52000 316.239
65.56000 317.585
65.60000 373.724
65.64000 436.234
65.68000 599.457
65.72000 922.142
65.76000 1420.041
65.80000 1797.680
65.84000 1959.115
65.88000 1931.364
65.92000 1863.128
65.96000 1480.362
66.00000 980.271
66.04000 636.335
66.08000 477.255
66.12000 393.580
66.16000 361.730
66.20000 364.695
66.24000 374.086
66.28000 461.999
66.32000 539.176
66.36000 594.837
66.40000 617.786
66.44000 643.320
66.48000 582.630
66.52000 514.685
66.56000 446.865
66.60000 391.581
66.64000 359.389
66.68000 364.500
66.72000 364.246
66.76000 381.132
66.80000 379.961
66.84000 354.997
66.88000 372.719
66.92000 357.319
66.96000 352.488
67.00000 370.906
67.04000 379.718
67.08000 389.665
67.12000 394.757
67.16000 366.995
67.20000 378.437
67.24000 390.969
67.28000 413.453
67.32000 401.532
67.36000 402.264
67.40000 409.969
67.44000 423.843
67.48000 415.524
67.52000 422.213
67.56000 426.225
67.60000 426.599
67.64000 461.980
67.68000 456.634
67.72000 453.761
67.76000 455.536
67.80000 467.732
67.84000 462.146
67.88000 496.355
67.92000 483.471
67.96000 502.168
68.00000 512.851
68.04000 503.245
68.08000 511.651
68.12000 527.826
68.16000 536.519
68.20000 524.561
68.24000 550.502
68.28000 582.922
68.32000 596.438
68.36000 599.722
68.40000 622.690
68.44000 638.198
68.48000 678.235
68.52000 706.280
68.56000 746.927
68.60000 845.515
68.64000 968.972
68.68000 1147.840
68.72000 1315.655
68.76000 1473.937
68.80000 1666.406
68.84000 1888.034
68.88000 2292.337
68.92000 3500.706
68.96000 9917.271
69.00000 22440.070
69.04000 34858.715
69.08000 41100.637
69.12000 43594.258
69.16000 46423.133
69.20000 45394.922
69.24000 35849.668
69.28000 26615.355
69.32000 22099.732
69.36000 20792.662
69.40000 16908.463
69.44000 10154.568
69.48000 4538.360
69.52000 2039.466
69.56000 1314.295
69.60000 1061.613
69.64000 897.920
69.68000 792.371
69.72000 732.431
69.76000 634.511
69.80000 636.800
69.84000 578.859
69.88000 548.065
69.92000 508.261
69.96000 516.770
70.00000 482.313