File: XRD/07-10-2025 Dep 6/XY Data/BTO_Mapping_Theta2Theta_07-10-2025_001_41_-32-361_-23-511.xy
20.00000 461.163
20.04000 467.417
20.08000 458.301
20.12000 476.273
20.16000 471.155
20.20000 465.401
20.24000 476.139
20.28000 458.913
20.32000 439.593
20.36000 457.560
20.40000 451.935
20.44000 456.582
20.48000 474.273
20.52000 457.609
20.56000 447.136
20.60000 456.288
20.64000 465.242
20.68000 468.170
20.72000 476.615
20.76000 467.632
20.80000 470.675
20.84000 478.957
20.88000 470.948
20.92000 481.657
20.96000 482.621
21.00000 479.801
21.04000 474.488
21.08000 488.591
21.12000 487.024
21.16000 473.271
21.20000 484.013
21.24000 467.898
21.28000 469.060
21.32000 479.613
21.36000 459.122
21.40000 461.547
21.44000 484.788
21.48000 485.333
21.52000 474.324
21.56000 504.968
21.60000 473.991
21.64000 483.181
21.68000 518.318
21.72000 536.074
21.76000 583.786
21.80000 630.814
21.84000 666.663
21.88000 709.143
21.92000 768.513
21.96000 798.195
22.00000 779.018
22.04000 749.511
22.08000 717.824
22.12000 673.269
22.16000 626.189
22.20000 610.519
22.24000 557.336
22.28000 511.275
22.32000 526.018
22.36000 487.491
22.40000 480.547
22.44000 473.078
22.48000 475.512
22.52000 440.815
22.56000 438.285
22.60000 446.033
22.64000 443.591
22.68000 446.178
22.72000 442.207
22.76000 438.044
22.80000 438.461
22.84000 442.197
22.88000 433.682
22.92000 436.209
22.96000 434.971
23.00000 446.280
23.04000 423.312
23.08000 429.049
23.12000 441.731
23.16000 431.818
23.20000 429.111
23.24000 429.842
23.28000 421.775
23.32000 407.734
23.36000 425.996
23.40000 424.455
23.44000 431.389
23.48000 406.439
23.52000 423.319
23.56000 413.975
23.60000 423.450
23.64000 440.089
23.68000 436.181
23.72000 426.593
23.76000 407.474
23.80000 412.446
23.84000 413.871
23.88000 410.488
23.92000 405.898
23.96000 431.423
24.00000 405.009
24.04000 402.288
24.08000 419.266
24.12000 409.698
24.16000 422.564
24.20000 413.122
24.24000 413.701
24.28000 399.616
24.32000 421.868
24.36000 417.277
24.40000 415.212
24.44000 405.284
24.48000 410.690
24.52000 407.733
24.56000 416.260
24.60000 411.166
24.64000 408.062
24.68000 411.589
24.72000 402.910
24.76000 405.579
24.80000 384.640
24.84000 396.624
24.88000 402.383
24.92000 406.983
24.96000 398.646
25.00000 401.876
25.04000 392.493
25.08000 394.003
25.12000 392.653
25.16000 400.558
25.20000 384.241
25.24000 389.868
25.28000 395.269
25.32000 399.610
25.36000 407.930
25.40000 393.121
25.44000 402.640
25.48000 399.365
25.52000 404.633
25.56000 392.037
25.60000 411.029
25.64000 401.377
25.68000 377.138
25.72000 374.195
25.76000 385.123
25.80000 371.177
25.84000 403.964
25.88000 385.745
25.92000 392.537
25.96000 383.657
26.00000 375.809
26.04000 380.461
26.08000 396.849
26.12000 380.029
26.16000 406.693
26.20000 379.561
26.24000 381.953
26.28000 389.648
26.32000 411.200
26.36000 401.894
26.40000 375.461
26.44000 384.435
26.48000 380.700
26.52000 378.047
26.56000 377.734
26.60000 383.281
26.64000 376.910
26.68000 384.243
26.72000 376.759
26.76000 370.442
26.80000 371.300
26.84000 368.567
26.88000 375.455
26.92000 355.961
26.96000 381.345
27.00000 375.289
27.04000 392.460
27.08000 376.013
27.12000 364.718
27.16000 386.488
27.20000 368.497
27.24000 379.436
27.28000 380.555
27.32000 385.703
27.36000 374.427
27.40000 381.800
27.44000 373.219
27.48000 359.325
27.52000 351.840
27.56000 376.345
27.60000 356.573
27.64000 355.607
27.68000 357.044
27.72000 367.907
27.76000 366.127
27.80000 350.270
27.84000 380.461
27.88000 367.454
27.92000 355.242
27.96000 368.763
28.00000 349.574
28.04000 366.492
28.08000 367.993
28.12000 366.059
28.16000 372.860
28.20000 384.426
28.24000 367.018
28.28000 352.326
28.32000 378.615
28.36000 363.289
28.40000 357.312
28.44000 364.610
28.48000 370.908
28.52000 353.609
28.56000 345.175
28.60000 332.270
28.64000 351.706
28.68000 351.633
28.72000 344.518
28.76000 346.334
28.80000 368.504
28.84000 369.094
28.88000 365.796
28.92000 345.038
28.96000 356.805
29.00000 356.425
29.04000 350.703
29.08000 354.783
29.12000 360.956
29.16000 360.667
29.20000 346.101
29.24000 341.005
29.28000 360.409
29.32000 356.291
29.36000 338.508
29.40000 347.321
29.44000 364.437
29.48000 353.775
29.52000 342.794
29.56000 364.597
29.60000 367.688
29.64000 374.499
29.68000 376.397
29.72000 392.354
29.76000 414.658
29.80000 428.837
29.84000 435.589
29.88000 472.961
29.92000 469.107
29.96000 457.542
30.00000 483.252
30.04000 470.204
30.08000 469.102
30.12000 437.195
30.16000 446.837
30.20000 443.939
30.24000 422.937
30.28000 422.213
30.32000 418.198
30.36000 405.395
30.40000 395.143
30.44000 405.394
30.48000 387.208
30.52000 399.152
30.56000 380.574
30.60000 394.288
30.64000 406.718
30.68000 390.024
30.72000 414.244
30.76000 413.924
30.80000 434.334
30.84000 461.759
30.88000 498.472
30.92000 582.918
30.96000 680.052
31.00000 827.778
31.04000 1049.453
31.08000 1350.244
31.12000 1694.231
31.16000 2196.533
31.20000 2702.435
31.24000 3115.756
31.28000 3470.699
31.32000 3594.354
31.36000 3445.074
31.40000 3208.914
31.44000 2832.588
31.48000 2303.644
31.52000 1822.570
31.56000 1457.110
31.60000 1115.065
31.64000 871.349
31.68000 704.142
31.72000 590.332
31.76000 525.011
31.80000 457.295
31.84000 397.261
31.88000 399.485
31.92000 384.689
31.96000 360.895
32.00000 370.510
32.04000 343.277
32.08000 349.608
32.12000 354.624
32.16000 353.036
32.20000 345.355
32.24000 338.096
32.28000 334.230
32.32000 326.429
32.36000 333.737
32.40000 326.048
32.44000 330.901
32.48000 315.848
32.52000 318.051
32.56000 322.012
32.60000 329.220
32.64000 317.910
32.68000 315.615
32.72000 310.213
32.76000 342.228
32.80000 358.915
32.84000 451.720
32.88000 548.774
32.92000 598.001
32.96000 649.235
33.00000 660.615
33.04000 594.717
33.08000 486.962
33.12000 422.392
33.16000 347.100
33.20000 311.267
33.24000 302.747
33.28000 292.670
33.32000 298.475
33.36000 291.461
33.40000 291.714
33.44000 291.245
33.48000 302.679
33.52000 277.114
33.56000 282.264
33.60000 307.282
33.64000 291.852
33.68000 289.566
33.72000 279.089
33.76000 273.208
33.80000 278.383
33.84000 297.269
33.88000 285.729
33.92000 266.723
33.96000 284.221
34.00000 279.665
34.04000 274.921
34.08000 274.609
34.12000 299.429
34.16000 267.477
34.20000 274.421
34.24000 282.940
34.28000 273.897
34.32000 285.371
34.36000 292.742
34.40000 270.971
34.44000 285.496
34.48000 276.342
34.52000 283.951
34.56000 267.747
34.60000 273.966
34.64000 288.173
34.68000 277.404
34.72000 280.977
34.76000 287.457
34.80000 273.313
34.84000 283.544
34.88000 273.805
34.92000 257.205
34.96000 268.754
35.00000 269.391
35.04000 270.778
35.08000 262.962
35.12000 268.003
35.16000 251.585
35.20000 267.682
35.24000 265.379
35.28000 265.246
35.32000 275.749
35.36000 277.790
35.40000 276.278
35.44000 268.767
35.48000 255.627
35.52000 255.789
35.56000 268.214
35.60000 268.474
35.64000 266.287
35.68000 277.911
35.72000 265.133
35.76000 267.153
35.80000 261.724
35.84000 265.871
35.88000 259.317
35.92000 246.765
35.96000 256.415
36.00000 249.680
36.04000 263.674
36.08000 261.988
36.12000 257.071
36.16000 250.339
36.20000 255.866
36.24000 248.231
36.28000 258.052
36.32000 258.800
36.36000 250.781
36.40000 253.976
36.44000 257.762
36.48000 250.670
36.52000 258.870
36.56000 256.944
36.60000 242.986
36.64000 245.930
36.68000 254.184
36.72000 264.068
36.76000 256.088
36.80000 254.460
36.84000 258.009
36.88000 262.226
36.92000 259.781
36.96000 270.609
37.00000 261.408
37.04000 266.275
37.08000 247.734
37.12000 249.268
37.16000 253.658
37.20000 258.642
37.24000 260.081
37.28000 249.822
37.32000 253.016
37.36000 257.325
37.40000 244.862
37.44000 243.587
37.48000 250.575
37.52000 245.256
37.56000 253.017
37.60000 235.231
37.64000 239.258
37.68000 250.930
37.72000 251.831
37.76000 240.717
37.80000 249.848
37.84000 254.169
37.88000 239.280
37.92000 247.976
37.96000 253.722
38.00000 249.409
38.04000 248.054
38.08000 265.756
38.12000 265.331
38.16000 248.272
38.20000 252.315
38.24000 270.229
38.28000 287.170
38.32000 298.939
38.36000 315.873
38.40000 339.413
38.44000 394.723
38.48000 386.946
38.52000 434.899
38.56000 470.242
38.60000 453.184
38.64000 453.960
38.68000 464.952
38.72000 433.225
38.76000 429.688
38.80000 381.608
38.84000 366.062
38.88000 325.487
38.92000 306.148
38.96000 284.655
39.00000 279.083
39.04000 255.643
39.08000 238.200
39.12000 246.795
39.16000 233.563
39.20000 231.534
39.24000 232.934
39.28000 233.831
39.32000 226.850
39.36000 227.778
39.40000 228.616
39.44000 227.902
39.48000 225.103
39.52000 230.425
39.56000 221.618
39.60000 219.557
39.64000 225.734
39.68000 222.403
39.72000 214.410
39.76000 225.940
39.80000 224.830
39.84000 239.649
39.88000 231.824
39.92000 214.896
39.96000 216.314
40.00000 221.328
40.04000 222.418
40.08000 224.705
40.12000 234.261
40.16000 212.019
40.20000 221.216
40.24000 213.822
40.28000 216.724
40.32000 217.410
40.36000 227.553
40.40000 220.790
40.44000 219.626
40.48000 216.910
40.52000 215.260
40.56000 220.069
40.60000 219.145
40.64000 211.391
40.68000 207.114
40.72000 211.854
40.76000 221.984
40.80000 214.612
40.84000 212.174
40.88000 206.761
40.92000 205.577
40.96000 216.226
41.00000 199.089
41.04000 217.091
41.08000 212.584
41.12000 218.856
41.16000 207.153
41.20000 211.583
41.24000 202.561
41.28000 204.944
41.32000 213.160
41.36000 198.399
41.40000 202.228
41.44000 207.520
41.48000 202.287
41.52000 199.443
41.56000 202.185
41.60000 202.141
41.64000 207.401
41.68000 201.770
41.72000 206.952
41.76000 215.315
41.80000 202.416
41.84000 200.646
41.88000 199.657
41.92000 202.579
41.96000 195.024
42.00000 198.374
42.04000 199.025
42.08000 216.189
42.12000 192.763
42.16000 196.618
42.20000 214.773
42.24000 182.421
42.28000 194.563
42.32000 202.838
42.36000 203.131
42.40000 194.180
42.44000 194.036
42.48000 194.697
42.52000 207.952
42.56000 202.767
42.60000 199.042
42.64000 205.030
42.68000 214.272
42.72000 193.578
42.76000 209.310
42.80000 204.545
42.84000 209.073
42.88000 200.580
42.92000 207.514
42.96000 201.192
43.00000 198.170
43.04000 203.807
43.08000 196.338
43.12000 208.375
43.16000 189.955
43.20000 201.089
43.24000 202.718
43.28000 195.174
43.32000 196.462
43.36000 202.863
43.40000 200.438
43.44000 201.005
43.48000 188.630
43.52000 192.971
43.56000 195.017
43.60000 189.676
43.64000 195.516
43.68000 191.702
43.72000 194.442
43.76000 194.615
43.80000 202.311
43.84000 203.646
43.88000 193.275
43.92000 197.161
43.96000 185.033
44.00000 199.214
44.04000 196.930
44.08000 198.356
44.12000 215.516
44.16000 204.929
44.20000 205.931
44.24000 210.708
44.28000 216.586
44.32000 213.450
44.36000 218.137
44.40000 215.736
44.44000 237.162
44.48000 251.518
44.52000 256.675
44.56000 269.003
44.60000 294.116
44.64000 320.998
44.68000 334.290
44.72000 365.214
44.76000 398.835
44.80000 417.581
44.84000 444.900
44.88000 454.192
44.92000 463.289
44.96000 450.549
45.00000 436.669
45.04000 421.508
45.08000 399.284
45.12000 370.557
45.16000 334.905
45.20000 325.003
45.24000 302.205
45.28000 284.565
45.32000 269.661
45.36000 261.712
45.40000 247.167
45.44000 247.656
45.48000 227.917
45.52000 226.929
45.56000 214.805
45.60000 205.264
45.64000 218.071
45.68000 193.810
45.72000 198.715
45.76000 200.977
45.80000 197.535
45.84000 199.207
45.88000 187.339
45.92000 199.021
45.96000 193.570
46.00000 178.467
46.04000 178.714
46.08000 192.087
46.12000 174.847
46.16000 175.595
46.20000 182.964
46.24000 192.769
46.28000 178.313
46.32000 190.121
46.36000 170.947
46.40000 167.826
46.44000 179.706
46.48000 167.674
46.52000 172.633
46.56000 177.380
46.60000 167.861
46.64000 169.362
46.68000 181.160
46.72000 164.817
46.76000 174.871
46.80000 183.659
46.84000 177.491
46.88000 172.617
46.92000 160.655
46.96000 178.588
47.00000 153.217
47.04000 178.909
47.08000 174.833
47.12000 158.645
47.16000 172.286
47.20000 163.613
47.24000 169.416
47.28000 160.823
47.32000 155.353
47.36000 159.288
47.40000 148.699
47.44000 150.512
47.48000 161.512
47.52000 157.814
47.56000 168.759
47.60000 159.891
47.64000 174.447
47.68000 168.240
47.72000 173.444
47.76000 153.901
47.80000 170.460
47.84000 167.139
47.88000 155.766
47.92000 156.167
47.96000 156.120
48.00000 158.646
48.04000 167.136
48.08000 158.819
48.12000 157.723
48.16000 159.632
48.20000 164.800
48.24000 165.740
48.28000 163.037
48.32000 164.402
48.36000 168.618
48.40000 163.787
48.44000 154.480
48.48000 165.613
48.52000 163.925
48.56000 157.609
48.60000 159.215
48.64000 151.694
48.68000 150.881
48.72000 167.158
48.76000 159.636
48.80000 143.112
48.84000 147.294
48.88000 156.769
48.92000 141.097
48.96000 149.240
49.00000 157.329
49.04000 150.415
49.08000 152.307
49.12000 155.142
49.16000 151.569
49.20000 153.823
49.24000 147.883
49.28000 164.973
49.32000 139.595
49.36000 150.934
49.40000 159.302
49.44000 148.851
49.48000 152.036
49.52000 157.108
49.56000 153.533
49.60000 154.589
49.64000 151.007
49.68000 154.758
49.72000 153.891
49.76000 155.557
49.80000 153.259
49.84000 158.782
49.88000 166.713
49.92000 169.364
49.96000 157.931
50.00000 159.682
50.04000 166.344
50.08000 165.153
50.12000 171.162
50.16000 172.041
50.20000 197.851
50.24000 184.455
50.28000 197.703
50.32000 219.947
50.36000 231.010
50.40000 228.033
50.44000 247.573
50.48000 248.235
50.52000 256.344
50.56000 263.691
50.60000 251.827
50.64000 263.137
50.68000 254.643
50.72000 243.608
50.76000 231.090
50.80000 207.818
50.84000 213.111
50.88000 199.714
50.92000 187.382
50.96000 190.255
51.00000 169.906
51.04000 166.926
51.08000 162.519
51.12000 159.542
51.16000 168.359
51.20000 162.212
51.24000 159.341
51.28000 154.211
51.32000 153.931
51.36000 139.031
51.40000 147.559
51.44000 154.938
51.48000 140.187
51.52000 146.575
51.56000 148.631
51.60000 140.358
51.64000 145.219
51.68000 146.994
51.72000 147.430
51.76000 139.973
51.80000 140.660
51.84000 142.718
51.88000 148.857
51.92000 150.063
51.96000 147.995
52.00000 129.753
52.04000 137.582
52.08000 143.849
52.12000 139.649
52.16000 143.867
52.20000 136.802
52.24000 141.311
52.28000 151.287
52.32000 139.255
52.36000 140.663
52.40000 146.501
52.44000 143.595
52.48000 135.215
52.52000 138.061
52.56000 141.736
52.60000 128.425
52.64000 142.997
52.68000 139.319
52.72000 143.769
52.76000 144.420
52.80000 140.125
52.84000 137.282
52.88000 146.559
52.92000 139.647
52.96000 144.767
53.00000 138.693
53.04000 145.972
53.08000 138.302
53.12000 158.984
53.16000 149.267
53.20000 149.549
53.24000 148.423
53.28000 146.943
53.32000 151.626
53.36000 156.013
53.40000 153.953
53.44000 146.603
53.48000 151.904
53.52000 130.585
53.56000 154.594
53.60000 153.895
53.64000 147.535
53.68000 132.300
53.72000 145.978
53.76000 147.317
53.80000 136.598
53.84000 141.108
53.88000 131.282
53.92000 144.555
53.96000 146.153
54.00000 140.552
54.04000 134.628
54.08000 127.435
54.12000 138.667
54.16000 135.897
54.20000 127.229
54.24000 128.960
54.28000 127.218
54.32000 137.337
54.36000 146.199
54.40000 133.537
54.44000 133.639
54.48000 122.906
54.52000 137.471
54.56000 140.232
54.60000 131.776
54.64000 144.460
54.68000 141.055
54.72000 131.081
54.76000 145.127
54.80000 156.754
54.84000 153.180
54.88000 140.319
54.92000 144.116
54.96000 146.782
55.00000 143.810
55.04000 141.565
55.08000 147.217
55.12000 155.921
55.16000 160.125
55.20000 165.009
55.24000 181.128
55.28000 175.995
55.32000 202.646
55.36000 219.676
55.40000 231.625
55.44000 267.238
55.48000 309.941
55.52000 326.195
55.56000 369.928
55.60000 389.978
55.64000 451.325
55.68000 479.890
55.72000 495.156
55.76000 498.381
55.80000 501.775
55.84000 536.631
55.88000 498.018
55.92000 480.575
55.96000 451.011
56.00000 413.741
56.04000 390.010
56.08000 345.281
56.12000 332.647
56.16000 278.073
56.20000 253.278
56.24000 241.998
56.28000 211.149
56.32000 194.895
56.36000 178.635
56.40000 164.320
56.44000 166.205
56.48000 162.641
56.52000 150.614
56.56000 154.915
56.60000 129.296
56.64000 141.921
56.68000 147.549
56.72000 128.061
56.76000 129.147
56.80000 138.330
56.84000 135.485
56.88000 132.202
56.92000 137.935
56.96000 133.517
57.00000 128.890
57.04000 128.640
57.08000 133.897
57.12000 126.351
57.16000 126.972
57.20000 122.140
57.24000 112.547
57.28000 119.962
57.32000 119.252
57.36000 125.801
57.40000 130.916
57.44000 125.865
57.48000 126.086
57.52000 129.245
57.56000 124.304
57.60000 124.424
57.64000 128.760
57.68000 129.652
57.72000 113.573
57.76000 119.549
57.80000 128.613
57.84000 129.209
57.88000 125.291
57.92000 117.688
57.96000 123.700
58.00000 145.487
58.04000 124.680
58.08000 128.576
58.12000 118.112
58.16000 124.750
58.20000 132.110
58.24000 130.555
58.28000 118.478
58.32000 124.199
58.36000 117.498
58.40000 118.338
58.44000 110.856
58.48000 114.294
58.52000 124.087
58.56000 114.622
58.60000 123.331
58.64000 111.098
58.68000 129.274
58.72000 127.172
58.76000 118.487
58.80000 121.908
58.84000 120.308
58.88000 111.512
58.92000 113.474
58.96000 110.329
59.00000 119.031
59.04000 126.418
59.08000 122.406
59.12000 116.639
59.16000 111.760
59.20000 114.364
59.24000 111.835
59.28000 128.027
59.32000 116.257
59.36000 120.949
59.40000 108.211
59.44000 114.782
59.48000 120.485
59.52000 118.172
59.56000 110.593
59.60000 112.470
59.64000 117.691
59.68000 110.739
59.72000 115.182
59.76000 120.354
59.80000 117.400
59.84000 115.473
59.88000 118.708
59.92000 116.660
59.96000 120.665
60.00000 125.112
60.04000 117.290
60.08000 113.533
60.12000 111.737
60.16000 115.850
60.20000 120.170
60.24000 123.943
60.28000 110.735
60.32000 112.280
60.36000 115.692
60.40000 123.683
60.44000 114.452
60.48000 120.893
60.52000 125.668
60.56000 112.908
60.60000 119.711
60.64000 113.290
60.68000 122.839
60.72000 118.577
60.76000 112.343
60.80000 114.679
60.84000 120.902
60.88000 111.693
60.92000 112.633
60.96000 116.929
61.00000 115.840
61.04000 107.169
61.08000 120.059
61.12000 129.289
61.16000 120.912
61.20000 124.787
61.24000 120.888
61.28000 129.176
61.32000 118.414
61.36000 120.954
61.40000 131.904
61.44000 132.988
61.48000 142.221
61.52000 179.942
61.56000 250.549
61.60000 315.525
61.64000 345.272
61.68000 376.112
61.72000 383.307
61.76000 353.847
61.80000 267.726
61.84000 199.030
61.88000 156.292
61.92000 134.074
61.96000 127.796
62.00000 126.148
62.04000 143.289
62.08000 131.271
62.12000 130.450
62.16000 129.873
62.20000 126.697
62.24000 145.908
62.28000 142.779
62.32000 130.312
62.36000 140.120
62.40000 127.733
62.44000 128.905
62.48000 137.171
62.52000 126.850
62.56000 122.719
62.60000 131.774
62.64000 132.074
62.68000 136.000
62.72000 127.685
62.76000 133.005
62.80000 137.671
62.84000 135.668
62.88000 135.266
62.92000 140.579
62.96000 137.461
63.00000 130.797
63.04000 138.149
63.08000 134.450
63.12000 131.536
63.16000 136.860
63.20000 142.077
63.24000 137.114
63.28000 134.349
63.32000 136.303
63.36000 136.393
63.40000 144.126
63.44000 146.060
63.48000 138.598
63.52000 124.532
63.56000 138.172
63.60000 143.152
63.64000 153.653
63.68000 140.039
63.72000 133.832
63.76000 140.007
63.80000 152.205
63.84000 143.805
63.88000 150.507
63.92000 140.297
63.96000 150.336
64.00000 145.211
64.04000 164.030
64.08000 143.809
64.12000 155.631
64.16000 157.012
64.20000 163.355
64.24000 164.639
64.28000 162.296
64.32000 159.801
64.36000 164.895
64.40000 170.492
64.44000 157.822
64.48000 166.971
64.52000 172.411
64.56000 174.006
64.60000 178.969
64.64000 187.721
64.68000 176.140
64.72000 180.473
64.76000 199.282
64.80000 192.002
64.84000 203.834
64.88000 214.016
64.92000 228.326
64.96000 239.816
65.00000 248.643
65.04000 282.187
65.08000 295.288
65.12000 296.813
65.16000 323.407
65.20000 335.167
65.24000 345.669
65.28000 377.722
65.32000 426.843
65.36000 420.770
65.40000 433.293
65.44000 458.479
65.48000 457.500
65.52000 481.995
65.56000 510.667
65.60000 556.228
65.64000 675.673
65.68000 935.697
65.72000 1420.415
65.76000 2114.328
65.80000 2653.710
65.84000 2872.069
65.88000 2858.424
65.92000 2677.916
65.96000 2092.213
66.00000 1388.654
66.04000 880.759
66.08000 603.838
66.12000 523.465
66.16000 476.964
66.20000 480.437
66.24000 521.229
66.28000 606.620
66.32000 695.866
66.36000 794.575
66.40000 851.532
66.44000 822.232
66.48000 765.846
66.52000 664.618
66.56000 552.781
66.60000 469.258
66.64000 431.098
66.68000 408.410
66.72000 409.808
66.76000 401.709
66.80000 410.288
66.84000 420.927
66.88000 425.726
66.92000 407.063
66.96000 445.414
67.00000 432.584
67.04000 418.814
67.08000 447.033
67.12000 458.662
67.16000 468.363
67.20000 458.101
67.24000 467.714
67.28000 473.507
67.32000 478.258
67.36000 461.657
67.40000 479.346
67.44000 492.364
67.48000 492.280
67.52000 482.568
67.56000 484.096
67.60000 487.338
67.64000 511.746
67.68000 529.538
67.72000 532.197
67.76000 514.910
67.80000 537.802
67.84000 541.639
67.88000 544.268
67.92000 571.232
67.96000 571.579
68.00000 556.153
68.04000 591.201
68.08000 613.983
68.12000 603.242
68.16000 621.077
68.20000 625.514
68.24000 656.156
68.28000 662.224
68.32000 683.591
68.36000 725.361
68.40000 769.894
68.44000 753.269
68.48000 808.799
68.52000 833.719
68.56000 941.470
68.60000 1094.745
68.64000 1205.455
68.68000 1442.118
68.72000 1717.908
68.76000 2020.894
68.80000 2341.853
68.84000 2902.850
68.88000 3951.528
68.92000 6413.403
68.96000 16313.629
69.00000 33791.340
69.04000 51227.523
69.08000 60250.512
69.12000 64438.992
69.16000 67809.070
69.20000 64748.773
69.24000 52903.023
69.28000 39812.219
69.32000 32900.211
69.36000 29671.760
69.40000 23651.625
69.44000 15030.103
69.48000 6868.780
69.52000 3000.098
69.56000 1754.723
69.60000 1328.634
69.64000 1079.739
69.68000 957.059
69.72000 832.632
69.76000 795.954
69.80000 723.588
69.84000 651.333
69.88000 622.691
69.92000 595.505
69.96000 598.672
70.00000 529.136