File: XRD/07-10-2025 Dep 6/XY Data/BTO_Mapping_Theta2Theta_07-10-2025_001_61_36-542_-16-269.xy
20.00000 473.026
20.04000 466.465
20.08000 475.160
20.12000 482.636
20.16000 499.073
20.20000 479.629
20.24000 465.060
20.28000 477.715
20.32000 475.463
20.36000 476.568
20.40000 447.328
20.44000 469.503
20.48000 458.589
20.52000 474.756
20.56000 453.673
20.60000 453.525
20.64000 448.111
20.68000 445.170
20.72000 461.407
20.76000 473.168
20.80000 455.032
20.84000 468.836
20.88000 456.272
20.92000 472.075
20.96000 465.488
21.00000 457.843
21.04000 464.066
21.08000 465.992
21.12000 472.771
21.16000 479.008
21.20000 467.056
21.24000 468.727
21.28000 473.577
21.32000 462.148
21.36000 470.048
21.40000 464.912
21.44000 479.836
21.48000 475.678
21.52000 452.333
21.56000 481.903
21.60000 479.913
21.64000 475.289
21.68000 474.124
21.72000 466.389
21.76000 469.048
21.80000 472.917
21.84000 470.127
21.88000 472.840
21.92000 477.510
21.96000 486.572
22.00000 497.065
22.04000 489.636
22.08000 492.709
22.12000 475.031
22.16000 470.487
22.20000 488.519
22.24000 474.143
22.28000 473.838
22.32000 475.589
22.36000 470.827
22.40000 459.703
22.44000 455.023
22.48000 455.943
22.52000 447.294
22.56000 435.651
22.60000 425.350
22.64000 451.348
22.68000 430.653
22.72000 437.786
22.76000 438.507
22.80000 436.065
22.84000 444.018
22.88000 436.703
22.92000 424.172
22.96000 442.874
23.00000 421.158
23.04000 441.130
23.08000 433.661
23.12000 442.925
23.16000 446.516
23.20000 445.726
23.24000 431.912
23.28000 427.660
23.32000 426.741
23.36000 450.476
23.40000 426.283
23.44000 448.363
23.48000 451.158
23.52000 442.142
23.56000 443.561
23.60000 440.682
23.64000 439.065
23.68000 460.246
23.72000 445.883
23.76000 459.426
23.80000 467.328
23.84000 480.726
23.88000 486.050
23.92000 498.592
23.96000 487.363
24.00000 495.706
24.04000 484.907
24.08000 505.013
24.12000 477.408
24.16000 456.597
24.20000 468.069
24.24000 450.810
24.28000 466.937
24.32000 448.014
24.36000 451.322
24.40000 433.681
24.44000 425.783
24.48000 428.126
24.52000 416.270
24.56000 418.298
24.60000 411.476
24.64000 419.674
24.68000 408.168
24.72000 417.790
24.76000 414.935
24.80000 408.529
24.84000 413.244
24.88000 413.314
24.92000 410.994
24.96000 420.579
25.00000 396.580
25.04000 411.898
25.08000 417.668
25.12000 389.304
25.16000 389.932
25.20000 385.814
25.24000 394.115
25.28000 405.231
25.32000 393.030
25.36000 409.370
25.40000 393.511
25.44000 405.352
25.48000 409.436
25.52000 382.938
25.56000 388.528
25.60000 405.777
25.64000 387.247
25.68000 399.977
25.72000 375.008
25.76000 388.751
25.80000 380.077
25.84000 396.675
25.88000 385.362
25.92000 395.230
25.96000 373.872
26.00000 375.885
26.04000 395.225
26.08000 392.847
26.12000 382.330
26.16000 391.399
26.20000 393.246
26.24000 393.791
26.28000 380.149
26.32000 387.264
26.36000 380.629
26.40000 385.224
26.44000 394.586
26.48000 397.842
26.52000 386.876
26.56000 392.364
26.60000 383.051
26.64000 381.624
26.68000 379.019
26.72000 382.622
26.76000 386.968
26.80000 386.623
26.84000 387.801
26.88000 377.624
26.92000 370.759
26.96000 387.274
27.00000 379.133
27.04000 356.983
27.08000 393.567
27.12000 382.965
27.16000 386.871
27.20000 368.787
27.24000 376.352
27.28000 392.825
27.32000 368.373
27.36000 356.674
27.40000 389.317
27.44000 379.074
27.48000 369.862
27.52000 388.485
27.56000 388.876
27.60000 371.082
27.64000 393.335
27.68000 361.465
27.72000 363.841
27.76000 365.775
27.80000 397.288
27.84000 366.392
27.88000 361.725
27.92000 370.662
27.96000 370.478
28.00000 387.505
28.04000 378.053
28.08000 378.406
28.12000 349.759
28.16000 369.385
28.20000 367.580
28.24000 371.725
28.28000 363.222
28.32000 359.324
28.36000 357.342
28.40000 384.877
28.44000 381.379
28.48000 383.360
28.52000 339.564
28.56000 363.837
28.60000 365.333
28.64000 370.272
28.68000 367.954
28.72000 351.263
28.76000 368.351
28.80000 371.211
28.84000 383.380
28.88000 351.977
28.92000 351.859
28.96000 368.672
29.00000 364.864
29.04000 372.655
29.08000 372.479
29.12000 355.971
29.16000 362.175
29.20000 360.167
29.24000 374.409
29.28000 366.479
29.32000 339.265
29.36000 348.663
29.40000 368.923
29.44000 358.327
29.48000 366.876
29.52000 359.122
29.56000 370.998
29.60000 345.823
29.64000 374.777
29.68000 354.475
29.72000 368.887
29.76000 355.378
29.80000 360.920
29.84000 364.073
29.88000 377.398
29.92000 393.563
29.96000 382.372
30.00000 375.110
30.04000 366.691
30.08000 370.024
30.12000 384.380
30.16000 376.369
30.20000 379.228
30.24000 374.037
30.28000 359.404
30.32000 370.321
30.36000 374.755
30.40000 370.853
30.44000 368.168
30.48000 355.419
30.52000 364.739
30.56000 363.960
30.60000 391.801
30.64000 376.260
30.68000 391.147
30.72000 389.854
30.76000 397.756
30.80000 370.450
30.84000 382.573
30.88000 415.505
30.92000 415.009
30.96000 443.672
31.00000 448.937
31.04000 492.851
31.08000 535.821
31.12000 589.621
31.16000 610.659
31.20000 708.476
31.24000 778.128
31.28000 838.504
31.32000 914.271
31.36000 926.788
31.40000 924.315
31.44000 900.562
31.48000 829.499
31.52000 767.101
31.56000 702.522
31.60000 633.867
31.64000 550.894
31.68000 508.935
31.72000 487.503
31.76000 448.525
31.80000 420.158
31.84000 435.397
31.88000 406.198
31.92000 388.717
31.96000 384.825
32.00000 385.132
32.04000 382.197
32.08000 376.071
32.12000 372.913
32.16000 357.123
32.20000 353.918
32.24000 345.133
32.28000 349.242
32.32000 335.380
32.36000 353.948
32.40000 333.306
32.44000 335.509
32.48000 348.117
32.52000 332.309
32.56000 317.050
32.60000 313.588
32.64000 317.890
32.68000 320.135
32.72000 307.728
32.76000 314.567
32.80000 337.371
32.84000 404.192
32.88000 470.650
32.92000 514.822
32.96000 523.143
33.00000 554.655
33.04000 521.157
33.08000 435.649
33.12000 379.926
33.16000 341.056
33.20000 318.198
33.24000 305.327
33.28000 306.052
33.32000 302.929
33.36000 288.481
33.40000 305.373
33.44000 301.976
33.48000 288.249
33.52000 297.901
33.56000 297.120
33.60000 288.085
33.64000 294.931
33.68000 297.233
33.72000 286.476
33.76000 290.118
33.80000 301.030
33.84000 297.962
33.88000 303.757
33.92000 316.518
33.96000 315.167
34.00000 282.906
34.04000 293.963
34.08000 303.373
34.12000 297.556
34.16000 309.522
34.20000 306.388
34.24000 299.334
34.28000 305.553
34.32000 312.819
34.36000 310.407
34.40000 298.381
34.44000 303.424
34.48000 308.669
34.52000 295.593
34.56000 297.156
34.60000 280.760
34.64000 287.310
34.68000 297.885
34.72000 296.309
34.76000 266.494
34.80000 270.219
34.84000 285.482
34.88000 278.041
34.92000 275.841
34.96000 265.806
35.00000 273.396
35.04000 264.489
35.08000 265.656
35.12000 270.436
35.16000 275.245
35.20000 268.052
35.24000 268.446
35.28000 262.150
35.32000 269.786
35.36000 276.180
35.40000 258.416
35.44000 264.731
35.48000 267.152
35.52000 264.484
35.56000 269.763
35.60000 252.194
35.64000 253.585
35.68000 266.651
35.72000 257.585
35.76000 257.072
35.80000 264.257
35.84000 266.864
35.88000 260.589
35.92000 261.810
35.96000 250.414
36.00000 273.167
36.04000 247.836
36.08000 251.445
36.12000 251.905
36.16000 266.576
36.20000 262.372
36.24000 259.368
36.28000 254.617
36.32000 258.553
36.36000 245.316
36.40000 251.347
36.44000 258.279
36.48000 260.551
36.52000 248.849
36.56000 258.586
36.60000 263.463
36.64000 250.687
36.68000 260.002
36.72000 257.033
36.76000 263.557
36.80000 272.458
36.84000 264.654
36.88000 260.036
36.92000 274.894
36.96000 269.598
37.00000 251.813
37.04000 265.007
37.08000 263.470
37.12000 272.047
37.16000 264.195
37.20000 250.621
37.24000 242.769
37.28000 258.374
37.32000 267.538
37.36000 251.609
37.40000 250.182
37.44000 253.634
37.48000 239.679
37.52000 257.990
37.56000 255.570
37.60000 243.398
37.64000 236.347
37.68000 259.507
37.72000 243.504
37.76000 244.887
37.80000 247.159
37.84000 237.533
37.88000 253.522
37.92000 255.076
37.96000 253.548
38.00000 253.501
38.04000 252.327
38.08000 252.245
38.12000 261.099
38.16000 272.986
38.20000 270.062
38.24000 264.057
38.28000 273.881
38.32000 278.635
38.36000 306.759
38.40000 308.861
38.44000 331.311
38.48000 347.619
38.52000 403.502
38.56000 452.296
38.60000 484.871
38.64000 522.857
38.68000 554.123
38.72000 547.739
38.76000 533.600
38.80000 484.867
38.84000 442.941
38.88000 406.302
38.92000 352.176
38.96000 318.884
39.00000 282.475
39.04000 268.388
39.08000 270.810
39.12000 262.045
39.16000 257.419
39.20000 239.458
39.24000 240.072
39.28000 246.525
39.32000 231.001
39.36000 234.765
39.40000 231.690
39.44000 242.860
39.48000 243.731
39.52000 239.714
39.56000 238.305
39.60000 242.285
39.64000 224.814
39.68000 230.538
39.72000 240.691
39.76000 231.166
39.80000 231.296
39.84000 222.691
39.88000 223.684
39.92000 229.395
39.96000 211.398
40.00000 218.520
40.04000 232.310
40.08000 220.830
40.12000 220.680
40.16000 225.524
40.20000 219.335
40.24000 239.814
40.28000 222.605
40.32000 230.169
40.36000 215.309
40.40000 215.304
40.44000 212.089
40.48000 218.521
40.52000 216.989
40.56000 223.540
40.60000 224.662
40.64000 221.937
40.68000 218.826
40.72000 211.217
40.76000 219.905
40.80000 205.762
40.84000 214.924
40.88000 217.697
40.92000 214.769
40.96000 203.582
41.00000 204.511
41.04000 222.194
41.08000 215.467
41.12000 205.852
41.16000 209.674
41.20000 206.403
41.24000 211.137
41.28000 225.910
41.32000 205.106
41.36000 203.840
41.40000 205.896
41.44000 203.665
41.48000 203.054
41.52000 211.787
41.56000 210.623
41.60000 211.928
41.64000 208.920
41.68000 219.588
41.72000 207.801
41.76000 214.644
41.80000 211.471
41.84000 200.535
41.88000 216.996
41.92000 197.140
41.96000 212.256
42.00000 198.778
42.04000 222.322
42.08000 212.246
42.12000 214.159
42.16000 202.721
42.20000 208.241
42.24000 206.197
42.28000 208.404
42.32000 213.655
42.36000 209.417
42.40000 214.641
42.44000 211.147
42.48000 205.023
42.52000 222.979
42.56000 199.831
42.60000 202.067
42.64000 206.038
42.68000 211.009
42.72000 207.356
42.76000 211.478
42.80000 210.981
42.84000 193.552
42.88000 214.763
42.92000 197.381
42.96000 194.430
43.00000 198.404
43.04000 199.412
43.08000 198.618
43.12000 202.948
43.16000 204.594
43.20000 181.039
43.24000 189.095
43.28000 199.086
43.32000 199.294
43.36000 203.046
43.40000 196.181
43.44000 182.588
43.48000 198.105
43.52000 189.762
43.56000 181.902
43.60000 196.131
43.64000 194.183
43.68000 204.155
43.72000 186.745
43.76000 198.932
43.80000 193.658
43.84000 192.489
43.88000 194.703
43.92000 196.010
43.96000 186.655
44.00000 203.642
44.04000 196.340
44.08000 191.377
44.12000 190.708
44.16000 188.461
44.20000 198.261
44.24000 192.277
44.28000 187.487
44.32000 193.057
44.36000 199.949
44.40000 199.462
44.44000 207.729
44.48000 191.181
44.52000 197.938
44.56000 203.244
44.60000 204.267
44.64000 214.937
44.68000 199.964
44.72000 207.400
44.76000 206.396
44.80000 207.824
44.84000 220.309
44.88000 202.075
44.92000 215.654
44.96000 224.333
45.00000 223.976
45.04000 218.524
45.08000 221.338
45.12000 217.475
45.16000 221.452
45.20000 219.718
45.24000 215.040
45.28000 207.755
45.32000 226.289
45.36000 211.889
45.40000 217.000
45.44000 204.887
45.48000 204.923
45.52000 207.372
45.56000 187.128
45.60000 191.908
45.64000 183.309
45.68000 184.328
45.72000 199.221
45.76000 185.375
45.80000 182.719
45.84000 192.078
45.88000 165.527
45.92000 174.769
45.96000 176.084
46.00000 166.202
46.04000 175.555
46.08000 183.143
46.12000 177.541
46.16000 168.764
46.20000 182.303
46.24000 177.165
46.28000 184.023
46.32000 176.058
46.36000 172.775
46.40000 166.969
46.44000 171.017
46.48000 168.501
46.52000 167.527
46.56000 171.665
46.60000 170.266
46.64000 178.210
46.68000 167.928
46.72000 176.922
46.76000 181.838
46.80000 179.743
46.84000 171.897
46.88000 174.430
46.92000 166.545
46.96000 171.640
47.00000 169.984
47.04000 167.859
47.08000 172.756
47.12000 157.049
47.16000 166.664
47.20000 169.033
47.24000 168.496
47.28000 168.485
47.32000 161.163
47.36000 163.162
47.40000 172.005
47.44000 174.859
47.48000 155.628
47.52000 161.405
47.56000 171.837
47.60000 159.357
47.64000 158.750
47.68000 159.629
47.72000 165.247
47.76000 170.241
47.80000 163.582
47.84000 176.227
47.88000 161.303
47.92000 155.248
47.96000 145.308
48.00000 159.572
48.04000 162.420
48.08000 159.695
48.12000 150.142
48.16000 156.684
48.20000 162.084
48.24000 155.099
48.28000 166.294
48.32000 161.473
48.36000 163.086
48.40000 160.247
48.44000 144.380
48.48000 155.361
48.52000 155.959
48.56000 155.333
48.60000 150.791
48.64000 150.325
48.68000 153.878
48.72000 159.548
48.76000 170.460
48.80000 154.751
48.84000 154.424
48.88000 141.814
48.92000 148.823
48.96000 154.838
49.00000 161.776
49.04000 167.523
49.08000 153.712
49.12000 156.634
49.16000 138.613
49.20000 158.938
49.24000 156.773
49.28000 156.075
49.32000 159.084
49.36000 159.282
49.40000 163.158
49.44000 151.154
49.48000 155.483
49.52000 151.050
49.56000 149.357
49.60000 143.981
49.64000 142.989
49.68000 148.154
49.72000 153.441
49.76000 149.172
49.80000 153.656
49.84000 153.544
49.88000 146.858
49.92000 156.912
49.96000 151.276
50.00000 144.995
50.04000 154.282
50.08000 150.005
50.12000 149.179
50.16000 154.843
50.20000 157.583
50.24000 155.355
50.28000 160.500
50.32000 152.043
50.36000 152.085
50.40000 151.508
50.44000 155.623
50.48000 172.530
50.52000 164.745
50.56000 160.892
50.60000 166.941
50.64000 165.572
50.68000 160.362
50.72000 157.040
50.76000 163.126
50.80000 170.308
50.84000 168.596
50.88000 161.386
50.92000 155.256
50.96000 167.523
51.00000 156.392
51.04000 153.072
51.08000 146.163
51.12000 162.419
51.16000 149.319
51.20000 145.839
51.24000 151.275
51.28000 143.147
51.32000 148.760
51.36000 149.462
51.40000 147.363
51.44000 147.930
51.48000 143.166
51.52000 140.436
51.56000 141.756
51.60000 145.279
51.64000 146.206
51.68000 158.944
51.72000 142.257
51.76000 139.412
51.80000 149.979
51.84000 141.779
51.88000 139.388
51.92000 133.489
51.96000 135.372
52.00000 136.959
52.04000 148.362
52.08000 138.537
52.12000 145.529
52.16000 145.710
52.20000 136.345
52.24000 134.306
52.28000 136.027
52.32000 139.462
52.36000 137.474
52.40000 140.327
52.44000 145.570
52.48000 147.295
52.52000 142.106
52.56000 135.889
52.60000 138.322
52.64000 135.257
52.68000 140.420
52.72000 141.160
52.76000 141.526
52.80000 140.272
52.84000 142.759
52.88000 133.841
52.92000 129.443
52.96000 139.366
53.00000 146.956
53.04000 135.658
53.08000 146.181
53.12000 135.314
53.16000 135.266
53.20000 136.300
53.24000 132.832
53.28000 141.507
53.32000 141.336
53.36000 142.483
53.40000 138.122
53.44000 133.301
53.48000 131.353
53.52000 145.785
53.56000 141.346
53.60000 148.358
53.64000 144.561
53.68000 134.278
53.72000 139.779
53.76000 141.228
53.80000 136.813
53.84000 136.661
53.88000 130.553
53.92000 135.648
53.96000 143.527
54.00000 132.717
54.04000 144.686
54.08000 137.767
54.12000 126.412
54.16000 141.404
54.20000 142.778
54.24000 143.543
54.28000 135.657
54.32000 133.883
54.36000 130.314
54.40000 128.759
54.44000 138.662
54.48000 145.788
54.52000 142.565
54.56000 147.703
54.60000 132.754
54.64000 143.783
54.68000 145.253
54.72000 136.088
54.76000 140.322
54.80000 151.721
54.84000 142.233
54.88000 151.131
54.92000 132.909
54.96000 142.411
55.00000 146.260
55.04000 148.010
55.08000 134.406
55.12000 135.921
55.16000 141.377
55.20000 156.896
55.24000 148.995
55.28000 156.307
55.32000 146.972
55.36000 158.115
55.40000 160.738
55.44000 159.913
55.48000 170.282
55.52000 172.175
55.56000 172.310
55.60000 189.700
55.64000 188.224
55.68000 209.553
55.72000 210.774
55.76000 230.075
55.80000 227.139
55.84000 248.419
55.88000 243.100
55.92000 248.423
55.96000 236.805
56.00000 242.688
56.04000 237.216
56.08000 226.751
56.12000 226.307
56.16000 207.198
56.20000 211.374
56.24000 195.660
56.28000 183.837
56.32000 186.971
56.36000 163.612
56.40000 162.620
56.44000 147.519
56.48000 159.389
56.52000 155.554
56.56000 150.500
56.60000 150.007
56.64000 141.351
56.68000 148.212
56.72000 135.061
56.76000 135.132
56.80000 132.128
56.84000 124.574
56.88000 130.171
56.92000 125.865
56.96000 126.301
57.00000 133.344
57.04000 129.702
57.08000 135.670
57.12000 138.229
57.16000 124.039
57.20000 126.296
57.24000 123.360
57.28000 131.386
57.32000 129.500
57.36000 120.597
57.40000 137.567
57.44000 123.180
57.48000 115.659
57.52000 131.493
57.56000 122.879
57.60000 128.943
57.64000 124.771
57.68000 129.501
57.72000 118.872
57.76000 122.683
57.80000 112.528
57.84000 132.067
57.88000 122.130
57.92000 114.587
57.96000 131.414
58.00000 124.456
58.04000 119.017
58.08000 122.970
58.12000 126.152
58.16000 122.710
58.20000 121.716
58.24000 129.544
58.28000 125.628
58.32000 122.096
58.36000 117.693
58.40000 124.247
58.44000 122.948
58.48000 126.144
58.52000 110.218
58.56000 126.981
58.60000 114.918
58.64000 122.371
58.68000 118.255
58.72000 114.155
58.76000 114.295
58.80000 124.462
58.84000 112.998
58.88000 121.571
58.92000 130.986
58.96000 124.942
59.00000 115.734
59.04000 123.368
59.08000 121.047
59.12000 120.385
59.16000 112.017
59.20000 122.633
59.24000 120.452
59.28000 125.411
59.32000 121.892
59.36000 108.700
59.40000 110.912
59.44000 116.362
59.48000 120.465
59.52000 117.105
59.56000 117.729
59.60000 113.184
59.64000 115.601
59.68000 117.534
59.72000 125.187
59.76000 112.787
59.80000 111.873
59.84000 113.916
59.88000 118.618
59.92000 121.631
59.96000 114.436
60.00000 120.341
60.04000 115.698
60.08000 118.734
60.12000 125.876
60.16000 123.071
60.20000 116.189
60.24000 123.628
60.28000 112.450
60.32000 119.074
60.36000 118.533
60.40000 121.726
60.44000 117.135
60.48000 119.263
60.52000 126.847
60.56000 111.326
60.60000 115.067
60.64000 120.000
60.68000 110.775
60.72000 115.796
60.76000 113.821
60.80000 115.942
60.84000 113.683
60.88000 118.822
60.92000 134.831
60.96000 123.976
61.00000 123.739
61.04000 122.946
61.08000 119.218
61.12000 126.266
61.16000 126.068
61.20000 126.544
61.24000 128.478
61.28000 119.377
61.32000 124.047
61.36000 121.735
61.40000 122.307
61.44000 125.613
61.48000 136.066
61.52000 146.423
61.56000 190.382
61.60000 232.816
61.64000 287.437
61.68000 296.953
61.72000 284.114
61.76000 294.861
61.80000 239.102
61.84000 177.955
61.88000 152.562
61.92000 138.256
61.96000 137.367
62.00000 131.622
62.04000 134.472
62.08000 126.921
62.12000 132.604
62.16000 129.773
62.20000 130.665
62.24000 124.502
62.28000 120.582
62.32000 120.024
62.36000 138.238
62.40000 127.435
62.44000 137.452
62.48000 130.937
62.52000 130.088
62.56000 128.266
62.60000 133.395
62.64000 125.108
62.68000 132.934
62.72000 140.383
62.76000 135.602
62.80000 130.677
62.84000 127.558
62.88000 126.131
62.92000 140.126
62.96000 140.093
63.00000 137.805
63.04000 129.999
63.08000 127.887
63.12000 142.873
63.16000 135.958
63.20000 124.982
63.24000 132.095
63.28000 136.420
63.32000 135.877
63.36000 140.473
63.40000 133.242
63.44000 129.761
63.48000 136.735
63.52000 141.314
63.56000 137.238
63.60000 138.790
63.64000 145.901
63.68000 143.453
63.72000 144.549
63.76000 142.770
63.80000 143.584
63.84000 155.307
63.88000 146.016
63.92000 150.513
63.96000 141.331
64.00000 142.036
64.04000 152.477
64.08000 156.296
64.12000 153.576
64.16000 148.732
64.20000 145.667
64.24000 148.777
64.28000 152.997
64.32000 161.761
64.36000 151.649
64.40000 161.299
64.44000 162.680
64.48000 169.735
64.52000 162.290
64.56000 162.469
64.60000 181.318
64.64000 170.585
64.68000 172.223
64.72000 173.331
64.76000 174.119
64.80000 169.486
64.84000 176.011
64.88000 173.842
64.92000 191.134
64.96000 188.676
65.00000 192.785
65.04000 194.149
65.08000 194.283
65.12000 192.300
65.16000 212.798
65.20000 226.480
65.24000 217.278
65.28000 216.397
65.32000 232.959
65.36000 241.501
65.40000 249.036
65.44000 257.139
65.48000 257.899
65.52000 287.283
65.56000 306.201
65.60000 340.890
65.64000 395.255
65.68000 514.166
65.72000 845.355
65.76000 1345.899
65.80000 1778.050
65.84000 1996.346
65.88000 2007.429
65.92000 1976.736
65.96000 1640.927
66.00000 1144.803
66.04000 720.032
66.08000 502.646
66.12000 416.360
66.16000 376.684
66.20000 375.750
66.24000 406.018
66.28000 454.346
66.32000 535.066
66.36000 588.228
66.40000 626.963
66.44000 624.683
66.48000 612.054
66.52000 568.645
66.56000 472.208
66.60000 395.223
66.64000 374.149
66.68000 372.635
66.72000 364.571
66.76000 355.114
66.80000 363.726
66.84000 369.371
66.88000 367.843
66.92000 378.776
66.96000 390.942
67.00000 385.308
67.04000 373.127
67.08000 391.315
67.12000 399.990
67.16000 408.839
67.20000 397.875
67.24000 400.598
67.28000 392.916
67.32000 420.304
67.36000 405.549
67.40000 440.186
67.44000 435.364
67.48000 434.588
67.52000 421.343
67.56000 452.636
67.60000 444.488
67.64000 471.685
67.68000 449.634
67.72000 459.756
67.76000 477.875
67.80000 476.222
67.84000 479.683
67.88000 492.001
67.92000 491.211
67.96000 513.385
68.00000 518.838
68.04000 527.290
68.08000 532.544
68.12000 526.788
68.16000 537.076
68.20000 551.741
68.24000 566.423
68.28000 583.680
68.32000 613.577
68.36000 619.739
68.40000 668.613
68.44000 647.579
68.48000 708.079
68.52000 713.891
68.56000 765.862
68.60000 859.396
68.64000 955.858
68.68000 1133.514
68.72000 1302.616
68.76000 1485.314
68.80000 1645.222
68.84000 1882.513
68.88000 2236.357
68.92000 3210.441
68.96000 8310.481
69.00000 19797.381
69.04000 33382.629
69.08000 41160.477
69.12000 44400.668
69.16000 46918.512
69.20000 47854.496
69.24000 39903.355
69.28000 28953.625
69.32000 23268.574
69.36000 21572.596
69.40000 18718.689
69.44000 12431.313
69.48000 5579.729
69.52000 2439.602
69.56000 1448.668
69.60000 1154.766
69.64000 963.665
69.68000 837.761
69.72000 741.586
69.76000 685.811
69.80000 643.455
69.84000 609.122
69.88000 555.825
69.92000 544.272
69.96000 533.249
70.00000 503.647