File: XRD/07-10-2025 Dep 6/XY Data/BTO_Mapping_Theta2Theta_07-10-2025_001_42_-5-000_-8-660.xy
20.00000 463.351
20.04000 471.117
20.08000 486.704
20.12000 460.342
20.16000 465.627
20.20000 484.923
20.24000 471.570
20.28000 469.902
20.32000 444.470
20.36000 454.644
20.40000 467.375
20.44000 445.132
20.48000 458.856
20.52000 457.598
20.56000 462.435
20.60000 463.969
20.64000 477.001
20.68000 469.656
20.72000 470.022
20.76000 460.859
20.80000 463.316
20.84000 460.579
20.88000 471.446
20.92000 457.429
20.96000 472.375
21.00000 441.889
21.04000 448.993
21.08000 475.425
21.12000 467.569
21.16000 462.416
21.20000 458.128
21.24000 468.553
21.28000 450.023
21.32000 477.138
21.36000 448.032
21.40000 455.571
21.44000 451.109
21.48000 469.960
21.52000 447.727
21.56000 455.651
21.60000 460.762
21.64000 478.258
21.68000 462.433
21.72000 483.770
21.76000 489.979
21.80000 467.078
21.84000 486.079
21.88000 535.433
21.92000 509.554
21.96000 513.655
22.00000 546.818
22.04000 550.671
22.08000 561.656
22.12000 553.994
22.16000 547.617
22.20000 526.889
22.24000 514.398
22.28000 504.341
22.32000 511.780
22.36000 496.853
22.40000 477.959
22.44000 462.515
22.48000 464.254
22.52000 467.763
22.56000 453.572
22.60000 465.385
22.64000 444.672
22.68000 419.650
22.72000 428.917
22.76000 440.915
22.80000 447.296
22.84000 442.705
22.88000 435.885
22.92000 427.406
22.96000 422.247
23.00000 416.865
23.04000 443.382
23.08000 427.445
23.12000 462.723
23.16000 419.890
23.20000 414.187
23.24000 437.675
23.28000 430.822
23.32000 406.901
23.36000 426.114
23.40000 415.292
23.44000 430.988
23.48000 431.424
23.52000 435.274
23.56000 405.040
23.60000 431.850
23.64000 423.765
23.68000 428.237
23.72000 430.755
23.76000 445.341
23.80000 457.853
23.84000 458.131
23.88000 467.281
23.92000 473.576
23.96000 483.792
24.00000 492.748
24.04000 485.328
24.08000 490.127
24.12000 475.454
24.16000 453.470
24.20000 447.702
24.24000 429.557
24.28000 444.645
24.32000 419.679
24.36000 429.597
24.40000 411.481
24.44000 417.750
24.48000 405.895
24.52000 412.802
24.56000 430.290
24.60000 401.915
24.64000 410.521
24.68000 431.907
24.72000 393.092
24.76000 391.512
24.80000 393.743
24.84000 386.621
24.88000 388.041
24.92000 407.571
24.96000 393.992
25.00000 402.312
25.04000 393.316
25.08000 372.789
25.12000 390.447
25.16000 398.525
25.20000 394.006
25.24000 403.081
25.28000 380.211
25.32000 388.309
25.36000 388.441
25.40000 391.459
25.44000 399.720
25.48000 392.036
25.52000 402.083
25.56000 392.237
25.60000 402.946
25.64000 389.076
25.68000 399.332
25.72000 376.566
25.76000 388.276
25.80000 396.847
25.84000 379.948
25.88000 394.187
25.92000 404.378
25.96000 401.731
26.00000 393.680
26.04000 384.966
26.08000 374.021
26.12000 398.142
26.16000 375.280
26.20000 371.553
26.24000 393.498
26.28000 391.950
26.32000 360.899
26.36000 382.120
26.40000 392.729
26.44000 363.349
26.48000 381.096
26.52000 375.316
26.56000 366.984
26.60000 384.850
26.64000 374.404
26.68000 381.997
26.72000 384.798
26.76000 381.552
26.80000 380.022
26.84000 390.616
26.88000 375.375
26.92000 366.724
26.96000 379.293
27.00000 366.627
27.04000 378.689
27.08000 372.910
27.12000 361.827
27.16000 373.961
27.20000 372.489
27.24000 367.852
27.28000 359.595
27.32000 359.969
27.36000 376.355
27.40000 364.520
27.44000 352.496
27.48000 368.960
27.52000 371.723
27.56000 361.259
27.60000 361.525
27.64000 356.617
27.68000 369.790
27.72000 370.724
27.76000 376.293
27.80000 354.675
27.84000 373.240
27.88000 353.135
27.92000 370.809
27.96000 372.465
28.00000 365.425
28.04000 364.892
28.08000 362.259
28.12000 361.364
28.16000 362.560
28.20000 371.728
28.24000 357.789
28.28000 343.849
28.32000 367.783
28.36000 368.453
28.40000 365.499
28.44000 355.727
28.48000 357.178
28.52000 347.235
28.56000 352.585
28.60000 360.062
28.64000 362.038
28.68000 355.556
28.72000 351.463
28.76000 344.193
28.80000 362.839
28.84000 363.036
28.88000 351.280
28.92000 348.230
28.96000 354.077
29.00000 363.585
29.04000 372.163
29.08000 349.093
29.12000 346.094
29.16000 333.045
29.20000 345.194
29.24000 336.414
29.28000 346.083
29.32000 356.682
29.36000 338.754
29.40000 337.212
29.44000 347.193
29.48000 345.231
29.52000 354.970
29.56000 360.740
29.60000 357.216
29.64000 342.386
29.68000 323.255
29.72000 342.544
29.76000 357.266
29.80000 369.115
29.84000 355.753
29.88000 369.208
29.92000 355.001
29.96000 380.789
30.00000 380.762
30.04000 393.800
30.08000 354.327
30.12000 373.479
30.16000 373.531
30.20000 362.575
30.24000 356.414
30.28000 342.196
30.32000 361.845
30.36000 361.803
30.40000 345.969
30.44000 366.095
30.48000 356.309
30.52000 362.376
30.56000 364.487
30.60000 352.929
30.64000 348.843
30.68000 358.118
30.72000 370.074
30.76000 353.929
30.80000 353.525
30.84000 377.500
30.88000 385.423
30.92000 383.478
30.96000 396.385
31.00000 418.155
31.04000 488.623
31.08000 538.120
31.12000 593.415
31.16000 680.905
31.20000 786.179
31.24000 930.315
31.28000 1052.660
31.32000 1128.881
31.36000 1188.233
31.40000 1155.727
31.44000 1077.764
31.48000 998.474
31.52000 873.940
31.56000 749.348
31.60000 634.433
31.64000 560.946
31.68000 486.729
31.72000 441.372
31.76000 402.719
31.80000 390.735
31.84000 371.102
31.88000 368.315
31.92000 354.263
31.96000 340.856
32.00000 327.504
32.04000 343.421
32.08000 346.135
32.12000 343.114
32.16000 328.663
32.20000 317.195
32.24000 320.068
32.28000 319.538
32.32000 325.586
32.36000 328.528
32.40000 311.544
32.44000 315.226
32.48000 332.995
32.52000 327.719
32.56000 314.952
32.60000 295.745
32.64000 317.511
32.68000 301.635
32.72000 314.995
32.76000 314.305
32.80000 327.142
32.84000 382.715
32.88000 448.997
32.92000 485.723
32.96000 512.222
33.00000 501.200
33.04000 484.740
33.08000 427.582
33.12000 373.067
33.16000 318.532
33.20000 302.424
33.24000 308.898
33.28000 290.354
33.32000 289.866
33.36000 288.911
33.40000 285.791
33.44000 281.792
33.48000 303.663
33.52000 284.392
33.56000 290.537
33.60000 292.180
33.64000 288.996
33.68000 291.599
33.72000 301.017
33.76000 304.339
33.80000 290.009
33.84000 282.519
33.88000 290.761
33.92000 303.281
33.96000 295.495
34.00000 295.861
34.04000 309.157
34.08000 307.436
34.12000 318.744
34.16000 311.223
34.20000 311.374
34.24000 308.961
34.28000 326.508
34.32000 317.133
34.36000 307.223
34.40000 328.530
34.44000 344.443
34.48000 314.515
34.52000 311.506
34.56000 308.998
34.60000 310.890
34.64000 308.687
34.68000 306.641
34.72000 296.801
34.76000 288.218
34.80000 291.783
34.84000 279.457
34.88000 280.880
34.92000 280.435
34.96000 289.750
35.00000 280.334
35.04000 260.969
35.08000 261.570
35.12000 269.009
35.16000 282.104
35.20000 266.121
35.24000 260.878
35.28000 254.522
35.32000 267.045
35.36000 264.262
35.40000 264.717
35.44000 269.999
35.48000 273.614
35.52000 262.588
35.56000 255.324
35.60000 268.893
35.64000 258.475
35.68000 260.752
35.72000 257.674
35.76000 242.943
35.80000 254.406
35.84000 255.392
35.88000 241.273
35.92000 261.762
35.96000 255.704
36.00000 262.376
36.04000 255.319
36.08000 265.300
36.12000 252.611
36.16000 253.816
36.20000 249.129
36.24000 261.464
36.28000 261.566
36.32000 261.359
36.36000 250.291
36.40000 243.405
36.44000 264.867
36.48000 248.999
36.52000 239.258
36.56000 250.515
36.60000 258.367
36.64000 248.200
36.68000 247.443
36.72000 267.590
36.76000 258.784
36.80000 257.433
36.84000 268.900
36.88000 259.980
36.92000 271.177
36.96000 288.004
37.00000 278.677
37.04000 283.500
37.08000 274.381
37.12000 285.400
37.16000 267.446
37.20000 258.168
37.24000 263.965
37.28000 262.371
37.32000 248.908
37.36000 259.192
37.40000 261.471
37.44000 254.855
37.48000 264.319
37.52000 253.961
37.56000 242.484
37.60000 238.260
37.64000 256.726
37.68000 261.276
37.72000 247.761
37.76000 261.275
37.80000 251.977
37.84000 250.869
37.88000 256.090
37.92000 235.638
37.96000 247.433
38.00000 255.442
38.04000 244.915
38.08000 228.408
38.12000 260.766
38.16000 261.757
38.20000 263.579
38.24000 269.379
38.28000 273.398
38.32000 295.540
38.36000 322.242
38.40000 372.326
38.44000 418.352
38.48000 482.705
38.52000 600.236
38.56000 712.137
38.60000 815.197
38.64000 916.625
38.68000 1013.525
38.72000 1040.087
38.76000 1048.006
38.80000 988.939
38.84000 862.829
38.88000 743.154
38.92000 597.207
38.96000 486.464
39.00000 389.639
39.04000 322.153
39.08000 293.830
39.12000 264.183
39.16000 257.191
39.20000 254.794
39.24000 257.778
39.28000 243.732
39.32000 232.841
39.36000 242.520
39.40000 238.085
39.44000 236.411
39.48000 232.488
39.52000 232.164
39.56000 243.662
39.60000 233.403
39.64000 226.847
39.68000 230.946
39.72000 229.155
39.76000 223.084
39.80000 216.070
39.84000 216.186
39.88000 223.388
39.92000 220.736
39.96000 217.373
40.00000 219.038
40.04000 213.475
40.08000 233.569
40.12000 217.252
40.16000 217.504
40.20000 220.899
40.24000 212.375
40.28000 221.989
40.32000 216.145
40.36000 219.416
40.40000 219.593
40.44000 216.524
40.48000 209.307
40.52000 220.398
40.56000 203.085
40.60000 218.899
40.64000 214.491
40.68000 220.767
40.72000 212.368
40.76000 214.204
40.80000 203.044
40.84000 218.125
40.88000 204.896
40.92000 212.631
40.96000 207.361
41.00000 218.132
41.04000 208.926
41.08000 202.903
41.12000 201.998
41.16000 204.741
41.20000 200.465
41.24000 203.533
41.28000 209.635
41.32000 214.322
41.36000 211.980
41.40000 197.728
41.44000 208.484
41.48000 198.318
41.52000 194.336
41.56000 207.343
41.60000 211.131
41.64000 203.043
41.68000 208.431
41.72000 204.335
41.76000 197.040
41.80000 211.583
41.84000 205.238
41.88000 204.842
41.92000 205.940
41.96000 197.241
42.00000 210.575
42.04000 211.528
42.08000 203.361
42.12000 222.185
42.16000 205.823
42.20000 208.077
42.24000 198.173
42.28000 202.961
42.32000 210.772
42.36000 205.329
42.40000 196.220
42.44000 198.426
42.48000 214.004
42.52000 212.346
42.56000 204.861
42.60000 206.231
42.64000 213.591
42.68000 201.576
42.72000 204.680
42.76000 197.152
42.80000 211.271
42.84000 204.787
42.88000 196.572
42.92000 188.461
42.96000 190.817
43.00000 202.407
43.04000 197.404
43.08000 198.154
43.12000 194.517
43.16000 198.502
43.20000 191.057
43.24000 196.142
43.28000 194.710
43.32000 187.542
43.36000 190.262
43.40000 201.074
43.44000 181.521
43.48000 198.085
43.52000 196.138
43.56000 195.084
43.60000 201.468
43.64000 188.268
43.68000 177.319
43.72000 194.326
43.76000 189.564
43.80000 200.441
43.84000 184.149
43.88000 187.332
43.92000 187.936
43.96000 182.740
44.00000 182.056
44.04000 199.695
44.08000 192.552
44.12000 189.740
44.16000 193.965
44.20000 193.290
44.24000 193.717
44.28000 195.317
44.32000 210.695
44.36000 203.438
44.40000 189.050
44.44000 206.376
44.48000 207.025
44.52000 200.982
44.56000 190.880
44.60000 206.615
44.64000 216.578
44.68000 219.464
44.72000 232.438
44.76000 224.421
44.80000 225.559
44.84000 243.412
44.88000 234.425
44.92000 250.078
44.96000 244.836
45.00000 262.750
45.04000 256.878
45.08000 258.938
45.12000 253.801
45.16000 250.853
45.20000 245.769
45.24000 272.302
45.28000 234.030
45.32000 237.472
45.36000 222.357
45.40000 222.352
45.44000 210.005
45.48000 200.926
45.52000 205.745
45.56000 204.281
45.60000 200.841
45.64000 188.635
45.68000 196.643
45.72000 201.113
45.76000 196.865
45.80000 191.778
45.84000 186.702
45.88000 190.953
45.92000 198.664
45.96000 180.487
46.00000 178.149
46.04000 181.288
46.08000 184.313
46.12000 179.877
46.16000 184.996
46.20000 170.184
46.24000 177.024
46.28000 184.212
46.32000 186.302
46.36000 161.901
46.40000 168.606
46.44000 167.309
46.48000 177.012
46.52000 164.774
46.56000 164.762
46.60000 181.316
46.64000 170.197
46.68000 169.371
46.72000 174.475
46.76000 173.814
46.80000 172.873
46.84000 166.916
46.88000 172.723
46.92000 169.481
46.96000 167.230
47.00000 169.318
47.04000 154.111
47.08000 157.373
47.12000 156.773
47.16000 159.714
47.20000 166.241
47.24000 162.668
47.28000 161.992
47.32000 179.444
47.36000 161.505
47.40000 167.138
47.44000 173.354
47.48000 152.856
47.52000 158.370
47.56000 167.132
47.60000 154.477
47.64000 163.255
47.68000 159.574
47.72000 157.517
47.76000 157.613
47.80000 152.823
47.84000 157.068
47.88000 160.751
47.92000 155.216
47.96000 155.908
48.00000 162.308
48.04000 152.503
48.08000 153.691
48.12000 150.158
48.16000 156.871
48.20000 155.483
48.24000 148.829
48.28000 157.761
48.32000 161.015
48.36000 151.452
48.40000 169.004
48.44000 154.587
48.48000 160.101
48.52000 157.665
48.56000 158.749
48.60000 156.360
48.64000 162.378
48.68000 147.545
48.72000 150.356
48.76000 143.221
48.80000 151.001
48.84000 153.415
48.88000 155.113
48.92000 153.236
48.96000 157.104
49.00000 156.322
49.04000 144.710
49.08000 151.736
49.12000 157.580
49.16000 158.574
49.20000 156.417
49.24000 157.095
49.28000 156.926
49.32000 146.917
49.36000 150.524
49.40000 157.011
49.44000 147.050
49.48000 158.485
49.52000 154.718
49.56000 154.831
49.60000 145.719
49.64000 149.595
49.68000 141.155
49.72000 150.246
49.76000 153.745
49.80000 155.848
49.84000 154.850
49.88000 149.045
49.92000 163.806
49.96000 146.534
50.00000 145.609
50.04000 145.179
50.08000 149.405
50.12000 144.417
50.16000 150.180
50.20000 153.639
50.24000 147.526
50.28000 150.086
50.32000 167.717
50.36000 155.791
50.40000 163.428
50.44000 147.235
50.48000 155.080
50.52000 170.443
50.56000 174.852
50.60000 168.265
50.64000 169.572
50.68000 170.634
50.72000 182.285
50.76000 180.578
50.80000 170.063
50.84000 171.670
50.88000 156.719
50.92000 149.940
50.96000 159.720
51.00000 157.969
51.04000 153.120
51.08000 140.882
51.12000 153.820
51.16000 141.918
51.20000 145.520
51.24000 149.714
51.28000 134.026
51.32000 141.226
51.36000 142.717
51.40000 138.116
51.44000 133.833
51.48000 132.555
51.52000 137.013
51.56000 146.296
51.60000 146.828
51.64000 144.021
51.68000 145.614
51.72000 140.958
51.76000 137.362
51.80000 141.547
51.84000 146.232
51.88000 141.001
51.92000 134.165
51.96000 130.202
52.00000 139.891
52.04000 141.143
52.08000 140.479
52.12000 146.993
52.16000 136.419
52.20000 135.744
52.24000 124.939
52.28000 137.243
52.32000 137.693
52.36000 132.774
52.40000 133.201
52.44000 133.793
52.48000 131.980
52.52000 144.087
52.56000 130.711
52.60000 137.581
52.64000 137.109
52.68000 124.757
52.72000 127.409
52.76000 137.035
52.80000 141.280
52.84000 140.079
52.88000 135.476
52.92000 135.445
52.96000 147.149
53.00000 137.614
53.04000 130.579
53.08000 141.035
53.12000 132.441
53.16000 141.368
53.20000 143.109
53.24000 151.101
53.28000 140.260
53.32000 152.424
53.36000 157.677
53.40000 155.042
53.44000 154.144
53.48000 157.031
53.52000 157.649
53.56000 144.115
53.60000 144.612
53.64000 154.282
53.68000 145.033
53.72000 149.513
53.76000 142.956
53.80000 142.273
53.84000 137.027
53.88000 146.868
53.92000 139.027
53.96000 144.748
54.00000 133.109
54.04000 147.756
54.08000 147.306
54.12000 130.730
54.16000 135.969
54.20000 144.175
54.24000 146.118
54.28000 129.909
54.32000 135.799
54.36000 145.260
54.40000 130.711
54.44000 130.371
54.48000 133.523
54.52000 141.421
54.56000 154.299
54.60000 137.525
54.64000 140.815
54.68000 128.937
54.72000 139.383
54.76000 129.782
54.80000 144.245
54.84000 135.755
54.88000 137.241
54.92000 148.118
54.96000 147.390
55.00000 147.912
55.04000 147.441
55.08000 141.203
55.12000 143.901
55.16000 151.830
55.20000 154.047
55.24000 144.730
55.28000 157.103
55.32000 150.978
55.36000 162.620
55.40000 166.765
55.44000 180.468
55.48000 201.508
55.52000 208.629
55.56000 228.977
55.60000 265.055
55.64000 313.897
55.68000 360.108
55.72000 404.775
55.76000 445.875
55.80000 512.979
55.84000 565.806
55.88000 592.145
55.92000 639.180
55.96000 634.070
56.00000 605.562
56.04000 565.542
56.08000 515.224
56.12000 466.294
56.16000 408.441
56.20000 337.242
56.24000 285.289
56.28000 261.234
56.32000 233.058
56.36000 209.819
56.40000 184.630
56.44000 169.821
56.48000 162.782
56.52000 156.014
56.56000 149.163
56.60000 145.528
56.64000 142.255
56.68000 137.732
56.72000 136.442
56.76000 132.761
56.80000 142.936
56.84000 126.754
56.88000 122.077
56.92000 118.335
56.96000 141.776
57.00000 127.570
57.04000 131.745
57.08000 139.619
57.12000 124.062
57.16000 128.141
57.20000 127.647
57.24000 127.022
57.28000 138.497
57.32000 128.988
57.36000 126.523
57.40000 142.941
57.44000 125.594
57.48000 126.853
57.52000 127.282
57.56000 124.415
57.60000 122.421
57.64000 121.206
57.68000 118.531
57.72000 127.730
57.76000 124.258
57.80000 129.108
57.84000 125.576
57.88000 123.652
57.92000 110.869
57.96000 118.911
58.00000 126.050
58.04000 117.524
58.08000 123.861
58.12000 113.888
58.16000 121.499
58.20000 111.092
58.24000 116.203
58.28000 121.085
58.32000 126.435
58.36000 119.184
58.40000 119.166
58.44000 120.604
58.48000 124.340
58.52000 121.381
58.56000 122.387
58.60000 121.469
58.64000 126.942
58.68000 121.723
58.72000 115.472
58.76000 125.011
58.80000 117.818
58.84000 102.498
58.88000 114.500
58.92000 118.305
58.96000 124.213
59.00000 127.205
59.04000 120.000
59.08000 113.672
59.12000 109.798
59.16000 114.615
59.20000 123.091
59.24000 124.564
59.28000 115.992
59.32000 121.255
59.36000 119.984
59.40000 124.766
59.44000 122.279
59.48000 125.292
59.52000 116.225
59.56000 115.245
59.60000 118.023
59.64000 117.488
59.68000 118.992
59.72000 114.928
59.76000 116.411
59.80000 109.892
59.84000 119.989
59.88000 116.703
59.92000 107.062
59.96000 119.791
60.00000 123.218
60.04000 106.836
60.08000 111.693
60.12000 116.836
60.16000 112.883
60.20000 106.152
60.24000 110.243
60.28000 118.578
60.32000 112.422
60.36000 116.974
60.40000 118.451
60.44000 114.137
60.48000 116.900
60.52000 117.209
60.56000 113.517
60.60000 107.125
60.64000 118.475
60.68000 109.794
60.72000 105.695
60.76000 121.106
60.80000 112.812
60.84000 120.720
60.88000 118.512
60.92000 126.971
60.96000 112.936
61.00000 121.374
61.04000 119.031
61.08000 119.067
61.12000 115.809
61.16000 127.523
61.20000 118.304
61.24000 115.917
61.28000 120.689
61.32000 118.269
61.36000 115.383
61.40000 135.661
61.44000 136.497
61.48000 127.699
61.52000 156.143
61.56000 208.974
61.60000 251.008
61.64000 285.076
61.68000 306.319
61.72000 296.278
61.76000 257.314
61.80000 217.878
61.84000 178.871
61.88000 138.088
61.92000 134.994
61.96000 125.591
62.00000 128.258
62.04000 137.401
62.08000 122.355
62.12000 123.597
62.16000 126.142
62.20000 128.016
62.24000 132.858
62.28000 120.832
62.32000 117.319
62.36000 125.791
62.40000 121.910
62.44000 124.193
62.48000 129.135
62.52000 128.247
62.56000 131.246
62.60000 121.473
62.64000 130.968
62.68000 121.910
62.72000 121.749
62.76000 137.112
62.80000 118.349
62.84000 123.415
62.88000 127.308
62.92000 125.632
62.96000 130.720
63.00000 126.966
63.04000 130.562
63.08000 124.790
63.12000 128.797
63.16000 141.289
63.20000 135.058
63.24000 122.676
63.28000 126.473
63.32000 138.007
63.36000 134.069
63.40000 133.051
63.44000 135.741
63.48000 133.956
63.52000 135.331
63.56000 137.387
63.60000 141.529
63.64000 130.062
63.68000 131.477
63.72000 135.401
63.76000 143.812
63.80000 135.547
63.84000 133.454
63.88000 146.847
63.92000 144.469
63.96000 146.036
64.00000 136.248
64.04000 148.456
64.08000 138.766
64.12000 154.637
64.16000 143.586
64.20000 144.874
64.24000 135.119
64.28000 149.726
64.32000 155.490
64.36000 145.418
64.40000 151.659
64.44000 158.668
64.48000 149.624
64.52000 157.625
64.56000 147.913
64.60000 155.079
64.64000 163.042
64.68000 164.700
64.72000 160.444
64.76000 169.681
64.80000 160.025
64.84000 167.514
64.88000 172.694
64.92000 169.531
64.96000 178.505
65.00000 187.978
65.04000 194.115
65.08000 191.467
65.12000 194.534
65.16000 207.425
65.20000 219.462
65.24000 230.085
65.28000 223.246
65.32000 232.996
65.36000 239.342
65.40000 257.935
65.44000 272.541
65.48000 275.828
65.52000 292.956
65.56000 327.008
65.60000 358.984
65.64000 426.221
65.68000 569.144
65.72000 939.341
65.76000 1410.723
65.80000 1803.008
65.84000 1983.061
65.88000 1976.112
65.92000 1901.011
65.96000 1510.859
66.00000 993.058
66.04000 653.538
66.08000 471.829
66.12000 389.539
66.16000 368.826
66.20000 358.986
66.24000 387.084
66.28000 453.085
66.32000 541.841
66.36000 590.293
66.40000 612.246
66.44000 613.320
66.48000 607.973
66.52000 540.724
66.56000 439.986
66.60000 391.333
66.64000 342.916
66.68000 349.621
66.72000 349.753
66.76000 351.635
66.80000 349.030
66.84000 349.932
66.88000 350.323
66.92000 367.013
66.96000 353.828
67.00000 369.230
67.04000 353.828
67.08000 372.711
67.12000 370.416
67.16000 388.499
67.20000 379.254
67.24000 381.767
67.28000 393.063
67.32000 407.195
67.36000 398.069
67.40000 396.624
67.44000 410.386
67.48000 429.876
67.52000 417.410
67.56000 403.115
67.60000 425.797
67.64000 448.025
67.68000 424.443
67.72000 450.832
67.76000 466.513
67.80000 441.969
67.84000 458.290
67.88000 475.782
67.92000 477.628
67.96000 470.639
68.00000 486.777
68.04000 492.712
68.08000 504.999
68.12000 526.746
68.16000 530.207
68.20000 538.726
68.24000 541.354
68.28000 566.585
68.32000 601.144
68.36000 597.425
68.40000 624.341
68.44000 632.343
68.48000 663.586
68.52000 702.893
68.56000 755.967
68.60000 835.176
68.64000 965.903
68.68000 1124.215
68.72000 1291.995
68.76000 1438.711
68.80000 1629.030
68.84000 1843.043
68.88000 2282.295
68.92000 3448.727
68.96000 9621.327
69.00000 21977.387
69.04000 34320.121
69.08000 40805.270
69.12000 43551.590
69.16000 46292.082
69.20000 45553.977
69.24000 36259.441
69.28000 27004.484
69.32000 22196.623
69.36000 20679.232
69.40000 17177.104
69.44000 10508.189
69.48000 4706.432
69.52000 2107.301
69.56000 1308.808
69.60000 1032.942
69.64000 914.128
69.68000 797.009
69.72000 724.810
69.76000 658.333
69.80000 610.778
69.84000 590.003
69.88000 556.749
69.92000 515.932
69.96000 541.885
70.00000 501.543