File: XRD/07-10-2025 Dep 6/XY Data/BTO_Mapping_Theta2Theta_07-10-2025_001_34_-9-781_-2-079.xy
20.00000 473.191
20.04000 474.998
20.08000 487.534
20.12000 451.973
20.16000 489.181
20.20000 481.725
20.24000 462.611
20.28000 462.418
20.32000 463.775
20.36000 452.285
20.40000 478.664
20.44000 471.925
20.48000 468.760
20.52000 479.658
20.56000 456.060
20.60000 482.730
20.64000 456.573
20.68000 454.918
20.72000 449.476
20.76000 467.367
20.80000 465.205
20.84000 453.027
20.88000 459.467
20.92000 452.964
20.96000 483.528
21.00000 478.309
21.04000 459.409
21.08000 468.495
21.12000 449.196
21.16000 456.461
21.20000 445.368
21.24000 461.556
21.28000 448.519
21.32000 461.874
21.36000 441.376
21.40000 462.062
21.44000 469.278
21.48000 481.130
21.52000 450.956
21.56000 470.297
21.60000 457.455
21.64000 465.247
21.68000 452.923
21.72000 462.118
21.76000 491.979
21.80000 468.414
21.84000 483.293
21.88000 496.486
21.92000 517.809
21.96000 537.861
22.00000 547.160
22.04000 551.405
22.08000 543.294
22.12000 541.664
22.16000 522.150
22.20000 519.752
22.24000 503.739
22.28000 495.044
22.32000 500.233
22.36000 488.508
22.40000 470.398
22.44000 465.231
22.48000 469.842
22.52000 455.295
22.56000 445.906
22.60000 432.341
22.64000 431.641
22.68000 430.406
22.72000 447.052
22.76000 437.332
22.80000 414.126
22.84000 440.375
22.88000 440.670
22.92000 437.580
22.96000 437.739
23.00000 431.334
23.04000 427.345
23.08000 423.786
23.12000 442.640
23.16000 437.397
23.20000 436.100
23.24000 420.075
23.28000 417.612
23.32000 448.985
23.36000 439.133
23.40000 415.395
23.44000 421.189
23.48000 430.931
23.52000 402.022
23.56000 422.980
23.60000 424.610
23.64000 441.647
23.68000 440.689
23.72000 413.229
23.76000 463.591
23.80000 456.988
23.84000 463.114
23.88000 479.517
23.92000 472.423
23.96000 456.539
24.00000 466.114
24.04000 474.560
24.08000 446.893
24.12000 449.637
24.16000 427.766
24.20000 432.499
24.24000 427.193
24.28000 418.559
24.32000 423.376
24.36000 421.788
24.40000 415.042
24.44000 402.259
24.48000 427.773
24.52000 401.166
24.56000 391.150
24.60000 398.461
24.64000 409.180
24.68000 410.036
24.72000 390.126
24.76000 381.411
24.80000 397.983
24.84000 400.593
24.88000 384.945
24.92000 405.438
24.96000 407.883
25.00000 391.712
25.04000 405.746
25.08000 375.566
25.12000 403.005
25.16000 406.565
25.20000 387.127
25.24000 400.196
25.28000 380.213
25.32000 408.653
25.36000 389.130
25.40000 384.215
25.44000 375.152
25.48000 392.031
25.52000 375.765
25.56000 384.804
25.60000 383.286
25.64000 388.853
25.68000 380.247
25.72000 372.085
25.76000 407.551
25.80000 396.888
25.84000 384.566
25.88000 387.343
25.92000 375.493
25.96000 387.368
26.00000 394.547
26.04000 374.692
26.08000 375.132
26.12000 378.070
26.16000 394.285
26.20000 393.962
26.24000 406.747
26.28000 385.297
26.32000 368.590
26.36000 367.901
26.40000 373.076
26.44000 382.123
26.48000 369.784
26.52000 369.936
26.56000 388.564
26.60000 375.408
26.64000 381.629
26.68000 370.607
26.72000 381.152
26.76000 368.194
26.80000 383.753
26.84000 360.338
26.88000 366.292
26.92000 370.546
26.96000 373.296
27.00000 370.836
27.04000 385.274
27.08000 389.235
27.12000 386.204
27.16000 379.353
27.20000 363.326
27.24000 360.501
27.28000 368.972
27.32000 362.399
27.36000 371.491
27.40000 365.318
27.44000 353.303
27.48000 360.191
27.52000 369.587
27.56000 366.395
27.60000 361.941
27.64000 377.365
27.68000 371.400
27.72000 368.940
27.76000 362.327
27.80000 374.062
27.84000 359.963
27.88000 351.296
27.92000 384.782
27.96000 362.888
28.00000 355.195
28.04000 342.136
28.08000 354.482
28.12000 350.785
28.16000 352.505
28.20000 361.381
28.24000 366.927
28.28000 350.286
28.32000 366.784
28.36000 375.269
28.40000 355.122
28.44000 363.449
28.48000 359.073
28.52000 348.228
28.56000 354.521
28.60000 355.094
28.64000 350.186
28.68000 358.085
28.72000 348.722
28.76000 342.092
28.80000 338.396
28.84000 337.969
28.88000 370.236
28.92000 359.594
28.96000 341.444
29.00000 344.556
29.04000 338.623
29.08000 348.582
29.12000 347.161
29.16000 364.733
29.20000 349.914
29.24000 344.383
29.28000 333.001
29.32000 333.804
29.36000 366.290
29.40000 350.258
29.44000 347.957
29.48000 348.611
29.52000 347.060
29.56000 358.372
29.60000 341.518
29.64000 349.636
29.68000 350.614
29.72000 344.628
29.76000 355.742
29.80000 356.603
29.84000 365.625
29.88000 361.970
29.92000 381.849
29.96000 393.180
30.00000 376.711
30.04000 376.423
30.08000 361.513
30.12000 361.267
30.16000 391.078
30.20000 365.718
30.24000 349.879
30.28000 361.440
30.32000 347.099
30.36000 347.631
30.40000 365.709
30.44000 353.828
30.48000 342.663
30.52000 355.975
30.56000 350.372
30.60000 361.548
30.64000 357.819
30.68000 362.994
30.72000 358.511
30.76000 362.058
30.80000 368.022
30.84000 377.865
30.88000 364.984
30.92000 405.528
30.96000 414.872
31.00000 463.554
31.04000 518.814
31.08000 568.733
31.12000 664.064
31.16000 807.898
31.20000 931.780
31.24000 1131.277
31.28000 1240.802
31.32000 1344.380
31.36000 1382.886
31.40000 1367.975
31.44000 1282.191
31.48000 1138.462
31.52000 989.702
31.56000 836.289
31.60000 691.821
31.64000 562.223
31.68000 510.642
31.72000 445.950
31.76000 414.980
31.80000 401.093
31.84000 388.418
31.88000 365.156
31.92000 347.676
31.96000 369.589
32.00000 363.744
32.04000 325.671
32.08000 331.341
32.12000 343.992
32.16000 341.066
32.20000 326.888
32.24000 311.356
32.28000 317.535
32.32000 305.573
32.36000 317.646
32.40000 327.096
32.44000 332.435
32.48000 322.247
32.52000 319.245
32.56000 312.451
32.60000 319.713
32.64000 315.126
32.68000 315.906
32.72000 319.525
32.76000 297.517
32.80000 336.404
32.84000 398.141
32.88000 456.104
32.92000 493.937
32.96000 515.002
33.00000 505.697
33.04000 499.635
33.08000 428.437
33.12000 369.126
33.16000 328.969
33.20000 301.332
33.24000 298.621
33.28000 293.752
33.32000 286.340
33.36000 288.703
33.40000 292.347
33.44000 280.441
33.48000 291.031
33.52000 291.365
33.56000 300.602
33.60000 304.986
33.64000 274.872
33.68000 273.546
33.72000 290.036
33.76000 299.519
33.80000 307.092
33.84000 289.248
33.88000 288.045
33.92000 296.036
33.96000 305.056
34.00000 315.792
34.04000 288.150
34.08000 308.185
34.12000 310.001
34.16000 308.547
34.20000 314.035
34.24000 311.919
34.28000 325.518
34.32000 318.583
34.36000 328.548
34.40000 332.921
34.44000 324.275
34.48000 326.879
34.52000 307.958
34.56000 318.954
34.60000 305.428
34.64000 298.312
34.68000 313.006
34.72000 296.824
34.76000 271.596
34.80000 283.202
34.84000 275.650
34.88000 279.771
34.92000 267.713
34.96000 271.870
35.00000 268.398
35.04000 269.312
35.08000 276.702
35.12000 277.875
35.16000 261.531
35.20000 269.414
35.24000 273.505
35.28000 265.885
35.32000 259.037
35.36000 256.432
35.40000 264.093
35.44000 267.248
35.48000 272.069
35.52000 252.800
35.56000 259.618
35.60000 276.624
35.64000 252.461
35.68000 258.789
35.72000 270.467
35.76000 252.106
35.80000 279.641
35.84000 260.691
35.88000 242.754
35.92000 246.899
35.96000 253.945
36.00000 243.028
36.04000 250.123
36.08000 252.558
36.12000 265.424
36.16000 266.522
36.20000 265.559
36.24000 248.972
36.28000 262.176
36.32000 245.893
36.36000 250.386
36.40000 253.731
36.44000 234.990
36.48000 243.300
36.52000 247.652
36.56000 261.850
36.60000 258.248
36.64000 244.220
36.68000 238.605
36.72000 253.128
36.76000 265.546
36.80000 269.238
36.84000 266.573
36.88000 267.790
36.92000 281.875
36.96000 283.190
37.00000 284.610
37.04000 280.584
37.08000 272.826
37.12000 274.245
37.16000 265.551
37.20000 265.954
37.24000 269.708
37.28000 266.518
37.32000 256.727
37.36000 257.515
37.40000 263.140
37.44000 254.976
37.48000 256.830
37.52000 252.616
37.56000 247.351
37.60000 257.731
37.64000 250.060
37.68000 238.660
37.72000 236.316
37.76000 252.539
37.80000 242.426
37.84000 241.808
37.88000 258.238
37.92000 246.182
37.96000 242.905
38.00000 245.628
38.04000 254.055
38.08000 263.184
38.12000 252.231
38.16000 253.314
38.20000 264.827
38.24000 277.706
38.28000 304.601
38.32000 313.251
38.36000 330.308
38.40000 379.237
38.44000 424.508
38.48000 515.823
38.52000 602.826
38.56000 699.688
38.60000 837.960
38.64000 929.906
38.68000 1018.024
38.72000 1053.078
38.76000 1025.863
38.80000 942.930
38.84000 843.298
38.88000 734.207
38.92000 570.830
38.96000 497.913
39.00000 388.733
39.04000 321.181
39.08000 295.837
39.12000 286.129
39.16000 248.998
39.20000 238.112
39.24000 238.006
39.28000 239.046
39.32000 226.458
39.36000 231.126
39.40000 223.653
39.44000 238.654
39.48000 238.844
39.52000 240.822
39.56000 241.881
39.60000 226.993
39.64000 239.408
39.68000 217.208
39.72000 223.553
39.76000 232.786
39.80000 231.973
39.84000 218.873
39.88000 228.571
39.92000 227.585
39.96000 225.741
40.00000 222.454
40.04000 217.507
40.08000 221.979
40.12000 203.366
40.16000 221.741
40.20000 215.985
40.24000 209.618
40.28000 219.783
40.32000 211.568
40.36000 229.588
40.40000 216.913
40.44000 223.666
40.48000 215.653
40.52000 235.765
40.56000 221.640
40.60000 209.612
40.64000 214.031
40.68000 210.813
40.72000 213.663
40.76000 221.492
40.80000 202.489
40.84000 210.944
40.88000 207.422
40.92000 208.999
40.96000 217.117
41.00000 207.588
41.04000 195.857
41.08000 204.100
41.12000 199.801
41.16000 212.345
41.20000 214.566
41.24000 211.874
41.28000 194.425
41.32000 207.872
41.36000 205.856
41.40000 205.104
41.44000 208.607
41.48000 212.968
41.52000 204.005
41.56000 209.447
41.60000 200.609
41.64000 203.538
41.68000 198.508
41.72000 202.687
41.76000 208.615
41.80000 202.633
41.84000 201.981
41.88000 197.950
41.92000 199.542
41.96000 203.616
42.00000 193.357
42.04000 207.214
42.08000 209.585
42.12000 197.200
42.16000 198.200
42.20000 200.586
42.24000 206.603
42.28000 204.195
42.32000 207.567
42.36000 199.529
42.40000 205.060
42.44000 208.479
42.48000 202.385
42.52000 210.542
42.56000 195.080
42.60000 201.581
42.64000 212.790
42.68000 206.788
42.72000 203.638
42.76000 200.281
42.80000 199.200
42.84000 211.066
42.88000 198.251
42.92000 197.714
42.96000 195.984
43.00000 194.388
43.04000 201.035
43.08000 196.976
43.12000 195.657
43.16000 195.880
43.20000 184.514
43.24000 196.890
43.28000 195.641
43.32000 208.784
43.36000 198.198
43.40000 197.353
43.44000 194.760
43.48000 196.471
43.52000 194.493
43.56000 200.091
43.60000 186.523
43.64000 196.871
43.68000 195.070
43.72000 190.488
43.76000 193.536
43.80000 184.942
43.84000 193.274
43.88000 201.114
43.92000 188.000
43.96000 192.341
44.00000 183.735
44.04000 188.752
44.08000 186.957
44.12000 192.491
44.16000 196.573
44.20000 192.471
44.24000 194.312
44.28000 197.814
44.32000 193.913
44.36000 192.620
44.40000 198.208
44.44000 202.789
44.48000 198.990
44.52000 202.044
44.56000 199.168
44.60000 212.305
44.64000 224.074
44.68000 227.023
44.72000 225.929
44.76000 225.167
44.80000 232.543
44.84000 224.686
44.88000 238.179
44.92000 226.597
44.96000 246.043
45.00000 254.273
45.04000 249.060
45.08000 271.467
45.12000 275.819
45.16000 247.017
45.20000 256.438
45.24000 249.616
45.28000 230.727
45.32000 240.803
45.36000 232.352
45.40000 221.478
45.44000 219.648
45.48000 206.748
45.52000 214.541
45.56000 197.054
45.60000 201.026
45.64000 204.004
45.68000 206.491
45.72000 188.926
45.76000 193.877
45.80000 193.939
45.84000 192.473
45.88000 171.155
45.92000 176.489
45.96000 177.826
46.00000 179.192
46.04000 177.437
46.08000 173.447
46.12000 175.819
46.16000 168.566
46.20000 173.943
46.24000 181.521
46.28000 178.734
46.32000 177.030
46.36000 169.803
46.40000 167.818
46.44000 177.831
46.48000 168.062
46.52000 175.327
46.56000 175.845
46.60000 177.091
46.64000 180.213
46.68000 168.657
46.72000 175.335
46.76000 173.278
46.80000 173.280
46.84000 176.346
46.88000 169.143
46.92000 175.997
46.96000 159.492
47.00000 163.057
47.04000 161.932
47.08000 164.535
47.12000 171.473
47.16000 167.535
47.20000 160.912
47.24000 161.747
47.28000 160.922
47.32000 175.518
47.36000 166.770
47.40000 159.348
47.44000 165.887
47.48000 162.632
47.52000 158.729
47.56000 164.198
47.60000 157.954
47.64000 154.842
47.68000 150.171
47.72000 157.920
47.76000 154.699
47.80000 151.166
47.84000 160.172
47.88000 167.254
47.92000 169.016
47.96000 158.986
48.00000 152.520
48.04000 166.739
48.08000 154.523
48.12000 155.816
48.16000 160.384
48.20000 164.654
48.24000 155.210
48.28000 156.442
48.32000 153.683
48.36000 155.106
48.40000 158.321
48.44000 158.841
48.48000 157.881
48.52000 157.979
48.56000 158.308
48.60000 153.853
48.64000 169.809
48.68000 155.533
48.72000 150.838
48.76000 157.267
48.80000 160.315
48.84000 155.576
48.88000 145.398
48.92000 153.507
48.96000 167.457
49.00000 160.070
49.04000 158.615
49.08000 146.382
49.12000 149.864
49.16000 153.242
49.20000 161.979
49.24000 149.538
49.28000 154.293
49.32000 146.503
49.36000 149.689
49.40000 150.023
49.44000 149.454
49.48000 149.208
49.52000 144.404
49.56000 138.757
49.60000 157.635
49.64000 159.080
49.68000 148.233
49.72000 152.498
49.76000 148.795
49.80000 146.883
49.84000 149.528
49.88000 132.993
49.92000 157.341
49.96000 155.699
50.00000 144.642
50.04000 144.205
50.08000 157.284
50.12000 148.494
50.16000 152.525
50.20000 163.791
50.24000 157.327
50.28000 152.923
50.32000 153.417
50.36000 164.716
50.40000 160.995
50.44000 157.921
50.48000 168.437
50.52000 171.750
50.56000 184.714
50.60000 179.168
50.64000 173.809
50.68000 182.732
50.72000 180.038
50.76000 182.727
50.80000 172.966
50.84000 183.820
50.88000 164.942
50.92000 160.714
50.96000 165.971
51.00000 155.175
51.04000 166.727
51.08000 152.271
51.12000 147.662
51.16000 148.143
51.20000 149.329
51.24000 146.932
51.28000 148.156
51.32000 144.325
51.36000 133.606
51.40000 147.281
51.44000 145.841
51.48000 133.880
51.52000 139.099
51.56000 136.713
51.60000 135.656
51.64000 126.984
51.68000 148.337
51.72000 137.245
51.76000 141.882
51.80000 141.380
51.84000 142.038
51.88000 133.840
51.92000 145.922
51.96000 148.755
52.00000 136.199
52.04000 141.986
52.08000 147.205
52.12000 137.542
52.16000 137.128
52.20000 142.268
52.24000 137.012
52.28000 138.319
52.32000 139.555
52.36000 148.976
52.40000 129.317
52.44000 136.970
52.48000 130.720
52.52000 140.661
52.56000 126.907
52.60000 144.514
52.64000 133.508
52.68000 132.885
52.72000 135.770
52.76000 133.115
52.80000 144.680
52.84000 140.102
52.88000 146.129
52.92000 142.736
52.96000 140.488
53.00000 144.884
53.04000 142.712
53.08000 138.469
53.12000 131.781
53.16000 142.966
53.20000 152.489
53.24000 142.832
53.28000 144.797
53.32000 155.400
53.36000 147.071
53.40000 149.317
53.44000 159.478
53.48000 150.136
53.52000 155.118
53.56000 147.041
53.60000 138.678
53.64000 156.303
53.68000 130.575
53.72000 139.735
53.76000 154.711
53.80000 132.882
53.84000 136.343
53.88000 137.984
53.92000 144.081
53.96000 124.196
54.00000 131.800
54.04000 129.281
54.08000 139.684
54.12000 136.522
54.16000 140.218
54.20000 129.409
54.24000 136.385
54.28000 137.817
54.32000 148.169
54.36000 145.810
54.40000 138.744
54.44000 135.824
54.48000 136.945
54.52000 135.580
54.56000 137.551
54.60000 138.296
54.64000 139.966
54.68000 158.588
54.72000 146.772
54.76000 139.555
54.80000 144.169
54.84000 139.050
54.88000 138.258
54.92000 137.921
54.96000 131.274
55.00000 148.703
55.04000 152.821
55.08000 140.728
55.12000 132.932
55.16000 150.814
55.20000 143.837
55.24000 157.977
55.28000 151.191
55.32000 149.504
55.36000 165.266
55.40000 167.035
55.44000 191.845
55.48000 202.387
55.52000 220.865
55.56000 242.565
55.60000 270.410
55.64000 308.458
55.68000 351.363
55.72000 430.184
55.76000 463.756
55.80000 517.350
55.84000 576.622
55.88000 580.803
55.92000 622.900
55.96000 618.007
56.00000 581.409
56.04000 539.632
56.08000 497.568
56.12000 478.176
56.16000 383.150
56.20000 327.873
56.24000 295.668
56.28000 255.017
56.32000 223.316
56.36000 224.113
56.40000 182.444
56.44000 167.947
56.48000 167.431
56.52000 146.967
56.56000 150.368
56.60000 144.055
56.64000 145.427
56.68000 138.682
56.72000 130.809
56.76000 134.836
56.80000 126.408
56.84000 131.795
56.88000 132.214
56.92000 140.850
56.96000 134.620
57.00000 121.571
57.04000 125.088
57.08000 135.585
57.12000 121.985
57.16000 126.956
57.20000 125.823
57.24000 128.064
57.28000 130.776
57.32000 128.645
57.36000 128.534
57.40000 130.823
57.44000 125.565
57.48000 116.588
57.52000 126.811
57.56000 133.763
57.60000 126.759
57.64000 122.870
57.68000 125.308
57.72000 125.829
57.76000 125.276
57.80000 126.979
57.84000 131.817
57.88000 123.478
57.92000 123.276
57.96000 118.506
58.00000 119.384
58.04000 113.690
58.08000 123.512
58.12000 122.750
58.16000 126.454
58.20000 119.465
58.24000 126.822
58.28000 118.580
58.32000 105.614
58.36000 122.338
58.40000 120.499
58.44000 116.757
58.48000 115.768
58.52000 111.168
58.56000 112.301
58.60000 115.031
58.64000 119.553
58.68000 118.334
58.72000 120.321
58.76000 108.764
58.80000 113.822
58.84000 114.160
58.88000 118.886
58.92000 110.498
58.96000 116.424
59.00000 122.071
59.04000 111.917
59.08000 114.692
59.12000 105.371
59.16000 121.407
59.20000 120.204
59.24000 126.127
59.28000 117.828
59.32000 111.507
59.36000 107.553
59.40000 122.155
59.44000 115.510
59.48000 115.899
59.52000 119.402
59.56000 110.832
59.60000 119.508
59.64000 118.822
59.68000 120.526
59.72000 113.290
59.76000 121.194
59.80000 117.840
59.84000 119.240
59.88000 117.657
59.92000 123.761
59.96000 118.815
60.00000 118.699
60.04000 121.852
60.08000 106.983
60.12000 111.308
60.16000 109.666
60.20000 117.988
60.24000 113.968
60.28000 108.393
60.32000 126.927
60.36000 117.156
60.40000 111.445
60.44000 108.407
60.48000 119.614
60.52000 112.868
60.56000 116.217
60.60000 111.667
60.64000 121.685
60.68000 118.153
60.72000 104.772
60.76000 121.608
60.80000 121.597
60.84000 119.256
60.88000 116.949
60.92000 105.524
60.96000 120.410
61.00000 119.403
61.04000 125.516
61.08000 131.607
61.12000 112.195
61.16000 125.205
61.20000 129.762
61.24000 125.676
61.28000 120.572
61.32000 125.350
61.36000 118.261
61.40000 123.469
61.44000 140.352
61.48000 134.265
61.52000 155.815
61.56000 197.291
61.60000 252.957
61.64000 289.455
61.68000 292.491
61.72000 291.781
61.76000 277.026
61.80000 217.141
61.84000 171.910
61.88000 150.340
61.92000 136.935
61.96000 125.182
62.00000 122.798
62.04000 120.677
62.08000 133.059
62.12000 122.516
62.16000 121.533
62.20000 134.048
62.24000 128.621
62.28000 124.381
62.32000 135.156
62.36000 118.627
62.40000 124.439
62.44000 126.246
62.48000 123.853
62.52000 118.889
62.56000 136.501
62.60000 127.162
62.64000 130.440
62.68000 130.729
62.72000 131.809
62.76000 125.045
62.80000 131.842
62.84000 120.339
62.88000 131.738
62.92000 135.555
62.96000 132.652
63.00000 123.255
63.04000 134.034
63.08000 133.183
63.12000 134.111
63.16000 132.959
63.20000 131.223
63.24000 130.504
63.28000 130.493
63.32000 128.423
63.36000 131.620
63.40000 122.650
63.44000 130.339
63.48000 131.354
63.52000 123.332
63.56000 136.194
63.60000 133.685
63.64000 138.853
63.68000 130.182
63.72000 136.587
63.76000 143.555
63.80000 136.178
63.84000 146.005
63.88000 131.505
63.92000 141.322
63.96000 143.978
64.00000 143.762
64.04000 143.734
64.08000 145.391
64.12000 146.555
64.16000 150.093
64.20000 153.733
64.24000 146.075
64.28000 149.004
64.32000 137.150
64.36000 141.330
64.40000 154.670
64.44000 145.493
64.48000 144.585
64.52000 153.354
64.56000 157.912
64.60000 158.423
64.64000 160.851
64.68000 154.737
64.72000 162.823
64.76000 177.145
64.80000 172.214
64.84000 171.026
64.88000 181.074
64.92000 178.962
64.96000 183.265
65.00000 185.183
65.04000 202.594
65.08000 190.223
65.12000 207.795
65.16000 214.782
65.20000 226.747
65.24000 226.893
65.28000 221.591
65.32000 257.568
65.36000 254.018
65.40000 271.836
65.44000 282.248
65.48000 308.863
65.52000 311.365
65.56000 343.636
65.60000 379.585
65.64000 444.604
65.68000 603.790
65.72000 946.660
65.76000 1438.670
65.80000 1801.406
65.84000 2041.961
65.88000 2031.995
65.92000 1905.160
65.96000 1560.108
66.00000 1040.643
66.04000 643.029
66.08000 457.813
66.12000 401.019
66.16000 367.092
66.20000 369.113
66.24000 380.776
66.28000 471.058
66.32000 566.856
66.36000 611.719
66.40000 637.013
66.44000 594.859
66.48000 587.353
66.52000 502.547
66.56000 444.737
66.60000 383.427
66.64000 373.312
66.68000 361.564
66.72000 352.815
66.76000 349.527
66.80000 356.847
66.84000 344.227
66.88000 354.497
66.92000 349.809
66.96000 373.226
67.00000 372.202
67.04000 370.797
67.08000 374.033
67.12000 390.231
67.16000 381.383
67.20000 387.001
67.24000 375.502
67.28000 392.844
67.32000 402.704
67.36000 415.213
67.40000 410.823
67.44000 433.856
67.48000 421.019
67.52000 420.270
67.56000 419.262
67.60000 421.792
67.64000 432.384
67.68000 448.549
67.72000 465.929
67.76000 456.841
67.80000 476.759
67.84000 476.190
67.88000 495.142
67.92000 487.409
67.96000 480.253
68.00000 492.856
68.04000 501.765
68.08000 512.949
68.12000 545.970
68.16000 542.112
68.20000 552.113
68.24000 576.854
68.28000 562.549
68.32000 586.755
68.36000 593.811
68.40000 592.714
68.44000 642.154
68.48000 680.608
68.52000 693.651
68.56000 737.325
68.60000 846.973
68.64000 957.016
68.68000 1120.919
68.72000 1282.029
68.76000 1487.518
68.80000 1684.491
68.84000 1907.911
68.88000 2403.982
68.92000 3624.291
68.96000 10274.429
69.00000 23024.090
69.04000 35630.211
69.08000 42099.391
69.12000 45082.918
69.16000 47906.168
69.20000 46859.652
69.24000 37110.375
69.28000 27797.438
69.32000 22911.863
69.36000 21187.166
69.40000 17316.902
69.44000 10633.078
69.48000 4766.169
69.52000 2075.453
69.56000 1337.088
69.60000 1061.500
69.64000 896.147
69.68000 782.517
69.72000 705.963
69.76000 647.236
69.80000 624.044
69.84000 599.203
69.88000 556.288
69.92000 548.137
69.96000 529.038
70.00000 501.734