File: XRD/07-10-2025 Dep 6/XY Data/BTO_Mapping_Theta2Theta_07-10-2025_001_31_-19-563_4-158.xy
20.00000 486.750
20.04000 470.410
20.08000 466.392
20.12000 483.718
20.16000 467.767
20.20000 469.076
20.24000 454.132
20.28000 474.399
20.32000 445.145
20.36000 452.067
20.40000 482.449
20.44000 470.741
20.48000 453.928
20.52000 470.267
20.56000 467.946
20.60000 452.331
20.64000 449.686
20.68000 462.916
20.72000 477.698
20.76000 443.036
20.80000 459.492
20.84000 444.752
20.88000 464.921
20.92000 466.715
20.96000 445.314
21.00000 459.644
21.04000 440.347
21.08000 470.826
21.12000 467.989
21.16000 456.822
21.20000 451.130
21.24000 459.452
21.28000 472.192
21.32000 454.205
21.36000 444.130
21.40000 457.029
21.44000 476.191
21.48000 451.063
21.52000 447.169
21.56000 454.029
21.60000 463.137
21.64000 459.679
21.68000 469.281
21.72000 478.446
21.76000 485.093
21.80000 503.840
21.84000 515.891
21.88000 506.437
21.92000 527.733
21.96000 565.976
22.00000 550.988
22.04000 555.963
22.08000 566.818
22.12000 568.321
22.16000 558.740
22.20000 517.399
22.24000 545.046
22.28000 509.220
22.32000 507.307
22.36000 502.339
22.40000 491.970
22.44000 473.210
22.48000 489.936
22.52000 449.681
22.56000 446.434
22.60000 436.503
22.64000 444.367
22.68000 467.317
22.72000 442.845
22.76000 427.405
22.80000 455.488
22.84000 438.283
22.88000 426.751
22.92000 432.538
22.96000 438.515
23.00000 446.835
23.04000 455.119
23.08000 437.354
23.12000 442.711
23.16000 425.624
23.20000 430.047
23.24000 419.770
23.28000 436.257
23.32000 416.184
23.36000 423.846
23.40000 424.875
23.44000 432.965
23.48000 407.957
23.52000 444.912
23.56000 440.499
23.60000 429.047
23.64000 437.886
23.68000 417.086
23.72000 447.070
23.76000 445.444
23.80000 438.139
23.84000 450.194
23.88000 421.956
23.92000 409.204
23.96000 428.565
24.00000 431.981
24.04000 439.733
24.08000 425.006
24.12000 424.094
24.16000 422.090
24.20000 423.781
24.24000 409.926
24.28000 415.658
24.32000 412.685
24.36000 395.092
24.40000 412.641
24.44000 412.614
24.48000 412.402
24.52000 409.168
24.56000 414.631
24.60000 405.447
24.64000 393.314
24.68000 401.782
24.72000 399.905
24.76000 412.060
24.80000 407.204
24.84000 399.737
24.88000 391.402
24.92000 393.608
24.96000 402.776
25.00000 413.119
25.04000 397.114
25.08000 389.042
25.12000 395.562
25.16000 408.190
25.20000 392.653
25.24000 402.401
25.28000 393.682
25.32000 400.301
25.36000 391.447
25.40000 391.703
25.44000 386.453
25.48000 391.836
25.52000 385.089
25.56000 392.189
25.60000 383.305
25.64000 391.414
25.68000 382.169
25.72000 392.375
25.76000 381.235
25.80000 379.315
25.84000 387.380
25.88000 382.728
25.92000 391.699
25.96000 376.035
26.00000 380.208
26.04000 393.132
26.08000 382.070
26.12000 377.969
26.16000 382.427
26.20000 389.159
26.24000 373.011
26.28000 379.107
26.32000 374.030
26.36000 375.205
26.40000 389.511
26.44000 385.654
26.48000 366.469
26.52000 379.985
26.56000 388.174
26.60000 369.031
26.64000 371.216
26.68000 368.382
26.72000 377.099
26.76000 384.995
26.80000 371.361
26.84000 371.521
26.88000 383.111
26.92000 359.013
26.96000 379.318
27.00000 374.647
27.04000 376.459
27.08000 380.486
27.12000 378.962
27.16000 354.669
27.20000 364.435
27.24000 364.748
27.28000 370.093
27.32000 349.412
27.36000 355.094
27.40000 370.334
27.44000 373.549
27.48000 360.775
27.52000 375.750
27.56000 370.765
27.60000 354.149
27.64000 367.611
27.68000 363.985
27.72000 380.355
27.76000 365.456
27.80000 358.402
27.84000 370.906
27.88000 359.172
27.92000 352.544
27.96000 359.396
28.00000 358.868
28.04000 375.420
28.08000 360.114
28.12000 346.115
28.16000 351.275
28.20000 360.928
28.24000 359.098
28.28000 376.374
28.32000 352.316
28.36000 351.581
28.40000 340.960
28.44000 344.829
28.48000 358.368
28.52000 346.944
28.56000 354.291
28.60000 346.323
28.64000 357.813
28.68000 355.163
28.72000 369.299
28.76000 339.799
28.80000 348.358
28.84000 345.814
28.88000 364.687
28.92000 351.268
28.96000 349.831
29.00000 347.720
29.04000 341.442
29.08000 340.754
29.12000 343.216
29.16000 363.250
29.20000 345.458
29.24000 333.303
29.28000 342.068
29.32000 344.958
29.36000 347.248
29.40000 329.911
29.44000 358.981
29.48000 339.660
29.52000 348.072
29.56000 329.016
29.60000 344.777
29.64000 355.762
29.68000 359.960
29.72000 355.846
29.76000 364.278
29.80000 375.975
29.84000 386.897
29.88000 398.932
29.92000 408.599
29.96000 419.243
30.00000 414.708
30.04000 413.948
30.08000 396.336
30.12000 395.274
30.16000 389.249
30.20000 376.440
30.24000 369.423
30.28000 371.609
30.32000 383.447
30.36000 378.941
30.40000 371.379
30.44000 376.471
30.48000 357.234
30.52000 364.385
30.56000 365.736
30.60000 362.056
30.64000 367.198
30.68000 368.529
30.72000 371.523
30.76000 367.139
30.80000 369.111
30.84000 396.067
30.88000 423.303
30.92000 434.991
30.96000 482.188
31.00000 502.159
31.04000 586.485
31.08000 707.544
31.12000 899.855
31.16000 1131.338
31.20000 1345.122
31.24000 1609.091
31.28000 1885.311
31.32000 2041.967
31.36000 2129.941
31.40000 2057.185
31.44000 1855.246
31.48000 1658.970
31.52000 1339.869
31.56000 1063.381
31.60000 823.332
31.64000 661.528
31.68000 550.982
31.72000 488.981
31.76000 428.178
31.80000 399.535
31.84000 363.616
31.88000 368.161
31.92000 363.730
31.96000 367.089
32.00000 353.453
32.04000 349.679
32.08000 349.547
32.12000 342.528
32.16000 324.582
32.20000 328.238
32.24000 325.291
32.28000 330.959
32.32000 337.382
32.36000 332.272
32.40000 324.545
32.44000 318.368
32.48000 319.267
32.52000 317.015
32.56000 308.119
32.60000 308.755
32.64000 302.489
32.68000 314.263
32.72000 314.781
32.76000 313.544
32.80000 342.824
32.84000 403.406
32.88000 440.623
32.92000 499.901
32.96000 523.946
33.00000 527.462
33.04000 497.924
33.08000 435.597
33.12000 368.713
33.16000 334.050
33.20000 301.709
33.24000 291.844
33.28000 289.202
33.32000 284.528
33.36000 280.159
33.40000 303.477
33.44000 285.719
33.48000 297.997
33.52000 297.166
33.56000 278.786
33.60000 287.645
33.64000 291.643
33.68000 291.617
33.72000 295.320
33.76000 295.991
33.80000 299.902
33.84000 276.749
33.88000 289.807
33.92000 294.723
33.96000 286.952
34.00000 296.159
34.04000 303.446
34.08000 301.163
34.12000 319.611
34.16000 303.134
34.20000 322.754
34.24000 307.322
34.28000 298.405
34.32000 310.773
34.36000 305.605
34.40000 310.927
34.44000 294.109
34.48000 300.961
34.52000 304.228
34.56000 284.151
34.60000 286.158
34.64000 291.543
34.68000 297.330
34.72000 292.065
34.76000 288.901
34.80000 273.623
34.84000 282.109
34.88000 275.396
34.92000 275.290
34.96000 284.448
35.00000 264.800
35.04000 281.930
35.08000 259.451
35.12000 273.886
35.16000 255.865
35.20000 260.106
35.24000 263.870
35.28000 270.863
35.32000 266.943
35.36000 262.017
35.40000 256.872
35.44000 261.100
35.48000 261.364
35.52000 260.387
35.56000 256.944
35.60000 259.738
35.64000 257.138
35.68000 277.771
35.72000 248.468
35.76000 246.089
35.80000 266.717
35.84000 254.735
35.88000 252.338
35.92000 245.216
35.96000 260.953
36.00000 258.927
36.04000 255.411
36.08000 261.385
36.12000 246.831
36.16000 258.233
36.20000 265.242
36.24000 249.821
36.28000 244.629
36.32000 251.623
36.36000 234.784
36.40000 258.810
36.44000 262.029
36.48000 255.774
36.52000 249.626
36.56000 253.460
36.60000 254.389
36.64000 268.340
36.68000 262.124
36.72000 259.112
36.76000 253.346
36.80000 256.566
36.84000 259.605
36.88000 271.312
36.92000 276.994
36.96000 268.203
37.00000 257.663
37.04000 255.633
37.08000 273.558
37.12000 273.400
37.16000 268.261
37.20000 266.199
37.24000 251.679
37.28000 255.150
37.32000 259.525
37.36000 254.683
37.40000 248.517
37.44000 253.625
37.48000 255.991
37.52000 256.757
37.56000 257.746
37.60000 243.412
37.64000 254.394
37.68000 248.206
37.72000 258.608
37.76000 232.751
37.80000 244.333
37.84000 258.693
37.88000 241.984
37.92000 247.509
37.96000 245.972
38.00000 246.647
38.04000 256.589
38.08000 246.587
38.12000 259.391
38.16000 251.831
38.20000 278.172
38.24000 277.125
38.28000 284.953
38.32000 306.407
38.36000 317.694
38.40000 397.500
38.44000 432.682
38.48000 506.309
38.52000 596.233
38.56000 684.733
38.60000 783.882
38.64000 854.607
38.68000 900.402
38.72000 934.943
38.76000 906.932
38.80000 807.848
38.84000 693.041
38.88000 620.294
38.92000 507.865
38.96000 439.856
39.00000 352.618
39.04000 305.211
39.08000 294.742
39.12000 265.118
39.16000 255.751
39.20000 243.941
39.24000 230.988
39.28000 242.076
39.32000 249.181
39.36000 228.460
39.40000 229.475
39.44000 239.894
39.48000 241.729
39.52000 231.191
39.56000 230.985
39.60000 214.102
39.64000 247.912
39.68000 223.459
39.72000 225.097
39.76000 223.563
39.80000 217.415
39.84000 216.297
39.88000 224.005
39.92000 218.114
39.96000 237.679
40.00000 224.634
40.04000 212.084
40.08000 230.922
40.12000 228.450
40.16000 224.114
40.20000 214.015
40.24000 213.408
40.28000 223.619
40.32000 227.629
40.36000 216.736
40.40000 221.697
40.44000 214.256
40.48000 213.437
40.52000 214.885
40.56000 219.732
40.60000 214.665
40.64000 214.807
40.68000 202.802
40.72000 212.476
40.76000 210.654
40.80000 206.480
40.84000 213.785
40.88000 211.217
40.92000 210.608
40.96000 204.800
41.00000 208.507
41.04000 211.770
41.08000 206.994
41.12000 190.267
41.16000 187.867
41.20000 215.198
41.24000 209.673
41.28000 198.465
41.32000 210.616
41.36000 210.393
41.40000 204.877
41.44000 201.403
41.48000 207.042
41.52000 208.435
41.56000 203.820
41.60000 195.851
41.64000 200.558
41.68000 211.623
41.72000 201.112
41.76000 198.316
41.80000 195.625
41.84000 203.200
41.88000 205.301
41.92000 202.883
41.96000 192.678
42.00000 215.613
42.04000 204.350
42.08000 200.265
42.12000 214.031
42.16000 215.666
42.20000 191.152
42.24000 203.632
42.28000 198.775
42.32000 208.703
42.36000 194.088
42.40000 201.569
42.44000 189.257
42.48000 195.327
42.52000 200.738
42.56000 188.880
42.60000 195.312
42.64000 188.556
42.68000 191.534
42.72000 197.702
42.76000 206.076
42.80000 192.842
42.84000 189.495
42.88000 201.390
42.92000 189.409
42.96000 189.943
43.00000 200.821
43.04000 197.561
43.08000 203.718
43.12000 195.245
43.16000 193.140
43.20000 198.893
43.24000 192.903
43.28000 184.488
43.32000 187.879
43.36000 187.482
43.40000 196.686
43.44000 195.258
43.48000 187.382
43.52000 188.084
43.56000 190.288
43.60000 181.186
43.64000 185.960
43.68000 185.811
43.72000 193.242
43.76000 182.506
43.80000 184.248
43.84000 198.553
43.88000 189.413
43.92000 181.901
43.96000 195.252
44.00000 209.938
44.04000 198.523
44.08000 185.859
44.12000 185.972
44.16000 195.771
44.20000 184.992
44.24000 184.608
44.28000 200.315
44.32000 201.517
44.36000 194.203
44.40000 191.690
44.44000 196.462
44.48000 195.285
44.52000 203.960
44.56000 208.141
44.60000 208.809
44.64000 218.974
44.68000 209.029
44.72000 217.868
44.76000 227.466
44.80000 233.204
44.84000 249.197
44.88000 262.070
44.92000 267.700
44.96000 281.780
45.00000 277.814
45.04000 276.627
45.08000 285.735
45.12000 268.382
45.16000 271.313
45.20000 262.387
45.24000 262.988
45.28000 242.089
45.32000 249.852
45.36000 222.741
45.40000 233.255
45.44000 247.610
45.48000 225.417
45.52000 205.107
45.56000 217.016
45.60000 206.174
45.64000 212.548
45.68000 192.758
45.72000 196.968
45.76000 186.487
45.80000 202.161
45.84000 193.652
45.88000 194.920
45.92000 184.563
45.96000 186.298
46.00000 193.925
46.04000 175.082
46.08000 189.044
46.12000 174.675
46.16000 187.605
46.20000 176.003
46.24000 181.601
46.28000 167.291
46.32000 175.125
46.36000 176.395
46.40000 170.428
46.44000 175.925
46.48000 171.093
46.52000 168.130
46.56000 177.180
46.60000 187.933
46.64000 169.108
46.68000 163.785
46.72000 168.072
46.76000 168.092
46.80000 169.178
46.84000 176.135
46.88000 166.714
46.92000 163.492
46.96000 166.918
47.00000 172.551
47.04000 158.906
47.08000 170.149
47.12000 167.817
47.16000 162.056
47.20000 158.198
47.24000 152.300
47.28000 168.621
47.32000 154.532
47.36000 154.127
47.40000 154.911
47.44000 165.915
47.48000 159.184
47.52000 165.555
47.56000 156.131
47.60000 159.753
47.64000 156.295
47.68000 163.862
47.72000 161.885
47.76000 161.562
47.80000 153.106
47.84000 152.046
47.88000 156.996
47.92000 152.879
47.96000 152.585
48.00000 168.628
48.04000 160.794
48.08000 161.755
48.12000 163.669
48.16000 168.504
48.20000 158.785
48.24000 149.082
48.28000 161.331
48.32000 154.894
48.36000 159.430
48.40000 162.935
48.44000 157.272
48.48000 159.715
48.52000 158.861
48.56000 149.484
48.60000 157.953
48.64000 147.899
48.68000 151.327
48.72000 158.251
48.76000 153.249
48.80000 155.692
48.84000 157.410
48.88000 160.154
48.92000 150.367
48.96000 159.417
49.00000 158.497
49.04000 157.312
49.08000 156.779
49.12000 152.188
49.16000 160.426
49.20000 157.453
49.24000 145.253
49.28000 147.847
49.32000 154.434
49.36000 151.976
49.40000 155.326
49.44000 158.076
49.48000 155.266
49.52000 147.105
49.56000 145.795
49.60000 149.811
49.64000 146.922
49.68000 142.686
49.72000 159.811
49.76000 156.279
49.80000 144.852
49.84000 156.323
49.88000 160.256
49.92000 168.877
49.96000 150.969
50.00000 147.908
50.04000 155.941
50.08000 149.805
50.12000 151.057
50.16000 159.891
50.20000 156.222
50.24000 154.594
50.28000 154.724
50.32000 156.305
50.36000 179.273
50.40000 187.319
50.44000 188.752
50.48000 203.336
50.52000 183.608
50.56000 188.684
50.60000 197.149
50.64000 201.593
50.68000 199.662
50.72000 184.349
50.76000 194.727
50.80000 187.260
50.84000 175.544
50.88000 170.045
50.92000 168.118
50.96000 165.251
51.00000 155.350
51.04000 160.728
51.08000 160.556
51.12000 149.121
51.16000 146.825
51.20000 137.768
51.24000 154.402
51.28000 143.704
51.32000 148.546
51.36000 141.153
51.40000 147.918
51.44000 137.125
51.48000 144.946
51.52000 154.283
51.56000 146.350
51.60000 138.968
51.64000 136.604
51.68000 141.323
51.72000 145.439
51.76000 131.942
51.80000 139.501
51.84000 142.337
51.88000 134.848
51.92000 132.802
51.96000 134.102
52.00000 143.361
52.04000 133.330
52.08000 131.617
52.12000 134.318
52.16000 129.425
52.20000 129.500
52.24000 135.812
52.28000 132.802
52.32000 136.603
52.36000 132.470
52.40000 131.084
52.44000 141.922
52.48000 131.273
52.52000 132.668
52.56000 137.375
52.60000 144.428
52.64000 137.776
52.68000 135.720
52.72000 150.596
52.76000 136.896
52.80000 138.961
52.84000 140.708
52.88000 140.309
52.92000 130.989
52.96000 145.530
53.00000 145.374
53.04000 138.556
53.08000 139.468
53.12000 145.283
53.16000 142.702
53.20000 147.506
53.24000 146.962
53.28000 150.602
53.32000 154.423
53.36000 150.581
53.40000 147.478
53.44000 150.417
53.48000 148.908
53.52000 149.435
53.56000 148.323
53.60000 142.136
53.64000 121.952
53.68000 147.116
53.72000 144.982
53.76000 143.213
53.80000 133.169
53.84000 132.984
53.88000 129.980
53.92000 136.303
53.96000 134.825
54.00000 145.568
54.04000 139.874
54.08000 140.563
54.12000 136.166
54.16000 134.576
54.20000 136.500
54.24000 134.876
54.28000 129.282
54.32000 136.871
54.36000 133.614
54.40000 136.110
54.44000 133.172
54.48000 135.571
54.52000 133.209
54.56000 133.034
54.60000 151.568
54.64000 136.537
54.68000 137.728
54.72000 141.589
54.76000 130.720
54.80000 141.410
54.84000 133.821
54.88000 133.418
54.92000 138.945
54.96000 142.808
55.00000 137.811
55.04000 139.528
55.08000 143.903
55.12000 143.533
55.16000 149.678
55.20000 149.053
55.24000 161.233
55.28000 155.560
55.32000 161.062
55.36000 166.266
55.40000 184.158
55.44000 191.927
55.48000 205.044
55.52000 228.587
55.56000 265.406
55.60000 306.709
55.64000 351.125
55.68000 394.106
55.72000 454.543
55.76000 508.811
55.80000 541.244
55.84000 572.136
55.88000 568.992
55.92000 604.759
55.96000 582.251
56.00000 535.030
56.04000 486.758
56.08000 432.015
56.12000 379.844
56.16000 343.419
56.20000 298.978
56.24000 258.072
56.28000 245.139
56.32000 212.959
56.36000 179.625
56.40000 182.875
56.44000 168.182
56.48000 165.396
56.52000 147.195
56.56000 165.755
56.60000 145.415
56.64000 128.628
56.68000 139.384
56.72000 132.009
56.76000 122.353
56.80000 133.982
56.84000 133.895
56.88000 145.763
56.92000 126.694
56.96000 125.793
57.00000 124.955
57.04000 127.258
57.08000 129.914
57.12000 123.174
57.16000 116.808
57.20000 120.232
57.24000 123.819
57.28000 129.818
57.32000 122.928
57.36000 121.940
57.40000 125.145
57.44000 131.372
57.48000 132.495
57.52000 126.651
57.56000 122.218
57.60000 123.980
57.64000 122.270
57.68000 125.675
57.72000 122.524
57.76000 124.171
57.80000 133.985
57.84000 129.300
57.88000 120.420
57.92000 107.413
57.96000 120.476
58.00000 126.683
58.04000 117.032
58.08000 129.005
58.12000 129.210
58.16000 117.059
58.20000 120.215
58.24000 119.886
58.28000 121.592
58.32000 119.468
58.36000 116.041
58.40000 114.137
58.44000 120.184
58.48000 118.917
58.52000 109.042
58.56000 114.433
58.60000 108.911
58.64000 111.166
58.68000 119.250
58.72000 120.977
58.76000 116.416
58.80000 120.714
58.84000 123.810
58.88000 118.170
58.92000 122.440
58.96000 113.205
59.00000 120.552
59.04000 119.421
59.08000 112.339
59.12000 105.766
59.16000 113.803
59.20000 115.397
59.24000 111.545
59.28000 110.511
59.32000 119.209
59.36000 119.235
59.40000 116.534
59.44000 115.766
59.48000 128.230
59.52000 120.080
59.56000 123.135
59.60000 108.472
59.64000 116.559
59.68000 112.450
59.72000 111.763
59.76000 109.629
59.80000 122.262
59.84000 117.003
59.88000 113.034
59.92000 117.024
59.96000 120.758
60.00000 110.103
60.04000 122.017
60.08000 110.658
60.12000 113.617
60.16000 114.604
60.20000 113.443
60.24000 108.804
60.28000 116.041
60.32000 122.690
60.36000 120.219
60.40000 116.971
60.44000 118.569
60.48000 120.053
60.52000 121.348
60.56000 115.778
60.60000 113.772
60.64000 114.358
60.68000 116.547
60.72000 120.635
60.76000 116.648
60.80000 118.401
60.84000 115.735
60.88000 118.463
60.92000 111.012
60.96000 114.048
61.00000 118.352
61.04000 120.925
61.08000 121.166
61.12000 125.007
61.16000 128.418
61.20000 117.066
61.24000 126.800
61.28000 117.273
61.32000 110.135
61.36000 128.671
61.40000 120.124
61.44000 135.149
61.48000 128.549
61.52000 163.684
61.56000 218.377
61.60000 265.419
61.64000 285.157
61.68000 305.791
61.72000 302.592
61.76000 287.397
61.80000 230.985
61.84000 168.722
61.88000 136.222
61.92000 132.030
61.96000 121.583
62.00000 124.666
62.04000 122.995
62.08000 134.311
62.12000 131.458
62.16000 126.377
62.20000 127.821
62.24000 127.344
62.28000 128.604
62.32000 130.933
62.36000 121.871
62.40000 143.398
62.44000 134.724
62.48000 124.629
62.52000 121.936
62.56000 127.740
62.60000 130.740
62.64000 125.830
62.68000 119.018
62.72000 135.374
62.76000 132.849
62.80000 125.802
62.84000 124.438
62.88000 138.728
62.92000 125.848
62.96000 124.735
63.00000 141.347
63.04000 123.730
63.08000 124.559
63.12000 135.359
63.16000 135.327
63.20000 138.322
63.24000 137.718
63.28000 124.882
63.32000 132.389
63.36000 148.323
63.40000 135.758
63.44000 137.116
63.48000 130.696
63.52000 133.347
63.56000 131.279
63.60000 152.700
63.64000 138.087
63.68000 137.914
63.72000 145.584
63.76000 134.234
63.80000 139.424
63.84000 135.902
63.88000 136.899
63.92000 153.400
63.96000 142.715
64.00000 147.807
64.04000 151.048
64.08000 143.599
64.12000 148.118
64.16000 136.621
64.20000 145.753
64.24000 150.016
64.28000 153.796
64.32000 154.027
64.36000 155.028
64.40000 154.328
64.44000 159.090
64.48000 160.908
64.52000 158.392
64.56000 163.573
64.60000 162.239
64.64000 163.371
64.68000 158.531
64.72000 180.682
64.76000 165.068
64.80000 181.768
64.84000 176.601
64.88000 181.765
64.92000 187.262
64.96000 194.531
65.00000 198.577
65.04000 206.619
65.08000 216.965
65.12000 232.954
65.16000 236.911
65.20000 250.377
65.24000 253.208
65.28000 270.922
65.32000 297.087
65.36000 303.440
65.40000 309.580
65.44000 354.503
65.48000 363.456
65.52000 385.756
65.56000 410.845
65.60000 420.592
65.64000 502.891
65.68000 669.943
65.72000 1074.650
65.76000 1615.673
65.80000 2010.084
65.84000 2186.877
65.88000 2173.719
65.92000 2034.937
65.96000 1603.091
66.00000 1047.080
66.04000 653.546
66.08000 481.647
66.12000 424.164
66.16000 384.018
66.20000 368.371
66.24000 410.157
66.28000 491.531
66.32000 581.244
66.36000 636.066
66.40000 667.763
66.44000 647.889
66.48000 612.976
66.52000 548.743
66.56000 447.703
66.60000 409.831
66.64000 376.647
66.68000 360.222
66.72000 376.180
66.76000 367.816
66.80000 357.022
66.84000 357.960
66.88000 346.323
66.92000 371.813
66.96000 378.064
67.00000 382.210
67.04000 379.605
67.08000 389.876
67.12000 377.743
67.16000 388.909
67.20000 401.260
67.24000 405.559
67.28000 410.646
67.32000 402.294
67.36000 405.852
67.40000 416.692
67.44000 433.576
67.48000 431.157
67.52000 429.122
67.56000 430.051
67.60000 449.153
67.64000 443.766
67.68000 447.868
67.72000 474.372
67.76000 461.226
67.80000 484.155
67.84000 479.660
67.88000 485.353
67.92000 498.518
67.96000 505.416
68.00000 512.892
68.04000 529.415
68.08000 523.825
68.12000 543.652
68.16000 533.809
68.20000 554.415
68.24000 544.234
68.28000 576.451
68.32000 607.543
68.36000 613.406
68.40000 650.471
68.44000 655.887
68.48000 688.760
68.52000 729.125
68.56000 812.874
68.60000 897.085
68.64000 1017.984
68.68000 1178.490
68.72000 1385.846
68.76000 1588.327
68.80000 1751.150
68.84000 2059.472
68.88000 2608.079
68.92000 4156.323
68.96000 11708.695
69.00000 25330.158
69.04000 38366.410
69.08000 44953.066
69.12000 48013.648
69.16000 50877.262
69.20000 49227.441
69.24000 38615.902
69.28000 29131.240
69.32000 24151.967
69.36000 22493.271
69.40000 17913.332
69.44000 10842.580
69.48000 4856.447
69.52000 2181.681
69.56000 1390.293
69.60000 1074.059
69.64000 947.128
69.68000 827.423
69.72000 738.360
69.76000 681.500
69.80000 618.005
69.84000 612.509
69.88000 584.175
69.92000 543.193
69.96000 530.590
70.00000 497.338