File: XRD/07-10-2025 Dep 6/XY Data/BTO_Mapping_Theta2Theta_07-10-2025_001_43_-10-000_-17-321.xy
20.00000 465.135
20.04000 468.711
20.08000 448.699
20.12000 478.481
20.16000 453.371
20.20000 461.274
20.24000 489.945
20.28000 474.692
20.32000 460.696
20.36000 457.222
20.40000 480.370
20.44000 471.253
20.48000 471.712
20.52000 456.833
20.56000 470.038
20.60000 471.783
20.64000 461.424
20.68000 471.054
20.72000 451.571
20.76000 457.515
20.80000 461.553
20.84000 450.715
20.88000 467.248
20.92000 458.280
20.96000 449.312
21.00000 456.274
21.04000 493.371
21.08000 467.185
21.12000 449.026
21.16000 445.259
21.20000 472.920
21.24000 449.712
21.28000 446.843
21.32000 459.261
21.36000 457.484
21.40000 463.602
21.44000 462.114
21.48000 457.080
21.52000 450.662
21.56000 476.985
21.60000 448.844
21.64000 474.035
21.68000 457.106
21.72000 473.918
21.76000 460.984
21.80000 492.363
21.84000 495.876
21.88000 525.105
21.92000 521.161
21.96000 534.978
22.00000 553.590
22.04000 538.994
22.08000 561.038
22.12000 544.114
22.16000 551.919
22.20000 542.620
22.24000 538.775
22.28000 506.414
22.32000 499.594
22.36000 481.031
22.40000 475.507
22.44000 459.304
22.48000 448.198
22.52000 438.649
22.56000 439.656
22.60000 441.087
22.64000 435.525
22.68000 429.515
22.72000 453.381
22.76000 434.290
22.80000 433.678
22.84000 425.763
22.88000 413.800
22.92000 419.506
22.96000 431.101
23.00000 442.209
23.04000 414.670
23.08000 411.548
23.12000 437.102
23.16000 442.304
23.20000 446.544
23.24000 414.317
23.28000 428.080
23.32000 446.948
23.36000 422.697
23.40000 407.227
23.44000 411.860
23.48000 416.930
23.52000 444.436
23.56000 435.563
23.60000 410.218
23.64000 432.869
23.68000 430.250
23.72000 452.907
23.76000 446.946
23.80000 452.320
23.84000 460.838
23.88000 467.150
23.92000 446.698
23.96000 473.891
24.00000 462.954
24.04000 447.031
24.08000 462.397
24.12000 454.639
24.16000 443.810
24.20000 442.909
24.24000 445.026
24.28000 444.033
24.32000 423.890
24.36000 408.215
24.40000 417.837
24.44000 412.038
24.48000 426.415
24.52000 415.343
24.56000 410.567
24.60000 386.558
24.64000 416.805
24.68000 396.579
24.72000 406.458
24.76000 402.192
24.80000 409.986
24.84000 408.022
24.88000 385.923
24.92000 383.581
24.96000 397.303
25.00000 406.081
25.04000 391.053
25.08000 379.823
25.12000 387.149
25.16000 403.685
25.20000 408.332
25.24000 400.867
25.28000 384.889
25.32000 406.452
25.36000 398.884
25.40000 393.329
25.44000 397.743
25.48000 412.988
25.52000 398.657
25.56000 384.207
25.60000 421.092
25.64000 395.380
25.68000 401.418
25.72000 394.950
25.76000 376.306
25.80000 375.915
25.84000 394.289
25.88000 389.293
25.92000 389.469
25.96000 385.922
26.00000 376.689
26.04000 379.073
26.08000 388.569
26.12000 378.797
26.16000 376.933
26.20000 376.477
26.24000 386.839
26.28000 378.767
26.32000 390.169
26.36000 378.942
26.40000 376.314
26.44000 382.097
26.48000 376.456
26.52000 374.588
26.56000 367.673
26.60000 368.850
26.64000 362.798
26.68000 381.387
26.72000 384.941
26.76000 369.379
26.80000 371.440
26.84000 373.914
26.88000 372.290
26.92000 386.213
26.96000 351.515
27.00000 362.790
27.04000 371.262
27.08000 364.190
27.12000 362.858
27.16000 358.827
27.20000 374.436
27.24000 369.172
27.28000 364.241
27.32000 372.953
27.36000 360.463
27.40000 365.894
27.44000 368.518
27.48000 369.871
27.52000 371.687
27.56000 377.848
27.60000 385.746
27.64000 357.962
27.68000 366.173
27.72000 363.870
27.76000 355.335
27.80000 369.173
27.84000 346.825
27.88000 352.530
27.92000 366.462
27.96000 371.492
28.00000 361.920
28.04000 354.446
28.08000 362.744
28.12000 363.196
28.16000 351.026
28.20000 352.598
28.24000 367.755
28.28000 368.480
28.32000 378.239
28.36000 369.575
28.40000 374.316
28.44000 357.441
28.48000 378.169
28.52000 365.922
28.56000 344.790
28.60000 354.211
28.64000 352.621
28.68000 346.087
28.72000 363.811
28.76000 332.891
28.80000 353.282
28.84000 349.785
28.88000 348.642
28.92000 356.695
28.96000 347.083
29.00000 367.981
29.04000 351.918
29.08000 360.836
29.12000 334.112
29.16000 333.053
29.20000 349.511
29.24000 344.584
29.28000 354.084
29.32000 371.230
29.36000 358.917
29.40000 354.773
29.44000 368.551
29.48000 343.497
29.52000 349.678
29.56000 352.908
29.60000 351.145
29.64000 349.907
29.68000 353.074
29.72000 368.846
29.76000 361.660
29.80000 359.650
29.84000 364.437
29.88000 383.205
29.92000 391.163
29.96000 380.088
30.00000 391.099
30.04000 383.459
30.08000 388.899
30.12000 391.065
30.16000 397.170
30.20000 380.804
30.24000 368.611
30.28000 367.302
30.32000 360.511
30.36000 347.452
30.40000 352.686
30.44000 367.763
30.48000 367.486
30.52000 351.952
30.56000 350.122
30.60000 348.223
30.64000 352.812
30.68000 357.429
30.72000 371.098
30.76000 374.659
30.80000 368.022
30.84000 387.825
30.88000 395.979
30.92000 455.577
30.96000 452.487
31.00000 463.261
31.04000 575.866
31.08000 629.546
31.12000 754.215
31.16000 947.483
31.20000 1127.264
31.24000 1318.989
31.28000 1468.815
31.32000 1615.900
31.36000 1618.206
31.40000 1597.251
31.44000 1456.366
31.48000 1248.854
31.52000 1079.271
31.56000 844.824
31.60000 696.794
31.64000 572.304
31.68000 516.322
31.72000 470.579
31.76000 421.422
31.80000 386.872
31.84000 387.361
31.88000 371.849
31.92000 367.081
31.96000 354.346
32.00000 359.386
32.04000 341.127
32.08000 336.209
32.12000 341.621
32.16000 347.239
32.20000 331.629
32.24000 300.411
32.28000 322.098
32.32000 322.772
32.36000 340.725
32.40000 324.336
32.44000 322.603
32.48000 316.806
32.52000 319.248
32.56000 308.975
32.60000 322.472
32.64000 320.790
32.68000 307.874
32.72000 307.609
32.76000 307.892
32.80000 344.387
32.84000 392.370
32.88000 455.236
32.92000 499.903
32.96000 520.044
33.00000 519.286
33.04000 504.241
33.08000 421.681
33.12000 366.804
33.16000 319.364
33.20000 310.751
33.24000 292.417
33.28000 301.482
33.32000 288.113
33.36000 296.004
33.40000 304.107
33.44000 289.736
33.48000 297.205
33.52000 289.261
33.56000 287.225
33.60000 301.222
33.64000 291.560
33.68000 277.134
33.72000 288.027
33.76000 288.552
33.80000 287.799
33.84000 290.911
33.88000 306.233
33.92000 312.738
33.96000 306.227
34.00000 299.420
34.04000 307.549
34.08000 304.241
34.12000 317.196
34.16000 300.075
34.20000 317.362
34.24000 315.782
34.28000 310.688
34.32000 318.775
34.36000 319.829
34.40000 320.270
34.44000 289.180
34.48000 317.887
34.52000 303.179
34.56000 300.758
34.60000 305.550
34.64000 311.587
34.68000 294.854
34.72000 299.427
34.76000 306.092
34.80000 284.603
34.84000 277.952
34.88000 277.712
34.92000 266.618
34.96000 282.833
35.00000 271.750
35.04000 271.541
35.08000 270.975
35.12000 270.228
35.16000 260.575
35.20000 263.516
35.24000 259.203
35.28000 258.708
35.32000 258.849
35.36000 263.177
35.40000 259.580
35.44000 268.527
35.48000 259.497
35.52000 259.419
35.56000 262.464
35.60000 267.099
35.64000 269.643
35.68000 255.401
35.72000 260.522
35.76000 269.564
35.80000 254.696
35.84000 253.958
35.88000 251.114
35.92000 264.503
35.96000 243.843
36.00000 260.745
36.04000 257.842
36.08000 263.117
36.12000 248.337
36.16000 260.620
36.20000 244.887
36.24000 245.436
36.28000 256.689
36.32000 238.816
36.36000 262.708
36.40000 260.265
36.44000 255.519
36.48000 248.332
36.52000 265.151
36.56000 261.570
36.60000 257.146
36.64000 259.439
36.68000 249.069
36.72000 250.475
36.76000 269.527
36.80000 277.102
36.84000 272.545
36.88000 284.256
36.92000 276.886
36.96000 289.619
37.00000 294.492
37.04000 280.239
37.08000 284.728
37.12000 272.126
37.16000 265.819
37.20000 265.278
37.24000 263.970
37.28000 252.088
37.32000 256.439
37.36000 255.219
37.40000 254.110
37.44000 246.229
37.48000 256.955
37.52000 249.189
37.56000 245.693
37.60000 246.321
37.64000 250.789
37.68000 238.537
37.72000 247.735
37.76000 244.741
37.80000 246.361
37.84000 253.437
37.88000 247.639
37.92000 249.543
37.96000 247.532
38.00000 245.656
38.04000 247.994
38.08000 272.929
38.12000 257.233
38.16000 279.756
38.20000 265.979
38.24000 270.510
38.28000 291.714
38.32000 324.593
38.36000 342.216
38.40000 414.638
38.44000 461.591
38.48000 564.873
38.52000 667.790
38.56000 768.801
38.60000 898.942
38.64000 979.570
38.68000 1045.881
38.72000 1075.191
38.76000 1037.250
38.80000 966.207
38.84000 842.549
38.88000 742.461
38.92000 603.528
38.96000 470.810
39.00000 389.056
39.04000 339.491
39.08000 288.964
39.12000 276.689
39.16000 248.918
39.20000 229.642
39.24000 247.592
39.28000 239.193
39.32000 237.210
39.36000 241.693
39.40000 230.115
39.44000 233.383
39.48000 233.840
39.52000 234.977
39.56000 235.133
39.60000 219.677
39.64000 224.254
39.68000 226.339
39.72000 230.282
39.76000 218.672
39.80000 227.818
39.84000 227.988
39.88000 232.396
39.92000 224.817
39.96000 235.061
40.00000 212.486
40.04000 234.400
40.08000 225.722
40.12000 228.204
40.16000 223.239
40.20000 223.621
40.24000 210.923
40.28000 217.979
40.32000 209.713
40.36000 217.670
40.40000 209.926
40.44000 213.417
40.48000 211.973
40.52000 211.857
40.56000 216.067
40.60000 204.578
40.64000 213.758
40.68000 230.935
40.72000 226.735
40.76000 212.068
40.80000 212.590
40.84000 208.737
40.88000 220.764
40.92000 206.617
40.96000 202.381
41.00000 219.835
41.04000 207.093
41.08000 206.251
41.12000 208.321
41.16000 201.629
41.20000 212.020
41.24000 210.426
41.28000 208.739
41.32000 210.879
41.36000 212.799
41.40000 218.786
41.44000 203.984
41.48000 200.467
41.52000 200.256
41.56000 209.854
41.60000 212.611
41.64000 210.773
41.68000 205.732
41.72000 213.025
41.76000 209.082
41.80000 202.127
41.84000 201.674
41.88000 200.371
41.92000 203.306
41.96000 211.644
42.00000 210.679
42.04000 195.030
42.08000 202.517
42.12000 216.990
42.16000 201.565
42.20000 219.112
42.24000 215.795
42.28000 198.820
42.32000 212.342
42.36000 207.418
42.40000 201.676
42.44000 199.943
42.48000 199.876
42.52000 206.847
42.56000 216.238
42.60000 202.215
42.64000 196.346
42.68000 200.121
42.72000 211.658
42.76000 198.251
42.80000 199.633
42.84000 200.969
42.88000 195.452
42.92000 194.695
42.96000 198.303
43.00000 209.279
43.04000 190.097
43.08000 208.452
43.12000 191.676
43.16000 203.302
43.20000 192.914
43.24000 206.187
43.28000 185.796
43.32000 203.637
43.36000 172.784
43.40000 187.127
43.44000 180.028
43.48000 192.702
43.52000 189.277
43.56000 188.179
43.60000 185.557
43.64000 185.445
43.68000 193.224
43.72000 201.184
43.76000 191.678
43.80000 191.834
43.84000 192.246
43.88000 197.597
43.92000 188.641
43.96000 187.223
44.00000 194.619
44.04000 193.212
44.08000 173.681
44.12000 188.683
44.16000 192.147
44.20000 193.313
44.24000 194.015
44.28000 188.628
44.32000 195.437
44.36000 186.490
44.40000 210.567
44.44000 206.602
44.48000 209.270
44.52000 206.822
44.56000 211.424
44.60000 216.675
44.64000 219.411
44.68000 216.815
44.72000 219.694
44.76000 227.119
44.80000 228.564
44.84000 245.485
44.88000 253.738
44.92000 268.085
44.96000 267.456
45.00000 280.566
45.04000 289.090
45.08000 275.853
45.12000 265.897
45.16000 251.414
45.20000 253.645
45.24000 253.907
45.28000 247.072
45.32000 248.315
45.36000 227.889
45.40000 225.184
45.44000 217.877
45.48000 215.364
45.52000 224.621
45.56000 211.199
45.60000 217.324
45.64000 213.787
45.68000 199.882
45.72000 199.075
45.76000 195.765
45.80000 198.943
45.84000 193.667
45.88000 187.117
45.92000 182.149
45.96000 188.376
46.00000 188.813
46.04000 168.112
46.08000 187.374
46.12000 171.193
46.16000 171.965
46.20000 175.262
46.24000 171.897
46.28000 170.506
46.32000 174.596
46.36000 171.246
46.40000 183.499
46.44000 173.413
46.48000 178.870
46.52000 178.245
46.56000 173.906
46.60000 176.299
46.64000 170.501
46.68000 163.102
46.72000 175.913
46.76000 170.735
46.80000 173.179
46.84000 172.457
46.88000 171.008
46.92000 175.398
46.96000 164.569
47.00000 166.349
47.04000 164.711
47.08000 167.304
47.12000 158.303
47.16000 158.465
47.20000 171.456
47.24000 170.314
47.28000 160.478
47.32000 167.437
47.36000 158.702
47.40000 158.800
47.44000 174.240
47.48000 172.997
47.52000 165.062
47.56000 161.064
47.60000 172.420
47.64000 155.833
47.68000 157.683
47.72000 162.747
47.76000 164.630
47.80000 162.207
47.84000 161.527
47.88000 171.367
47.92000 155.702
47.96000 157.356
48.00000 153.081
48.04000 153.435
48.08000 159.534
48.12000 154.680
48.16000 160.756
48.20000 165.093
48.24000 148.947
48.28000 157.141
48.32000 156.918
48.36000 158.558
48.40000 154.124
48.44000 163.787
48.48000 169.857
48.52000 161.713
48.56000 156.417
48.60000 153.424
48.64000 159.197
48.68000 152.132
48.72000 157.321
48.76000 161.748
48.80000 148.828
48.84000 160.706
48.88000 160.716
48.92000 154.116
48.96000 149.123
49.00000 156.578
49.04000 156.590
49.08000 165.177
49.12000 156.217
49.16000 151.303
49.20000 147.794
49.24000 150.663
49.28000 144.731
49.32000 145.965
49.36000 159.530
49.40000 145.516
49.44000 145.937
49.48000 152.796
49.52000 159.800
49.56000 148.517
49.60000 154.570
49.64000 140.704
49.68000 144.152
49.72000 158.361
49.76000 143.604
49.80000 156.583
49.84000 149.188
49.88000 150.941
49.92000 159.969
49.96000 148.752
50.00000 154.880
50.04000 151.874
50.08000 153.292
50.12000 144.581
50.16000 160.211
50.20000 153.582
50.24000 155.394
50.28000 153.908
50.32000 163.752
50.36000 161.191
50.40000 171.332
50.44000 176.007
50.48000 177.806
50.52000 173.851
50.56000 179.705
50.60000 186.246
50.64000 187.746
50.68000 186.049
50.72000 185.484
50.76000 180.859
50.80000 170.063
50.84000 173.848
50.88000 167.257
50.92000 164.079
50.96000 154.999
51.00000 157.405
51.04000 153.813
51.08000 153.603
51.12000 152.679
51.16000 153.402
51.20000 155.950
51.24000 145.557
51.28000 137.592
51.32000 143.269
51.36000 152.363
51.40000 136.455
51.44000 144.601
51.48000 142.173
51.52000 133.964
51.56000 149.093
51.60000 151.485
51.64000 144.600
51.68000 128.610
51.72000 134.064
51.76000 140.736
51.80000 140.306
51.84000 135.169
51.88000 146.056
51.92000 148.302
51.96000 137.384
52.00000 136.673
52.04000 131.763
52.08000 138.066
52.12000 130.593
52.16000 139.332
52.20000 135.011
52.24000 141.373
52.28000 127.095
52.32000 139.349
52.36000 137.129
52.40000 141.534
52.44000 135.591
52.48000 131.735
52.52000 131.309
52.56000 132.952
52.60000 122.841
52.64000 149.528
52.68000 140.171
52.72000 138.638
52.76000 127.553
52.80000 135.897
52.84000 135.308
52.88000 133.577
52.92000 136.688
52.96000 134.586
53.00000 136.841
53.04000 145.593
53.08000 137.947
53.12000 156.982
53.16000 141.490
53.20000 147.213
53.24000 150.485
53.28000 150.506
53.32000 151.020
53.36000 158.478
53.40000 161.438
53.44000 141.305
53.48000 147.399
53.52000 154.438
53.56000 147.990
53.60000 143.614
53.64000 143.178
53.68000 138.251
53.72000 136.933
53.76000 152.111
53.80000 135.447
53.84000 123.135
53.88000 131.202
53.92000 137.895
53.96000 139.816
54.00000 141.972
54.04000 138.943
54.08000 133.150
54.12000 132.361
54.16000 134.060
54.20000 136.933
54.24000 140.506
54.28000 135.027
54.32000 139.210
54.36000 143.987
54.40000 136.309
54.44000 137.784
54.48000 132.649
54.52000 135.878
54.56000 138.554
54.60000 147.862
54.64000 144.404
54.68000 139.554
54.72000 138.210
54.76000 140.030
54.80000 138.741
54.84000 143.181
54.88000 147.261
54.92000 144.692
54.96000 143.832
55.00000 140.720
55.04000 150.572
55.08000 136.897
55.12000 154.940
55.16000 159.117
55.20000 155.175
55.24000 152.343
55.28000 165.773
55.32000 162.474
55.36000 179.133
55.40000 180.162
55.44000 193.436
55.48000 216.326
55.52000 224.640
55.56000 272.484
55.60000 313.345
55.64000 355.098
55.68000 410.873
55.72000 439.093
55.76000 522.001
55.80000 563.126
55.84000 620.024
55.88000 614.817
55.92000 631.899
55.96000 640.742
56.00000 576.304
56.04000 525.335
56.08000 488.323
56.12000 429.828
56.16000 371.964
56.20000 326.080
56.24000 273.957
56.28000 233.302
56.32000 218.955
56.36000 205.830
56.40000 181.886
56.44000 160.024
56.48000 151.461
56.52000 152.304
56.56000 141.911
56.60000 154.899
56.64000 138.270
56.68000 143.274
56.72000 137.860
56.76000 132.584
56.80000 131.181
56.84000 136.100
56.88000 134.554
56.92000 126.613
56.96000 124.391
57.00000 129.301
57.04000 127.830
57.08000 132.993
57.12000 132.147
57.16000 124.772
57.20000 121.322
57.24000 132.882
57.28000 125.978
57.32000 125.956
57.36000 136.827
57.40000 124.505
57.44000 126.414
57.48000 119.916
57.52000 124.995
57.56000 126.787
57.60000 113.983
57.64000 128.257
57.68000 125.373
57.72000 137.289
57.76000 125.107
57.80000 122.549
57.84000 125.816
57.88000 128.825
57.92000 116.899
57.96000 111.045
58.00000 121.636
58.04000 120.304
58.08000 122.398
58.12000 117.664
58.16000 125.569
58.20000 125.905
58.24000 122.745
58.28000 125.363
58.32000 113.305
58.36000 122.632
58.40000 113.822
58.44000 121.392
58.48000 111.287
58.52000 122.754
58.56000 112.174
58.60000 113.395
58.64000 121.306
58.68000 112.829
58.72000 117.785
58.76000 107.506
58.80000 113.393
58.84000 123.287
58.88000 123.550
58.92000 113.328
58.96000 117.224
59.00000 113.997
59.04000 111.076
59.08000 125.624
59.12000 118.046
59.16000 111.156
59.20000 123.199
59.24000 117.739
59.28000 119.828
59.32000 114.082
59.36000 120.022
59.40000 118.930
59.44000 124.513
59.48000 110.801
59.52000 115.650
59.56000 117.032
59.60000 123.014
59.64000 115.118
59.68000 115.761
59.72000 121.927
59.76000 115.960
59.80000 119.892
59.84000 124.274
59.88000 114.231
59.92000 120.146
59.96000 113.523
60.00000 112.740
60.04000 116.918
60.08000 111.144
60.12000 118.021
60.16000 123.598
60.20000 120.976
60.24000 119.692
60.28000 114.299
60.32000 116.058
60.36000 117.310
60.40000 118.653
60.44000 107.194
60.48000 116.572
60.52000 123.461
60.56000 114.186
60.60000 111.779
60.64000 117.385
60.68000 122.560
60.72000 116.857
60.76000 117.141
60.80000 117.650
60.84000 109.571
60.88000 115.291
60.92000 116.086
60.96000 131.634
61.00000 113.190
61.04000 117.202
61.08000 121.637
61.12000 124.295
61.16000 118.733
61.20000 119.773
61.24000 123.411
61.28000 125.483
61.32000 115.778
61.36000 125.539
61.40000 125.262
61.44000 126.763
61.48000 139.878
61.52000 161.383
61.56000 204.795
61.60000 243.992
61.64000 276.189
61.68000 306.738
61.72000 309.488
61.76000 288.478
61.80000 209.684
61.84000 158.692
61.88000 149.768
61.92000 131.381
61.96000 136.385
62.00000 123.898
62.04000 125.096
62.08000 128.585
62.12000 129.764
62.16000 119.872
62.20000 125.647
62.24000 125.584
62.28000 124.795
62.32000 127.268
62.36000 123.628
62.40000 120.719
62.44000 136.213
62.48000 128.110
62.52000 125.145
62.56000 119.222
62.60000 125.775
62.64000 131.276
62.68000 117.873
62.72000 123.329
62.76000 125.693
62.80000 127.169
62.84000 131.814
62.88000 141.385
62.92000 125.227
62.96000 121.281
63.00000 125.257
63.04000 131.240
63.08000 137.294
63.12000 129.679
63.16000 132.747
63.20000 128.289
63.24000 128.985
63.28000 130.390
63.32000 121.411
63.36000 130.902
63.40000 122.907
63.44000 128.332
63.48000 140.914
63.52000 151.140
63.56000 133.259
63.60000 129.012
63.64000 137.082
63.68000 142.273
63.72000 131.364
63.76000 136.830
63.80000 132.930
63.84000 147.005
63.88000 136.469
63.92000 135.151
63.96000 139.701
64.00000 146.972
64.04000 143.717
64.08000 136.434
64.12000 134.956
64.16000 151.963
64.20000 148.205
64.24000 146.614
64.28000 144.223
64.32000 144.795
64.36000 154.253
64.40000 144.638
64.44000 154.393
64.48000 157.029
64.52000 159.202
64.56000 154.942
64.60000 151.333
64.64000 155.398
64.68000 154.785
64.72000 167.217
64.76000 166.317
64.80000 179.095
64.84000 178.530
64.88000 179.266
64.92000 185.962
64.96000 188.931
65.00000 207.001
65.04000 199.713
65.08000 212.345
65.12000 215.585
65.16000 214.114
65.20000 228.021
65.24000 246.262
65.28000 244.875
65.32000 267.850
65.36000 267.760
65.40000 276.852
65.44000 299.663
65.48000 327.097
65.52000 325.556
65.56000 363.325
65.60000 375.386
65.64000 460.727
65.68000 603.533
65.72000 963.849
65.76000 1482.073
65.80000 1898.908
65.84000 2046.560
65.88000 2060.188
65.92000 1932.291
65.96000 1567.125
66.00000 1074.310
66.04000 671.455
66.08000 477.002
66.12000 400.968
66.16000 380.649
66.20000 387.206
66.24000 397.747
66.28000 470.753
66.32000 552.830
66.36000 626.051
66.40000 661.751
66.44000 628.007
66.48000 625.690
66.52000 525.330
66.56000 454.709
66.60000 406.910
66.64000 385.872
66.68000 368.090
66.72000 338.729
66.76000 341.464
66.80000 364.767
66.84000 346.913
66.88000 358.351
66.92000 363.136
66.96000 364.075
67.00000 372.572
67.04000 383.042
67.08000 357.250
67.12000 373.359
67.16000 387.483
67.20000 387.715
67.24000 382.244
67.28000 386.244
67.32000 422.866
67.36000 390.226
67.40000 406.007
67.44000 407.136
67.48000 420.844
67.52000 419.708
67.56000 443.647
67.60000 430.169
67.64000 434.062
67.68000 458.552
67.72000 452.880
67.76000 469.691
67.80000 447.179
67.84000 471.126
67.88000 457.273
67.92000 483.616
67.96000 494.070
68.00000 504.047
68.04000 516.302
68.08000 517.536
68.12000 537.416
68.16000 556.312
68.20000 546.089
68.24000 554.373
68.28000 593.263
68.32000 592.346
68.36000 626.324
68.40000 644.122
68.44000 640.773
68.48000 690.711
68.52000 726.500
68.56000 743.893
68.60000 879.855
68.64000 964.115
68.68000 1126.284
68.72000 1320.258
68.76000 1496.009
68.80000 1649.781
68.84000 1940.643
68.88000 2403.981
68.92000 3713.686
68.96000 10473.395
69.00000 23373.270
69.04000 36360.852
69.08000 43178.836
69.12000 46040.176
69.16000 48858.328
69.20000 48059.660
69.24000 38030.047
69.28000 28439.951
69.32000 23469.311
69.36000 21813.900
69.40000 17761.193
69.44000 10916.659
69.48000 4929.759
69.52000 2151.055
69.56000 1339.464
69.60000 1064.097
69.64000 883.663
69.68000 805.398
69.72000 724.646
69.76000 663.711
69.80000 613.241
69.84000 604.829
69.88000 572.564
69.92000 551.195
69.96000 515.527
70.00000 504.928