File: XRD/07-10-2025 Dep 6/XY Data/BTO_Mapping_Theta2Theta_07-10-2025_001_17_12-361_38-042.xy
20.00000 485.033
20.04000 461.580
20.08000 477.232
20.12000 469.086
20.16000 487.756
20.20000 457.437
20.24000 449.225
20.28000 471.649
20.32000 473.159
20.36000 474.203
20.40000 469.337
20.44000 470.316
20.48000 473.063
20.52000 462.925
20.56000 462.059
20.60000 468.274
20.64000 456.322
20.68000 474.535
20.72000 457.607
20.76000 464.765
20.80000 467.509
20.84000 462.815
20.88000 464.239
20.92000 464.390
20.96000 468.674
21.00000 467.865
21.04000 441.625
21.08000 458.160
21.12000 464.453
21.16000 441.165
21.20000 447.834
21.24000 466.542
21.28000 477.012
21.32000 464.687
21.36000 459.182
21.40000 456.611
21.44000 474.480
21.48000 457.102
21.52000 454.555
21.56000 477.074
21.60000 463.197
21.64000 465.979
21.68000 466.445
21.72000 458.965
21.76000 477.647
21.80000 460.793
21.84000 470.738
21.88000 469.696
21.92000 465.732
21.96000 499.451
22.00000 483.950
22.04000 495.116
22.08000 493.178
22.12000 498.250
22.16000 478.481
22.20000 483.539
22.24000 489.824
22.28000 483.231
22.32000 467.566
22.36000 474.537
22.40000 466.779
22.44000 441.449
22.48000 431.892
22.52000 443.732
22.56000 434.135
22.60000 443.155
22.64000 431.612
22.68000 460.959
22.72000 441.852
22.76000 449.194
22.80000 435.674
22.84000 431.789
22.88000 434.469
22.92000 432.895
22.96000 437.171
23.00000 426.511
23.04000 438.883
23.08000 424.507
23.12000 431.101
23.16000 434.815
23.20000 422.637
23.24000 441.562
23.28000 440.088
23.32000 442.060
23.36000 441.099
23.40000 431.444
23.44000 434.401
23.48000 428.115
23.52000 445.324
23.56000 444.135
23.60000 450.851
23.64000 450.689
23.68000 460.789
23.72000 463.834
23.76000 473.954
23.80000 469.090
23.84000 484.467
23.88000 475.358
23.92000 503.415
23.96000 479.276
24.00000 499.619
24.04000 485.459
24.08000 475.053
24.12000 477.311
24.16000 453.104
24.20000 466.534
24.24000 445.335
24.28000 452.612
24.32000 438.045
24.36000 430.053
24.40000 411.822
24.44000 404.004
24.48000 433.987
24.52000 405.422
24.56000 421.694
24.60000 421.972
24.64000 411.912
24.68000 428.576
24.72000 413.484
24.76000 406.262
24.80000 408.634
24.84000 402.525
24.88000 434.508
24.92000 414.873
24.96000 414.631
25.00000 412.208
25.04000 412.198
25.08000 401.422
25.12000 396.585
25.16000 398.283
25.20000 394.437
25.24000 392.012
25.28000 398.637
25.32000 399.515
25.36000 398.067
25.40000 396.550
25.44000 393.795
25.48000 390.319
25.52000 383.532
25.56000 407.450
25.60000 397.084
25.64000 395.525
25.68000 399.965
25.72000 389.263
25.76000 382.945
25.80000 382.069
25.84000 386.342
25.88000 399.287
25.92000 381.841
25.96000 382.559
26.00000 383.229
26.04000 373.647
26.08000 373.730
26.12000 404.272
26.16000 386.105
26.20000 389.715
26.24000 362.506
26.28000 388.649
26.32000 365.087
26.36000 395.653
26.40000 386.472
26.44000 381.256
26.48000 374.153
26.52000 380.306
26.56000 394.691
26.60000 378.415
26.64000 389.483
26.68000 376.313
26.72000 380.828
26.76000 391.260
26.80000 376.388
26.84000 360.893
26.88000 382.517
26.92000 380.594
26.96000 363.724
27.00000 376.507
27.04000 389.498
27.08000 382.652
27.12000 388.599
27.16000 382.296
27.20000 371.542
27.24000 378.386
27.28000 366.798
27.32000 372.167
27.36000 370.239
27.40000 372.867
27.44000 366.631
27.48000 386.130
27.52000 356.553
27.56000 367.269
27.60000 372.897
27.64000 366.207
27.68000 374.411
27.72000 364.332
27.76000 384.389
27.80000 364.043
27.84000 364.651
27.88000 379.706
27.92000 368.239
27.96000 384.375
28.00000 364.538
28.04000 368.291
28.08000 360.099
28.12000 360.201
28.16000 359.762
28.20000 380.493
28.24000 376.180
28.28000 347.435
28.32000 357.634
28.36000 356.025
28.40000 365.402
28.44000 354.559
28.48000 370.627
28.52000 352.776
28.56000 365.900
28.60000 384.076
28.64000 375.669
28.68000 375.831
28.72000 379.652
28.76000 364.685
28.80000 344.171
28.84000 383.111
28.88000 369.312
28.92000 375.245
28.96000 357.528
29.00000 365.293
29.04000 364.290
29.08000 358.217
29.12000 368.543
29.16000 359.048
29.20000 351.523
29.24000 332.039
29.28000 373.513
29.32000 362.431
29.36000 345.931
29.40000 353.916
29.44000 360.521
29.48000 360.979
29.52000 364.024
29.56000 364.370
29.60000 359.543
29.64000 372.796
29.68000 361.121
29.72000 358.725
29.76000 349.641
29.80000 377.022
29.84000 367.919
29.88000 373.528
29.92000 380.594
29.96000 388.730
30.00000 373.326
30.04000 373.766
30.08000 365.658
30.12000 368.038
30.16000 385.850
30.20000 387.623
30.24000 362.450
30.28000 376.091
30.32000 358.892
30.36000 370.011
30.40000 363.310
30.44000 351.484
30.48000 363.802
30.52000 362.845
30.56000 357.256
30.60000 367.299
30.64000 370.776
30.68000 364.268
30.72000 380.742
30.76000 368.328
30.80000 376.011
30.84000 384.868
30.88000 411.175
30.92000 426.298
30.96000 421.376
31.00000 448.010
31.04000 453.485
31.08000 516.855
31.12000 565.530
31.16000 610.138
31.20000 678.231
31.24000 781.334
31.28000 850.361
31.32000 927.507
31.36000 970.887
31.40000 972.559
31.44000 956.802
31.48000 903.127
31.52000 823.245
31.56000 735.026
31.60000 641.731
31.64000 574.725
31.68000 518.562
31.72000 489.750
31.76000 434.845
31.80000 431.314
31.84000 412.288
31.88000 399.295
31.92000 391.643
31.96000 363.496
32.00000 371.798
32.04000 383.983
32.08000 379.106
32.12000 367.068
32.16000 352.199
32.20000 347.671
32.24000 343.970
32.28000 342.925
32.32000 339.284
32.36000 347.690
32.40000 331.932
32.44000 319.188
32.48000 324.858
32.52000 328.037
32.56000 308.233
32.60000 328.780
32.64000 319.970
32.68000 316.241
32.72000 318.172
32.76000 319.868
32.80000 333.224
32.84000 388.414
32.88000 447.960
32.92000 502.955
32.96000 535.689
33.00000 541.071
33.04000 536.717
33.08000 458.078
33.12000 386.187
33.16000 337.844
33.20000 294.455
33.24000 292.231
33.28000 300.383
33.32000 296.379
33.36000 302.920
33.40000 312.624
33.44000 303.381
33.48000 295.332
33.52000 275.045
33.56000 294.298
33.60000 295.606
33.64000 294.511
33.68000 285.038
33.72000 291.268
33.76000 294.257
33.80000 310.916
33.84000 297.476
33.88000 299.027
33.92000 282.853
33.96000 307.454
34.00000 313.569
34.04000 311.128
34.08000 303.548
34.12000 301.721
34.16000 298.887
34.20000 300.576
34.24000 309.023
34.28000 318.985
34.32000 306.189
34.36000 313.896
34.40000 316.898
34.44000 304.045
34.48000 309.097
34.52000 308.555
34.56000 304.275
34.60000 297.810
34.64000 306.668
34.68000 286.012
34.72000 283.102
34.76000 292.494
34.80000 291.752
34.84000 270.372
34.88000 280.353
34.92000 259.135
34.96000 266.715
35.00000 278.473
35.04000 270.003
35.08000 274.724
35.12000 279.601
35.16000 264.490
35.20000 276.140
35.24000 272.525
35.28000 252.374
35.32000 267.626
35.36000 272.315
35.40000 266.475
35.44000 272.570
35.48000 267.074
35.52000 263.047
35.56000 264.849
35.60000 259.726
35.64000 262.358
35.68000 274.310
35.72000 248.082
35.76000 257.310
35.80000 258.750
35.84000 268.810
35.88000 270.986
35.92000 258.663
35.96000 260.992
36.00000 251.545
36.04000 260.092
36.08000 252.102
36.12000 262.334
36.16000 248.388
36.20000 247.011
36.24000 255.795
36.28000 252.850
36.32000 245.746
36.36000 258.602
36.40000 259.632
36.44000 247.009
36.48000 247.131
36.52000 266.068
36.56000 244.685
36.60000 248.218
36.64000 265.763
36.68000 247.661
36.72000 259.479
36.76000 244.781
36.80000 257.634
36.84000 253.061
36.88000 247.135
36.92000 242.232
36.96000 271.176
37.00000 266.346
37.04000 248.696
37.08000 251.032
37.12000 251.960
37.16000 251.838
37.20000 253.816
37.24000 269.076
37.28000 241.282
37.32000 251.594
37.36000 254.930
37.40000 264.055
37.44000 245.144
37.48000 245.099
37.52000 244.788
37.56000 255.897
37.60000 248.777
37.64000 250.607
37.68000 243.103
37.72000 242.500
37.76000 250.284
37.80000 245.802
37.84000 261.986
37.88000 251.533
37.92000 256.242
37.96000 266.598
38.00000 247.751
38.04000 245.527
38.08000 258.975
38.12000 261.709
38.16000 249.163
38.20000 273.908
38.24000 258.228
38.28000 267.412
38.32000 265.310
38.36000 291.747
38.40000 302.027
38.44000 330.145
38.48000 330.485
38.52000 383.262
38.56000 427.087
38.60000 500.209
38.64000 548.042
38.68000 582.031
38.72000 562.967
38.76000 548.203
38.80000 521.974
38.84000 476.019
38.88000 411.027
38.92000 353.568
38.96000 334.520
39.00000 306.556
39.04000 276.297
39.08000 260.071
39.12000 258.325
39.16000 257.879
39.20000 268.633
39.24000 248.355
39.28000 244.540
39.32000 241.431
39.36000 235.668
39.40000 238.485
39.44000 235.816
39.48000 229.649
39.52000 230.643
39.56000 236.749
39.60000 239.810
39.64000 221.357
39.68000 227.337
39.72000 225.209
39.76000 227.211
39.80000 226.718
39.84000 218.845
39.88000 227.355
39.92000 226.948
39.96000 221.698
40.00000 225.853
40.04000 216.860
40.08000 218.391
40.12000 232.489
40.16000 215.570
40.20000 219.289
40.24000 227.181
40.28000 220.409
40.32000 231.070
40.36000 214.294
40.40000 214.562
40.44000 222.023
40.48000 203.059
40.52000 213.113
40.56000 220.418
40.60000 210.005
40.64000 222.543
40.68000 216.236
40.72000 213.020
40.76000 205.949
40.80000 213.478
40.84000 214.265
40.88000 220.255
40.92000 210.651
40.96000 200.170
41.00000 214.091
41.04000 221.756
41.08000 209.469
41.12000 201.982
41.16000 216.682
41.20000 207.020
41.24000 214.541
41.28000 220.576
41.32000 221.383
41.36000 223.449
41.40000 194.511
41.44000 196.172
41.48000 203.568
41.52000 212.920
41.56000 216.069
41.60000 203.481
41.64000 201.758
41.68000 214.958
41.72000 204.812
41.76000 215.300
41.80000 202.587
41.84000 208.881
41.88000 205.649
41.92000 214.003
41.96000 208.210
42.00000 211.953
42.04000 210.824
42.08000 217.378
42.12000 204.337
42.16000 219.965
42.20000 212.423
42.24000 217.386
42.28000 205.420
42.32000 198.714
42.36000 210.967
42.40000 199.202
42.44000 211.260
42.48000 201.392
42.52000 190.534
42.56000 209.821
42.60000 211.440
42.64000 204.506
42.68000 193.318
42.72000 205.011
42.76000 206.649
42.80000 207.600
42.84000 203.790
42.88000 196.367
42.92000 205.790
42.96000 192.704
43.00000 208.869
43.04000 199.956
43.08000 205.913
43.12000 199.564
43.16000 194.411
43.20000 189.998
43.24000 202.075
43.28000 191.237
43.32000 200.999
43.36000 203.137
43.40000 193.910
43.44000 187.561
43.48000 199.896
43.52000 196.031
43.56000 189.121
43.60000 198.844
43.64000 203.502
43.68000 180.277
43.72000 181.234
43.76000 199.660
43.80000 196.530
43.84000 194.500
43.88000 193.726
43.92000 191.901
43.96000 191.479
44.00000 186.057
44.04000 191.309
44.08000 181.092
44.12000 187.513
44.16000 187.983
44.20000 186.629
44.24000 193.132
44.28000 195.412
44.32000 198.503
44.36000 194.094
44.40000 201.942
44.44000 187.037
44.48000 198.158
44.52000 201.213
44.56000 201.052
44.60000 200.982
44.64000 202.625
44.68000 201.952
44.72000 210.205
44.76000 213.723
44.80000 208.686
44.84000 216.404
44.88000 202.438
44.92000 204.323
44.96000 210.666
45.00000 217.569
45.04000 221.267
45.08000 224.894
45.12000 216.265
45.16000 208.627
45.20000 210.213
45.24000 224.354
45.28000 216.278
45.32000 201.841
45.36000 209.985
45.40000 207.792
45.44000 198.454
45.48000 192.020
45.52000 190.596
45.56000 195.728
45.60000 187.106
45.64000 185.523
45.68000 190.922
45.72000 186.893
45.76000 192.858
45.80000 166.484
45.84000 172.010
45.88000 185.729
45.92000 184.104
45.96000 180.656
46.00000 173.971
46.04000 177.694
46.08000 163.827
46.12000 168.965
46.16000 164.419
46.20000 172.156
46.24000 181.882
46.28000 166.803
46.32000 166.959
46.36000 182.358
46.40000 172.536
46.44000 172.736
46.48000 169.388
46.52000 177.378
46.56000 164.577
46.60000 179.798
46.64000 174.367
46.68000 169.642
46.72000 188.764
46.76000 177.554
46.80000 186.453
46.84000 179.591
46.88000 171.408
46.92000 164.998
46.96000 174.897
47.00000 163.377
47.04000 167.342
47.08000 178.186
47.12000 174.326
47.16000 168.456
47.20000 171.650
47.24000 165.192
47.28000 169.773
47.32000 161.615
47.36000 165.255
47.40000 163.244
47.44000 156.132
47.48000 166.263
47.52000 165.748
47.56000 164.701
47.60000 167.919
47.64000 165.026
47.68000 161.940
47.72000 166.063
47.76000 167.965
47.80000 153.582
47.84000 173.158
47.88000 165.789
47.92000 158.790
47.96000 155.115
48.00000 152.164
48.04000 171.747
48.08000 165.616
48.12000 172.117
48.16000 149.289
48.20000 159.889
48.24000 159.296
48.28000 155.928
48.32000 153.320
48.36000 164.784
48.40000 157.505
48.44000 144.204
48.48000 164.778
48.52000 152.030
48.56000 153.892
48.60000 153.434
48.64000 172.025
48.68000 149.325
48.72000 155.191
48.76000 147.555
48.80000 158.269
48.84000 154.108
48.88000 159.132
48.92000 165.081
48.96000 151.409
49.00000 157.580
49.04000 146.957
49.08000 149.163
49.12000 148.893
49.16000 144.648
49.20000 149.925
49.24000 155.503
49.28000 177.036
49.32000 152.572
49.36000 150.060
49.40000 147.280
49.44000 153.974
49.48000 164.274
49.52000 160.287
49.56000 152.096
49.60000 153.564
49.64000 146.948
49.68000 146.386
49.72000 162.926
49.76000 156.999
49.80000 158.741
49.84000 157.208
49.88000 159.676
49.92000 163.830
49.96000 142.290
50.00000 144.962
50.04000 153.397
50.08000 155.875
50.12000 147.090
50.16000 149.403
50.20000 159.192
50.24000 158.875
50.28000 149.529
50.32000 159.807
50.36000 157.421
50.40000 160.754
50.44000 161.956
50.48000 153.857
50.52000 157.875
50.56000 174.077
50.60000 174.860
50.64000 165.902
50.68000 167.258
50.72000 162.355
50.76000 164.342
50.80000 164.750
50.84000 170.362
50.88000 161.756
50.92000 166.241
50.96000 156.025
51.00000 157.019
51.04000 158.850
51.08000 142.770
51.12000 144.906
51.16000 136.145
51.20000 144.528
51.24000 145.837
51.28000 153.465
51.32000 143.094
51.36000 146.434
51.40000 142.546
51.44000 145.754
51.48000 138.346
51.52000 136.675
51.56000 137.324
51.60000 150.726
51.64000 147.025
51.68000 158.379
51.72000 147.056
51.76000 156.287
51.80000 146.931
51.84000 149.882
51.88000 139.067
51.92000 133.193
51.96000 134.228
52.00000 138.862
52.04000 137.681
52.08000 149.882
52.12000 137.820
52.16000 146.546
52.20000 139.388
52.24000 139.121
52.28000 137.604
52.32000 131.716
52.36000 139.222
52.40000 123.940
52.44000 137.498
52.48000 139.104
52.52000 132.397
52.56000 132.509
52.60000 135.051
52.64000 145.992
52.68000 135.062
52.72000 140.539
52.76000 134.058
52.80000 150.858
52.84000 130.795
52.88000 139.956
52.92000 137.465
52.96000 141.349
53.00000 136.965
53.04000 139.974
53.08000 140.560
53.12000 137.054
53.16000 143.987
53.20000 150.783
53.24000 139.351
53.28000 142.140
53.32000 138.000
53.36000 140.748
53.40000 136.562
53.44000 139.546
53.48000 141.303
53.52000 144.405
53.56000 137.924
53.60000 142.424
53.64000 138.282
53.68000 131.235
53.72000 133.679
53.76000 138.050
53.80000 134.484
53.84000 130.644
53.88000 130.935
53.92000 128.640
53.96000 132.795
54.00000 147.594
54.04000 147.550
54.08000 139.728
54.12000 130.875
54.16000 141.330
54.20000 138.479
54.24000 140.261
54.28000 142.519
54.32000 133.913
54.36000 135.757
54.40000 134.470
54.44000 143.163
54.48000 141.424
54.52000 134.106
54.56000 130.084
54.60000 140.730
54.64000 141.451
54.68000 130.586
54.72000 129.040
54.76000 137.995
54.80000 151.367
54.84000 130.366
54.88000 137.289
54.92000 137.869
54.96000 135.656
55.00000 137.826
55.04000 139.400
55.08000 147.433
55.12000 132.102
55.16000 150.593
55.20000 148.183
55.24000 152.092
55.28000 137.702
55.32000 157.474
55.36000 148.493
55.40000 155.606
55.44000 158.374
55.48000 162.357
55.52000 162.577
55.56000 171.070
55.60000 185.797
55.64000 197.226
55.68000 201.791
55.72000 217.129
55.76000 235.329
55.80000 251.285
55.84000 260.911
55.88000 268.438
55.92000 253.949
55.96000 274.577
56.00000 270.727
56.04000 250.196
56.08000 248.359
56.12000 231.885
56.16000 223.471
56.20000 211.122
56.24000 193.755
56.28000 193.594
56.32000 181.727
56.36000 172.456
56.40000 168.500
56.44000 158.662
56.48000 150.258
56.52000 145.497
56.56000 143.037
56.60000 138.884
56.64000 138.052
56.68000 128.810
56.72000 140.535
56.76000 144.807
56.80000 132.561
56.84000 142.347
56.88000 127.412
56.92000 136.178
56.96000 135.816
57.00000 135.984
57.04000 131.230
57.08000 130.519
57.12000 120.330
57.16000 131.220
57.20000 126.249
57.24000 127.176
57.28000 125.702
57.32000 119.557
57.36000 131.553
57.40000 123.041
57.44000 118.581
57.48000 124.178
57.52000 124.362
57.56000 127.470
57.60000 119.809
57.64000 115.941
57.68000 122.046
57.72000 125.610
57.76000 126.733
57.80000 120.442
57.84000 122.533
57.88000 124.231
57.92000 125.410
57.96000 121.454
58.00000 118.320
58.04000 120.726
58.08000 120.120
58.12000 117.475
58.16000 121.377
58.20000 124.275
58.24000 117.335
58.28000 117.851
58.32000 119.654
58.36000 118.272
58.40000 120.994
58.44000 106.212
58.48000 114.067
58.52000 115.073
58.56000 124.686
58.60000 114.891
58.64000 121.147
58.68000 115.179
58.72000 120.050
58.76000 116.801
58.80000 128.213
58.84000 120.683
58.88000 122.313
58.92000 127.491
58.96000 114.549
59.00000 121.013
59.04000 126.544
59.08000 118.666
59.12000 119.872
59.16000 115.717
59.20000 113.308
59.24000 113.531
59.28000 118.729
59.32000 121.220
59.36000 113.153
59.40000 111.598
59.44000 117.120
59.48000 105.309
59.52000 119.113
59.56000 122.822
59.60000 114.736
59.64000 123.786
59.68000 118.550
59.72000 110.692
59.76000 113.466
59.80000 119.405
59.84000 117.894
59.88000 113.637
59.92000 121.113
59.96000 108.992
60.00000 118.430
60.04000 113.956
60.08000 125.373
60.12000 113.248
60.16000 119.298
60.20000 118.391
60.24000 119.890
60.28000 116.757
60.32000 112.041
60.36000 106.252
60.40000 122.752
60.44000 116.833
60.48000 122.416
60.52000 123.230
60.56000 120.501
60.60000 109.337
60.64000 111.874
60.68000 117.475
60.72000 122.234
60.76000 116.360
60.80000 107.980
60.84000 121.724
60.88000 115.566
60.92000 124.733
60.96000 108.866
61.00000 117.573
61.04000 123.236
61.08000 129.260
61.12000 128.529
61.16000 124.550
61.20000 118.555
61.24000 131.899
61.28000 120.215
61.32000 127.213
61.36000 125.023
61.40000 121.726
61.44000 127.252
61.48000 138.480
61.52000 152.321
61.56000 201.551
61.60000 246.265
61.64000 284.686
61.68000 304.267
61.72000 305.396
61.76000 272.500
61.80000 229.165
61.84000 183.463
61.88000 139.883
61.92000 141.932
61.96000 136.829
62.00000 130.093
62.04000 131.031
62.08000 137.027
62.12000 128.983
62.16000 124.234
62.20000 127.973
62.24000 127.850
62.28000 119.869
62.32000 130.021
62.36000 124.774
62.40000 120.082
62.44000 132.056
62.48000 131.280
62.52000 136.271
62.56000 145.262
62.60000 131.085
62.64000 135.753
62.68000 126.585
62.72000 129.200
62.76000 135.600
62.80000 128.299
62.84000 127.537
62.88000 128.043
62.92000 134.928
62.96000 136.111
63.00000 123.257
63.04000 136.836
63.08000 137.622
63.12000 123.485
63.16000 133.938
63.20000 138.272
63.24000 128.630
63.28000 131.785
63.32000 140.581
63.36000 135.755
63.40000 129.792
63.44000 128.669
63.48000 136.099
63.52000 128.669
63.56000 133.651
63.60000 134.415
63.64000 133.447
63.68000 129.380
63.72000 142.593
63.76000 139.293
63.80000 146.166
63.84000 153.829
63.88000 147.881
63.92000 140.048
63.96000 150.644
64.00000 151.540
64.04000 139.776
64.08000 150.162
64.12000 157.459
64.16000 161.200
64.20000 166.144
64.24000 158.989
64.28000 149.795
64.32000 158.731
64.36000 168.915
64.40000 157.210
64.44000 148.980
64.48000 166.954
64.52000 156.600
64.56000 171.330
64.60000 163.609
64.64000 169.765
64.68000 168.295
64.72000 159.823
64.76000 174.744
64.80000 178.591
64.84000 176.302
64.88000 183.245
64.92000 180.644
64.96000 186.762
65.00000 188.034
65.04000 198.401
65.08000 201.341
65.12000 189.282
65.16000 215.330
65.20000 210.286
65.24000 213.107
65.28000 216.653
65.32000 242.264
65.36000 233.127
65.40000 253.261
65.44000 255.887
65.48000 269.433
65.52000 294.846
65.56000 305.844
65.60000 358.289
65.64000 393.685
65.68000 545.808
65.72000 865.950
65.76000 1372.160
65.80000 1819.749
65.84000 2041.236
65.88000 2032.281
65.92000 1880.666
65.96000 1582.385
66.00000 1099.486
66.04000 659.237
66.08000 488.983
66.12000 380.875
66.16000 377.888
66.20000 354.569
66.24000 401.923
66.28000 464.124
66.32000 540.458
66.36000 605.477
66.40000 652.244
66.44000 655.602
66.48000 618.107
66.52000 547.117
66.56000 472.817
66.60000 387.379
66.64000 361.676
66.68000 351.891
66.72000 355.622
66.76000 354.972
66.80000 368.522
66.84000 363.814
66.88000 370.933
66.92000 377.271
66.96000 372.358
67.00000 381.457
67.04000 384.620
67.08000 404.538
67.12000 395.162
67.16000 408.372
67.20000 389.185
67.24000 404.613
67.28000 415.097
67.32000 428.793
67.36000 406.824
67.40000 413.260
67.44000 400.647
67.48000 431.061
67.52000 444.941
67.56000 443.405
67.60000 446.511
67.64000 459.747
67.68000 458.640
67.72000 469.684
67.76000 466.478
67.80000 481.221
67.84000 495.784
67.88000 482.698
67.92000 514.867
67.96000 508.151
68.00000 515.273
68.04000 525.714
68.08000 563.485
68.12000 551.335
68.16000 561.937
68.20000 563.392
68.24000 580.627
68.28000 586.662
68.32000 618.091
68.36000 625.141
68.40000 636.399
68.44000 653.630
68.48000 688.200
68.52000 705.295
68.56000 794.353
68.60000 817.179
68.64000 984.495
68.68000 1154.232
68.72000 1357.581
68.76000 1524.886
68.80000 1684.237
68.84000 1885.481
68.88000 2350.078
68.92000 3410.549
68.96000 9147.328
69.00000 21450.682
69.04000 34478.824
69.08000 41757.797
69.12000 44691.004
69.16000 47633.895
69.20000 47546.949
69.24000 38708.824
69.28000 28329.135
69.32000 23155.367
69.36000 21504.551
69.40000 18319.920
69.44000 11585.986
69.48000 5154.998
69.52000 2301.154
69.56000 1434.508
69.60000 1125.357
69.64000 933.624
69.68000 842.351
69.72000 744.866
69.76000 697.185
69.80000 647.352
69.84000 610.648
69.88000 584.426
69.92000 550.513
69.96000 510.233
70.00000 493.489