File: XRD/07-10-2025 Dep 6/XY Data/BTO_Mapping_Theta2Theta_07-10-2025_001_30_-9-781_2-079.xy
20.00000 468.374
20.04000 474.342
20.08000 467.760
20.12000 468.083
20.16000 476.330
20.20000 445.380
20.24000 458.827
20.28000 476.970
20.32000 459.498
20.36000 464.677
20.40000 473.677
20.44000 459.765
20.48000 455.780
20.52000 452.391
20.56000 476.205
20.60000 455.271
20.64000 461.897
20.68000 473.475
20.72000 459.172
20.76000 457.704
20.80000 457.467
20.84000 459.956
20.88000 468.093
20.92000 467.423
20.96000 442.781
21.00000 449.499
21.04000 472.277
21.08000 461.342
21.12000 457.132
21.16000 470.114
21.20000 456.858
21.24000 465.653
21.28000 458.059
21.32000 464.576
21.36000 447.377
21.40000 449.965
21.44000 477.732
21.48000 455.528
21.52000 466.671
21.56000 468.389
21.60000 458.046
21.64000 475.613
21.68000 462.107
21.72000 460.879
21.76000 475.093
21.80000 468.839
21.84000 494.607
21.88000 523.486
21.92000 517.526
21.96000 534.419
22.00000 539.187
22.04000 556.664
22.08000 544.940
22.12000 532.006
22.16000 532.666
22.20000 526.399
22.24000 510.690
22.28000 518.385
22.32000 500.170
22.36000 477.086
22.40000 468.040
22.44000 482.699
22.48000 462.605
22.52000 446.356
22.56000 438.536
22.60000 434.323
22.64000 442.628
22.68000 443.151
22.72000 437.896
22.76000 444.880
22.80000 450.772
22.84000 439.040
22.88000 435.686
22.92000 442.922
22.96000 427.032
23.00000 422.218
23.04000 436.179
23.08000 415.585
23.12000 429.568
23.16000 438.718
23.20000 438.680
23.24000 429.428
23.28000 444.548
23.32000 421.546
23.36000 432.916
23.40000 426.641
23.44000 428.758
23.48000 422.027
23.52000 416.604
23.56000 408.462
23.60000 416.239
23.64000 438.814
23.68000 429.744
23.72000 443.251
23.76000 434.372
23.80000 445.388
23.84000 452.135
23.88000 462.302
23.92000 458.177
23.96000 457.220
24.00000 483.977
24.04000 473.680
24.08000 449.152
24.12000 449.961
24.16000 470.661
24.20000 430.868
24.24000 425.081
24.28000 416.287
24.32000 413.587
24.36000 425.238
24.40000 405.072
24.44000 411.820
24.48000 410.795
24.52000 409.002
24.56000 395.494
24.60000 405.272
24.64000 406.581
24.68000 394.866
24.72000 408.347
24.76000 399.922
24.80000 408.931
24.84000 401.464
24.88000 414.343
24.92000 406.143
24.96000 397.966
25.00000 413.161
25.04000 392.361
25.08000 404.148
25.12000 400.875
25.16000 399.954
25.20000 395.760
25.24000 386.363
25.28000 386.232
25.32000 387.921
25.36000 399.113
25.40000 394.312
25.44000 401.318
25.48000 376.799
25.52000 385.913
25.56000 393.531
25.60000 391.908
25.64000 384.214
25.68000 400.861
25.72000 384.763
25.76000 386.281
25.80000 393.307
25.84000 392.476
25.88000 385.344
25.92000 394.507
25.96000 383.104
26.00000 386.552
26.04000 389.859
26.08000 379.009
26.12000 381.787
26.16000 373.289
26.20000 385.415
26.24000 368.654
26.28000 388.245
26.32000 368.962
26.36000 379.933
26.40000 381.297
26.44000 398.799
26.48000 387.665
26.52000 376.246
26.56000 369.247
26.60000 380.853
26.64000 395.259
26.68000 382.647
26.72000 372.280
26.76000 380.314
26.80000 381.652
26.84000 359.330
26.88000 379.386
26.92000 381.178
26.96000 385.435
27.00000 360.965
27.04000 366.971
27.08000 372.328
27.12000 362.367
27.16000 369.109
27.20000 367.690
27.24000 370.495
27.28000 355.961
27.32000 368.450
27.36000 366.599
27.40000 366.684
27.44000 367.328
27.48000 367.216
27.52000 373.839
27.56000 364.819
27.60000 383.797
27.64000 364.883
27.68000 379.132
27.72000 360.159
27.76000 359.269
27.80000 354.108
27.84000 356.580
27.88000 360.831
27.92000 353.285
27.96000 355.458
28.00000 357.081
28.04000 371.011
28.08000 354.893
28.12000 350.955
28.16000 361.582
28.20000 365.811
28.24000 359.512
28.28000 370.063
28.32000 364.492
28.36000 348.360
28.40000 338.513
28.44000 355.806
28.48000 360.767
28.52000 360.156
28.56000 354.318
28.60000 353.806
28.64000 363.655
28.68000 349.477
28.72000 353.864
28.76000 345.010
28.80000 363.223
28.84000 344.865
28.88000 352.780
28.92000 354.923
28.96000 354.892
29.00000 345.594
29.04000 332.377
29.08000 338.935
29.12000 356.730
29.16000 339.697
29.20000 339.620
29.24000 343.179
29.28000 346.934
29.32000 337.300
29.36000 351.286
29.40000 354.417
29.44000 347.560
29.48000 341.411
29.52000 339.146
29.56000 362.577
29.60000 337.507
29.64000 353.640
29.68000 345.126
29.72000 345.964
29.76000 359.576
29.80000 356.974
29.84000 342.520
29.88000 366.990
29.92000 375.705
29.96000 385.147
30.00000 378.397
30.04000 376.147
30.08000 369.789
30.12000 370.638
30.16000 357.281
30.20000 373.453
30.24000 367.692
30.28000 378.730
30.32000 359.657
30.36000 343.489
30.40000 351.868
30.44000 343.814
30.48000 360.312
30.52000 340.096
30.56000 352.840
30.60000 373.008
30.64000 355.901
30.68000 364.541
30.72000 387.072
30.76000 369.086
30.80000 379.989
30.84000 374.930
30.88000 382.239
30.92000 387.077
30.96000 423.372
31.00000 458.575
31.04000 483.420
31.08000 536.703
31.12000 637.703
31.16000 744.196
31.20000 891.164
31.24000 1021.093
31.28000 1132.989
31.32000 1216.496
31.36000 1352.193
31.40000 1290.094
31.44000 1188.570
31.48000 1088.203
31.52000 939.178
31.56000 796.283
31.60000 648.730
31.64000 549.882
31.68000 478.787
31.72000 452.059
31.76000 411.372
31.80000 381.224
31.84000 371.732
31.88000 375.064
31.92000 357.995
31.96000 362.001
32.00000 363.591
32.04000 354.339
32.08000 343.143
32.12000 323.645
32.16000 335.793
32.20000 340.838
32.24000 328.057
32.28000 318.916
32.32000 315.707
32.36000 306.153
32.40000 317.846
32.44000 316.105
32.48000 310.043
32.52000 311.306
32.56000 309.419
32.60000 319.726
32.64000 319.674
32.68000 319.630
32.72000 315.508
32.76000 328.341
32.80000 327.646
32.84000 386.319
32.88000 449.225
32.92000 492.162
32.96000 522.309
33.00000 536.665
33.04000 492.082
33.08000 424.087
33.12000 379.926
33.16000 323.179
33.20000 312.756
33.24000 296.725
33.28000 283.777
33.32000 312.572
33.36000 289.763
33.40000 295.405
33.44000 293.831
33.48000 288.323
33.52000 300.893
33.56000 291.316
33.60000 290.226
33.64000 290.591
33.68000 280.544
33.72000 288.256
33.76000 294.941
33.80000 305.696
33.84000 300.329
33.88000 302.894
33.92000 301.296
33.96000 312.559
34.00000 304.949
34.04000 309.757
34.08000 310.695
34.12000 305.300
34.16000 315.858
34.20000 330.762
34.24000 312.922
34.28000 317.108
34.32000 340.248
34.36000 319.565
34.40000 336.438
34.44000 298.908
34.48000 322.338
34.52000 301.950
34.56000 314.837
34.60000 304.060
34.64000 314.495
34.68000 305.879
34.72000 287.593
34.76000 281.984
34.80000 277.716
34.84000 272.199
34.88000 271.482
34.92000 276.322
34.96000 279.094
35.00000 271.151
35.04000 260.369
35.08000 266.840
35.12000 259.644
35.16000 274.707
35.20000 278.510
35.24000 257.605
35.28000 261.820
35.32000 262.023
35.36000 262.936
35.40000 269.435
35.44000 262.272
35.48000 264.081
35.52000 257.994
35.56000 262.367
35.60000 255.839
35.64000 257.626
35.68000 243.436
35.72000 254.557
35.76000 247.276
35.80000 261.219
35.84000 257.266
35.88000 258.111
35.92000 247.429
35.96000 261.248
36.00000 268.667
36.04000 263.549
36.08000 252.704
36.12000 265.458
36.16000 248.466
36.20000 260.210
36.24000 254.375
36.28000 254.636
36.32000 258.815
36.36000 231.607
36.40000 251.296
36.44000 249.300
36.48000 251.390
36.52000 256.861
36.56000 248.953
36.60000 233.139
36.64000 252.843
36.68000 255.183
36.72000 251.383
36.76000 264.298
36.80000 249.242
36.84000 275.271
36.88000 264.771
36.92000 283.123
36.96000 270.873
37.00000 278.801
37.04000 283.307
37.08000 280.615
37.12000 269.363
37.16000 270.365
37.20000 270.454
37.24000 266.846
37.28000 262.153
37.32000 267.377
37.36000 260.337
37.40000 259.863
37.44000 247.205
37.48000 253.782
37.52000 253.027
37.56000 266.081
37.60000 248.510
37.64000 235.035
37.68000 257.413
37.72000 252.251
37.76000 258.887
37.80000 250.916
37.84000 252.619
37.88000 255.171
37.92000 234.629
37.96000 239.842
38.00000 244.477
38.04000 258.307
38.08000 247.364
38.12000 244.610
38.16000 250.607
38.20000 258.834
38.24000 271.586
38.28000 273.236
38.32000 286.780
38.36000 312.964
38.40000 379.099
38.44000 418.054
38.48000 509.204
38.52000 597.420
38.56000 700.975
38.60000 792.441
38.64000 909.905
38.68000 960.405
38.72000 1032.763
38.76000 1011.843
38.80000 948.879
38.84000 847.625
38.88000 710.430
38.92000 578.023
38.96000 487.845
39.00000 400.505
39.04000 320.890
39.08000 278.625
39.12000 266.898
39.16000 259.557
39.20000 253.729
39.24000 228.090
39.28000 234.095
39.32000 235.536
39.36000 233.850
39.40000 229.873
39.44000 222.637
39.48000 238.067
39.52000 243.445
39.56000 225.339
39.60000 219.572
39.64000 240.561
39.68000 239.507
39.72000 231.279
39.76000 235.630
39.80000 232.290
39.84000 229.725
39.88000 233.002
39.92000 220.783
39.96000 220.520
40.00000 219.251
40.04000 223.382
40.08000 215.914
40.12000 230.759
40.16000 221.520
40.20000 223.782
40.24000 214.775
40.28000 210.379
40.32000 217.784
40.36000 207.637
40.40000 221.618
40.44000 207.509
40.48000 205.993
40.52000 206.737
40.56000 229.128
40.60000 212.954
40.64000 218.505
40.68000 231.722
40.72000 213.763
40.76000 203.290
40.80000 208.716
40.84000 206.270
40.88000 219.765
40.92000 202.370
40.96000 201.139
41.00000 205.946
41.04000 214.312
41.08000 216.278
41.12000 202.487
41.16000 211.125
41.20000 216.886
41.24000 208.301
41.28000 205.787
41.32000 219.981
41.36000 214.934
41.40000 204.117
41.44000 198.147
41.48000 215.931
41.52000 213.890
41.56000 196.103
41.60000 199.844
41.64000 198.676
41.68000 202.518
41.72000 202.014
41.76000 207.799
41.80000 195.899
41.84000 196.563
41.88000 200.968
41.92000 200.007
41.96000 213.900
42.00000 205.233
42.04000 196.870
42.08000 203.209
42.12000 191.857
42.16000 210.092
42.20000 208.884
42.24000 215.652
42.28000 209.351
42.32000 201.242
42.36000 212.146
42.40000 211.887
42.44000 211.615
42.48000 207.371
42.52000 190.701
42.56000 195.431
42.60000 195.666
42.64000 206.638
42.68000 208.613
42.72000 195.712
42.76000 201.485
42.80000 198.857
42.84000 201.914
42.88000 194.832
42.92000 198.180
42.96000 203.083
43.00000 195.670
43.04000 198.001
43.08000 195.013
43.12000 198.788
43.16000 196.765
43.20000 184.700
43.24000 194.870
43.28000 200.232
43.32000 192.007
43.36000 203.061
43.40000 194.911
43.44000 193.761
43.48000 183.212
43.52000 190.870
43.56000 183.486
43.60000 196.750
43.64000 186.242
43.68000 189.204
43.72000 195.117
43.76000 190.602
43.80000 170.186
43.84000 188.281
43.88000 188.805
43.92000 195.471
43.96000 189.223
44.00000 190.796
44.04000 188.567
44.08000 193.057
44.12000 188.171
44.16000 181.881
44.20000 186.106
44.24000 196.322
44.28000 198.909
44.32000 188.303
44.36000 204.393
44.40000 196.894
44.44000 200.125
44.48000 202.316
44.52000 197.396
44.56000 202.790
44.60000 203.594
44.64000 213.149
44.68000 216.616
44.72000 225.829
44.76000 220.846
44.80000 215.173
44.84000 222.780
44.88000 222.489
44.92000 246.748
44.96000 245.900
45.00000 253.352
45.04000 253.039
45.08000 252.656
45.12000 249.639
45.16000 259.381
45.20000 248.348
45.24000 245.212
45.28000 229.332
45.32000 224.578
45.36000 208.533
45.40000 212.596
45.44000 208.404
45.48000 204.530
45.52000 207.300
45.56000 202.379
45.60000 211.695
45.64000 212.497
45.68000 196.866
45.72000 185.029
45.76000 183.172
45.80000 198.915
45.84000 183.131
45.88000 191.247
45.92000 178.427
45.96000 188.819
46.00000 183.077
46.04000 189.937
46.08000 182.159
46.12000 171.688
46.16000 182.068
46.20000 175.834
46.24000 173.940
46.28000 164.276
46.32000 169.118
46.36000 175.837
46.40000 177.025
46.44000 161.556
46.48000 175.518
46.52000 174.846
46.56000 175.370
46.60000 168.665
46.64000 161.007
46.68000 186.414
46.72000 172.145
46.76000 168.941
46.80000 170.910
46.84000 177.657
46.88000 170.706
46.92000 161.260
46.96000 160.182
47.00000 170.480
47.04000 166.670
47.08000 158.951
47.12000 159.386
47.16000 158.767
47.20000 161.646
47.24000 153.061
47.28000 160.956
47.32000 155.657
47.36000 163.915
47.40000 161.379
47.44000 177.149
47.48000 171.249
47.52000 166.282
47.56000 155.300
47.60000 163.118
47.64000 158.506
47.68000 165.702
47.72000 154.570
47.76000 160.163
47.80000 152.701
47.84000 145.165
47.88000 155.075
47.92000 156.723
47.96000 158.010
48.00000 153.812
48.04000 166.442
48.08000 154.450
48.12000 150.758
48.16000 150.308
48.20000 154.741
48.24000 161.151
48.28000 147.253
48.32000 152.741
48.36000 150.298
48.40000 157.182
48.44000 159.109
48.48000 162.028
48.52000 152.319
48.56000 147.723
48.60000 153.437
48.64000 160.620
48.68000 156.806
48.72000 147.019
48.76000 160.238
48.80000 163.478
48.84000 163.599
48.88000 144.082
48.92000 150.541
48.96000 147.952
49.00000 155.380
49.04000 162.342
49.08000 138.430
49.12000 152.994
49.16000 166.031
49.20000 164.224
49.24000 155.679
49.28000 149.008
49.32000 150.652
49.36000 149.833
49.40000 151.623
49.44000 148.385
49.48000 148.744
49.52000 149.286
49.56000 150.139
49.60000 150.771
49.64000 151.258
49.68000 150.828
49.72000 138.991
49.76000 149.698
49.80000 142.650
49.84000 146.195
49.88000 154.695
49.92000 141.658
49.96000 145.319
50.00000 152.908
50.04000 156.514
50.08000 143.891
50.12000 140.752
50.16000 147.671
50.20000 148.813
50.24000 157.333
50.28000 162.049
50.32000 157.745
50.36000 166.747
50.40000 155.913
50.44000 158.686
50.48000 162.216
50.52000 181.819
50.56000 182.811
50.60000 185.991
50.64000 186.512
50.68000 170.841
50.72000 173.112
50.76000 186.729
50.80000 170.678
50.84000 167.284
50.88000 164.369
50.92000 161.324
50.96000 157.999
51.00000 154.092
51.04000 157.943
51.08000 144.122
51.12000 146.579
51.16000 156.693
51.20000 152.426
51.24000 148.457
51.28000 139.750
51.32000 153.782
51.36000 147.511
51.40000 144.226
51.44000 144.029
51.48000 133.185
51.52000 142.316
51.56000 134.928
51.60000 141.421
51.64000 149.066
51.68000 142.235
51.72000 146.426
51.76000 150.583
51.80000 144.554
51.84000 143.533
51.88000 145.473
51.92000 137.905
51.96000 139.781
52.00000 142.643
52.04000 135.121
52.08000 142.776
52.12000 132.842
52.16000 135.088
52.20000 140.587
52.24000 141.221
52.28000 143.087
52.32000 135.328
52.36000 139.082
52.40000 146.918
52.44000 144.478
52.48000 135.151
52.52000 135.514
52.56000 150.898
52.60000 132.113
52.64000 130.192
52.68000 141.283
52.72000 139.153
52.76000 141.752
52.80000 131.104
52.84000 126.934
52.88000 139.532
52.92000 140.168
52.96000 143.081
53.00000 140.818
53.04000 133.533
53.08000 141.908
53.12000 133.319
53.16000 141.500
53.20000 149.480
53.24000 143.335
53.28000 144.494
53.32000 146.673
53.36000 155.786
53.40000 159.311
53.44000 152.891
53.48000 157.464
53.52000 159.966
53.56000 160.220
53.60000 149.610
53.64000 144.843
53.68000 143.897
53.72000 143.682
53.76000 138.198
53.80000 140.034
53.84000 141.511
53.88000 140.157
53.92000 135.227
53.96000 136.331
54.00000 135.726
54.04000 134.114
54.08000 145.665
54.12000 146.211
54.16000 121.534
54.20000 132.560
54.24000 143.077
54.28000 141.810
54.32000 128.195
54.36000 134.527
54.40000 132.707
54.44000 138.851
54.48000 127.223
54.52000 137.872
54.56000 128.413
54.60000 143.610
54.64000 137.572
54.68000 131.628
54.72000 127.452
54.76000 134.846
54.80000 147.601
54.84000 132.745
54.88000 147.354
54.92000 147.118
54.96000 139.505
55.00000 139.896
55.04000 144.199
55.08000 140.647
55.12000 145.581
55.16000 142.338
55.20000 164.020
55.24000 150.845
55.28000 152.922
55.32000 146.686
55.36000 155.907
55.40000 166.970
55.44000 173.370
55.48000 196.838
55.52000 216.224
55.56000 223.744
55.60000 272.541
55.64000 295.389
55.68000 341.468
55.72000 392.083
55.76000 465.097
55.80000 525.684
55.84000 544.765
55.88000 585.133
55.92000 623.256
55.96000 580.393
56.00000 594.245
56.04000 575.958
56.08000 505.779
56.12000 451.273
56.16000 393.724
56.20000 353.069
56.24000 298.492
56.28000 258.594
56.32000 229.908
56.36000 191.680
56.40000 177.054
56.44000 166.611
56.48000 159.743
56.52000 156.113
56.56000 150.810
56.60000 147.799
56.64000 138.383
56.68000 138.337
56.72000 132.943
56.76000 142.617
56.80000 127.710
56.84000 130.991
56.88000 139.985
56.92000 129.083
56.96000 125.600
57.00000 136.780
57.04000 132.011
57.08000 124.425
57.12000 123.406
57.16000 126.809
57.20000 134.136
57.24000 127.622
57.28000 118.267
57.32000 129.840
57.36000 120.632
57.40000 128.125
57.44000 127.265
57.48000 120.266
57.52000 125.314
57.56000 130.080
57.60000 132.929
57.64000 127.571
57.68000 121.468
57.72000 122.859
57.76000 125.059
57.80000 122.876
57.84000 113.122
57.88000 117.662
57.92000 123.100
57.96000 127.182
58.00000 115.984
58.04000 117.950
58.08000 113.691
58.12000 125.334
58.16000 116.583
58.20000 111.925
58.24000 114.693
58.28000 122.588
58.32000 129.388
58.36000 119.276
58.40000 129.985
58.44000 116.371
58.48000 116.251
58.52000 113.904
58.56000 117.556
58.60000 119.260
58.64000 123.462
58.68000 118.169
58.72000 114.062
58.76000 118.081
58.80000 119.458
58.84000 121.897
58.88000 117.518
58.92000 114.231
58.96000 127.028
59.00000 112.170
59.04000 106.339
59.08000 109.790
59.12000 120.606
59.16000 108.410
59.20000 112.244
59.24000 118.116
59.28000 112.953
59.32000 116.969
59.36000 134.291
59.40000 114.823
59.44000 118.465
59.48000 116.683
59.52000 113.889
59.56000 115.064
59.60000 116.939
59.64000 111.165
59.68000 108.206
59.72000 112.888
59.76000 117.413
59.80000 109.242
59.84000 113.384
59.88000 107.761
59.92000 114.876
59.96000 117.671
60.00000 114.694
60.04000 123.005
60.08000 118.791
60.12000 118.066
60.16000 120.172
60.20000 110.620
60.24000 115.779
60.28000 110.756
60.32000 118.650
60.36000 118.826
60.40000 118.843
60.44000 114.950
60.48000 112.964
60.52000 117.813
60.56000 119.217
60.60000 109.457
60.64000 115.029
60.68000 118.202
60.72000 101.941
60.76000 118.296
60.80000 117.640
60.84000 113.508
60.88000 118.189
60.92000 118.245
60.96000 115.268
61.00000 116.139
61.04000 117.552
61.08000 115.841
61.12000 112.886
61.16000 133.189
61.20000 128.319
61.24000 126.166
61.28000 117.995
61.32000 121.565
61.36000 117.933
61.40000 118.668
61.44000 119.853
61.48000 136.740
61.52000 148.416
61.56000 192.509
61.60000 249.917
61.64000 283.048
61.68000 288.646
61.72000 295.402
61.76000 292.911
61.80000 223.526
61.84000 169.408
61.88000 139.417
61.92000 137.545
61.96000 134.611
62.00000 120.984
62.04000 123.682
62.08000 120.709
62.12000 127.482
62.16000 134.857
62.20000 126.156
62.24000 119.987
62.28000 118.065
62.32000 126.494
62.36000 132.398
62.40000 120.566
62.44000 128.687
62.48000 134.538
62.52000 119.231
62.56000 116.096
62.60000 122.553
62.64000 135.560
62.68000 132.586
62.72000 133.772
62.76000 135.846
62.80000 121.530
62.84000 121.965
62.88000 129.284
62.92000 127.673
62.96000 130.127
63.00000 125.424
63.04000 131.673
63.08000 130.058
63.12000 131.753
63.16000 125.718
63.20000 124.698
63.24000 137.388
63.28000 136.349
63.32000 134.272
63.36000 134.003
63.40000 116.451
63.44000 134.650
63.48000 132.847
63.52000 130.305
63.56000 139.336
63.60000 131.491
63.64000 143.225
63.68000 138.816
63.72000 133.688
63.76000 131.724
63.80000 132.777
63.84000 147.821
63.88000 143.098
63.92000 145.111
63.96000 148.512
64.00000 154.705
64.04000 150.372
64.08000 152.247
64.12000 143.640
64.16000 152.755
64.20000 148.590
64.24000 145.862
64.28000 152.826
64.32000 148.842
64.36000 152.884
64.40000 156.908
64.44000 141.550
64.48000 155.812
64.52000 153.015
64.56000 163.119
64.60000 156.162
64.64000 162.811
64.68000 157.174
64.72000 155.881
64.76000 177.359
64.80000 171.334
64.84000 170.138
64.88000 169.396
64.92000 181.628
64.96000 179.084
65.00000 189.142
65.04000 191.965
65.08000 211.402
65.12000 197.425
65.16000 199.465
65.20000 224.553
65.24000 232.245
65.28000 217.749
65.32000 239.990
65.36000 260.717
65.40000 263.877
65.44000 283.791
65.48000 290.695
65.52000 305.284
65.56000 335.915
65.60000 355.694
65.64000 440.545
65.68000 597.394
65.72000 954.149
65.76000 1438.845
65.80000 1791.932
65.84000 1961.006
65.88000 2021.713
65.92000 1907.107
65.96000 1495.829
66.00000 989.263
66.04000 646.290
66.08000 449.085
66.12000 406.753
66.16000 358.641
66.20000 340.116
66.24000 395.776
66.28000 457.296
66.32000 543.888
66.36000 606.910
66.40000 622.235
66.44000 634.073
66.48000 596.212
66.52000 543.070
66.56000 442.407
66.60000 384.128
66.64000 360.871
66.68000 340.075
66.72000 337.971
66.76000 339.604
66.80000 349.883
66.84000 354.729
66.88000 367.876
66.92000 351.689
66.96000 369.103
67.00000 364.744
67.04000 369.957
67.08000 370.171
67.12000 380.738
67.16000 397.648
67.20000 389.919
67.24000 382.284
67.28000 372.909
67.32000 396.277
67.36000 399.130
67.40000 402.513
67.44000 403.012
67.48000 420.060
67.52000 423.728
67.56000 453.698
67.60000 446.851
67.64000 448.754
67.68000 437.611
67.72000 444.792
67.76000 460.278
67.80000 442.856
67.84000 468.194
67.88000 494.647
67.92000 481.876
67.96000 489.184
68.00000 488.190
68.04000 494.996
68.08000 504.955
68.12000 518.086
68.16000 521.465
68.20000 536.108
68.24000 558.989
68.28000 569.325
68.32000 594.408
68.36000 599.562
68.40000 601.248
68.44000 644.128
68.48000 670.404
68.52000 701.557
68.56000 764.786
68.60000 842.448
68.64000 969.966
68.68000 1128.934
68.72000 1301.388
68.76000 1462.830
68.80000 1634.287
68.84000 1861.189
68.88000 2342.197
68.92000 3662.061
68.96000 10331.284
69.00000 23009.865
69.04000 35567.016
69.08000 41973.977
69.12000 44613.598
69.16000 47426.676
69.20000 46193.691
69.24000 36502.680
69.28000 27373.334
69.32000 22661.467
69.36000 21093.055
69.40000 17277.609
69.44000 10316.000
69.48000 4660.365
69.52000 2050.652
69.56000 1332.260
69.60000 1053.292
69.64000 912.599
69.68000 802.038
69.72000 720.178
69.76000 656.937
69.80000 614.502
69.84000 586.886
69.88000 550.983
69.92000 539.019
69.96000 527.623
70.00000 501.552