File: XRD/07-10-2025 Dep 6/XY Data/BTO_Mapping_Theta2Theta_07-10-2025_001_22_-5-000_8-660.xy
20.00000 481.981
20.04000 496.121
20.08000 485.979
20.12000 463.520
20.16000 473.796
20.20000 456.637
20.24000 468.257
20.28000 465.656
20.32000 455.700
20.36000 460.686
20.40000 475.947
20.44000 467.212
20.48000 457.100
20.52000 457.590
20.56000 458.947
20.60000 468.878
20.64000 456.044
20.68000 461.092
20.72000 442.219
20.76000 456.756
20.80000 448.475
20.84000 466.078
20.88000 465.296
20.92000 484.442
20.96000 463.229
21.00000 453.524
21.04000 464.569
21.08000 455.516
21.12000 457.264
21.16000 462.015
21.20000 443.225
21.24000 466.314
21.28000 464.875
21.32000 454.506
21.36000 465.205
21.40000 454.011
21.44000 454.004
21.48000 478.306
21.52000 470.949
21.56000 459.409
21.60000 467.091
21.64000 446.679
21.68000 477.526
21.72000 467.155
21.76000 472.064
21.80000 473.595
21.84000 481.941
21.88000 511.914
21.92000 522.996
21.96000 539.413
22.00000 537.667
22.04000 531.391
22.08000 548.398
22.12000 527.782
22.16000 524.056
22.20000 515.639
22.24000 512.894
22.28000 489.711
22.32000 485.789
22.36000 473.622
22.40000 472.159
22.44000 477.440
22.48000 465.086
22.52000 454.022
22.56000 460.259
22.60000 440.540
22.64000 446.082
22.68000 454.901
22.72000 448.207
22.76000 435.090
22.80000 417.541
22.84000 432.200
22.88000 436.353
22.92000 428.696
22.96000 434.764
23.00000 447.880
23.04000 457.129
23.08000 427.933
23.12000 415.294
23.16000 416.847
23.20000 436.781
23.24000 439.953
23.28000 437.903
23.32000 448.278
23.36000 431.920
23.40000 434.038
23.44000 412.491
23.48000 435.873
23.52000 426.566
23.56000 421.271
23.60000 419.284
23.64000 426.507
23.68000 423.805
23.72000 455.238
23.76000 438.817
23.80000 451.694
23.84000 441.128
23.88000 480.048
23.92000 469.270
23.96000 466.483
24.00000 468.561
24.04000 482.848
24.08000 482.783
24.12000 465.537
24.16000 441.199
24.20000 448.216
24.24000 460.998
24.28000 431.904
24.32000 423.352
24.36000 455.445
24.40000 416.527
24.44000 412.690
24.48000 434.669
24.52000 414.220
24.56000 401.207
24.60000 416.233
24.64000 405.783
24.68000 398.668
24.72000 403.178
24.76000 394.831
24.80000 399.978
24.84000 409.055
24.88000 394.635
24.92000 398.866
24.96000 399.627
25.00000 395.405
25.04000 388.916
25.08000 404.691
25.12000 403.216
25.16000 403.132
25.20000 398.487
25.24000 397.124
25.28000 415.961
25.32000 394.972
25.36000 403.005
25.40000 405.404
25.44000 399.856
25.48000 387.581
25.52000 400.746
25.56000 400.829
25.60000 385.258
25.64000 381.922
25.68000 378.121
25.72000 396.798
25.76000 381.910
25.80000 383.022
25.84000 376.799
25.88000 389.553
25.92000 361.252
25.96000 377.015
26.00000 367.661
26.04000 399.619
26.08000 393.230
26.12000 377.739
26.16000 379.237
26.20000 389.892
26.24000 397.369
26.28000 372.924
26.32000 409.718
26.36000 380.951
26.40000 384.802
26.44000 372.567
26.48000 366.487
26.52000 367.754
26.56000 371.270
26.60000 366.470
26.64000 360.810
26.68000 380.074
26.72000 361.654
26.76000 377.306
26.80000 379.721
26.84000 374.709
26.88000 378.973
26.92000 392.223
26.96000 383.844
27.00000 380.205
27.04000 364.203
27.08000 364.628
27.12000 379.436
27.16000 373.312
27.20000 368.947
27.24000 370.641
27.28000 372.571
27.32000 374.726
27.36000 353.915
27.40000 382.454
27.44000 380.537
27.48000 353.263
27.52000 369.867
27.56000 372.220
27.60000 364.660
27.64000 374.808
27.68000 380.155
27.72000 367.949
27.76000 363.664
27.80000 356.932
27.84000 371.461
27.88000 357.346
27.92000 348.646
27.96000 364.462
28.00000 350.638
28.04000 361.555
28.08000 379.731
28.12000 359.450
28.16000 349.461
28.20000 351.958
28.24000 354.398
28.28000 351.611
28.32000 361.007
28.36000 343.090
28.40000 362.600
28.44000 361.743
28.48000 352.838
28.52000 363.494
28.56000 361.750
28.60000 347.082
28.64000 360.408
28.68000 353.406
28.72000 346.807
28.76000 349.377
28.80000 343.367
28.84000 361.673
28.88000 363.661
28.92000 349.961
28.96000 340.494
29.00000 339.634
29.04000 363.329
29.08000 351.337
29.12000 341.140
29.16000 355.112
29.20000 334.332
29.24000 350.165
29.28000 356.681
29.32000 366.618
29.36000 337.570
29.40000 345.943
29.44000 336.997
29.48000 352.320
29.52000 348.682
29.56000 358.050
29.60000 342.458
29.64000 349.480
29.68000 355.530
29.72000 363.984
29.76000 350.505
29.80000 362.278
29.84000 365.210
29.88000 356.502
29.92000 356.438
29.96000 363.037
30.00000 363.814
30.04000 373.822
30.08000 385.171
30.12000 348.383
30.16000 372.947
30.20000 353.037
30.24000 357.361
30.28000 369.773
30.32000 356.908
30.36000 357.878
30.40000 331.683
30.44000 361.193
30.48000 349.753
30.52000 352.730
30.56000 361.625
30.60000 355.096
30.64000 338.322
30.68000 354.229
30.72000 359.189
30.76000 356.265
30.80000 352.142
30.84000 376.400
30.88000 384.913
30.92000 386.114
30.96000 400.921
31.00000 414.687
31.04000 459.504
31.08000 492.887
31.12000 553.775
31.16000 631.086
31.20000 739.351
31.24000 835.471
31.28000 960.813
31.32000 1067.406
31.36000 1103.781
31.40000 1117.713
31.44000 1090.350
31.48000 1007.852
31.52000 881.259
31.56000 774.241
31.60000 664.500
31.64000 580.280
31.68000 504.034
31.72000 466.238
31.76000 442.605
31.80000 398.088
31.84000 395.248
31.88000 378.589
31.92000 366.750
31.96000 337.506
32.00000 342.254
32.04000 344.151
32.08000 354.915
32.12000 333.021
32.16000 330.010
32.20000 325.290
32.24000 327.941
32.28000 319.036
32.32000 319.440
32.36000 323.093
32.40000 320.280
32.44000 322.527
32.48000 329.373
32.52000 311.762
32.56000 307.850
32.60000 317.779
32.64000 322.792
32.68000 299.307
32.72000 312.358
32.76000 322.275
32.80000 335.601
32.84000 392.104
32.88000 449.307
32.92000 492.319
32.96000 531.238
33.00000 512.474
33.04000 501.827
33.08000 438.583
33.12000 377.561
33.16000 328.995
33.20000 293.171
33.24000 291.654
33.28000 297.398
33.32000 289.173
33.36000 289.830
33.40000 286.455
33.44000 288.419
33.48000 296.865
33.52000 303.495
33.56000 294.255
33.60000 304.253
33.64000 277.920
33.68000 288.743
33.72000 284.840
33.76000 290.773
33.80000 294.281
33.84000 312.587
33.88000 285.925
33.92000 303.578
33.96000 296.827
34.00000 301.998
34.04000 304.241
34.08000 313.007
34.12000 321.232
34.16000 320.446
34.20000 314.064
34.24000 325.638
34.28000 332.418
34.32000 333.508
34.36000 334.001
34.40000 335.466
34.44000 326.398
34.48000 316.139
34.52000 329.842
34.56000 283.335
34.60000 305.670
34.64000 298.430
34.68000 290.546
34.72000 288.497
34.76000 280.406
34.80000 297.304
34.84000 286.046
34.88000 287.976
34.92000 272.100
34.96000 267.659
35.00000 284.407
35.04000 278.729
35.08000 259.931
35.12000 283.099
35.16000 265.163
35.20000 265.096
35.24000 263.947
35.28000 263.981
35.32000 261.202
35.36000 255.091
35.40000 251.484
35.44000 275.339
35.48000 256.277
35.52000 268.247
35.56000 263.565
35.60000 256.391
35.64000 263.773
35.68000 275.135
35.72000 258.173
35.76000 253.939
35.80000 272.687
35.84000 259.600
35.88000 258.400
35.92000 258.190
35.96000 274.929
36.00000 251.473
36.04000 254.868
36.08000 253.551
36.12000 249.690
36.16000 250.059
36.20000 253.191
36.24000 245.274
36.28000 239.890
36.32000 249.524
36.36000 248.013
36.40000 261.222
36.44000 245.854
36.48000 262.574
36.52000 250.615
36.56000 245.968
36.60000 252.957
36.64000 244.890
36.68000 247.731
36.72000 255.517
36.76000 263.458
36.80000 260.440
36.84000 261.200
36.88000 269.431
36.92000 266.517
36.96000 282.295
37.00000 276.597
37.04000 276.360
37.08000 273.547
37.12000 286.858
37.16000 268.563
37.20000 263.534
37.24000 272.661
37.28000 250.995
37.32000 242.340
37.36000 242.761
37.40000 240.021
37.44000 248.448
37.48000 254.083
37.52000 243.524
37.56000 252.349
37.60000 249.188
37.64000 256.859
37.68000 251.202
37.72000 246.043
37.76000 232.752
37.80000 233.588
37.84000 234.619
37.88000 262.977
37.92000 261.954
37.96000 254.646
38.00000 265.263
38.04000 261.065
38.08000 260.494
38.12000 253.929
38.16000 250.824
38.20000 257.229
38.24000 265.663
38.28000 273.819
38.32000 283.537
38.36000 305.426
38.40000 312.712
38.44000 361.638
38.48000 438.092
38.52000 529.848
38.56000 619.054
38.60000 744.676
38.64000 871.980
38.68000 897.774
38.72000 979.112
38.76000 969.535
38.80000 915.977
38.84000 807.911
38.88000 700.506
38.92000 553.028
38.96000 476.682
39.00000 371.405
39.04000 318.586
39.08000 292.539
39.12000 266.873
39.16000 245.265
39.20000 240.574
39.24000 239.963
39.28000 236.005
39.32000 230.569
39.36000 226.586
39.40000 241.790
39.44000 236.041
39.48000 230.476
39.52000 227.199
39.56000 244.777
39.60000 236.595
39.64000 232.372
39.68000 230.140
39.72000 226.259
39.76000 236.484
39.80000 242.435
39.84000 226.132
39.88000 226.941
39.92000 221.413
39.96000 229.452
40.00000 233.802
40.04000 216.919
40.08000 225.376
40.12000 226.383
40.16000 222.034
40.20000 228.119
40.24000 215.138
40.28000 225.589
40.32000 226.096
40.36000 226.433
40.40000 216.229
40.44000 201.112
40.48000 213.770
40.52000 215.924
40.56000 214.053
40.60000 214.556
40.64000 213.422
40.68000 207.764
40.72000 231.338
40.76000 213.353
40.80000 211.647
40.84000 206.650
40.88000 197.549
40.92000 209.561
40.96000 214.722
41.00000 203.165
41.04000 203.708
41.08000 207.541
41.12000 207.444
41.16000 221.954
41.20000 213.465
41.24000 207.762
41.28000 214.475
41.32000 210.042
41.36000 200.634
41.40000 200.895
41.44000 201.548
41.48000 210.043
41.52000 206.213
41.56000 197.907
41.60000 210.771
41.64000 200.145
41.68000 204.699
41.72000 206.552
41.76000 203.493
41.80000 206.232
41.84000 208.049
41.88000 198.886
41.92000 204.015
41.96000 201.668
42.00000 217.384
42.04000 206.396
42.08000 209.227
42.12000 203.008
42.16000 207.633
42.20000 202.596
42.24000 208.813
42.28000 212.982
42.32000 198.273
42.36000 201.593
42.40000 216.189
42.44000 214.440
42.48000 204.557
42.52000 206.428
42.56000 206.318
42.60000 213.530
42.64000 200.848
42.68000 199.700
42.72000 208.353
42.76000 208.852
42.80000 191.743
42.84000 201.899
42.88000 192.868
42.92000 199.717
42.96000 179.953
43.00000 198.813
43.04000 213.263
43.08000 193.580
43.12000 187.464
43.16000 197.518
43.20000 200.868
43.24000 196.828
43.28000 204.584
43.32000 190.725
43.36000 204.852
43.40000 196.491
43.44000 183.700
43.48000 195.546
43.52000 202.683
43.56000 192.271
43.60000 184.631
43.64000 188.070
43.68000 181.615
43.72000 193.059
43.76000 181.018
43.80000 184.484
43.84000 190.369
43.88000 189.475
43.92000 193.003
43.96000 193.898
44.00000 190.333
44.04000 186.678
44.08000 192.494
44.12000 181.068
44.16000 186.966
44.20000 184.687
44.24000 201.166
44.28000 192.383
44.32000 191.803
44.36000 195.950
44.40000 191.508
44.44000 206.663
44.48000 201.322
44.52000 199.366
44.56000 206.333
44.60000 212.559
44.64000 207.855
44.68000 208.109
44.72000 222.641
44.76000 225.827
44.80000 220.345
44.84000 222.571
44.88000 239.585
44.92000 248.779
44.96000 255.087
45.00000 247.117
45.04000 262.737
45.08000 262.616
45.12000 266.670
45.16000 252.500
45.20000 242.767
45.24000 229.423
45.28000 232.371
45.32000 246.596
45.36000 218.353
45.40000 221.836
45.44000 213.652
45.48000 223.486
45.52000 207.956
45.56000 218.438
45.60000 201.552
45.64000 200.304
45.68000 197.710
45.72000 196.772
45.76000 183.610
45.80000 203.125
45.84000 193.385
45.88000 181.814
45.92000 179.234
45.96000 179.064
46.00000 182.392
46.04000 183.110
46.08000 186.398
46.12000 170.119
46.16000 179.449
46.20000 178.236
46.24000 181.148
46.28000 175.753
46.32000 171.822
46.36000 172.228
46.40000 175.219
46.44000 181.265
46.48000 173.619
46.52000 170.439
46.56000 171.493
46.60000 165.903
46.64000 174.882
46.68000 171.341
46.72000 176.043
46.76000 180.277
46.80000 153.810
46.84000 174.116
46.88000 165.924
46.92000 182.899
46.96000 165.766
47.00000 164.307
47.04000 178.033
47.08000 170.931
47.12000 164.735
47.16000 175.744
47.20000 155.765
47.24000 162.819
47.28000 161.769
47.32000 159.227
47.36000 159.083
47.40000 156.474
47.44000 171.217
47.48000 163.021
47.52000 149.561
47.56000 148.848
47.60000 159.232
47.64000 156.667
47.68000 153.035
47.72000 160.123
47.76000 156.876
47.80000 150.365
47.84000 152.541
47.88000 159.679
47.92000 155.708
47.96000 157.901
48.00000 153.700
48.04000 151.849
48.08000 161.443
48.12000 165.235
48.16000 153.152
48.20000 151.807
48.24000 148.574
48.28000 150.053
48.32000 157.494
48.36000 148.973
48.40000 158.874
48.44000 157.027
48.48000 144.675
48.52000 139.505
48.56000 160.416
48.60000 152.775
48.64000 151.344
48.68000 158.003
48.72000 154.457
48.76000 150.910
48.80000 153.515
48.84000 144.175
48.88000 160.176
48.92000 154.406
48.96000 153.769
49.00000 151.566
49.04000 156.626
49.08000 152.664
49.12000 145.239
49.16000 159.080
49.20000 153.510
49.24000 164.588
49.28000 162.405
49.32000 148.533
49.36000 142.687
49.40000 154.312
49.44000 145.942
49.48000 154.088
49.52000 149.149
49.56000 154.457
49.60000 152.886
49.64000 156.471
49.68000 148.448
49.72000 147.807
49.76000 147.541
49.80000 141.818
49.84000 143.561
49.88000 149.108
49.92000 153.278
49.96000 153.934
50.00000 156.684
50.04000 145.800
50.08000 159.163
50.12000 148.285
50.16000 149.153
50.20000 148.122
50.24000 155.639
50.28000 151.428
50.32000 154.546
50.36000 157.681
50.40000 158.660
50.44000 150.317
50.48000 156.756
50.52000 166.143
50.56000 170.092
50.60000 151.324
50.64000 169.575
50.68000 171.205
50.72000 168.293
50.76000 168.497
50.80000 161.002
50.84000 154.655
50.88000 155.275
50.92000 155.768
50.96000 149.348
51.00000 151.050
51.04000 155.826
51.08000 156.913
51.12000 158.788
51.16000 142.293
51.20000 154.508
51.24000 167.942
51.28000 134.908
51.32000 138.928
51.36000 140.509
51.40000 145.607
51.44000 133.151
51.48000 144.563
51.52000 137.425
51.56000 137.319
51.60000 141.185
51.64000 134.131
51.68000 128.477
51.72000 139.588
51.76000 140.684
51.80000 149.923
51.84000 137.645
51.88000 139.183
51.92000 134.086
51.96000 147.700
52.00000 141.511
52.04000 134.356
52.08000 150.893
52.12000 133.253
52.16000 141.011
52.20000 140.998
52.24000 150.132
52.28000 130.425
52.32000 143.902
52.36000 142.438
52.40000 134.918
52.44000 141.940
52.48000 144.349
52.52000 138.063
52.56000 133.357
52.60000 127.616
52.64000 142.323
52.68000 135.939
52.72000 140.549
52.76000 141.999
52.80000 134.789
52.84000 144.116
52.88000 138.518
52.92000 133.577
52.96000 135.267
53.00000 138.345
53.04000 143.420
53.08000 138.492
53.12000 144.712
53.16000 138.576
53.20000 140.182
53.24000 154.599
53.28000 153.611
53.32000 144.313
53.36000 142.938
53.40000 147.208
53.44000 151.051
53.48000 152.383
53.52000 146.436
53.56000 152.632
53.60000 144.652
53.64000 135.220
53.68000 144.197
53.72000 146.616
53.76000 151.745
53.80000 148.967
53.84000 136.591
53.88000 134.340
53.92000 137.743
53.96000 125.606
54.00000 132.921
54.04000 132.634
54.08000 135.212
54.12000 133.869
54.16000 143.652
54.20000 145.723
54.24000 142.472
54.28000 134.554
54.32000 129.433
54.36000 128.279
54.40000 140.887
54.44000 137.533
54.48000 141.953
54.52000 147.985
54.56000 131.599
54.60000 132.946
54.64000 136.003
54.68000 145.576
54.72000 134.406
54.76000 136.351
54.80000 128.557
54.84000 143.503
54.88000 124.451
54.92000 139.531
54.96000 140.401
55.00000 139.685
55.04000 143.067
55.08000 147.898
55.12000 135.380
55.16000 131.312
55.20000 151.757
55.24000 152.158
55.28000 144.784
55.32000 162.322
55.36000 162.009
55.40000 170.160
55.44000 173.638
55.48000 184.897
55.52000 191.520
55.56000 203.066
55.60000 238.889
55.64000 273.542
55.68000 308.369
55.72000 342.465
55.76000 402.783
55.80000 456.525
55.84000 519.434
55.88000 553.051
55.92000 575.557
55.96000 595.280
56.00000 566.193
56.04000 550.861
56.08000 516.386
56.12000 465.358
56.16000 409.747
56.20000 355.276
56.24000 302.332
56.28000 272.366
56.32000 229.480
56.36000 217.073
56.40000 195.058
56.44000 172.829
56.48000 166.967
56.52000 152.687
56.56000 159.010
56.60000 149.895
56.64000 150.696
56.68000 152.692
56.72000 134.446
56.76000 140.935
56.80000 129.527
56.84000 126.836
56.88000 140.964
56.92000 126.888
56.96000 117.409
57.00000 133.682
57.04000 131.672
57.08000 133.796
57.12000 127.718
57.16000 125.558
57.20000 125.962
57.24000 128.867
57.28000 127.093
57.32000 123.675
57.36000 128.245
57.40000 126.803
57.44000 122.672
57.48000 128.110
57.52000 131.322
57.56000 123.768
57.60000 115.013
57.64000 123.056
57.68000 125.658
57.72000 126.818
57.76000 112.700
57.80000 122.408
57.84000 125.527
57.88000 125.649
57.92000 117.821
57.96000 120.045
58.00000 109.644
58.04000 115.667
58.08000 121.472
58.12000 124.993
58.16000 128.021
58.20000 121.475
58.24000 120.772
58.28000 112.992
58.32000 124.762
58.36000 125.322
58.40000 124.490
58.44000 123.736
58.48000 117.610
58.52000 113.735
58.56000 122.546
58.60000 115.457
58.64000 122.776
58.68000 114.327
58.72000 117.163
58.76000 118.170
58.80000 119.549
58.84000 117.831
58.88000 122.900
58.92000 121.820
58.96000 115.874
59.00000 116.860
59.04000 115.208
59.08000 117.176
59.12000 122.088
59.16000 107.649
59.20000 117.852
59.24000 126.664
59.28000 114.574
59.32000 121.344
59.36000 116.360
59.40000 117.308
59.44000 115.740
59.48000 115.590
59.52000 117.172
59.56000 104.123
59.60000 114.220
59.64000 120.437
59.68000 117.708
59.72000 118.596
59.76000 112.874
59.80000 119.965
59.84000 117.029
59.88000 118.016
59.92000 118.123
59.96000 118.489
60.00000 119.686
60.04000 118.122
60.08000 112.038
60.12000 121.292
60.16000 118.536
60.20000 117.737
60.24000 115.666
60.28000 111.852
60.32000 112.553
60.36000 114.357
60.40000 117.867
60.44000 118.939
60.48000 122.954
60.52000 115.580
60.56000 115.144
60.60000 116.877
60.64000 117.873
60.68000 114.931
60.72000 113.660
60.76000 116.962
60.80000 114.929
60.84000 123.207
60.88000 115.667
60.92000 110.904
60.96000 121.527
61.00000 126.141
61.04000 109.274
61.08000 113.041
61.12000 121.782
61.16000 122.161
61.20000 121.905
61.24000 122.276
61.28000 125.162
61.32000 118.765
61.36000 126.391
61.40000 127.042
61.44000 134.613
61.48000 135.911
61.52000 160.531
61.56000 187.990
61.60000 250.333
61.64000 260.838
61.68000 278.862
61.72000 288.975
61.76000 270.737
61.80000 213.469
61.84000 162.268
61.88000 134.264
61.92000 142.429
61.96000 139.961
62.00000 126.019
62.04000 124.867
62.08000 127.705
62.12000 125.836
62.16000 125.827
62.20000 116.030
62.24000 123.803
62.28000 122.050
62.32000 129.606
62.36000 118.541
62.40000 130.050
62.44000 127.861
62.48000 120.700
62.52000 126.075
62.56000 119.595
62.60000 128.875
62.64000 133.028
62.68000 128.769
62.72000 130.352
62.76000 131.123
62.80000 121.899
62.84000 127.597
62.88000 134.863
62.92000 126.171
62.96000 130.437
63.00000 122.115
63.04000 134.009
63.08000 129.733
63.12000 131.721
63.16000 123.036
63.20000 131.713
63.24000 135.208
63.28000 125.662
63.32000 130.712
63.36000 144.074
63.40000 133.645
63.44000 137.408
63.48000 141.121
63.52000 123.828
63.56000 136.260
63.60000 141.660
63.64000 151.568
63.68000 140.117
63.72000 129.844
63.76000 134.719
63.80000 140.172
63.84000 137.323
63.88000 141.931
63.92000 136.369
63.96000 138.573
64.00000 144.365
64.04000 138.074
64.08000 142.897
64.12000 154.279
64.16000 146.403
64.20000 144.219
64.24000 146.962
64.28000 153.914
64.32000 146.371
64.36000 147.621
64.40000 150.482
64.44000 150.968
64.48000 151.768
64.52000 151.704
64.56000 156.021
64.60000 166.007
64.64000 157.324
64.68000 164.763
64.72000 166.764
64.76000 174.794
64.80000 173.889
64.84000 184.503
64.88000 180.139
64.92000 178.048
64.96000 186.774
65.00000 192.875
65.04000 182.666
65.08000 196.912
65.12000 196.502
65.16000 214.217
65.20000 205.934
65.24000 222.222
65.28000 220.602
65.32000 238.931
65.36000 247.301
65.40000 250.013
65.44000 271.198
65.48000 278.670
65.52000 300.393
65.56000 323.393
65.60000 349.340
65.64000 423.596
65.68000 586.381
65.72000 906.395
65.76000 1391.901
65.80000 1738.627
65.84000 1922.044
65.88000 1961.323
65.92000 1841.333
65.96000 1468.990
66.00000 979.412
66.04000 640.258
66.08000 476.308
66.12000 387.460
66.16000 360.609
66.20000 367.405
66.24000 385.473
66.28000 466.006
66.32000 512.710
66.36000 592.736
66.40000 601.030
66.44000 589.437
66.48000 583.301
66.52000 535.538
66.56000 451.710
66.60000 379.677
66.64000 361.221
66.68000 337.061
66.72000 335.751
66.76000 339.250
66.80000 343.769
66.84000 343.925
66.88000 365.855
66.92000 366.419
66.96000 361.378
67.00000 367.196
67.04000 362.960
67.08000 368.055
67.12000 372.082
67.16000 394.496
67.20000 393.788
67.24000 375.349
67.28000 402.132
67.32000 410.338
67.36000 400.636
67.40000 381.558
67.44000 399.321
67.48000 413.140
67.52000 426.952
67.56000 437.959
67.60000 417.292
67.64000 424.416
67.68000 425.342
67.72000 444.803
67.76000 442.254
67.80000 450.930
67.84000 464.957
67.88000 426.372
67.92000 483.396
67.96000 486.569
68.00000 511.752
68.04000 508.280
68.08000 514.328
68.12000 544.217
68.16000 533.144
68.20000 540.257
68.24000 558.052
68.28000 568.125
68.32000 578.487
68.36000 608.298
68.40000 638.513
68.44000 637.926
68.48000 643.138
68.52000 691.566
68.56000 759.015
68.60000 848.814
68.64000 947.964
68.68000 1113.830
68.72000 1258.699
68.76000 1414.760
68.80000 1602.900
68.84000 1829.841
68.88000 2252.530
68.92000 3420.108
68.96000 9610.304
69.00000 21619.213
69.04000 34120.621
69.08000 40311.035
69.12000 42907.855
69.16000 45729.574
69.20000 45098.094
69.24000 35766.852
69.28000 26574.516
69.32000 21865.582
69.36000 20400.658
69.40000 16846.578
69.44000 10218.971
69.48000 4616.048
69.52000 2039.223
69.56000 1320.641
69.60000 1019.382
69.64000 880.215
69.68000 775.040
69.72000 722.310
69.76000 643.431
69.80000 616.932
69.84000 595.217
69.88000 553.197
69.92000 534.251
69.96000 496.042
70.00000 475.410