File: XRD/07-10-2025 Dep 6/XY Data/BTO_Mapping_Theta2Theta_07-10-2025_001_15_6-180_19-021.xy
20.00000 467.179
20.04000 455.969
20.08000 465.142
20.12000 457.409
20.16000 464.941
20.20000 472.565
20.24000 481.827
20.28000 470.370
20.32000 465.181
20.36000 448.244
20.40000 442.795
20.44000 468.362
20.48000 445.369
20.52000 451.647
20.56000 480.384
20.60000 457.018
20.64000 446.709
20.68000 461.407
20.72000 455.073
20.76000 477.199
20.80000 454.927
20.84000 469.226
20.88000 461.220
20.92000 473.567
20.96000 456.854
21.00000 467.728
21.04000 445.893
21.08000 462.887
21.12000 454.852
21.16000 459.044
21.20000 458.570
21.24000 461.009
21.28000 452.160
21.32000 462.785
21.36000 466.310
21.40000 448.472
21.44000 454.152
21.48000 464.181
21.52000 448.701
21.56000 461.671
21.60000 458.991
21.64000 450.609
21.68000 472.353
21.72000 455.793
21.76000 486.566
21.80000 466.139
21.84000 476.156
21.88000 507.463
21.92000 494.111
21.96000 487.503
22.00000 506.015
22.04000 507.750
22.08000 506.475
22.12000 493.027
22.16000 512.565
22.20000 490.785
22.24000 499.371
22.28000 495.039
22.32000 485.705
22.36000 453.486
22.40000 475.356
22.44000 473.065
22.48000 475.667
22.52000 451.439
22.56000 442.397
22.60000 439.959
22.64000 432.971
22.68000 452.062
22.72000 450.984
22.76000 450.974
22.80000 438.674
22.84000 445.299
22.88000 462.113
22.92000 430.248
22.96000 452.482
23.00000 440.400
23.04000 432.944
23.08000 447.727
23.12000 434.242
23.16000 429.002
23.20000 431.816
23.24000 439.746
23.28000 440.678
23.32000 424.502
23.36000 436.786
23.40000 434.516
23.44000 433.549
23.48000 430.937
23.52000 427.453
23.56000 434.469
23.60000 429.596
23.64000 458.571
23.68000 455.589
23.72000 437.364
23.76000 455.488
23.80000 473.915
23.84000 492.478
23.88000 494.519
23.92000 492.794
23.96000 483.410
24.00000 525.959
24.04000 501.085
24.08000 504.139
24.12000 471.435
24.16000 461.646
24.20000 473.562
24.24000 453.287
24.28000 438.950
24.32000 436.333
24.36000 413.211
24.40000 434.346
24.44000 426.100
24.48000 412.073
24.52000 411.882
24.56000 396.564
24.60000 410.639
24.64000 412.853
24.68000 424.330
24.72000 411.529
24.76000 394.440
24.80000 399.495
24.84000 419.193
24.88000 409.781
24.92000 416.126
24.96000 406.652
25.00000 393.448
25.04000 405.852
25.08000 402.199
25.12000 394.796
25.16000 386.069
25.20000 400.580
25.24000 413.641
25.28000 405.699
25.32000 404.723
25.36000 398.313
25.40000 379.214
25.44000 396.294
25.48000 379.223
25.52000 404.356
25.56000 383.574
25.60000 385.440
25.64000 402.280
25.68000 400.980
25.72000 392.803
25.76000 370.129
25.80000 378.344
25.84000 374.483
25.88000 388.288
25.92000 402.605
25.96000 381.359
26.00000 389.800
26.04000 382.494
26.08000 397.496
26.12000 394.062
26.16000 381.360
26.20000 380.394
26.24000 384.465
26.28000 384.460
26.32000 388.034
26.36000 382.582
26.40000 374.477
26.44000 401.052
26.48000 380.758
26.52000 387.859
26.56000 410.814
26.60000 383.264
26.64000 396.297
26.68000 375.032
26.72000 362.486
26.76000 367.508
26.80000 373.017
26.84000 372.970
26.88000 381.663
26.92000 381.739
26.96000 370.275
27.00000 367.329
27.04000 386.566
27.08000 360.807
27.12000 358.646
27.16000 380.992
27.20000 367.721
27.24000 381.214
27.28000 372.204
27.32000 376.001
27.36000 379.365
27.40000 381.793
27.44000 372.118
27.48000 359.768
27.52000 370.514
27.56000 375.509
27.60000 370.302
27.64000 365.515
27.68000 370.980
27.72000 369.045
27.76000 348.982
27.80000 366.239
27.84000 349.788
27.88000 364.929
27.92000 373.734
27.96000 367.990
28.00000 373.110
28.04000 372.240
28.08000 362.617
28.12000 357.497
28.16000 372.625
28.20000 351.721
28.24000 358.153
28.28000 352.911
28.32000 370.654
28.36000 365.863
28.40000 351.411
28.44000 356.517
28.48000 357.839
28.52000 339.007
28.56000 357.071
28.60000 343.667
28.64000 354.448
28.68000 352.782
28.72000 364.485
28.76000 355.954
28.80000 349.329
28.84000 352.819
28.88000 359.070
28.92000 352.062
28.96000 354.075
29.00000 348.347
29.04000 350.959
29.08000 358.058
29.12000 348.553
29.16000 349.692
29.20000 347.595
29.24000 346.552
29.28000 345.438
29.32000 357.585
29.36000 358.480
29.40000 359.920
29.44000 359.447
29.48000 342.807
29.52000 352.913
29.56000 364.843
29.60000 351.809
29.64000 346.501
29.68000 342.870
29.72000 344.904
29.76000 352.484
29.80000 361.639
29.84000 352.087
29.88000 375.772
29.92000 363.904
29.96000 382.357
30.00000 385.755
30.04000 375.087
30.08000 371.422
30.12000 373.607
30.16000 368.647
30.20000 372.260
30.24000 372.079
30.28000 371.944
30.32000 358.238
30.36000 380.488
30.40000 361.445
30.44000 366.240
30.48000 359.897
30.52000 356.708
30.56000 365.988
30.60000 364.780
30.64000 362.081
30.68000 365.516
30.72000 368.264
30.76000 370.674
30.80000 403.358
30.84000 389.061
30.88000 407.351
30.92000 411.771
30.96000 432.569
31.00000 466.393
31.04000 481.908
31.08000 530.454
31.12000 590.674
31.16000 660.698
31.20000 778.263
31.24000 873.920
31.28000 998.971
31.32000 1056.468
31.36000 1158.884
31.40000 1169.686
31.44000 1126.120
31.48000 1054.389
31.52000 940.921
31.56000 833.036
31.60000 733.835
31.64000 624.667
31.68000 559.010
31.72000 470.235
31.76000 438.209
31.80000 431.028
31.84000 399.428
31.88000 396.936
31.92000 369.913
31.96000 361.863
32.00000 364.645
32.04000 374.975
32.08000 338.277
32.12000 342.623
32.16000 347.286
32.20000 347.884
32.24000 350.023
32.28000 350.267
32.32000 341.115
32.36000 302.764
32.40000 335.152
32.44000 329.911
32.48000 325.247
32.52000 329.079
32.56000 335.539
32.60000 311.792
32.64000 335.046
32.68000 325.135
32.72000 318.446
32.76000 313.074
32.80000 337.183
32.84000 414.653
32.88000 453.792
32.92000 523.249
32.96000 525.352
33.00000 539.284
33.04000 512.709
33.08000 451.591
33.12000 383.738
33.16000 342.491
33.20000 314.530
33.24000 309.247
33.28000 320.683
33.32000 290.269
33.36000 287.374
33.40000 302.864
33.44000 299.247
33.48000 280.710
33.52000 283.727
33.56000 286.513
33.60000 295.839
33.64000 302.372
33.68000 293.983
33.72000 307.970
33.76000 294.283
33.80000 289.436
33.84000 292.785
33.88000 307.654
33.92000 320.076
33.96000 288.487
34.00000 303.725
34.04000 313.160
34.08000 315.557
34.12000 315.107
34.16000 323.507
34.20000 324.208
34.24000 327.814
34.28000 332.129
34.32000 335.737
34.36000 333.510
34.40000 331.157
34.44000 325.449
34.48000 320.085
34.52000 322.982
34.56000 307.945
34.60000 315.150
34.64000 300.088
34.68000 301.589
34.72000 286.495
34.76000 294.441
34.80000 282.713
34.84000 282.861
34.88000 286.598
34.92000 272.028
34.96000 264.860
35.00000 276.825
35.04000 266.074
35.08000 275.818
35.12000 268.515
35.16000 275.577
35.20000 261.857
35.24000 267.584
35.28000 269.641
35.32000 261.603
35.36000 269.508
35.40000 262.288
35.44000 269.596
35.48000 264.723
35.52000 263.884
35.56000 269.777
35.60000 259.174
35.64000 264.623
35.68000 264.332
35.72000 254.127
35.76000 255.209
35.80000 254.943
35.84000 255.805
35.88000 238.746
35.92000 265.319
35.96000 243.873
36.00000 269.803
36.04000 250.910
36.08000 264.954
36.12000 252.242
36.16000 247.484
36.20000 264.892
36.24000 261.727
36.28000 251.678
36.32000 258.938
36.36000 255.321
36.40000 246.401
36.44000 247.087
36.48000 262.144
36.52000 261.397
36.56000 246.439
36.60000 242.399
36.64000 254.668
36.68000 264.262
36.72000 265.708
36.76000 255.005
36.80000 257.028
36.84000 263.762
36.88000 257.920
36.92000 272.499
36.96000 255.643
37.00000 262.844
37.04000 269.829
37.08000 255.139
37.12000 253.055
37.16000 264.776
37.20000 260.346
37.24000 254.610
37.28000 252.791
37.32000 243.626
37.36000 251.277
37.40000 243.230
37.44000 261.617
37.48000 247.939
37.52000 246.381
37.56000 251.490
37.60000 236.225
37.64000 251.533
37.68000 245.647
37.72000 253.830
37.76000 241.650
37.80000 240.155
37.84000 251.521
37.88000 250.269
37.92000 248.217
37.96000 248.673
38.00000 251.585
38.04000 245.345
38.08000 244.444
38.12000 251.678
38.16000 250.937
38.20000 257.582
38.24000 264.760
38.28000 271.600
38.32000 283.164
38.36000 286.272
38.40000 300.501
38.44000 325.875
38.48000 374.477
38.52000 437.041
38.56000 506.680
38.60000 582.632
38.64000 687.450
38.68000 746.536
38.72000 759.275
38.76000 720.895
38.80000 704.686
38.84000 603.902
38.88000 520.545
38.92000 440.679
38.96000 387.410
39.00000 319.940
39.04000 297.645
39.08000 272.749
39.12000 261.260
39.16000 255.403
39.20000 238.884
39.24000 248.952
39.28000 247.955
39.32000 239.152
39.36000 247.062
39.40000 237.873
39.44000 242.444
39.48000 223.036
39.52000 233.704
39.56000 237.796
39.60000 245.336
39.64000 222.273
39.68000 228.918
39.72000 231.926
39.76000 222.911
39.80000 226.299
39.84000 230.014
39.88000 223.826
39.92000 228.778
39.96000 230.047
40.00000 222.476
40.04000 223.314
40.08000 221.834
40.12000 224.180
40.16000 236.375
40.20000 226.804
40.24000 220.247
40.28000 233.582
40.32000 225.550
40.36000 227.130
40.40000 214.254
40.44000 218.007
40.48000 218.593
40.52000 220.008
40.56000 220.191
40.60000 224.763
40.64000 221.050
40.68000 213.636
40.72000 221.899
40.76000 226.971
40.80000 202.693
40.84000 217.413
40.88000 210.339
40.92000 212.303
40.96000 217.556
41.00000 205.618
41.04000 209.456
41.08000 217.651
41.12000 222.852
41.16000 207.203
41.20000 209.804
41.24000 216.204
41.28000 210.855
41.32000 206.312
41.36000 196.731
41.40000 198.061
41.44000 200.969
41.48000 212.654
41.52000 205.440
41.56000 201.526
41.60000 214.475
41.64000 206.284
41.68000 201.050
41.72000 209.906
41.76000 204.327
41.80000 209.412
41.84000 213.178
41.88000 197.919
41.92000 215.516
41.96000 210.459
42.00000 202.056
42.04000 215.686
42.08000 217.199
42.12000 219.342
42.16000 214.135
42.20000 210.232
42.24000 210.892
42.28000 216.793
42.32000 225.205
42.36000 201.691
42.40000 203.805
42.44000 219.695
42.48000 213.032
42.52000 209.457
42.56000 213.322
42.60000 208.020
42.64000 206.757
42.68000 201.655
42.72000 218.208
42.76000 190.664
42.80000 195.738
42.84000 212.741
42.88000 200.094
42.92000 197.791
42.96000 203.331
43.00000 207.870
43.04000 199.366
43.08000 188.170
43.12000 200.825
43.16000 200.613
43.20000 195.193
43.24000 191.559
43.28000 173.455
43.32000 189.851
43.36000 188.906
43.40000 204.386
43.44000 186.664
43.48000 193.633
43.52000 190.567
43.56000 191.035
43.60000 186.384
43.64000 194.227
43.68000 202.387
43.72000 190.215
43.76000 198.917
43.80000 201.586
43.84000 198.309
43.88000 192.948
43.92000 184.389
43.96000 193.888
44.00000 181.238
44.04000 192.889
44.08000 200.424
44.12000 182.357
44.16000 186.084
44.20000 192.292
44.24000 195.263
44.28000 187.908
44.32000 197.307
44.36000 193.608
44.40000 190.610
44.44000 198.126
44.48000 205.352
44.52000 203.244
44.56000 208.751
44.60000 210.177
44.64000 214.740
44.68000 219.724
44.72000 214.959
44.76000 213.058
44.80000 215.848
44.84000 219.524
44.88000 219.581
44.92000 227.195
44.96000 224.035
45.00000 216.707
45.04000 233.380
45.08000 227.993
45.12000 226.794
45.16000 221.074
45.20000 225.726
45.24000 219.427
45.28000 218.251
45.32000 203.911
45.36000 214.926
45.40000 207.897
45.44000 207.073
45.48000 200.865
45.52000 205.403
45.56000 193.002
45.60000 193.777
45.64000 200.334
45.68000 177.962
45.72000 187.092
45.76000 192.061
45.80000 175.775
45.84000 180.488
45.88000 175.215
45.92000 177.292
45.96000 189.600
46.00000 183.334
46.04000 179.202
46.08000 169.195
46.12000 174.708
46.16000 163.478
46.20000 187.126
46.24000 178.407
46.28000 163.918
46.32000 178.662
46.36000 172.358
46.40000 178.323
46.44000 185.487
46.48000 182.168
46.52000 171.193
46.56000 170.988
46.60000 174.448
46.64000 169.518
46.68000 169.762
46.72000 176.034
46.76000 180.528
46.80000 169.559
46.84000 169.979
46.88000 180.642
46.92000 164.651
46.96000 163.857
47.00000 168.745
47.04000 178.402
47.08000 166.598
47.12000 171.278
47.16000 171.544
47.20000 160.563
47.24000 169.712
47.28000 163.027
47.32000 166.897
47.36000 161.533
47.40000 151.577
47.44000 158.498
47.48000 167.415
47.52000 161.787
47.56000 161.683
47.60000 161.551
47.64000 178.751
47.68000 160.363
47.72000 160.700
47.76000 164.756
47.80000 159.546
47.84000 168.197
47.88000 170.332
47.92000 154.301
47.96000 151.182
48.00000 161.457
48.04000 153.000
48.08000 163.244
48.12000 152.857
48.16000 151.690
48.20000 156.232
48.24000 144.778
48.28000 150.640
48.32000 148.800
48.36000 160.613
48.40000 161.248
48.44000 158.234
48.48000 158.338
48.52000 161.005
48.56000 154.906
48.60000 156.863
48.64000 160.340
48.68000 164.206
48.72000 162.607
48.76000 163.395
48.80000 162.083
48.84000 163.125
48.88000 160.621
48.92000 154.629
48.96000 151.231
49.00000 159.291
49.04000 163.463
49.08000 141.284
49.12000 161.454
49.16000 163.350
49.20000 158.254
49.24000 144.132
49.28000 153.675
49.32000 156.309
49.36000 157.262
49.40000 154.065
49.44000 152.128
49.48000 151.921
49.52000 154.769
49.56000 144.277
49.60000 154.875
49.64000 163.513
49.68000 154.378
49.72000 155.963
49.76000 151.920
49.80000 165.168
49.84000 149.706
49.88000 154.268
49.92000 144.980
49.96000 152.514
50.00000 155.961
50.04000 142.040
50.08000 136.227
50.12000 155.977
50.16000 157.709
50.20000 146.704
50.24000 149.548
50.28000 152.235
50.32000 148.115
50.36000 146.859
50.40000 158.855
50.44000 169.753
50.48000 158.583
50.52000 159.736
50.56000 163.273
50.60000 162.584
50.64000 157.556
50.68000 158.384
50.72000 157.015
50.76000 149.468
50.80000 160.869
50.84000 178.393
50.88000 157.067
50.92000 155.883
50.96000 148.023
51.00000 151.698
51.04000 142.327
51.08000 154.931
51.12000 154.639
51.16000 142.902
51.20000 151.293
51.24000 143.251
51.28000 149.209
51.32000 144.084
51.36000 133.297
51.40000 142.100
51.44000 142.205
51.48000 144.025
51.52000 143.382
51.56000 157.338
51.60000 148.745
51.64000 139.305
51.68000 135.689
51.72000 134.286
51.76000 137.048
51.80000 151.306
51.84000 144.420
51.88000 145.308
51.92000 144.619
51.96000 143.900
52.00000 142.237
52.04000 135.212
52.08000 141.889
52.12000 131.782
52.16000 141.684
52.20000 140.515
52.24000 141.468
52.28000 133.002
52.32000 146.672
52.36000 146.492
52.40000 124.163
52.44000 142.304
52.48000 138.751
52.52000 146.692
52.56000 141.016
52.60000 131.141
52.64000 134.893
52.68000 139.634
52.72000 151.780
52.76000 145.258
52.80000 138.941
52.84000 135.633
52.88000 135.993
52.92000 124.625
52.96000 138.937
53.00000 126.417
53.04000 123.500
53.08000 137.781
53.12000 143.368
53.16000 138.392
53.20000 147.158
53.24000 140.135
53.28000 149.436
53.32000 138.046
53.36000 147.528
53.40000 148.998
53.44000 141.341
53.48000 152.386
53.52000 138.263
53.56000 146.053
53.60000 137.100
53.64000 149.941
53.68000 140.831
53.72000 137.770
53.76000 136.709
53.80000 140.174
53.84000 134.991
53.88000 132.509
53.92000 138.476
53.96000 141.659
54.00000 145.776
54.04000 131.490
54.08000 143.308
54.12000 136.452
54.16000 137.243
54.20000 134.764
54.24000 130.274
54.28000 131.981
54.32000 136.742
54.36000 144.879
54.40000 134.933
54.44000 131.202
54.48000 129.574
54.52000 137.450
54.56000 153.375
54.60000 127.522
54.64000 134.847
54.68000 135.916
54.72000 132.949
54.76000 131.369
54.80000 143.132
54.84000 141.625
54.88000 146.054
54.92000 146.203
54.96000 146.057
55.00000 143.485
55.04000 143.117
55.08000 139.030
55.12000 144.372
55.16000 140.732
55.20000 145.849
55.24000 155.329
55.28000 143.262
55.32000 142.984
55.36000 155.153
55.40000 165.081
55.44000 170.051
55.48000 178.914
55.52000 180.271
55.56000 200.463
55.60000 208.222
55.64000 224.498
55.68000 243.910
55.72000 268.485
55.76000 296.811
55.80000 324.833
55.84000 353.001
55.88000 362.456
55.92000 391.153
55.96000 387.277
56.00000 378.349
56.04000 374.244
56.08000 364.620
56.12000 331.249
56.16000 285.728
56.20000 278.069
56.24000 245.937
56.28000 221.788
56.32000 210.591
56.36000 193.845
56.40000 180.442
56.44000 163.451
56.48000 158.892
56.52000 161.096
56.56000 165.579
56.60000 149.736
56.64000 145.385
56.68000 151.009
56.72000 142.776
56.76000 140.008
56.80000 143.150
56.84000 137.181
56.88000 150.702
56.92000 129.779
56.96000 127.755
57.00000 141.618
57.04000 133.530
57.08000 139.344
57.12000 131.753
57.16000 125.285
57.20000 131.493
57.24000 130.122
57.28000 132.699
57.32000 140.899
57.36000 139.337
57.40000 107.791
57.44000 128.786
57.48000 125.625
57.52000 125.384
57.56000 133.761
57.60000 118.000
57.64000 123.755
57.68000 120.483
57.72000 132.501
57.76000 125.015
57.80000 128.556
57.84000 130.144
57.88000 126.944
57.92000 131.285
57.96000 123.437
58.00000 132.543
58.04000 129.922
58.08000 131.058
58.12000 123.314
58.16000 127.417
58.20000 126.616
58.24000 129.443
58.28000 114.758
58.32000 119.181
58.36000 115.880
58.40000 124.388
58.44000 109.300
58.48000 117.720
58.52000 114.635
58.56000 121.297
58.60000 119.930
58.64000 113.275
58.68000 119.414
58.72000 121.519
58.76000 117.357
58.80000 112.932
58.84000 103.626
58.88000 113.993
58.92000 121.157
58.96000 117.875
59.00000 116.487
59.04000 110.459
59.08000 118.184
59.12000 119.269
59.16000 121.893
59.20000 122.141
59.24000 129.693
59.28000 120.429
59.32000 113.852
59.36000 106.984
59.40000 121.030
59.44000 120.418
59.48000 126.988
59.52000 115.041
59.56000 117.644
59.60000 118.871
59.64000 118.136
59.68000 115.445
59.72000 112.729
59.76000 129.106
59.80000 112.084
59.84000 116.803
59.88000 122.059
59.92000 116.067
59.96000 119.132
60.00000 125.166
60.04000 113.635
60.08000 107.476
60.12000 123.370
60.16000 120.296
60.20000 111.885
60.24000 116.541
60.28000 119.377
60.32000 120.260
60.36000 114.018
60.40000 111.405
60.44000 113.906
60.48000 112.083
60.52000 120.218
60.56000 120.209
60.60000 121.669
60.64000 114.417
60.68000 108.678
60.72000 113.141
60.76000 112.857
60.80000 120.882
60.84000 114.689
60.88000 120.370
60.92000 111.910
60.96000 126.149
61.00000 126.874
61.04000 114.053
61.08000 118.920
61.12000 114.035
61.16000 118.789
61.20000 124.816
61.24000 131.879
61.28000 121.426
61.32000 121.330
61.36000 126.942
61.40000 136.519
61.44000 121.326
61.48000 127.724
61.52000 157.146
61.56000 200.960
61.60000 248.509
61.64000 278.279
61.68000 297.698
61.72000 289.766
61.76000 286.666
61.80000 219.542
61.84000 158.746
61.88000 152.816
61.92000 139.447
61.96000 129.213
62.00000 130.425
62.04000 124.795
62.08000 124.089
62.12000 135.620
62.16000 136.364
62.20000 131.514
62.24000 133.816
62.28000 128.567
62.32000 126.116
62.36000 133.616
62.40000 137.906
62.44000 134.271
62.48000 122.038
62.52000 127.419
62.56000 114.505
62.60000 132.889
62.64000 132.820
62.68000 128.457
62.72000 132.600
62.76000 133.749
62.80000 121.434
62.84000 125.734
62.88000 128.238
62.92000 139.761
62.96000 128.533
63.00000 122.875
63.04000 124.047
63.08000 126.585
63.12000 125.102
63.16000 137.588
63.20000 136.630
63.24000 132.285
63.28000 133.038
63.32000 134.819
63.36000 136.639
63.40000 122.491
63.44000 134.461
63.48000 128.729
63.52000 134.819
63.56000 134.884
63.60000 130.910
63.64000 144.725
63.68000 138.018
63.72000 147.219
63.76000 140.559
63.80000 137.640
63.84000 145.046
63.88000 145.591
63.92000 154.930
63.96000 136.944
64.00000 147.602
64.04000 157.835
64.08000 138.648
64.12000 154.462
64.16000 152.616
64.20000 144.181
64.24000 156.439
64.28000 153.817
64.32000 151.772
64.36000 151.517
64.40000 150.046
64.44000 157.380
64.48000 157.064
64.52000 157.155
64.56000 160.089
64.60000 154.623
64.64000 169.174
64.68000 172.083
64.72000 171.271
64.76000 174.275
64.80000 169.397
64.84000 181.166
64.88000 177.834
64.92000 183.563
64.96000 206.349
65.00000 190.661
65.04000 193.753
65.08000 189.478
65.12000 200.511
65.16000 214.414
65.20000 206.501
65.24000 224.342
65.28000 242.155
65.32000 234.800
65.36000 255.154
65.40000 254.064
65.44000 263.343
65.48000 272.121
65.52000 307.203
65.56000 315.426
65.60000 351.229
65.64000 427.084
65.68000 554.835
65.72000 878.142
65.76000 1369.447
65.80000 1738.582
65.84000 1926.348
65.88000 1977.788
65.92000 1895.640
65.96000 1521.836
66.00000 1054.591
66.04000 663.732
66.08000 476.630
66.12000 405.648
66.16000 376.619
66.20000 367.613
66.24000 392.218
66.28000 452.606
66.32000 527.200
66.36000 590.757
66.40000 627.729
66.44000 622.334
66.48000 625.159
66.52000 542.980
66.56000 449.417
66.60000 381.380
66.64000 359.085
66.68000 349.181
66.72000 346.681
66.76000 357.344
66.80000 349.724
66.84000 357.216
66.88000 362.952
66.92000 372.008
66.96000 368.363
67.00000 378.441
67.04000 390.102
67.08000 380.533
67.12000 388.577
67.16000 394.192
67.20000 371.047
67.24000 386.798
67.28000 394.335
67.32000 421.549
67.36000 406.321
67.40000 414.891
67.44000 406.888
67.48000 404.180
67.52000 426.313
67.56000 430.004
67.60000 430.955
67.64000 461.457
67.68000 429.016
67.72000 437.114
67.76000 439.296
67.80000 453.909
67.84000 467.147
67.88000 476.450
67.92000 478.154
67.96000 488.019
68.00000 501.110
68.04000 513.978
68.08000 508.581
68.12000 507.881
68.16000 521.611
68.20000 545.685
68.24000 551.712
68.28000 539.698
68.32000 587.198
68.36000 619.833
68.40000 644.818
68.44000 643.042
68.48000 677.433
68.52000 692.072
68.56000 747.176
68.60000 818.413
68.64000 965.942
68.68000 1109.563
68.72000 1281.226
68.76000 1450.412
68.80000 1657.155
68.84000 1835.257
68.88000 2205.396
68.92000 3216.710
68.96000 8888.222
69.00000 20732.947
69.04000 33618.715
69.08000 40566.082
69.12000 43304.477
69.16000 46288.059
69.20000 46247.957
69.24000 37435.625
69.28000 27460.094
69.32000 22421.432
69.36000 21017.432
69.40000 17689.797
69.44000 11099.661
69.48000 5016.994
69.52000 2167.250
69.56000 1321.637
69.60000 1070.191
69.64000 917.647
69.68000 821.450
69.72000 735.232
69.76000 667.217
69.80000 635.235
69.84000 594.336
69.88000 547.036
69.92000 528.170
69.96000 514.178
70.00000 495.406