File: XRD/07-10-2025 Dep 6/XY Data/BTO_Mapping_Theta2Theta_07-10-2025_001_38_-8-090_-5-878.xy
20.00000 479.785
20.04000 466.116
20.08000 475.677
20.12000 458.110
20.16000 461.838
20.20000 472.191
20.24000 477.636
20.28000 484.299
20.32000 476.688
20.36000 476.033
20.40000 469.766
20.44000 454.827
20.48000 459.476
20.52000 484.484
20.56000 464.070
20.60000 471.960
20.64000 473.866
20.68000 473.102
20.72000 442.706
20.76000 452.186
20.80000 468.357
20.84000 451.733
20.88000 464.885
20.92000 469.964
20.96000 466.308
21.00000 454.481
21.04000 484.095
21.08000 461.776
21.12000 476.380
21.16000 460.335
21.20000 462.634
21.24000 454.857
21.28000 460.946
21.32000 457.829
21.36000 420.851
21.40000 457.682
21.44000 454.924
21.48000 449.048
21.52000 445.004
21.56000 485.674
21.60000 466.504
21.64000 456.286
21.68000 461.509
21.72000 470.749
21.76000 474.880
21.80000 480.795
21.84000 497.397
21.88000 489.392
21.92000 515.811
21.96000 491.967
22.00000 545.978
22.04000 546.177
22.08000 554.064
22.12000 563.405
22.16000 533.063
22.20000 511.771
22.24000 514.974
22.28000 510.793
22.32000 489.543
22.36000 496.298
22.40000 469.746
22.44000 476.589
22.48000 471.600
22.52000 441.643
22.56000 445.860
22.60000 425.122
22.64000 439.446
22.68000 436.858
22.72000 449.858
22.76000 432.060
22.80000 459.927
22.84000 445.167
22.88000 455.044
22.92000 421.102
22.96000 419.719
23.00000 427.698
23.04000 427.273
23.08000 426.692
23.12000 429.001
23.16000 438.756
23.20000 434.121
23.24000 431.088
23.28000 428.848
23.32000 420.006
23.36000 420.439
23.40000 417.747
23.44000 420.937
23.48000 431.841
23.52000 415.673
23.56000 423.276
23.60000 439.331
23.64000 425.907
23.68000 442.344
23.72000 438.040
23.76000 450.503
23.80000 453.302
23.84000 470.664
23.88000 469.802
23.92000 462.842
23.96000 458.843
24.00000 445.297
24.04000 477.013
24.08000 479.531
24.12000 455.134
24.16000 453.229
24.20000 438.327
24.24000 443.929
24.28000 436.980
24.32000 429.702
24.36000 412.191
24.40000 417.774
24.44000 411.281
24.48000 408.384
24.52000 404.577
24.56000 419.108
24.60000 402.180
24.64000 402.129
24.68000 410.519
24.72000 404.005
24.76000 417.547
24.80000 420.331
24.84000 396.687
24.88000 404.247
24.92000 405.861
24.96000 414.720
25.00000 405.634
25.04000 399.137
25.08000 392.650
25.12000 406.689
25.16000 406.182
25.20000 404.104
25.24000 396.936
25.28000 405.523
25.32000 394.200
25.36000 390.634
25.40000 403.620
25.44000 373.735
25.48000 379.668
25.52000 407.624
25.56000 386.059
25.60000 380.631
25.64000 388.469
25.68000 390.788
25.72000 390.198
25.76000 387.028
25.80000 400.225
25.84000 385.992
25.88000 387.646
25.92000 396.354
25.96000 395.382
26.00000 395.625
26.04000 379.807
26.08000 388.073
26.12000 385.458
26.16000 383.198
26.20000 371.850
26.24000 370.072
26.28000 382.720
26.32000 381.968
26.36000 390.070
26.40000 410.322
26.44000 390.373
26.48000 376.043
26.52000 379.044
26.56000 377.319
26.60000 374.584
26.64000 381.595
26.68000 367.303
26.72000 365.794
26.76000 364.825
26.80000 372.716
26.84000 367.447
26.88000 366.921
26.92000 367.645
26.96000 372.655
27.00000 363.933
27.04000 388.400
27.08000 369.121
27.12000 352.583
27.16000 367.767
27.20000 362.438
27.24000 358.611
27.28000 358.340
27.32000 374.940
27.36000 359.434
27.40000 367.487
27.44000 367.258
27.48000 366.596
27.52000 370.076
27.56000 378.718
27.60000 384.192
27.64000 366.485
27.68000 355.886
27.72000 368.369
27.76000 359.644
27.80000 357.971
27.84000 349.630
27.88000 376.242
27.92000 362.359
27.96000 371.810
28.00000 371.335
28.04000 353.653
28.08000 365.459
28.12000 364.935
28.16000 349.720
28.20000 375.790
28.24000 355.270
28.28000 363.734
28.32000 357.548
28.36000 353.522
28.40000 363.877
28.44000 363.256
28.48000 351.800
28.52000 341.837
28.56000 359.380
28.60000 349.965
28.64000 361.244
28.68000 345.633
28.72000 348.759
28.76000 334.905
28.80000 339.462
28.84000 352.297
28.88000 335.782
28.92000 358.006
28.96000 352.238
29.00000 340.594
29.04000 349.159
29.08000 342.911
29.12000 352.641
29.16000 356.262
29.20000 345.994
29.24000 353.786
29.28000 332.567
29.32000 349.362
29.36000 331.552
29.40000 340.311
29.44000 338.608
29.48000 353.605
29.52000 367.555
29.56000 332.300
29.60000 357.755
29.64000 340.761
29.68000 353.537
29.72000 356.757
29.76000 350.599
29.80000 368.730
29.84000 347.574
29.88000 360.661
29.92000 386.277
29.96000 407.126
30.00000 385.520
30.04000 387.684
30.08000 388.353
30.12000 377.010
30.16000 385.353
30.20000 374.241
30.24000 359.758
30.28000 372.266
30.32000 356.678
30.36000 352.960
30.40000 354.235
30.44000 362.288
30.48000 361.942
30.52000 351.188
30.56000 347.221
30.60000 345.247
30.64000 347.055
30.68000 349.943
30.72000 371.085
30.76000 368.229
30.80000 368.737
30.84000 369.733
30.88000 380.103
30.92000 417.706
30.96000 415.894
31.00000 439.729
31.04000 485.466
31.08000 559.985
31.12000 636.927
31.16000 751.567
31.20000 886.442
31.24000 1060.502
31.28000 1193.058
31.32000 1259.466
31.36000 1352.470
31.40000 1294.853
31.44000 1218.268
31.48000 1097.466
31.52000 970.057
31.56000 775.107
31.60000 669.810
31.64000 567.196
31.68000 487.731
31.72000 452.191
31.76000 410.520
31.80000 399.734
31.84000 377.907
31.88000 372.571
31.92000 358.324
31.96000 348.300
32.00000 351.189
32.04000 353.233
32.08000 342.322
32.12000 332.030
32.16000 337.599
32.20000 326.259
32.24000 336.239
32.28000 335.402
32.32000 322.615
32.36000 331.064
32.40000 325.217
32.44000 314.292
32.48000 312.213
32.52000 313.981
32.56000 298.503
32.60000 313.751
32.64000 314.111
32.68000 309.743
32.72000 303.463
32.76000 310.516
32.80000 336.669
32.84000 384.950
32.88000 454.912
32.92000 477.584
32.96000 522.054
33.00000 506.172
33.04000 489.440
33.08000 415.609
33.12000 381.249
33.16000 335.523
33.20000 300.956
33.24000 295.515
33.28000 294.898
33.32000 301.251
33.36000 292.528
33.40000 305.432
33.44000 298.765
33.48000 300.778
33.52000 293.562
33.56000 288.089
33.60000 293.318
33.64000 280.936
33.68000 289.494
33.72000 303.787
33.76000 296.582
33.80000 302.605
33.84000 303.004
33.88000 292.362
33.92000 296.923
33.96000 294.459
34.00000 295.348
34.04000 309.551
34.08000 308.348
34.12000 294.622
34.16000 320.083
34.20000 328.422
34.24000 333.252
34.28000 299.557
34.32000 322.838
34.36000 320.865
34.40000 334.979
34.44000 309.001
34.48000 314.626
34.52000 314.159
34.56000 302.413
34.60000 289.167
34.64000 286.516
34.68000 290.299
34.72000 282.776
34.76000 293.122
34.80000 282.387
34.84000 276.240
34.88000 271.037
34.92000 276.388
34.96000 278.143
35.00000 272.308
35.04000 272.018
35.08000 267.302
35.12000 264.097
35.16000 270.449
35.20000 272.483
35.24000 258.230
35.28000 251.125
35.32000 264.857
35.36000 275.440
35.40000 271.812
35.44000 269.464
35.48000 259.720
35.52000 262.210
35.56000 265.303
35.60000 268.358
35.64000 262.385
35.68000 252.851
35.72000 255.263
35.76000 237.121
35.80000 248.530
35.84000 258.760
35.88000 262.293
35.92000 248.607
35.96000 258.775
36.00000 256.236
36.04000 246.759
36.08000 258.147
36.12000 256.150
36.16000 253.248
36.20000 247.515
36.24000 243.963
36.28000 246.109
36.32000 256.972
36.36000 256.128
36.40000 253.199
36.44000 254.962
36.48000 237.232
36.52000 262.296
36.56000 248.193
36.60000 254.491
36.64000 258.902
36.68000 247.740
36.72000 261.727
36.76000 263.776
36.80000 264.424
36.84000 261.127
36.88000 273.213
36.92000 271.516
36.96000 280.233
37.00000 275.019
37.04000 278.383
37.08000 277.929
37.12000 277.490
37.16000 272.945
37.20000 268.569
37.24000 256.328
37.28000 254.949
37.32000 259.915
37.36000 255.890
37.40000 257.216
37.44000 268.805
37.48000 252.675
37.52000 251.135
37.56000 248.813
37.60000 243.114
37.64000 261.207
37.68000 246.849
37.72000 254.887
37.76000 257.936
37.80000 251.212
37.84000 254.775
37.88000 247.056
37.92000 261.378
37.96000 245.220
38.00000 258.939
38.04000 257.279
38.08000 264.144
38.12000 257.223
38.16000 261.021
38.20000 268.250
38.24000 277.408
38.28000 274.509
38.32000 293.142
38.36000 331.186
38.40000 378.795
38.44000 436.624
38.48000 515.647
38.52000 611.466
38.56000 717.408
38.60000 844.462
38.64000 963.724
38.68000 1015.048
38.72000 1039.544
38.76000 1036.292
38.80000 992.500
38.84000 869.647
38.88000 709.683
38.92000 610.834
38.96000 498.158
39.00000 403.514
39.04000 339.893
39.08000 292.613
39.12000 262.077
39.16000 259.383
39.20000 250.561
39.24000 241.380
39.28000 243.506
39.32000 253.690
39.36000 231.764
39.40000 229.534
39.44000 229.651
39.48000 236.069
39.52000 244.609
39.56000 242.694
39.60000 228.639
39.64000 229.930
39.68000 217.557
39.72000 227.176
39.76000 229.756
39.80000 218.902
39.84000 221.055
39.88000 230.921
39.92000 222.515
39.96000 226.955
40.00000 221.289
40.04000 220.674
40.08000 225.677
40.12000 216.987
40.16000 211.192
40.20000 212.725
40.24000 218.899
40.28000 209.009
40.32000 215.349
40.36000 214.861
40.40000 225.208
40.44000 216.625
40.48000 224.523
40.52000 218.991
40.56000 226.574
40.60000 211.656
40.64000 211.469
40.68000 205.630
40.72000 215.080
40.76000 208.793
40.80000 212.492
40.84000 225.385
40.88000 208.125
40.92000 207.332
40.96000 214.834
41.00000 209.769
41.04000 203.322
41.08000 212.195
41.12000 215.616
41.16000 213.933
41.20000 205.756
41.24000 207.057
41.28000 210.429
41.32000 207.617
41.36000 208.389
41.40000 208.742
41.44000 209.061
41.48000 201.285
41.52000 217.257
41.56000 204.968
41.60000 207.475
41.64000 201.867
41.68000 208.570
41.72000 213.574
41.76000 195.438
41.80000 205.888
41.84000 195.469
41.88000 201.161
41.92000 196.217
41.96000 206.277
42.00000 190.439
42.04000 205.341
42.08000 205.434
42.12000 199.717
42.16000 206.427
42.20000 204.405
42.24000 187.215
42.28000 203.113
42.32000 196.536
42.36000 196.594
42.40000 220.113
42.44000 219.377
42.48000 207.887
42.52000 196.614
42.56000 201.563
42.60000 208.072
42.64000 190.487
42.68000 205.333
42.72000 214.050
42.76000 191.523
42.80000 210.959
42.84000 218.950
42.88000 192.079
42.92000 186.611
42.96000 195.217
43.00000 198.788
43.04000 194.428
43.08000 192.144
43.12000 203.315
43.16000 202.431
43.20000 193.819
43.24000 197.254
43.28000 207.409
43.32000 184.362
43.36000 185.342
43.40000 197.242
43.44000 186.015
43.48000 195.195
43.52000 180.662
43.56000 201.924
43.60000 198.015
43.64000 193.078
43.68000 184.492
43.72000 184.798
43.76000 185.381
43.80000 175.368
43.84000 186.899
43.88000 179.862
43.92000 193.370
43.96000 197.576
44.00000 185.208
44.04000 185.267
44.08000 177.695
44.12000 186.901
44.16000 190.099
44.20000 188.682
44.24000 194.378
44.28000 195.865
44.32000 205.160
44.36000 202.978
44.40000 194.346
44.44000 202.384
44.48000 199.042
44.52000 210.417
44.56000 200.921
44.60000 217.850
44.64000 225.225
44.68000 210.396
44.72000 221.473
44.76000 228.005
44.80000 225.995
44.84000 229.293
44.88000 241.033
44.92000 247.155
44.96000 257.614
45.00000 269.922
45.04000 266.798
45.08000 271.253
45.12000 248.832
45.16000 259.053
45.20000 251.745
45.24000 252.253
45.28000 240.027
45.32000 226.434
45.36000 225.201
45.40000 231.031
45.44000 211.960
45.48000 212.022
45.52000 210.681
45.56000 206.897
45.60000 204.424
45.64000 201.445
45.68000 207.924
45.72000 197.400
45.76000 186.271
45.80000 201.827
45.84000 190.324
45.88000 188.901
45.92000 190.271
45.96000 172.198
46.00000 179.441
46.04000 184.338
46.08000 183.221
46.12000 178.328
46.16000 168.361
46.20000 173.491
46.24000 177.361
46.28000 172.881
46.32000 166.416
46.36000 165.426
46.40000 176.487
46.44000 175.435
46.48000 172.192
46.52000 175.986
46.56000 164.755
46.60000 174.611
46.64000 170.537
46.68000 184.857
46.72000 180.297
46.76000 172.109
46.80000 171.761
46.84000 168.266
46.88000 158.203
46.92000 168.306
46.96000 165.327
47.00000 150.651
47.04000 162.452
47.08000 153.927
47.12000 163.957
47.16000 172.353
47.20000 162.001
47.24000 165.379
47.28000 166.864
47.32000 164.079
47.36000 155.220
47.40000 168.400
47.44000 166.614
47.48000 168.041
47.52000 155.478
47.56000 167.701
47.60000 165.566
47.64000 162.561
47.68000 163.755
47.72000 164.060
47.76000 160.942
47.80000 162.172
47.84000 153.305
47.88000 153.616
47.92000 153.026
47.96000 160.656
48.00000 162.260
48.04000 155.705
48.08000 154.539
48.12000 160.516
48.16000 155.733
48.20000 152.573
48.24000 158.424
48.28000 161.079
48.32000 157.416
48.36000 169.834
48.40000 146.153
48.44000 143.179
48.48000 154.628
48.52000 159.292
48.56000 162.444
48.60000 147.436
48.64000 157.165
48.68000 150.940
48.72000 158.536
48.76000 159.005
48.80000 166.105
48.84000 165.772
48.88000 152.317
48.92000 141.360
48.96000 148.480
49.00000 157.206
49.04000 158.824
49.08000 150.991
49.12000 157.273
49.16000 153.587
49.20000 160.675
49.24000 148.070
49.28000 153.334
49.32000 155.423
49.36000 151.280
49.40000 148.061
49.44000 161.230
49.48000 162.322
49.52000 145.921
49.56000 148.009
49.60000 133.281
49.64000 161.627
49.68000 144.333
49.72000 141.988
49.76000 151.806
49.80000 146.296
49.84000 157.282
49.88000 151.328
49.92000 151.947
49.96000 145.148
50.00000 148.636
50.04000 150.112
50.08000 140.204
50.12000 156.888
50.16000 153.793
50.20000 147.851
50.24000 156.460
50.28000 156.584
50.32000 165.428
50.36000 159.097
50.40000 159.574
50.44000 168.383
50.48000 171.608
50.52000 180.488
50.56000 171.751
50.60000 177.970
50.64000 185.070
50.68000 180.956
50.72000 172.461
50.76000 175.920
50.80000 176.576
50.84000 178.704
50.88000 172.329
50.92000 154.577
50.96000 158.605
51.00000 160.560
51.04000 162.976
51.08000 149.859
51.12000 146.719
51.16000 153.502
51.20000 145.099
51.24000 147.672
51.28000 141.210
51.32000 137.174
51.36000 139.695
51.40000 145.297
51.44000 147.903
51.48000 144.652
51.52000 136.823
51.56000 130.708
51.60000 138.031
51.64000 138.149
51.68000 133.195
51.72000 144.553
51.76000 140.997
51.80000 146.461
51.84000 141.894
51.88000 143.028
51.92000 136.580
51.96000 135.073
52.00000 140.724
52.04000 141.750
52.08000 135.483
52.12000 132.711
52.16000 142.119
52.20000 139.504
52.24000 138.623
52.28000 142.435
52.32000 137.131
52.36000 134.356
52.40000 134.461
52.44000 129.807
52.48000 130.837
52.52000 143.224
52.56000 146.012
52.60000 141.865
52.64000 131.112
52.68000 138.034
52.72000 131.020
52.76000 138.970
52.80000 134.220
52.84000 137.594
52.88000 132.648
52.92000 147.795
52.96000 132.484
53.00000 138.519
53.04000 143.041
53.08000 148.134
53.12000 142.107
53.16000 142.486
53.20000 145.821
53.24000 160.358
53.28000 153.035
53.32000 153.502
53.36000 148.068
53.40000 156.961
53.44000 159.644
53.48000 153.967
53.52000 155.759
53.56000 149.463
53.60000 143.928
53.64000 148.778
53.68000 150.963
53.72000 147.473
53.76000 140.017
53.80000 150.198
53.84000 133.895
53.88000 142.338
53.92000 146.610
53.96000 140.291
54.00000 137.801
54.04000 134.328
54.08000 133.623
54.12000 135.113
54.16000 135.250
54.20000 134.160
54.24000 127.018
54.28000 135.363
54.32000 143.440
54.36000 132.013
54.40000 143.050
54.44000 138.190
54.48000 150.730
54.52000 131.687
54.56000 139.792
54.60000 133.260
54.64000 139.262
54.68000 143.066
54.72000 138.214
54.76000 137.267
54.80000 143.598
54.84000 136.832
54.88000 129.610
54.92000 143.410
54.96000 137.461
55.00000 129.305
55.04000 145.923
55.08000 148.865
55.12000 137.975
55.16000 147.656
55.20000 141.122
55.24000 142.358
55.28000 157.882
55.32000 149.814
55.36000 153.919
55.40000 170.700
55.44000 185.227
55.48000 200.559
55.52000 219.495
55.56000 242.697
55.60000 282.109
55.64000 311.613
55.68000 364.101
55.72000 409.737
55.76000 479.805
55.80000 532.416
55.84000 558.594
55.88000 594.438
55.92000 616.467
55.96000 631.060
56.00000 610.978
56.04000 543.786
56.08000 508.898
56.12000 446.898
56.16000 376.407
56.20000 339.671
56.24000 311.176
56.28000 261.442
56.32000 223.867
56.36000 199.416
56.40000 191.532
56.44000 176.681
56.48000 150.972
56.52000 155.553
56.56000 151.572
56.60000 139.622
56.64000 146.606
56.68000 138.094
56.72000 129.467
56.76000 138.033
56.80000 130.598
56.84000 133.369
56.88000 136.413
56.92000 131.929
56.96000 113.058
57.00000 122.011
57.04000 131.222
57.08000 136.619
57.12000 121.023
57.16000 128.535
57.20000 140.794
57.24000 129.593
57.28000 125.889
57.32000 134.425
57.36000 121.609
57.40000 115.493
57.44000 138.150
57.48000 114.120
57.52000 119.201
57.56000 119.571
57.60000 123.878
57.64000 120.571
57.68000 120.174
57.72000 124.601
57.76000 119.734
57.80000 121.791
57.84000 119.354
57.88000 118.348
57.92000 124.364
57.96000 121.788
58.00000 122.521
58.04000 123.842
58.08000 130.521
58.12000 126.667
58.16000 122.834
58.20000 114.223
58.24000 115.267
58.28000 121.015
58.32000 122.944
58.36000 123.561
58.40000 118.080
58.44000 124.294
58.48000 120.901
58.52000 118.622
58.56000 118.632
58.60000 108.613
58.64000 117.704
58.68000 130.244
58.72000 115.068
58.76000 124.788
58.80000 116.711
58.84000 122.651
58.88000 113.834
58.92000 113.319
58.96000 114.439
59.00000 114.313
59.04000 119.529
59.08000 115.183
59.12000 111.898
59.16000 128.305
59.20000 124.389
59.24000 112.550
59.28000 122.750
59.32000 118.490
59.36000 113.259
59.40000 108.612
59.44000 111.656
59.48000 111.892
59.52000 118.959
59.56000 111.037
59.60000 117.404
59.64000 125.072
59.68000 111.072
59.72000 119.962
59.76000 105.312
59.80000 115.956
59.84000 111.804
59.88000 120.806
59.92000 114.257
59.96000 116.589
60.00000 112.867
60.04000 110.033
60.08000 116.792
60.12000 114.206
60.16000 108.881
60.20000 116.565
60.24000 109.905
60.28000 118.626
60.32000 115.539
60.36000 119.930
60.40000 113.080
60.44000 111.757
60.48000 116.317
60.52000 108.807
60.56000 110.067
60.60000 116.450
60.64000 117.646
60.68000 116.561
60.72000 110.468
60.76000 119.858
60.80000 128.627
60.84000 117.821
60.88000 116.560
60.92000 123.470
60.96000 116.046
61.00000 122.607
61.04000 114.996
61.08000 118.137
61.12000 116.811
61.16000 123.649
61.20000 117.023
61.24000 115.708
61.28000 113.983
61.32000 122.077
61.36000 118.912
61.40000 121.884
61.44000 121.800
61.48000 138.746
61.52000 148.983
61.56000 192.476
61.60000 257.349
61.64000 281.821
61.68000 304.737
61.72000 301.688
61.76000 274.730
61.80000 226.216
61.84000 169.167
61.88000 145.154
61.92000 129.986
61.96000 123.501
62.00000 124.215
62.04000 121.416
62.08000 130.199
62.12000 127.508
62.16000 123.714
62.20000 124.354
62.24000 126.061
62.28000 131.802
62.32000 128.172
62.36000 125.241
62.40000 117.366
62.44000 122.500
62.48000 134.758
62.52000 128.460
62.56000 131.488
62.60000 123.382
62.64000 127.812
62.68000 133.545
62.72000 132.490
62.76000 130.277
62.80000 126.155
62.84000 126.443
62.88000 127.590
62.92000 133.968
62.96000 135.190
63.00000 142.660
63.04000 125.149
63.08000 138.071
63.12000 127.494
63.16000 131.420
63.20000 131.022
63.24000 125.854
63.28000 127.211
63.32000 121.545
63.36000 137.520
63.40000 120.036
63.44000 136.430
63.48000 137.233
63.52000 138.250
63.56000 132.542
63.60000 125.854
63.64000 133.816
63.68000 139.573
63.72000 136.685
63.76000 143.661
63.80000 141.833
63.84000 133.366
63.88000 139.244
63.92000 128.624
63.96000 141.389
64.00000 142.178
64.04000 132.260
64.08000 144.051
64.12000 146.953
64.16000 149.607
64.20000 155.858
64.24000 139.524
64.28000 152.513
64.32000 150.010
64.36000 146.987
64.40000 156.022
64.44000 161.889
64.48000 161.587
64.52000 161.424
64.56000 166.944
64.60000 160.558
64.64000 163.204
64.68000 165.394
64.72000 155.145
64.76000 184.775
64.80000 185.001
64.84000 174.993
64.88000 183.488
64.92000 179.480
64.96000 190.671
65.00000 185.530
65.04000 185.918
65.08000 211.071
65.12000 206.176
65.16000 224.245
65.20000 215.902
65.24000 239.698
65.28000 237.761
65.32000 252.161
65.36000 259.319
65.40000 263.524
65.44000 277.988
65.48000 290.238
65.52000 318.016
65.56000 337.519
65.60000 380.573
65.64000 440.105
65.68000 597.929
65.72000 953.913
65.76000 1489.750
65.80000 1823.271
65.84000 1971.727
65.88000 1989.125
65.92000 1907.698
65.96000 1504.542
66.00000 1009.379
66.04000 646.796
66.08000 459.949
66.12000 418.296
66.16000 380.752
66.20000 374.721
66.24000 399.757
66.28000 459.571
66.32000 530.130
66.36000 610.208
66.40000 641.266
66.44000 656.944
66.48000 598.657
66.52000 538.931
66.56000 424.651
66.60000 387.398
66.64000 354.662
66.68000 344.999
66.72000 349.341
66.76000 350.064
66.80000 341.280
66.84000 362.003
66.88000 359.355
66.92000 348.369
66.96000 364.207
67.00000 371.430
67.04000 366.477
67.08000 377.079
67.12000 368.546
67.16000 378.077
67.20000 378.974
67.24000 384.399
67.28000 385.276
67.32000 394.600
67.36000 426.958
67.40000 402.402
67.44000 404.108
67.48000 418.504
67.52000 411.543
67.56000 449.815
67.60000 418.410
67.64000 412.556
67.68000 452.292
67.72000 441.559
67.76000 468.786
67.80000 446.516
67.84000 465.495
67.88000 469.121
67.92000 485.725
67.96000 488.056
68.00000 501.012
68.04000 515.367
68.08000 521.372
68.12000 502.871
68.16000 525.388
68.20000 514.891
68.24000 539.899
68.28000 561.960
68.32000 590.481
68.36000 595.789
68.40000 621.547
68.44000 659.922
68.48000 682.624
68.52000 707.371
68.56000 768.254
68.60000 854.725
68.64000 960.565
68.68000 1137.928
68.72000 1302.667
68.76000 1483.166
68.80000 1625.851
68.84000 1905.521
68.88000 2338.668
68.92000 3604.832
68.96000 10068.588
69.00000 22643.520
69.04000 35366.738
69.08000 41920.535
69.12000 44503.039
69.16000 47488.000
69.20000 46592.500
69.24000 37142.535
69.28000 27581.453
69.32000 22492.559
69.36000 21132.537
69.40000 17380.787
69.44000 10642.938
69.48000 4798.974
69.52000 2118.312
69.56000 1305.434
69.60000 1050.295
69.64000 896.748
69.68000 784.517
69.72000 731.736
69.76000 649.275
69.80000 641.077
69.84000 581.461
69.88000 547.936
69.92000 527.436
69.96000 504.972
70.00000 493.490