File: XRD/07-10-2025 Dep 6/XY Data/BTO_Mapping_Theta2Theta_07-10-2025_001_49_-4-181_-39-781.xy
20.00000 465.980
20.04000 478.251
20.08000 476.118
20.12000 481.727
20.16000 476.829
20.20000 474.610
20.24000 464.621
20.28000 458.680
20.32000 469.376
20.36000 475.477
20.40000 454.335
20.44000 471.355
20.48000 459.906
20.52000 459.282
20.56000 459.551
20.60000 464.185
20.64000 458.822
20.68000 455.930
20.72000 471.693
20.76000 445.174
20.80000 455.329
20.84000 491.527
20.88000 451.517
20.92000 458.927
20.96000 464.458
21.00000 471.570
21.04000 459.345
21.08000 450.415
21.12000 460.930
21.16000 463.332
21.20000 461.677
21.24000 455.711
21.28000 463.447
21.32000 461.604
21.36000 478.945
21.40000 460.639
21.44000 457.881
21.48000 474.519
21.52000 465.250
21.56000 465.367
21.60000 463.547
21.64000 464.292
21.68000 460.342
21.72000 455.495
21.76000 470.324
21.80000 498.493
21.84000 517.356
21.88000 534.097
21.92000 543.240
21.96000 561.451
22.00000 589.590
22.04000 590.285
22.08000 584.353
22.12000 579.423
22.16000 564.071
22.20000 543.118
22.24000 519.736
22.28000 514.662
22.32000 494.017
22.36000 489.622
22.40000 430.177
22.44000 453.321
22.48000 450.094
22.52000 438.285
22.56000 445.562
22.60000 445.342
22.64000 451.862
22.68000 429.282
22.72000 434.119
22.76000 422.955
22.80000 423.881
22.84000 436.732
22.88000 447.235
22.92000 423.291
22.96000 443.162
23.00000 440.130
23.04000 431.320
23.08000 446.636
23.12000 437.019
23.16000 417.354
23.20000 428.169
23.24000 431.752
23.28000 425.014
23.32000 435.696
23.36000 428.601
23.40000 417.906
23.44000 427.661
23.48000 431.055
23.52000 395.880
23.56000 431.726
23.60000 435.792
23.64000 429.870
23.68000 424.566
23.72000 440.796
23.76000 462.844
23.80000 452.794
23.84000 460.039
23.88000 472.052
23.92000 474.263
23.96000 510.400
24.00000 479.395
24.04000 476.280
24.08000 452.955
24.12000 448.025
24.16000 469.463
24.20000 439.147
24.24000 426.124
24.28000 447.901
24.32000 431.154
24.36000 411.052
24.40000 408.814
24.44000 430.142
24.48000 427.519
24.52000 424.237
24.56000 407.276
24.60000 411.725
24.64000 405.272
24.68000 391.745
24.72000 406.494
24.76000 423.525
24.80000 406.915
24.84000 403.382
24.88000 412.616
24.92000 408.224
24.96000 413.223
25.00000 400.307
25.04000 397.889
25.08000 429.666
25.12000 416.598
25.16000 403.931
25.20000 394.228
25.24000 393.267
25.28000 400.827
25.32000 389.562
25.36000 394.271
25.40000 396.629
25.44000 391.302
25.48000 405.172
25.52000 427.325
25.56000 383.551
25.60000 397.820
25.64000 387.219
25.68000 374.803
25.72000 406.791
25.76000 387.169
25.80000 373.875
25.84000 380.538
25.88000 370.745
25.92000 408.190
25.96000 396.786
26.00000 379.706
26.04000 386.377
26.08000 375.794
26.12000 379.953
26.16000 378.244
26.20000 379.148
26.24000 390.189
26.28000 359.248
26.32000 388.492
26.36000 389.222
26.40000 388.477
26.44000 365.946
26.48000 377.832
26.52000 377.022
26.56000 381.619
26.60000 375.303
26.64000 374.220
26.68000 383.399
26.72000 380.999
26.76000 385.247
26.80000 368.087
26.84000 372.134
26.88000 368.277
26.92000 366.725
26.96000 380.559
27.00000 385.605
27.04000 371.406
27.08000 365.912
27.12000 365.082
27.16000 367.539
27.20000 363.137
27.24000 361.946
27.28000 365.555
27.32000 362.698
27.36000 378.706
27.40000 363.204
27.44000 366.805
27.48000 364.074
27.52000 378.428
27.56000 352.293
27.60000 371.305
27.64000 378.507
27.68000 393.010
27.72000 370.536
27.76000 356.515
27.80000 361.532
27.84000 355.692
27.88000 364.271
27.92000 348.959
27.96000 364.400
28.00000 340.964
28.04000 364.253
28.08000 359.783
28.12000 339.341
28.16000 358.228
28.20000 371.312
28.24000 364.930
28.28000 358.446
28.32000 374.051
28.36000 361.484
28.40000 355.439
28.44000 358.113
28.48000 364.590
28.52000 345.954
28.56000 343.595
28.60000 341.249
28.64000 344.229
28.68000 347.624
28.72000 361.267
28.76000 341.224
28.80000 344.988
28.84000 337.565
28.88000 335.523
28.92000 355.648
28.96000 344.782
29.00000 343.758
29.04000 350.611
29.08000 340.098
29.12000 352.171
29.16000 354.978
29.20000 353.143
29.24000 328.956
29.28000 327.803
29.32000 349.937
29.36000 354.828
29.40000 355.668
29.44000 335.826
29.48000 333.514
29.52000 333.535
29.56000 329.780
29.60000 340.227
29.64000 340.611
29.68000 355.727
29.72000 348.878
29.76000 376.844
29.80000 354.307
29.84000 369.469
29.88000 364.627
29.92000 377.281
29.96000 378.664
30.00000 375.563
30.04000 395.648
30.08000 380.391
30.12000 377.211
30.16000 399.522
30.20000 362.221
30.24000 367.067
30.28000 354.796
30.32000 363.949
30.36000 357.893
30.40000 359.954
30.44000 346.396
30.48000 351.310
30.52000 361.244
30.56000 334.446
30.60000 361.675
30.64000 364.187
30.68000 364.875
30.72000 360.278
30.76000 371.174
30.80000 373.704
30.84000 376.911
30.88000 370.384
30.92000 400.818
30.96000 406.696
31.00000 456.451
31.04000 509.820
31.08000 563.106
31.12000 674.071
31.16000 760.900
31.20000 901.504
31.24000 1039.747
31.28000 1165.875
31.32000 1331.275
31.36000 1322.918
31.40000 1307.010
31.44000 1262.318
31.48000 1119.345
31.52000 927.308
31.56000 789.036
31.60000 643.747
31.64000 564.333
31.68000 491.322
31.72000 439.608
31.76000 411.694
31.80000 378.317
31.84000 386.818
31.88000 373.235
31.92000 352.476
31.96000 334.361
32.00000 328.731
32.04000 332.697
32.08000 327.409
32.12000 333.588
32.16000 340.331
32.20000 343.531
32.24000 320.318
32.28000 317.050
32.32000 331.786
32.36000 313.556
32.40000 317.344
32.44000 298.265
32.48000 316.727
32.52000 310.538
32.56000 315.267
32.60000 310.503
32.64000 309.773
32.68000 313.279
32.72000 318.700
32.76000 313.069
32.80000 342.484
32.84000 374.628
32.88000 439.675
32.92000 474.597
32.96000 504.708
33.00000 506.517
33.04000 486.504
33.08000 428.646
33.12000 367.168
33.16000 315.129
33.20000 306.783
33.24000 293.693
33.28000 304.126
33.32000 293.830
33.36000 293.838
33.40000 302.673
33.44000 286.624
33.48000 299.515
33.52000 293.510
33.56000 291.276
33.60000 297.907
33.64000 291.445
33.68000 302.532
33.72000 304.049
33.76000 286.360
33.80000 289.167
33.84000 302.574
33.88000 313.646
33.92000 295.863
33.96000 302.851
34.00000 291.457
34.04000 292.217
34.08000 298.108
34.12000 299.388
34.16000 316.013
34.20000 327.604
34.24000 330.670
34.28000 318.450
34.32000 328.438
34.36000 309.431
34.40000 305.890
34.44000 308.000
34.48000 315.139
34.52000 321.918
34.56000 298.261
34.60000 303.281
34.64000 293.638
34.68000 291.906
34.72000 286.554
34.76000 280.383
34.80000 285.212
34.84000 288.584
34.88000 279.677
34.92000 269.057
34.96000 291.832
35.00000 269.048
35.04000 253.934
35.08000 273.647
35.12000 272.756
35.16000 269.346
35.20000 262.354
35.24000 248.223
35.28000 269.374
35.32000 269.952
35.36000 264.666
35.40000 270.606
35.44000 271.855
35.48000 266.878
35.52000 261.345
35.56000 261.671
35.60000 259.319
35.64000 257.836
35.68000 271.518
35.72000 256.540
35.76000 256.790
35.80000 262.603
35.84000 259.811
35.88000 262.825
35.92000 254.435
35.96000 264.308
36.00000 256.380
36.04000 268.395
36.08000 263.126
36.12000 249.871
36.16000 259.556
36.20000 266.056
36.24000 254.337
36.28000 251.311
36.32000 238.042
36.36000 254.415
36.40000 239.708
36.44000 254.702
36.48000 259.245
36.52000 258.107
36.56000 256.645
36.60000 248.050
36.64000 239.642
36.68000 270.710
36.72000 261.767
36.76000 261.487
36.80000 255.390
36.84000 236.755
36.88000 256.171
36.92000 255.717
36.96000 291.551
37.00000 291.055
37.04000 283.868
37.08000 287.697
37.12000 275.608
37.16000 278.344
37.20000 279.824
37.24000 263.520
37.28000 272.302
37.32000 251.553
37.36000 274.908
37.40000 253.174
37.44000 237.925
37.48000 261.825
37.52000 258.158
37.56000 264.567
37.60000 243.139
37.64000 249.186
37.68000 245.904
37.72000 238.221
37.76000 259.234
37.80000 240.581
37.84000 249.989
37.88000 256.548
37.92000 262.587
37.96000 242.488
38.00000 247.968
38.04000 258.246
38.08000 256.304
38.12000 269.868
38.16000 263.127
38.20000 276.032
38.24000 267.333
38.28000 291.177
38.32000 291.149
38.36000 321.510
38.40000 376.510
38.44000 454.185
38.48000 524.741
38.52000 615.252
38.56000 764.501
38.60000 868.524
38.64000 964.447
38.68000 1045.848
38.72000 1109.195
38.76000 1070.473
38.80000 987.755
38.84000 887.548
38.88000 763.197
38.92000 616.241
38.96000 514.317
39.00000 401.970
39.04000 337.943
39.08000 292.638
39.12000 280.756
39.16000 256.000
39.20000 243.678
39.24000 251.056
39.28000 241.703
39.32000 237.437
39.36000 234.241
39.40000 238.056
39.44000 229.055
39.48000 231.644
39.52000 233.557
39.56000 234.086
39.60000 228.296
39.64000 222.973
39.68000 224.768
39.72000 225.392
39.76000 248.066
39.80000 231.730
39.84000 232.825
39.88000 215.747
39.92000 214.220
39.96000 224.213
40.00000 223.474
40.04000 222.796
40.08000 232.807
40.12000 215.927
40.16000 211.465
40.20000 212.292
40.24000 208.589
40.28000 225.638
40.32000 222.683
40.36000 220.912
40.40000 225.437
40.44000 226.175
40.48000 207.135
40.52000 213.220
40.56000 213.335
40.60000 210.134
40.64000 218.135
40.68000 219.472
40.72000 224.611
40.76000 210.742
40.80000 216.624
40.84000 203.993
40.88000 213.941
40.92000 212.943
40.96000 212.893
41.00000 209.648
41.04000 208.127
41.08000 214.325
41.12000 204.437
41.16000 217.411
41.20000 205.570
41.24000 213.795
41.28000 217.765
41.32000 201.723
41.36000 219.911
41.40000 207.459
41.44000 215.998
41.48000 205.247
41.52000 197.957
41.56000 208.536
41.60000 218.611
41.64000 214.604
41.68000 200.987
41.72000 190.352
41.76000 200.363
41.80000 203.231
41.84000 202.829
41.88000 209.391
41.92000 216.216
41.96000 206.840
42.00000 205.269
42.04000 202.762
42.08000 215.775
42.12000 215.270
42.16000 211.703
42.20000 209.087
42.24000 217.215
42.28000 199.291
42.32000 209.543
42.36000 221.491
42.40000 218.487
42.44000 196.766
42.48000 207.333
42.52000 215.529
42.56000 198.130
42.60000 190.889
42.64000 205.858
42.68000 200.111
42.72000 213.658
42.76000 210.422
42.80000 201.086
42.84000 203.689
42.88000 210.452
42.92000 212.151
42.96000 214.272
43.00000 199.522
43.04000 195.641
43.08000 199.222
43.12000 199.688
43.16000 203.894
43.20000 196.408
43.24000 205.445
43.28000 187.209
43.32000 193.105
43.36000 204.331
43.40000 190.459
43.44000 193.646
43.48000 196.618
43.52000 191.548
43.56000 198.933
43.60000 188.551
43.64000 193.446
43.68000 194.301
43.72000 180.282
43.76000 182.310
43.80000 206.657
43.84000 198.037
43.88000 196.280
43.92000 198.673
43.96000 195.104
44.00000 206.885
44.04000 193.411
44.08000 182.494
44.12000 199.789
44.16000 194.947
44.20000 193.451
44.24000 198.742
44.28000 198.402
44.32000 190.144
44.36000 196.286
44.40000 204.885
44.44000 209.108
44.48000 204.381
44.52000 212.118
44.56000 206.279
44.60000 221.544
44.64000 199.374
44.68000 218.353
44.72000 234.380
44.76000 239.656
44.80000 246.957
44.84000 276.858
44.88000 267.303
44.92000 257.707
44.96000 298.086
45.00000 296.214
45.04000 310.828
45.08000 317.291
45.12000 302.532
45.16000 277.421
45.20000 274.837
45.24000 266.613
45.28000 248.417
45.32000 247.379
45.36000 221.490
45.40000 212.577
45.44000 210.342
45.48000 201.031
45.52000 207.405
45.56000 193.599
45.60000 203.861
45.64000 197.313
45.68000 189.333
45.72000 184.496
45.76000 188.682
45.80000 191.024
45.84000 191.328
45.88000 191.187
45.92000 182.934
45.96000 179.129
46.00000 174.337
46.04000 179.939
46.08000 183.138
46.12000 187.180
46.16000 181.093
46.20000 173.389
46.24000 170.918
46.28000 184.878
46.32000 176.779
46.36000 174.397
46.40000 176.146
46.44000 173.789
46.48000 176.175
46.52000 176.137
46.56000 176.635
46.60000 170.940
46.64000 178.833
46.68000 184.539
46.72000 178.861
46.76000 175.597
46.80000 181.474
46.84000 183.231
46.88000 162.194
46.92000 166.430
46.96000 174.742
47.00000 168.634
47.04000 154.641
47.08000 158.084
47.12000 163.327
47.16000 163.811
47.20000 161.228
47.24000 161.831
47.28000 156.777
47.32000 164.549
47.36000 155.554
47.40000 159.089
47.44000 158.560
47.48000 157.991
47.52000 172.961
47.56000 152.185
47.60000 160.770
47.64000 146.933
47.68000 165.805
47.72000 161.942
47.76000 157.393
47.80000 167.743
47.84000 165.167
47.88000 162.728
47.92000 171.705
47.96000 166.894
48.00000 163.319
48.04000 161.162
48.08000 157.300
48.12000 151.580
48.16000 160.713
48.20000 156.430
48.24000 163.980
48.28000 155.601
48.32000 159.588
48.36000 153.636
48.40000 153.332
48.44000 145.427
48.48000 152.539
48.52000 157.050
48.56000 156.400
48.60000 149.561
48.64000 170.795
48.68000 160.686
48.72000 149.774
48.76000 164.652
48.80000 162.183
48.84000 155.008
48.88000 149.677
48.92000 146.677
48.96000 151.310
49.00000 154.586
49.04000 161.347
49.08000 142.546
49.12000 160.709
49.16000 161.888
49.20000 153.488
49.24000 153.573
49.28000 156.086
49.32000 159.025
49.36000 142.580
49.40000 144.235
49.44000 156.644
49.48000 157.262
49.52000 156.054
49.56000 145.765
49.60000 152.008
49.64000 152.317
49.68000 151.254
49.72000 142.189
49.76000 152.229
49.80000 151.786
49.84000 150.549
49.88000 152.642
49.92000 158.774
49.96000 157.361
50.00000 149.679
50.04000 153.726
50.08000 160.862
50.12000 151.952
50.16000 155.303
50.20000 152.779
50.24000 146.240
50.28000 157.554
50.32000 151.170
50.36000 158.792
50.40000 162.468
50.44000 166.161
50.48000 163.727
50.52000 155.871
50.56000 192.022
50.60000 173.314
50.64000 168.387
50.68000 171.291
50.72000 167.419
50.76000 168.876
50.80000 166.124
50.84000 174.561
50.88000 159.800
50.92000 159.171
50.96000 159.501
51.00000 168.378
51.04000 154.248
51.08000 145.572
51.12000 153.203
51.16000 142.835
51.20000 147.506
51.24000 148.804
51.28000 143.392
51.32000 140.403
51.36000 148.925
51.40000 135.191
51.44000 141.113
51.48000 145.822
51.52000 140.724
51.56000 132.825
51.60000 139.018
51.64000 138.131
51.68000 156.256
51.72000 144.834
51.76000 146.716
51.80000 142.223
51.84000 132.786
51.88000 131.114
51.92000 146.479
51.96000 140.772
52.00000 132.592
52.04000 138.005
52.08000 134.919
52.12000 136.858
52.16000 136.501
52.20000 147.421
52.24000 138.256
52.28000 145.398
52.32000 142.078
52.36000 136.952
52.40000 133.827
52.44000 135.817
52.48000 147.069
52.52000 132.036
52.56000 135.178
52.60000 146.807
52.64000 146.869
52.68000 138.665
52.72000 126.826
52.76000 134.229
52.80000 138.191
52.84000 154.338
52.88000 140.012
52.92000 140.115
52.96000 135.998
53.00000 147.537
53.04000 138.859
53.08000 138.233
53.12000 145.004
53.16000 155.414
53.20000 150.192
53.24000 152.272
53.28000 149.888
53.32000 154.665
53.36000 165.719
53.40000 160.861
53.44000 147.920
53.48000 151.713
53.52000 146.152
53.56000 151.856
53.60000 158.937
53.64000 135.815
53.68000 145.436
53.72000 138.425
53.76000 140.685
53.80000 143.104
53.84000 146.768
53.88000 139.072
53.92000 140.189
53.96000 136.291
54.00000 145.177
54.04000 141.636
54.08000 136.584
54.12000 137.368
54.16000 135.156
54.20000 138.556
54.24000 135.169
54.28000 132.445
54.32000 135.989
54.36000 141.445
54.40000 141.038
54.44000 135.647
54.48000 139.911
54.52000 135.946
54.56000 144.320
54.60000 139.319
54.64000 133.272
54.68000 132.878
54.72000 140.074
54.76000 145.495
54.80000 134.322
54.84000 151.045
54.88000 140.017
54.92000 142.437
54.96000 145.344
55.00000 141.870
55.04000 149.536
55.08000 156.171
55.12000 140.775
55.16000 151.392
55.20000 158.426
55.24000 158.294
55.28000 155.739
55.32000 177.034
55.36000 175.163
55.40000 185.849
55.44000 203.429
55.48000 210.517
55.52000 224.923
55.56000 257.512
55.60000 296.073
55.64000 342.126
55.68000 401.424
55.72000 431.345
55.76000 511.876
55.80000 567.855
55.84000 604.686
55.88000 650.496
55.92000 668.186
55.96000 649.210
56.00000 627.007
56.04000 560.506
56.08000 541.800
56.12000 460.715
56.16000 410.048
56.20000 338.663
56.24000 291.958
56.28000 264.136
56.32000 225.682
56.36000 210.706
56.40000 181.564
56.44000 174.790
56.48000 162.573
56.52000 149.073
56.56000 163.797
56.60000 144.031
56.64000 150.429
56.68000 133.001
56.72000 136.274
56.76000 140.679
56.80000 139.620
56.84000 132.272
56.88000 143.581
56.92000 129.282
56.96000 139.571
57.00000 121.762
57.04000 129.169
57.08000 127.808
57.12000 126.256
57.16000 133.895
57.20000 134.319
57.24000 123.116
57.28000 122.734
57.32000 130.495
57.36000 132.807
57.40000 131.963
57.44000 126.759
57.48000 135.304
57.52000 120.505
57.56000 128.641
57.60000 125.893
57.64000 126.037
57.68000 123.037
57.72000 129.445
57.76000 124.451
57.80000 124.743
57.84000 123.745
57.88000 123.638
57.92000 125.954
57.96000 119.539
58.00000 120.816
58.04000 125.586
58.08000 121.524
58.12000 121.731
58.16000 112.388
58.20000 122.641
58.24000 114.467
58.28000 128.028
58.32000 120.776
58.36000 118.408
58.40000 130.078
58.44000 119.189
58.48000 125.521
58.52000 127.041
58.56000 117.135
58.60000 114.281
58.64000 120.652
58.68000 121.812
58.72000 119.505
58.76000 117.195
58.80000 114.994
58.84000 127.739
58.88000 113.182
58.92000 120.331
58.96000 126.339
59.00000 116.718
59.04000 119.477
59.08000 114.751
59.12000 123.770
59.16000 115.795
59.20000 107.922
59.24000 113.847
59.28000 114.751
59.32000 117.368
59.36000 116.805
59.40000 116.277
59.44000 110.259
59.48000 114.325
59.52000 105.784
59.56000 111.383
59.60000 124.637
59.64000 117.575
59.68000 111.983
59.72000 105.309
59.76000 111.805
59.80000 117.252
59.84000 112.745
59.88000 119.457
59.92000 120.559
59.96000 109.069
60.00000 130.600
60.04000 120.450
60.08000 118.968
60.12000 124.551
60.16000 123.121
60.20000 113.357
60.24000 112.651
60.28000 116.999
60.32000 123.052
60.36000 114.571
60.40000 108.711
60.44000 114.636
60.48000 125.346
60.52000 108.355
60.56000 120.114
60.60000 122.271
60.64000 114.149
60.68000 117.691
60.72000 127.062
60.76000 115.864
60.80000 107.089
60.84000 117.893
60.88000 115.805
60.92000 121.355
60.96000 120.848
61.00000 117.407
61.04000 118.984
61.08000 118.819
61.12000 121.397
61.16000 118.038
61.20000 112.515
61.24000 120.055
61.28000 118.025
61.32000 125.827
61.36000 124.013
61.40000 123.840
61.44000 124.759
61.48000 132.249
61.52000 150.462
61.56000 188.832
61.60000 239.632
61.64000 277.114
61.68000 277.770
61.72000 276.665
61.76000 263.576
61.80000 215.460
61.84000 158.683
61.88000 145.193
61.92000 137.013
61.96000 128.997
62.00000 125.755
62.04000 128.685
62.08000 118.238
62.12000 129.301
62.16000 122.315
62.20000 131.112
62.24000 129.888
62.28000 135.980
62.32000 126.115
62.36000 123.795
62.40000 124.854
62.44000 126.735
62.48000 123.603
62.52000 129.906
62.56000 129.516
62.60000 128.892
62.64000 128.858
62.68000 132.266
62.72000 127.818
62.76000 125.465
62.80000 125.883
62.84000 129.644
62.88000 122.789
62.92000 137.017
62.96000 129.171
63.00000 131.499
63.04000 137.278
63.08000 135.894
63.12000 128.271
63.16000 139.711
63.20000 124.544
63.24000 137.548
63.28000 124.993
63.32000 146.319
63.36000 137.801
63.40000 121.807
63.44000 134.673
63.48000 134.448
63.52000 136.687
63.56000 127.161
63.60000 141.004
63.64000 127.833
63.68000 135.036
63.72000 130.854
63.76000 145.233
63.80000 143.464
63.84000 139.176
63.88000 136.486
63.92000 137.663
63.96000 148.151
64.00000 140.503
64.04000 144.682
64.08000 147.100
64.12000 141.352
64.16000 145.636
64.20000 143.372
64.24000 154.392
64.28000 150.939
64.32000 155.515
64.36000 154.739
64.40000 142.697
64.44000 150.795
64.48000 164.469
64.52000 154.927
64.56000 167.870
64.60000 166.607
64.64000 175.726
64.68000 156.518
64.72000 179.541
64.76000 157.743
64.80000 174.772
64.84000 162.427
64.88000 184.170
64.92000 176.610
64.96000 161.995
65.00000 188.344
65.04000 196.717
65.08000 191.235
65.12000 203.736
65.16000 213.395
65.20000 209.828
65.24000 220.583
65.28000 240.229
65.32000 250.063
65.36000 248.522
65.40000 279.014
65.44000 273.302
65.48000 293.843
65.52000 296.392
65.56000 324.056
65.60000 364.695
65.64000 424.652
65.68000 566.219
65.72000 896.082
65.76000 1351.438
65.80000 1758.204
65.84000 1960.465
65.88000 1982.242
65.92000 1846.377
65.96000 1479.551
66.00000 991.134
66.04000 653.030
66.08000 464.124
66.12000 395.773
66.16000 361.810
66.20000 361.334
66.24000 363.291
66.28000 429.593
66.32000 530.611
66.36000 577.347
66.40000 613.017
66.44000 618.879
66.48000 591.976
66.52000 498.453
66.56000 432.213
66.60000 370.691
66.64000 338.949
66.68000 336.503
66.72000 341.959
66.76000 342.572
66.80000 333.804
66.84000 336.804
66.88000 346.363
66.92000 355.624
66.96000 343.616
67.00000 361.924
67.04000 370.224
67.08000 365.397
67.12000 372.376
67.16000 382.929
67.20000 373.810
67.24000 391.014
67.28000 375.489
67.32000 377.669
67.36000 402.034
67.40000 398.902
67.44000 404.694
67.48000 401.370
67.52000 410.169
67.56000 414.924
67.60000 424.002
67.64000 424.115
67.68000 433.467
67.72000 417.548
67.76000 435.386
67.80000 435.788
67.84000 446.374
67.88000 434.767
67.92000 476.796
67.96000 479.975
68.00000 463.823
68.04000 492.172
68.08000 519.025
68.12000 505.061
68.16000 529.873
68.20000 512.618
68.24000 530.174
68.28000 544.448
68.32000 582.695
68.36000 598.506
68.40000 590.736
68.44000 632.822
68.48000 643.291
68.52000 693.434
68.56000 739.283
68.60000 804.487
68.64000 940.146
68.68000 1104.495
68.72000 1265.571
68.76000 1400.526
68.80000 1576.776
68.84000 1806.464
68.88000 2207.595
68.92000 3279.360
68.96000 9090.132
69.00000 20833.908
69.04000 33298.773
69.08000 39911.855
69.12000 42855.500
69.16000 45502.492
69.20000 44860.293
69.24000 36203.313
69.28000 26861.508
69.32000 21877.148
69.36000 20421.020
69.40000 16975.916
69.44000 10604.354
69.48000 4898.169
69.52000 2082.106
69.56000 1308.662
69.60000 1062.888
69.64000 899.058
69.68000 760.914
69.72000 684.468
69.76000 657.903
69.80000 621.148
69.84000 569.440
69.88000 532.046
69.92000 517.834
69.96000 490.269
70.00000 497.108