File: XRD/07-10-2025 Dep 6/XY Data/BTO_Mapping_Theta2Theta_07-10-2025_001_48_-3-136_-29-836.xy
20.00000 484.586
20.04000 483.129
20.08000 485.070
20.12000 489.436
20.16000 462.633
20.20000 470.922
20.24000 474.709
20.28000 466.479
20.32000 476.725
20.36000 464.855
20.40000 473.086
20.44000 464.663
20.48000 465.238
20.52000 472.540
20.56000 470.684
20.60000 460.708
20.64000 450.335
20.68000 460.498
20.72000 461.063
20.76000 470.207
20.80000 455.465
20.84000 456.351
20.88000 453.506
20.92000 471.223
20.96000 459.894
21.00000 447.223
21.04000 470.331
21.08000 455.254
21.12000 456.552
21.16000 455.054
21.20000 454.000
21.24000 460.620
21.28000 471.768
21.32000 480.512
21.36000 466.147
21.40000 450.422
21.44000 457.751
21.48000 460.623
21.52000 478.091
21.56000 458.105
21.60000 466.906
21.64000 473.813
21.68000 487.887
21.72000 479.929
21.76000 461.204
21.80000 478.596
21.84000 496.831
21.88000 498.163
21.92000 525.960
21.96000 512.889
22.00000 571.068
22.04000 552.257
22.08000 576.079
22.12000 557.738
22.16000 560.534
22.20000 528.660
22.24000 510.484
22.28000 507.635
22.32000 493.829
22.36000 468.209
22.40000 482.567
22.44000 451.558
22.48000 465.912
22.52000 459.904
22.56000 471.617
22.60000 447.265
22.64000 455.820
22.68000 430.500
22.72000 443.425
22.76000 437.668
22.80000 443.290
22.84000 442.784
22.88000 432.133
22.92000 434.556
22.96000 432.184
23.00000 431.249
23.04000 430.417
23.08000 441.573
23.12000 421.281
23.16000 435.738
23.20000 411.999
23.24000 425.643
23.28000 421.123
23.32000 431.638
23.36000 434.011
23.40000 429.889
23.44000 440.233
23.48000 424.337
23.52000 437.162
23.56000 442.356
23.60000 433.197
23.64000 422.362
23.68000 444.115
23.72000 443.994
23.76000 452.565
23.80000 465.740
23.84000 457.356
23.88000 499.226
23.92000 475.861
23.96000 479.989
24.00000 504.468
24.04000 466.462
24.08000 462.031
24.12000 471.893
24.16000 472.022
24.20000 460.379
24.24000 439.624
24.28000 441.715
24.32000 436.559
24.36000 428.172
24.40000 425.395
24.44000 413.355
24.48000 412.836
24.52000 407.710
24.56000 414.674
24.60000 411.221
24.64000 401.831
24.68000 386.683
24.72000 401.864
24.76000 399.039
24.80000 399.752
24.84000 396.650
24.88000 383.192
24.92000 402.153
24.96000 412.526
25.00000 404.800
25.04000 396.703
25.08000 377.638
25.12000 417.086
25.16000 392.192
25.20000 379.251
25.24000 403.147
25.28000 393.195
25.32000 395.135
25.36000 388.251
25.40000 403.123
25.44000 385.841
25.48000 396.646
25.52000 388.553
25.56000 388.946
25.60000 422.249
25.64000 411.748
25.68000 392.482
25.72000 397.622
25.76000 385.789
25.80000 388.622
25.84000 378.092
25.88000 375.231
25.92000 381.171
25.96000 395.729
26.00000 396.016
26.04000 384.654
26.08000 382.811
26.12000 391.487
26.16000 384.672
26.20000 365.270
26.24000 383.884
26.28000 387.384
26.32000 360.424
26.36000 388.327
26.40000 372.163
26.44000 372.227
26.48000 387.568
26.52000 380.249
26.56000 370.429
26.60000 381.362
26.64000 376.041
26.68000 388.678
26.72000 378.414
26.76000 379.349
26.80000 383.211
26.84000 388.416
26.88000 369.583
26.92000 375.302
26.96000 378.379
27.00000 376.804
27.04000 372.662
27.08000 363.320
27.12000 365.160
27.16000 357.913
27.20000 371.959
27.24000 377.671
27.28000 363.929
27.32000 361.751
27.36000 361.642
27.40000 385.066
27.44000 369.666
27.48000 393.840
27.52000 353.987
27.56000 372.535
27.60000 366.306
27.64000 376.193
27.68000 375.034
27.72000 364.434
27.76000 368.467
27.80000 361.725
27.84000 356.378
27.88000 367.954
27.92000 355.861
27.96000 361.117
28.00000 350.045
28.04000 338.633
28.08000 357.158
28.12000 361.825
28.16000 365.118
28.20000 365.762
28.24000 352.211
28.28000 348.903
28.32000 370.432
28.36000 352.750
28.40000 368.585
28.44000 346.713
28.48000 361.481
28.52000 354.043
28.56000 355.759
28.60000 354.245
28.64000 342.870
28.68000 354.275
28.72000 333.012
28.76000 355.098
28.80000 336.005
28.84000 341.514
28.88000 358.971
28.92000 357.471
28.96000 341.181
29.00000 356.883
29.04000 334.463
29.08000 345.166
29.12000 352.598
29.16000 361.047
29.20000 347.689
29.24000 349.716
29.28000 335.976
29.32000 343.198
29.36000 354.426
29.40000 343.319
29.44000 368.678
29.48000 363.610
29.52000 350.807
29.56000 339.233
29.60000 351.006
29.64000 345.729
29.68000 358.784
29.72000 352.218
29.76000 359.338
29.80000 358.910
29.84000 369.458
29.88000 359.519
29.92000 373.243
29.96000 368.790
30.00000 376.702
30.04000 365.872
30.08000 370.943
30.12000 382.203
30.16000 378.816
30.20000 364.072
30.24000 362.225
30.28000 366.249
30.32000 351.525
30.36000 349.546
30.40000 361.741
30.44000 370.116
30.48000 359.878
30.52000 356.745
30.56000 362.027
30.60000 353.500
30.64000 342.546
30.68000 359.354
30.72000 361.944
30.76000 372.161
30.80000 361.710
30.84000 387.718
30.88000 402.275
30.92000 407.171
30.96000 417.049
31.00000 441.068
31.04000 496.167
31.08000 534.784
31.12000 607.710
31.16000 718.052
31.20000 835.146
31.24000 958.835
31.28000 1069.509
31.32000 1157.136
31.36000 1200.243
31.40000 1198.311
31.44000 1125.858
31.48000 1042.156
31.52000 879.811
31.56000 753.060
31.60000 637.415
31.64000 541.052
31.68000 476.728
31.72000 464.108
31.76000 412.857
31.80000 388.695
31.84000 387.530
31.88000 355.037
31.92000 354.861
31.96000 341.131
32.00000 345.205
32.04000 338.704
32.08000 355.666
32.12000 325.501
32.16000 327.248
32.20000 318.835
32.24000 330.075
32.28000 342.421
32.32000 322.141
32.36000 310.269
32.40000 314.226
32.44000 311.075
32.48000 325.541
32.52000 322.490
32.56000 306.992
32.60000 307.035
32.64000 303.729
32.68000 286.853
32.72000 306.559
32.76000 322.581
32.80000 329.386
32.84000 385.505
32.88000 446.886
32.92000 489.367
32.96000 514.109
33.00000 521.928
33.04000 486.670
33.08000 440.763
33.12000 379.186
33.16000 337.801
33.20000 302.570
33.24000 295.257
33.28000 298.097
33.32000 287.819
33.36000 305.723
33.40000 308.021
33.44000 304.018
33.48000 292.090
33.52000 284.985
33.56000 279.526
33.60000 291.113
33.64000 309.132
33.68000 298.420
33.72000 290.586
33.76000 294.244
33.80000 292.596
33.84000 282.830
33.88000 300.487
33.92000 292.111
33.96000 296.043
34.00000 314.364
34.04000 310.748
34.08000 304.985
34.12000 318.545
34.16000 319.877
34.20000 313.201
34.24000 324.002
34.28000 319.763
34.32000 329.278
34.36000 329.048
34.40000 330.930
34.44000 310.943
34.48000 322.758
34.52000 316.907
34.56000 312.408
34.60000 310.770
34.64000 319.529
34.68000 299.835
34.72000 293.663
34.76000 287.926
34.80000 303.895
34.84000 283.914
34.88000 289.421
34.92000 279.418
34.96000 299.557
35.00000 268.618
35.04000 263.797
35.08000 273.159
35.12000 263.247
35.16000 264.063
35.20000 274.339
35.24000 271.304
35.28000 267.137
35.32000 278.248
35.36000 271.165
35.40000 260.099
35.44000 263.220
35.48000 268.494
35.52000 259.002
35.56000 261.192
35.60000 277.383
35.64000 270.750
35.68000 259.079
35.72000 258.493
35.76000 258.750
35.80000 271.889
35.84000 273.301
35.88000 262.455
35.92000 254.944
35.96000 248.593
36.00000 246.952
36.04000 256.015
36.08000 267.696
36.12000 258.281
36.16000 262.424
36.20000 267.421
36.24000 250.299
36.28000 243.596
36.32000 263.516
36.36000 252.830
36.40000 254.978
36.44000 260.278
36.48000 252.150
36.52000 253.062
36.56000 246.489
36.60000 259.908
36.64000 246.633
36.68000 256.413
36.72000 250.584
36.76000 261.820
36.80000 275.335
36.84000 275.160
36.88000 264.295
36.92000 290.698
36.96000 275.672
37.00000 278.776
37.04000 277.161
37.08000 266.427
37.12000 274.007
37.16000 277.361
37.20000 272.193
37.24000 268.979
37.28000 260.877
37.32000 267.295
37.36000 259.867
37.40000 257.024
37.44000 261.608
37.48000 252.698
37.52000 241.134
37.56000 241.660
37.60000 245.415
37.64000 267.278
37.68000 260.801
37.72000 252.584
37.76000 255.853
37.80000 256.937
37.84000 254.185
37.88000 254.303
37.92000 245.846
37.96000 249.049
38.00000 264.305
38.04000 250.560
38.08000 268.379
38.12000 254.621
38.16000 245.919
38.20000 255.682
38.24000 270.545
38.28000 313.200
38.32000 315.069
38.36000 337.131
38.40000 377.311
38.44000 422.507
38.48000 517.202
38.52000 614.029
38.56000 727.935
38.60000 872.131
38.64000 997.935
38.68000 1093.943
38.72000 1089.504
38.76000 1089.361
38.80000 994.443
38.84000 898.752
38.88000 755.788
38.92000 624.469
38.96000 501.955
39.00000 402.023
39.04000 345.923
39.08000 295.713
39.12000 275.875
39.16000 263.148
39.20000 245.383
39.24000 219.838
39.28000 237.593
39.32000 233.480
39.36000 251.509
39.40000 244.394
39.44000 231.130
39.48000 242.688
39.52000 230.962
39.56000 220.554
39.60000 223.882
39.64000 234.276
39.68000 238.241
39.72000 247.978
39.76000 227.483
39.80000 221.556
39.84000 228.498
39.88000 229.642
39.92000 223.561
39.96000 238.996
40.00000 227.294
40.04000 220.446
40.08000 228.147
40.12000 221.656
40.16000 210.026
40.20000 217.322
40.24000 214.151
40.28000 216.451
40.32000 216.625
40.36000 223.396
40.40000 219.381
40.44000 210.944
40.48000 224.685
40.52000 213.404
40.56000 220.703
40.60000 219.498
40.64000 220.316
40.68000 214.223
40.72000 214.497
40.76000 215.469
40.80000 212.029
40.84000 206.510
40.88000 207.494
40.92000 224.347
40.96000 220.324
41.00000 210.262
41.04000 211.748
41.08000 189.291
41.12000 213.481
41.16000 202.395
41.20000 191.539
41.24000 210.711
41.28000 225.597
41.32000 203.467
41.36000 217.622
41.40000 204.937
41.44000 205.110
41.48000 192.106
41.52000 207.387
41.56000 208.371
41.60000 199.148
41.64000 204.283
41.68000 207.363
41.72000 220.788
41.76000 212.601
41.80000 201.752
41.84000 201.067
41.88000 206.965
41.92000 199.414
41.96000 206.917
42.00000 208.369
42.04000 219.772
42.08000 212.341
42.12000 207.221
42.16000 213.404
42.20000 210.686
42.24000 212.311
42.28000 211.595
42.32000 214.173
42.36000 206.540
42.40000 219.262
42.44000 199.232
42.48000 211.168
42.52000 209.708
42.56000 203.550
42.60000 205.472
42.64000 206.932
42.68000 214.111
42.72000 197.426
42.76000 201.041
42.80000 204.529
42.84000 194.539
42.88000 201.921
42.92000 197.548
42.96000 197.928
43.00000 204.672
43.04000 194.063
43.08000 197.556
43.12000 194.463
43.16000 187.054
43.20000 201.653
43.24000 179.088
43.28000 190.308
43.32000 180.511
43.36000 195.151
43.40000 194.629
43.44000 188.260
43.48000 201.943
43.52000 192.434
43.56000 197.692
43.60000 183.850
43.64000 188.252
43.68000 202.090
43.72000 195.521
43.76000 183.042
43.80000 194.429
43.84000 202.326
43.88000 185.052
43.92000 191.279
43.96000 199.688
44.00000 194.417
44.04000 207.513
44.08000 183.456
44.12000 181.817
44.16000 195.755
44.20000 196.183
44.24000 193.905
44.28000 198.936
44.32000 194.789
44.36000 197.182
44.40000 203.131
44.44000 186.693
44.48000 214.993
44.52000 198.476
44.56000 214.713
44.60000 222.890
44.64000 230.769
44.68000 219.816
44.72000 226.730
44.76000 224.468
44.80000 229.286
44.84000 235.769
44.88000 260.066
44.92000 267.162
44.96000 273.259
45.00000 276.359
45.04000 272.358
45.08000 290.996
45.12000 271.336
45.16000 269.493
45.20000 256.689
45.24000 252.705
45.28000 238.681
45.32000 231.134
45.36000 231.919
45.40000 222.851
45.44000 216.965
45.48000 210.235
45.52000 212.068
45.56000 198.108
45.60000 199.488
45.64000 189.111
45.68000 203.530
45.72000 198.138
45.76000 204.254
45.80000 183.224
45.84000 185.796
45.88000 182.906
45.92000 180.073
45.96000 184.826
46.00000 187.171
46.04000 184.537
46.08000 181.979
46.12000 171.800
46.16000 176.641
46.20000 167.347
46.24000 164.633
46.28000 179.662
46.32000 183.766
46.36000 171.635
46.40000 177.503
46.44000 180.428
46.48000 172.757
46.52000 177.091
46.56000 178.593
46.60000 170.603
46.64000 162.803
46.68000 172.637
46.72000 166.744
46.76000 171.659
46.80000 162.494
46.84000 179.456
46.88000 170.074
46.92000 171.691
46.96000 167.040
47.00000 176.868
47.04000 158.332
47.08000 163.790
47.12000 180.701
47.16000 161.289
47.20000 172.536
47.24000 161.467
47.28000 164.108
47.32000 173.719
47.36000 168.091
47.40000 169.502
47.44000 155.672
47.48000 160.223
47.52000 164.093
47.56000 166.613
47.60000 155.235
47.64000 154.964
47.68000 158.480
47.72000 153.198
47.76000 153.209
47.80000 153.151
47.84000 160.897
47.88000 163.713
47.92000 157.626
47.96000 161.938
48.00000 164.417
48.04000 150.939
48.08000 157.090
48.12000 158.418
48.16000 154.807
48.20000 144.785
48.24000 142.170
48.28000 155.990
48.32000 156.243
48.36000 158.750
48.40000 150.608
48.44000 165.438
48.48000 154.981
48.52000 153.363
48.56000 151.548
48.60000 155.884
48.64000 153.191
48.68000 153.816
48.72000 154.088
48.76000 169.389
48.80000 152.765
48.84000 156.239
48.88000 159.710
48.92000 148.949
48.96000 149.723
49.00000 159.000
49.04000 161.476
49.08000 155.327
49.12000 156.251
49.16000 152.688
49.20000 160.250
49.24000 159.471
49.28000 154.194
49.32000 149.791
49.36000 159.309
49.40000 154.785
49.44000 155.048
49.48000 154.610
49.52000 154.784
49.56000 155.961
49.60000 146.863
49.64000 152.668
49.68000 145.443
49.72000 153.190
49.76000 147.676
49.80000 140.290
49.84000 147.481
49.88000 141.575
49.92000 144.492
49.96000 146.280
50.00000 143.675
50.04000 152.312
50.08000 145.256
50.12000 154.006
50.16000 151.716
50.20000 153.944
50.24000 164.383
50.28000 152.714
50.32000 148.433
50.36000 162.857
50.40000 174.187
50.44000 155.739
50.48000 169.043
50.52000 171.597
50.56000 177.838
50.60000 179.259
50.64000 171.869
50.68000 173.288
50.72000 173.085
50.76000 162.508
50.80000 169.575
50.84000 164.075
50.88000 166.777
50.92000 160.001
50.96000 156.569
51.00000 158.829
51.04000 144.087
51.08000 162.096
51.12000 153.812
51.16000 141.850
51.20000 148.236
51.24000 146.421
51.28000 147.934
51.32000 153.393
51.36000 152.948
51.40000 141.705
51.44000 150.105
51.48000 149.586
51.52000 146.933
51.56000 139.391
51.60000 134.481
51.64000 140.095
51.68000 137.887
51.72000 140.547
51.76000 142.084
51.80000 143.363
51.84000 143.851
51.88000 135.871
51.92000 130.045
51.96000 136.304
52.00000 136.712
52.04000 134.979
52.08000 144.111
52.12000 137.299
52.16000 149.345
52.20000 144.524
52.24000 133.861
52.28000 136.507
52.32000 146.451
52.36000 135.783
52.40000 142.316
52.44000 139.374
52.48000 135.006
52.52000 140.384
52.56000 134.204
52.60000 144.527
52.64000 134.528
52.68000 133.010
52.72000 134.726
52.76000 139.539
52.80000 133.805
52.84000 136.760
52.88000 133.577
52.92000 123.983
52.96000 142.157
53.00000 141.690
53.04000 149.195
53.08000 149.177
53.12000 139.124
53.16000 148.802
53.20000 148.886
53.24000 148.618
53.28000 157.427
53.32000 153.233
53.36000 156.391
53.40000 155.165
53.44000 158.162
53.48000 147.887
53.52000 155.550
53.56000 151.929
53.60000 153.618
53.64000 147.721
53.68000 146.553
53.72000 143.776
53.76000 146.462
53.80000 137.594
53.84000 138.564
53.88000 135.778
53.92000 131.693
53.96000 127.572
54.00000 142.877
54.04000 148.088
54.08000 139.419
54.12000 141.301
54.16000 138.885
54.20000 137.286
54.24000 139.335
54.28000 148.309
54.32000 138.036
54.36000 137.791
54.40000 132.702
54.44000 146.217
54.48000 132.096
54.52000 138.360
54.56000 139.903
54.60000 139.036
54.64000 139.703
54.68000 139.355
54.72000 131.602
54.76000 146.411
54.80000 132.822
54.84000 143.201
54.88000 134.316
54.92000 145.086
54.96000 139.752
55.00000 140.577
55.04000 147.076
55.08000 148.148
55.12000 143.399
55.16000 154.746
55.20000 157.359
55.24000 161.561
55.28000 161.919
55.32000 151.507
55.36000 160.559
55.40000 175.668
55.44000 194.351
55.48000 204.647
55.52000 231.127
55.56000 238.300
55.60000 277.929
55.64000 347.415
55.68000 375.731
55.72000 451.498
55.76000 482.929
55.80000 530.238
55.84000 617.017
55.88000 626.235
55.92000 638.390
55.96000 656.266
56.00000 603.018
56.04000 571.923
56.08000 524.787
56.12000 470.831
56.16000 414.214
56.20000 362.124
56.24000 307.467
56.28000 269.807
56.32000 224.906
56.36000 209.050
56.40000 181.534
56.44000 174.350
56.48000 157.529
56.52000 150.837
56.56000 159.971
56.60000 143.715
56.64000 137.238
56.68000 143.588
56.72000 133.679
56.76000 129.184
56.80000 135.016
56.84000 132.936
56.88000 129.660
56.92000 133.466
56.96000 131.871
57.00000 129.337
57.04000 129.978
57.08000 138.361
57.12000 126.930
57.16000 122.406
57.20000 134.192
57.24000 124.405
57.28000 127.896
57.32000 126.071
57.36000 124.345
57.40000 122.888
57.44000 129.493
57.48000 127.813
57.52000 127.665
57.56000 122.978
57.60000 125.289
57.64000 127.261
57.68000 128.877
57.72000 128.320
57.76000 123.642
57.80000 116.338
57.84000 121.050
57.88000 118.151
57.92000 122.806
57.96000 119.038
58.00000 127.662
58.04000 116.919
58.08000 119.807
58.12000 130.374
58.16000 135.149
58.20000 126.788
58.24000 116.075
58.28000 120.012
58.32000 119.727
58.36000 117.854
58.40000 124.972
58.44000 128.474
58.48000 116.857
58.52000 116.549
58.56000 124.947
58.60000 111.283
58.64000 122.054
58.68000 105.177
58.72000 118.490
58.76000 118.914
58.80000 127.260
58.84000 119.149
58.88000 119.400
58.92000 116.114
58.96000 110.214
59.00000 120.400
59.04000 109.571
59.08000 116.194
59.12000 120.936
59.16000 114.219
59.20000 120.918
59.24000 113.707
59.28000 119.574
59.32000 128.051
59.36000 112.891
59.40000 115.625
59.44000 114.016
59.48000 129.853
59.52000 112.953
59.56000 120.148
59.60000 121.292
59.64000 120.224
59.68000 116.948
59.72000 111.152
59.76000 119.276
59.80000 115.498
59.84000 110.524
59.88000 103.471
59.92000 118.814
59.96000 112.973
60.00000 123.391
60.04000 119.766
60.08000 115.543
60.12000 109.453
60.16000 116.429
60.20000 114.187
60.24000 111.582
60.28000 115.547
60.32000 121.778
60.36000 112.728
60.40000 130.945
60.44000 111.743
60.48000 109.081
60.52000 124.308
60.56000 107.733
60.60000 120.420
60.64000 109.923
60.68000 118.848
60.72000 111.349
60.76000 116.794
60.80000 110.184
60.84000 113.540
60.88000 117.430
60.92000 117.948
60.96000 115.020
61.00000 107.064
61.04000 123.828
61.08000 126.428
61.12000 126.088
61.16000 127.976
61.20000 125.339
61.24000 121.053
61.28000 123.586
61.32000 124.535
61.36000 120.175
61.40000 123.358
61.44000 125.378
61.48000 137.838
61.52000 159.673
61.56000 189.097
61.60000 253.020
61.64000 264.554
61.68000 285.196
61.72000 280.726
61.76000 267.103
61.80000 219.907
61.84000 181.299
61.88000 146.016
61.92000 132.905
61.96000 122.460
62.00000 130.263
62.04000 126.765
62.08000 133.268
62.12000 130.483
62.16000 127.784
62.20000 122.452
62.24000 124.270
62.28000 117.912
62.32000 117.018
62.36000 124.493
62.40000 126.508
62.44000 123.259
62.48000 133.875
62.52000 132.986
62.56000 123.608
62.60000 124.670
62.64000 128.134
62.68000 121.479
62.72000 128.083
62.76000 124.559
62.80000 126.819
62.84000 129.993
62.88000 127.138
62.92000 125.204
62.96000 127.450
63.00000 128.097
63.04000 128.536
63.08000 137.700
63.12000 138.378
63.16000 121.683
63.20000 131.090
63.24000 127.913
63.28000 126.722
63.32000 136.259
63.36000 140.302
63.40000 136.597
63.44000 126.835
63.48000 125.927
63.52000 130.185
63.56000 131.671
63.60000 142.575
63.64000 145.914
63.68000 137.251
63.72000 143.878
63.76000 132.801
63.80000 131.075
63.84000 137.427
63.88000 135.796
63.92000 142.730
63.96000 138.987
64.00000 132.197
64.04000 139.939
64.08000 147.379
64.12000 150.180
64.16000 149.895
64.20000 144.562
64.24000 149.101
64.28000 148.106
64.32000 149.148
64.36000 152.041
64.40000 150.112
64.44000 151.065
64.48000 155.002
64.52000 164.986
64.56000 148.616
64.60000 160.285
64.64000 156.007
64.68000 182.750
64.72000 165.148
64.76000 163.745
64.80000 170.175
64.84000 177.459
64.88000 172.925
64.92000 175.182
64.96000 187.695
65.00000 181.479
65.04000 191.025
65.08000 204.326
65.12000 205.740
65.16000 200.251
65.20000 213.276
65.24000 216.823
65.28000 232.831
65.32000 241.195
65.36000 262.182
65.40000 253.282
65.44000 269.470
65.48000 271.372
65.52000 303.703
65.56000 317.413
65.60000 372.696
65.64000 413.275
65.68000 572.373
65.72000 904.089
65.76000 1392.291
65.80000 1776.895
65.84000 1941.044
65.88000 1941.812
65.92000 1870.934
65.96000 1509.631
66.00000 1023.275
66.04000 664.168
66.08000 466.054
66.12000 389.340
66.16000 383.332
66.20000 361.569
66.24000 373.941
66.28000 434.407
66.32000 541.523
66.36000 588.667
66.40000 609.249
66.44000 612.672
66.48000 588.190
66.52000 515.272
66.56000 437.461
66.60000 366.693
66.64000 351.418
66.68000 346.419
66.72000 332.427
66.76000 353.312
66.80000 351.228
66.84000 338.918
66.88000 349.657
66.92000 348.068
66.96000 358.412
67.00000 365.577
67.04000 379.604
67.08000 380.067
67.12000 369.838
67.16000 364.613
67.20000 373.763
67.24000 371.196
67.28000 394.213
67.32000 381.413
67.36000 397.088
67.40000 386.573
67.44000 400.058
67.48000 426.891
67.52000 427.909
67.56000 424.179
67.60000 430.551
67.64000 439.759
67.68000 454.028
67.72000 457.533
67.76000 445.710
67.80000 442.678
67.84000 463.987
67.88000 462.263
67.92000 469.825
67.96000 488.070
68.00000 492.694
68.04000 497.893
68.08000 509.203
68.12000 522.710
68.16000 526.263
68.20000 535.901
68.24000 550.392
68.28000 561.087
68.32000 568.171
68.36000 592.320
68.40000 598.481
68.44000 634.971
68.48000 670.729
68.52000 698.924
68.56000 748.236
68.60000 811.971
68.64000 945.169
68.68000 1113.378
68.72000 1267.235
68.76000 1452.151
68.80000 1605.464
68.84000 1831.129
68.88000 2242.963
68.92000 3435.904
68.96000 9362.442
69.00000 21432.984
69.04000 33801.582
69.08000 40458.027
69.12000 43118.855
69.16000 45766.328
69.20000 45232.477
69.24000 35980.008
69.28000 26869.928
69.32000 22057.162
69.36000 20531.916
69.40000 16944.154
69.44000 10428.712
69.48000 4726.190
69.52000 2037.487
69.56000 1299.466
69.60000 1026.418
69.64000 905.595
69.68000 767.986
69.72000 695.125
69.76000 627.785
69.80000 625.064
69.84000 596.684
69.88000 543.657
69.92000 521.383
69.96000 469.922
70.00000 488.424