File: XRD/07-10-2025 Dep 6/XY Data/BTO_Mapping_Theta2Theta_07-10-2025_001_40_-24-271_-17-634.xy
20.00000 488.157
20.04000 483.964
20.08000 477.403
20.12000 475.698
20.16000 469.273
20.20000 484.398
20.24000 483.199
20.28000 455.579
20.32000 478.571
20.36000 461.201
20.40000 486.812
20.44000 452.540
20.48000 448.130
20.52000 469.060
20.56000 470.711
20.60000 462.892
20.64000 470.875
20.68000 463.095
20.72000 461.638
20.76000 468.966
20.80000 460.763
20.84000 476.156
20.88000 465.505
20.92000 479.145
20.96000 472.752
21.00000 463.172
21.04000 470.559
21.08000 483.151
21.12000 472.103
21.16000 465.322
21.20000 478.578
21.24000 472.776
21.28000 475.154
21.32000 465.200
21.36000 463.099
21.40000 468.823
21.44000 468.454
21.48000 462.688
21.52000 452.464
21.56000 441.856
21.60000 475.389
21.64000 497.802
21.68000 484.487
21.72000 528.451
21.76000 512.405
21.80000 566.949
21.84000 591.474
21.88000 620.191
21.92000 649.687
21.96000 677.408
22.00000 702.292
22.04000 689.079
22.08000 668.828
22.12000 654.884
22.16000 619.963
22.20000 554.911
22.24000 541.874
22.28000 533.498
22.32000 518.353
22.36000 491.313
22.40000 466.598
22.44000 475.210
22.48000 458.222
22.52000 450.907
22.56000 457.773
22.60000 444.560
22.64000 437.633
22.68000 426.237
22.72000 444.561
22.76000 438.546
22.80000 414.320
22.84000 432.173
22.88000 447.635
22.92000 439.831
22.96000 417.213
23.00000 430.527
23.04000 433.183
23.08000 436.175
23.12000 419.914
23.16000 430.027
23.20000 437.340
23.24000 412.958
23.28000 421.458
23.32000 432.002
23.36000 424.609
23.40000 417.409
23.44000 419.128
23.48000 424.994
23.52000 416.848
23.56000 413.943
23.60000 403.162
23.64000 425.002
23.68000 430.507
23.72000 431.840
23.76000 416.982
23.80000 430.780
23.84000 400.656
23.88000 426.233
23.92000 431.132
23.96000 425.144
24.00000 409.799
24.04000 408.243
24.08000 428.807
24.12000 447.259
24.16000 411.587
24.20000 401.046
24.24000 413.498
24.28000 414.102
24.32000 410.386
24.36000 418.799
24.40000 404.435
24.44000 415.358
24.48000 383.300
24.52000 396.812
24.56000 393.760
24.60000 401.422
24.64000 402.171
24.68000 391.548
24.72000 403.085
24.76000 411.672
24.80000 397.176
24.84000 391.469
24.88000 397.609
24.92000 396.590
24.96000 396.174
25.00000 402.764
25.04000 388.506
25.08000 391.877
25.12000 401.654
25.16000 410.945
25.20000 382.888
25.24000 394.481
25.28000 403.146
25.32000 394.179
25.36000 393.524
25.40000 391.751
25.44000 391.498
25.48000 396.652
25.52000 402.014
25.56000 386.017
25.60000 403.435
25.64000 370.519
25.68000 395.152
25.72000 399.842
25.76000 393.865
25.80000 386.573
25.84000 366.766
25.88000 388.838
25.92000 397.042
25.96000 391.317
26.00000 394.320
26.04000 364.980
26.08000 382.572
26.12000 368.368
26.16000 392.100
26.20000 374.916
26.24000 372.072
26.28000 387.931
26.32000 378.617
26.36000 370.549
26.40000 378.340
26.44000 377.204
26.48000 368.107
26.52000 387.877
26.56000 362.548
26.60000 373.598
26.64000 362.636
26.68000 368.666
26.72000 381.986
26.76000 366.517
26.80000 370.644
26.84000 361.366
26.88000 376.113
26.92000 370.704
26.96000 368.469
27.00000 384.894
27.04000 377.360
27.08000 366.123
27.12000 375.108
27.16000 383.545
27.20000 386.347
27.24000 376.241
27.28000 361.200
27.32000 364.409
27.36000 359.674
27.40000 378.354
27.44000 362.126
27.48000 371.730
27.52000 367.702
27.56000 375.748
27.60000 366.957
27.64000 347.740
27.68000 361.130
27.72000 364.251
27.76000 365.927
27.80000 351.245
27.84000 371.244
27.88000 348.995
27.92000 357.278
27.96000 363.263
28.00000 355.586
28.04000 362.686
28.08000 344.287
28.12000 365.655
28.16000 370.500
28.20000 377.928
28.24000 363.724
28.28000 363.226
28.32000 362.963
28.36000 366.097
28.40000 366.269
28.44000 365.684
28.48000 367.374
28.52000 343.881
28.56000 347.819
28.60000 356.932
28.64000 350.135
28.68000 355.335
28.72000 334.150
28.76000 362.811
28.80000 346.108
28.84000 366.770
28.88000 348.475
28.92000 371.006
28.96000 350.733
29.00000 343.383
29.04000 355.103
29.08000 354.370
29.12000 365.778
29.16000 352.600
29.20000 349.070
29.24000 356.461
29.28000 342.397
29.32000 350.300
29.36000 354.894
29.40000 351.409
29.44000 365.618
29.48000 342.347
29.52000 349.820
29.56000 355.491
29.60000 363.048
29.64000 367.100
29.68000 359.799
29.72000 377.464
29.76000 388.107
29.80000 413.627
29.84000 436.107
29.88000 435.526
29.92000 434.980
29.96000 446.542
30.00000 453.055
30.04000 453.684
30.08000 447.971
30.12000 437.766
30.16000 428.767
30.20000 423.531
30.24000 409.537
30.28000 399.379
30.32000 393.672
30.36000 381.258
30.40000 378.356
30.44000 370.753
30.48000 363.953
30.52000 374.504
30.56000 383.395
30.60000 384.104
30.64000 386.913
30.68000 385.573
30.72000 397.973
30.76000 404.290
30.80000 412.349
30.84000 424.326
30.88000 472.399
30.92000 496.756
30.96000 553.026
31.00000 632.009
31.04000 812.333
31.08000 1003.287
31.12000 1329.223
31.16000 1616.085
31.20000 2032.449
31.24000 2412.269
31.28000 2704.736
31.32000 2966.485
31.36000 2965.312
31.40000 2812.318
31.44000 2554.653
31.48000 2141.576
31.52000 1686.411
31.56000 1336.296
31.60000 1015.272
31.64000 796.562
31.68000 621.884
31.72000 529.703
31.76000 477.021
31.80000 426.138
31.84000 410.648
31.88000 385.125
31.92000 370.331
31.96000 356.182
32.00000 342.502
32.04000 353.727
32.08000 354.439
32.12000 340.483
32.16000 346.039
32.20000 314.711
32.24000 323.210
32.28000 325.582
32.32000 319.455
32.36000 333.333
32.40000 308.012
32.44000 312.714
32.48000 329.192
32.52000 314.320
32.56000 317.301
32.60000 322.407
32.64000 298.178
32.68000 308.845
32.72000 316.787
32.76000 321.861
32.80000 349.146
32.84000 419.121
32.88000 485.359
32.92000 551.896
32.96000 561.605
33.00000 577.278
33.04000 535.004
33.08000 436.292
33.12000 373.177
33.16000 336.299
33.20000 314.885
33.24000 292.499
33.28000 285.285
33.32000 301.879
33.36000 304.696
33.40000 292.538
33.44000 284.753
33.48000 278.612
33.52000 287.501
33.56000 290.349
33.60000 286.533
33.64000 281.338
33.68000 287.369
33.72000 280.776
33.76000 285.432
33.80000 281.664
33.84000 284.110
33.88000 278.580
33.92000 288.834
33.96000 289.356
34.00000 284.469
34.04000 272.121
34.08000 299.248
34.12000 298.481
34.16000 279.460
34.20000 279.475
34.24000 274.647
34.28000 276.899
34.32000 270.519
34.36000 279.466
34.40000 268.109
34.44000 267.663
34.48000 267.226
34.52000 264.879
34.56000 285.636
34.60000 288.454
34.64000 288.099
34.68000 280.108
34.72000 275.737
34.76000 251.238
34.80000 270.481
34.84000 272.125
34.88000 276.288
34.92000 276.862
34.96000 257.361
35.00000 263.073
35.04000 259.113
35.08000 266.767
35.12000 272.768
35.16000 276.119
35.20000 280.239
35.24000 269.830
35.28000 263.474
35.32000 262.412
35.36000 255.862
35.40000 256.705
35.44000 269.406
35.48000 277.258
35.52000 268.594
35.56000 258.810
35.60000 265.688
35.64000 251.689
35.68000 240.852
35.72000 253.973
35.76000 250.543
35.80000 247.227
35.84000 252.572
35.88000 280.252
35.92000 268.371
35.96000 262.843
36.00000 257.448
36.04000 255.298
36.08000 261.589
36.12000 248.437
36.16000 250.562
36.20000 258.519
36.24000 251.065
36.28000 254.716
36.32000 249.413
36.36000 257.798
36.40000 255.974
36.44000 261.293
36.48000 250.385
36.52000 256.628
36.56000 251.379
36.60000 251.706
36.64000 258.318
36.68000 248.960
36.72000 259.597
36.76000 255.335
36.80000 267.764
36.84000 262.714
36.88000 261.828
36.92000 268.618
36.96000 271.057
37.00000 261.139
37.04000 270.866
37.08000 248.201
37.12000 259.755
37.16000 246.195
37.20000 247.227
37.24000 254.878
37.28000 248.764
37.32000 258.836
37.36000 250.562
37.40000 245.071
37.44000 261.057
37.48000 253.477
37.52000 246.654
37.56000 252.187
37.60000 232.039
37.64000 244.625
37.68000 247.931
37.72000 247.692
37.76000 245.948
37.80000 250.827
37.84000 248.652
37.88000 256.631
37.92000 239.235
37.96000 256.788
38.00000 248.165
38.04000 252.428
38.08000 236.852
38.12000 253.179
38.16000 263.698
38.20000 278.961
38.24000 281.695
38.28000 291.182
38.32000 306.818
38.36000 335.173
38.40000 373.905
38.44000 401.045
38.48000 470.965
38.52000 511.859
38.56000 555.881
38.60000 588.368
38.64000 634.916
38.68000 637.873
38.72000 641.993
38.76000 605.350
38.80000 551.562
38.84000 496.855
38.88000 410.176
38.92000 390.014
38.96000 332.047
39.00000 281.471
39.04000 284.536
39.08000 272.071
39.12000 272.540
39.16000 242.357
39.20000 233.881
39.24000 237.631
39.28000 242.244
39.32000 231.021
39.36000 236.763
39.40000 225.226
39.44000 227.058
39.48000 232.844
39.52000 239.496
39.56000 222.797
39.60000 225.832
39.64000 246.656
39.68000 226.345
39.72000 241.352
39.76000 221.270
39.80000 223.302
39.84000 215.955
39.88000 224.737
39.92000 215.003
39.96000 227.839
40.00000 225.275
40.04000 226.353
40.08000 225.464
40.12000 214.893
40.16000 226.527
40.20000 218.173
40.24000 224.200
40.28000 219.875
40.32000 208.649
40.36000 210.979
40.40000 213.652
40.44000 207.873
40.48000 215.860
40.52000 212.000
40.56000 220.108
40.60000 209.525
40.64000 200.364
40.68000 221.671
40.72000 211.265
40.76000 215.043
40.80000 219.535
40.84000 212.850
40.88000 214.435
40.92000 209.015
40.96000 227.488
41.00000 211.751
41.04000 210.217
41.08000 201.919
41.12000 214.023
41.16000 212.130
41.20000 209.534
41.24000 211.993
41.28000 209.827
41.32000 215.475
41.36000 201.266
41.40000 213.742
41.44000 208.382
41.48000 204.208
41.52000 184.072
41.56000 210.254
41.60000 206.292
41.64000 196.063
41.68000 203.522
41.72000 219.887
41.76000 207.557
41.80000 188.948
41.84000 193.988
41.88000 207.871
41.92000 199.015
41.96000 197.472
42.00000 198.841
42.04000 212.923
42.08000 204.494
42.12000 190.968
42.16000 199.241
42.20000 198.366
42.24000 195.135
42.28000 195.216
42.32000 197.426
42.36000 197.685
42.40000 203.750
42.44000 196.495
42.48000 198.441
42.52000 191.515
42.56000 200.303
42.60000 196.551
42.64000 196.435
42.68000 205.015
42.72000 195.569
42.76000 210.501
42.80000 192.384
42.84000 215.060
42.88000 196.056
42.92000 200.895
42.96000 211.074
43.00000 200.517
43.04000 209.444
43.08000 200.445
43.12000 201.697
43.16000 191.169
43.20000 196.934
43.24000 197.934
43.28000 208.973
43.32000 200.075
43.36000 198.524
43.40000 198.752
43.44000 190.593
43.48000 197.360
43.52000 196.710
43.56000 192.774
43.60000 190.639
43.64000 203.082
43.68000 205.440
43.72000 184.656
43.76000 192.744
43.80000 208.090
43.84000 202.103
43.88000 189.448
43.92000 189.766
43.96000 192.497
44.00000 183.574
44.04000 189.300
44.08000 186.788
44.12000 202.413
44.16000 189.043
44.20000 193.052
44.24000 185.775
44.28000 190.671
44.32000 200.290
44.36000 216.588
44.40000 205.652
44.44000 204.824
44.48000 213.791
44.52000 205.750
44.56000 221.606
44.60000 247.121
44.64000 248.798
44.68000 251.430
44.72000 269.614
44.76000 298.274
44.80000 319.776
44.84000 340.503
44.88000 363.644
44.92000 368.267
44.96000 405.390
45.00000 371.949
45.04000 389.429
45.08000 354.508
45.12000 339.851
45.16000 322.151
45.20000 322.764
45.24000 283.257
45.28000 279.582
45.32000 266.328
45.36000 256.544
45.40000 236.048
45.44000 238.997
45.48000 238.786
45.52000 213.609
45.56000 208.727
45.60000 217.613
45.64000 195.171
45.68000 213.337
45.72000 205.636
45.76000 197.104
45.80000 189.474
45.84000 194.637
45.88000 179.701
45.92000 191.926
45.96000 179.064
46.00000 183.342
46.04000 175.468
46.08000 169.456
46.12000 172.731
46.16000 184.162
46.20000 177.231
46.24000 174.688
46.28000 169.926
46.32000 171.043
46.36000 175.867
46.40000 173.797
46.44000 184.435
46.48000 162.544
46.52000 163.306
46.56000 163.338
46.60000 170.264
46.64000 173.988
46.68000 165.900
46.72000 164.354
46.76000 165.843
46.80000 168.372
46.84000 174.435
46.88000 194.109
46.92000 178.797
46.96000 171.096
47.00000 157.028
47.04000 162.312
47.08000 161.634
47.12000 173.097
47.16000 158.707
47.20000 155.518
47.24000 168.635
47.28000 166.027
47.32000 158.053
47.36000 159.467
47.40000 169.694
47.44000 155.543
47.48000 160.048
47.52000 160.823
47.56000 153.601
47.60000 164.278
47.64000 152.687
47.68000 155.281
47.72000 152.171
47.76000 161.796
47.80000 159.217
47.84000 152.672
47.88000 159.716
47.92000 165.742
47.96000 157.897
48.00000 157.710
48.04000 154.183
48.08000 156.819
48.12000 158.575
48.16000 170.930
48.20000 158.795
48.24000 164.557
48.28000 163.973
48.32000 165.051
48.36000 166.485
48.40000 167.739
48.44000 153.766
48.48000 153.656
48.52000 158.591
48.56000 157.245
48.60000 145.867
48.64000 153.152
48.68000 159.220
48.72000 161.947
48.76000 158.357
48.80000 154.184
48.84000 158.017
48.88000 154.798
48.92000 155.368
48.96000 159.394
49.00000 164.312
49.04000 148.629
49.08000 168.220
49.12000 150.004
49.16000 155.689
49.20000 157.435
49.24000 153.033
49.28000 155.496
49.32000 160.636
49.36000 150.426
49.40000 144.275
49.44000 144.827
49.48000 154.529
49.52000 154.614
49.56000 152.573
49.60000 154.517
49.64000 153.863
49.68000 157.280
49.72000 156.376
49.76000 154.516
49.80000 155.861
49.84000 147.501
49.88000 157.376
49.92000 146.218
49.96000 151.487
50.00000 158.618
50.04000 149.641
50.08000 163.365
50.12000 155.036
50.16000 158.991
50.20000 163.724
50.24000 181.423
50.28000 181.536
50.32000 186.587
50.36000 190.668
50.40000 199.913
50.44000 213.826
50.48000 226.994
50.52000 237.213
50.56000 235.195
50.60000 244.061
50.64000 237.980
50.68000 221.549
50.72000 230.638
50.76000 207.487
50.80000 198.234
50.84000 195.286
50.88000 199.259
50.92000 189.003
50.96000 174.683
51.00000 173.122
51.04000 164.646
51.08000 158.656
51.12000 151.310
51.16000 158.658
51.20000 159.761
51.24000 150.094
51.28000 156.637
51.32000 148.505
51.36000 147.594
51.40000 144.508
51.44000 151.852
51.48000 136.065
51.52000 149.991
51.56000 152.366
51.60000 141.167
51.64000 143.981
51.68000 160.712
51.72000 144.931
51.76000 152.687
51.80000 145.331
51.84000 134.965
51.88000 144.512
51.92000 145.592
51.96000 141.295
52.00000 141.650
52.04000 143.464
52.08000 136.799
52.12000 142.233
52.16000 139.309
52.20000 141.995
52.24000 143.433
52.28000 135.533
52.32000 137.113
52.36000 141.514
52.40000 138.747
52.44000 131.237
52.48000 127.822
52.52000 138.600
52.56000 137.455
52.60000 138.083
52.64000 136.227
52.68000 134.690
52.72000 146.594
52.76000 135.932
52.80000 135.720
52.84000 140.022
52.88000 140.728
52.92000 146.564
52.96000 149.819
53.00000 145.584
53.04000 137.722
53.08000 149.411
53.12000 148.832
53.16000 148.497
53.20000 153.850
53.24000 157.470
53.28000 143.938
53.32000 149.649
53.36000 140.243
53.40000 149.774
53.44000 153.087
53.48000 147.725
53.52000 149.545
53.56000 145.448
53.60000 145.818
53.64000 139.476
53.68000 138.296
53.72000 136.743
53.76000 136.806
53.80000 133.851
53.84000 149.025
53.88000 139.811
53.92000 143.493
53.96000 143.980
54.00000 133.325
54.04000 136.999
54.08000 142.383
54.12000 134.469
54.16000 147.928
54.20000 138.225
54.24000 141.298
54.28000 130.515
54.32000 138.614
54.36000 130.067
54.40000 136.379
54.44000 142.167
54.48000 152.389
54.52000 136.632
54.56000 125.611
54.60000 132.344
54.64000 132.738
54.68000 144.103
54.72000 137.852
54.76000 132.993
54.80000 147.625
54.84000 138.905
54.88000 155.759
54.92000 134.988
54.96000 146.696
55.00000 143.756
55.04000 137.823
55.08000 150.090
55.12000 144.864
55.16000 167.245
55.20000 157.061
55.24000 160.014
55.28000 166.277
55.32000 185.550
55.36000 198.909
55.40000 211.618
55.44000 230.254
55.48000 267.739
55.52000 311.883
55.56000 330.734
55.60000 383.484
55.64000 436.093
55.68000 457.450
55.72000 516.019
55.76000 529.940
55.80000 564.070
55.84000 575.497
55.88000 567.525
55.92000 529.192
55.96000 529.198
56.00000 467.680
56.04000 461.800
56.08000 382.435
56.12000 349.813
56.16000 304.904
56.20000 266.879
56.24000 239.811
56.28000 209.512
56.32000 193.179
56.36000 188.550
56.40000 173.109
56.44000 158.858
56.48000 156.102
56.52000 151.192
56.56000 138.650
56.60000 146.251
56.64000 136.352
56.68000 145.196
56.72000 130.950
56.76000 134.441
56.80000 137.578
56.84000 134.564
56.88000 129.190
56.92000 128.472
56.96000 132.274
57.00000 129.582
57.04000 131.093
57.08000 124.780
57.12000 127.172
57.16000 115.888
57.20000 123.316
57.24000 121.619
57.28000 125.560
57.32000 129.098
57.36000 118.671
57.40000 125.361
57.44000 116.762
57.48000 138.804
57.52000 126.021
57.56000 122.699
57.60000 124.861
57.64000 131.568
57.68000 128.703
57.72000 123.326
57.76000 121.941
57.80000 121.743
57.84000 119.760
57.88000 127.825
57.92000 131.859
57.96000 130.643
58.00000 118.523
58.04000 118.079
58.08000 120.525
58.12000 123.023
58.16000 122.299
58.20000 119.202
58.24000 119.312
58.28000 126.144
58.32000 121.900
58.36000 125.027
58.40000 125.816
58.44000 120.173
58.48000 121.215
58.52000 124.263
58.56000 118.101
58.60000 121.639
58.64000 118.893
58.68000 115.160
58.72000 124.799
58.76000 109.328
58.80000 119.327
58.84000 111.588
58.88000 124.342
58.92000 121.884
58.96000 115.682
59.00000 118.090
59.04000 117.535
59.08000 113.128
59.12000 117.548
59.16000 109.156
59.20000 111.636
59.24000 124.740
59.28000 115.882
59.32000 112.840
59.36000 119.388
59.40000 120.390
59.44000 112.239
59.48000 114.451
59.52000 124.501
59.56000 119.845
59.60000 123.029
59.64000 111.377
59.68000 113.415
59.72000 115.883
59.76000 117.511
59.80000 118.617
59.84000 110.841
59.88000 127.755
59.92000 123.077
59.96000 114.224
60.00000 121.148
60.04000 109.581
60.08000 119.989
60.12000 114.092
60.16000 114.305
60.20000 118.801
60.24000 115.358
60.28000 119.663
60.32000 114.194
60.36000 112.081
60.40000 129.662
60.44000 127.276
60.48000 121.340
60.52000 115.679
60.56000 113.432
60.60000 119.649
60.64000 109.638
60.68000 118.430
60.72000 115.092
60.76000 124.250
60.80000 119.072
60.84000 116.808
60.88000 118.966
60.92000 125.399
60.96000 122.160
61.00000 113.030
61.04000 116.116
61.08000 118.259
61.12000 117.480
61.16000 122.368
61.20000 115.269
61.24000 118.679
61.28000 123.042
61.32000 119.964
61.36000 129.372
61.40000 119.194
61.44000 131.085
61.48000 125.279
61.52000 157.268
61.56000 218.750
61.60000 286.096
61.64000 323.737
61.68000 336.365
61.72000 327.617
61.76000 299.336
61.80000 246.678
61.84000 169.745
61.88000 159.883
61.92000 143.287
61.96000 132.409
62.00000 127.247
62.04000 132.068
62.08000 128.085
62.12000 127.630
62.16000 128.373
62.20000 130.984
62.24000 136.395
62.28000 118.859
62.32000 126.629
62.36000 131.713
62.40000 134.529
62.44000 130.703
62.48000 130.041
62.52000 125.321
62.56000 128.239
62.60000 132.019
62.64000 122.673
62.68000 122.708
62.72000 132.812
62.76000 133.651
62.80000 142.010
62.84000 119.705
62.88000 142.066
62.92000 128.155
62.96000 136.111
63.00000 125.693
63.04000 129.139
63.08000 133.627
63.12000 137.827
63.16000 125.158
63.20000 132.199
63.24000 132.205
63.28000 136.133
63.32000 135.233
63.36000 135.423
63.40000 149.387
63.44000 137.836
63.48000 138.137
63.52000 143.392
63.56000 129.724
63.60000 130.911
63.64000 130.597
63.68000 140.697
63.72000 140.913
63.76000 135.449
63.80000 143.483
63.84000 151.951
63.88000 142.187
63.92000 138.785
63.96000 145.795
64.00000 142.707
64.04000 141.617
64.08000 149.906
64.12000 142.067
64.16000 155.964
64.20000 162.842
64.24000 161.716
64.28000 154.771
64.32000 154.125
64.36000 158.114
64.40000 166.255
64.44000 166.189
64.48000 168.614
64.52000 173.383
64.56000 154.619
64.60000 172.182
64.64000 169.682
64.68000 178.563
64.72000 180.157
64.76000 177.944
64.80000 187.630
64.84000 194.711
64.88000 189.750
64.92000 204.803
64.96000 215.178
65.00000 215.453
65.04000 234.140
65.08000 251.941
65.12000 245.912
65.16000 254.811
65.20000 279.600
65.24000 316.743
65.28000 320.181
65.32000 326.200
65.36000 346.989
65.40000 381.636
65.44000 388.243
65.48000 402.720
65.52000 430.482
65.56000 440.018
65.60000 495.426
65.64000 568.279
65.68000 782.063
65.72000 1223.832
65.76000 1819.953
65.80000 2288.923
65.84000 2462.682
65.88000 2503.234
65.92000 2326.819
65.96000 1847.971
66.00000 1213.381
66.04000 752.457
66.08000 541.570
66.12000 458.944
66.16000 413.635
66.20000 414.801
66.24000 447.101
66.28000 525.529
66.32000 630.774
66.36000 712.826
66.40000 724.413
66.44000 742.714
66.48000 698.697
66.52000 603.463
66.56000 502.591
66.60000 432.071
66.64000 399.660
66.68000 387.101
66.72000 375.795
66.76000 388.824
66.80000 379.554
66.84000 376.786
66.88000 381.531
66.92000 377.487
66.96000 405.828
67.00000 401.766
67.04000 412.722
67.08000 403.394
67.12000 432.543
67.16000 414.115
67.20000 417.030
67.24000 444.754
67.28000 427.235
67.32000 438.427
67.36000 459.771
67.40000 434.250
67.44000 432.228
67.48000 446.266
67.52000 453.590
67.56000 491.351
67.60000 464.455
67.64000 471.235
67.68000 484.146
67.72000 488.833
67.76000 492.562
67.80000 505.891
67.84000 492.487
67.88000 507.815
67.92000 526.133
67.96000 526.352
68.00000 530.034
68.04000 548.793
68.08000 570.179
68.12000 567.801
68.16000 554.930
68.20000 589.820
68.24000 604.402
68.28000 594.820
68.32000 633.390
68.36000 649.869
68.40000 662.730
68.44000 694.662
68.48000 724.943
68.52000 762.718
68.56000 816.167
68.60000 945.822
68.64000 1092.368
68.68000 1325.243
68.72000 1528.646
68.76000 1742.061
68.80000 1967.273
68.84000 2348.583
68.88000 3084.182
68.92000 4906.774
68.96000 13148.691
69.00000 28278.145
69.04000 43393.977
69.08000 51216.848
69.12000 54632.980
69.16000 57851.770
69.20000 55944.582
69.24000 44820.000
69.28000 33699.363
69.32000 27650.143
69.36000 25491.205
69.40000 20497.285
69.44000 12783.838
69.48000 5781.776
69.52000 2517.536
69.56000 1509.865
69.60000 1174.620
69.64000 995.377
69.68000 881.962
69.72000 804.804
69.76000 718.968
69.80000 632.294
69.84000 633.665
69.88000 581.565
69.92000 550.199
69.96000 533.399
70.00000 521.636