File: XRD/07-10-2025 Dep 6/XY Data/BTO_Mapping_Theta2Theta_07-10-2025_001_10_6-691_7-431.xy
20.00000 479.703
20.04000 470.997
20.08000 463.214
20.12000 446.556
20.16000 473.909
20.20000 459.940
20.24000 471.520
20.28000 463.733
20.32000 450.306
20.36000 450.689
20.40000 474.371
20.44000 454.822
20.48000 466.932
20.52000 488.125
20.56000 474.093
20.60000 483.186
20.64000 481.912
20.68000 462.074
20.72000 458.566
20.76000 465.677
20.80000 466.263
20.84000 449.241
20.88000 456.748
20.92000 462.579
20.96000 463.064
21.00000 448.437
21.04000 460.320
21.08000 460.405
21.12000 469.216
21.16000 465.892
21.20000 453.413
21.24000 451.926
21.28000 456.147
21.32000 453.699
21.36000 449.913
21.40000 449.434
21.44000 449.309
21.48000 488.469
21.52000 454.459
21.56000 431.340
21.60000 473.562
21.64000 466.865
21.68000 460.386
21.72000 464.489
21.76000 473.047
21.80000 475.455
21.84000 469.318
21.88000 482.970
21.92000 484.526
21.96000 490.883
22.00000 486.709
22.04000 484.676
22.08000 505.317
22.12000 500.933
22.16000 477.500
22.20000 493.358
22.24000 488.920
22.28000 498.313
22.32000 489.245
22.36000 467.176
22.40000 485.880
22.44000 463.918
22.48000 449.714
22.52000 461.127
22.56000 456.351
22.60000 452.601
22.64000 438.375
22.68000 457.033
22.72000 461.902
22.76000 445.853
22.80000 443.386
22.84000 448.370
22.88000 452.501
22.92000 434.645
22.96000 438.911
23.00000 413.473
23.04000 438.756
23.08000 437.781
23.12000 441.824
23.16000 449.777
23.20000 445.648
23.24000 426.104
23.28000 430.107
23.32000 443.852
23.36000 421.203
23.40000 410.903
23.44000 433.940
23.48000 425.199
23.52000 413.553
23.56000 433.384
23.60000 437.280
23.64000 442.545
23.68000 465.759
23.72000 445.005
23.76000 471.452
23.80000 471.025
23.84000 496.663
23.88000 479.437
23.92000 473.239
23.96000 492.801
24.00000 502.500
24.04000 510.403
24.08000 481.819
24.12000 479.860
24.16000 476.003
24.20000 480.547
24.24000 459.789
24.28000 468.183
24.32000 440.562
24.36000 415.809
24.40000 427.140
24.44000 425.092
24.48000 413.096
24.52000 418.797
24.56000 415.890
24.60000 409.148
24.64000 400.441
24.68000 434.515
24.72000 391.917
24.76000 412.194
24.80000 411.424
24.84000 418.135
24.88000 406.955
24.92000 405.440
24.96000 393.248
25.00000 430.801
25.04000 422.233
25.08000 400.162
25.12000 390.093
25.16000 398.078
25.20000 388.194
25.24000 395.649
25.28000 402.138
25.32000 394.231
25.36000 397.401
25.40000 404.347
25.44000 403.228
25.48000 392.600
25.52000 398.954
25.56000 385.497
25.60000 386.937
25.64000 383.409
25.68000 395.209
25.72000 402.775
25.76000 388.426
25.80000 378.588
25.84000 382.867
25.88000 390.414
25.92000 393.807
25.96000 383.604
26.00000 380.095
26.04000 386.666
26.08000 384.830
26.12000 376.356
26.16000 380.659
26.20000 400.427
26.24000 383.704
26.28000 392.141
26.32000 385.017
26.36000 394.344
26.40000 373.429
26.44000 359.276
26.48000 382.482
26.52000 383.072
26.56000 392.526
26.60000 372.375
26.64000 373.873
26.68000 372.791
26.72000 368.436
26.76000 383.339
26.80000 373.764
26.84000 368.558
26.88000 372.894
26.92000 359.312
26.96000 368.572
27.00000 373.884
27.04000 367.806
27.08000 370.282
27.12000 381.949
27.16000 368.217
27.20000 378.072
27.24000 387.501
27.28000 374.688
27.32000 375.972
27.36000 352.968
27.40000 366.004
27.44000 369.488
27.48000 359.856
27.52000 372.687
27.56000 373.691
27.60000 364.498
27.64000 379.078
27.68000 366.040
27.72000 364.572
27.76000 356.795
27.80000 371.906
27.84000 370.755
27.88000 358.677
27.92000 364.025
27.96000 367.359
28.00000 347.925
28.04000 365.545
28.08000 369.692
28.12000 381.605
28.16000 364.939
28.20000 355.205
28.24000 350.480
28.28000 361.162
28.32000 356.201
28.36000 369.315
28.40000 341.847
28.44000 369.055
28.48000 349.305
28.52000 355.322
28.56000 360.102
28.60000 341.387
28.64000 363.185
28.68000 342.404
28.72000 354.938
28.76000 348.773
28.80000 337.834
28.84000 361.924
28.88000 357.005
28.92000 359.957
28.96000 351.678
29.00000 357.353
29.04000 344.261
29.08000 363.244
29.12000 348.922
29.16000 339.263
29.20000 350.681
29.24000 339.657
29.28000 339.180
29.32000 340.649
29.36000 356.498
29.40000 352.839
29.44000 332.568
29.48000 352.863
29.52000 340.045
29.56000 375.564
29.60000 368.552
29.64000 363.134
29.68000 345.500
29.72000 355.534
29.76000 344.445
29.80000 357.710
29.84000 373.738
29.88000 366.202
29.92000 381.967
29.96000 366.230
30.00000 385.254
30.04000 370.494
30.08000 383.448
30.12000 383.824
30.16000 374.936
30.20000 377.879
30.24000 374.224
30.28000 394.736
30.32000 369.040
30.36000 368.433
30.40000 366.253
30.44000 357.934
30.48000 377.177
30.52000 365.224
30.56000 358.181
30.60000 353.886
30.64000 368.401
30.68000 369.019
30.72000 370.862
30.76000 368.072
30.80000 388.287
30.84000 384.690
30.88000 384.439
30.92000 413.664
30.96000 436.732
31.00000 454.162
31.04000 490.353
31.08000 536.739
31.12000 597.163
31.16000 672.599
31.20000 784.037
31.24000 906.017
31.28000 1000.485
31.32000 1129.620
31.36000 1185.516
31.40000 1200.902
31.44000 1178.610
31.48000 1085.880
31.52000 989.055
31.56000 861.907
31.60000 755.235
31.64000 631.634
31.68000 563.155
31.72000 509.702
31.76000 462.312
31.80000 436.389
31.84000 390.960
31.88000 389.251
31.92000 352.990
31.96000 371.700
32.00000 384.311
32.04000 355.357
32.08000 353.247
32.12000 352.555
32.16000 345.623
32.20000 344.718
32.24000 340.902
32.28000 336.814
32.32000 339.352
32.36000 333.552
32.40000 340.632
32.44000 323.336
32.48000 335.950
32.52000 314.319
32.56000 328.376
32.60000 320.354
32.64000 321.302
32.68000 304.036
32.72000 301.946
32.76000 315.391
32.80000 354.399
32.84000 393.927
32.88000 451.408
32.92000 497.907
32.96000 524.109
33.00000 542.030
33.04000 522.606
33.08000 441.126
33.12000 376.608
33.16000 326.035
33.20000 298.213
33.24000 292.393
33.28000 285.627
33.32000 301.161
33.36000 295.442
33.40000 290.711
33.44000 292.846
33.48000 306.520
33.52000 295.284
33.56000 285.946
33.60000 288.576
33.64000 296.431
33.68000 288.143
33.72000 286.597
33.76000 299.944
33.80000 285.071
33.84000 303.743
33.88000 305.552
33.92000 310.731
33.96000 316.398
34.00000 302.566
34.04000 318.033
34.08000 314.864
34.12000 312.109
34.16000 310.295
34.20000 299.136
34.24000 333.618
34.28000 335.537
34.32000 316.839
34.36000 332.445
34.40000 341.977
34.44000 342.182
34.48000 335.032
34.52000 334.127
34.56000 301.476
34.60000 299.092
34.64000 291.680
34.68000 296.766
34.72000 287.943
34.76000 303.881
34.80000 273.502
34.84000 288.300
34.88000 274.608
34.92000 278.235
34.96000 271.896
35.00000 274.226
35.04000 276.336
35.08000 268.143
35.12000 278.411
35.16000 275.362
35.20000 283.206
35.24000 270.551
35.28000 258.006
35.32000 266.065
35.36000 255.444
35.40000 268.005
35.44000 269.464
35.48000 262.390
35.52000 259.490
35.56000 251.162
35.60000 258.520
35.64000 252.665
35.68000 249.549
35.72000 265.667
35.76000 268.878
35.80000 268.054
35.84000 269.123
35.88000 254.223
35.92000 271.892
35.96000 264.027
36.00000 263.616
36.04000 259.992
36.08000 246.773
36.12000 264.138
36.16000 261.378
36.20000 261.095
36.24000 253.154
36.28000 247.366
36.32000 253.839
36.36000 256.253
36.40000 266.823
36.44000 250.713
36.48000 242.626
36.52000 267.684
36.56000 249.957
36.60000 261.447
36.64000 249.759
36.68000 247.500
36.72000 258.503
36.76000 256.562
36.80000 245.273
36.84000 246.953
36.88000 262.790
36.92000 270.455
36.96000 267.122
37.00000 258.798
37.04000 281.610
37.08000 278.924
37.12000 256.980
37.16000 261.193
37.20000 262.570
37.24000 273.979
37.28000 258.890
37.32000 253.568
37.36000 244.700
37.40000 250.661
37.44000 262.847
37.48000 256.415
37.52000 246.472
37.56000 247.521
37.60000 258.423
37.64000 255.199
37.68000 247.496
37.72000 255.123
37.76000 259.603
37.80000 252.247
37.84000 251.277
37.88000 252.958
37.92000 260.553
37.96000 263.203
38.00000 248.392
38.04000 242.348
38.08000 268.509
38.12000 252.706
38.16000 254.029
38.20000 246.608
38.24000 269.397
38.28000 273.705
38.32000 280.305
38.36000 273.385
38.40000 295.677
38.44000 344.001
38.48000 395.234
38.52000 438.942
38.56000 550.905
38.60000 621.500
38.64000 711.582
38.68000 789.302
38.72000 837.633
38.76000 828.456
38.80000 784.422
38.84000 660.134
38.88000 579.814
38.92000 499.789
38.96000 415.919
39.00000 336.960
39.04000 299.637
39.08000 270.569
39.12000 265.942
39.16000 247.877
39.20000 249.702
39.24000 231.360
39.28000 235.345
39.32000 238.112
39.36000 233.274
39.40000 232.077
39.44000 230.724
39.48000 230.458
39.52000 225.314
39.56000 234.581
39.60000 233.839
39.64000 233.982
39.68000 230.661
39.72000 224.319
39.76000 223.808
39.80000 214.344
39.84000 211.301
39.88000 232.807
39.92000 228.702
39.96000 214.722
40.00000 226.438
40.04000 216.028
40.08000 222.439
40.12000 228.759
40.16000 230.198
40.20000 215.558
40.24000 224.705
40.28000 218.662
40.32000 225.858
40.36000 218.253
40.40000 217.616
40.44000 220.121
40.48000 219.911
40.52000 211.119
40.56000 213.395
40.60000 216.657
40.64000 217.456
40.68000 214.457
40.72000 216.381
40.76000 209.985
40.80000 213.229
40.84000 210.587
40.88000 206.983
40.92000 209.327
40.96000 213.730
41.00000 210.993
41.04000 213.197
41.08000 198.286
41.12000 207.008
41.16000 196.923
41.20000 215.118
41.24000 203.710
41.28000 197.103
41.32000 204.407
41.36000 206.711
41.40000 212.215
41.44000 209.990
41.48000 200.500
41.52000 201.718
41.56000 214.539
41.60000 215.307
41.64000 197.609
41.68000 203.305
41.72000 206.531
41.76000 212.746
41.80000 205.797
41.84000 214.737
41.88000 220.656
41.92000 216.959
41.96000 204.795
42.00000 207.593
42.04000 211.129
42.08000 213.605
42.12000 214.638
42.16000 211.735
42.20000 208.393
42.24000 214.777
42.28000 212.995
42.32000 216.094
42.36000 213.571
42.40000 208.495
42.44000 213.162
42.48000 204.558
42.52000 204.599
42.56000 207.953
42.60000 202.744
42.64000 214.543
42.68000 202.749
42.72000 205.277
42.76000 215.767
42.80000 209.586
42.84000 203.036
42.88000 200.032
42.92000 198.021
42.96000 203.116
43.00000 214.294
43.04000 206.480
43.08000 186.523
43.12000 187.897
43.16000 187.834
43.20000 196.379
43.24000 198.759
43.28000 183.371
43.32000 192.775
43.36000 191.150
43.40000 185.131
43.44000 200.216
43.48000 185.665
43.52000 192.465
43.56000 189.161
43.60000 194.783
43.64000 193.834
43.68000 201.079
43.72000 191.268
43.76000 184.568
43.80000 178.396
43.84000 192.362
43.88000 190.270
43.92000 192.034
43.96000 186.295
44.00000 198.912
44.04000 193.425
44.08000 199.242
44.12000 198.215
44.16000 192.717
44.20000 178.905
44.24000 191.059
44.28000 188.553
44.32000 200.145
44.36000 203.846
44.40000 190.063
44.44000 199.632
44.48000 201.844
44.52000 212.381
44.56000 203.885
44.60000 212.300
44.64000 219.832
44.68000 219.213
44.72000 199.609
44.76000 227.871
44.80000 224.988
44.84000 221.063
44.88000 222.915
44.92000 224.396
44.96000 231.646
45.00000 226.463
45.04000 227.055
45.08000 215.278
45.12000 230.574
45.16000 211.612
45.20000 225.855
45.24000 241.906
45.28000 228.379
45.32000 217.614
45.36000 219.234
45.40000 207.827
45.44000 194.343
45.48000 199.491
45.52000 200.143
45.56000 197.849
45.60000 193.189
45.64000 187.270
45.68000 186.929
45.72000 194.626
45.76000 196.294
45.80000 192.180
45.84000 177.198
45.88000 195.667
45.92000 184.838
45.96000 182.199
46.00000 174.684
46.04000 178.631
46.08000 173.649
46.12000 176.515
46.16000 172.802
46.20000 164.450
46.24000 166.786
46.28000 169.252
46.32000 166.841
46.36000 181.083
46.40000 169.460
46.44000 180.729
46.48000 165.872
46.52000 172.043
46.56000 176.336
46.60000 189.314
46.64000 173.532
46.68000 164.409
46.72000 176.453
46.76000 165.965
46.80000 171.031
46.84000 164.743
46.88000 175.507
46.92000 170.389
46.96000 166.890
47.00000 178.430
47.04000 178.408
47.08000 169.007
47.12000 165.008
47.16000 175.991
47.20000 163.875
47.24000 161.463
47.28000 159.732
47.32000 172.982
47.36000 170.299
47.40000 174.325
47.44000 164.552
47.48000 151.669
47.52000 171.181
47.56000 155.114
47.60000 165.697
47.64000 157.227
47.68000 164.120
47.72000 159.973
47.76000 154.314
47.80000 160.368
47.84000 149.192
47.88000 161.055
47.92000 163.799
47.96000 164.455
48.00000 156.404
48.04000 152.505
48.08000 160.492
48.12000 166.209
48.16000 160.603
48.20000 156.778
48.24000 163.725
48.28000 162.630
48.32000 159.847
48.36000 163.842
48.40000 152.451
48.44000 145.957
48.48000 165.502
48.52000 157.854
48.56000 155.015
48.60000 153.634
48.64000 158.786
48.68000 159.231
48.72000 163.135
48.76000 151.929
48.80000 159.770
48.84000 158.049
48.88000 148.769
48.92000 151.788
48.96000 147.934
49.00000 149.226
49.04000 152.513
49.08000 152.206
49.12000 154.572
49.16000 151.103
49.20000 161.656
49.24000 157.611
49.28000 148.133
49.32000 146.789
49.36000 148.201
49.40000 165.390
49.44000 159.482
49.48000 150.270
49.52000 150.210
49.56000 149.692
49.60000 143.649
49.64000 152.376
49.68000 149.006
49.72000 156.418
49.76000 156.520
49.80000 157.445
49.84000 144.953
49.88000 143.009
49.92000 144.246
49.96000 151.565
50.00000 153.939
50.04000 141.632
50.08000 154.693
50.12000 153.722
50.16000 152.351
50.20000 152.611
50.24000 148.497
50.28000 151.801
50.32000 143.547
50.36000 149.220
50.40000 149.583
50.44000 150.952
50.48000 151.587
50.52000 161.866
50.56000 147.077
50.60000 157.112
50.64000 172.773
50.68000 161.912
50.72000 149.887
50.76000 165.380
50.80000 169.497
50.84000 153.678
50.88000 151.200
50.92000 154.905
50.96000 150.915
51.00000 142.936
51.04000 144.441
51.08000 141.988
51.12000 143.196
51.16000 143.125
51.20000 155.234
51.24000 139.149
51.28000 143.793
51.32000 150.280
51.36000 148.160
51.40000 144.421
51.44000 141.170
51.48000 151.478
51.52000 139.772
51.56000 136.190
51.60000 138.287
51.64000 143.706
51.68000 152.307
51.72000 138.333
51.76000 144.067
51.80000 145.770
51.84000 133.353
51.88000 145.011
51.92000 131.541
51.96000 133.199
52.00000 140.416
52.04000 140.324
52.08000 138.872
52.12000 131.564
52.16000 138.697
52.20000 131.366
52.24000 138.284
52.28000 139.280
52.32000 140.023
52.36000 125.664
52.40000 141.737
52.44000 138.541
52.48000 140.721
52.52000 136.749
52.56000 139.281
52.60000 130.684
52.64000 138.648
52.68000 138.320
52.72000 141.704
52.76000 134.214
52.80000 130.655
52.84000 137.789
52.88000 137.415
52.92000 138.503
52.96000 137.062
53.00000 144.951
53.04000 136.303
53.08000 148.707
53.12000 143.370
53.16000 145.590
53.20000 138.684
53.24000 151.930
53.28000 146.805
53.32000 147.562
53.36000 161.132
53.40000 141.550
53.44000 134.712
53.48000 144.760
53.52000 153.932
53.56000 140.668
53.60000 137.467
53.64000 137.119
53.68000 160.298
53.72000 142.104
53.76000 139.982
53.80000 140.446
53.84000 133.402
53.88000 134.534
53.92000 139.781
53.96000 146.772
54.00000 135.691
54.04000 134.045
54.08000 134.498
54.12000 136.772
54.16000 137.548
54.20000 138.429
54.24000 138.630
54.28000 140.500
54.32000 135.767
54.36000 134.420
54.40000 131.709
54.44000 140.805
54.48000 145.537
54.52000 128.905
54.56000 126.541
54.60000 133.422
54.64000 137.357
54.68000 121.998
54.72000 141.474
54.76000 135.510
54.80000 149.266
54.84000 141.675
54.88000 139.160
54.92000 137.035
54.96000 132.974
55.00000 151.668
55.04000 137.578
55.08000 135.712
55.12000 148.494
55.16000 157.132
55.20000 146.419
55.24000 153.130
55.28000 153.968
55.32000 157.990
55.36000 162.455
55.40000 178.446
55.44000 172.389
55.48000 172.284
55.52000 177.360
55.56000 205.130
55.60000 221.926
55.64000 243.535
55.68000 270.033
55.72000 295.459
55.76000 328.877
55.80000 360.028
55.84000 386.158
55.88000 433.446
55.92000 434.777
55.96000 456.294
56.00000 454.963
56.04000 428.616
56.08000 402.773
56.12000 373.685
56.16000 342.098
56.20000 302.297
56.24000 261.812
56.28000 237.971
56.32000 217.760
56.36000 191.752
56.40000 184.498
56.44000 168.093
56.48000 163.048
56.52000 155.085
56.56000 153.637
56.60000 145.278
56.64000 140.250
56.68000 136.683
56.72000 133.394
56.76000 143.656
56.80000 131.500
56.84000 136.211
56.88000 134.925
56.92000 131.770
56.96000 141.020
57.00000 132.839
57.04000 123.895
57.08000 122.042
57.12000 127.684
57.16000 132.324
57.20000 141.284
57.24000 122.965
57.28000 123.134
57.32000 120.778
57.36000 119.991
57.40000 129.171
57.44000 126.060
57.48000 127.482
57.52000 119.185
57.56000 119.402
57.60000 118.015
57.64000 129.134
57.68000 117.146
57.72000 126.413
57.76000 127.572
57.80000 128.787
57.84000 117.558
57.88000 121.435
57.92000 115.943
57.96000 117.345
58.00000 126.992
58.04000 122.274
58.08000 122.482
58.12000 118.551
58.16000 121.719
58.20000 120.673
58.24000 122.602
58.28000 125.129
58.32000 116.454
58.36000 121.899
58.40000 119.693
58.44000 116.803
58.48000 118.038
58.52000 113.366
58.56000 116.147
58.60000 117.983
58.64000 122.181
58.68000 114.193
58.72000 118.107
58.76000 123.765
58.80000 124.923
58.84000 113.747
58.88000 107.416
58.92000 121.408
58.96000 112.612
59.00000 120.409
59.04000 116.173
59.08000 121.510
59.12000 127.904
59.16000 119.892
59.20000 118.813
59.24000 126.973
59.28000 116.739
59.32000 124.321
59.36000 115.630
59.40000 125.132
59.44000 116.815
59.48000 120.042
59.52000 110.080
59.56000 118.223
59.60000 116.633
59.64000 115.928
59.68000 120.332
59.72000 111.879
59.76000 116.707
59.80000 116.882
59.84000 116.827
59.88000 116.078
59.92000 120.695
59.96000 111.542
60.00000 121.412
60.04000 119.406
60.08000 110.461
60.12000 116.086
60.16000 128.497
60.20000 120.434
60.24000 115.228
60.28000 124.941
60.32000 123.103
60.36000 115.518
60.40000 111.503
60.44000 120.655
60.48000 126.107
60.52000 122.206
60.56000 125.045
60.60000 121.682
60.64000 116.253
60.68000 123.191
60.72000 126.405
60.76000 114.650
60.80000 112.787
60.84000 116.388
60.88000 118.774
60.92000 123.223
60.96000 123.454
61.00000 117.288
61.04000 131.242
61.08000 124.843
61.12000 131.173
61.16000 126.158
61.20000 121.401
61.24000 120.375
61.28000 124.708
61.32000 124.206
61.36000 121.690
61.40000 123.752
61.44000 136.159
61.48000 135.742
61.52000 155.600
61.56000 195.162
61.60000 250.570
61.64000 286.565
61.68000 290.855
61.72000 287.652
61.76000 277.675
61.80000 228.172
61.84000 184.370
61.88000 155.303
61.92000 139.709
61.96000 129.137
62.00000 126.618
62.04000 124.623
62.08000 133.045
62.12000 124.265
62.16000 123.504
62.20000 117.352
62.24000 119.879
62.28000 121.395
62.32000 126.706
62.36000 125.599
62.40000 120.606
62.44000 121.062
62.48000 119.524
62.52000 124.351
62.56000 122.478
62.60000 132.316
62.64000 126.746
62.68000 121.078
62.72000 133.548
62.76000 137.711
62.80000 139.265
62.84000 131.039
62.88000 135.591
62.92000 133.832
62.96000 133.197
63.00000 136.140
63.04000 132.860
63.08000 129.572
63.12000 126.963
63.16000 120.233
63.20000 135.936
63.24000 134.890
63.28000 138.960
63.32000 132.118
63.36000 133.930
63.40000 124.124
63.44000 134.795
63.48000 127.723
63.52000 132.411
63.56000 129.662
63.60000 140.728
63.64000 133.224
63.68000 143.656
63.72000 152.461
63.76000 148.850
63.80000 138.486
63.84000 134.813
63.88000 130.525
63.92000 141.093
63.96000 139.783
64.00000 137.317
64.04000 147.030
64.08000 145.502
64.12000 150.628
64.16000 158.709
64.20000 151.678
64.24000 144.954
64.28000 157.870
64.32000 142.869
64.36000 153.545
64.40000 157.358
64.44000 163.482
64.48000 164.806
64.52000 168.238
64.56000 166.313
64.60000 175.092
64.64000 170.406
64.68000 164.203
64.72000 171.777
64.76000 163.043
64.80000 168.993
64.84000 173.308
64.88000 175.297
64.92000 187.609
64.96000 185.755
65.00000 186.250
65.04000 194.027
65.08000 199.128
65.12000 198.763
65.16000 203.834
65.20000 205.481
65.24000 225.898
65.28000 231.707
65.32000 235.398
65.36000 250.138
65.40000 251.613
65.44000 269.967
65.48000 291.713
65.52000 313.169
65.56000 324.583
65.60000 352.617
65.64000 426.598
65.68000 551.868
65.72000 880.270
65.76000 1345.078
65.80000 1747.814
65.84000 1926.572
65.88000 1950.372
65.92000 1825.424
65.96000 1497.373
66.00000 1031.547
66.04000 655.309
66.08000 471.988
66.12000 406.385
66.16000 376.409
66.20000 360.231
66.24000 384.946
66.28000 446.586
66.32000 511.140
66.36000 597.977
66.40000 589.454
66.44000 603.280
66.48000 598.182
66.52000 527.360
66.56000 432.678
66.60000 390.309
66.64000 342.480
66.68000 356.023
66.72000 354.047
66.76000 350.128
66.80000 344.987
66.84000 363.320
66.88000 360.897
66.92000 356.751
66.96000 367.262
67.00000 364.954
67.04000 357.195
67.08000 369.965
67.12000 366.115
67.16000 385.172
67.20000 398.697
67.24000 395.977
67.28000 394.091
67.32000 397.993
67.36000 416.733
67.40000 407.097
67.44000 414.038
67.48000 416.857
67.52000 429.290
67.56000 444.235
67.60000 437.115
67.64000 442.896
67.68000 462.113
67.72000 436.428
67.76000 479.121
67.80000 461.848
67.84000 459.243
67.88000 470.738
67.92000 487.943
67.96000 490.070
68.00000 490.521
68.04000 520.824
68.08000 516.505
68.12000 522.370
68.16000 535.123
68.20000 536.595
68.24000 560.490
68.28000 547.568
68.32000 567.569
68.36000 606.840
68.40000 594.186
68.44000 647.569
68.48000 671.251
68.52000 708.550
68.56000 734.290
68.60000 820.974
68.64000 949.590
68.68000 1104.965
68.72000 1298.496
68.76000 1443.628
68.80000 1607.643
68.84000 1828.797
68.88000 2210.432
68.92000 3173.573
68.96000 8912.277
69.00000 20684.291
69.04000 33344.730
69.08000 40267.660
69.12000 43034.777
69.16000 45973.434
69.20000 45924.832
69.24000 37038.090
69.28000 27114.770
69.32000 22085.570
69.36000 20583.967
69.40000 17419.346
69.44000 10953.452
69.48000 4945.203
69.52000 2170.103
69.56000 1340.491
69.60000 1047.915
69.64000 933.728
69.68000 794.494
69.72000 757.484
69.76000 697.231
69.80000 638.473
69.84000 595.938
69.88000 559.620
69.92000 526.504
69.96000 501.720
70.00000 493.652