File: XRD/07-10-2025 Dep 6/XY Data/BTO_Mapping_Theta2Theta_07-10-2025_001_27_-16-180_11-756.xy
20.00000 464.958
20.04000 472.791
20.08000 463.952
20.12000 475.456
20.16000 473.549
20.20000 433.193
20.24000 473.500
20.28000 466.141
20.32000 457.603
20.36000 469.300
20.40000 457.900
20.44000 463.160
20.48000 456.983
20.52000 463.269
20.56000 461.170
20.60000 456.698
20.64000 471.399
20.68000 454.196
20.72000 443.561
20.76000 452.223
20.80000 461.476
20.84000 463.881
20.88000 462.442
20.92000 451.868
20.96000 458.706
21.00000 444.528
21.04000 467.908
21.08000 480.113
21.12000 468.153
21.16000 481.972
21.20000 455.071
21.24000 457.181
21.28000 456.161
21.32000 454.651
21.36000 465.998
21.40000 465.957
21.44000 469.740
21.48000 459.927
21.52000 468.776
21.56000 454.303
21.60000 462.964
21.64000 463.175
21.68000 473.319
21.72000 464.525
21.76000 465.316
21.80000 479.071
21.84000 497.793
21.88000 518.969
21.92000 528.745
21.96000 544.408
22.00000 544.917
22.04000 537.009
22.08000 536.102
22.12000 554.301
22.16000 520.638
22.20000 548.106
22.24000 531.051
22.28000 503.401
22.32000 497.953
22.36000 483.757
22.40000 470.041
22.44000 449.269
22.48000 453.420
22.52000 448.363
22.56000 445.943
22.60000 439.809
22.64000 430.707
22.68000 430.922
22.72000 437.041
22.76000 435.387
22.80000 439.508
22.84000 434.961
22.88000 441.167
22.92000 427.004
22.96000 425.346
23.00000 430.358
23.04000 437.254
23.08000 423.368
23.12000 433.683
23.16000 427.186
23.20000 427.319
23.24000 427.240
23.28000 409.407
23.32000 422.896
23.36000 421.205
23.40000 432.467
23.44000 423.506
23.48000 432.713
23.52000 424.011
23.56000 429.108
23.60000 422.721
23.64000 431.075
23.68000 428.202
23.72000 429.737
23.76000 413.982
23.80000 438.485
23.84000 441.994
23.88000 436.825
23.92000 446.257
23.96000 442.078
24.00000 450.058
24.04000 464.113
24.08000 455.825
24.12000 469.029
24.16000 465.823
24.20000 436.504
24.24000 430.187
24.28000 412.689
24.32000 416.951
24.36000 405.157
24.40000 422.612
24.44000 409.361
24.48000 392.590
24.52000 413.152
24.56000 422.315
24.60000 387.941
24.64000 407.579
24.68000 396.783
24.72000 415.276
24.76000 411.482
24.80000 420.786
24.84000 391.041
24.88000 406.340
24.92000 400.549
24.96000 412.208
25.00000 392.492
25.04000 414.605
25.08000 398.834
25.12000 399.042
25.16000 380.066
25.20000 388.430
25.24000 396.387
25.28000 394.939
25.32000 382.992
25.36000 381.751
25.40000 413.335
25.44000 381.063
25.48000 389.440
25.52000 390.171
25.56000 385.648
25.60000 397.809
25.64000 388.831
25.68000 384.978
25.72000 400.645
25.76000 394.139
25.80000 396.739
25.84000 386.964
25.88000 399.699
25.92000 381.278
25.96000 371.129
26.00000 387.993
26.04000 361.621
26.08000 375.454
26.12000 380.684
26.16000 373.017
26.20000 380.472
26.24000 389.367
26.28000 387.811
26.32000 380.476
26.36000 382.071
26.40000 376.235
26.44000 381.275
26.48000 375.034
26.52000 385.544
26.56000 358.400
26.60000 376.694
26.64000 368.936
26.68000 368.422
26.72000 370.658
26.76000 378.169
26.80000 377.299
26.84000 366.811
26.88000 379.177
26.92000 375.506
26.96000 364.090
27.00000 369.069
27.04000 383.328
27.08000 364.764
27.12000 375.637
27.16000 348.600
27.20000 369.022
27.24000 375.397
27.28000 349.832
27.32000 380.055
27.36000 392.357
27.40000 363.787
27.44000 348.784
27.48000 367.913
27.52000 379.158
27.56000 368.275
27.60000 375.188
27.64000 375.684
27.68000 373.642
27.72000 365.586
27.76000 370.425
27.80000 350.116
27.84000 357.442
27.88000 353.838
27.92000 359.302
27.96000 372.412
28.00000 352.184
28.04000 374.499
28.08000 337.202
28.12000 347.523
28.16000 364.708
28.20000 359.177
28.24000 352.581
28.28000 351.292
28.32000 373.184
28.36000 362.662
28.40000 350.060
28.44000 352.934
28.48000 357.033
28.52000 351.620
28.56000 366.904
28.60000 357.382
28.64000 347.808
28.68000 357.159
28.72000 332.372
28.76000 335.828
28.80000 341.384
28.84000 356.311
28.88000 339.910
28.92000 360.705
28.96000 343.605
29.00000 351.648
29.04000 353.887
29.08000 352.021
29.12000 354.503
29.16000 347.982
29.20000 361.078
29.24000 362.294
29.28000 342.964
29.32000 341.023
29.36000 348.906
29.40000 341.371
29.44000 343.645
29.48000 346.900
29.52000 354.388
29.56000 341.608
29.60000 335.862
29.64000 350.491
29.68000 361.327
29.72000 337.203
29.76000 350.239
29.80000 354.995
29.84000 366.772
29.88000 385.643
29.92000 378.866
29.96000 364.268
30.00000 373.027
30.04000 401.161
30.08000 380.704
30.12000 372.625
30.16000 378.722
30.20000 362.457
30.24000 366.898
30.28000 363.171
30.32000 370.143
30.36000 360.043
30.40000 361.082
30.44000 353.944
30.48000 355.470
30.52000 362.870
30.56000 360.820
30.60000 360.789
30.64000 366.112
30.68000 351.717
30.72000 368.397
30.76000 346.386
30.80000 376.242
30.84000 365.322
30.88000 406.288
30.92000 383.558
30.96000 411.866
31.00000 438.132
31.04000 504.371
31.08000 590.674
31.12000 670.803
31.16000 795.054
31.20000 942.758
31.24000 1084.596
31.28000 1278.307
31.32000 1412.862
31.36000 1423.972
31.40000 1410.179
31.44000 1298.860
31.48000 1160.046
31.52000 964.198
31.56000 822.742
31.60000 671.950
31.64000 571.650
31.68000 491.308
31.72000 456.074
31.76000 420.528
31.80000 397.948
31.84000 372.348
31.88000 383.330
31.92000 372.815
31.96000 342.590
32.00000 330.663
32.04000 346.014
32.08000 344.624
32.12000 342.401
32.16000 321.477
32.20000 328.079
32.24000 314.121
32.28000 310.215
32.32000 327.673
32.36000 326.397
32.40000 321.858
32.44000 307.407
32.48000 316.190
32.52000 304.365
32.56000 298.547
32.60000 318.604
32.64000 301.272
32.68000 321.889
32.72000 304.951
32.76000 310.550
32.80000 338.133
32.84000 394.707
32.88000 474.964
32.92000 510.420
32.96000 515.159
33.00000 522.849
33.04000 499.208
33.08000 425.722
33.12000 367.587
33.16000 325.051
33.20000 307.973
33.24000 305.577
33.28000 287.405
33.32000 286.415
33.36000 301.889
33.40000 287.417
33.44000 277.340
33.48000 297.973
33.52000 286.767
33.56000 284.260
33.60000 301.433
33.64000 292.832
33.68000 287.674
33.72000 293.013
33.76000 303.547
33.80000 304.358
33.84000 292.645
33.88000 273.275
33.92000 307.269
33.96000 294.843
34.00000 303.167
34.04000 305.518
34.08000 305.464
34.12000 308.894
34.16000 303.246
34.20000 303.042
34.24000 321.954
34.28000 309.016
34.32000 318.474
34.36000 306.726
34.40000 305.600
34.44000 306.281
34.48000 308.551
34.52000 314.726
34.56000 316.397
34.60000 296.295
34.64000 296.624
34.68000 291.069
34.72000 299.428
34.76000 280.198
34.80000 280.391
34.84000 290.102
34.88000 265.697
34.92000 277.331
34.96000 283.302
35.00000 276.816
35.04000 267.549
35.08000 273.202
35.12000 269.264
35.16000 248.642
35.20000 270.619
35.24000 277.716
35.28000 271.322
35.32000 253.977
35.36000 259.792
35.40000 252.527
35.44000 248.824
35.48000 269.914
35.52000 264.167
35.56000 263.489
35.60000 261.046
35.64000 258.232
35.68000 254.133
35.72000 257.772
35.76000 263.461
35.80000 256.231
35.84000 261.557
35.88000 257.383
35.92000 255.385
35.96000 245.787
36.00000 276.548
36.04000 250.919
36.08000 261.402
36.12000 257.166
36.16000 260.793
36.20000 244.928
36.24000 249.366
36.28000 250.851
36.32000 262.458
36.36000 255.769
36.40000 256.611
36.44000 248.781
36.48000 248.279
36.52000 250.563
36.56000 245.705
36.60000 253.060
36.64000 267.471
36.68000 246.274
36.72000 254.658
36.76000 251.458
36.80000 266.918
36.84000 247.672
36.88000 268.294
36.92000 261.648
36.96000 262.685
37.00000 284.235
37.04000 299.951
37.08000 287.123
37.12000 269.866
37.16000 265.760
37.20000 265.434
37.24000 253.956
37.28000 248.501
37.32000 250.619
37.36000 263.137
37.40000 248.761
37.44000 262.870
37.48000 249.047
37.52000 255.791
37.56000 258.631
37.60000 249.060
37.64000 242.459
37.68000 248.364
37.72000 248.461
37.76000 235.957
37.80000 242.716
37.84000 242.120
37.88000 254.709
37.92000 260.676
37.96000 240.949
38.00000 260.799
38.04000 256.973
38.08000 241.554
38.12000 250.516
38.16000 251.700
38.20000 275.461
38.24000 265.806
38.28000 284.927
38.32000 299.347
38.36000 321.265
38.40000 349.027
38.44000 429.787
38.48000 500.836
38.52000 602.377
38.56000 711.434
38.60000 788.845
38.64000 910.122
38.68000 962.974
38.72000 983.690
38.76000 988.890
38.80000 911.775
38.84000 826.838
38.88000 702.002
38.92000 561.359
38.96000 462.564
39.00000 392.008
39.04000 310.034
39.08000 288.646
39.12000 266.136
39.16000 257.021
39.20000 239.318
39.24000 225.324
39.28000 233.432
39.32000 226.465
39.36000 234.462
39.40000 238.806
39.44000 231.753
39.48000 239.880
39.52000 234.204
39.56000 231.380
39.60000 235.235
39.64000 221.211
39.68000 228.475
39.72000 240.759
39.76000 221.574
39.80000 232.948
39.84000 212.771
39.88000 223.479
39.92000 221.618
39.96000 223.661
40.00000 218.049
40.04000 220.631
40.08000 222.493
40.12000 220.014
40.16000 220.270
40.20000 221.009
40.24000 208.876
40.28000 212.594
40.32000 227.333
40.36000 221.075
40.40000 221.156
40.44000 205.590
40.48000 213.835
40.52000 223.279
40.56000 218.788
40.60000 216.437
40.64000 220.155
40.68000 216.004
40.72000 210.582
40.76000 207.079
40.80000 214.069
40.84000 202.650
40.88000 205.886
40.92000 208.478
40.96000 203.760
41.00000 215.122
41.04000 209.259
41.08000 191.646
41.12000 216.920
41.16000 205.713
41.20000 195.571
41.24000 217.262
41.28000 211.286
41.32000 208.730
41.36000 201.678
41.40000 201.409
41.44000 209.587
41.48000 200.119
41.52000 202.056
41.56000 203.662
41.60000 219.129
41.64000 217.564
41.68000 204.265
41.72000 212.723
41.76000 203.477
41.80000 211.468
41.84000 200.966
41.88000 204.230
41.92000 190.475
41.96000 196.272
42.00000 211.147
42.04000 206.714
42.08000 203.459
42.12000 213.457
42.16000 200.243
42.20000 203.814
42.24000 201.560
42.28000 207.451
42.32000 200.908
42.36000 190.508
42.40000 201.027
42.44000 206.879
42.48000 204.322
42.52000 210.851
42.56000 196.136
42.60000 196.062
42.64000 206.330
42.68000 200.238
42.72000 204.689
42.76000 203.297
42.80000 202.639
42.84000 206.008
42.88000 202.883
42.92000 207.604
42.96000 202.676
43.00000 196.981
43.04000 189.376
43.08000 197.290
43.12000 178.830
43.16000 194.095
43.20000 185.498
43.24000 205.406
43.28000 189.633
43.32000 198.653
43.36000 170.691
43.40000 184.333
43.44000 186.818
43.48000 186.953
43.52000 194.509
43.56000 177.068
43.60000 193.864
43.64000 190.639
43.68000 188.023
43.72000 191.642
43.76000 184.871
43.80000 196.763
43.84000 191.913
43.88000 177.698
43.92000 186.582
43.96000 189.727
44.00000 180.492
44.04000 187.756
44.08000 190.267
44.12000 192.161
44.16000 185.006
44.20000 192.059
44.24000 191.098
44.28000 201.288
44.32000 199.666
44.36000 191.425
44.40000 188.828
44.44000 197.748
44.48000 197.234
44.52000 199.111
44.56000 205.853
44.60000 208.242
44.64000 225.910
44.68000 214.177
44.72000 225.571
44.76000 225.484
44.80000 232.784
44.84000 233.084
44.88000 248.989
44.92000 252.088
44.96000 253.948
45.00000 248.527
45.04000 258.043
45.08000 257.589
45.12000 269.657
45.16000 267.917
45.20000 247.336
45.24000 247.104
45.28000 229.368
45.32000 230.865
45.36000 224.720
45.40000 217.910
45.44000 217.094
45.48000 211.856
45.52000 219.690
45.56000 194.422
45.60000 203.129
45.64000 192.492
45.68000 194.214
45.72000 198.411
45.76000 203.524
45.80000 194.473
45.84000 197.183
45.88000 181.959
45.92000 183.729
45.96000 184.469
46.00000 182.423
46.04000 181.242
46.08000 173.289
46.12000 179.261
46.16000 179.838
46.20000 191.789
46.24000 176.332
46.28000 181.474
46.32000 171.649
46.36000 176.867
46.40000 165.531
46.44000 178.204
46.48000 169.098
46.52000 167.423
46.56000 181.160
46.60000 173.577
46.64000 162.145
46.68000 173.757
46.72000 172.923
46.76000 169.862
46.80000 170.627
46.84000 154.027
46.88000 162.630
46.92000 177.874
46.96000 167.052
47.00000 153.701
47.04000 170.606
47.08000 174.325
47.12000 160.813
47.16000 171.333
47.20000 165.680
47.24000 156.545
47.28000 163.991
47.32000 158.280
47.36000 159.658
47.40000 166.004
47.44000 171.230
47.48000 169.733
47.52000 152.542
47.56000 161.669
47.60000 150.950
47.64000 154.734
47.68000 155.653
47.72000 154.583
47.76000 164.854
47.80000 161.944
47.84000 160.966
47.88000 162.544
47.92000 166.087
47.96000 147.981
48.00000 150.800
48.04000 146.798
48.08000 166.283
48.12000 155.681
48.16000 149.053
48.20000 158.608
48.24000 158.828
48.28000 161.025
48.32000 170.113
48.36000 156.570
48.40000 155.914
48.44000 154.052
48.48000 146.222
48.52000 156.101
48.56000 146.622
48.60000 152.738
48.64000 161.537
48.68000 169.947
48.72000 157.721
48.76000 166.590
48.80000 155.225
48.84000 160.961
48.88000 165.066
48.92000 148.557
48.96000 158.494
49.00000 150.635
49.04000 150.472
49.08000 162.778
49.12000 154.116
49.16000 151.997
49.20000 148.832
49.24000 151.481
49.28000 148.749
49.32000 151.192
49.36000 146.892
49.40000 149.046
49.44000 146.508
49.48000 140.745
49.52000 153.704
49.56000 155.165
49.60000 156.244
49.64000 154.718
49.68000 145.705
49.72000 145.544
49.76000 153.275
49.80000 139.266
49.84000 151.464
49.88000 143.968
49.92000 159.451
49.96000 156.136
50.00000 155.590
50.04000 150.879
50.08000 143.819
50.12000 150.597
50.16000 154.052
50.20000 165.630
50.24000 151.601
50.28000 146.869
50.32000 154.238
50.36000 155.702
50.40000 165.997
50.44000 181.299
50.48000 174.983
50.52000 156.011
50.56000 186.194
50.60000 186.192
50.64000 192.090
50.68000 178.304
50.72000 182.542
50.76000 175.879
50.80000 166.661
50.84000 164.909
50.88000 162.976
50.92000 165.481
50.96000 159.624
51.00000 163.456
51.04000 163.149
51.08000 154.566
51.12000 154.456
51.16000 161.157
51.20000 142.238
51.24000 145.674
51.28000 143.060
51.32000 141.721
51.36000 131.813
51.40000 140.762
51.44000 144.545
51.48000 149.206
51.52000 137.395
51.56000 149.438
51.60000 146.353
51.64000 143.549
51.68000 138.273
51.72000 137.562
51.76000 134.486
51.80000 142.605
51.84000 138.154
51.88000 135.477
51.92000 142.324
51.96000 129.921
52.00000 137.245
52.04000 144.369
52.08000 139.397
52.12000 140.115
52.16000 141.361
52.20000 136.947
52.24000 139.855
52.28000 138.768
52.32000 139.012
52.36000 132.609
52.40000 132.482
52.44000 131.982
52.48000 139.783
52.52000 141.069
52.56000 139.009
52.60000 140.042
52.64000 136.287
52.68000 129.718
52.72000 127.807
52.76000 141.498
52.80000 133.665
52.84000 146.398
52.88000 131.241
52.92000 137.023
52.96000 139.219
53.00000 139.164
53.04000 131.929
53.08000 140.553
53.12000 143.084
53.16000 145.248
53.20000 138.428
53.24000 142.295
53.28000 145.752
53.32000 158.052
53.36000 150.031
53.40000 157.727
53.44000 164.586
53.48000 149.415
53.52000 144.752
53.56000 135.112
53.60000 144.836
53.64000 151.606
53.68000 138.396
53.72000 131.813
53.76000 137.820
53.80000 139.909
53.84000 138.139
53.88000 146.366
53.92000 131.352
53.96000 129.906
54.00000 136.575
54.04000 128.476
54.08000 134.430
54.12000 139.729
54.16000 143.680
54.20000 133.030
54.24000 140.921
54.28000 130.611
54.32000 135.310
54.36000 135.458
54.40000 138.096
54.44000 136.083
54.48000 143.036
54.52000 145.357
54.56000 130.282
54.60000 138.141
54.64000 143.102
54.68000 139.560
54.72000 144.307
54.76000 141.930
54.80000 136.558
54.84000 141.727
54.88000 143.413
54.92000 151.211
54.96000 144.235
55.00000 137.020
55.04000 142.656
55.08000 138.132
55.12000 140.761
55.16000 147.984
55.20000 140.891
55.24000 151.550
55.28000 158.563
55.32000 151.647
55.36000 155.726
55.40000 164.762
55.44000 180.916
55.48000 196.038
55.52000 220.499
55.56000 232.983
55.60000 265.470
55.64000 309.652
55.68000 354.969
55.72000 411.208
55.76000 461.650
55.80000 519.222
55.84000 556.235
55.88000 572.370
55.92000 616.949
55.96000 586.279
56.00000 572.508
56.04000 533.902
56.08000 501.459
56.12000 441.329
56.16000 394.217
56.20000 341.937
56.24000 290.472
56.28000 243.906
56.32000 214.117
56.36000 195.198
56.40000 185.546
56.44000 186.369
56.48000 155.945
56.52000 153.039
56.56000 136.553
56.60000 135.615
56.64000 146.246
56.68000 128.196
56.72000 134.541
56.76000 133.207
56.80000 133.572
56.84000 133.155
56.88000 132.278
56.92000 125.222
56.96000 115.368
57.00000 130.839
57.04000 127.603
57.08000 134.144
57.12000 126.891
57.16000 121.193
57.20000 128.979
57.24000 127.441
57.28000 132.163
57.32000 124.597
57.36000 133.557
57.40000 118.960
57.44000 130.109
57.48000 122.985
57.52000 129.561
57.56000 129.897
57.60000 123.883
57.64000 127.738
57.68000 127.795
57.72000 128.478
57.76000 127.599
57.80000 121.024
57.84000 122.927
57.88000 117.922
57.92000 120.828
57.96000 122.497
58.00000 125.499
58.04000 117.811
58.08000 124.528
58.12000 115.372
58.16000 121.497
58.20000 119.477
58.24000 124.774
58.28000 112.982
58.32000 110.668
58.36000 119.956
58.40000 114.990
58.44000 120.885
58.48000 120.413
58.52000 118.206
58.56000 121.367
58.60000 127.024
58.64000 125.385
58.68000 121.015
58.72000 119.390
58.76000 114.873
58.80000 118.546
58.84000 116.850
58.88000 120.335
58.92000 113.129
58.96000 121.114
59.00000 111.334
59.04000 117.993
59.08000 112.068
59.12000 114.247
59.16000 117.923
59.20000 112.623
59.24000 118.027
59.28000 122.812
59.32000 114.874
59.36000 111.584
59.40000 111.741
59.44000 108.422
59.48000 122.334
59.52000 123.546
59.56000 113.418
59.60000 118.226
59.64000 117.259
59.68000 115.386
59.72000 111.149
59.76000 112.515
59.80000 113.746
59.84000 112.137
59.88000 115.329
59.92000 118.069
59.96000 119.702
60.00000 129.430
60.04000 115.736
60.08000 111.221
60.12000 116.772
60.16000 121.346
60.20000 111.339
60.24000 113.730
60.28000 115.140
60.32000 120.231
60.36000 113.059
60.40000 124.114
60.44000 133.207
60.48000 120.112
60.52000 126.471
60.56000 120.864
60.60000 101.238
60.64000 114.088
60.68000 120.043
60.72000 114.842
60.76000 127.065
60.80000 116.797
60.84000 116.092
60.88000 117.039
60.92000 116.959
60.96000 117.187
61.00000 118.493
61.04000 110.358
61.08000 113.877
61.12000 120.739
61.16000 115.346
61.20000 129.828
61.24000 114.576
61.28000 121.114
61.32000 122.602
61.36000 116.492
61.40000 124.764
61.44000 124.794
61.48000 127.525
61.52000 160.341
61.56000 208.837
61.60000 266.984
61.64000 294.836
61.68000 285.373
61.72000 296.763
61.76000 280.416
61.80000 226.153
61.84000 169.864
61.88000 152.201
61.92000 137.339
61.96000 123.124
62.00000 133.527
62.04000 136.766
62.08000 129.298
62.12000 131.687
62.16000 141.810
62.20000 125.810
62.24000 129.391
62.28000 125.179
62.32000 127.921
62.36000 120.932
62.40000 126.605
62.44000 135.146
62.48000 132.938
62.52000 123.444
62.56000 130.645
62.60000 117.807
62.64000 115.039
62.68000 123.448
62.72000 129.181
62.76000 133.336
62.80000 130.916
62.84000 129.011
62.88000 124.824
62.92000 135.749
62.96000 126.291
63.00000 127.029
63.04000 130.481
63.08000 127.907
63.12000 128.655
63.16000 126.790
63.20000 134.587
63.24000 131.329
63.28000 127.243
63.32000 122.106
63.36000 131.534
63.40000 136.303
63.44000 131.741
63.48000 126.581
63.52000 139.274
63.56000 141.573
63.60000 143.648
63.64000 138.217
63.68000 133.916
63.72000 131.703
63.76000 137.812
63.80000 146.947
63.84000 150.297
63.88000 149.136
63.92000 139.326
63.96000 144.027
64.00000 140.790
64.04000 144.037
64.08000 154.663
64.12000 135.158
64.16000 155.555
64.20000 133.546
64.24000 138.214
64.28000 158.880
64.32000 146.907
64.36000 155.390
64.40000 152.026
64.44000 154.725
64.48000 154.089
64.52000 155.594
64.56000 150.506
64.60000 150.031
64.64000 166.708
64.68000 156.650
64.72000 167.520
64.76000 166.383
64.80000 172.782
64.84000 172.923
64.88000 165.807
64.92000 185.910
64.96000 178.516
65.00000 194.868
65.04000 200.479
65.08000 199.661
65.12000 208.647
65.16000 223.404
65.20000 230.069
65.24000 245.570
65.28000 238.126
65.32000 258.006
65.36000 263.085
65.40000 272.996
65.44000 291.717
65.48000 316.055
65.52000 332.690
65.56000 352.657
65.60000 405.968
65.64000 456.236
65.68000 625.199
65.72000 996.939
65.76000 1508.001
65.80000 1921.615
65.84000 2062.606
65.88000 2031.938
65.92000 1875.669
65.96000 1492.279
66.00000 1005.171
66.04000 653.797
66.08000 482.553
66.12000 383.931
66.16000 378.320
66.20000 382.740
66.24000 389.556
66.28000 463.211
66.32000 545.215
66.36000 645.181
66.40000 665.805
66.44000 638.672
66.48000 607.724
66.52000 526.604
66.56000 456.608
66.60000 395.090
66.64000 377.889
66.68000 367.190
66.72000 340.194
66.76000 357.952
66.80000 369.314
66.84000 347.635
66.88000 364.154
66.92000 358.317
66.96000 359.645
67.00000 371.144
67.04000 374.951
67.08000 365.105
67.12000 366.145
67.16000 382.387
67.20000 371.232
67.24000 414.320
67.28000 421.174
67.32000 403.391
67.36000 413.519
67.40000 403.616
67.44000 411.908
67.48000 418.013
67.52000 429.345
67.56000 432.576
67.60000 429.497
67.64000 439.391
67.68000 428.678
67.72000 460.172
67.76000 461.107
67.80000 443.593
67.84000 473.391
67.88000 482.783
67.92000 491.232
67.96000 508.254
68.00000 496.242
68.04000 508.329
68.08000 517.306
68.12000 529.248
68.16000 547.509
68.20000 548.810
68.24000 563.548
68.28000 576.684
68.32000 598.902
68.36000 599.950
68.40000 645.439
68.44000 638.011
68.48000 687.820
68.52000 684.710
68.56000 768.571
68.60000 872.183
68.64000 1002.170
68.68000 1172.745
68.72000 1392.443
68.76000 1544.382
68.80000 1710.483
68.84000 1956.742
68.88000 2438.800
68.92000 3932.597
68.96000 11056.695
69.00000 24158.566
69.04000 36721.613
69.08000 42958.703
69.12000 45536.234
69.16000 48484.824
69.20000 46907.160
69.24000 36495.309
69.28000 27596.594
69.32000 22904.422
69.36000 21355.086
69.40000 17207.805
69.44000 10153.969
69.48000 4633.668
69.52000 2028.770
69.56000 1337.407
69.60000 1067.270
69.64000 934.049
69.68000 810.226
69.72000 736.859
69.76000 648.180
69.80000 625.535
69.84000 594.420
69.88000 557.125
69.92000 539.074
69.96000 509.646
70.00000 494.866