File: XRD/07-10-2025 Dep 6/XY Data/BTO_Mapping_Theta2Theta_07-10-2025_001_04_30-000_0-000.xy
20.00000 477.828
20.04000 482.272
20.08000 484.339
20.12000 472.043
20.16000 465.501
20.20000 482.849
20.24000 463.989
20.28000 459.766
20.32000 453.969
20.36000 485.005
20.40000 492.148
20.44000 461.456
20.48000 473.642
20.52000 464.767
20.56000 460.442
20.60000 474.202
20.64000 479.968
20.68000 462.814
20.72000 490.176
20.76000 475.069
20.80000 471.148
20.84000 452.093
20.88000 458.427
20.92000 463.801
20.96000 467.153
21.00000 484.442
21.04000 460.444
21.08000 452.782
21.12000 460.512
21.16000 462.961
21.20000 467.980
21.24000 431.048
21.28000 462.571
21.32000 462.649
21.36000 452.066
21.40000 460.427
21.44000 437.134
21.48000 452.285
21.52000 487.833
21.56000 449.814
21.60000 471.387
21.64000 467.342
21.68000 465.875
21.72000 466.502
21.76000 469.135
21.80000 487.288
21.84000 472.959
21.88000 482.475
21.92000 494.667
21.96000 502.185
22.00000 500.178
22.04000 496.503
22.08000 516.214
22.12000 489.941
22.16000 491.522
22.20000 498.217
22.24000 483.501
22.28000 489.488
22.32000 466.668
22.36000 472.354
22.40000 451.020
22.44000 458.776
22.48000 469.368
22.52000 458.790
22.56000 452.706
22.60000 457.136
22.64000 447.984
22.68000 439.546
22.72000 441.123
22.76000 449.817
22.80000 434.719
22.84000 436.472
22.88000 436.542
22.92000 416.844
22.96000 447.236
23.00000 427.004
23.04000 434.096
23.08000 422.637
23.12000 434.133
23.16000 433.896
23.20000 439.710
23.24000 433.034
23.28000 436.555
23.32000 452.304
23.36000 431.979
23.40000 433.660
23.44000 447.234
23.48000 438.983
23.52000 434.024
23.56000 464.018
23.60000 456.815
23.64000 485.123
23.68000 456.547
23.72000 456.020
23.76000 467.430
23.80000 473.242
23.84000 484.576
23.88000 492.353
23.92000 512.159
23.96000 519.796
24.00000 492.648
24.04000 491.917
24.08000 500.447
24.12000 491.829
24.16000 463.882
24.20000 463.420
24.24000 459.573
24.28000 429.882
24.32000 422.165
24.36000 447.110
24.40000 431.399
24.44000 421.078
24.48000 421.191
24.52000 424.722
24.56000 413.087
24.60000 407.052
24.64000 417.936
24.68000 410.935
24.72000 397.667
24.76000 410.071
24.80000 394.093
24.84000 396.694
24.88000 401.956
24.92000 415.713
24.96000 409.148
25.00000 427.004
25.04000 403.921
25.08000 397.902
25.12000 404.412
25.16000 392.010
25.20000 405.195
25.24000 399.328
25.28000 384.442
25.32000 400.457
25.36000 392.248
25.40000 404.020
25.44000 389.024
25.48000 382.528
25.52000 401.968
25.56000 390.100
25.60000 384.564
25.64000 392.280
25.68000 396.253
25.72000 396.103
25.76000 387.824
25.80000 405.184
25.84000 394.411
25.88000 388.775
25.92000 394.490
25.96000 399.873
26.00000 381.283
26.04000 380.072
26.08000 378.975
26.12000 378.566
26.16000 385.692
26.20000 384.978
26.24000 382.742
26.28000 370.633
26.32000 374.951
26.36000 367.438
26.40000 394.190
26.44000 379.333
26.48000 385.902
26.52000 377.473
26.56000 375.653
26.60000 380.858
26.64000 360.343
26.68000 379.417
26.72000 372.863
26.76000 372.368
26.80000 405.814
26.84000 394.972
26.88000 400.263
26.92000 380.106
26.96000 377.238
27.00000 389.079
27.04000 387.018
27.08000 366.996
27.12000 361.706
27.16000 359.528
27.20000 371.149
27.24000 388.256
27.28000 384.033
27.32000 370.954
27.36000 368.343
27.40000 365.833
27.44000 371.802
27.48000 381.762
27.52000 372.189
27.56000 379.108
27.60000 367.225
27.64000 372.757
27.68000 362.251
27.72000 349.021
27.76000 350.135
27.80000 370.429
27.84000 369.415
27.88000 361.622
27.92000 369.631
27.96000 376.770
28.00000 373.531
28.04000 375.183
28.08000 384.980
28.12000 352.446
28.16000 357.693
28.20000 360.209
28.24000 370.925
28.28000 353.707
28.32000 354.574
28.36000 357.878
28.40000 348.686
28.44000 361.888
28.48000 370.004
28.52000 379.471
28.56000 371.484
28.60000 364.882
28.64000 355.713
28.68000 354.951
28.72000 348.805
28.76000 370.577
28.80000 372.554
28.84000 363.855
28.88000 372.435
28.92000 372.309
28.96000 364.168
29.00000 362.552
29.04000 349.467
29.08000 363.300
29.12000 367.194
29.16000 370.944
29.20000 363.993
29.24000 345.368
29.28000 363.151
29.32000 366.023
29.36000 375.921
29.40000 359.185
29.44000 341.642
29.48000 368.833
29.52000 364.366
29.56000 356.837
29.60000 356.988
29.64000 368.707
29.68000 360.862
29.72000 368.017
29.76000 365.008
29.80000 363.720
29.84000 377.445
29.88000 378.269
29.92000 373.804
29.96000 381.613
30.00000 382.331
30.04000 380.544
30.08000 378.281
30.12000 373.982
30.16000 375.591
30.20000 381.636
30.24000 362.691
30.28000 355.103
30.32000 370.095
30.36000 363.576
30.40000 363.280
30.44000 366.495
30.48000 384.734
30.52000 378.869
30.56000 373.176
30.60000 376.780
30.64000 377.202
30.68000 375.082
30.72000 389.149
30.76000 387.168
30.80000 394.869
30.84000 399.050
30.88000 393.756
30.92000 418.435
30.96000 436.725
31.00000 474.270
31.04000 476.241
31.08000 555.680
31.12000 574.655
31.16000 636.830
31.20000 690.450
31.24000 765.938
31.28000 821.932
31.32000 873.826
31.36000 935.586
31.40000 900.562
31.44000 880.705
31.48000 840.629
31.52000 751.050
31.56000 697.142
31.60000 635.944
31.64000 574.423
31.68000 529.189
31.72000 473.092
31.76000 444.569
31.80000 414.038
31.84000 387.369
31.88000 395.482
31.92000 407.248
31.96000 377.506
32.00000 383.319
32.04000 362.933
32.08000 360.688
32.12000 370.888
32.16000 370.237
32.20000 356.094
32.24000 346.318
32.28000 331.906
32.32000 340.115
32.36000 321.879
32.40000 353.212
32.44000 339.174
32.48000 349.082
32.52000 329.608
32.56000 319.851
32.60000 322.566
32.64000 322.905
32.68000 311.506
32.72000 325.730
32.76000 324.151
32.80000 339.178
32.84000 397.746
32.88000 437.113
32.92000 525.728
32.96000 535.716
33.00000 531.501
33.04000 513.005
33.08000 452.550
33.12000 390.741
33.16000 346.534
33.20000 316.505
33.24000 293.819
33.28000 310.984
33.32000 282.870
33.36000 296.713
33.40000 306.376
33.44000 297.207
33.48000 299.581
33.52000 297.777
33.56000 281.258
33.60000 296.271
33.64000 289.460
33.68000 279.965
33.72000 286.997
33.76000 287.946
33.80000 292.754
33.84000 285.350
33.88000 297.224
33.92000 293.641
33.96000 287.490
34.00000 290.302
34.04000 309.639
34.08000 307.384
34.12000 306.475
34.16000 315.125
34.20000 311.827
34.24000 298.459
34.28000 309.051
34.32000 290.801
34.36000 307.317
34.40000 309.818
34.44000 304.034
34.48000 307.915
34.52000 306.251
34.56000 296.300
34.60000 296.796
34.64000 294.770
34.68000 290.426
34.72000 289.578
34.76000 295.112
34.80000 299.135
34.84000 282.614
34.88000 266.779
34.92000 267.749
34.96000 259.310
35.00000 274.631
35.04000 269.489
35.08000 262.980
35.12000 265.578
35.16000 284.098
35.20000 281.344
35.24000 259.320
35.28000 251.725
35.32000 268.039
35.36000 280.352
35.40000 268.572
35.44000 273.244
35.48000 253.194
35.52000 265.359
35.56000 257.424
35.60000 263.546
35.64000 255.145
35.68000 278.211
35.72000 259.811
35.76000 247.802
35.80000 245.792
35.84000 258.584
35.88000 244.966
35.92000 259.880
35.96000 259.197
36.00000 252.473
36.04000 250.738
36.08000 251.956
36.12000 266.653
36.16000 260.564
36.20000 253.868
36.24000 253.207
36.28000 264.731
36.32000 271.218
36.36000 254.985
36.40000 244.785
36.44000 256.292
36.48000 253.344
36.52000 253.513
36.56000 267.850
36.60000 261.815
36.64000 258.211
36.68000 250.596
36.72000 255.733
36.76000 256.291
36.80000 256.111
36.84000 257.076
36.88000 272.018
36.92000 276.335
36.96000 268.816
37.00000 255.919
37.04000 274.265
37.08000 259.621
37.12000 245.054
37.16000 249.749
37.20000 252.222
37.24000 259.687
37.28000 255.403
37.32000 260.129
37.36000 257.445
37.40000 261.424
37.44000 255.456
37.48000 232.270
37.52000 252.782
37.56000 233.084
37.60000 251.701
37.64000 239.551
37.68000 252.789
37.72000 260.040
37.76000 264.121
37.80000 254.535
37.84000 261.315
37.88000 245.354
37.92000 252.106
37.96000 256.986
38.00000 244.509
38.04000 244.757
38.08000 251.349
38.12000 257.030
38.16000 260.897
38.20000 260.168
38.24000 272.883
38.28000 290.973
38.32000 287.317
38.36000 292.203
38.40000 311.471
38.44000 336.606
38.48000 368.696
38.52000 403.844
38.56000 468.889
38.60000 511.944
38.64000 562.066
38.68000 565.865
38.72000 587.053
38.76000 586.130
38.80000 518.946
38.84000 465.411
38.88000 405.693
38.92000 375.023
38.96000 325.535
39.00000 291.946
39.04000 285.190
39.08000 269.866
39.12000 245.086
39.16000 258.926
39.20000 268.784
39.24000 235.320
39.28000 253.032
39.32000 230.105
39.36000 241.252
39.40000 234.835
39.44000 236.768
39.48000 236.201
39.52000 239.013
39.56000 240.287
39.60000 237.577
39.64000 241.823
39.68000 238.586
39.72000 231.844
39.76000 226.041
39.80000 244.580
39.84000 229.428
39.88000 235.880
39.92000 230.925
39.96000 218.230
40.00000 230.046
40.04000 234.851
40.08000 232.876
40.12000 242.099
40.16000 226.490
40.20000 226.357
40.24000 225.633
40.28000 226.057
40.32000 219.749
40.36000 221.914
40.40000 211.728
40.44000 231.226
40.48000 218.456
40.52000 216.474
40.56000 223.909
40.60000 210.215
40.64000 212.060
40.68000 214.126
40.72000 216.538
40.76000 215.984
40.80000 209.827
40.84000 200.150
40.88000 207.183
40.92000 217.204
40.96000 209.412
41.00000 238.527
41.04000 201.338
41.08000 216.145
41.12000 222.334
41.16000 208.688
41.20000 218.172
41.24000 210.286
41.28000 213.512
41.32000 205.608
41.36000 208.315
41.40000 197.544
41.44000 212.372
41.48000 224.060
41.52000 219.944
41.56000 203.797
41.60000 201.760
41.64000 209.045
41.68000 208.438
41.72000 214.357
41.76000 211.415
41.80000 216.645
41.84000 210.126
41.88000 207.969
41.92000 201.685
41.96000 209.520
42.00000 215.703
42.04000 218.738
42.08000 215.524
42.12000 212.807
42.16000 223.222
42.20000 216.975
42.24000 214.164
42.28000 207.842
42.32000 207.919
42.36000 199.147
42.40000 200.902
42.44000 212.802
42.48000 209.663
42.52000 212.024
42.56000 206.028
42.60000 207.656
42.64000 213.422
42.68000 216.077
42.72000 215.375
42.76000 202.449
42.80000 208.433
42.84000 211.140
42.88000 206.334
42.92000 200.492
42.96000 216.516
43.00000 201.207
43.04000 209.193
43.08000 214.786
43.12000 192.110
43.16000 194.914
43.20000 194.578
43.24000 195.030
43.28000 198.130
43.32000 192.550
43.36000 207.018
43.40000 187.132
43.44000 195.811
43.48000 185.352
43.52000 197.883
43.56000 195.594
43.60000 192.490
43.64000 195.711
43.68000 198.484
43.72000 188.583
43.76000 189.457
43.80000 195.097
43.84000 202.062
43.88000 196.394
43.92000 193.287
43.96000 194.004
44.00000 188.670
44.04000 188.597
44.08000 191.300
44.12000 199.866
44.16000 199.113
44.20000 184.466
44.24000 192.019
44.28000 206.422
44.32000 183.603
44.36000 188.119
44.40000 194.312
44.44000 204.872
44.48000 187.872
44.52000 198.185
44.56000 198.225
44.60000 188.943
44.64000 211.972
44.68000 204.046
44.72000 217.327
44.76000 219.426
44.80000 219.612
44.84000 206.161
44.88000 224.336
44.92000 210.829
44.96000 221.252
45.00000 227.623
45.04000 219.786
45.08000 216.217
45.12000 209.741
45.16000 205.514
45.20000 217.770
45.24000 212.366
45.28000 207.079
45.32000 210.922
45.36000 203.096
45.40000 202.671
45.44000 192.696
45.48000 204.525
45.52000 198.093
45.56000 196.728
45.60000 193.083
45.64000 187.739
45.68000 197.809
45.72000 188.130
45.76000 183.603
45.80000 176.548
45.84000 176.232
45.88000 183.610
45.92000 181.572
45.96000 175.000
46.00000 172.515
46.04000 176.881
46.08000 169.675
46.12000 181.614
46.16000 180.225
46.20000 177.886
46.24000 177.119
46.28000 168.770
46.32000 181.602
46.36000 185.144
46.40000 179.579
46.44000 184.233
46.48000 163.076
46.52000 175.055
46.56000 177.973
46.60000 169.364
46.64000 181.277
46.68000 183.868
46.72000 169.707
46.76000 183.380
46.80000 162.031
46.84000 172.805
46.88000 174.680
46.92000 177.450
46.96000 179.837
47.00000 182.323
47.04000 156.605
47.08000 170.029
47.12000 170.933
47.16000 167.845
47.20000 167.172
47.24000 168.456
47.28000 153.004
47.32000 161.384
47.36000 166.989
47.40000 176.964
47.44000 166.861
47.48000 166.204
47.52000 169.616
47.56000 168.607
47.60000 161.205
47.64000 150.396
47.68000 157.376
47.72000 156.445
47.76000 160.069
47.80000 156.832
47.84000 155.949
47.88000 165.902
47.92000 163.633
47.96000 158.236
48.00000 155.604
48.04000 158.808
48.08000 162.156
48.12000 157.021
48.16000 168.141
48.20000 159.203
48.24000 153.377
48.28000 162.980
48.32000 157.657
48.36000 147.179
48.40000 168.573
48.44000 157.167
48.48000 157.281
48.52000 163.494
48.56000 162.195
48.60000 158.303
48.64000 157.824
48.68000 162.648
48.72000 157.305
48.76000 162.501
48.80000 162.196
48.84000 168.988
48.88000 157.883
48.92000 137.241
48.96000 139.826
49.00000 150.437
49.04000 154.263
49.08000 163.328
49.12000 152.262
49.16000 147.076
49.20000 160.508
49.24000 159.812
49.28000 146.286
49.32000 159.068
49.36000 157.769
49.40000 160.862
49.44000 155.150
49.48000 149.612
49.52000 147.009
49.56000 154.358
49.60000 162.466
49.64000 153.069
49.68000 158.050
49.72000 143.153
49.76000 146.541
49.80000 151.971
49.84000 149.346
49.88000 159.112
49.92000 158.315
49.96000 156.366
50.00000 157.036
50.04000 161.046
50.08000 158.082
50.12000 159.616
50.16000 159.174
50.20000 146.587
50.24000 153.356
50.28000 161.885
50.32000 156.010
50.36000 151.439
50.40000 164.143
50.44000 166.033
50.48000 170.891
50.52000 175.833
50.56000 163.341
50.60000 166.483
50.64000 154.425
50.68000 166.927
50.72000 174.099
50.76000 167.295
50.80000 162.592
50.84000 161.522
50.88000 158.224
50.92000 164.078
50.96000 156.333
51.00000 144.692
51.04000 151.294
51.08000 139.598
51.12000 146.409
51.16000 138.787
51.20000 147.922
51.24000 136.789
51.28000 142.474
51.32000 136.301
51.36000 151.109
51.40000 147.005
51.44000 139.982
51.48000 138.699
51.52000 139.785
51.56000 144.431
51.60000 144.529
51.64000 142.432
51.68000 148.277
51.72000 153.607
51.76000 147.706
51.80000 138.293
51.84000 144.415
51.88000 140.119
51.92000 143.372
51.96000 137.983
52.00000 145.797
52.04000 141.675
52.08000 150.123
52.12000 149.604
52.16000 130.436
52.20000 150.165
52.24000 147.612
52.28000 143.263
52.32000 136.047
52.36000 131.377
52.40000 136.857
52.44000 141.088
52.48000 136.527
52.52000 135.316
52.56000 144.057
52.60000 145.285
52.64000 133.337
52.68000 142.713
52.72000 147.644
52.76000 138.064
52.80000 142.984
52.84000 136.824
52.88000 135.894
52.92000 137.380
52.96000 139.074
53.00000 135.695
53.04000 137.952
53.08000 135.255
53.12000 136.784
53.16000 151.626
53.20000 137.637
53.24000 144.645
53.28000 139.086
53.32000 151.375
53.36000 144.344
53.40000 139.822
53.44000 132.704
53.48000 143.579
53.52000 137.092
53.56000 146.907
53.60000 134.757
53.64000 142.900
53.68000 142.325
53.72000 137.172
53.76000 129.111
53.80000 136.681
53.84000 132.970
53.88000 130.746
53.92000 144.873
53.96000 140.751
54.00000 135.455
54.04000 143.001
54.08000 148.525
54.12000 136.175
54.16000 130.097
54.20000 135.223
54.24000 140.214
54.28000 138.806
54.32000 137.322
54.36000 132.651
54.40000 138.129
54.44000 130.242
54.48000 141.305
54.52000 137.176
54.56000 138.618
54.60000 129.080
54.64000 133.646
54.68000 138.106
54.72000 134.747
54.76000 146.563
54.80000 141.991
54.84000 136.429
54.88000 142.604
54.92000 139.713
54.96000 144.322
55.00000 139.989
55.04000 145.563
55.08000 135.714
55.12000 139.790
55.16000 140.593
55.20000 144.398
55.24000 153.672
55.28000 157.249
55.32000 157.100
55.36000 150.861
55.40000 151.998
55.44000 164.607
55.48000 170.797
55.52000 175.632
55.56000 182.237
55.60000 195.595
55.64000 203.430
55.68000 212.407
55.72000 217.054
55.76000 231.050
55.80000 243.173
55.84000 249.372
55.88000 256.681
55.92000 271.227
55.96000 262.404
56.00000 271.602
56.04000 262.238
56.08000 244.910
56.12000 208.214
56.16000 220.005
56.20000 223.361
56.24000 188.673
56.28000 181.837
56.32000 182.496
56.36000 174.173
56.40000 173.658
56.44000 162.278
56.48000 158.074
56.52000 135.475
56.56000 150.116
56.60000 143.354
56.64000 133.014
56.68000 142.766
56.72000 137.186
56.76000 145.134
56.80000 133.686
56.84000 137.602
56.88000 144.672
56.92000 128.060
56.96000 131.661
57.00000 127.976
57.04000 135.235
57.08000 126.421
57.12000 131.247
57.16000 133.204
57.20000 116.913
57.24000 124.550
57.28000 129.310
57.32000 128.431
57.36000 128.809
57.40000 124.197
57.44000 122.915
57.48000 120.998
57.52000 122.605
57.56000 134.232
57.60000 138.174
57.64000 130.346
57.68000 116.101
57.72000 127.591
57.76000 125.355
57.80000 128.763
57.84000 123.156
57.88000 132.245
57.92000 122.784
57.96000 119.748
58.00000 120.470
58.04000 122.618
58.08000 122.572
58.12000 123.019
58.16000 121.308
58.20000 127.874
58.24000 122.848
58.28000 122.984
58.32000 128.274
58.36000 116.756
58.40000 121.329
58.44000 126.585
58.48000 127.080
58.52000 114.828
58.56000 118.839
58.60000 112.059
58.64000 116.024
58.68000 117.648
58.72000 114.202
58.76000 119.934
58.80000 113.473
58.84000 119.210
58.88000 120.767
58.92000 119.985
58.96000 121.718
59.00000 116.699
59.04000 119.241
59.08000 117.564
59.12000 127.302
59.16000 123.076
59.20000 117.229
59.24000 118.521
59.28000 114.861
59.32000 114.385
59.36000 129.860
59.40000 115.775
59.44000 117.537
59.48000 116.795
59.52000 122.284
59.56000 115.855
59.60000 127.986
59.64000 126.873
59.68000 115.374
59.72000 121.745
59.76000 120.481
59.80000 115.082
59.84000 126.060
59.88000 124.379
59.92000 113.707
59.96000 116.833
60.00000 120.059
60.04000 116.947
60.08000 125.034
60.12000 119.428
60.16000 119.392
60.20000 117.360
60.24000 111.801
60.28000 114.638
60.32000 127.030
60.36000 118.598
60.40000 117.430
60.44000 114.917
60.48000 115.802
60.52000 122.437
60.56000 112.449
60.60000 121.985
60.64000 115.497
60.68000 106.994
60.72000 123.147
60.76000 122.704
60.80000 126.735
60.84000 119.335
60.88000 113.344
60.92000 120.129
60.96000 116.476
61.00000 114.729
61.04000 127.538
61.08000 118.239
61.12000 119.312
61.16000 122.182
61.20000 123.791
61.24000 119.764
61.28000 133.259
61.32000 119.806
61.36000 130.890
61.40000 126.683
61.44000 129.167
61.48000 131.353
61.52000 151.394
61.56000 191.002
61.60000 241.065
61.64000 255.715
61.68000 286.909
61.72000 292.930
61.76000 286.262
61.80000 248.258
61.84000 185.356
61.88000 149.136
61.92000 142.489
61.96000 146.542
62.00000 134.977
62.04000 125.017
62.08000 134.276
62.12000 126.160
62.16000 132.638
62.20000 119.423
62.24000 129.546
62.28000 136.804
62.32000 122.367
62.36000 136.640
62.40000 136.568
62.44000 122.672
62.48000 131.990
62.52000 131.882
62.56000 125.369
62.60000 131.690
62.64000 129.056
62.68000 125.677
62.72000 124.341
62.76000 125.505
62.80000 121.899
62.84000 133.625
62.88000 137.504
62.92000 133.967
62.96000 137.948
63.00000 130.235
63.04000 134.199
63.08000 129.591
63.12000 134.806
63.16000 132.658
63.20000 136.780
63.24000 141.976
63.28000 133.088
63.32000 129.982
63.36000 132.264
63.40000 123.159
63.44000 129.130
63.48000 141.656
63.52000 138.911
63.56000 139.549
63.60000 143.475
63.64000 146.153
63.68000 139.574
63.72000 142.813
63.76000 138.665
63.80000 136.341
63.84000 146.769
63.88000 147.921
63.92000 134.112
63.96000 147.621
64.00000 152.479
64.04000 140.369
64.08000 143.175
64.12000 159.487
64.16000 141.667
64.20000 153.202
64.24000 158.858
64.28000 155.776
64.32000 162.264
64.36000 148.608
64.40000 155.183
64.44000 154.558
64.48000 174.799
64.52000 167.528
64.56000 171.066
64.60000 168.432
64.64000 159.426
64.68000 165.028
64.72000 171.110
64.76000 166.586
64.80000 169.117
64.84000 178.603
64.88000 181.610
64.92000 174.838
64.96000 194.220
65.00000 194.520
65.04000 196.063
65.08000 198.872
65.12000 202.954
65.16000 197.110
65.20000 206.736
65.24000 216.934
65.28000 228.652
65.32000 226.435
65.36000 232.309
65.40000 248.416
65.44000 260.923
65.48000 265.516
65.52000 282.730
65.56000 306.600
65.60000 344.201
65.64000 399.148
65.68000 533.579
65.72000 854.536
65.76000 1355.600
65.80000 1732.520
65.84000 1949.648
65.88000 2042.281
65.92000 1934.841
65.96000 1617.663
66.00000 1125.386
66.04000 687.182
66.08000 517.892
66.12000 413.549
66.16000 371.290
66.20000 377.886
66.24000 417.888
66.28000 461.263
66.32000 530.794
66.36000 611.287
66.40000 628.301
66.44000 626.744
66.48000 619.508
66.52000 569.875
66.56000 465.500
66.60000 385.514
66.64000 369.530
66.68000 360.796
66.72000 368.875
66.76000 356.446
66.80000 360.144
66.84000 385.377
66.88000 362.148
66.92000 352.093
66.96000 376.090
67.00000 376.469
67.04000 379.465
67.08000 392.026
67.12000 397.617
67.16000 376.252
67.20000 406.639
67.24000 425.089
67.28000 396.358
67.32000 411.163
67.36000 429.998
67.40000 420.084
67.44000 412.385
67.48000 421.768
67.52000 453.451
67.56000 429.677
67.60000 452.634
67.64000 450.136
67.68000 457.751
67.72000 464.115
67.76000 476.448
67.80000 496.615
67.84000 492.136
67.88000 519.751
67.92000 493.043
67.96000 498.301
68.00000 513.785
68.04000 510.685
68.08000 531.293
68.12000 543.549
68.16000 553.602
68.20000 547.903
68.24000 563.020
68.28000 592.355
68.32000 603.832
68.36000 617.872
68.40000 591.659
68.44000 673.906
68.48000 696.180
68.52000 727.203
68.56000 769.242
68.60000 831.243
68.64000 984.010
68.68000 1140.753
68.72000 1310.942
68.76000 1471.654
68.80000 1664.518
68.84000 1889.446
68.88000 2249.776
68.92000 3198.411
68.96000 8553.082
69.00000 20192.551
69.04000 33687.422
69.08000 41415.691
69.12000 44355.113
69.16000 47334.020
69.20000 47824.500
69.24000 39575.699
69.28000 28831.617
69.32000 23329.691
69.36000 21692.734
69.40000 18623.313
69.44000 12260.814
69.48000 5484.075
69.52000 2361.829
69.56000 1444.912
69.60000 1107.572
69.64000 931.319
69.68000 825.548
69.72000 744.503
69.76000 684.851
69.80000 639.082
69.84000 611.688
69.88000 581.774
69.92000 539.488
69.96000 513.760
70.00000 490.284