File: XRD/07-10-2025 Dep 6/XY Data/BTO_Mapping_Theta2Theta_07-10-2025_001_39_-16-180_-11-756.xy
20.00000 479.381
20.04000 477.392
20.08000 468.579
20.12000 462.718
20.16000 465.073
20.20000 462.552
20.24000 460.412
20.28000 449.286
20.32000 441.363
20.36000 457.786
20.40000 449.694
20.44000 465.535
20.48000 478.047
20.52000 473.212
20.56000 454.265
20.60000 453.539
20.64000 479.754
20.68000 474.657
20.72000 462.144
20.76000 478.454
20.80000 462.669
20.84000 480.662
20.88000 450.921
20.92000 445.572
20.96000 479.728
21.00000 464.865
21.04000 474.822
21.08000 457.364
21.12000 466.607
21.16000 459.011
21.20000 468.326
21.24000 471.282
21.28000 461.018
21.32000 453.982
21.36000 452.609
21.40000 456.344
21.44000 467.214
21.48000 456.732
21.52000 459.489
21.56000 459.668
21.60000 457.389
21.64000 461.307
21.68000 479.131
21.72000 481.779
21.76000 507.045
21.80000 512.685
21.84000 523.565
21.88000 522.203
21.92000 560.568
21.96000 556.483
22.00000 563.108
22.04000 587.445
22.08000 591.722
22.12000 574.397
22.16000 567.923
22.20000 543.553
22.24000 524.938
22.28000 525.105
22.32000 499.956
22.36000 468.895
22.40000 464.106
22.44000 469.272
22.48000 466.066
22.52000 458.819
22.56000 459.943
22.60000 448.785
22.64000 433.043
22.68000 451.255
22.72000 443.177
22.76000 441.406
22.80000 431.650
22.84000 433.821
22.88000 447.434
22.92000 444.300
22.96000 428.083
23.00000 442.263
23.04000 443.803
23.08000 431.929
23.12000 442.428
23.16000 429.452
23.20000 414.671
23.24000 409.416
23.28000 437.603
23.32000 419.325
23.36000 423.324
23.40000 436.192
23.44000 409.789
23.48000 417.289
23.52000 426.853
23.56000 414.433
23.60000 428.144
23.64000 432.306
23.68000 426.045
23.72000 427.673
23.76000 415.050
23.80000 428.159
23.84000 456.111
23.88000 428.304
23.92000 445.612
23.96000 461.281
24.00000 440.935
24.04000 418.803
24.08000 434.113
24.12000 441.292
24.16000 434.251
24.20000 431.383
24.24000 415.380
24.28000 414.045
24.32000 411.918
24.36000 423.690
24.40000 403.315
24.44000 438.913
24.48000 426.058
24.52000 413.192
24.56000 408.436
24.60000 390.345
24.64000 397.553
24.68000 412.386
24.72000 389.350
24.76000 423.149
24.80000 394.009
24.84000 417.401
24.88000 407.145
24.92000 405.286
24.96000 397.636
25.00000 429.109
25.04000 396.114
25.08000 397.206
25.12000 410.639
25.16000 408.510
25.20000 396.779
25.24000 385.543
25.28000 394.534
25.32000 413.688
25.36000 397.670
25.40000 404.534
25.44000 378.089
25.48000 388.942
25.52000 384.848
25.56000 391.335
25.60000 379.993
25.64000 378.415
25.68000 386.774
25.72000 381.952
25.76000 389.912
25.80000 367.426
25.84000 396.855
25.88000 391.655
25.92000 380.497
25.96000 407.848
26.00000 415.966
26.04000 376.362
26.08000 383.453
26.12000 393.241
26.16000 386.578
26.20000 381.122
26.24000 377.187
26.28000 382.709
26.32000 380.388
26.36000 387.693
26.40000 389.449
26.44000 383.345
26.48000 378.245
26.52000 377.138
26.56000 375.539
26.60000 383.479
26.64000 384.199
26.68000 368.299
26.72000 374.631
26.76000 381.390
26.80000 367.815
26.84000 382.087
26.88000 360.614
26.92000 377.091
26.96000 372.185
27.00000 371.948
27.04000 356.259
27.08000 375.969
27.12000 374.059
27.16000 384.294
27.20000 379.310
27.24000 371.537
27.28000 360.382
27.32000 373.753
27.36000 367.231
27.40000 353.975
27.44000 377.538
27.48000 364.287
27.52000 374.357
27.56000 369.345
27.60000 368.464
27.64000 380.064
27.68000 354.990
27.72000 371.353
27.76000 377.425
27.80000 367.109
27.84000 363.328
27.88000 374.401
27.92000 345.973
27.96000 359.954
28.00000 364.914
28.04000 357.886
28.08000 355.361
28.12000 359.368
28.16000 367.106
28.20000 364.098
28.24000 368.596
28.28000 373.170
28.32000 345.660
28.36000 372.946
28.40000 360.242
28.44000 368.174
28.48000 354.259
28.52000 364.718
28.56000 358.565
28.60000 354.262
28.64000 351.082
28.68000 352.340
28.72000 355.070
28.76000 342.879
28.80000 337.318
28.84000 351.404
28.88000 351.141
28.92000 355.407
28.96000 350.193
29.00000 363.921
29.04000 340.907
29.08000 358.961
29.12000 361.650
29.16000 335.496
29.20000 364.043
29.24000 343.287
29.28000 355.901
29.32000 351.498
29.36000 351.433
29.40000 341.361
29.44000 340.170
29.48000 343.856
29.52000 351.532
29.56000 354.653
29.60000 360.016
29.64000 362.304
29.68000 356.309
29.72000 344.393
29.76000 362.737
29.80000 376.982
29.84000 380.511
29.88000 405.901
29.92000 402.791
29.96000 415.428
30.00000 416.757
30.04000 413.729
30.08000 416.279
30.12000 408.933
30.16000 385.884
30.20000 392.277
30.24000 384.408
30.28000 360.406
30.32000 353.793
30.36000 377.405
30.40000 371.193
30.44000 360.397
30.48000 371.532
30.52000 358.723
30.56000 369.834
30.60000 364.120
30.64000 373.786
30.68000 380.314
30.72000 368.579
30.76000 377.430
30.80000 407.382
30.84000 411.814
30.88000 409.516
30.92000 443.569
30.96000 484.578
31.00000 534.979
31.04000 665.524
31.08000 791.844
31.12000 985.697
31.16000 1210.622
31.20000 1493.463
31.24000 1784.469
31.28000 2054.869
31.32000 2204.882
31.36000 2288.814
31.40000 2243.461
31.44000 1990.789
31.48000 1704.574
31.52000 1420.434
31.56000 1087.652
31.60000 851.297
31.64000 669.755
31.68000 561.069
31.72000 488.494
31.76000 436.087
31.80000 408.256
31.84000 367.503
31.88000 363.008
31.92000 373.247
31.96000 350.205
32.00000 340.212
32.04000 347.285
32.08000 341.056
32.12000 329.392
32.16000 329.930
32.20000 333.474
32.24000 319.505
32.28000 332.109
32.32000 310.435
32.36000 307.797
32.40000 315.739
32.44000 321.420
32.48000 319.722
32.52000 320.617
32.56000 324.113
32.60000 321.948
32.64000 321.196
32.68000 304.087
32.72000 305.881
32.76000 325.884
32.80000 334.527
32.84000 408.625
32.88000 443.946
32.92000 508.576
32.96000 506.651
33.00000 520.560
33.04000 505.731
33.08000 422.631
33.12000 385.532
33.16000 325.092
33.20000 299.079
33.24000 297.630
33.28000 293.678
33.32000 280.308
33.36000 301.179
33.40000 305.248
33.44000 295.234
33.48000 296.624
33.52000 307.584
33.56000 304.147
33.60000 298.078
33.64000 282.730
33.68000 289.213
33.72000 284.153
33.76000 290.424
33.80000 285.712
33.84000 299.126
33.88000 287.884
33.92000 296.527
33.96000 315.591
34.00000 311.383
34.04000 303.395
34.08000 302.605
34.12000 303.960
34.16000 310.669
34.20000 306.668
34.24000 312.695
34.28000 295.806
34.32000 307.654
34.36000 303.862
34.40000 304.195
34.44000 301.241
34.48000 304.760
34.52000 308.584
34.56000 307.033
34.60000 302.577
34.64000 299.840
34.68000 289.213
34.72000 300.712
34.76000 306.387
34.80000 278.614
34.84000 275.013
34.88000 293.048
34.92000 264.876
34.96000 277.927
35.00000 274.521
35.04000 266.850
35.08000 270.129
35.12000 265.756
35.16000 276.828
35.20000 271.218
35.24000 258.892
35.28000 263.444
35.32000 263.380
35.36000 250.247
35.40000 264.473
35.44000 263.341
35.48000 246.507
35.52000 261.056
35.56000 257.482
35.60000 270.399
35.64000 263.365
35.68000 261.687
35.72000 273.240
35.76000 260.754
35.80000 251.726
35.84000 267.307
35.88000 251.901
35.92000 255.093
35.96000 254.302
36.00000 255.144
36.04000 257.237
36.08000 248.084
36.12000 250.561
36.16000 254.092
36.20000 256.310
36.24000 246.181
36.28000 255.940
36.32000 260.332
36.36000 254.128
36.40000 269.917
36.44000 260.344
36.48000 247.875
36.52000 252.429
36.56000 266.355
36.60000 254.115
36.64000 258.364
36.68000 244.046
36.72000 257.804
36.76000 255.952
36.80000 251.774
36.84000 273.127
36.88000 252.839
36.92000 265.570
36.96000 272.341
37.00000 267.584
37.04000 258.352
37.08000 253.842
37.12000 258.537
37.16000 268.854
37.20000 261.868
37.24000 248.926
37.28000 237.327
37.32000 254.214
37.36000 235.377
37.40000 260.196
37.44000 257.473
37.48000 265.410
37.52000 258.104
37.56000 244.832
37.60000 251.166
37.64000 251.374
37.68000 256.722
37.72000 257.169
37.76000 264.006
37.80000 235.928
37.84000 250.440
37.88000 249.756
37.92000 252.925
37.96000 245.896
38.00000 246.386
38.04000 251.546
38.08000 250.192
38.12000 263.481
38.16000 257.504
38.20000 271.109
38.24000 284.447
38.28000 305.764
38.32000 310.967
38.36000 355.679
38.40000 402.220
38.44000 478.700
38.48000 544.045
38.52000 646.874
38.56000 721.889
38.60000 815.507
38.64000 887.218
38.68000 936.766
38.72000 925.572
38.76000 876.222
38.80000 784.423
38.84000 700.435
38.88000 611.675
38.92000 504.618
38.96000 426.745
39.00000 354.340
39.04000 309.155
39.08000 289.583
39.12000 268.423
39.16000 252.309
39.20000 257.792
39.24000 242.609
39.28000 256.042
39.32000 247.602
39.36000 239.369
39.40000 239.880
39.44000 232.218
39.48000 232.167
39.52000 230.876
39.56000 231.675
39.60000 230.081
39.64000 227.614
39.68000 222.637
39.72000 231.137
39.76000 225.918
39.80000 216.130
39.84000 228.487
39.88000 226.928
39.92000 211.997
39.96000 225.067
40.00000 216.764
40.04000 237.683
40.08000 231.356
40.12000 207.556
40.16000 220.509
40.20000 220.118
40.24000 232.851
40.28000 218.093
40.32000 209.439
40.36000 215.902
40.40000 216.613
40.44000 223.021
40.48000 228.264
40.52000 215.111
40.56000 209.299
40.60000 205.771
40.64000 222.393
40.68000 199.024
40.72000 218.523
40.76000 218.739
40.80000 219.615
40.84000 216.514
40.88000 204.086
40.92000 208.339
40.96000 218.275
41.00000 203.303
41.04000 196.985
41.08000 196.407
41.12000 211.150
41.16000 196.948
41.20000 199.200
41.24000 208.341
41.28000 202.223
41.32000 216.788
41.36000 202.999
41.40000 203.451
41.44000 193.451
41.48000 188.252
41.52000 200.354
41.56000 196.901
41.60000 214.735
41.64000 210.811
41.68000 205.227
41.72000 207.401
41.76000 201.225
41.80000 203.531
41.84000 216.045
41.88000 199.671
41.92000 198.751
41.96000 201.116
42.00000 207.386
42.04000 193.612
42.08000 206.338
42.12000 201.852
42.16000 195.779
42.20000 194.996
42.24000 206.614
42.28000 195.861
42.32000 205.622
42.36000 218.826
42.40000 202.095
42.44000 211.648
42.48000 205.126
42.52000 199.608
42.56000 200.837
42.60000 208.974
42.64000 202.974
42.68000 193.747
42.72000 201.555
42.76000 186.598
42.80000 216.648
42.84000 198.418
42.88000 189.863
42.92000 199.519
42.96000 190.203
43.00000 208.814
43.04000 195.927
43.08000 201.770
43.12000 186.212
43.16000 205.309
43.20000 195.031
43.24000 188.219
43.28000 187.391
43.32000 207.569
43.36000 187.836
43.40000 205.973
43.44000 197.713
43.48000 188.512
43.52000 194.791
43.56000 204.748
43.60000 184.107
43.64000 187.565
43.68000 183.681
43.72000 189.499
43.76000 192.349
43.80000 190.442
43.84000 183.614
43.88000 185.859
43.92000 192.234
43.96000 192.431
44.00000 177.460
44.04000 183.765
44.08000 192.684
44.12000 188.255
44.16000 193.745
44.20000 202.915
44.24000 193.196
44.28000 188.658
44.32000 192.856
44.36000 199.792
44.40000 212.766
44.44000 205.200
44.48000 208.812
44.52000 208.116
44.56000 207.696
44.60000 223.986
44.64000 214.566
44.68000 220.035
44.72000 237.385
44.76000 241.747
44.80000 250.106
44.84000 262.232
44.88000 258.367
44.92000 290.920
44.96000 295.343
45.00000 287.563
45.04000 290.522
45.08000 290.806
45.12000 284.801
45.16000 284.525
45.20000 264.805
45.24000 264.824
45.28000 251.918
45.32000 239.590
45.36000 230.889
45.40000 220.089
45.44000 215.545
45.48000 221.347
45.52000 227.811
45.56000 218.423
45.60000 208.623
45.64000 204.668
45.68000 194.907
45.72000 189.948
45.76000 207.396
45.80000 202.049
45.84000 175.965
45.88000 182.439
45.92000 180.679
45.96000 175.314
46.00000 174.625
46.04000 168.945
46.08000 178.259
46.12000 176.136
46.16000 172.192
46.20000 176.061
46.24000 185.707
46.28000 181.167
46.32000 177.638
46.36000 175.819
46.40000 169.714
46.44000 177.762
46.48000 166.527
46.52000 163.508
46.56000 162.627
46.60000 183.649
46.64000 174.780
46.68000 178.815
46.72000 180.249
46.76000 171.265
46.80000 170.204
46.84000 179.326
46.88000 167.338
46.92000 171.618
46.96000 175.467
47.00000 165.153
47.04000 164.193
47.08000 166.067
47.12000 161.463
47.16000 168.523
47.20000 171.590
47.24000 163.339
47.28000 155.590
47.32000 159.386
47.36000 169.957
47.40000 155.752
47.44000 169.857
47.48000 165.380
47.52000 163.919
47.56000 154.874
47.60000 156.446
47.64000 157.864
47.68000 159.667
47.72000 145.627
47.76000 152.394
47.80000 155.382
47.84000 154.447
47.88000 159.294
47.92000 158.347
47.96000 157.481
48.00000 158.713
48.04000 152.414
48.08000 166.451
48.12000 171.655
48.16000 164.559
48.20000 166.688
48.24000 159.275
48.28000 152.455
48.32000 154.023
48.36000 145.252
48.40000 153.471
48.44000 163.478
48.48000 164.056
48.52000 164.241
48.56000 165.640
48.60000 165.036
48.64000 154.581
48.68000 157.328
48.72000 156.709
48.76000 151.546
48.80000 162.482
48.84000 160.900
48.88000 165.013
48.92000 157.770
48.96000 148.481
49.00000 161.415
49.04000 155.595
49.08000 162.954
49.12000 159.681
49.16000 148.757
49.20000 153.103
49.24000 145.600
49.28000 152.173
49.32000 156.319
49.36000 152.585
49.40000 140.002
49.44000 153.755
49.48000 154.338
49.52000 147.616
49.56000 149.347
49.60000 138.567
49.64000 145.535
49.68000 152.613
49.72000 154.126
49.76000 149.005
49.80000 158.160
49.84000 145.912
49.88000 146.624
49.92000 148.298
49.96000 159.313
50.00000 142.127
50.04000 152.662
50.08000 156.389
50.12000 146.630
50.16000 156.474
50.20000 150.060
50.24000 165.076
50.28000 170.829
50.32000 168.994
50.36000 169.200
50.40000 184.681
50.44000 182.633
50.48000 189.234
50.52000 190.420
50.56000 200.876
50.60000 202.196
50.64000 194.996
50.68000 204.018
50.72000 192.163
50.76000 201.445
50.80000 189.722
50.84000 191.816
50.88000 180.220
50.92000 168.446
50.96000 165.377
51.00000 161.357
51.04000 155.524
51.08000 146.147
51.12000 153.204
51.16000 157.023
51.20000 149.023
51.24000 151.908
51.28000 148.788
51.32000 151.128
51.36000 146.060
51.40000 145.397
51.44000 143.104
51.48000 147.284
51.52000 148.139
51.56000 138.216
51.60000 145.490
51.64000 135.466
51.68000 144.222
51.72000 141.662
51.76000 134.999
51.80000 140.063
51.84000 149.050
51.88000 149.577
51.92000 142.462
51.96000 132.946
52.00000 137.884
52.04000 132.966
52.08000 143.363
52.12000 147.119
52.16000 133.338
52.20000 136.181
52.24000 148.448
52.28000 133.092
52.32000 139.186
52.36000 139.792
52.40000 141.149
52.44000 144.231
52.48000 146.073
52.52000 137.080
52.56000 136.186
52.60000 131.868
52.64000 141.092
52.68000 142.582
52.72000 145.948
52.76000 138.478
52.80000 141.905
52.84000 141.666
52.88000 143.169
52.92000 141.464
52.96000 131.699
53.00000 141.201
53.04000 146.738
53.08000 138.105
53.12000 142.384
53.16000 151.329
53.20000 148.038
53.24000 151.326
53.28000 157.066
53.32000 167.915
53.36000 152.598
53.40000 159.326
53.44000 128.092
53.48000 152.823
53.52000 157.945
53.56000 164.814
53.60000 134.211
53.64000 139.193
53.68000 131.341
53.72000 139.785
53.76000 147.510
53.80000 140.073
53.84000 134.877
53.88000 140.104
53.92000 139.862
53.96000 143.288
54.00000 139.114
54.04000 138.192
54.08000 134.786
54.12000 129.933
54.16000 126.556
54.20000 131.384
54.24000 137.476
54.28000 136.278
54.32000 135.700
54.36000 136.963
54.40000 129.765
54.44000 139.347
54.48000 132.603
54.52000 140.142
54.56000 136.794
54.60000 148.600
54.64000 145.274
54.68000 133.008
54.72000 134.179
54.76000 142.162
54.80000 138.218
54.84000 140.977
54.88000 141.057
54.92000 135.954
54.96000 137.421
55.00000 149.183
55.04000 146.743
55.08000 138.812
55.12000 151.734
55.16000 148.008
55.20000 153.604
55.24000 147.874
55.28000 164.159
55.32000 161.609
55.36000 184.119
55.40000 195.479
55.44000 208.082
55.48000 225.984
55.52000 269.834
55.56000 293.282
55.60000 340.642
55.64000 375.103
55.68000 422.349
55.72000 462.053
55.76000 516.892
55.80000 556.416
55.84000 572.979
55.88000 587.226
55.92000 584.065
55.96000 557.654
56.00000 532.697
56.04000 472.149
56.08000 442.170
56.12000 380.597
56.16000 316.426
56.20000 281.245
56.24000 249.088
56.28000 227.526
56.32000 197.357
56.36000 176.628
56.40000 172.918
56.44000 160.247
56.48000 150.571
56.52000 138.952
56.56000 136.566
56.60000 145.405
56.64000 141.514
56.68000 139.749
56.72000 143.439
56.76000 131.915
56.80000 131.148
56.84000 128.154
56.88000 121.317
56.92000 135.563
56.96000 120.077
57.00000 135.003
57.04000 131.371
57.08000 119.830
57.12000 124.148
57.16000 127.884
57.20000 120.529
57.24000 121.633
57.28000 130.797
57.32000 120.126
57.36000 127.936
57.40000 125.325
57.44000 129.554
57.48000 119.105
57.52000 123.008
57.56000 124.636
57.60000 118.699
57.64000 127.045
57.68000 126.966
57.72000 125.934
57.76000 127.749
57.80000 115.156
57.84000 118.338
57.88000 113.553
57.92000 122.977
57.96000 123.957
58.00000 123.951
58.04000 125.258
58.08000 123.846
58.12000 123.031
58.16000 108.473
58.20000 120.766
58.24000 127.377
58.28000 126.752
58.32000 127.340
58.36000 123.407
58.40000 116.134
58.44000 111.237
58.48000 110.753
58.52000 118.991
58.56000 113.505
58.60000 120.237
58.64000 121.529
58.68000 117.710
58.72000 121.084
58.76000 120.780
58.80000 117.396
58.84000 117.186
58.88000 117.742
58.92000 126.594
58.96000 120.553
59.00000 113.612
59.04000 128.169
59.08000 117.237
59.12000 118.417
59.16000 110.563
59.20000 119.957
59.24000 116.567
59.28000 115.974
59.32000 124.068
59.36000 112.491
59.40000 110.966
59.44000 113.186
59.48000 113.529
59.52000 115.303
59.56000 120.263
59.60000 119.922
59.64000 122.360
59.68000 116.237
59.72000 113.489
59.76000 115.961
59.80000 111.434
59.84000 112.981
59.88000 116.885
59.92000 112.655
59.96000 114.004
60.00000 126.932
60.04000 113.087
60.08000 121.229
60.12000 115.827
60.16000 112.330
60.20000 113.145
60.24000 115.767
60.28000 103.329
60.32000 115.401
60.36000 115.817
60.40000 120.451
60.44000 118.453
60.48000 102.809
60.52000 110.630
60.56000 110.145
60.60000 99.384
60.64000 112.191
60.68000 114.255
60.72000 123.313
60.76000 116.746
60.80000 109.095
60.84000 114.747
60.88000 116.054
60.92000 118.762
60.96000 123.387
61.00000 121.362
61.04000 116.483
61.08000 116.304
61.12000 111.774
61.16000 130.556
61.20000 129.826
61.24000 131.679
61.28000 127.836
61.32000 120.017
61.36000 129.534
61.40000 128.644
61.44000 127.908
61.48000 141.561
61.52000 160.232
61.56000 222.476
61.60000 265.765
61.64000 288.272
61.68000 319.437
61.72000 318.101
61.76000 280.100
61.80000 213.463
61.84000 171.331
61.88000 144.099
61.92000 134.496
61.96000 128.444
62.00000 124.068
62.04000 120.793
62.08000 124.201
62.12000 131.067
62.16000 131.094
62.20000 120.160
62.24000 136.844
62.28000 124.916
62.32000 125.387
62.36000 123.466
62.40000 127.283
62.44000 123.105
62.48000 132.015
62.52000 133.117
62.56000 125.479
62.60000 131.273
62.64000 127.727
62.68000 125.379
62.72000 123.908
62.76000 126.804
62.80000 136.650
62.84000 129.242
62.88000 125.914
62.92000 129.810
62.96000 129.784
63.00000 135.649
63.04000 125.422
63.08000 134.478
63.12000 130.887
63.16000 128.114
63.20000 132.373
63.24000 134.817
63.28000 136.029
63.32000 134.720
63.36000 129.400
63.40000 138.397
63.44000 129.106
63.48000 139.819
63.52000 132.014
63.56000 131.251
63.60000 131.894
63.64000 132.767
63.68000 138.400
63.72000 136.180
63.76000 135.635
63.80000 139.163
63.84000 148.216
63.88000 150.589
63.92000 142.485
63.96000 144.809
64.00000 140.989
64.04000 146.778
64.08000 136.458
64.12000 142.166
64.16000 143.156
64.20000 142.003
64.24000 151.263
64.28000 150.706
64.32000 159.178
64.36000 155.355
64.40000 163.195
64.44000 157.376
64.48000 149.071
64.52000 160.313
64.56000 166.539
64.60000 158.807
64.64000 162.747
64.68000 172.309
64.72000 167.078
64.76000 161.243
64.80000 176.556
64.84000 182.258
64.88000 195.214
64.92000 186.840
64.96000 192.990
65.00000 211.437
65.04000 215.287
65.08000 211.648
65.12000 239.445
65.16000 257.974
65.20000 257.841
65.24000 269.349
65.28000 278.880
65.32000 308.660
65.36000 305.630
65.40000 324.141
65.44000 343.833
65.48000 369.576
65.52000 383.590
65.56000 402.404
65.60000 430.044
65.64000 518.500
65.68000 700.768
65.72000 1082.425
65.76000 1612.412
65.80000 2071.019
65.84000 2184.867
65.88000 2209.847
65.92000 2070.423
65.96000 1605.682
66.00000 1081.665
66.04000 696.353
66.08000 493.251
66.12000 427.360
66.16000 389.130
66.20000 391.277
66.24000 425.536
66.28000 488.403
66.32000 586.183
66.36000 651.487
66.40000 672.834
66.44000 654.215
66.48000 610.348
66.52000 548.366
66.56000 455.088
66.60000 385.849
66.64000 372.870
66.68000 369.639
66.72000 361.595
66.76000 367.357
66.80000 364.802
66.84000 354.293
66.88000 372.118
66.92000 375.008
66.96000 381.535
67.00000 384.144
67.04000 391.811
67.08000 386.371
67.12000 406.066
67.16000 376.949
67.20000 390.559
67.24000 402.513
67.28000 393.126
67.32000 409.428
67.36000 435.077
67.40000 406.110
67.44000 422.643
67.48000 444.254
67.52000 444.470
67.56000 450.258
67.60000 445.258
67.64000 474.726
67.68000 454.833
67.72000 459.332
67.76000 469.751
67.80000 465.264
67.84000 478.319
67.88000 508.970
67.92000 496.616
67.96000 513.033
68.00000 522.087
68.04000 516.855
68.08000 523.958
68.12000 536.295
68.16000 534.381
68.20000 576.143
68.24000 571.020
68.28000 608.635
68.32000 616.677
68.36000 620.275
68.40000 647.436
68.44000 648.665
68.48000 702.643
68.52000 730.383
68.56000 789.295
68.60000 899.607
68.64000 1006.164
68.68000 1190.422
68.72000 1389.301
68.76000 1576.284
68.80000 1766.884
68.84000 2023.682
68.88000 2578.080
68.92000 4077.158
68.96000 11487.021
69.00000 25350.063
69.04000 38806.594
69.08000 45504.527
69.12000 48483.965
69.16000 51484.652
69.20000 50162.977
69.24000 39528.941
69.28000 29675.232
69.32000 24575.014
69.36000 22770.172
69.40000 18347.504
69.44000 11190.322
69.48000 5106.095
69.52000 2237.140
69.56000 1401.789
69.60000 1121.767
69.64000 954.773
69.68000 841.320
69.72000 751.841
69.76000 678.553
69.80000 620.873
69.84000 590.226
69.88000 582.544
69.92000 532.819
69.96000 552.455
70.00000 508.747