File: XRD/07-10-2025 Dep 6/XY Data/BTO_Mapping_Theta2Theta_07-10-2025_001_13_26-765_29-726.xy
20.00000 457.715
20.04000 474.163
20.08000 483.986
20.12000 442.554
20.16000 462.509
20.20000 479.683
20.24000 455.837
20.28000 458.864
20.32000 463.087
20.36000 465.931
20.40000 457.834
20.44000 471.666
20.48000 463.799
20.52000 472.859
20.56000 467.910
20.60000 466.721
20.64000 470.443
20.68000 471.422
20.72000 469.577
20.76000 466.928
20.80000 461.535
20.84000 481.628
20.88000 470.689
20.92000 479.264
20.96000 465.894
21.00000 447.383
21.04000 459.698
21.08000 471.715
21.12000 452.196
21.16000 457.018
21.20000 462.149
21.24000 469.436
21.28000 454.461
21.32000 465.234
21.36000 460.081
21.40000 452.196
21.44000 458.569
21.48000 456.328
21.52000 468.768
21.56000 438.212
21.60000 454.972
21.64000 468.653
21.68000 459.777
21.72000 482.854
21.76000 468.432
21.80000 489.211
21.84000 474.459
21.88000 475.659
21.92000 466.267
21.96000 482.401
22.00000 481.643
22.04000 480.907
22.08000 495.825
22.12000 483.807
22.16000 492.804
22.20000 491.316
22.24000 468.955
22.28000 450.454
22.32000 472.156
22.36000 471.473
22.40000 470.374
22.44000 452.161
22.48000 453.456
22.52000 446.117
22.56000 441.185
22.60000 437.350
22.64000 434.230
22.68000 448.695
22.72000 453.703
22.76000 437.826
22.80000 451.959
22.84000 446.388
22.88000 441.390
22.92000 439.947
22.96000 449.691
23.00000 438.028
23.04000 442.880
23.08000 445.944
23.12000 440.498
23.16000 437.932
23.20000 424.982
23.24000 448.272
23.28000 424.503
23.32000 422.159
23.36000 431.472
23.40000 440.973
23.44000 417.356
23.48000 445.647
23.52000 436.658
23.56000 444.012
23.60000 448.363
23.64000 473.850
23.68000 445.742
23.72000 465.006
23.76000 469.675
23.80000 478.870
23.84000 455.394
23.88000 479.238
23.92000 485.023
23.96000 500.044
24.00000 478.797
24.04000 497.244
24.08000 482.617
24.12000 472.671
24.16000 479.424
24.20000 466.965
24.24000 464.561
24.28000 433.371
24.32000 440.162
24.36000 438.154
24.40000 433.172
24.44000 422.083
24.48000 427.297
24.52000 422.932
24.56000 408.503
24.60000 429.763
24.64000 398.023
24.68000 411.084
24.72000 422.068
24.76000 422.408
24.80000 420.253
24.84000 410.190
24.88000 402.635
24.92000 423.458
24.96000 396.677
25.00000 366.755
25.04000 402.191
25.08000 407.046
25.12000 405.265
25.16000 396.729
25.20000 421.219
25.24000 391.480
25.28000 381.163
25.32000 388.310
25.36000 409.410
25.40000 385.364
25.44000 396.768
25.48000 401.284
25.52000 378.021
25.56000 404.599
25.60000 383.708
25.64000 395.857
25.68000 406.136
25.72000 387.984
25.76000 395.612
25.80000 379.385
25.84000 376.627
25.88000 391.714
25.92000 394.835
25.96000 408.690
26.00000 400.774
26.04000 383.356
26.08000 380.797
26.12000 395.169
26.16000 380.842
26.20000 393.385
26.24000 398.738
26.28000 385.494
26.32000 393.373
26.36000 378.545
26.40000 375.395
26.44000 378.326
26.48000 388.569
26.52000 384.133
26.56000 362.088
26.60000 383.292
26.64000 387.916
26.68000 395.222
26.72000 388.125
26.76000 377.784
26.80000 392.295
26.84000 383.386
26.88000 384.836
26.92000 379.391
26.96000 386.444
27.00000 395.712
27.04000 376.930
27.08000 379.362
27.12000 361.184
27.16000 381.753
27.20000 358.989
27.24000 353.870
27.28000 367.790
27.32000 375.908
27.36000 376.000
27.40000 361.542
27.44000 364.778
27.48000 367.933
27.52000 370.027
27.56000 374.728
27.60000 371.915
27.64000 375.342
27.68000 376.419
27.72000 371.168
27.76000 361.085
27.80000 375.958
27.84000 371.354
27.88000 378.591
27.92000 372.466
27.96000 371.719
28.00000 375.719
28.04000 368.040
28.08000 371.244
28.12000 362.950
28.16000 369.360
28.20000 391.510
28.24000 358.782
28.28000 372.399
28.32000 352.184
28.36000 356.004
28.40000 366.556
28.44000 372.405
28.48000 375.688
28.52000 349.420
28.56000 351.408
28.60000 375.832
28.64000 364.434
28.68000 390.849
28.72000 373.436
28.76000 363.542
28.80000 367.644
28.84000 370.760
28.88000 364.021
28.92000 378.263
28.96000 371.521
29.00000 359.772
29.04000 367.532
29.08000 360.131
29.12000 354.875
29.16000 382.033
29.20000 375.284
29.24000 356.281
29.28000 353.438
29.32000 349.624
29.36000 369.206
29.40000 349.884
29.44000 357.906
29.48000 377.633
29.52000 364.168
29.56000 365.831
29.60000 369.284
29.64000 344.993
29.68000 377.517
29.72000 371.214
29.76000 361.702
29.80000 367.161
29.84000 372.126
29.88000 380.490
29.92000 377.591
29.96000 368.725
30.00000 375.069
30.04000 364.397
30.08000 371.977
30.12000 365.241
30.16000 368.013
30.20000 371.318
30.24000 377.800
30.28000 387.938
30.32000 375.954
30.36000 359.826
30.40000 358.150
30.44000 353.413
30.48000 348.788
30.52000 353.857
30.56000 368.240
30.60000 367.872
30.64000 382.348
30.68000 361.712
30.72000 385.018
30.76000 393.960
30.80000 387.921
30.84000 384.091
30.88000 390.126
30.92000 399.600
30.96000 436.997
31.00000 418.012
31.04000 462.209
31.08000 499.957
31.12000 517.116
31.16000 582.759
31.20000 650.638
31.24000 721.658
31.28000 786.794
31.32000 847.296
31.36000 895.388
31.40000 892.452
31.44000 871.240
31.48000 830.185
31.52000 752.932
31.56000 675.494
31.60000 610.035
31.64000 565.694
31.68000 524.755
31.72000 470.589
31.76000 444.934
31.80000 427.656
31.84000 413.648
31.88000 386.598
31.92000 385.034
31.96000 374.708
32.00000 383.519
32.04000 362.344
32.08000 365.566
32.12000 363.603
32.16000 352.561
32.20000 367.782
32.24000 339.203
32.28000 346.625
32.32000 350.413
32.36000 350.019
32.40000 335.692
32.44000 333.318
32.48000 325.929
32.52000 319.237
32.56000 305.688
32.60000 310.272
32.64000 324.134
32.68000 313.509
32.72000 313.778
32.76000 305.903
32.80000 346.356
32.84000 385.238
32.88000 476.247
32.92000 504.336
32.96000 560.476
33.00000 547.457
33.04000 524.637
33.08000 450.055
33.12000 385.676
33.16000 346.985
33.20000 306.356
33.24000 296.277
33.28000 292.433
33.32000 304.966
33.36000 307.129
33.40000 303.619
33.44000 291.370
33.48000 285.074
33.52000 302.024
33.56000 294.923
33.60000 289.422
33.64000 281.620
33.68000 292.440
33.72000 307.896
33.76000 300.735
33.80000 290.130
33.84000 297.408
33.88000 275.722
33.92000 286.071
33.96000 298.496
34.00000 296.311
34.04000 294.530
34.08000 302.540
34.12000 294.212
34.16000 311.532
34.20000 316.073
34.24000 309.235
34.28000 307.765
34.32000 310.137
34.36000 303.507
34.40000 324.582
34.44000 300.509
34.48000 295.816
34.52000 315.905
34.56000 310.500
34.60000 295.911
34.64000 297.442
34.68000 278.069
34.72000 277.989
34.76000 282.975
34.80000 286.268
34.84000 259.794
34.88000 278.360
34.92000 276.369
34.96000 285.182
35.00000 279.565
35.04000 263.750
35.08000 270.371
35.12000 275.194
35.16000 266.975
35.20000 255.930
35.24000 269.116
35.28000 261.675
35.32000 267.711
35.36000 261.081
35.40000 264.910
35.44000 256.227
35.48000 277.976
35.52000 265.885
35.56000 255.478
35.60000 255.951
35.64000 263.840
35.68000 269.452
35.72000 260.397
35.76000 241.325
35.80000 269.068
35.84000 248.303
35.88000 267.784
35.92000 248.261
35.96000 257.172
36.00000 250.058
36.04000 256.663
36.08000 254.794
36.12000 261.937
36.16000 251.367
36.20000 248.090
36.24000 261.108
36.28000 247.038
36.32000 251.212
36.36000 259.661
36.40000 259.622
36.44000 248.849
36.48000 259.037
36.52000 260.660
36.56000 256.383
36.60000 249.615
36.64000 258.008
36.68000 258.035
36.72000 251.573
36.76000 271.603
36.80000 263.956
36.84000 265.168
36.88000 262.442
36.92000 260.846
36.96000 259.173
37.00000 239.520
37.04000 259.433
37.08000 258.324
37.12000 249.249
37.16000 245.452
37.20000 261.660
37.24000 250.600
37.28000 248.149
37.32000 244.558
37.36000 238.454
37.40000 250.061
37.44000 257.503
37.48000 255.159
37.52000 250.220
37.56000 246.260
37.60000 240.968
37.64000 246.953
37.68000 232.942
37.72000 254.556
37.76000 247.531
37.80000 241.281
37.84000 240.608
37.88000 254.090
37.92000 249.339
37.96000 244.411
38.00000 241.935
38.04000 247.711
38.08000 243.143
38.12000 254.583
38.16000 260.473
38.20000 252.090
38.24000 265.194
38.28000 261.459
38.32000 265.080
38.36000 276.007
38.40000 294.961
38.44000 323.386
38.48000 320.368
38.52000 357.169
38.56000 420.773
38.60000 448.888
38.64000 473.256
38.68000 486.690
38.72000 508.183
38.76000 481.897
38.80000 442.523
38.84000 432.268
38.88000 384.462
38.92000 341.008
38.96000 312.229
39.00000 288.799
39.04000 277.030
39.08000 274.193
39.12000 245.417
39.16000 254.566
39.20000 248.407
39.24000 253.920
39.28000 247.679
39.32000 235.256
39.36000 232.663
39.40000 238.843
39.44000 242.350
39.48000 245.255
39.52000 242.651
39.56000 243.477
39.60000 239.844
39.64000 227.228
39.68000 229.886
39.72000 229.704
39.76000 234.153
39.80000 221.019
39.84000 225.564
39.88000 234.400
39.92000 240.058
39.96000 228.680
40.00000 225.492
40.04000 230.488
40.08000 216.954
40.12000 217.985
40.16000 211.167
40.20000 230.008
40.24000 218.888
40.28000 221.182
40.32000 222.321
40.36000 211.092
40.40000 217.952
40.44000 202.748
40.48000 220.939
40.52000 225.935
40.56000 222.827
40.60000 227.001
40.64000 213.293
40.68000 214.993
40.72000 210.211
40.76000 208.322
40.80000 205.299
40.84000 206.604
40.88000 195.540
40.92000 219.634
40.96000 216.542
41.00000 211.641
41.04000 215.153
41.08000 208.041
41.12000 204.857
41.16000 214.752
41.20000 200.367
41.24000 209.653
41.28000 210.505
41.32000 209.865
41.36000 204.523
41.40000 209.104
41.44000 204.886
41.48000 198.696
41.52000 204.942
41.56000 205.824
41.60000 210.567
41.64000 196.683
41.68000 202.353
41.72000 211.523
41.76000 198.500
41.80000 210.324
41.84000 200.972
41.88000 205.546
41.92000 208.392
41.96000 211.721
42.00000 203.649
42.04000 211.962
42.08000 212.171
42.12000 209.809
42.16000 211.020
42.20000 217.579
42.24000 222.505
42.28000 217.464
42.32000 219.864
42.36000 207.644
42.40000 210.005
42.44000 214.466
42.48000 208.693
42.52000 212.433
42.56000 202.501
42.60000 209.783
42.64000 205.371
42.68000 193.017
42.72000 208.047
42.76000 198.586
42.80000 205.820
42.84000 216.611
42.88000 178.507
42.92000 198.628
42.96000 202.946
43.00000 191.648
43.04000 207.025
43.08000 202.550
43.12000 195.559
43.16000 199.757
43.20000 190.024
43.24000 184.492
43.28000 182.198
43.32000 193.688
43.36000 198.448
43.40000 202.847
43.44000 211.495
43.48000 183.917
43.52000 187.903
43.56000 190.693
43.60000 190.275
43.64000 197.708
43.68000 199.735
43.72000 191.364
43.76000 203.242
43.80000 205.258
43.84000 191.355
43.88000 191.016
43.92000 190.825
43.96000 195.465
44.00000 191.274
44.04000 190.738
44.08000 180.830
44.12000 182.479
44.16000 186.316
44.20000 198.507
44.24000 189.708
44.28000 202.437
44.32000 192.555
44.36000 199.163
44.40000 201.180
44.44000 185.470
44.48000 189.225
44.52000 207.302
44.56000 203.865
44.60000 207.648
44.64000 199.284
44.68000 208.676
44.72000 199.981
44.76000 210.798
44.80000 208.588
44.84000 210.341
44.88000 210.467
44.92000 221.039
44.96000 221.942
45.00000 206.045
45.04000 224.036
45.08000 220.960
45.12000 217.305
45.16000 215.473
45.20000 207.051
45.24000 206.036
45.28000 204.943
45.32000 200.729
45.36000 192.953
45.40000 201.518
45.44000 203.463
45.48000 203.171
45.52000 191.105
45.56000 179.990
45.60000 187.033
45.64000 185.423
45.68000 190.347
45.72000 173.316
45.76000 189.998
45.80000 194.666
45.84000 181.795
45.88000 173.186
45.92000 171.732
45.96000 170.470
46.00000 176.302
46.04000 176.362
46.08000 164.086
46.12000 177.255
46.16000 168.852
46.20000 164.560
46.24000 183.654
46.28000 180.642
46.32000 181.178
46.36000 176.665
46.40000 180.052
46.44000 182.425
46.48000 177.611
46.52000 175.921
46.56000 164.138
46.60000 167.178
46.64000 166.914
46.68000 173.218
46.72000 176.879
46.76000 177.695
46.80000 176.484
46.84000 178.578
46.88000 166.911
46.92000 180.589
46.96000 166.361
47.00000 176.972
47.04000 159.371
47.08000 164.624
47.12000 177.217
47.16000 163.766
47.20000 169.505
47.24000 164.554
47.28000 156.664
47.32000 162.260
47.36000 156.706
47.40000 164.656
47.44000 163.408
47.48000 165.190
47.52000 161.409
47.56000 160.160
47.60000 153.047
47.64000 143.798
47.68000 152.235
47.72000 156.236
47.76000 163.231
47.80000 161.988
47.84000 165.651
47.88000 156.549
47.92000 155.916
47.96000 157.093
48.00000 168.234
48.04000 169.867
48.08000 164.192
48.12000 155.677
48.16000 154.688
48.20000 160.541
48.24000 160.547
48.28000 157.613
48.32000 163.500
48.36000 148.003
48.40000 158.317
48.44000 163.365
48.48000 161.360
48.52000 154.911
48.56000 157.388
48.60000 151.843
48.64000 155.543
48.68000 157.094
48.72000 154.534
48.76000 156.394
48.80000 152.787
48.84000 150.236
48.88000 154.827
48.92000 151.404
48.96000 150.973
49.00000 157.471
49.04000 162.276
49.08000 150.999
49.12000 155.813
49.16000 155.386
49.20000 156.907
49.24000 150.801
49.28000 159.931
49.32000 158.229
49.36000 154.889
49.40000 152.227
49.44000 157.472
49.48000 145.420
49.52000 144.050
49.56000 153.023
49.60000 148.196
49.64000 146.319
49.68000 139.233
49.72000 157.373
49.76000 151.083
49.80000 148.853
49.84000 153.424
49.88000 159.947
49.92000 143.519
49.96000 153.048
50.00000 152.765
50.04000 148.424
50.08000 157.171
50.12000 170.527
50.16000 152.863
50.20000 148.470
50.24000 163.492
50.28000 147.282
50.32000 152.072
50.36000 155.728
50.40000 159.470
50.44000 157.723
50.48000 167.513
50.52000 157.907
50.56000 166.440
50.60000 163.466
50.64000 161.472
50.68000 165.215
50.72000 172.169
50.76000 168.411
50.80000 164.576
50.84000 164.859
50.88000 153.419
50.92000 148.547
50.96000 156.583
51.00000 151.779
51.04000 149.752
51.08000 150.683
51.12000 150.847
51.16000 133.213
51.20000 143.508
51.24000 139.801
51.28000 147.183
51.32000 149.064
51.36000 152.731
51.40000 146.760
51.44000 141.178
51.48000 149.109
51.52000 152.149
51.56000 143.087
51.60000 144.564
51.64000 144.087
51.68000 147.803
51.72000 148.362
51.76000 135.802
51.80000 145.052
51.84000 135.126
51.88000 152.865
51.92000 145.227
51.96000 137.298
52.00000 147.228
52.04000 146.970
52.08000 145.426
52.12000 142.849
52.16000 141.753
52.20000 142.361
52.24000 130.149
52.28000 135.984
52.32000 144.221
52.36000 136.636
52.40000 130.573
52.44000 136.246
52.48000 144.424
52.52000 141.695
52.56000 135.423
52.60000 122.714
52.64000 146.415
52.68000 144.831
52.72000 138.451
52.76000 138.825
52.80000 138.349
52.84000 142.580
52.88000 137.893
52.92000 140.885
52.96000 144.137
53.00000 136.905
53.04000 135.982
53.08000 134.581
53.12000 146.333
53.16000 140.540
53.20000 144.457
53.24000 139.996
53.28000 145.974
53.32000 143.560
53.36000 140.988
53.40000 141.292
53.44000 156.585
53.48000 139.187
53.52000 139.471
53.56000 151.514
53.60000 137.877
53.64000 141.472
53.68000 146.852
53.72000 146.625
53.76000 133.312
53.80000 143.342
53.84000 134.288
53.88000 134.962
53.92000 131.591
53.96000 117.583
54.00000 135.285
54.04000 138.015
54.08000 130.268
54.12000 129.650
54.16000 143.612
54.20000 137.061
54.24000 132.372
54.28000 147.821
54.32000 134.238
54.36000 133.927
54.40000 130.872
54.44000 135.752
54.48000 134.265
54.52000 136.525
54.56000 138.437
54.60000 136.281
54.64000 132.847
54.68000 139.845
54.72000 134.646
54.76000 133.222
54.80000 122.452
54.84000 134.889
54.88000 135.738
54.92000 141.068
54.96000 151.535
55.00000 142.057
55.04000 142.424
55.08000 143.157
55.12000 141.214
55.16000 136.667
55.20000 136.761
55.24000 147.105
55.28000 146.985
55.32000 149.330
55.36000 146.100
55.40000 153.786
55.44000 164.923
55.48000 161.835
55.52000 171.330
55.56000 173.256
55.60000 177.947
55.64000 180.256
55.68000 183.921
55.72000 203.442
55.76000 221.823
55.80000 215.933
55.84000 228.997
55.88000 224.190
55.92000 229.468
55.96000 236.927
56.00000 234.226
56.04000 235.663
56.08000 210.167
56.12000 203.039
56.16000 203.916
56.20000 184.840
56.24000 180.790
56.28000 189.493
56.32000 172.365
56.36000 156.029
56.40000 165.089
56.44000 158.292
56.48000 153.075
56.52000 148.987
56.56000 140.789
56.60000 137.480
56.64000 139.459
56.68000 135.686
56.72000 119.458
56.76000 120.081
56.80000 132.346
56.84000 131.076
56.88000 123.900
56.92000 126.898
56.96000 138.423
57.00000 120.286
57.04000 120.597
57.08000 124.899
57.12000 128.467
57.16000 124.717
57.20000 130.575
57.24000 127.757
57.28000 112.853
57.32000 123.628
57.36000 115.107
57.40000 124.203
57.44000 129.910
57.48000 124.512
57.52000 122.517
57.56000 127.811
57.60000 120.051
57.64000 119.598
57.68000 117.679
57.72000 131.951
57.76000 125.237
57.80000 112.619
57.84000 117.004
57.88000 116.993
57.92000 131.620
57.96000 125.980
58.00000 125.389
58.04000 125.011
58.08000 119.419
58.12000 119.864
58.16000 122.308
58.20000 123.741
58.24000 123.225
58.28000 127.543
58.32000 125.580
58.36000 122.158
58.40000 117.176
58.44000 118.847
58.48000 118.899
58.52000 130.056
58.56000 114.776
58.60000 123.001
58.64000 127.165
58.68000 125.807
58.72000 129.058
58.76000 118.078
58.80000 116.418
58.84000 122.176
58.88000 117.084
58.92000 120.660
58.96000 114.972
59.00000 112.188
59.04000 110.555
59.08000 119.464
59.12000 113.637
59.16000 111.793
59.20000 119.060
59.24000 115.539
59.28000 121.055
59.32000 119.357
59.36000 110.828
59.40000 120.581
59.44000 112.309
59.48000 109.860
59.52000 122.648
59.56000 121.556
59.60000 116.129
59.64000 117.878
59.68000 120.378
59.72000 114.046
59.76000 113.732
59.80000 119.065
59.84000 117.608
59.88000 111.656
59.92000 122.074
59.96000 123.789
60.00000 116.576
60.04000 116.909
60.08000 124.311
60.12000 125.223
60.16000 112.104
60.20000 113.263
60.24000 119.368
60.28000 112.683
60.32000 118.175
60.36000 108.019
60.40000 118.827
60.44000 115.540
60.48000 120.454
60.52000 122.562
60.56000 112.973
60.60000 122.864
60.64000 120.823
60.68000 114.565
60.72000 125.000
60.76000 113.807
60.80000 121.440
60.84000 112.571
60.88000 115.354
60.92000 126.914
60.96000 114.622
61.00000 119.921
61.04000 133.509
61.08000 115.769
61.12000 124.216
61.16000 120.141
61.20000 119.486
61.24000 121.443
61.28000 118.396
61.32000 129.016
61.36000 107.111
61.40000 123.363
61.44000 130.155
61.48000 130.569
61.52000 146.068
61.56000 197.032
61.60000 239.317
61.64000 266.772
61.68000 295.050
61.72000 302.087
61.76000 298.182
61.80000 237.528
61.84000 180.980
61.88000 142.158
61.92000 130.096
61.96000 139.708
62.00000 134.473
62.04000 133.127
62.08000 124.890
62.12000 129.613
62.16000 141.267
62.20000 139.438
62.24000 133.230
62.28000 132.919
62.32000 129.212
62.36000 122.102
62.40000 137.569
62.44000 127.603
62.48000 124.591
62.52000 126.848
62.56000 122.735
62.60000 134.294
62.64000 134.141
62.68000 126.978
62.72000 134.571
62.76000 123.164
62.80000 133.509
62.84000 132.377
62.88000 138.233
62.92000 129.668
62.96000 127.677
63.00000 129.205
63.04000 131.352
63.08000 122.562
63.12000 132.750
63.16000 133.167
63.20000 125.675
63.24000 139.931
63.28000 126.816
63.32000 142.098
63.36000 139.565
63.40000 137.468
63.44000 147.702
63.48000 142.256
63.52000 131.818
63.56000 142.880
63.60000 139.435
63.64000 144.221
63.68000 137.309
63.72000 142.878
63.76000 140.467
63.80000 136.479
63.84000 137.708
63.88000 139.677
63.92000 147.408
63.96000 145.898
64.00000 146.333
64.04000 151.362
64.08000 158.894
64.12000 146.022
64.16000 146.428
64.20000 140.506
64.24000 148.657
64.28000 147.685
64.32000 161.985
64.36000 164.816
64.40000 157.095
64.44000 166.611
64.48000 163.419
64.52000 170.700
64.56000 170.982
64.60000 173.946
64.64000 177.352
64.68000 167.957
64.72000 178.287
64.76000 179.344
64.80000 174.874
64.84000 188.029
64.88000 174.373
64.92000 183.462
64.96000 186.577
65.00000 201.361
65.04000 195.620
65.08000 199.443
65.12000 209.523
65.16000 202.978
65.20000 214.476
65.24000 211.810
65.28000 220.957
65.32000 227.574
65.36000 242.874
65.40000 245.115
65.44000 253.160
65.48000 279.508
65.52000 282.765
65.56000 297.327
65.60000 333.873
65.64000 414.238
65.68000 542.750
65.72000 884.193
65.76000 1344.641
65.80000 1798.128
65.84000 1995.174
65.88000 2072.409
65.92000 1963.866
65.96000 1668.654
66.00000 1089.473
66.04000 671.449
66.08000 507.794
66.12000 407.195
66.16000 379.825
66.20000 378.218
66.24000 408.271
66.28000 465.169
66.32000 562.723
66.36000 612.122
66.40000 642.163
66.44000 633.186
66.48000 623.390
66.52000 578.056
66.56000 461.746
66.60000 397.857
66.64000 366.041
66.68000 362.705
66.72000 361.671
66.76000 368.455
66.80000 384.835
66.84000 386.523
66.88000 377.948
66.92000 370.524
66.96000 387.828
67.00000 378.865
67.04000 397.490
67.08000 404.051
67.12000 408.529
67.16000 391.647
67.20000 400.373
67.24000 404.565
67.28000 413.000
67.32000 411.003
67.36000 397.893
67.40000 435.016
67.44000 428.495
67.48000 441.201
67.52000 438.031
67.56000 436.889
67.60000 429.035
67.64000 450.502
67.68000 442.578
67.72000 467.983
67.76000 478.033
67.80000 481.176
67.84000 494.857
67.88000 508.360
67.92000 497.173
67.96000 512.074
68.00000 510.764
68.04000 537.720
68.08000 556.790
68.12000 534.257
68.16000 573.889
68.20000 559.976
68.24000 550.900
68.28000 619.409
68.32000 592.733
68.36000 633.906
68.40000 662.197
68.44000 655.331
68.48000 707.114
68.52000 727.704
68.56000 785.051
68.60000 835.320
68.64000 984.083
68.68000 1152.339
68.72000 1326.447
68.76000 1501.222
68.80000 1682.686
68.84000 1896.935
68.88000 2265.246
68.92000 3329.524
68.96000 8647.395
69.00000 20720.014
69.04000 34251.313
69.08000 42075.309
69.12000 45036.820
69.16000 48026.383
69.20000 48346.984
69.24000 40258.629
69.28000 29188.115
69.32000 23536.277
69.36000 21909.961
69.40000 18902.506
69.44000 12482.465
69.48000 5599.615
69.52000 2384.760
69.56000 1446.389
69.60000 1173.263
69.64000 988.146
69.68000 846.173
69.72000 745.623
69.76000 684.796
69.80000 637.090
69.84000 599.481
69.88000 561.284
69.92000 544.631
69.96000 511.983
70.00000 512.930