File: XRD/07-10-2025 Dep 6/XY Data/BTO_Mapping_Theta2Theta_07-10-2025_001_60_27-406_-12-202.xy
20.00000 472.431
20.04000 469.252
20.08000 465.279
20.12000 484.217
20.16000 472.400
20.20000 494.422
20.24000 466.320
20.28000 468.472
20.32000 448.348
20.36000 473.382
20.40000 473.496
20.44000 473.236
20.48000 458.951
20.52000 448.240
20.56000 459.135
20.60000 451.063
20.64000 463.703
20.68000 448.832
20.72000 442.244
20.76000 457.059
20.80000 458.502
20.84000 455.398
20.88000 462.094
20.92000 463.621
20.96000 465.950
21.00000 462.839
21.04000 472.436
21.08000 467.676
21.12000 458.738
21.16000 465.531
21.20000 463.443
21.24000 464.122
21.28000 458.577
21.32000 456.497
21.36000 459.271
21.40000 460.537
21.44000 455.428
21.48000 463.755
21.52000 478.186
21.56000 464.704
21.60000 452.336
21.64000 468.944
21.68000 472.691
21.72000 468.827
21.76000 461.651
21.80000 491.825
21.84000 479.874
21.88000 476.409
21.92000 492.131
21.96000 471.246
22.00000 511.828
22.04000 484.992
22.08000 490.412
22.12000 509.979
22.16000 490.093
22.20000 498.086
22.24000 477.381
22.28000 476.749
22.32000 479.908
22.36000 475.920
22.40000 472.202
22.44000 459.957
22.48000 469.962
22.52000 460.166
22.56000 439.551
22.60000 451.579
22.64000 461.073
22.68000 451.594
22.72000 456.724
22.76000 438.376
22.80000 441.368
22.84000 447.992
22.88000 430.802
22.92000 452.974
22.96000 446.295
23.00000 442.065
23.04000 448.579
23.08000 453.768
23.12000 421.948
23.16000 440.139
23.20000 437.103
23.24000 444.862
23.28000 446.974
23.32000 439.917
23.36000 428.744
23.40000 424.379
23.44000 433.866
23.48000 456.418
23.52000 434.350
23.56000 443.355
23.60000 444.630
23.64000 456.421
23.68000 470.192
23.72000 468.191
23.76000 469.229
23.80000 502.852
23.84000 499.613
23.88000 493.379
23.92000 489.610
23.96000 511.468
24.00000 504.912
24.04000 509.497
24.08000 502.168
24.12000 498.085
24.16000 486.028
24.20000 487.695
24.24000 463.427
24.28000 445.789
24.32000 431.419
24.36000 446.158
24.40000 445.877
24.44000 430.446
24.48000 436.227
24.52000 425.069
24.56000 407.659
24.60000 425.992
24.64000 403.403
24.68000 403.813
24.72000 414.924
24.76000 420.556
24.80000 399.239
24.84000 411.606
24.88000 408.138
24.92000 414.619
24.96000 395.129
25.00000 411.534
25.04000 416.864
25.08000 398.028
25.12000 401.444
25.16000 396.803
25.20000 411.454
25.24000 397.923
25.28000 417.023
25.32000 397.708
25.36000 398.169
25.40000 416.810
25.44000 415.109
25.48000 394.668
25.52000 386.400
25.56000 385.377
25.60000 398.917
25.64000 400.029
25.68000 388.452
25.72000 392.065
25.76000 394.252
25.80000 386.223
25.84000 399.634
25.88000 397.166
25.92000 412.668
25.96000 399.833
26.00000 376.809
26.04000 389.882
26.08000 389.676
26.12000 392.704
26.16000 371.725
26.20000 382.094
26.24000 391.126
26.28000 391.074
26.32000 402.212
26.36000 381.565
26.40000 384.429
26.44000 394.214
26.48000 371.200
26.52000 381.350
26.56000 365.843
26.60000 371.053
26.64000 385.556
26.68000 375.935
26.72000 379.930
26.76000 382.660
26.80000 378.553
26.84000 382.829
26.88000 378.513
26.92000 367.650
26.96000 387.446
27.00000 367.974
27.04000 359.874
27.08000 369.435
27.12000 362.775
27.16000 348.056
27.20000 369.638
27.24000 374.446
27.28000 370.299
27.32000 384.022
27.36000 362.236
27.40000 367.668
27.44000 372.340
27.48000 364.538
27.52000 378.817
27.56000 362.759
27.60000 364.416
27.64000 370.075
27.68000 380.424
27.72000 362.231
27.76000 384.006
27.80000 376.701
27.84000 371.226
27.88000 362.025
27.92000 361.258
27.96000 370.106
28.00000 354.262
28.04000 359.906
28.08000 373.005
28.12000 366.122
28.16000 353.967
28.20000 362.898
28.24000 368.664
28.28000 356.965
28.32000 388.893
28.36000 358.914
28.40000 357.471
28.44000 348.046
28.48000 350.729
28.52000 362.261
28.56000 376.097
28.60000 330.735
28.64000 360.304
28.68000 370.394
28.72000 369.711
28.76000 366.199
28.80000 339.850
28.84000 359.847
28.88000 365.275
28.92000 373.781
28.96000 352.683
29.00000 354.977
29.04000 369.216
29.08000 357.316
29.12000 356.418
29.16000 363.862
29.20000 351.646
29.24000 366.704
29.28000 362.208
29.32000 357.157
29.36000 363.156
29.40000 352.410
29.44000 344.244
29.48000 369.541
29.52000 345.851
29.56000 373.121
29.60000 358.302
29.64000 353.103
29.68000 364.798
29.72000 361.858
29.76000 358.449
29.80000 369.121
29.84000 367.703
29.88000 364.781
29.92000 376.159
29.96000 374.894
30.00000 370.540
30.04000 375.974
30.08000 382.325
30.12000 375.343
30.16000 374.567
30.20000 356.223
30.24000 379.801
30.28000 366.799
30.32000 370.441
30.36000 365.818
30.40000 366.849
30.44000 373.132
30.48000 374.417
30.52000 376.575
30.56000 382.014
30.60000 383.388
30.64000 375.929
30.68000 376.505
30.72000 368.989
30.76000 390.176
30.80000 386.934
30.84000 402.543
30.88000 424.070
30.92000 422.852
30.96000 438.222
31.00000 453.098
31.04000 473.799
31.08000 555.434
31.12000 576.486
31.16000 655.474
31.20000 723.266
31.24000 812.884
31.28000 864.148
31.32000 936.176
31.36000 955.244
31.40000 959.656
31.44000 927.998
31.48000 853.956
31.52000 778.409
31.56000 712.203
31.60000 627.868
31.64000 570.444
31.68000 524.084
31.72000 481.160
31.76000 448.771
31.80000 438.603
31.84000 424.202
31.88000 382.932
31.92000 387.748
31.96000 402.297
32.00000 377.854
32.04000 362.426
32.08000 375.588
32.12000 356.488
32.16000 350.104
32.20000 336.050
32.24000 339.346
32.28000 337.587
32.32000 336.511
32.36000 350.604
32.40000 337.114
32.44000 331.002
32.48000 338.149
32.52000 319.258
32.56000 323.302
32.60000 321.176
32.64000 315.236
32.68000 330.182
32.72000 329.617
32.76000 337.657
32.80000 327.777
32.84000 385.178
32.88000 463.608
32.92000 503.327
32.96000 518.275
33.00000 540.552
33.04000 510.004
33.08000 458.076
33.12000 383.563
33.16000 343.807
33.20000 300.801
33.24000 308.162
33.28000 299.676
33.32000 285.695
33.36000 288.081
33.40000 313.257
33.44000 307.188
33.48000 285.467
33.52000 299.908
33.56000 286.179
33.60000 287.586
33.64000 296.132
33.68000 288.657
33.72000 289.509
33.76000 300.651
33.80000 290.651
33.84000 291.116
33.88000 289.851
33.92000 304.538
33.96000 302.856
34.00000 305.044
34.04000 302.749
34.08000 309.725
34.12000 316.194
34.16000 313.090
34.20000 320.190
34.24000 321.129
34.28000 310.596
34.32000 316.916
34.36000 308.391
34.40000 316.390
34.44000 271.390
34.48000 315.201
34.52000 323.716
34.56000 314.912
34.60000 299.770
34.64000 296.915
34.68000 280.387
34.72000 291.428
34.76000 281.559
34.80000 280.231
34.84000 274.999
34.88000 282.820
34.92000 287.800
34.96000 276.914
35.00000 270.117
35.04000 285.208
35.08000 269.575
35.12000 268.317
35.16000 257.719
35.20000 260.576
35.24000 262.480
35.28000 287.141
35.32000 280.723
35.36000 267.381
35.40000 269.615
35.44000 271.981
35.48000 271.826
35.52000 274.356
35.56000 257.327
35.60000 246.393
35.64000 260.607
35.68000 262.355
35.72000 263.550
35.76000 255.668
35.80000 243.226
35.84000 268.116
35.88000 256.048
35.92000 244.301
35.96000 263.951
36.00000 265.653
36.04000 264.565
36.08000 260.650
36.12000 260.674
36.16000 253.279
36.20000 256.578
36.24000 252.620
36.28000 250.195
36.32000 247.488
36.36000 253.482
36.40000 257.577
36.44000 259.192
36.48000 258.052
36.52000 250.247
36.56000 243.747
36.60000 255.833
36.64000 260.902
36.68000 261.435
36.72000 254.471
36.76000 240.906
36.80000 264.064
36.84000 267.848
36.88000 261.634
36.92000 273.261
36.96000 265.427
37.00000 259.095
37.04000 257.797
37.08000 263.459
37.12000 261.077
37.16000 243.864
37.20000 262.296
37.24000 255.038
37.28000 264.880
37.32000 261.610
37.36000 249.761
37.40000 250.494
37.44000 251.507
37.48000 240.045
37.52000 242.967
37.56000 242.056
37.60000 255.002
37.64000 248.770
37.68000 250.236
37.72000 249.327
37.76000 259.314
37.80000 250.345
37.84000 262.280
37.88000 263.690
37.92000 259.477
37.96000 245.405
38.00000 249.281
38.04000 255.674
38.08000 249.570
38.12000 260.953
38.16000 271.461
38.20000 267.400
38.24000 280.204
38.28000 282.280
38.32000 286.011
38.36000 298.682
38.40000 335.965
38.44000 362.251
38.48000 373.041
38.52000 437.526
38.56000 483.149
38.60000 528.154
38.64000 620.225
38.68000 648.570
38.72000 654.650
38.76000 621.636
38.80000 575.446
38.84000 526.900
38.88000 450.522
38.92000 384.344
38.96000 344.374
39.00000 312.370
39.04000 284.963
39.08000 272.489
39.12000 277.193
39.16000 255.713
39.20000 233.682
39.24000 234.437
39.28000 238.193
39.32000 242.835
39.36000 240.901
39.40000 230.852
39.44000 238.252
39.48000 228.869
39.52000 238.802
39.56000 242.022
39.60000 246.424
39.64000 227.882
39.68000 226.745
39.72000 224.038
39.76000 224.420
39.80000 237.195
39.84000 232.511
39.88000 229.237
39.92000 229.626
39.96000 232.962
40.00000 234.406
40.04000 230.630
40.08000 212.809
40.12000 221.273
40.16000 237.484
40.20000 218.044
40.24000 230.149
40.28000 216.946
40.32000 217.864
40.36000 230.294
40.40000 223.851
40.44000 212.511
40.48000 223.113
40.52000 220.596
40.56000 227.643
40.60000 223.297
40.64000 212.590
40.68000 233.357
40.72000 225.681
40.76000 209.579
40.80000 228.697
40.84000 214.807
40.88000 226.847
40.92000 216.163
40.96000 214.684
41.00000 218.676
41.04000 208.645
41.08000 224.620
41.12000 214.739
41.16000 208.017
41.20000 218.611
41.24000 210.538
41.28000 216.400
41.32000 219.577
41.36000 209.951
41.40000 197.928
41.44000 207.500
41.48000 195.485
41.52000 210.247
41.56000 197.395
41.60000 204.294
41.64000 204.811
41.68000 208.132
41.72000 208.080
41.76000 199.614
41.80000 214.881
41.84000 218.305
41.88000 216.490
41.92000 210.392
41.96000 207.464
42.00000 201.602
42.04000 204.227
42.08000 216.610
42.12000 214.117
42.16000 213.246
42.20000 204.593
42.24000 210.987
42.28000 220.627
42.32000 203.264
42.36000 204.765
42.40000 216.854
42.44000 214.286
42.48000 206.144
42.52000 207.354
42.56000 200.413
42.60000 219.904
42.64000 189.898
42.68000 215.954
42.72000 211.120
42.76000 212.430
42.80000 202.398
42.84000 200.882
42.88000 217.620
42.92000 201.338
42.96000 195.422
43.00000 204.745
43.04000 190.547
43.08000 200.510
43.12000 200.307
43.16000 202.764
43.20000 199.733
43.24000 186.091
43.28000 193.644
43.32000 192.682
43.36000 184.690
43.40000 209.380
43.44000 199.008
43.48000 197.332
43.52000 196.865
43.56000 185.456
43.60000 215.854
43.64000 193.636
43.68000 191.935
43.72000 196.125
43.76000 196.635
43.80000 186.621
43.84000 194.054
43.88000 181.718
43.92000 198.783
43.96000 200.189
44.00000 204.812
44.04000 194.499
44.08000 196.229
44.12000 197.084
44.16000 196.988
44.20000 197.392
44.24000 187.597
44.28000 205.328
44.32000 199.384
44.36000 197.931
44.40000 207.436
44.44000 214.117
44.48000 214.495
44.52000 202.305
44.56000 210.504
44.60000 212.251
44.64000 220.575
44.68000 207.644
44.72000 201.121
44.76000 206.462
44.80000 213.162
44.84000 209.582
44.88000 220.845
44.92000 237.887
44.96000 218.642
45.00000 212.582
45.04000 226.210
45.08000 213.399
45.12000 226.311
45.16000 219.437
45.20000 213.752
45.24000 217.409
45.28000 211.268
45.32000 211.265
45.36000 212.956
45.40000 216.304
45.44000 215.446
45.48000 198.329
45.52000 205.229
45.56000 201.834
45.60000 195.480
45.64000 194.729
45.68000 185.118
45.72000 180.705
45.76000 189.052
45.80000 193.005
45.84000 185.446
45.88000 185.417
45.92000 182.301
45.96000 177.045
46.00000 181.308
46.04000 176.021
46.08000 181.028
46.12000 173.851
46.16000 181.417
46.20000 186.388
46.24000 167.630
46.28000 181.810
46.32000 168.786
46.36000 174.903
46.40000 171.296
46.44000 180.139
46.48000 177.694
46.52000 182.921
46.56000 180.276
46.60000 164.397
46.64000 171.504
46.68000 172.235
46.72000 178.994
46.76000 174.553
46.80000 172.970
46.84000 171.794
46.88000 153.647
46.92000 166.661
46.96000 174.276
47.00000 167.707
47.04000 167.557
47.08000 169.921
47.12000 169.490
47.16000 159.581
47.20000 166.806
47.24000 171.932
47.28000 172.512
47.32000 168.573
47.36000 174.048
47.40000 164.735
47.44000 165.707
47.48000 150.770
47.52000 151.654
47.56000 155.275
47.60000 172.757
47.64000 168.780
47.68000 153.182
47.72000 153.403
47.76000 162.909
47.80000 168.413
47.84000 158.238
47.88000 161.395
47.92000 164.431
47.96000 153.837
48.00000 166.630
48.04000 153.445
48.08000 158.431
48.12000 164.607
48.16000 161.246
48.20000 155.888
48.24000 158.420
48.28000 157.567
48.32000 168.285
48.36000 155.795
48.40000 157.527
48.44000 163.882
48.48000 150.416
48.52000 154.488
48.56000 155.682
48.60000 156.588
48.64000 150.974
48.68000 156.818
48.72000 152.073
48.76000 160.752
48.80000 152.964
48.84000 152.367
48.88000 155.902
48.92000 161.404
48.96000 166.176
49.00000 162.161
49.04000 164.989
49.08000 156.406
49.12000 161.468
49.16000 152.912
49.20000 161.330
49.24000 150.010
49.28000 147.433
49.32000 154.010
49.36000 153.946
49.40000 157.529
49.44000 159.329
49.48000 165.813
49.52000 165.255
49.56000 153.918
49.60000 156.679
49.64000 152.501
49.68000 154.953
49.72000 164.346
49.76000 156.645
49.80000 153.969
49.84000 158.877
49.88000 149.970
49.92000 144.053
49.96000 150.606
50.00000 159.545
50.04000 155.492
50.08000 160.105
50.12000 134.147
50.16000 150.909
50.20000 158.562
50.24000 158.454
50.28000 161.786
50.32000 169.188
50.36000 153.105
50.40000 159.343
50.44000 163.119
50.48000 158.933
50.52000 159.174
50.56000 167.398
50.60000 163.874
50.64000 172.115
50.68000 169.053
50.72000 171.868
50.76000 167.254
50.80000 168.778
50.84000 179.163
50.88000 159.506
50.92000 156.075
50.96000 160.386
51.00000 148.479
51.04000 155.055
51.08000 151.120
51.12000 155.725
51.16000 149.999
51.20000 142.572
51.24000 152.600
51.28000 144.432
51.32000 148.412
51.36000 143.311
51.40000 147.283
51.44000 153.800
51.48000 143.676
51.52000 136.836
51.56000 129.896
51.60000 146.951
51.64000 147.854
51.68000 153.814
51.72000 138.854
51.76000 136.524
51.80000 141.445
51.84000 139.342
51.88000 150.032
51.92000 145.096
51.96000 137.803
52.00000 143.197
52.04000 148.312
52.08000 149.203
52.12000 132.200
52.16000 135.859
52.20000 137.148
52.24000 148.997
52.28000 141.467
52.32000 146.329
52.36000 135.244
52.40000 134.661
52.44000 146.813
52.48000 136.473
52.52000 136.613
52.56000 143.194
52.60000 135.839
52.64000 138.474
52.68000 146.723
52.72000 127.175
52.76000 134.762
52.80000 134.341
52.84000 135.322
52.88000 135.514
52.92000 151.258
52.96000 138.669
53.00000 135.932
53.04000 138.250
53.08000 146.996
53.12000 141.521
53.16000 140.894
53.20000 140.663
53.24000 141.393
53.28000 144.302
53.32000 146.645
53.36000 137.096
53.40000 139.805
53.44000 150.156
53.48000 135.145
53.52000 141.742
53.56000 144.876
53.60000 137.075
53.64000 141.771
53.68000 140.720
53.72000 132.420
53.76000 141.653
53.80000 142.986
53.84000 145.946
53.88000 130.464
53.92000 142.248
53.96000 137.921
54.00000 136.011
54.04000 144.659
54.08000 132.450
54.12000 137.610
54.16000 134.620
54.20000 134.966
54.24000 155.710
54.28000 144.696
54.32000 145.359
54.36000 137.312
54.40000 140.027
54.44000 132.871
54.48000 134.062
54.52000 136.292
54.56000 143.952
54.60000 141.006
54.64000 134.534
54.68000 141.426
54.72000 148.679
54.76000 131.400
54.80000 134.966
54.84000 132.163
54.88000 140.506
54.92000 130.893
54.96000 143.533
55.00000 145.956
55.04000 145.218
55.08000 144.670
55.12000 147.655
55.16000 149.036
55.20000 152.142
55.24000 151.686
55.28000 158.124
55.32000 154.030
55.36000 142.057
55.40000 174.841
55.44000 164.926
55.48000 177.175
55.52000 187.410
55.56000 183.470
55.60000 205.528
55.64000 215.489
55.68000 232.345
55.72000 237.717
55.76000 265.266
55.80000 258.835
55.84000 303.869
55.88000 296.470
55.92000 291.006
55.96000 299.429
56.00000 294.429
56.04000 290.828
56.08000 268.995
56.12000 252.373
56.16000 242.399
56.20000 229.101
56.24000 214.867
56.28000 205.799
56.32000 190.013
56.36000 198.111
56.40000 171.081
56.44000 170.389
56.48000 161.784
56.52000 156.161
56.56000 156.756
56.60000 149.747
56.64000 138.744
56.68000 137.258
56.72000 142.235
56.76000 144.461
56.80000 143.441
56.84000 127.367
56.88000 132.457
56.92000 127.877
56.96000 131.133
57.00000 127.963
57.04000 128.740
57.08000 136.714
57.12000 122.489
57.16000 129.063
57.20000 129.382
57.24000 128.924
57.28000 118.038
57.32000 129.038
57.36000 118.353
57.40000 118.472
57.44000 122.563
57.48000 124.318
57.52000 126.160
57.56000 123.960
57.60000 143.154
57.64000 126.364
57.68000 131.191
57.72000 123.354
57.76000 123.417
57.80000 131.589
57.84000 129.820
57.88000 123.893
57.92000 115.689
57.96000 121.374
58.00000 131.231
58.04000 115.669
58.08000 128.044
58.12000 129.321
58.16000 118.960
58.20000 124.295
58.24000 122.473
58.28000 129.667
58.32000 125.469
58.36000 124.783
58.40000 122.002
58.44000 124.161
58.48000 120.298
58.52000 123.512
58.56000 112.721
58.60000 118.740
58.64000 123.190
58.68000 121.541
58.72000 115.091
58.76000 115.588
58.80000 119.964
58.84000 114.347
58.88000 117.676
58.92000 113.720
58.96000 109.361
59.00000 124.146
59.04000 124.465
59.08000 129.018
59.12000 123.110
59.16000 115.495
59.20000 119.831
59.24000 123.092
59.28000 107.201
59.32000 117.669
59.36000 117.279
59.40000 117.227
59.44000 111.877
59.48000 119.526
59.52000 114.955
59.56000 117.341
59.60000 121.246
59.64000 113.933
59.68000 112.091
59.72000 116.212
59.76000 123.115
59.80000 122.599
59.84000 111.970
59.88000 115.276
59.92000 121.667
59.96000 109.109
60.00000 110.216
60.04000 122.072
60.08000 131.427
60.12000 116.879
60.16000 118.119
60.20000 122.543
60.24000 112.537
60.28000 121.614
60.32000 128.482
60.36000 124.867
60.40000 115.163
60.44000 118.269
60.48000 107.858
60.52000 118.960
60.56000 125.138
60.60000 116.153
60.64000 112.801
60.68000 113.062
60.72000 113.152
60.76000 116.960
60.80000 120.297
60.84000 121.891
60.88000 116.868
60.92000 125.846
60.96000 119.570
61.00000 121.981
61.04000 114.740
61.08000 126.385
61.12000 123.126
61.16000 124.760
61.20000 124.958
61.24000 130.889
61.28000 122.609
61.32000 109.066
61.36000 119.412
61.40000 122.452
61.44000 135.371
61.48000 141.699
61.52000 152.622
61.56000 188.901
61.60000 244.851
61.64000 273.237
61.68000 295.074
61.72000 301.707
61.76000 277.545
61.80000 233.078
61.84000 174.683
61.88000 143.780
61.92000 139.883
61.96000 140.266
62.00000 135.418
62.04000 131.545
62.08000 131.809
62.12000 123.534
62.16000 124.933
62.20000 129.917
62.24000 132.534
62.28000 131.405
62.32000 123.408
62.36000 135.463
62.40000 127.110
62.44000 121.284
62.48000 126.931
62.52000 130.712
62.56000 136.204
62.60000 125.417
62.64000 115.412
62.68000 134.605
62.72000 126.200
62.76000 123.216
62.80000 142.116
62.84000 134.620
62.88000 132.475
62.92000 126.594
62.96000 129.215
63.00000 131.585
63.04000 131.491
63.08000 131.735
63.12000 140.599
63.16000 137.053
63.20000 139.531
63.24000 147.026
63.28000 144.457
63.32000 128.234
63.36000 130.921
63.40000 128.153
63.44000 134.210
63.48000 142.743
63.52000 143.288
63.56000 138.717
63.60000 132.667
63.64000 135.800
63.68000 141.937
63.72000 144.514
63.76000 154.221
63.80000 147.247
63.84000 132.129
63.88000 141.063
63.92000 139.061
63.96000 144.008
64.00000 153.557
64.04000 139.903
64.08000 149.795
64.12000 153.870
64.16000 146.544
64.20000 147.765
64.24000 159.297
64.28000 158.726
64.32000 162.261
64.36000 165.741
64.40000 160.708
64.44000 160.316
64.48000 161.007
64.52000 154.020
64.56000 159.844
64.60000 152.311
64.64000 169.493
64.68000 167.112
64.72000 177.619
64.76000 183.522
64.80000 173.850
64.84000 182.137
64.88000 196.299
64.92000 187.750
64.96000 182.591
65.00000 189.641
65.04000 189.519
65.08000 193.451
65.12000 211.500
65.16000 214.921
65.20000 210.552
65.24000 216.914
65.28000 217.068
65.32000 235.300
65.36000 242.300
65.40000 257.034
65.44000 257.924
65.48000 271.783
65.52000 291.276
65.56000 317.245
65.60000 330.099
65.64000 416.076
65.68000 526.621
65.72000 823.668
65.76000 1321.238
65.80000 1739.714
65.84000 1961.241
65.88000 2005.237
65.92000 1909.070
65.96000 1586.088
66.00000 1109.932
66.04000 689.324
66.08000 489.576
66.12000 415.684
66.16000 380.379
66.20000 379.543
66.24000 392.922
66.28000 452.743
66.32000 522.361
66.36000 608.217
66.40000 638.009
66.44000 626.811
66.48000 615.339
66.52000 567.017
66.56000 462.435
66.60000 399.062
66.64000 354.331
66.68000 339.791
66.72000 362.273
66.76000 359.015
66.80000 364.587
66.84000 367.187
66.88000 365.885
66.92000 389.176
66.96000 376.580
67.00000 372.005
67.04000 370.768
67.08000 383.401
67.12000 398.944
67.16000 389.870
67.20000 412.507
67.24000 385.611
67.28000 400.873
67.32000 412.583
67.36000 424.668
67.40000 410.566
67.44000 416.548
67.48000 431.676
67.52000 433.668
67.56000 435.528
67.60000 446.726
67.64000 441.460
67.68000 458.856
67.72000 444.002
67.76000 487.866
67.80000 490.154
67.84000 471.408
67.88000 501.908
67.92000 505.182
67.96000 501.352
68.00000 496.157
68.04000 509.605
68.08000 519.660
68.12000 541.711
68.16000 532.233
68.20000 541.810
68.24000 558.535
68.28000 569.790
68.32000 601.022
68.36000 613.317
68.40000 629.347
68.44000 655.534
68.48000 687.877
68.52000 725.797
68.56000 763.561
68.60000 843.687
68.64000 954.116
68.68000 1102.341
68.72000 1288.832
68.76000 1479.941
68.80000 1651.996
68.84000 1862.512
68.88000 2191.833
68.92000 3179.128
68.96000 8491.689
69.00000 20176.188
69.04000 33271.941
69.08000 40682.949
69.12000 43722.531
69.16000 46447.801
69.20000 47205.801
69.24000 38785.867
69.28000 28163.316
69.32000 22930.367
69.36000 21198.119
69.40000 18186.754
69.44000 11918.208
69.48000 5328.610
69.52000 2345.586
69.56000 1408.514
69.60000 1118.435
69.64000 936.784
69.68000 839.596
69.72000 738.533
69.76000 711.285
69.80000 629.862
69.84000 597.106
69.88000 558.808
69.92000 547.190
69.96000 500.368
70.00000 506.807