File: XRD/18-11-2025 GIXRD STO on Si Sputtering/XY Data/STO_GIXRD_23-09-2025_001_01_0-000_0-000.xy
20.00000 22.241
20.04000 26.566
20.08000 21.328
20.12000 26.606
20.16000 27.283
20.20000 19.352
20.24000 23.640
20.28000 24.382
20.32000 23.450
20.36000 32.569
20.40000 23.413
20.44000 23.544
20.48000 19.298
20.52000 26.203
20.56000 18.241
20.60000 12.299
20.64000 23.495
20.68000 29.745
20.72000 15.267
20.76000 22.308
20.80000 19.292
20.84000 21.295
20.88000 17.174
20.92000 19.306
20.96000 19.401
21.00000 27.459
21.04000 28.685
21.08000 23.649
21.12000 16.164
21.16000 33.850
21.20000 15.130
21.24000 31.770
21.28000 21.533
21.32000 25.409
21.36000 18.347
21.40000 20.437
21.44000 32.621
21.48000 22.424
21.52000 28.506
21.56000 26.509
21.60000 21.424
21.64000 20.405
21.68000 22.366
21.72000 17.442
21.76000 18.383
21.80000 29.715
21.84000 18.331
21.88000 21.484
21.92000 19.771
21.96000 19.294
22.00000 29.718
22.04000 24.331
22.08000 16.353
22.12000 28.510
22.16000 15.242
22.20000 21.239
22.24000 26.479
22.28000 29.488
22.32000 15.467
22.36000 22.444
22.40000 24.491
22.44000 20.215
22.48000 17.231
22.52000 21.364
22.56000 20.438
22.60000 19.301
22.64000 19.449
22.68000 17.213
22.72000 22.347
22.76000 26.444
22.80000 22.358
22.84000 28.601
22.88000 13.185
22.92000 17.515
22.96000 20.288
23.00000 14.189
23.04000 19.430
23.08000 21.407
23.12000 27.597
23.16000 15.199
23.20000 21.438
23.24000 24.443
23.28000 29.804
23.32000 23.503
23.36000 20.345
23.40000 22.347
23.44000 12.333
23.48000 23.610
23.52000 20.554
23.56000 15.157
23.60000 19.303
23.64000 16.311
23.68000 27.803
23.72000 23.540
23.76000 16.427
23.80000 21.411
23.84000 20.212
23.88000 26.476
23.92000 20.700
23.96000 28.638
24.00000 22.339
24.04000 21.442
24.08000 29.660
24.12000 25.479
24.16000 21.435
24.20000 26.567
24.24000 19.414
24.28000 22.360
24.32000 27.414
24.36000 26.492
24.40000 22.511
24.44000 16.268
24.48000 19.221
24.52000 19.275
24.56000 18.313
24.60000 21.457
24.64000 20.467
24.68000 15.352
24.72000 23.681
24.76000 18.224
24.80000 16.395
24.84000 18.391
24.88000 17.393
24.92000 21.501
24.96000 19.513
25.00000 22.563
25.04000 28.701
25.08000 28.473
25.12000 20.399
25.16000 17.477
25.20000 17.350
25.24000 26.510
25.28000 19.245
25.32000 15.453
25.36000 13.239
25.40000 23.426
25.44000 15.244
25.48000 25.320
25.52000 16.251
25.56000 13.181
25.60000 13.173
25.64000 23.486
25.68000 13.578
25.72000 25.667
25.76000 19.490
25.80000 14.380
25.84000 26.435
25.88000 22.471
25.92000 12.078
25.96000 14.423
26.00000 23.379
26.04000 21.423
26.08000 18.230
26.12000 24.533
26.16000 10.333
26.20000 16.379
26.24000 10.204
26.28000 23.427
26.32000 24.318
26.36000 26.718
26.40000 18.430
26.44000 22.477
26.48000 26.492
26.52000 13.256
26.56000 25.556
26.60000 19.391
26.64000 21.314
26.68000 17.496
26.72000 15.345
26.76000 18.398
26.80000 26.431
26.84000 13.308
26.88000 20.608
26.92000 14.373
26.96000 14.238
27.00000 24.190
27.04000 16.161
27.08000 18.284
27.12000 16.472
27.16000 26.406
27.20000 18.233
27.24000 26.519
27.28000 18.436
27.32000 27.588
27.36000 18.338
27.40000 16.387
27.44000 16.392
27.48000 18.407
27.52000 27.394
27.56000 19.469
27.60000 19.490
27.64000 24.526
27.68000 24.286
27.72000 18.340
27.76000 22.559
27.80000 23.381
27.84000 27.619
27.88000 32.608
27.92000 18.293
27.96000 19.390
28.00000 11.181
28.04000 19.481
28.08000 15.195
28.12000 15.318
28.16000 19.315
28.20000 19.446
28.24000 28.543
28.28000 20.316
28.32000 23.315
28.36000 21.593
28.40000 19.304
28.44000 20.422
28.48000 13.314
28.52000 20.329
28.56000 24.488
28.60000 27.535
28.64000 19.456
28.68000 26.457
28.72000 20.462
28.76000 19.365
28.80000 23.395
28.84000 34.700
28.88000 27.353
28.92000 19.440
28.96000 22.602
29.00000 20.500
29.04000 24.650
29.08000 20.349
29.12000 28.648
29.16000 20.383
29.20000 24.624
29.24000 26.598
29.28000 15.511
29.32000 18.362
29.36000 14.297
29.40000 20.439
29.44000 26.609
29.48000 21.339
29.52000 24.517
29.56000 18.366
29.60000 17.343
29.64000 20.377
29.68000 22.732
29.72000 18.383
29.76000 24.316
29.80000 17.384
29.84000 15.198
29.88000 29.491
29.92000 18.307
29.96000 28.604
30.00000 16.237
30.04000 22.297
30.08000 25.651
30.12000 15.287
30.16000 13.298
30.20000 15.416
30.24000 14.126
30.28000 10.219
30.32000 27.597
30.36000 27.447
30.40000 13.247
30.44000 34.564
30.48000 17.377
30.52000 25.464
30.56000 18.278
30.60000 16.390
30.64000 18.506
30.68000 23.227
30.72000 23.505
30.76000 19.417
30.80000 22.331
30.84000 20.398
30.88000 17.254
30.92000 11.183
30.96000 19.495
31.00000 23.401
31.04000 22.448
31.08000 23.531
31.12000 15.401
31.16000 14.162
31.20000 15.322
31.24000 13.210
31.28000 22.519
31.32000 13.176
31.36000 12.260
31.40000 17.174
31.44000 19.377
31.48000 23.622
31.52000 14.247
31.56000 12.270
31.60000 12.308
31.64000 16.435
31.68000 11.170
31.72000 8.140
31.76000 13.435
31.80000 17.342
31.84000 18.418
31.88000 15.214
31.92000 21.292
31.96000 19.526
32.00000 21.469
32.04000 20.400
32.08000 15.272
32.12000 19.443
32.16000 16.249
32.20000 14.311
32.24000 17.115
32.28000 12.089
32.32000 17.243
32.36000 23.526
32.40000 22.418
32.44000 14.302
32.48000 14.434
32.52000 20.465
32.56000 10.247
32.60000 7.111
32.64000 9.131
32.68000 16.259
32.72000 13.335
32.76000 13.287
32.80000 9.158
32.84000 13.267
32.88000 18.383
32.92000 12.407
32.96000 10.172
33.00000 16.254
33.04000 14.332
33.08000 17.434
33.12000 13.196
33.16000 9.108
33.20000 20.390
33.24000 10.395
33.28000 11.274
33.32000 17.388
33.36000 10.226
33.40000 11.258
33.44000 18.463
33.48000 13.354
33.52000 22.420
33.56000 10.216
33.60000 17.379
33.64000 14.243
33.68000 9.243
33.72000 17.378
33.76000 11.278
33.80000 11.448
33.84000 16.356
33.88000 12.405
33.92000 10.283
33.96000 14.351
34.00000 16.334
34.04000 5.022
34.08000 9.273
34.12000 14.384
34.16000 7.080
34.20000 14.332
34.24000 13.302
34.28000 20.290
34.32000 11.090
34.36000 12.359
34.40000 17.194
34.44000 15.214
34.48000 11.363
34.52000 16.346
34.56000 7.250
34.60000 18.340
34.64000 11.252
34.68000 18.483
34.72000 19.333
34.76000 9.099
34.80000 16.283
34.84000 8.183
34.88000 10.171
34.92000 10.227
34.96000 9.160
35.00000 11.137
35.04000 12.260
35.08000 14.243
35.12000 9.153
35.16000 12.155
35.20000 17.243
35.24000 9.169
35.28000 14.346
35.32000 11.336
35.36000 8.160
35.40000 12.471
35.44000 13.313
35.48000 11.308
35.52000 8.089
35.56000 17.490
35.60000 8.234
35.64000 13.138
35.68000 7.099
35.72000 9.229
35.76000 11.211
35.80000 11.311
35.84000 8.259
35.88000 12.232
35.92000 5.088
35.96000 11.144
36.00000 9.062
36.04000 14.197
36.08000 11.240
36.12000 15.337
36.16000 13.287
36.20000 13.318
36.24000 2.094
36.28000 10.089
36.32000 8.206
36.36000 6.092
36.40000 11.135
36.44000 8.163
36.48000 14.326
36.52000 13.245
36.56000 5.127
36.60000 4.000
36.64000 11.191
36.68000 7.206
36.72000 14.377
36.76000 12.392
36.80000 11.285
36.84000 11.302
36.88000 9.062
36.92000 12.247
36.96000 9.140
37.00000 10.133
37.04000 7.160
37.08000 14.303
37.12000 17.517
37.16000 15.327
37.20000 9.092
37.24000 12.378
37.28000 7.201
37.32000 10.163
37.36000 10.269
37.40000 9.322
37.44000 7.019
37.48000 6.068
37.52000 5.134
37.56000 13.165
37.60000 13.163
37.64000 7.089
37.68000 6.039
37.72000 10.193
37.76000 8.141
37.80000 9.231
37.84000 10.140
37.88000 6.985
37.92000 9.238
37.96000 7.229
38.00000 7.141
38.04000 11.225
38.08000 7.161
38.12000 9.243
38.16000 13.226
38.20000 9.129
38.24000 9.166
38.28000 8.260
38.32000 9.119
38.36000 9.324
38.40000 6.095
38.44000 8.161
38.48000 13.365
38.52000 12.129
38.56000 5.109
38.60000 15.179
38.64000 14.211
38.68000 10.102
38.72000 6.046
38.76000 10.174
38.80000 8.057
38.84000 8.206
38.88000 9.243
38.92000 15.280
38.96000 8.195
39.00000 8.203
39.04000 6.191
39.08000 7.193
39.12000 11.228
39.16000 11.271
39.20000 14.310
39.24000 11.308
39.28000 7.050
39.32000 9.181
39.36000 7.223
39.40000 10.210
39.44000 15.139
39.48000 6.126
39.52000 10.206
39.56000 13.462
39.60000 10.096
39.64000 11.243
39.68000 16.116
39.72000 7.073
39.76000 9.263
39.80000 10.165
39.84000 12.267
39.88000 5.140
39.92000 9.144
39.96000 8.111
40.00000 10.171
40.04000 11.347
40.08000 8.171
40.12000 8.201
40.16000 4.071
40.20000 5.069
40.24000 8.141
40.28000 4.109
40.32000 14.282
40.36000 9.126
40.40000 6.070
40.44000 8.224
40.48000 12.158
40.52000 11.184
40.56000 13.397
40.60000 7.164
40.64000 8.290
40.68000 9.243
40.72000 10.394
40.76000 7.134
40.80000 9.112
40.84000 9.216
40.88000 14.188
40.92000 6.145
40.96000 6.010
41.00000 12.346
41.04000 15.168
41.08000 10.103
41.12000 10.183
41.16000 13.203
41.20000 10.192
41.24000 13.285
41.28000 15.279
41.32000 11.219
41.36000 7.066
41.40000 5.058
41.44000 15.143
41.48000 7.097
41.52000 7.141
41.56000 12.163
41.60000 10.290
41.64000 6.193
41.68000 10.103
41.72000 6.117
41.76000 10.128
41.80000 6.095
41.84000 6.168
41.88000 9.156
41.92000 9.215
41.96000 8.053
42.00000 5.095
42.04000 9.258
42.08000 6.061
42.12000 13.341
42.16000 7.139
42.20000 11.187
42.24000 5.168
42.28000 8.183
42.32000 10.429
42.36000 8.163
42.40000 10.304
42.44000 13.388
42.48000 12.267
42.52000 8.139
42.56000 5.090
42.60000 6.148
42.64000 4.111
42.68000 5.017
42.72000 6.170
42.76000 5.057
42.80000 6.068
42.84000 5.039
42.88000 6.146
42.92000 9.211
42.96000 0.974
43.00000 5.075
43.04000 8.244
43.08000 8.175
43.12000 12.267
43.16000 13.189
43.20000 10.221
43.24000 9.127
43.28000 13.165
43.32000 12.343
43.36000 14.334
43.40000 7.185
43.44000 9.155
43.48000 9.135
43.52000 7.134
43.56000 3.084
43.60000 6.167
43.64000 6.119
43.68000 5.179
43.72000 7.029
43.76000 4.129
43.80000 7.134
43.84000 5.125
43.88000 10.269
43.92000 7.184
43.96000 7.205
44.00000 8.056
44.04000 4.132
44.08000 11.315
44.12000 9.164
44.16000 8.172
44.20000 10.158
44.24000 6.056
44.28000 6.100
44.32000 11.353
44.36000 11.125
44.40000 7.188
44.44000 5.157
44.48000 9.180
44.52000 8.189
44.56000 11.108
44.60000 9.256
44.64000 6.058
44.68000 7.160
44.72000 13.230
44.76000 13.296
44.80000 3.059
44.84000 12.246
44.88000 7.179
44.92000 2.009
44.96000 7.238
45.00000 9.276
45.04000 7.052
45.08000 9.228
45.12000 6.094
45.16000 8.067
45.20000 10.105
45.24000 7.040
45.28000 8.164
45.32000 4.054
45.36000 9.172
45.40000 7.111
45.44000 10.361
45.48000 0.999
45.52000 9.249
45.56000 6.239
45.60000 10.157
45.64000 10.206
45.68000 6.133
45.72000 7.110
45.76000 8.159
45.80000 6.111
45.84000 12.354
45.88000 10.207
45.92000 5.106
45.96000 9.246
46.00000 12.152
46.04000 10.257
46.08000 11.097
46.12000 9.179
46.16000 7.211
46.20000 11.198
46.24000 8.089
46.28000 4.083
46.32000 13.135
46.36000 9.078
46.40000 2.050
46.44000 6.145
46.48000 6.063
46.52000 5.072
46.56000 4.061
46.60000 12.142
46.64000 8.202
46.68000 13.337
46.72000 4.108
46.76000 10.130
46.80000 8.105
46.84000 10.299
46.88000 11.241
46.92000 8.145
46.96000 4.996
47.00000 4.006
47.04000 6.164
47.08000 11.163
47.12000 10.287
47.16000 8.200
47.20000 12.254
47.24000 11.138
47.28000 13.327
47.32000 4.079
47.36000 6.180
47.40000 6.227
47.44000 10.224
47.48000 8.165
47.52000 9.044
47.56000 8.159
47.60000 10.182
47.64000 9.243
47.68000 6.065
47.72000 7.168
47.76000 8.220
47.80000 10.168
47.84000 9.199
47.88000 7.199
47.92000 6.216
47.96000 13.375
48.00000 6.194
48.04000 12.209
48.08000 5.112
48.12000 6.171
48.16000 9.157
48.20000 11.177
48.24000 4.067
48.28000 13.182
48.32000 9.335
48.36000 7.136
48.40000 10.360
48.44000 6.101
48.48000 4.109
48.52000 5.186
48.56000 3.136
48.60000 11.151
48.64000 7.215
48.68000 8.202
48.72000 3.997
48.76000 10.236
48.80000 8.077
48.84000 6.109
48.88000 10.106
48.92000 12.292
48.96000 9.169
49.00000 12.209
49.04000 11.396
49.08000 11.125
49.12000 8.160
49.16000 7.148
49.20000 4.076
49.24000 6.070
49.28000 3.104
49.32000 7.034
49.36000 8.018
49.40000 8.131
49.44000 7.268
49.48000 2.048
49.52000 10.113
49.56000 10.237
49.60000 13.249
49.64000 8.159
49.68000 8.077
49.72000 10.348
49.76000 7.123
49.80000 13.132
49.84000 10.259
49.88000 10.183
49.92000 5.225
49.96000 11.243
50.00000 7.037
50.04000 9.175
50.08000 15.293
50.12000 9.113
50.16000 8.101
50.20000 12.365
50.24000 7.170
50.28000 8.203
50.32000 4.135
50.36000 6.215
50.40000 6.116
50.44000 2.061
50.48000 13.202
50.52000 7.075
50.56000 8.132
50.60000 13.216
50.64000 10.236
50.68000 3.033
50.72000 7.064
50.76000 7.057
50.80000 5.038
50.84000 9.310
50.88000 10.239
50.92000 17.408
50.96000 13.395
51.00000 9.150
51.04000 10.212
51.08000 9.234
51.12000 5.121
51.16000 6.258
51.20000 9.219
51.24000 15.189
51.28000 10.217
51.32000 7.057
51.36000 5.186
51.40000 9.246
51.44000 6.099
51.48000 8.209
51.52000 13.293
51.56000 4.169
51.60000 12.200
51.64000 9.205
51.68000 9.145
51.72000 10.222
51.76000 6.142
51.80000 14.207
51.84000 8.136
51.88000 7.064
51.92000 9.164
51.96000 6.116
52.00000 7.126
52.04000 12.230
52.08000 10.118
52.12000 6.052
52.16000 14.401
52.20000 10.166
52.24000 10.149
52.28000 9.242
52.32000 1.964
52.36000 7.182
52.40000 7.089
52.44000 10.207
52.48000 11.181
52.52000 7.084
52.56000 10.158
52.60000 15.398
52.64000 5.046
52.68000 11.288
52.72000 8.271
52.76000 13.083
52.80000 16.384
52.84000 11.134
52.88000 9.251
52.92000 7.258
52.96000 12.189
53.00000 5.216
53.04000 11.198
53.08000 6.220
53.12000 10.099
53.16000 11.109
53.20000 11.090
53.24000 14.352
53.28000 9.302
53.32000 11.283
53.36000 13.262
53.40000 9.267
53.44000 7.069
53.48000 9.122
53.52000 5.046
53.56000 10.292
53.60000 12.283
53.64000 14.314
53.68000 9.092
53.72000 9.277
53.76000 7.233
53.80000 12.211
53.84000 13.255
53.88000 4.055
53.92000 9.214
53.96000 10.252
54.00000 11.206
54.04000 7.109
54.08000 9.181
54.12000 6.168
54.16000 12.276
54.20000 8.133
54.24000 7.130
54.28000 6.163
54.32000 8.162
54.36000 10.188
54.40000 16.239
54.44000 16.469
54.48000 16.374
54.52000 7.184
54.56000 9.243
54.60000 9.208
54.64000 7.215
54.68000 11.202
54.72000 8.228
54.76000 15.401
54.80000 9.082
54.84000 8.275
54.88000 7.048
54.92000 9.339
54.96000 11.214
55.00000 8.166
55.04000 11.202
55.08000 9.173
55.12000 7.238
55.16000 9.180
55.20000 9.217
55.24000 11.216
55.28000 5.138
55.32000 8.105
55.36000 9.193
55.40000 15.332
55.44000 4.085
55.48000 7.093
55.52000 9.269
55.56000 9.320
55.60000 11.386
55.64000 8.215
55.68000 8.157
55.72000 11.164
55.76000 6.023
55.80000 11.340
55.84000 3.025
55.88000 6.188
55.92000 10.208
55.96000 7.170
56.00000 7.113
56.04000 7.169
56.08000 7.146
56.12000 5.062
56.16000 5.097
56.20000 8.235
56.24000 5.053
56.28000 4.084
56.32000 9.116
56.36000 8.183
56.40000 9.221
56.44000 6.037
56.48000 5.173
56.52000 7.066
56.56000 10.174
56.60000 5.076
56.64000 10.226
56.68000 5.227
56.72000 7.208
56.76000 5.088
56.80000 9.182
56.84000 6.231
56.88000 8.156
56.92000 9.105
56.96000 6.071
57.00000 8.184
57.04000 7.227
57.08000 4.071
57.12000 7.171
57.16000 8.251
57.20000 4.143
57.24000 8.146
57.28000 4.011
57.32000 7.185
57.36000 9.174
57.40000 8.176
57.44000 6.144
57.48000 6.152
57.52000 14.316
57.56000 6.197
57.60000 7.068
57.64000 7.204
57.68000 7.225
57.72000 6.033
57.76000 8.193
57.80000 7.210
57.84000 8.218
57.88000 6.145
57.92000 8.132
57.96000 5.070
58.00000 6.059
58.04000 5.061
58.08000 11.209
58.12000 8.193
58.16000 5.015
58.20000 9.306
58.24000 4.053
58.28000 3.111
58.32000 4.019
58.36000 9.201
58.40000 10.093
58.44000 6.176
58.48000 8.091
58.52000 3.083
58.56000 6.145
58.60000 6.053
58.64000 6.116
58.68000 11.357
58.72000 8.191
58.76000 4.135
58.80000 14.267
58.84000 5.004
58.88000 6.162
58.92000 9.288
58.96000 3.998
59.00000 11.104
59.04000 8.105
59.08000 4.088
59.12000 5.253
59.16000 4.082
59.20000 10.277
59.24000 6.155
59.28000 10.111
59.32000 7.187
59.36000 5.120
59.40000 10.213
59.44000 5.066
59.48000 5.143
59.52000 5.033
59.56000 6.035
59.60000 1.998
59.64000 3.095
59.68000 3.075
59.72000 8.085
59.76000 9.210
59.80000 2.036
59.84000 5.107
59.88000 3.097
59.92000 6.208
59.96000 3.078
60.00000 4.115
60.04000 5.102
60.08000 4.084
60.12000 7.171
60.16000 5.034
60.20000 7.171
60.24000 6.132
60.28000 1.004
60.32000 6.108
60.36000 4.111
60.40000 7.174
60.44000 3.001
60.48000 7.059
60.52000 8.128
60.56000 3.048
60.60000 6.054
60.64000 5.093
60.68000 6.131
60.72000 5.180
60.76000 4.982
60.80000 6.184
60.84000 5.105
60.88000 3.064
60.92000 4.005
60.96000 6.114
61.00000 7.125
61.04000 8.095
61.08000 6.166
61.12000 11.293
61.16000 4.045
61.20000 3.116
61.24000 6.132
61.28000 6.180
61.32000 10.327
61.36000 5.050
61.40000 5.004
61.44000 6.110
61.48000 6.051
61.52000 6.106
61.56000 5.074
61.60000 1.023
61.64000 3.015
61.68000 6.120
61.72000 5.224
61.76000 6.098
61.80000 3.053
61.84000 8.257
61.88000 3.127
61.92000 9.315
61.96000 0.000
62.00000 6.119
62.04000 3.072
62.08000 2.986
62.12000 3.063
62.16000 9.244
62.20000 6.117
62.24000 5.057
62.28000 4.051
62.32000 11.203
62.36000 7.189
62.40000 2.059
62.44000 6.190
62.48000 2.016
62.52000 1.982
62.56000 5.138
62.60000 10.182
62.64000 5.140
62.68000 7.066
62.72000 6.114
62.76000 4.090
62.80000 5.038
62.84000 5.140
62.88000 6.161
62.92000 2.000
62.96000 4.086
63.00000 5.050
63.04000 4.059
63.08000 6.137
63.12000 3.009
63.16000 6.146
63.20000 0.998
63.24000 2.042
63.28000 4.243
63.32000 5.177
63.36000 4.162
63.40000 6.153
63.44000 6.161
63.48000 5.111
63.52000 6.067
63.56000 8.310
63.60000 7.067
63.64000 7.161
63.68000 2.003
63.72000 3.073
63.76000 3.094
63.80000 3.087
63.84000 11.209
63.88000 4.070
63.92000 5.031
63.96000 7.214
64.00000 9.225
64.04000 3.078
64.08000 2.998
64.12000 7.172
64.16000 5.020
64.20000 7.041
64.24000 5.184
64.28000 7.186
64.32000 5.132
64.36000 3.002
64.40000 10.273
64.44000 7.100
64.48000 3.035
64.52000 4.010
64.56000 3.023
64.60000 4.109
64.64000 6.182
64.68000 5.108
64.72000 4.057
64.76000 2.106
64.80000 7.180
64.84000 7.106
64.88000 1.012
64.92000 6.167
64.96000 8.156
65.00000 14.213
65.04000 2.027
65.08000 6.167
65.12000 6.017
65.16000 5.032
65.20000 6.071
65.24000 4.034
65.28000 8.172
65.32000 4.019
65.36000 2.098
65.40000 6.224
65.44000 3.053
65.48000 7.254
65.52000 1.006
65.56000 4.120
65.60000 7.146
65.64000 4.067
65.68000 2.030
65.72000 6.085
65.76000 3.076
65.80000 4.079
65.84000 5.164
65.88000 2.017
65.92000 1.002
65.96000 2.029
66.00000 2.007
66.04000 4.066
66.08000 7.099
66.12000 5.101
66.16000 5.107
66.20000 1.008
66.24000 5.126
66.28000 0.000
66.32000 8.054
66.36000 3.185
66.40000 5.024
66.44000 7.168
66.48000 6.066
66.52000 2.034
66.56000 0.000
66.60000 4.177
66.64000 2.060
66.68000 5.107
66.72000 2.037
66.76000 6.174
66.80000 6.148
66.84000 5.104
66.88000 3.091
66.92000 5.132
66.96000 8.156
67.00000 5.044
67.04000 8.085
67.08000 8.081
67.12000 8.198
67.16000 3.129
67.20000 6.983
67.24000 4.074
67.28000 2.048
67.32000 3.074
67.36000 3.097
67.40000 1.034
67.44000 1.006
67.48000 2.103
67.52000 5.094
67.56000 7.112
67.60000 4.004
67.64000 4.090
67.68000 6.160
67.72000 3.986
67.76000 6.032
67.80000 4.047
67.84000 3.009
67.88000 4.089
67.92000 4.156
67.96000 3.037
68.00000 4.026
68.04000 3.023
68.08000 3.099
68.12000 2.005
68.16000 3.040
68.20000 2.033
68.24000 5.059
68.28000 5.119
68.32000 5.072
68.36000 4.074
68.40000 7.073
68.44000 3.090
68.48000 3.031
68.52000 6.117
68.56000 4.006
68.60000 3.053
68.64000 5.126
68.68000 4.102
68.72000 9.294
68.76000 1.011
68.80000 4.098
68.84000 3.033
68.88000 1.068
68.92000 4.170
68.96000 2.984
69.00000 3.001
69.04000 2.981
69.08000 5.111
69.12000 3.051
69.16000 2.052
69.20000 8.174
69.24000 5.073
69.28000 3.068
69.32000 10.114
69.36000 4.098
69.40000 8.128
69.44000 4.063
69.48000 3.093
69.52000 4.024
69.56000 6.206
69.60000 4.061
69.64000 4.109
69.68000 0.000
69.72000 6.059
69.76000 3.017
69.80000 4.058
69.84000 3.053
69.88000 3.067
69.92000 5.176
69.96000 5.073
70.00000 1.997
70.04000 2.075
70.08000 0.000
70.12000 5.077
70.16000 2.027
70.20000 1.030
70.24000 2.059
70.28000 3.088
70.32000 2.060
70.36000 6.246
70.40000 2.994
70.44000 5.048
70.48000 4.999
70.52000 5.091
70.56000 6.060
70.60000 5.053
70.64000 2.058
70.68000 4.152
70.72000 6.181
70.76000 6.253
70.80000 5.165
70.84000 1.008
70.88000 5.094
70.92000 3.088
70.96000 5.010
71.00000 4.079
71.04000 7.041
71.08000 3.045
71.12000 2.038
71.16000 6.172
71.20000 4.109
71.24000 4.049
71.28000 2.069
71.32000 4.066
71.36000 4.074
71.40000 1.984
71.44000 5.161
71.48000 3.015
71.52000 7.040
71.56000 8.110
71.60000 4.030
71.64000 4.083
71.68000 5.097
71.72000 3.108
71.76000 6.175
71.80000 6.052
71.84000 3.083
71.88000 6.106
71.92000 2.985
71.96000 4.104
72.00000 2.006
72.04000 6.143
72.08000 2.070
72.12000 6.092
72.16000 1.067
72.20000 6.130
72.24000 3.065
72.28000 2.988
72.32000 4.992
72.36000 8.200
72.40000 4.075
72.44000 5.162
72.48000 1.052
72.52000 7.100
72.56000 4.125
72.60000 3.112
72.64000 1.059
72.68000 5.071
72.72000 6.131
72.76000 1.985
72.80000 5.080
72.84000 2.085
72.88000 3.028
72.92000 4.083
72.96000 2.010
73.00000 4.052
73.04000 4.019
73.08000 8.276
73.12000 2.065
73.16000 7.173
73.20000 2.011
73.24000 3.055
73.28000 3.031
73.32000 4.056
73.36000 1.018
73.40000 3.055
73.44000 1.057
73.48000 5.030
73.52000 5.108
73.56000 4.075
73.60000 7.170
73.64000 2.997
73.68000 2.046
73.72000 4.027
73.76000 6.211
73.80000 2.069
73.84000 4.106
73.88000 6.121
73.92000 4.125
73.96000 5.065
74.00000 3.981
74.04000 8.202
74.08000 4.181
74.12000 5.153
74.16000 4.057
74.20000 3.038
74.24000 7.063
74.28000 4.071
74.32000 3.098
74.36000 6.187
74.40000 6.110
74.44000 6.017
74.48000 2.034
74.52000 3.061
74.56000 4.070
74.60000 7.111
74.64000 3.074
74.68000 6.124
74.72000 5.126
74.76000 5.181
74.80000 6.088
74.84000 8.140
74.88000 4.130
74.92000 5.065
74.96000 3.028
75.00000 3.043