File: XRD/17-11-2025 Crystal Plates/XY Data/Deposition_10-1.xy
20.00000 754.984
20.04000 745.969
20.08000 755.070
20.12000 728.730
20.16000 761.574
20.20000 751.838
20.24000 771.245
20.28000 773.561
20.32000 794.857
20.36000 809.721
20.40000 822.744
20.44000 840.853
20.48000 897.902
20.52000 912.585
20.56000 955.044
20.60000 995.640
20.64000 1045.552
20.68000 1184.520
20.72000 1279.819
20.76000 1449.137
20.80000 1500.377
20.84000 1520.162
20.88000 1552.455
20.92000 1544.840
20.96000 1458.922
21.00000 1497.601
21.04000 1548.008
21.08000 1664.625
21.12000 1788.587
21.16000 2021.588
21.20000 2285.933
21.24000 2667.140
21.28000 3151.053
21.32000 3797.560
21.36000 4466.000
21.40000 5462.761
21.44000 6602.653
21.48000 8213.268
21.52000 11049.313
21.56000 16586.557
21.60000 27932.172
21.64000 41752.098
21.68000 51621.512
21.72000 54718.070
21.76000 52068.512
21.80000 44147.977
21.84000 31850.402
21.88000 20130.820
21.92000 9511.327
21.96000 4706.098
22.00000 2809.525
22.04000 2137.525
22.08000 1748.937
22.12000 1537.810
22.16000 1417.402
22.20000 1341.634
22.24000 1300.351
22.28000 1210.225
22.32000 1212.163
22.36000 1191.080
22.40000 1231.666
22.44000 1217.727
22.48000 1259.000
22.52000 1384.416
22.56000 2121.639
22.60000 5505.224
22.64000 14910.222
22.68000 27653.521
22.72000 36345.426
22.76000 38941.723
22.80000 37857.336
22.84000 32748.508
22.88000 22442.463
22.92000 12132.353
22.96000 4851.982
23.00000 1893.890
23.04000 1241.287
23.08000 1088.359
23.12000 1017.246
23.16000 950.372
23.20000 928.071
23.24000 874.204
23.28000 859.705
23.32000 839.106
23.36000 821.177
23.40000 787.101
23.44000 757.749
23.48000 742.009
23.52000 715.308
23.56000 741.612
23.60000 740.054
23.64000 744.861
23.68000 716.191
23.72000 708.033
23.76000 710.093
23.80000 682.783
23.84000 694.032
23.88000 696.646
23.92000 694.463
23.96000 679.601
24.00000 663.664
24.04000 669.444
24.08000 679.087
24.12000 678.000
24.16000 659.655
24.20000 651.193
24.24000 676.882
24.28000 667.782
24.32000 653.097
24.36000 650.223
24.40000 642.964
24.44000 648.847
24.48000 657.198
24.52000 638.204
24.56000 629.346
24.60000 629.665
24.64000 637.642
24.68000 631.611
24.72000 629.456
24.76000 633.616
24.80000 636.810
24.84000 622.063
24.88000 627.259
24.92000 609.864
24.96000 632.113
25.00000 628.903
25.04000 616.144
25.08000 582.664
25.12000 612.663
25.16000 603.252
25.20000 581.667
25.24000 610.204
25.28000 585.626
25.32000 596.548
25.36000 595.475
25.40000 618.422
25.44000 601.651
25.48000 605.605
25.52000 612.637
25.56000 609.783
25.60000 642.230
25.64000 604.019
25.68000 582.057
25.72000 587.367
25.76000 592.434
25.80000 593.185
25.84000 588.738
25.88000 595.080
25.92000 598.963
25.96000 586.485
26.00000 584.590
26.04000 579.730
26.08000 584.737
26.12000 578.953
26.16000 592.330
26.20000 575.955
26.24000 584.598
26.28000 562.373
26.32000 588.306
26.36000 574.351
26.40000 581.181
26.44000 563.636
26.48000 574.673
26.52000 549.189
26.56000 575.595
26.60000 554.526
26.64000 553.629
26.68000 547.827
26.72000 561.209
26.76000 572.241
26.80000 561.827
26.84000 569.008
26.88000 560.306
26.92000 574.602
26.96000 556.627
27.00000 547.210
27.04000 544.732
27.08000 557.918
27.12000 563.765
27.16000 541.093
27.20000 544.933
27.24000 528.705
27.28000 546.304
27.32000 528.812
27.36000 547.452
27.40000 562.421
27.44000 526.797
27.48000 559.003
27.52000 561.487
27.56000 528.247
27.60000 524.087
27.64000 547.519
27.68000 544.114
27.72000 515.551
27.76000 538.844
27.80000 532.512
27.84000 536.790
27.88000 550.075
27.92000 534.444
27.96000 536.413
28.00000 530.985
28.04000 520.129
28.08000 519.473
28.12000 521.986
28.16000 530.425
28.20000 525.305
28.24000 525.453
28.28000 524.657
28.32000 509.859
28.36000 510.504
28.40000 519.062
28.44000 513.837
28.48000 491.148
28.52000 513.142
28.56000 497.509
28.60000 519.677
28.64000 509.942
28.68000 511.535
28.72000 505.978
28.76000 495.981
28.80000 499.842
28.84000 499.010
28.88000 498.852
28.92000 514.314
28.96000 497.551
29.00000 499.342
29.04000 512.350
29.08000 490.490
29.12000 492.344
29.16000 506.055
29.20000 498.425
29.24000 495.897
29.28000 483.974
29.32000 493.946
29.36000 504.162
29.40000 493.273
29.44000 498.467
29.48000 475.596
29.52000 480.703
29.56000 504.553
29.60000 488.340
29.64000 491.171
29.68000 507.051
29.72000 496.993
29.76000 514.978
29.80000 498.896
29.84000 480.587
29.88000 491.104
29.92000 471.404
29.96000 474.400
30.00000 478.462
30.04000 463.455
30.08000 481.336
30.12000 490.337
30.16000 472.857
30.20000 465.407
30.24000 467.952
30.28000 483.841
30.32000 478.963
30.36000 471.396
30.40000 474.169
30.44000 476.137
30.48000 471.448
30.52000 466.371
30.56000 466.731
30.60000 458.178
30.64000 491.063
30.68000 460.907
30.72000 470.115
30.76000 460.941
30.80000 463.544
30.84000 460.663
30.88000 463.097
30.92000 469.251
30.96000 448.546
31.00000 458.270
31.04000 462.220
31.08000 454.942
31.12000 452.370
31.16000 442.572
31.20000 457.270
31.24000 454.723
31.28000 461.900
31.32000 447.444
31.36000 454.458
31.40000 456.525
31.44000 456.691
31.48000 432.544
31.52000 452.516
31.56000 454.240
31.60000 458.587
31.64000 449.999
31.68000 439.157
31.72000 442.825
31.76000 429.892
31.80000 444.493
31.84000 441.334
31.88000 427.574
31.92000 433.590
31.96000 452.206
32.00000 440.602
32.04000 420.340
32.08000 437.597
32.12000 451.816
32.16000 444.958
32.20000 428.003
32.24000 445.267
32.28000 459.084
32.32000 428.078
32.36000 430.659
32.40000 425.880
32.44000 434.395
32.48000 423.114
32.52000 411.145
32.56000 454.921
32.60000 428.533
32.64000 432.790
32.68000 423.389
32.72000 441.049
32.76000 416.282
32.80000 420.403
32.84000 418.365
32.88000 410.535
32.92000 412.750
32.96000 415.526
33.00000 432.035
33.04000 406.352
33.08000 431.006
33.12000 404.689
33.16000 406.529
33.20000 414.140
33.24000 405.276
33.28000 401.747
33.32000 417.386
33.36000 408.486
33.40000 430.095
33.44000 418.385
33.48000 410.057
33.52000 415.151
33.56000 423.378
33.60000 405.246
33.64000 425.183
33.68000 412.467
33.72000 407.366
33.76000 402.471
33.80000 416.005
33.84000 408.507
33.88000 394.360
33.92000 413.015
33.96000 405.763
34.00000 424.740
34.04000 402.223
34.08000 392.375
34.12000 403.493
34.16000 398.205
34.20000 418.397
34.24000 405.016
34.28000 389.885
34.32000 397.523
34.36000 409.296
34.40000 392.611
34.44000 402.732
34.48000 403.050
34.52000 382.880
34.56000 383.212
34.60000 402.574
34.64000 387.474
34.68000 396.474
34.72000 395.424
34.76000 396.917
34.80000 378.055
34.84000 378.024
34.88000 377.911
34.92000 384.678
34.96000 378.272
35.00000 411.574
35.04000 380.048
35.08000 401.833
35.12000 386.063
35.16000 382.068
35.20000 376.645
35.24000 355.455
35.28000 375.110
35.32000 383.841
35.36000 393.749
35.40000 376.285
35.44000 372.920
35.48000 376.198
35.52000 382.586
35.56000 368.093
35.60000 365.967
35.64000 389.308
35.68000 381.066
35.72000 354.945
35.76000 372.516
35.80000 387.764
35.84000 370.777
35.88000 383.475
35.92000 382.192
35.96000 384.387
36.00000 376.951
36.04000 367.772
36.08000 380.324
36.12000 371.454
36.16000 374.243
36.20000 371.799
36.24000 379.578
36.28000 385.420
36.32000 374.696
36.36000 363.175
36.40000 379.117
36.44000 363.343
36.48000 377.087
36.52000 374.662
36.56000 378.406
36.60000 360.723
36.64000 374.494
36.68000 381.185
36.72000 364.737
36.76000 372.068
36.80000 370.108
36.84000 363.050
36.88000 375.853
36.92000 361.559
36.96000 374.720
37.00000 346.151
37.04000 371.087
37.08000 378.465
37.12000 367.590
37.16000 365.310
37.20000 384.454
37.24000 373.492
37.28000 348.044
37.32000 362.948
37.36000 353.363
37.40000 369.607
37.44000 357.980
37.48000 357.139
37.52000 356.969
37.56000 355.997
37.60000 362.663
37.64000 363.830
37.68000 367.990
37.72000 367.813
37.76000 359.151
37.80000 349.591
37.84000 359.911
37.88000 356.081
37.92000 351.220
37.96000 361.030
38.00000 353.780
38.04000 356.892
38.08000 372.131
38.12000 343.117
38.16000 364.302
38.20000 366.978
38.24000 391.928
38.28000 378.747
38.32000 372.930
38.36000 385.728
38.40000 368.110
38.44000 372.896
38.48000 372.546
38.52000 371.879
38.56000 371.565
38.60000 365.324
38.64000 356.809
38.68000 375.149
38.72000 373.811
38.76000 358.829
38.80000 378.558
38.84000 369.181
38.88000 383.755
38.92000 378.638
38.96000 372.159
39.00000 382.943
39.04000 368.527
39.08000 363.575
39.12000 381.201
39.16000 376.478
39.20000 380.956
39.24000 382.857
39.28000 383.519
39.32000 381.756
39.36000 404.982
39.40000 386.717
39.44000 373.950
39.48000 404.371
39.52000 398.060
39.56000 404.851
39.60000 435.390
39.64000 455.599
39.68000 471.686
39.72000 497.243
39.76000 533.314
39.80000 533.589
39.84000 523.767
39.88000 526.657
39.92000 509.709
39.96000 445.044
40.00000 430.580
40.04000 435.408
40.08000 410.137
40.12000 399.704
40.16000 412.225
40.20000 409.413
40.24000 415.241
40.28000 423.196
40.32000 414.134
40.36000 427.732
40.40000 424.486
40.44000 422.842
40.48000 410.706
40.52000 429.019
40.56000 427.368
40.60000 452.815
40.64000 454.006
40.68000 438.145
40.72000 462.170
40.76000 473.251
40.80000 462.808
40.84000 469.332
40.88000 471.044
40.92000 483.236
40.96000 481.763
41.00000 501.252
41.04000 483.490
41.08000 509.937
41.12000 511.347
41.16000 510.707
41.20000 525.647
41.24000 512.524
41.28000 534.062
41.32000 548.086
41.36000 547.504
41.40000 566.263
41.44000 546.601
41.48000 586.463
41.52000 624.044
41.56000 635.492
41.60000 688.871
41.64000 783.814
41.68000 998.631
41.72000 1126.437
41.76000 1192.661
41.80000 1211.637
41.84000 1235.679
41.88000 1088.604
41.92000 982.974
41.96000 887.506
42.00000 872.256
42.04000 913.541
42.08000 979.837
42.12000 1067.397
42.16000 1179.587
42.20000 1346.571
42.24000 1543.567
42.28000 1752.448
42.32000 1808.986
42.36000 1859.251
42.40000 1755.393
42.44000 1608.545
42.48000 1493.165
42.52000 1417.799
42.56000 1379.825
42.60000 1435.642
42.64000 1486.555
42.68000 1532.277
42.72000 1588.171
42.76000 1633.927
42.80000 1647.380
42.84000 1683.172
42.88000 1798.286
42.92000 1896.290
42.96000 2079.660
43.00000 2119.073
43.04000 2272.845
43.08000 2422.360
43.12000 2610.865
43.16000 2794.199
43.20000 3009.361
43.24000 3210.012
43.28000 3497.372
43.32000 3762.724
43.36000 4013.453
43.40000 4389.291
43.44000 4696.501
43.48000 5112.899
43.52000 5455.107
43.56000 5865.194
43.60000 6395.606
43.64000 6932.924
43.68000 7529.448
43.72000 8259.202
43.76000 9123.390
43.80000 10082.152
43.84000 11252.057
43.88000 12609.653
43.92000 14288.290
43.96000 16783.783
44.00000 19794.480
44.04000 24475.885
44.08000 32370.314
44.12000 43760.738
44.16000 60541.051
44.20000 75416.219
44.24000 85833.430
44.28000 91135.094
44.32000 90162.094
44.36000 80594.320
44.40000 65494.563
44.44000 49309.926
44.48000 35299.496
44.52000 23435.244
44.56000 14556.301
44.60000 9045.981
44.64000 6514.886
44.68000 5136.727
44.72000 4505.603
44.76000 4056.737
44.80000 3767.847
44.84000 3494.100
44.88000 3140.217
44.92000 2787.406
44.96000 2575.568
45.00000 2451.873
45.04000 2346.448
45.08000 2309.281
45.12000 2294.209
45.16000 2211.118
45.20000 2182.488
45.24000 2207.280
45.28000 2141.243
45.32000 2127.926
45.36000 2139.117
45.40000 2130.610
45.44000 2160.777
45.48000 2159.737
45.52000 2174.761
45.56000 2216.892
45.60000 2207.447
45.64000 2241.770
45.68000 2285.625
45.72000 2299.918
45.76000 2336.822
45.80000 2411.045
45.84000 2499.412
45.88000 2612.427
45.92000 2738.259
45.96000 2825.552
46.00000 3033.428
46.04000 3298.656
46.08000 3750.577
46.12000 4602.412
46.16000 5872.014
46.20000 7267.068
46.24000 10195.693
46.28000 19760.326
46.32000 64396.059
46.36000 150667.563
46.40000 225845.578
46.44000 267957.063
46.48000 301817.625
46.52000 319529.094
46.56000 283694.469
46.60000 201099.641
46.64000 139682.359
46.68000 95203.648
46.72000 51015.191
46.76000 21626.066
46.80000 8526.830
46.84000 5588.731
46.88000 4471.598
46.92000 3778.154
46.96000 3331.940
47.00000 3028.531
47.04000 2773.556
47.08000 2583.446
47.12000 2455.155
47.16000 2241.172
47.20000 2108.710
47.24000 1978.815
47.28000 1933.436
47.32000 1778.394
47.36000 1709.739
47.40000 1571.206
47.44000 1541.564
47.48000 1417.565
47.52000 1355.378
47.56000 1300.084
47.60000 1246.602
47.64000 1166.509
47.68000 1115.846
47.72000 1090.895
47.76000 1026.751
47.80000 988.519
47.84000 957.543
47.88000 911.566
47.92000 855.214
47.96000 852.232
48.00000 803.211
48.04000 762.655
48.08000 747.341
48.12000 730.054
48.16000 699.237
48.20000 669.770
48.24000 655.469
48.28000 636.865
48.32000 627.063
48.36000 584.905
48.40000 584.943
48.44000 584.759
48.48000 533.294
48.52000 519.405
48.56000 545.911
48.60000 502.587
48.64000 495.881
48.68000 482.833
48.72000 493.928
48.76000 475.911
48.80000 466.911
48.84000 464.465
48.88000 469.370
48.92000 445.447
48.96000 428.710
49.00000 429.059
49.04000 426.868
49.08000 404.962
49.12000 416.492
49.16000 402.272
49.20000 398.512
49.24000 387.683
49.28000 376.685
49.32000 379.901
49.36000 376.972
49.40000 366.357
49.44000 369.439
49.48000 369.286
49.52000 367.928
49.56000 343.316
49.60000 346.109
49.64000 355.337
49.68000 352.503
49.72000 340.658
49.76000 332.073
49.80000 328.303
49.84000 333.565
49.88000 330.406
49.92000 330.432
49.96000 311.119
50.00000 317.255
50.04000 320.564
50.08000 303.664
50.12000 306.482
50.16000 314.857
50.20000 296.876
50.24000 297.770
50.28000 298.584
50.32000 288.093
50.36000 300.478
50.40000 299.914
50.44000 283.859
50.48000 281.494
50.52000 281.411
50.56000 286.919
50.60000 281.561
50.64000 279.077
50.68000 268.995
50.72000 273.994
50.76000 285.742
50.80000 281.847
50.84000 295.466
50.88000 288.795
50.92000 300.458
50.96000 273.687
51.00000 271.055
51.04000 273.372
51.08000 276.516
51.12000 261.168
51.16000 263.050
51.20000 270.115
51.24000 262.652
51.28000 242.293
51.32000 248.239
51.36000 263.031
51.40000 242.550
51.44000 246.520
51.48000 254.842
51.52000 260.696
51.56000 251.212
51.60000 239.006
51.64000 235.047
51.68000 257.922
51.72000 241.631
51.76000 230.721
51.80000 231.635
51.84000 227.883
51.88000 229.276
51.92000 234.093
51.96000 224.653
52.00000 236.572
52.04000 227.711
52.08000 236.797
52.12000 220.725
52.16000 211.932
52.20000 231.241
52.24000 240.460
52.28000 237.399
52.32000 228.842
52.36000 221.371
52.40000 230.594
52.44000 219.012
52.48000 222.728
52.52000 216.266
52.56000 221.474
52.60000 225.933
52.64000 229.547
52.68000 214.904
52.72000 210.866
52.76000 219.435
52.80000 224.992
52.84000 223.897
52.88000 219.733
52.92000 206.680
52.96000 205.383
53.00000 211.171
53.04000 203.821
53.08000 215.456
53.12000 209.978
53.16000 221.171
53.20000 212.044
53.24000 211.914
53.28000 207.501
53.32000 211.854
53.36000 225.609
53.40000 217.189
53.44000 212.272
53.48000 207.229
53.52000 200.036
53.56000 209.112
53.60000 199.928
53.64000 196.310
53.68000 205.136
53.72000 198.929
53.76000 198.340
53.80000 191.901
53.84000 207.616
53.88000 192.125
53.92000 196.160
53.96000 199.700
54.00000 194.517
54.04000 212.327
54.08000 209.295
54.12000 200.919
54.16000 211.047
54.20000 196.362
54.24000 184.548
54.28000 203.378
54.32000 182.058
54.36000 193.918
54.40000 185.824
54.44000 181.227
54.48000 194.754
54.52000 187.115
54.56000 178.714
54.60000 202.434
54.64000 196.890
54.68000 191.286
54.72000 189.029
54.76000 186.543
54.80000 186.017
54.84000 192.337
54.88000 189.705
54.92000 188.335
54.96000 185.361
55.00000 198.090
55.04000 189.181
55.08000 181.277
55.12000 181.673
55.16000 182.587
55.20000 202.017
55.24000 183.746
55.28000 189.851
55.32000 195.563
55.36000 179.256
55.40000 187.697
55.44000 194.156
55.48000 189.081
55.52000 182.942
55.56000 180.721
55.60000 182.776
55.64000 177.371
55.68000 176.600
55.72000 171.522
55.76000 177.383
55.80000 183.290
55.84000 190.301
55.88000 174.812
55.92000 162.448
55.96000 183.523
56.00000 183.171
56.04000 184.792
56.08000 167.253
56.12000 179.531
56.16000 182.513
56.20000 171.850
56.24000 177.019
56.28000 178.322
56.32000 173.691
56.36000 177.826
56.40000 181.943
56.44000 178.836
56.48000 173.848
56.52000 163.721
56.56000 177.600
56.60000 172.670
56.64000 188.015
56.68000 176.911
56.72000 176.473
56.76000 174.043
56.80000 170.188
56.84000 167.119
56.88000 170.469
56.92000 155.601
56.96000 166.729
57.00000 174.657
57.04000 170.719
57.08000 173.377
57.12000 168.211
57.16000 161.928
57.20000 163.867
57.24000 170.582
57.28000 166.964
57.32000 169.209
57.36000 172.194
57.40000 168.614
57.44000 163.680
57.48000 157.914
57.52000 165.367
57.56000 175.213
57.60000 170.103
57.64000 171.629
57.68000 162.844
57.72000 159.808
57.76000 155.773
57.80000 178.720
57.84000 171.954
57.88000 158.349
57.92000 165.622
57.96000 168.680
58.00000 171.011
58.04000 170.850
58.08000 167.077
58.12000 159.594
58.16000 159.622
58.20000 176.203
58.24000 154.600
58.28000 156.970
58.32000 162.295
58.36000 160.891
58.40000 149.655
58.44000 163.011
58.48000 147.994
58.52000 170.260
58.56000 153.221
58.60000 146.115
58.64000 162.852
58.68000 155.602
58.72000 141.611
58.76000 159.165
58.80000 169.950
58.84000 156.889
58.88000 160.759
58.92000 158.012
58.96000 155.067
59.00000 154.831
59.04000 175.824
59.08000 159.072
59.12000 163.887
59.16000 154.831
59.20000 157.711
59.24000 154.148
59.28000 158.168
59.32000 162.861
59.36000 163.337
59.40000 152.134
59.44000 150.448
59.48000 160.360
59.52000 156.445
59.56000 153.440
59.60000 149.528
59.64000 158.230
59.68000 155.686
59.72000 149.189
59.76000 149.917
59.80000 156.794
59.84000 153.338
59.88000 154.125
59.92000 158.626
59.96000 158.576
60.00000 156.651
60.04000 152.040
60.08000 154.302
60.12000 143.146
60.16000 144.490
60.20000 146.964
60.24000 147.291
60.28000 162.991
60.32000 157.251
60.36000 156.821
60.40000 151.576
60.44000 153.242
60.48000 142.596
60.52000 149.730
60.56000 142.995
60.60000 148.615
60.64000 148.493
60.68000 148.725
60.72000 144.782
60.76000 146.531
60.80000 149.197
60.84000 152.538
60.88000 144.516
60.92000 153.480
60.96000 160.115
61.00000 162.450
61.04000 154.687
61.08000 145.794
61.12000 146.197
61.16000 154.687
61.20000 153.933
61.24000 145.320
61.28000 152.175
61.32000 146.709
61.36000 151.704
61.40000 152.105
61.44000 158.775
61.48000 153.213
61.52000 139.699
61.56000 144.048
61.60000 150.690
61.64000 151.578
61.68000 145.922
61.72000 153.823
61.76000 148.231
61.80000 132.698
61.84000 142.292
61.88000 141.139
61.92000 151.879
61.96000 147.385
62.00000 146.931
62.04000 146.549
62.08000 148.565
62.12000 147.350
62.16000 138.693
62.20000 151.766
62.24000 141.695
62.28000 146.173
62.32000 138.238
62.36000 140.032
62.40000 147.332
62.44000 135.190
62.48000 138.367
62.52000 140.243
62.56000 149.611
62.60000 145.820
62.64000 150.554
62.68000 150.822
62.72000 145.526
62.76000 140.036
62.80000 147.883
62.84000 149.347
62.88000 147.018
62.92000 143.089
62.96000 144.366
63.00000 140.033
63.04000 152.227
63.08000 146.805
63.12000 141.978
63.16000 150.043
63.20000 144.254
63.24000 144.144
63.28000 146.000
63.32000 130.462
63.36000 138.626
63.40000 142.223
63.44000 141.377
63.48000 144.850
63.52000 140.465
63.56000 147.817
63.60000 142.143
63.64000 132.293
63.68000 144.818
63.72000 144.479
63.76000 148.154
63.80000 141.099
63.84000 136.344
63.88000 135.056
63.92000 144.683
63.96000 139.319
64.00000 134.736
64.04000 137.861
64.08000 143.578
64.12000 145.544
64.16000 148.157
64.20000 138.596
64.24000 143.616
64.28000 141.976
64.32000 136.539
64.36000 147.942
64.40000 145.563
64.44000 149.647
64.48000 148.738
64.52000 139.539
64.56000 154.137
64.60000 167.448
64.64000 163.023
64.68000 164.261
64.72000 158.859
64.76000 157.383
64.80000 145.174
64.84000 145.239
64.88000 151.467
64.92000 146.453
64.96000 149.117
65.00000 149.809
65.04000 150.449
65.08000 140.288
65.12000 143.333
65.16000 135.485
65.20000 135.210
65.24000 152.357
65.28000 153.824
65.32000 143.112
65.36000 161.933
65.40000 160.980
65.44000 158.416
65.48000 147.803
65.52000 168.475
65.56000 148.381
65.60000 153.785
65.64000 163.606
65.68000 161.469
65.72000 148.897
65.76000 160.166
65.80000 145.429
65.84000 158.824
65.88000 155.508
65.92000 150.517
65.96000 145.622
66.00000 150.082
66.04000 155.417
66.08000 144.557
66.12000 155.655
66.16000 156.785
66.20000 154.959
66.24000 157.589
66.28000 163.494
66.32000 153.282
66.36000 160.096
66.40000 154.104
66.44000 167.190
66.48000 153.372
66.52000 150.167
66.56000 155.809
66.60000 163.733
66.64000 163.729
66.68000 151.556
66.72000 164.503
66.76000 168.609
66.80000 171.890
66.84000 164.044
66.88000 162.526
66.92000 168.121
66.96000 181.851
67.00000 175.846
67.04000 181.024
67.08000 180.698
67.12000 170.815
67.16000 183.490
67.20000 192.693
67.24000 186.046
67.28000 191.029
67.32000 191.197
67.36000 191.373
67.40000 185.744
67.44000 198.584
67.48000 196.427
67.52000 205.713
67.56000 203.329
67.60000 214.725
67.64000 219.001
67.68000 226.021
67.72000 230.259
67.76000 224.689
67.80000 241.630
67.84000 252.266
67.88000 243.753
67.92000 265.205
67.96000 263.484
68.00000 268.933
68.04000 268.958
68.08000 280.125
68.12000 290.838
68.16000 312.369
68.20000 333.440
68.24000 333.427
68.28000 352.655
68.32000 374.864
68.36000 389.637
68.40000 410.706
68.44000 456.188
68.48000 509.834
68.52000 568.052
68.56000 639.937
68.60000 740.291
68.64000 863.982
68.68000 1049.408
68.72000 1235.852
68.76000 1393.118
68.80000 1520.345
68.84000 1563.513
68.88000 1553.346
68.92000 1473.708
68.96000 1362.559
69.00000 1195.171
69.04000 1096.661
69.08000 915.831
69.12000 800.466
69.16000 613.616
69.20000 529.643
69.24000 394.453
69.28000 324.406
69.32000 281.449
69.36000 246.289
69.40000 240.015
69.44000 221.651
69.48000 202.065
69.52000 220.992
69.56000 211.897
69.60000 221.684
69.64000 215.263
69.68000 215.221
69.72000 204.012
69.76000 206.407
69.80000 205.186
69.84000 189.467
69.88000 183.570
69.92000 183.798
69.96000 184.244
70.00000 175.160