File: XRD/17-11-2025 Crystal Plates/XY Data/Deposition_10-2.xy
20.00000 727.577
20.04000 703.257
20.08000 713.235
20.12000 715.944
20.16000 708.975
20.20000 686.454
20.24000 722.527
20.28000 724.528
20.32000 704.972
20.36000 744.532
20.40000 749.887
20.44000 754.968
20.48000 801.833
20.52000 793.950
20.56000 828.949
20.60000 837.642
20.64000 814.080
20.68000 782.098
20.72000 812.357
20.76000 840.173
20.80000 902.196
20.84000 1022.316
20.88000 1145.423
20.92000 1259.073
20.96000 1323.461
21.00000 1341.770
21.04000 1375.269
21.08000 1313.448
21.12000 1243.470
21.16000 1283.487
21.20000 1268.603
21.24000 1317.369
21.28000 1388.912
21.32000 1483.257
21.36000 1583.638
21.40000 1734.717
21.44000 1963.556
21.48000 2207.738
21.52000 2540.876
21.56000 3089.359
21.60000 3911.480
21.64000 5356.709
21.68000 8141.728
21.72000 13589.880
21.76000 23335.740
21.80000 35029.551
21.84000 44044.133
21.88000 47221.707
21.92000 44826.816
21.96000 38632.012
22.00000 27669.713
22.04000 16245.038
22.08000 8149.783
22.12000 4283.883
22.16000 2774.758
22.20000 2200.457
22.24000 1868.074
22.28000 1613.103
22.32000 1558.583
22.36000 1474.069
22.40000 1423.616
22.44000 1388.023
22.48000 1430.392
22.52000 1566.868
22.56000 2206.489
22.60000 5517.369
22.64000 16172.758
22.68000 30074.740
22.72000 41684.301
22.76000 46301.387
22.80000 45294.516
22.84000 40173.371
22.88000 28981.061
22.92000 15766.668
22.96000 6323.646
23.00000 2245.623
23.04000 1301.900
23.08000 1105.198
23.12000 1032.583
23.16000 957.333
23.20000 913.226
23.24000 882.805
23.28000 817.554
23.32000 794.850
23.36000 760.556
23.40000 758.895
23.44000 739.725
23.48000 756.087
23.52000 748.575
23.56000 708.233
23.60000 694.654
23.64000 680.390
23.68000 683.307
23.72000 681.985
23.76000 658.300
23.80000 650.613
23.84000 686.519
23.88000 661.946
23.92000 679.042
23.96000 658.254
24.00000 644.626
24.04000 645.422
24.08000 641.458
24.12000 645.472
24.16000 622.734
24.20000 636.769
24.24000 636.366
24.28000 623.861
24.32000 611.720
24.36000 611.742
24.40000 601.105
24.44000 610.482
24.48000 609.120
24.52000 616.649
24.56000 598.426
24.60000 605.228
24.64000 614.182
24.68000 599.711
24.72000 596.256
24.76000 606.591
24.80000 591.250
24.84000 595.481
24.88000 604.873
24.92000 603.134
24.96000 593.742
25.00000 590.070
25.04000 581.920
25.08000 583.538
25.12000 593.431
25.16000 568.054
25.20000 581.226
25.24000 566.820
25.28000 570.558
25.32000 569.844
25.36000 571.948
25.40000 576.351
25.44000 570.023
25.48000 580.295
25.52000 557.706
25.56000 565.577
25.60000 554.429
25.64000 580.436
25.68000 578.921
25.72000 564.695
25.76000 560.819
25.80000 582.280
25.84000 568.525
25.88000 570.596
25.92000 583.422
25.96000 569.671
26.00000 565.458
26.04000 565.248
26.08000 565.172
26.12000 538.494
26.16000 561.196
26.20000 556.953
26.24000 557.999
26.28000 571.710
26.32000 544.156
26.36000 542.430
26.40000 539.675
26.44000 535.564
26.48000 554.962
26.52000 566.970
26.56000 558.695
26.60000 548.199
26.64000 550.809
26.68000 541.329
26.72000 568.467
26.76000 552.014
26.80000 547.039
26.84000 540.699
26.88000 540.388
26.92000 544.802
26.96000 527.810
27.00000 520.574
27.04000 538.471
27.08000 532.139
27.12000 515.350
27.16000 515.307
27.20000 519.643
27.24000 533.841
27.28000 537.706
27.32000 542.059
27.36000 506.069
27.40000 550.493
27.44000 519.747
27.48000 521.806
27.52000 512.154
27.56000 505.248
27.60000 529.798
27.64000 517.102
27.68000 512.855
27.72000 532.891
27.76000 504.231
27.80000 518.371
27.84000 528.672
27.88000 521.503
27.92000 517.039
27.96000 494.003
28.00000 518.967
28.04000 518.045
28.08000 538.547
28.12000 507.196
28.16000 535.283
28.20000 514.045
28.24000 505.575
28.28000 515.782
28.32000 502.545
28.36000 510.191
28.40000 507.694
28.44000 508.860
28.48000 503.182
28.52000 494.096
28.56000 504.590
28.60000 502.857
28.64000 503.910
28.68000 505.463
28.72000 499.295
28.76000 504.857
28.80000 482.924
28.84000 475.661
28.88000 483.159
28.92000 477.252
28.96000 493.007
29.00000 505.754
29.04000 478.648
29.08000 477.717
29.12000 505.464
29.16000 487.919
29.20000 475.856
29.24000 482.376
29.28000 484.757
29.32000 470.622
29.36000 477.716
29.40000 458.967
29.44000 486.682
29.48000 485.576
29.52000 476.029
29.56000 486.096
29.60000 467.043
29.64000 458.343
29.68000 483.447
29.72000 473.011
29.76000 470.877
29.80000 476.749
29.84000 477.621
29.88000 474.619
29.92000 486.125
29.96000 471.688
30.00000 451.978
30.04000 460.673
30.08000 485.260
30.12000 471.133
30.16000 463.875
30.20000 473.892
30.24000 478.950
30.28000 483.431
30.32000 454.809
30.36000 470.051
30.40000 469.717
30.44000 470.185
30.48000 438.267
30.52000 447.612
30.56000 446.701
30.60000 470.079
30.64000 458.329
30.68000 450.803
30.72000 448.302
30.76000 429.406
30.80000 459.486
30.84000 459.193
30.88000 441.665
30.92000 442.937
30.96000 431.889
31.00000 442.257
31.04000 459.228
31.08000 461.092
31.12000 446.651
31.16000 431.507
31.20000 448.568
31.24000 444.058
31.28000 454.921
31.32000 437.971
31.36000 453.575
31.40000 448.964
31.44000 432.732
31.48000 438.551
31.52000 433.427
31.56000 439.860
31.60000 417.530
31.64000 433.395
31.68000 453.140
31.72000 440.101
31.76000 441.624
31.80000 439.410
31.84000 427.042
31.88000 439.097
31.92000 418.781
31.96000 427.422
32.00000 439.090
32.04000 435.839
32.08000 429.667
32.12000 415.406
32.16000 434.929
32.20000 421.789
32.24000 413.249
32.28000 432.964
32.32000 428.524
32.36000 426.275
32.40000 410.332
32.44000 410.973
32.48000 418.331
32.52000 423.480
32.56000 404.491
32.60000 412.540
32.64000 428.432
32.68000 410.744
32.72000 433.747
32.76000 426.781
32.80000 408.760
32.84000 421.933
32.88000 406.604
32.92000 407.634
32.96000 416.250
33.00000 403.458
33.04000 424.993
33.08000 417.511
33.12000 419.511
33.16000 407.158
33.20000 414.011
33.24000 408.692
33.28000 393.605
33.32000 398.760
33.36000 399.864
33.40000 401.401
33.44000 409.525
33.48000 391.854
33.52000 407.429
33.56000 394.337
33.60000 381.820
33.64000 403.068
33.68000 396.007
33.72000 374.882
33.76000 406.827
33.80000 396.020
33.84000 403.459
33.88000 375.192
33.92000 387.376
33.96000 391.331
34.00000 398.567
34.04000 399.263
34.08000 405.363
34.12000 383.225
34.16000 382.131
34.20000 396.307
34.24000 407.964
34.28000 397.817
34.32000 382.441
34.36000 391.549
34.40000 407.692
34.44000 397.229
34.48000 401.987
34.52000 403.267
34.56000 392.588
34.60000 392.192
34.64000 381.130
34.68000 386.467
34.72000 372.172
34.76000 375.618
34.80000 376.470
34.84000 379.952
34.88000 388.888
34.92000 380.265
34.96000 390.557
35.00000 378.347
35.04000 373.489
35.08000 384.173
35.12000 392.493
35.16000 368.001
35.20000 354.654
35.24000 369.415
35.28000 368.552
35.32000 387.109
35.36000 386.801
35.40000 375.945
35.44000 378.487
35.48000 390.089
35.52000 381.549
35.56000 352.288
35.60000 377.376
35.64000 386.545
35.68000 372.338
35.72000 371.417
35.76000 385.156
35.80000 374.405
35.84000 374.142
35.88000 377.412
35.92000 383.857
35.96000 379.426
36.00000 366.020
36.04000 368.364
36.08000 371.606
36.12000 356.193
36.16000 364.807
36.20000 375.387
36.24000 363.683
36.28000 377.492
36.32000 366.160
36.36000 352.837
36.40000 361.741
36.44000 361.101
36.48000 361.992
36.52000 358.898
36.56000 345.938
36.60000 368.051
36.64000 348.934
36.68000 363.075
36.72000 361.535
36.76000 353.481
36.80000 354.629
36.84000 360.277
36.88000 353.613
36.92000 358.239
36.96000 365.198
37.00000 351.557
37.04000 354.380
37.08000 359.701
37.12000 358.462
37.16000 355.623
37.20000 362.204
37.24000 360.016
37.28000 362.536
37.32000 360.963
37.36000 366.882
37.40000 350.206
37.44000 343.753
37.48000 331.116
37.52000 339.076
37.56000 349.176
37.60000 360.543
37.64000 354.386
37.68000 352.326
37.72000 345.261
37.76000 348.942
37.80000 354.194
37.84000 341.418
37.88000 349.941
37.92000 350.301
37.96000 342.019
38.00000 348.638
38.04000 344.686
38.08000 336.864
38.12000 342.802
38.16000 337.092
38.20000 329.194
38.24000 351.229
38.28000 359.742
38.32000 347.852
38.36000 360.597
38.40000 344.359
38.44000 346.642
38.48000 354.962
38.52000 326.597
38.56000 329.612
38.60000 317.109
38.64000 342.199
38.68000 345.862
38.72000 328.143
38.76000 338.709
38.80000 341.693
38.84000 329.985
38.88000 350.556
38.92000 348.219
38.96000 341.570
39.00000 353.869
39.04000 346.131
39.08000 341.010
39.12000 334.657
39.16000 356.824
39.20000 348.094
39.24000 336.068
39.28000 354.768
39.32000 335.958
39.36000 326.784
39.40000 343.083
39.44000 357.179
39.48000 344.110
39.52000 346.070
39.56000 350.098
39.60000 346.453
39.64000 345.641
39.68000 354.437
39.72000 336.539
39.76000 347.101
39.80000 362.978
39.84000 364.902
39.88000 370.439
39.92000 380.966
39.96000 410.666
40.00000 424.181
40.04000 427.121
40.08000 449.053
40.12000 447.625
40.16000 454.710
40.20000 427.833
40.24000 402.190
40.28000 380.215
40.32000 373.290
40.36000 361.973
40.40000 349.033
40.44000 353.413
40.48000 341.467
40.52000 335.633
40.56000 362.139
40.60000 355.044
40.64000 353.863
40.68000 345.003
40.72000 345.681
40.76000 355.968
40.80000 351.303
40.84000 356.092
40.88000 368.213
40.92000 370.111
40.96000 366.151
41.00000 371.430
41.04000 374.681
41.08000 379.345
41.12000 380.078
41.16000 368.419
41.20000 372.335
41.24000 382.883
41.28000 373.798
41.32000 382.238
41.36000 390.292
41.40000 396.806
41.44000 398.842
41.48000 403.948
41.52000 408.282
41.56000 442.786
41.60000 474.286
41.64000 579.599
41.68000 795.522
41.72000 964.805
41.76000 1027.458
41.80000 1054.887
41.84000 1086.416
41.88000 915.587
41.92000 663.476
41.96000 526.634
42.00000 500.638
42.04000 502.154
42.08000 504.579
42.12000 505.381
42.16000 523.655
42.20000 512.213
42.24000 535.476
42.28000 577.420
42.32000 594.618
42.36000 630.107
42.40000 691.537
42.44000 746.427
42.48000 858.461
42.52000 954.740
42.56000 1091.234
42.60000 1218.716
42.64000 1303.637
42.68000 1297.679
42.72000 1283.092
42.76000 1201.148
42.80000 1102.156
42.84000 1014.965
42.88000 1013.087
42.92000 1066.021
42.96000 1105.268
43.00000 1093.443
43.04000 1133.096
43.08000 1118.827
43.12000 1116.747
43.16000 1095.291
43.20000 1152.256
43.24000 1141.576
43.28000 1213.555
43.32000 1270.476
43.36000 1328.642
43.40000 1370.961
43.44000 1444.311
43.48000 1523.068
43.52000 1567.248
43.56000 1677.740
43.60000 1763.608
43.64000 1861.782
43.68000 1996.955
43.72000 2094.309
43.76000 2223.979
43.80000 2386.827
43.84000 2610.321
43.88000 2809.016
43.92000 3061.631
43.96000 3383.788
44.00000 3714.202
44.04000 4211.318
44.08000 4760.118
44.12000 5505.758
44.16000 6424.798
44.20000 7555.343
44.24000 9399.790
44.28000 11894.794
44.32000 15482.615
44.36000 20140.957
44.40000 26118.156
44.44000 34336.750
44.48000 45245.316
44.52000 55787.699
44.56000 62897.176
44.60000 66068.023
44.64000 66147.758
44.68000 60282.125
44.72000 50168.707
44.76000 38666.563
44.80000 28324.332
44.84000 19500.176
44.88000 12958.854
44.92000 8488.880
44.96000 6026.643
45.00000 4622.041
45.04000 3780.584
45.08000 3263.753
45.12000 2930.627
45.16000 2722.794
45.20000 2568.181
45.24000 2435.421
45.28000 2293.240
45.32000 2273.694
45.36000 2213.296
45.40000 2200.750
45.44000 2203.858
45.48000 2138.861
45.52000 2191.999
45.56000 2277.344
45.60000 2259.796
45.64000 2292.115
45.68000 2289.207
45.72000 2347.374
45.76000 2423.434
45.80000 2482.948
45.84000 2540.041
45.88000 2645.089
45.92000 2792.248
45.96000 2979.645
46.00000 3188.093
46.04000 3415.816
46.08000 3968.232
46.12000 4956.237
46.16000 6253.448
46.20000 7822.234
46.24000 10867.787
46.28000 19406.604
46.32000 65134.211
46.36000 159562.375
46.40000 251561.141
46.44000 310095.094
46.48000 351269.375
46.52000 374137.313
46.56000 351413.813
46.60000 255282.250
46.64000 169944.156
46.68000 121939.023
46.72000 69074.180
46.76000 27210.965
46.80000 10239.896
46.84000 6422.604
46.88000 5080.782
46.92000 4258.404
46.96000 3766.598
47.00000 3356.542
47.04000 3034.584
47.08000 2777.951
47.12000 2639.380
47.16000 2426.660
47.20000 2251.315
47.24000 2143.841
47.28000 2013.024
47.32000 1880.049
47.36000 1727.795
47.40000 1694.535
47.44000 1624.543
47.48000 1503.930
47.52000 1415.289
47.56000 1385.625
47.60000 1305.734
47.64000 1228.581
47.68000 1151.046
47.72000 1066.434
47.76000 1021.622
47.80000 1002.926
47.84000 938.375
47.88000 903.400
47.92000 866.283
47.96000 834.684
48.00000 779.824
48.04000 741.356
48.08000 741.843
48.12000 703.121
48.16000 688.985
48.20000 651.708
48.24000 613.949
48.28000 631.148
48.32000 604.730
48.36000 586.206
48.40000 552.067
48.44000 544.362
48.48000 534.052
48.52000 512.715
48.56000 490.692
48.60000 507.910
48.64000 495.881
48.68000 496.477
48.72000 467.006
48.76000 459.367
48.80000 442.156
48.84000 431.319
48.88000 445.982
48.92000 433.024
48.96000 418.672
49.00000 416.360
49.04000 412.643
49.08000 415.473
49.12000 390.884
49.16000 397.495
49.20000 369.054
49.24000 382.873
49.28000 386.497
49.32000 382.316
49.36000 373.377
49.40000 353.722
49.44000 353.892
49.48000 370.227
49.52000 364.291
49.56000 349.809
49.60000 345.716
49.64000 335.374
49.68000 339.988
49.72000 335.646
49.76000 321.456
49.80000 316.459
49.84000 305.425
49.88000 307.409
49.92000 309.541
49.96000 308.457
50.00000 314.167
50.04000 292.362
50.08000 305.754
50.12000 314.488
50.16000 284.888
50.20000 298.766
50.24000 298.482
50.28000 299.088
50.32000 293.662
50.36000 298.910
50.40000 298.455
50.44000 276.009
50.48000 280.991
50.52000 268.462
50.56000 282.911
50.60000 269.064
50.64000 281.554
50.68000 286.731
50.72000 290.481
50.76000 288.098
50.80000 283.790
50.84000 283.905
50.88000 288.747
50.92000 298.250
50.96000 280.750
51.00000 289.383
51.04000 275.512
51.08000 262.046
51.12000 265.616
51.16000 249.646
51.20000 254.203
51.24000 251.330
51.28000 256.099
51.32000 250.807
51.36000 261.077
51.40000 252.143
51.44000 253.911
51.48000 252.801
51.52000 234.769
51.56000 224.014
51.60000 237.403
51.64000 248.349
51.68000 245.150
51.72000 247.644
51.76000 234.105
51.80000 250.843
51.84000 238.098
51.88000 215.969
51.92000 236.957
51.96000 240.568
52.00000 233.703
52.04000 229.013
52.08000 231.786
52.12000 220.420
52.16000 221.140
52.20000 225.537
52.24000 218.669
52.28000 214.533
52.32000 207.134
52.36000 215.337
52.40000 216.066
52.44000 215.206
52.48000 217.924
52.52000 213.574
52.56000 216.136
52.60000 239.342
52.64000 214.369
52.68000 209.944
52.72000 205.091
52.76000 208.928
52.80000 213.164
52.84000 209.910
52.88000 205.506
52.92000 209.369
52.96000 199.177
53.00000 192.544
53.04000 204.083
53.08000 200.256
53.12000 214.430
53.16000 208.228
53.20000 206.025
53.24000 212.697
53.28000 210.558
53.32000 194.975
53.36000 201.010
53.40000 209.789
53.44000 207.862
53.48000 202.842
53.52000 207.985
53.56000 200.559
53.60000 198.780
53.64000 196.247
53.68000 205.340
53.72000 201.324
53.76000 194.950
53.80000 206.505
53.84000 196.032
53.88000 196.573
53.92000 205.178
53.96000 202.535
54.00000 189.693
54.04000 191.195
54.08000 196.540
54.12000 186.734
54.16000 191.926
54.20000 196.779
54.24000 184.868
54.28000 191.129
54.32000 194.364
54.36000 192.270
54.40000 186.130
54.44000 182.324
54.48000 188.704
54.52000 190.926
54.56000 199.323
54.60000 189.810
54.64000 184.608
54.68000 195.183
54.72000 177.493
54.76000 175.000
54.80000 176.448
54.84000 173.877
54.88000 193.023
54.92000 175.760
54.96000 181.129
55.00000 194.382
55.04000 197.103
55.08000 187.714
55.12000 187.744
55.16000 193.523
55.20000 188.601
55.24000 179.521
55.28000 187.421
55.32000 178.195
55.36000 179.107
55.40000 185.156
55.44000 178.464
55.48000 177.091
55.52000 178.639
55.56000 181.348
55.60000 180.267
55.64000 188.918
55.68000 177.130
55.72000 183.630
55.76000 179.093
55.80000 172.029
55.84000 183.267
55.88000 176.521
55.92000 177.286
55.96000 184.204
56.00000 182.849
56.04000 177.976
56.08000 176.988
56.12000 170.070
56.16000 178.400
56.20000 175.113
56.24000 170.091
56.28000 184.478
56.32000 172.694
56.36000 172.006
56.40000 170.291
56.44000 163.828
56.48000 174.206
56.52000 180.943
56.56000 175.207
56.60000 170.900
56.64000 163.438
56.68000 173.078
56.72000 167.670
56.76000 171.357
56.80000 169.997
56.84000 164.155
56.88000 168.029
56.92000 171.436
56.96000 158.435
57.00000 167.516
57.04000 160.772
57.08000 158.657
57.12000 163.732
57.16000 167.470
57.20000 165.195
57.24000 159.497
57.28000 172.232
57.32000 171.818
57.36000 167.646
57.40000 163.251
57.44000 169.056
57.48000 172.804
57.52000 165.348
57.56000 160.271
57.60000 160.481
57.64000 175.512
57.68000 171.584
57.72000 160.389
57.76000 153.353
57.80000 162.960
57.84000 165.821
57.88000 176.231
57.92000 165.628
57.96000 168.726
58.00000 156.607
58.04000 164.714
58.08000 156.908
58.12000 156.599
58.16000 162.683
58.20000 158.068
58.24000 162.303
58.28000 149.959
58.32000 158.923
58.36000 159.846
58.40000 146.759
58.44000 150.812
58.48000 156.745
58.52000 166.465
58.56000 164.289
58.60000 168.654
58.64000 161.466
58.68000 158.662
58.72000 154.953
58.76000 161.404
58.80000 159.463
58.84000 164.466
58.88000 159.614
58.92000 146.199
58.96000 157.679
59.00000 149.404
59.04000 147.566
59.08000 155.089
59.12000 160.388
59.16000 149.158
59.20000 147.103
59.24000 153.276
59.28000 157.187
59.32000 166.458
59.36000 149.566
59.40000 161.372
59.44000 150.948
59.48000 151.593
59.52000 144.848
59.56000 164.172
59.60000 155.442
59.64000 162.202
59.68000 157.899
59.72000 153.637
59.76000 143.417
59.80000 154.349
59.84000 152.146
59.88000 151.224
59.92000 150.192
59.96000 144.511
60.00000 150.841
60.04000 162.206
60.08000 154.647
60.12000 145.073
60.16000 144.037
60.20000 153.365
60.24000 159.277
60.28000 149.111
60.32000 146.091
60.36000 148.976
60.40000 159.041
60.44000 160.184
60.48000 136.374
60.52000 152.678
60.56000 150.801
60.60000 157.219
60.64000 152.783
60.68000 152.225
60.72000 148.403
60.76000 142.180
60.80000 138.360
60.84000 146.567
60.88000 147.891
60.92000 146.677
60.96000 139.501
61.00000 154.092
61.04000 150.532
61.08000 137.864
61.12000 143.408
61.16000 145.256
61.20000 140.410
61.24000 141.136
61.28000 133.717
61.32000 143.747
61.36000 143.186
61.40000 146.168
61.44000 146.456
61.48000 147.654
61.52000 146.983
61.56000 152.119
61.60000 149.360
61.64000 145.351
61.68000 147.968
61.72000 148.766
61.76000 146.010
61.80000 145.893
61.84000 142.734
61.88000 151.800
61.92000 141.163
61.96000 147.751
62.00000 141.419
62.04000 144.323
62.08000 142.557
62.12000 154.813
62.16000 141.318
62.20000 139.383
62.24000 131.011
62.28000 142.810
62.32000 138.511
62.36000 140.836
62.40000 140.178
62.44000 147.416
62.48000 146.986
62.52000 134.447
62.56000 143.903
62.60000 145.399
62.64000 133.963
62.68000 140.400
62.72000 146.870
62.76000 135.503
62.80000 143.918
62.84000 139.985
62.88000 133.867
62.92000 133.570
62.96000 131.621
63.00000 135.162
63.04000 139.303
63.08000 133.602
63.12000 128.716
63.16000 147.957
63.20000 146.232
63.24000 138.284
63.28000 127.833
63.32000 138.162
63.36000 140.018
63.40000 139.546
63.44000 140.152
63.48000 132.443
63.52000 134.787
63.56000 136.470
63.60000 149.308
63.64000 138.510
63.68000 149.522
63.72000 137.552
63.76000 141.635
63.80000 136.915
63.84000 145.216
63.88000 131.386
63.92000 138.826
63.96000 136.760
64.00000 140.456
64.04000 141.028
64.08000 142.988
64.12000 146.224
64.16000 130.471
64.20000 138.766
64.24000 129.973
64.28000 142.456
64.32000 136.148
64.36000 131.911
64.40000 130.681
64.44000 131.458
64.48000 133.451
64.52000 137.017
64.56000 153.542
64.60000 166.271
64.64000 159.709
64.68000 157.885
64.72000 154.168
64.76000 148.067
64.80000 137.485
64.84000 132.962
64.88000 139.723
64.92000 131.260
64.96000 137.354
65.00000 128.776
65.04000 135.650
65.08000 136.328
65.12000 144.953
65.16000 138.202
65.20000 134.121
65.24000 132.689
65.28000 130.711
65.32000 140.341
65.36000 134.105
65.40000 137.751
65.44000 135.459
65.48000 133.562
65.52000 149.007
65.56000 134.197
65.60000 130.645
65.64000 139.597
65.68000 127.858
65.72000 128.011
65.76000 141.067
65.80000 134.441
65.84000 142.609
65.88000 137.562
65.92000 148.348
65.96000 147.976
66.00000 145.885
66.04000 142.817
66.08000 149.687
66.12000 150.037
66.16000 141.910
66.20000 156.089
66.24000 140.618
66.28000 138.996
66.32000 136.277
66.36000 140.497
66.40000 144.780
66.44000 142.938
66.48000 137.869
66.52000 141.551
66.56000 145.044
66.60000 142.978
66.64000 148.859
66.68000 135.578
66.72000 141.473
66.76000 147.726
66.80000 148.143
66.84000 140.733
66.88000 149.355
66.92000 138.614
66.96000 145.002
67.00000 135.095
67.04000 138.299
67.08000 134.904
67.12000 133.686
67.16000 144.335
67.20000 142.499
67.24000 140.462
67.28000 153.687
67.32000 147.049
67.36000 158.851
67.40000 144.801
67.44000 149.111
67.48000 149.212
67.52000 157.200
67.56000 144.867
67.60000 149.419
67.64000 145.586
67.68000 157.217
67.72000 160.810
67.76000 149.469
67.80000 160.704
67.84000 161.789
67.88000 160.942
67.92000 156.480
67.96000 167.907
68.00000 158.036
68.04000 162.960
68.08000 160.944
68.12000 167.185
68.16000 172.184
68.20000 179.790
68.24000 177.170
68.28000 179.831
68.32000 182.170
68.36000 198.688
68.40000 193.096
68.44000 190.876
68.48000 202.382
68.52000 211.390
68.56000 219.172
68.60000 227.337
68.64000 248.718
68.68000 243.867
68.72000 247.308
68.76000 255.160
68.80000 273.688
68.84000 311.561
68.88000 313.646
68.92000 365.371
68.96000 421.088
69.00000 489.527
69.04000 560.750
69.08000 625.560
69.12000 707.342
69.16000 776.591
69.20000 888.471
69.24000 1004.752
69.28000 1135.803
69.32000 1288.549
69.36000 1339.871
69.40000 1316.678
69.44000 1277.214
69.48000 1233.515
69.52000 1093.222
69.56000 984.441
69.60000 857.314
69.64000 730.400
69.68000 625.265
69.72000 506.800
69.76000 406.607
69.80000 333.602
69.84000 290.320
69.88000 258.599
69.92000 225.415
69.96000 218.841
70.00000 202.690