File: XRD/17-11-2025 Crystal Plates/XY Data/Deposition_9-1.xy
20.00000 762.398
20.04000 750.068
20.08000 777.900
20.12000 779.622
20.16000 789.053
20.20000 798.901
20.24000 812.244
20.28000 801.308
20.32000 828.311
20.36000 875.294
20.40000 913.645
20.44000 965.903
20.48000 1055.627
20.52000 1215.263
20.56000 1465.189
20.60000 1702.985
20.64000 1913.253
20.68000 1977.336
20.72000 1977.818
20.76000 1924.904
20.80000 1787.381
20.84000 1595.074
20.88000 1581.246
20.92000 1584.759
20.96000 1665.148
21.00000 1746.132
21.04000 1917.559
21.08000 2105.872
21.12000 2469.879
21.16000 2973.170
21.20000 3672.115
21.24000 4712.999
21.28000 6326.492
21.32000 8957.269
21.36000 12680.027
21.40000 21378.383
21.44000 35458.605
21.48000 58467.406
21.52000 81873.805
21.56000 96224.961
21.60000 96433.563
21.64000 88459.133
21.68000 71505.641
21.72000 48112.996
21.76000 25860.701
21.80000 12522.672
21.84000 6507.013
21.88000 4350.215
21.92000 3199.363
21.96000 2581.841
22.00000 2179.726
22.04000 1892.473
22.08000 1754.498
22.12000 1556.323
22.16000 1453.306
22.20000 1322.319
22.24000 1275.509
22.28000 1241.043
22.32000 1202.643
22.36000 1227.359
22.40000 1162.361
22.44000 1190.841
22.48000 1172.353
22.52000 1270.165
22.56000 1714.651
22.60000 3843.689
22.64000 9246.485
22.68000 17511.031
22.72000 23513.039
22.76000 25714.334
22.80000 25136.057
22.84000 22147.361
22.88000 16021.874
22.92000 8748.998
22.96000 3807.815
23.00000 1609.313
23.04000 1126.258
23.08000 1027.796
23.12000 946.716
23.16000 935.396
23.20000 871.120
23.24000 878.370
23.28000 846.218
23.32000 878.375
23.36000 830.436
23.40000 813.770
23.44000 797.348
23.48000 782.601
23.52000 797.541
23.56000 782.369
23.60000 779.721
23.64000 778.321
23.68000 776.102
23.72000 770.506
23.76000 752.833
23.80000 749.651
23.84000 745.601
23.88000 731.121
23.92000 722.991
23.96000 705.264
24.00000 703.850
24.04000 728.342
24.08000 720.503
24.12000 722.561
24.16000 688.580
24.20000 718.019
24.24000 696.099
24.28000 700.580
24.32000 699.902
24.36000 665.895
24.40000 705.385
24.44000 684.817
24.48000 683.654
24.52000 670.823
24.56000 682.223
24.60000 674.853
24.64000 688.882
24.68000 672.708
24.72000 672.894
24.76000 668.222
24.80000 661.567
24.84000 678.398
24.88000 652.705
24.92000 650.543
24.96000 640.572
25.00000 663.153
25.04000 631.458
25.08000 662.181
25.12000 649.724
25.16000 650.900
25.20000 630.746
25.24000 623.733
25.28000 642.542
25.32000 630.442
25.36000 620.459
25.40000 621.175
25.44000 635.786
25.48000 636.174
25.52000 633.643
25.56000 625.939
25.60000 599.717
25.64000 610.812
25.68000 606.725
25.72000 612.009
25.76000 605.292
25.80000 603.154
25.84000 614.278
25.88000 598.014
25.92000 610.411
25.96000 599.424
26.00000 573.974
26.04000 593.026
26.08000 610.617
26.12000 610.311
26.16000 596.046
26.20000 580.792
26.24000 592.375
26.28000 607.975
26.32000 598.412
26.36000 590.074
26.40000 579.853
26.44000 585.560
26.48000 581.332
26.52000 604.928
26.56000 577.568
26.60000 571.054
26.64000 621.670
26.68000 574.667
26.72000 581.957
26.76000 559.257
26.80000 573.002
26.84000 562.365
26.88000 563.863
26.92000 565.355
26.96000 571.611
27.00000 563.785
27.04000 568.139
27.08000 556.804
27.12000 551.520
27.16000 565.342
27.20000 554.562
27.24000 568.956
27.28000 558.584
27.32000 555.658
27.36000 565.804
27.40000 559.564
27.44000 539.922
27.48000 537.397
27.52000 550.686
27.56000 560.115
27.60000 553.909
27.64000 546.610
27.68000 566.524
27.72000 538.559
27.76000 549.185
27.80000 537.980
27.84000 535.229
27.88000 532.785
27.92000 545.722
27.96000 520.026
28.00000 527.569
28.04000 533.850
28.08000 524.336
28.12000 524.320
28.16000 527.570
28.20000 546.146
28.24000 525.031
28.28000 535.735
28.32000 527.715
28.36000 517.062
28.40000 517.145
28.44000 534.848
28.48000 535.555
28.52000 520.653
28.56000 529.297
28.60000 511.837
28.64000 527.160
28.68000 510.652
28.72000 526.342
28.76000 512.304
28.80000 500.105
28.84000 514.768
28.88000 508.086
28.92000 519.695
28.96000 507.524
29.00000 501.641
29.04000 502.573
29.08000 531.840
29.12000 506.887
29.16000 513.945
29.20000 509.042
29.24000 499.476
29.28000 489.477
29.32000 514.191
29.36000 518.634
29.40000 492.097
29.44000 514.880
29.48000 502.777
29.52000 495.722
29.56000 505.091
29.60000 504.703
29.64000 492.664
29.68000 484.043
29.72000 517.544
29.76000 497.393
29.80000 506.943
29.84000 482.786
29.88000 488.792
29.92000 503.727
29.96000 491.663
30.00000 479.347
30.04000 485.806
30.08000 494.737
30.12000 490.210
30.16000 468.907
30.20000 473.295
30.24000 483.273
30.28000 469.108
30.32000 481.907
30.36000 498.145
30.40000 460.175
30.44000 468.100
30.48000 484.276
30.52000 466.512
30.56000 465.255
30.60000 473.595
30.64000 469.992
30.68000 465.170
30.72000 456.086
30.76000 470.975
30.80000 479.496
30.84000 471.412
30.88000 459.947
30.92000 482.873
30.96000 460.670
31.00000 477.611
31.04000 471.759
31.08000 480.761
31.12000 474.640
31.16000 475.577
31.20000 499.510
31.24000 495.177
31.28000 525.747
31.32000 517.238
31.36000 502.049
31.40000 491.606
31.44000 473.015
31.48000 465.976
31.52000 474.654
31.56000 449.890
31.60000 462.090
31.64000 451.170
31.68000 454.984
31.72000 454.294
31.76000 445.864
31.80000 457.311
31.84000 450.638
31.88000 443.940
31.92000 453.748
31.96000 454.950
32.00000 439.105
32.04000 457.915
32.08000 443.368
32.12000 436.487
32.16000 440.606
32.20000 459.018
32.24000 434.730
32.28000 455.487
32.32000 430.225
32.36000 444.999
32.40000 437.739
32.44000 452.657
32.48000 436.734
32.52000 441.166
32.56000 427.879
32.60000 441.164
32.64000 463.244
32.68000 438.536
32.72000 431.825
32.76000 410.376
32.80000 427.880
32.84000 447.883
32.88000 428.516
32.92000 440.266
32.96000 415.789
33.00000 423.000
33.04000 446.719
33.08000 434.953
33.12000 426.729
33.16000 416.388
33.20000 437.319
33.24000 429.345
33.28000 419.546
33.32000 418.714
33.36000 401.727
33.40000 410.953
33.44000 417.924
33.48000 412.316
33.52000 403.285
33.56000 416.851
33.60000 410.580
33.64000 423.299
33.68000 434.283
33.72000 414.714
33.76000 427.891
33.80000 404.007
33.84000 412.246
33.88000 423.851
33.92000 414.532
33.96000 411.993
34.00000 406.443
34.04000 404.887
34.08000 407.805
34.12000 419.252
34.16000 414.324
34.20000 418.626
34.24000 406.486
34.28000 406.511
34.32000 406.295
34.36000 410.871
34.40000 411.357
34.44000 405.456
34.48000 423.443
34.52000 396.192
34.56000 408.441
34.60000 402.836
34.64000 393.245
34.68000 400.962
34.72000 422.763
34.76000 421.321
34.80000 399.741
34.84000 407.881
34.88000 415.063
34.92000 412.792
34.96000 411.003
35.00000 402.448
35.04000 412.996
35.08000 393.961
35.12000 397.988
35.16000 402.272
35.20000 388.698
35.24000 400.350
35.28000 412.186
35.32000 393.266
35.36000 398.949
35.40000 403.215
35.44000 393.344
35.48000 392.613
35.52000 396.688
35.56000 402.026
35.60000 394.304
35.64000 389.129
35.68000 396.194
35.72000 396.080
35.76000 395.133
35.80000 393.532
35.84000 401.693
35.88000 385.346
35.92000 385.068
35.96000 398.140
36.00000 386.521
36.04000 390.863
36.08000 386.587
36.12000 404.029
36.16000 380.617
36.20000 397.141
36.24000 402.960
36.28000 407.311
36.32000 394.333
36.36000 389.866
36.40000 388.082
36.44000 393.475
36.48000 383.555
36.52000 390.789
36.56000 386.149
36.60000 372.576
36.64000 380.972
36.68000 398.276
36.72000 376.691
36.76000 381.547
36.80000 383.101
36.84000 383.614
36.88000 392.372
36.92000 391.011
36.96000 392.545
37.00000 390.929
37.04000 385.776
37.08000 407.584
37.12000 384.316
37.16000 392.400
37.20000 387.733
37.24000 388.759
37.28000 391.945
37.32000 379.663
37.36000 380.477
37.40000 383.083
37.44000 380.209
37.48000 376.439
37.52000 391.454
37.56000 392.029
37.60000 397.256
37.64000 378.482
37.68000 393.138
37.72000 404.520
37.76000 395.829
37.80000 386.220
37.84000 383.275
37.88000 396.840
37.92000 404.372
37.96000 412.254
38.00000 426.755
38.04000 406.122
38.08000 404.630
38.12000 393.347
38.16000 393.415
38.20000 404.734
38.24000 400.888
38.28000 418.998
38.32000 402.397
38.36000 419.467
38.40000 410.295
38.44000 424.625
38.48000 413.507
38.52000 414.522
38.56000 413.723
38.60000 404.429
38.64000 410.258
38.68000 417.620
38.72000 425.018
38.76000 426.964
38.80000 421.196
38.84000 424.894
38.88000 432.111
38.92000 427.830
38.96000 439.164
39.00000 462.154
39.04000 445.847
39.08000 442.313
39.12000 453.398
39.16000 477.458
39.20000 473.785
39.24000 504.092
39.28000 496.930
39.32000 531.216
39.36000 557.853
39.40000 581.474
39.44000 661.778
39.48000 709.941
39.52000 736.844
39.56000 774.987
39.60000 725.651
39.64000 679.863
39.68000 634.013
39.72000 584.222
39.76000 547.944
39.80000 543.006
39.84000 519.774
39.88000 532.993
39.92000 497.626
39.96000 502.970
40.00000 518.065
40.04000 526.460
40.08000 540.544
40.12000 560.800
40.16000 564.181
40.20000 544.432
40.24000 571.749
40.28000 556.433
40.32000 565.633
40.36000 578.189
40.40000 586.678
40.44000 596.479
40.48000 603.392
40.52000 608.685
40.56000 605.327
40.60000 589.241
40.64000 624.814
40.68000 638.250
40.72000 640.478
40.76000 631.871
40.80000 666.143
40.84000 655.955
40.88000 670.354
40.92000 676.647
40.96000 692.013
41.00000 715.301
41.04000 728.977
41.08000 709.841
41.12000 740.945
41.16000 782.901
41.20000 790.685
41.24000 796.157
41.28000 828.808
41.32000 851.182
41.36000 859.891
41.40000 896.358
41.44000 918.488
41.48000 938.941
41.52000 961.539
41.56000 1038.380
41.60000 1113.499
41.64000 1259.767
41.68000 1469.735
41.72000 1703.815
41.76000 1832.553
41.80000 1987.088
41.84000 2150.271
41.88000 2250.760
41.92000 2387.888
41.96000 2585.168
42.00000 2792.408
42.04000 2928.560
42.08000 2903.945
42.12000 2802.409
42.16000 2595.233
42.20000 2274.577
42.24000 2088.332
42.28000 2021.691
42.32000 1984.008
42.36000 2013.474
42.40000 2013.314
42.44000 2025.522
42.48000 2059.931
42.52000 2030.436
42.56000 2083.717
42.60000 2073.404
42.64000 2101.088
42.68000 2209.782
42.72000 2295.321
42.76000 2427.480
42.80000 2551.251
42.84000 2737.356
42.88000 2861.611
42.92000 3066.989
42.96000 3297.641
43.00000 3540.218
43.04000 3768.373
43.08000 4039.244
43.12000 4380.966
43.16000 4830.550
43.20000 5316.875
43.24000 5907.357
43.28000 6703.724
43.32000 7531.340
43.36000 8594.361
43.40000 9758.838
43.44000 11569.558
43.48000 13695.207
43.52000 16379.199
43.56000 19785.008
43.60000 23958.252
43.64000 29750.350
43.68000 36664.383
43.72000 46268.984
43.76000 59173.984
43.80000 76995.914
43.84000 100972.023
43.88000 127407.305
43.92000 150142.031
43.96000 163667.688
44.00000 166680.031
44.04000 156411.703
44.08000 134221.938
44.12000 107086.063
44.16000 77121.563
44.20000 53108.898
44.24000 34858.840
44.28000 22787.881
44.32000 15870.987
44.36000 12641.532
44.40000 10806.285
44.44000 9712.488
44.48000 8751.039
44.52000 7787.308
44.56000 6358.201
44.60000 5251.596
44.64000 4595.335
44.68000 4362.790
44.72000 4281.384
44.76000 4123.853
44.80000 3952.421
44.84000 3794.688
44.88000 3598.317
44.92000 3375.035
44.96000 3224.621
45.00000 3189.913
45.04000 3181.059
45.08000 3146.036
45.12000 3165.875
45.16000 3153.801
45.20000 3048.132
45.24000 2884.864
45.28000 2802.452
45.32000 2622.541
45.36000 2563.978
45.40000 2492.271
45.44000 2462.131
45.48000 2462.911
45.52000 2425.214
45.56000 2450.082
45.60000 2466.606
45.64000 2489.540
45.68000 2428.919
45.72000 2531.262
45.76000 2509.401
45.80000 2657.834
45.84000 2665.717
45.88000 2745.307
45.92000 2803.771
45.96000 2924.840
46.00000 3103.864
46.04000 3256.036
46.08000 3672.095
46.12000 4397.623
46.16000 5407.297
46.20000 6657.514
46.24000 9101.145
46.28000 16597.041
46.32000 51272.059
46.36000 121459.219
46.40000 192302.422
46.44000 232653.875
46.48000 261125.766
46.52000 280560.469
46.56000 258498.375
46.60000 189001.813
46.64000 127165.461
46.68000 89134.234
46.72000 51162.668
46.76000 20947.891
46.80000 8175.184
46.84000 5325.958
46.88000 4247.777
46.92000 3630.947
46.96000 3269.596
47.00000 2948.259
47.04000 2709.034
47.08000 2511.427
47.12000 2328.457
47.16000 2252.542
47.20000 2149.977
47.24000 1981.895
47.28000 1872.984
47.32000 1779.856
47.36000 1711.511
47.40000 1611.727
47.44000 1509.419
47.48000 1483.042
47.52000 1399.748
47.56000 1322.450
47.60000 1292.895
47.64000 1230.745
47.68000 1156.943
47.72000 1143.354
47.76000 1097.600
47.80000 1057.289
47.84000 1024.900
47.88000 978.870
47.92000 959.165
47.96000 894.300
48.00000 873.845
48.04000 828.115
48.08000 840.099
48.12000 787.783
48.16000 766.363
48.20000 737.928
48.24000 706.221
48.28000 695.160
48.32000 674.372
48.36000 659.074
48.40000 648.952
48.44000 619.839
48.48000 591.386
48.52000 599.434
48.56000 570.760
48.60000 570.497
48.64000 567.443
48.68000 536.290
48.72000 525.587
48.76000 496.703
48.80000 513.057
48.84000 489.322
48.88000 492.671
48.92000 483.662
48.96000 487.079
49.00000 454.024
49.04000 466.676
49.08000 463.579
49.12000 437.443
49.16000 435.937
49.20000 451.270
49.24000 429.516
49.28000 421.897
49.32000 408.082
49.36000 399.731
49.40000 407.061
49.44000 420.306
49.48000 387.408
49.52000 371.558
49.56000 375.585
49.60000 382.770
49.64000 352.592
49.68000 363.767
49.72000 364.053
49.76000 370.899
49.80000 351.034
49.84000 332.589
49.88000 337.079
49.92000 339.259
49.96000 323.462
50.00000 317.818
50.04000 324.308
50.08000 323.733
50.12000 332.224
50.16000 327.231
50.20000 326.089
50.24000 305.500
50.28000 314.833
50.32000 308.608
50.36000 303.312
50.40000 302.453
50.44000 309.048
50.48000 306.535
50.52000 320.770
50.56000 293.446
50.60000 301.943
50.64000 292.549
50.68000 290.154
50.72000 295.866
50.76000 305.531
50.80000 304.087
50.84000 312.043
50.88000 307.786
50.92000 302.697
50.96000 277.954
51.00000 283.618
51.04000 292.491
51.08000 277.349
51.12000 274.566
51.16000 268.378
51.20000 260.176
51.24000 253.447
51.28000 274.532
51.32000 264.394
51.36000 260.425
51.40000 250.339
51.44000 257.013
51.48000 256.598
51.52000 249.862
51.56000 263.044
51.60000 255.859
51.64000 262.271
51.68000 243.533
51.72000 252.379
51.76000 249.281
51.80000 245.888
51.84000 245.508
51.88000 242.157
51.92000 240.624
51.96000 233.078
52.00000 238.539
52.04000 241.290
52.08000 243.001
52.12000 239.930
52.16000 242.416
52.20000 231.970
52.24000 236.166
52.28000 240.131
52.32000 233.109
52.36000 228.735
52.40000 223.167
52.44000 233.080
52.48000 239.696
52.52000 218.569
52.56000 218.318
52.60000 215.133
52.64000 217.155
52.68000 226.060
52.72000 206.327
52.76000 220.638
52.80000 222.371
52.84000 217.717
52.88000 212.794
52.92000 215.538
52.96000 213.667
53.00000 217.133
53.04000 207.767
53.08000 206.861
53.12000 210.114
53.16000 213.431
53.20000 210.765
53.24000 194.870
53.28000 214.493
53.32000 211.137
53.36000 203.215
53.40000 200.370
53.44000 211.687
53.48000 212.143
53.52000 218.967
53.56000 199.900
53.60000 195.956
53.64000 209.749
53.68000 210.984
53.72000 185.149
53.76000 181.749
53.80000 188.725
53.84000 199.174
53.88000 202.608
53.92000 206.074
53.96000 195.240
54.00000 201.750
54.04000 198.902
54.08000 187.382
54.12000 183.842
54.16000 192.070
54.20000 191.217
54.24000 192.308
54.28000 189.757
54.32000 202.777
54.36000 199.449
54.40000 192.226
54.44000 187.473
54.48000 185.071
54.52000 199.944
54.56000 200.866
54.60000 201.322
54.64000 202.863
54.68000 204.405
54.72000 190.637
54.76000 189.287
54.80000 183.509
54.84000 191.983
54.88000 191.910
54.92000 188.221
54.96000 181.502
55.00000 188.211
55.04000 190.248
55.08000 188.839
55.12000 191.979
55.16000 178.045
55.20000 182.861
55.24000 188.029
55.28000 183.686
55.32000 190.191
55.36000 183.693
55.40000 176.410
55.44000 186.900
55.48000 180.225
55.52000 178.122
55.56000 185.515
55.60000 171.697
55.64000 194.771
55.68000 188.241
55.72000 208.773
55.76000 184.605
55.80000 187.466
55.84000 186.030
55.88000 178.802
55.92000 188.744
55.96000 185.681
56.00000 178.341
56.04000 184.152
56.08000 179.572
56.12000 167.595
56.16000 189.881
56.20000 183.693
56.24000 183.550
56.28000 173.133
56.32000 179.754
56.36000 177.864
56.40000 179.156
56.44000 180.560
56.48000 177.002
56.52000 185.003
56.56000 168.449
56.60000 169.456
56.64000 169.828
56.68000 181.529
56.72000 170.380
56.76000 173.547
56.80000 169.408
56.84000 176.415
56.88000 183.885
56.92000 178.228
56.96000 174.967
57.00000 166.110
57.04000 172.024
57.08000 165.667
57.12000 172.341
57.16000 171.250
57.20000 171.557
57.24000 166.926
57.28000 165.797
57.32000 167.988
57.36000 167.009
57.40000 168.667
57.44000 160.610
57.48000 166.164
57.52000 164.118
57.56000 170.692
57.60000 159.434
57.64000 166.309
57.68000 168.611
57.72000 176.618
57.76000 165.679
57.80000 166.919
57.84000 174.772
57.88000 169.397
57.92000 156.520
57.96000 165.037
58.00000 158.959
58.04000 169.123
58.08000 165.234
58.12000 162.604
58.16000 159.249
58.20000 162.921
58.24000 169.593
58.28000 160.282
58.32000 162.018
58.36000 163.345
58.40000 163.760
58.44000 162.474
58.48000 154.052
58.52000 151.274
58.56000 155.773
58.60000 151.238
58.64000 161.527
58.68000 153.443
58.72000 164.111
58.76000 153.029
58.80000 163.655
58.84000 163.169
58.88000 162.371
58.92000 154.955
58.96000 146.582
59.00000 162.363
59.04000 165.005
59.08000 159.396
59.12000 162.672
59.16000 160.562
59.20000 159.024
59.24000 157.980
59.28000 157.873
59.32000 159.282
59.36000 155.567
59.40000 157.043
59.44000 146.571
59.48000 155.896
59.52000 162.087
59.56000 151.045
59.60000 160.133
59.64000 161.234
59.68000 147.004
59.72000 148.672
59.76000 156.825
59.80000 163.343
59.84000 151.815
59.88000 159.756
59.92000 158.583
59.96000 151.571
60.00000 151.667
60.04000 157.588
60.08000 156.476
60.12000 142.240
60.16000 165.124
60.20000 159.007
60.24000 155.490
60.28000 150.332
60.32000 149.995
60.36000 156.305
60.40000 144.433
60.44000 162.667
60.48000 150.871
60.52000 144.422
60.56000 142.302
60.60000 148.935
60.64000 151.888
60.68000 141.342
60.72000 144.738
60.76000 150.471
60.80000 151.266
60.84000 157.882
60.88000 146.855
60.92000 155.093
60.96000 158.674
61.00000 148.332
61.04000 161.103
61.08000 145.573
61.12000 163.500
61.16000 154.205
61.20000 153.944
61.24000 152.847
61.28000 150.021
61.32000 148.793
61.36000 144.353
61.40000 156.134
61.44000 148.655
61.48000 143.399
61.52000 150.193
61.56000 147.429
61.60000 136.427
61.64000 147.447
61.68000 140.882
61.72000 144.307
61.76000 147.178
61.80000 149.585
61.84000 147.315
61.88000 159.095
61.92000 163.030
61.96000 138.140
62.00000 150.508
62.04000 145.781
62.08000 144.450
62.12000 130.855
62.16000 144.740
62.20000 146.609
62.24000 149.661
62.28000 143.136
62.32000 146.270
62.36000 152.418
62.40000 143.520
62.44000 136.908
62.48000 154.157
62.52000 153.049
62.56000 154.359
62.60000 147.990
62.64000 155.918
62.68000 138.164
62.72000 153.270
62.76000 141.756
62.80000 136.021
62.84000 142.760
62.88000 133.890
62.92000 147.332
62.96000 139.062
63.00000 146.871
63.04000 147.483
63.08000 147.245
63.12000 142.786
63.16000 136.792
63.20000 143.838
63.24000 142.372
63.28000 139.295
63.32000 143.823
63.36000 136.263
63.40000 148.635
63.44000 146.648
63.48000 145.998
63.52000 147.332
63.56000 149.171
63.60000 138.569
63.64000 143.538
63.68000 144.725
63.72000 144.598
63.76000 149.308
63.80000 143.377
63.84000 144.604
63.88000 138.396
63.92000 152.615
63.96000 152.700
64.00000 145.395
64.04000 149.632
64.08000 148.448
64.12000 147.686
64.16000 149.840
64.20000 154.598
64.24000 146.211
64.28000 149.567
64.32000 144.713
64.36000 150.826
64.40000 152.519
64.44000 164.763
64.48000 147.602
64.52000 168.530
64.56000 159.218
64.60000 163.190
64.64000 169.248
64.68000 164.242
64.72000 162.210
64.76000 163.100
64.80000 160.393
64.84000 161.812
64.88000 154.769
64.92000 173.736
64.96000 166.866
65.00000 162.278
65.04000 182.112
65.08000 178.408
65.12000 176.732
65.16000 171.749
65.20000 175.183
65.24000 164.169
65.28000 175.268
65.32000 179.193
65.36000 171.379
65.40000 160.957
65.44000 163.044
65.48000 164.714
65.52000 169.526
65.56000 155.089
65.60000 166.139
65.64000 165.260
65.68000 167.757
65.72000 155.262
65.76000 165.049
65.80000 167.896
65.84000 158.952
65.88000 161.329
65.92000 161.079
65.96000 157.940
66.00000 166.292
66.04000 163.188
66.08000 162.091
66.12000 158.534
66.16000 172.729
66.20000 169.103
66.24000 179.142
66.28000 175.519
66.32000 177.007
66.36000 173.852
66.40000 176.856
66.44000 178.418
66.48000 182.044
66.52000 180.575
66.56000 182.498
66.60000 182.069
66.64000 184.486
66.68000 185.643
66.72000 203.048
66.76000 194.097
66.80000 190.201
66.84000 206.458
66.88000 209.583
66.92000 205.388
66.96000 222.041
67.00000 212.522
67.04000 223.949
67.08000 228.343
67.12000 238.858
67.16000 230.122
67.20000 255.152
67.24000 264.206
67.28000 253.530
67.32000 276.342
67.36000 296.975
67.40000 287.622
67.44000 315.960
67.48000 335.548
67.52000 339.099
67.56000 356.010
67.60000 385.171
67.64000 431.268
67.68000 465.525
67.72000 505.843
67.76000 561.484
67.80000 606.471
67.84000 679.091
67.88000 746.501
67.92000 821.070
67.96000 905.497
68.00000 1015.469
68.04000 1167.180
68.08000 1330.773
68.12000 1586.829
68.16000 1842.385
68.20000 2113.023
68.24000 2401.408
68.28000 2612.993
68.32000 2759.521
68.36000 2686.863
68.40000 2568.505
68.44000 2403.795
68.48000 2200.595
68.52000 1870.649
68.56000 1606.555
68.60000 1327.137
68.64000 1096.821
68.68000 860.543
68.72000 668.434
68.76000 546.385
68.80000 474.301
68.84000 399.503
68.88000 368.848
68.92000 338.583
68.96000 342.099
69.00000 345.842
69.04000 367.862
69.08000 374.155
69.12000 366.260
69.16000 348.385
69.20000 315.067
69.24000 300.765
69.28000 266.285
69.32000 257.497
69.36000 240.359
69.40000 239.426
69.44000 244.278
69.48000 235.069
69.52000 245.907
69.56000 232.407
69.60000 236.451
69.64000 224.681
69.68000 246.984
69.72000 227.435
69.76000 231.278
69.80000 213.414
69.84000 224.052
69.88000 206.153
69.92000 210.217
69.96000 204.075
70.00000 206.917