File: XRD/17-11-2025 Crystal Plates/XY Data/Deposition_11-1.xy
20.00000 737.824
20.04000 748.152
20.08000 751.139
20.12000 749.526
20.16000 759.113
20.20000 773.606
20.24000 777.340
20.28000 766.336
20.32000 752.627
20.36000 802.359
20.40000 805.167
20.44000 857.565
20.48000 904.675
20.52000 904.387
20.56000 907.103
20.60000 949.392
20.64000 939.128
20.68000 968.947
20.72000 1018.393
20.76000 1131.399
20.80000 1286.342
20.84000 1468.946
20.88000 1609.476
20.92000 1690.942
20.96000 1775.007
21.00000 1752.058
21.04000 1679.749
21.08000 1702.911
21.12000 1763.144
21.16000 1847.030
21.20000 1948.507
21.24000 2072.552
21.28000 2271.752
21.32000 2478.070
21.36000 2612.098
21.40000 2944.701
21.44000 3296.922
21.48000 3579.823
21.52000 4027.912
21.56000 4734.947
21.60000 6308.727
21.64000 9972.477
21.68000 18411.918
21.72000 31852.479
21.76000 45723.742
21.80000 53497.621
21.84000 55208.000
21.88000 52019.891
21.92000 41311.824
21.96000 28320.549
22.00000 15768.063
22.04000 7959.634
22.08000 4235.316
22.12000 2770.840
22.16000 2154.312
22.20000 1834.935
22.24000 1604.323
22.28000 1489.446
22.32000 1396.457
22.36000 1359.732
22.40000 1302.686
22.44000 1304.513
22.48000 1383.209
22.52000 1516.358
22.56000 2161.929
22.60000 5458.242
22.64000 15070.524
22.68000 27853.078
22.72000 37165.742
22.76000 40170.410
22.80000 39101.578
22.84000 33749.555
22.88000 22830.965
22.92000 12294.565
22.96000 4857.072
23.00000 1972.755
23.04000 1230.589
23.08000 1123.961
23.12000 1027.661
23.16000 928.239
23.20000 917.528
23.24000 904.023
23.28000 843.217
23.32000 803.110
23.36000 817.994
23.40000 783.087
23.44000 796.172
23.48000 760.955
23.52000 749.421
23.56000 722.359
23.60000 744.739
23.64000 741.924
23.68000 720.112
23.72000 726.387
23.76000 698.608
23.80000 729.568
23.84000 683.855
23.88000 681.409
23.92000 669.460
23.96000 670.701
24.00000 675.478
24.04000 696.210
24.08000 661.158
24.12000 641.676
24.16000 653.764
24.20000 656.231
24.24000 634.080
24.28000 637.451
24.32000 646.976
24.36000 648.342
24.40000 641.099
24.44000 650.149
24.48000 627.626
24.52000 639.983
24.56000 604.852
24.60000 650.388
24.64000 634.172
24.68000 635.152
24.72000 642.581
24.76000 638.835
24.80000 621.834
24.84000 619.962
24.88000 628.643
24.92000 613.452
24.96000 581.489
25.00000 630.942
25.04000 629.093
25.08000 623.959
25.12000 622.066
25.16000 602.622
25.20000 609.490
25.24000 599.516
25.28000 598.167
25.32000 603.590
25.36000 585.534
25.40000 614.990
25.44000 607.235
25.48000 586.108
25.52000 602.328
25.56000 576.664
25.60000 580.414
25.64000 601.243
25.68000 581.003
25.72000 579.667
25.76000 586.939
25.80000 588.497
25.84000 592.148
25.88000 576.105
25.92000 569.884
25.96000 593.628
26.00000 580.331
26.04000 576.915
26.08000 562.883
26.12000 587.286
26.16000 569.088
26.20000 589.067
26.24000 567.671
26.28000 573.126
26.32000 550.123
26.36000 559.414
26.40000 573.839
26.44000 565.229
26.48000 557.858
26.52000 540.809
26.56000 559.291
26.60000 548.826
26.64000 545.812
26.68000 570.422
26.72000 537.771
26.76000 572.948
26.80000 546.897
26.84000 546.040
26.88000 553.298
26.92000 547.082
26.96000 559.376
27.00000 556.227
27.04000 561.352
27.08000 542.755
27.12000 553.667
27.16000 565.460
27.20000 533.844
27.24000 523.753
27.28000 532.484
27.32000 514.634
27.36000 516.814
27.40000 543.184
27.44000 536.348
27.48000 530.623
27.52000 538.746
27.56000 528.543
27.60000 527.406
27.64000 536.201
27.68000 517.148
27.72000 527.990
27.76000 539.123
27.80000 538.145
27.84000 522.571
27.88000 526.074
27.92000 524.426
27.96000 527.061
28.00000 522.300
28.04000 539.604
28.08000 513.167
28.12000 521.182
28.16000 530.096
28.20000 541.786
28.24000 524.224
28.28000 528.249
28.32000 518.533
28.36000 528.796
28.40000 503.473
28.44000 509.087
28.48000 514.552
28.52000 515.634
28.56000 517.950
28.60000 528.977
28.64000 512.402
28.68000 488.348
28.72000 505.986
28.76000 492.083
28.80000 501.798
28.84000 493.831
28.88000 505.512
28.92000 487.552
28.96000 509.605
29.00000 499.762
29.04000 516.780
29.08000 505.360
29.12000 507.879
29.16000 510.480
29.20000 491.364
29.24000 512.105
29.28000 495.950
29.32000 508.021
29.36000 488.849
29.40000 476.111
29.44000 490.579
29.48000 493.217
29.52000 470.561
29.56000 477.480
29.60000 503.941
29.64000 467.568
29.68000 478.628
29.72000 489.759
29.76000 470.301
29.80000 471.897
29.84000 488.502
29.88000 485.953
29.92000 488.195
29.96000 482.864
30.00000 499.922
30.04000 463.790
30.08000 466.927
30.12000 471.757
30.16000 475.042
30.20000 472.917
30.24000 478.973
30.28000 486.138
30.32000 465.980
30.36000 470.280
30.40000 483.011
30.44000 460.793
30.48000 492.177
30.52000 479.657
30.56000 488.139
30.60000 467.740
30.64000 468.450
30.68000 470.014
30.72000 471.705
30.76000 484.248
30.80000 459.740
30.84000 459.289
30.88000 446.073
30.92000 446.042
30.96000 478.022
31.00000 473.222
31.04000 458.496
31.08000 441.420
31.12000 456.109
31.16000 465.736
31.20000 464.793
31.24000 451.130
31.28000 448.872
31.32000 445.661
31.36000 440.348
31.40000 442.840
31.44000 447.326
31.48000 461.539
31.52000 453.143
31.56000 457.191
31.60000 446.162
31.64000 446.552
31.68000 455.244
31.72000 432.610
31.76000 447.761
31.80000 448.651
31.84000 448.067
31.88000 427.150
31.92000 444.367
31.96000 441.693
32.00000 417.195
32.04000 435.148
32.08000 410.848
32.12000 447.164
32.16000 426.300
32.20000 436.412
32.24000 434.012
32.28000 433.478
32.32000 450.637
32.36000 415.995
32.40000 414.952
32.44000 432.519
32.48000 431.015
32.52000 441.532
32.56000 438.336
32.60000 414.364
32.64000 417.616
32.68000 433.518
32.72000 427.652
32.76000 435.898
32.80000 413.966
32.84000 438.023
32.88000 424.398
32.92000 432.996
32.96000 415.572
33.00000 439.606
33.04000 427.650
33.08000 417.331
33.12000 403.710
33.16000 426.078
33.20000 407.488
33.24000 412.116
33.28000 428.667
33.32000 406.120
33.36000 399.291
33.40000 399.117
33.44000 401.357
33.48000 399.128
33.52000 396.826
33.56000 423.592
33.60000 415.579
33.64000 398.806
33.68000 403.404
33.72000 401.104
33.76000 405.304
33.80000 399.412
33.84000 401.420
33.88000 397.661
33.92000 400.126
33.96000 421.772
34.00000 383.472
34.04000 395.985
34.08000 412.339
34.12000 397.632
34.16000 391.363
34.20000 407.319
34.24000 411.346
34.28000 404.890
34.32000 391.783
34.36000 414.754
34.40000 398.842
34.44000 402.178
34.48000 386.724
34.52000 393.763
34.56000 393.260
34.60000 396.551
34.64000 393.806
34.68000 397.157
34.72000 391.945
34.76000 389.731
34.80000 377.538
34.84000 408.725
34.88000 389.546
34.92000 395.187
34.96000 378.349
35.00000 378.703
35.04000 388.916
35.08000 388.450
35.12000 397.273
35.16000 382.910
35.20000 375.974
35.24000 395.797
35.28000 399.302
35.32000 390.314
35.36000 377.295
35.40000 400.090
35.44000 376.985
35.48000 378.161
35.52000 388.553
35.56000 398.974
35.60000 391.301
35.64000 380.099
35.68000 382.870
35.72000 381.850
35.76000 371.028
35.80000 371.877
35.84000 376.655
35.88000 374.786
35.92000 384.677
35.96000 367.487
36.00000 373.686
36.04000 370.633
36.08000 363.381
36.12000 373.229
36.16000 369.165
36.20000 375.450
36.24000 376.133
36.28000 377.502
36.32000 378.301
36.36000 367.836
36.40000 373.160
36.44000 372.266
36.48000 370.770
36.52000 386.632
36.56000 374.743
36.60000 374.176
36.64000 367.603
36.68000 375.569
36.72000 385.110
36.76000 362.676
36.80000 380.990
36.84000 362.866
36.88000 386.105
36.92000 373.203
36.96000 348.696
37.00000 355.649
37.04000 368.341
37.08000 366.821
37.12000 369.309
37.16000 377.704
37.20000 361.960
37.24000 356.825
37.28000 366.332
37.32000 357.153
37.36000 365.387
37.40000 357.898
37.44000 362.518
37.48000 380.382
37.52000 362.759
37.56000 355.953
37.60000 369.834
37.64000 354.881
37.68000 365.428
37.72000 359.440
37.76000 364.317
37.80000 355.775
37.84000 342.362
37.88000 355.033
37.92000 351.531
37.96000 362.079
38.00000 361.370
38.04000 355.369
38.08000 364.041
38.12000 368.683
38.16000 349.783
38.20000 347.106
38.24000 372.025
38.28000 369.702
38.32000 399.981
38.36000 366.865
38.40000 364.123
38.44000 374.216
38.48000 352.466
38.52000 370.489
38.56000 363.165
38.60000 366.663
38.64000 350.529
38.68000 362.878
38.72000 351.778
38.76000 358.969
38.80000 342.221
38.84000 363.051
38.88000 374.266
38.92000 362.828
38.96000 365.149
39.00000 349.533
39.04000 374.902
39.08000 365.507
39.12000 354.688
39.16000 354.902
39.20000 350.580
39.24000 362.108
39.28000 374.671
39.32000 361.589
39.36000 393.822
39.40000 386.912
39.44000 376.522
39.48000 361.628
39.52000 387.452
39.56000 371.699
39.60000 388.208
39.64000 379.404
39.68000 375.388
39.72000 401.018
39.76000 392.007
39.80000 406.476
39.84000 444.010
39.88000 468.793
39.92000 512.807
39.96000 495.449
40.00000 531.243
40.04000 543.404
40.08000 506.637
40.12000 469.302
40.16000 444.026
40.20000 444.144
40.24000 419.235
40.28000 422.741
40.32000 409.345
40.36000 407.782
40.40000 413.040
40.44000 388.012
40.48000 394.205
40.52000 406.585
40.56000 403.543
40.60000 447.227
40.64000 412.711
40.68000 430.610
40.72000 417.491
40.76000 430.728
40.80000 425.588
40.84000 432.527
40.88000 443.138
40.92000 422.734
40.96000 433.290
41.00000 462.437
41.04000 459.091
41.08000 471.326
41.12000 468.336
41.16000 475.300
41.20000 491.553
41.24000 488.990
41.28000 508.478
41.32000 509.049
41.36000 512.925
41.40000 529.383
41.44000 525.424
41.48000 542.971
41.52000 551.986
41.56000 573.355
41.60000 631.591
41.64000 717.952
41.68000 900.144
41.72000 1040.646
41.76000 1121.348
41.80000 1137.568
41.84000 1109.058
41.88000 1026.357
41.92000 854.792
41.96000 777.603
42.00000 769.264
42.04000 765.394
42.08000 792.170
42.12000 817.876
42.16000 840.154
42.20000 884.564
42.24000 952.275
42.28000 1003.863
42.32000 1118.547
42.36000 1222.694
42.40000 1445.223
42.44000 1669.635
42.48000 1841.270
42.52000 1959.159
42.56000 2036.892
42.60000 2094.216
42.64000 1963.181
42.68000 1891.166
42.72000 1788.062
42.76000 1773.293
42.80000 1814.563
42.84000 1848.044
42.88000 1871.365
42.92000 1900.069
42.96000 1914.724
43.00000 2020.105
43.04000 2021.604
43.08000 2044.606
43.12000 2119.668
43.16000 2223.562
43.20000 2296.863
43.24000 2364.901
43.28000 2437.174
43.32000 2534.069
43.36000 2629.144
43.40000 2707.850
43.44000 2842.004
43.48000 2969.823
43.52000 3034.139
43.56000 3152.754
43.60000 3339.084
43.64000 3467.982
43.68000 3666.054
43.72000 3841.396
43.76000 4087.594
43.80000 4251.722
43.84000 4572.195
43.88000 4775.656
43.92000 5130.857
43.96000 5407.175
44.00000 5889.687
44.04000 6471.013
44.08000 7362.251
44.12000 8334.258
44.16000 10139.080
44.20000 12738.391
44.24000 16697.264
44.28000 24090.398
44.32000 36159.035
44.36000 52466.047
44.40000 69724.008
44.44000 84135.625
44.48000 92548.289
44.52000 94724.094
44.56000 88558.211
44.60000 74919.484
44.64000 60088.199
44.68000 43920.531
44.72000 30916.895
44.76000 20993.826
44.80000 13984.041
44.84000 9694.207
44.88000 7224.122
44.92000 5570.122
44.96000 4513.204
45.00000 3916.368
45.04000 3453.740
45.08000 3195.382
45.12000 2981.729
45.16000 2861.430
45.20000 2720.273
45.24000 2613.801
45.28000 2552.877
45.32000 2518.820
45.36000 2511.026
45.40000 2444.244
45.44000 2487.047
45.48000 2398.884
45.52000 2394.449
45.56000 2416.695
45.60000 2438.733
45.64000 2474.917
45.68000 2452.672
45.72000 2486.652
45.76000 2497.540
45.80000 2580.026
45.84000 2598.102
45.88000 2698.189
45.92000 2858.447
45.96000 2967.668
46.00000 3099.222
46.04000 3391.976
46.08000 3827.305
46.12000 4739.144
46.16000 6050.168
46.20000 7431.095
46.24000 10507.524
46.28000 20003.088
46.32000 64357.836
46.36000 149860.344
46.40000 227958.109
46.44000 271103.188
46.48000 304017.750
46.52000 323111.125
46.56000 286434.750
46.60000 208591.297
46.64000 142277.328
46.68000 95883.172
46.72000 53820.477
46.76000 22537.590
46.80000 8785.593
46.84000 5739.471
46.88000 4562.421
46.92000 3873.660
46.96000 3413.456
47.00000 3098.098
47.04000 2820.624
47.08000 2601.926
47.12000 2465.355
47.16000 2284.715
47.20000 2121.998
47.24000 2031.528
47.28000 1884.778
47.32000 1789.907
47.36000 1699.852
47.40000 1604.277
47.44000 1547.696
47.48000 1444.615
47.52000 1390.431
47.56000 1303.056
47.60000 1240.703
47.64000 1152.231
47.68000 1111.590
47.72000 1074.757
47.76000 1019.325
47.80000 995.944
47.84000 971.908
47.88000 956.466
47.92000 878.141
47.96000 838.760
48.00000 816.079
48.04000 781.840
48.08000 750.514
48.12000 736.188
48.16000 699.472
48.20000 690.948
48.24000 666.001
48.28000 654.968
48.32000 595.607
48.36000 604.646
48.40000 589.664
48.44000 576.485
48.48000 574.725
48.52000 553.557
48.56000 554.570
48.60000 523.519
48.64000 503.804
48.68000 515.538
48.72000 492.862
48.76000 494.827
48.80000 467.617
48.84000 464.997
48.88000 450.859
48.92000 455.509
48.96000 443.522
49.00000 446.149
49.04000 423.945
49.08000 425.104
49.12000 417.242
49.16000 409.315
49.20000 381.288
49.24000 389.526
49.28000 387.284
49.32000 378.587
49.36000 385.971
49.40000 370.368
49.44000 365.659
49.48000 368.405
49.52000 357.491
49.56000 351.351
49.60000 345.505
49.64000 347.815
49.68000 351.151
49.72000 350.810
49.76000 333.738
49.80000 335.775
49.84000 333.904
49.88000 318.934
49.92000 330.465
49.96000 324.428
50.00000 315.098
50.04000 322.532
50.08000 324.454
50.12000 307.861
50.16000 316.048
50.20000 310.050
50.24000 315.458
50.28000 292.869
50.32000 303.027
50.36000 301.214
50.40000 294.447
50.44000 311.115
50.48000 293.702
50.52000 275.384
50.56000 275.559
50.60000 281.782
50.64000 289.602
50.68000 277.405
50.72000 281.791
50.76000 282.735
50.80000 286.038
50.84000 268.744
50.88000 289.453
50.92000 280.531
50.96000 291.067
51.00000 289.066
51.04000 283.105
51.08000 275.060
51.12000 261.303
51.16000 252.490
51.20000 264.706
51.24000 259.760
51.28000 253.126
51.32000 247.372
51.36000 258.697
51.40000 243.947
51.44000 248.351
51.48000 259.529
51.52000 245.256
51.56000 243.495
51.60000 250.227
51.64000 253.429
51.68000 239.472
51.72000 249.069
51.76000 230.917
51.80000 238.206
51.84000 241.412
51.88000 230.748
51.92000 227.459
51.96000 237.163
52.00000 234.720
52.04000 235.930
52.08000 251.600
52.12000 229.593
52.16000 233.294
52.20000 224.583
52.24000 210.974
52.28000 220.357
52.32000 233.395
52.36000 234.682
52.40000 224.625
52.44000 210.187
52.48000 213.238
52.52000 231.854
52.56000 218.786
52.60000 210.181
52.64000 221.573
52.68000 197.211
52.72000 219.749
52.76000 218.687
52.80000 211.456
52.84000 208.035
52.88000 220.488
52.92000 212.016
52.96000 208.627
53.00000 207.524
53.04000 214.363
53.08000 212.124
53.12000 216.912
53.16000 206.131
53.20000 203.437
53.24000 206.956
53.28000 207.583
53.32000 214.102
53.36000 202.198
53.40000 212.463
53.44000 210.076
53.48000 208.773
53.52000 203.231
53.56000 202.167
53.60000 199.772
53.64000 202.147
53.68000 197.429
53.72000 200.297
53.76000 199.066
53.80000 193.479
53.84000 194.108
53.88000 199.312
53.92000 206.164
53.96000 188.145
54.00000 200.397
54.04000 198.352
54.08000 194.820
54.12000 198.827
54.16000 201.972
54.20000 190.176
54.24000 197.207
54.28000 203.480
54.32000 192.344
54.36000 189.346
54.40000 195.579
54.44000 194.770
54.48000 191.091
54.52000 188.414
54.56000 192.678
54.60000 194.850
54.64000 190.663
54.68000 182.273
54.72000 191.199
54.76000 194.257
54.80000 191.846
54.84000 184.015
54.88000 191.701
54.92000 186.917
54.96000 187.206
55.00000 185.824
55.04000 183.596
55.08000 185.439
55.12000 190.112
55.16000 186.608
55.20000 191.087
55.24000 189.253
55.28000 198.596
55.32000 173.809
55.36000 177.132
55.40000 185.188
55.44000 186.018
55.48000 178.986
55.52000 187.482
55.56000 175.381
55.60000 177.818
55.64000 168.980
55.68000 176.102
55.72000 182.640
55.76000 181.651
55.80000 174.053
55.84000 181.693
55.88000 177.110
55.92000 178.702
55.96000 169.402
56.00000 167.559
56.04000 182.073
56.08000 177.963
56.12000 176.251
56.16000 175.611
56.20000 182.796
56.24000 182.604
56.28000 174.806
56.32000 181.853
56.36000 182.917
56.40000 182.926
56.44000 184.676
56.48000 161.883
56.52000 160.682
56.56000 175.616
56.60000 174.983
56.64000 171.561
56.68000 158.617
56.72000 172.560
56.76000 167.639
56.80000 162.915
56.84000 165.771
56.88000 175.715
56.92000 171.406
56.96000 175.966
57.00000 165.880
57.04000 166.111
57.08000 170.925
57.12000 162.988
57.16000 174.296
57.20000 161.637
57.24000 173.751
57.28000 158.381
57.32000 169.033
57.36000 168.470
57.40000 168.317
57.44000 172.155
57.48000 158.192
57.52000 162.383
57.56000 174.464
57.60000 161.193
57.64000 175.598
57.68000 169.831
57.72000 166.813
57.76000 165.803
57.80000 167.913
57.84000 169.818
57.88000 166.127
57.92000 163.793
57.96000 161.381
58.00000 162.722
58.04000 161.103
58.08000 175.329
58.12000 159.814
58.16000 161.958
58.20000 158.714
58.24000 166.101
58.28000 158.391
58.32000 173.064
58.36000 157.609
58.40000 161.457
58.44000 160.214
58.48000 161.510
58.52000 168.100
58.56000 163.441
58.60000 153.174
58.64000 170.658
58.68000 165.714
58.72000 159.387
58.76000 170.560
58.80000 163.866
58.84000 150.361
58.88000 163.688
58.92000 164.291
58.96000 159.807
59.00000 170.142
59.04000 171.328
59.08000 146.537
59.12000 144.530
59.16000 149.597
59.20000 156.827
59.24000 170.779
59.28000 165.612
59.32000 161.737
59.36000 151.393
59.40000 153.939
59.44000 153.617
59.48000 156.485
59.52000 171.572
59.56000 157.668
59.60000 155.844
59.64000 156.373
59.68000 151.678
59.72000 153.001
59.76000 158.453
59.80000 149.372
59.84000 147.448
59.88000 168.860
59.92000 153.935
59.96000 146.603
60.00000 151.670
60.04000 148.025
60.08000 148.490
60.12000 154.508
60.16000 152.530
60.20000 154.405
60.24000 152.992
60.28000 146.598
60.32000 145.012
60.36000 138.600
60.40000 158.648
60.44000 153.456
60.48000 153.006
60.52000 145.565
60.56000 148.699
60.60000 153.228
60.64000 147.865
60.68000 157.874
60.72000 152.527
60.76000 146.371
60.80000 155.852
60.84000 152.490
60.88000 148.549
60.92000 142.453
60.96000 140.654
61.00000 150.262
61.04000 161.783
61.08000 137.593
61.12000 157.999
61.16000 148.716
61.20000 140.954
61.24000 144.167
61.28000 152.773
61.32000 153.223
61.36000 143.302
61.40000 139.853
61.44000 151.186
61.48000 145.227
61.52000 138.510
61.56000 145.967
61.60000 146.933
61.64000 146.557
61.68000 146.471
61.72000 159.685
61.76000 144.519
61.80000 149.572
61.84000 146.301
61.88000 137.494
61.92000 137.279
61.96000 144.869
62.00000 143.448
62.04000 140.466
62.08000 142.285
62.12000 155.392
62.16000 148.494
62.20000 138.945
62.24000 145.156
62.28000 137.666
62.32000 138.097
62.36000 142.964
62.40000 143.049
62.44000 146.705
62.48000 142.484
62.52000 139.421
62.56000 156.734
62.60000 151.323
62.64000 142.567
62.68000 150.209
62.72000 146.946
62.76000 148.057
62.80000 145.441
62.84000 137.674
62.88000 145.895
62.92000 143.663
62.96000 134.391
63.00000 137.639
63.04000 139.214
63.08000 148.238
63.12000 145.102
63.16000 143.504
63.20000 139.470
63.24000 138.131
63.28000 139.082
63.32000 147.398
63.36000 142.828
63.40000 148.599
63.44000 144.583
63.48000 135.023
63.52000 135.504
63.56000 140.017
63.60000 142.796
63.64000 142.452
63.68000 136.960
63.72000 136.107
63.76000 145.169
63.80000 155.024
63.84000 133.550
63.88000 141.660
63.92000 137.030
63.96000 135.226
64.00000 139.602
64.04000 142.520
64.08000 134.538
64.12000 143.090
64.16000 135.337
64.20000 140.951
64.24000 137.120
64.28000 134.594
64.32000 137.041
64.36000 135.228
64.40000 141.484
64.44000 139.618
64.48000 150.323
64.52000 146.399
64.56000 148.895
64.60000 160.841
64.64000 163.259
64.68000 149.639
64.72000 167.047
64.76000 158.263
64.80000 146.084
64.84000 133.958
64.88000 135.952
64.92000 135.157
64.96000 144.844
65.00000 148.434
65.04000 149.820
65.08000 142.708
65.12000 132.964
65.16000 142.750
65.20000 143.741
65.24000 146.627
65.28000 135.314
65.32000 149.668
65.36000 145.379
65.40000 149.290
65.44000 143.975
65.48000 147.817
65.52000 141.953
65.56000 143.788
65.60000 146.921
65.64000 146.225
65.68000 159.201
65.72000 153.986
65.76000 157.070
65.80000 159.377
65.84000 164.208
65.88000 163.635
65.92000 164.278
65.96000 161.114
66.00000 155.263
66.04000 167.827
66.08000 145.212
66.12000 152.970
66.16000 147.729
66.20000 157.024
66.24000 154.228
66.28000 145.391
66.32000 151.177
66.36000 158.894
66.40000 151.258
66.44000 153.843
66.48000 154.992
66.52000 161.571
66.56000 161.736
66.60000 152.257
66.64000 161.275
66.68000 158.805
66.72000 157.568
66.76000 159.889
66.80000 165.170
66.84000 161.386
66.88000 153.697
66.92000 166.180
66.96000 167.668
67.00000 161.060
67.04000 160.570
67.08000 154.528
67.12000 159.283
67.16000 169.677
67.20000 172.252
67.24000 158.820
67.28000 161.932
67.32000 165.384
67.36000 164.429
67.40000 170.857
67.44000 172.715
67.48000 175.194
67.52000 176.361
67.56000 174.124
67.60000 178.190
67.64000 191.227
67.68000 168.723
67.72000 182.182
67.76000 185.548
67.80000 188.631
67.84000 182.315
67.88000 185.664
67.92000 179.857
67.96000 184.226
68.00000 185.691
68.04000 188.211
68.08000 195.852
68.12000 202.828
68.16000 199.896
68.20000 206.842
68.24000 201.349
68.28000 197.848
68.32000 205.044
68.36000 210.067
68.40000 219.568
68.44000 221.649
68.48000 226.773
68.52000 240.450
68.56000 238.478
68.60000 261.331
68.64000 266.168
68.68000 274.351
68.72000 302.683
68.76000 340.054
68.80000 361.313
68.84000 418.338
68.88000 466.773
68.92000 586.404
68.96000 697.294
69.00000 878.823
69.04000 1072.613
69.08000 1310.921
69.12000 1485.800
69.16000 1591.701
69.20000 1618.324
69.24000 1618.915
69.28000 1530.639
69.32000 1436.661
69.36000 1305.012
69.40000 1121.870
69.44000 962.036
69.48000 810.849
69.52000 699.687
69.56000 592.924
69.60000 483.937
69.64000 408.026
69.68000 357.189
69.72000 315.792
69.76000 296.752
69.80000 261.116
69.84000 241.736
69.88000 222.380
69.92000 227.056
69.96000 216.301
70.00000 218.015