File: XRD/17-11-2025 Crystal Plates/XY Data/Deposition_10-3.xy
20.00000 727.871
20.04000 697.064
20.08000 712.486
20.12000 726.235
20.16000 713.751
20.20000 730.892
20.24000 720.770
20.28000 731.616
20.32000 725.079
20.36000 716.909
20.40000 739.804
20.44000 791.111
20.48000 814.713
20.52000 819.171
20.56000 845.182
20.60000 839.664
20.64000 802.266
20.68000 794.681
20.72000 778.694
20.76000 781.628
20.80000 752.642
20.84000 782.469
20.88000 829.461
20.92000 879.977
20.96000 890.579
21.00000 940.441
21.04000 936.088
21.08000 980.199
21.12000 972.149
21.16000 997.453
21.20000 1023.470
21.24000 1012.696
21.28000 1042.551
21.32000 1089.890
21.36000 1096.013
21.40000 1206.370
21.44000 1272.198
21.48000 1404.670
21.52000 1535.181
21.56000 1735.223
21.60000 2035.282
21.64000 2511.776
21.68000 3252.252
21.72000 4297.185
21.76000 5742.454
21.80000 7509.521
21.84000 9544.714
21.88000 11619.727
21.92000 13583.912
21.96000 14546.078
22.00000 14469.945
22.04000 13583.986
22.08000 11664.419
22.12000 9513.373
22.16000 7364.993
22.20000 5534.612
22.24000 4173.509
22.28000 3221.764
22.32000 2572.989
22.36000 2216.417
22.40000 1961.015
22.44000 1813.989
22.48000 1784.353
22.52000 1873.841
22.56000 2705.758
22.60000 6909.762
22.64000 19235.061
22.68000 35885.547
22.72000 47767.457
22.76000 51993.512
22.80000 50295.426
22.84000 43084.113
22.88000 30226.904
22.92000 15871.205
22.96000 6332.458
23.00000 2276.400
23.04000 1385.101
23.08000 1205.669
23.12000 1116.054
23.16000 1049.749
23.20000 1003.917
23.24000 924.825
23.28000 914.162
23.32000 861.589
23.36000 840.021
23.40000 833.873
23.44000 797.298
23.48000 756.078
23.52000 740.071
23.56000 735.228
23.60000 695.028
23.64000 720.703
23.68000 699.088
23.72000 681.949
23.76000 673.029
23.80000 659.458
23.84000 640.087
23.88000 669.321
23.92000 619.807
23.96000 645.079
24.00000 643.173
24.04000 628.847
24.08000 648.299
24.12000 628.054
24.16000 599.459
24.20000 617.889
24.24000 637.003
24.28000 624.701
24.32000 609.272
24.36000 592.000
24.40000 617.050
24.44000 582.715
24.48000 619.072
24.52000 609.306
24.56000 635.930
24.60000 604.191
24.64000 598.414
24.68000 606.788
24.72000 601.892
24.76000 595.014
24.80000 586.333
24.84000 605.822
24.88000 601.258
24.92000 600.698
24.96000 599.611
25.00000 571.213
25.04000 585.458
25.08000 573.157
25.12000 576.550
25.16000 573.688
25.20000 575.511
25.24000 583.474
25.28000 577.146
25.32000 575.480
25.36000 575.803
25.40000 560.776
25.44000 570.317
25.48000 561.922
25.52000 574.936
25.56000 583.295
25.60000 563.159
25.64000 558.551
25.68000 582.634
25.72000 557.177
25.76000 559.204
25.80000 549.169
25.84000 551.204
25.88000 536.747
25.92000 576.387
25.96000 560.786
26.00000 543.477
26.04000 561.934
26.08000 586.330
26.12000 548.021
26.16000 546.913
26.20000 557.216
26.24000 548.185
26.28000 553.363
26.32000 554.389
26.36000 536.245
26.40000 536.782
26.44000 531.472
26.48000 554.097
26.52000 552.268
26.56000 534.586
26.60000 538.522
26.64000 546.895
26.68000 526.803
26.72000 564.956
26.76000 544.597
26.80000 531.444
26.84000 519.015
26.88000 530.842
26.92000 523.768
26.96000 530.146
27.00000 541.214
27.04000 513.259
27.08000 533.560
27.12000 519.972
27.16000 529.878
27.20000 524.038
27.24000 543.463
27.28000 534.269
27.32000 519.623
27.36000 511.307
27.40000 524.978
27.44000 503.455
27.48000 512.636
27.52000 512.146
27.56000 530.964
27.60000 517.926
27.64000 506.511
27.68000 504.422
27.72000 510.296
27.76000 511.161
27.80000 493.477
27.84000 531.703
27.88000 521.610
27.92000 504.945
27.96000 518.344
28.00000 519.810
28.04000 497.841
28.08000 498.165
28.12000 518.374
28.16000 514.840
28.20000 504.779
28.24000 495.255
28.28000 507.295
28.32000 505.141
28.36000 503.696
28.40000 504.457
28.44000 487.265
28.48000 501.295
28.52000 503.004
28.56000 500.181
28.60000 487.765
28.64000 495.089
28.68000 502.173
28.72000 509.438
28.76000 497.328
28.80000 501.596
28.84000 494.232
28.88000 485.651
28.92000 516.047
28.96000 505.893
29.00000 491.494
29.04000 475.677
29.08000 494.043
29.12000 491.449
29.16000 486.646
29.20000 480.933
29.24000 482.224
29.28000 489.373
29.32000 483.240
29.36000 490.591
29.40000 474.755
29.44000 472.335
29.48000 471.930
29.52000 456.698
29.56000 477.296
29.60000 463.318
29.64000 460.557
29.68000 476.728
29.72000 471.277
29.76000 475.855
29.80000 475.443
29.84000 471.903
29.88000 479.030
29.92000 463.521
29.96000 465.609
30.00000 462.808
30.04000 452.206
30.08000 472.735
30.12000 465.850
30.16000 449.576
30.20000 464.113
30.24000 469.678
30.28000 456.630
30.32000 459.482
30.36000 446.321
30.40000 454.375
30.44000 440.423
30.48000 473.236
30.52000 464.649
30.56000 440.822
30.60000 469.975
30.64000 461.809
30.68000 471.564
30.72000 443.995
30.76000 457.565
30.80000 453.030
30.84000 463.794
30.88000 457.845
30.92000 449.722
30.96000 449.985
31.00000 450.956
31.04000 448.230
31.08000 447.372
31.12000 450.151
31.16000 445.894
31.20000 459.176
31.24000 447.440
31.28000 442.604
31.32000 449.448
31.36000 429.957
31.40000 443.063
31.44000 461.604
31.48000 453.146
31.52000 445.082
31.56000 440.008
31.60000 448.712
31.64000 426.156
31.68000 461.265
31.72000 438.558
31.76000 426.885
31.80000 433.796
31.84000 432.137
31.88000 448.312
31.92000 429.974
31.96000 423.256
32.00000 426.621
32.04000 441.093
32.08000 422.167
32.12000 442.638
32.16000 436.947
32.20000 430.820
32.24000 416.595
32.28000 443.024
32.32000 414.642
32.36000 423.644
32.40000 420.438
32.44000 433.845
32.48000 429.605
32.52000 447.086
32.56000 430.696
32.60000 429.653
32.64000 408.697
32.68000 403.441
32.72000 426.651
32.76000 420.474
32.80000 419.367
32.84000 417.738
32.88000 405.839
32.92000 425.557
32.96000 423.624
33.00000 424.685
33.04000 421.432
33.08000 413.111
33.12000 409.808
33.16000 404.615
33.20000 422.541
33.24000 422.667
33.28000 421.660
33.32000 418.629
33.36000 416.503
33.40000 401.965
33.44000 411.989
33.48000 394.256
33.52000 409.261
33.56000 403.033
33.60000 406.581
33.64000 403.957
33.68000 398.619
33.72000 389.758
33.76000 389.942
33.80000 413.226
33.84000 408.747
33.88000 393.233
33.92000 409.724
33.96000 402.957
34.00000 385.264
34.04000 383.452
34.08000 410.915
34.12000 389.984
34.16000 400.993
34.20000 395.915
34.24000 395.201
34.28000 394.792
34.32000 391.018
34.36000 398.765
34.40000 371.918
34.44000 389.555
34.48000 383.348
34.52000 391.310
34.56000 380.751
34.60000 393.096
34.64000 393.377
34.68000 387.876
34.72000 388.719
34.76000 387.199
34.80000 397.369
34.84000 388.915
34.88000 385.145
34.92000 384.778
34.96000 373.236
35.00000 376.310
35.04000 377.808
35.08000 368.006
35.12000 379.683
35.16000 373.849
35.20000 382.137
35.24000 373.033
35.28000 385.572
35.32000 369.977
35.36000 381.022
35.40000 356.146
35.44000 352.294
35.48000 374.176
35.52000 373.084
35.56000 380.946
35.60000 397.759
35.64000 369.443
35.68000 384.840
35.72000 376.560
35.76000 370.667
35.80000 368.841
35.84000 376.474
35.88000 371.466
35.92000 371.494
35.96000 362.805
36.00000 373.288
36.04000 368.638
36.08000 371.003
36.12000 374.261
36.16000 364.360
36.20000 361.425
36.24000 369.720
36.28000 363.881
36.32000 362.873
36.36000 361.763
36.40000 368.308
36.44000 357.085
36.48000 359.568
36.52000 361.138
36.56000 350.578
36.60000 362.968
36.64000 370.209
36.68000 359.352
36.72000 369.263
36.76000 366.429
36.80000 358.031
36.84000 366.839
36.88000 329.613
36.92000 370.144
36.96000 367.738
37.00000 367.282
37.04000 350.158
37.08000 350.727
37.12000 358.999
37.16000 353.389
37.20000 350.163
37.24000 369.139
37.28000 365.802
37.32000 345.133
37.36000 342.558
37.40000 334.548
37.44000 343.641
37.48000 352.943
37.52000 348.303
37.56000 350.299
37.60000 352.304
37.64000 351.935
37.68000 336.325
37.72000 334.791
37.76000 344.409
37.80000 342.677
37.84000 339.331
37.88000 346.664
37.92000 335.632
37.96000 351.494
38.00000 355.125
38.04000 347.445
38.08000 332.158
38.12000 337.714
38.16000 338.570
38.20000 329.723
38.24000 347.899
38.28000 338.562
38.32000 354.817
38.36000 356.468
38.40000 338.658
38.44000 352.055
38.48000 337.605
38.52000 325.071
38.56000 335.990
38.60000 343.762
38.64000 328.785
38.68000 341.611
38.72000 344.243
38.76000 339.671
38.80000 347.180
38.84000 340.756
38.88000 339.543
38.92000 348.147
38.96000 343.581
39.00000 324.979
39.04000 317.620
39.08000 342.058
39.12000 327.462
39.16000 327.386
39.20000 329.175
39.24000 343.076
39.28000 317.749
39.32000 333.474
39.36000 335.380
39.40000 337.759
39.44000 328.127
39.48000 320.021
39.52000 321.188
39.56000 339.635
39.60000 333.849
39.64000 331.525
39.68000 320.962
39.72000 326.477
39.76000 329.598
39.80000 347.210
39.84000 344.803
39.88000 343.084
39.92000 330.834
39.96000 350.126
40.00000 342.986
40.04000 347.510
40.08000 328.581
40.12000 350.559
40.16000 345.764
40.20000 341.911
40.24000 340.496
40.28000 363.140
40.32000 349.251
40.36000 349.032
40.40000 330.108
40.44000 341.279
40.48000 347.163
40.52000 341.945
40.56000 355.702
40.60000 345.220
40.64000 346.491
40.68000 334.403
40.72000 327.236
40.76000 341.045
40.80000 352.065
40.84000 321.604
40.88000 332.658
40.92000 346.954
40.96000 347.338
41.00000 359.676
41.04000 343.569
41.08000 341.254
41.12000 347.492
41.16000 340.955
41.20000 339.774
41.24000 360.445
41.28000 374.749
41.32000 376.753
41.36000 379.677
41.40000 388.391
41.44000 393.960
41.48000 393.517
41.52000 397.140
41.56000 400.614
41.60000 434.483
41.64000 572.892
41.68000 724.015
41.72000 877.854
41.76000 948.516
41.80000 967.507
41.84000 922.760
41.88000 784.285
41.92000 580.951
41.96000 478.350
42.00000 423.885
42.04000 442.569
42.08000 435.944
42.12000 420.548
42.16000 425.461
42.20000 429.295
42.24000 429.295
42.28000 424.860
42.32000 447.607
42.36000 437.838
42.40000 459.135
42.44000 462.374
42.48000 488.683
42.52000 502.377
42.56000 528.216
42.60000 542.731
42.64000 548.464
42.68000 572.840
42.72000 595.572
42.76000 621.214
42.80000 623.845
42.84000 633.347
42.88000 665.039
42.92000 642.631
42.96000 659.644
43.00000 664.953
43.04000 687.724
43.08000 648.206
43.12000 677.512
43.16000 662.960
43.20000 686.973
43.24000 704.544
43.28000 676.060
43.32000 723.547
43.36000 745.821
43.40000 736.116
43.44000 773.104
43.48000 793.046
43.52000 832.678
43.56000 854.619
43.60000 880.790
43.64000 926.804
43.68000 979.726
43.72000 987.432
43.76000 1071.687
43.80000 1133.029
43.84000 1196.166
43.88000 1280.269
43.92000 1358.588
43.96000 1480.583
44.00000 1610.544
44.04000 1758.188
44.08000 1992.324
44.12000 2118.628
44.16000 2430.263
44.20000 2791.108
44.24000 3345.561
44.28000 4267.078
44.32000 5825.004
44.36000 7428.874
44.40000 8566.598
44.44000 9665.652
44.48000 10537.026
44.52000 11004.070
44.56000 11182.081
44.60000 11556.570
44.64000 12397.380
44.68000 13626.646
44.72000 14879.494
44.76000 15432.421
44.80000 15858.443
44.84000 15916.943
44.88000 15473.504
44.92000 14694.319
44.96000 13590.650
45.00000 12420.072
45.04000 11080.188
45.08000 9811.505
45.12000 8464.138
45.16000 7377.878
45.20000 6203.961
45.24000 5263.059
45.28000 4579.583
45.32000 4025.718
45.36000 3591.613
45.40000 3267.986
45.44000 3012.604
45.48000 2775.983
45.52000 2688.915
45.56000 2596.278
45.60000 2513.896
45.64000 2469.538
45.68000 2479.833
45.72000 2488.430
45.76000 2482.875
45.80000 2506.836
45.84000 2587.921
45.88000 2692.123
45.92000 2738.702
45.96000 2885.617
46.00000 3114.446
46.04000 3412.758
46.08000 3893.569
46.12000 4850.513
46.16000 6272.531
46.20000 7901.919
46.24000 11292.736
46.28000 21589.123
46.32000 68837.953
46.36000 164666.516
46.40000 252599.391
46.44000 299874.719
46.48000 337391.094
46.52000 359565.531
46.56000 320350.188
46.60000 235280.828
46.64000 158556.078
46.68000 107507.836
46.72000 61093.313
46.76000 24876.758
46.80000 9381.477
46.84000 6027.712
46.88000 4789.000
46.92000 4006.894
46.96000 3513.225
47.00000 3142.506
47.04000 2872.118
47.08000 2648.929
47.12000 2519.307
47.16000 2366.138
47.20000 2166.393
47.24000 2033.444
47.28000 1931.583
47.32000 1812.467
47.36000 1693.677
47.40000 1606.273
47.44000 1478.628
47.48000 1428.911
47.52000 1340.457
47.56000 1291.558
47.60000 1205.320
47.64000 1159.974
47.68000 1082.693
47.72000 1031.982
47.76000 984.640
47.80000 951.560
47.84000 925.850
47.88000 840.597
47.92000 811.333
47.96000 788.658
48.00000 733.271
48.04000 705.471
48.08000 691.973
48.12000 687.276
48.16000 659.805
48.20000 608.634
48.24000 589.003
48.28000 567.606
48.32000 575.141
48.36000 560.517
48.40000 517.519
48.44000 515.533
48.48000 491.775
48.52000 495.303
48.56000 460.884
48.60000 469.924
48.64000 471.111
48.68000 453.167
48.72000 445.754
48.76000 427.746
48.80000 419.736
48.84000 421.485
48.88000 411.909
48.92000 401.651
48.96000 399.062
49.00000 379.995
49.04000 393.843
49.08000 387.025
49.12000 360.261
49.16000 367.754
49.20000 378.750
49.24000 371.765
49.28000 331.185
49.32000 376.073
49.36000 348.697
49.40000 348.333
49.44000 338.892
49.48000 316.706
49.52000 336.071
49.56000 320.121
49.60000 323.267
49.64000 317.071
49.68000 313.390
49.72000 317.812
49.76000 315.765
49.80000 314.221
49.84000 320.614
49.88000 320.154
49.92000 292.280
49.96000 307.534
50.00000 297.027
50.04000 305.768
50.08000 290.068
50.12000 310.619
50.16000 287.004
50.20000 309.892
50.24000 285.544
50.28000 295.510
50.32000 310.478
50.36000 281.066
50.40000 277.932
50.44000 285.846
50.48000 280.448
50.52000 279.733
50.56000 285.496
50.60000 291.450
50.64000 282.331
50.68000 276.357
50.72000 280.418
50.76000 274.535
50.80000 281.984
50.84000 298.800
50.88000 285.205
50.92000 294.108
50.96000 296.160
51.00000 281.280
51.04000 280.452
51.08000 263.426
51.12000 265.866
51.16000 258.669
51.20000 255.109
51.24000 249.230
51.28000 235.279
51.32000 238.689
51.36000 227.361
51.40000 234.503
51.44000 251.110
51.48000 238.500
51.52000 243.673
51.56000 258.843
51.60000 232.221
51.64000 224.631
51.68000 242.412
51.72000 245.062
51.76000 238.430
51.80000 222.724
51.84000 224.360
51.88000 239.543
51.92000 222.143
51.96000 228.357
52.00000 220.671
52.04000 227.967
52.08000 239.144
52.12000 230.307
52.16000 218.827
52.20000 226.732
52.24000 220.742
52.28000 213.267
52.32000 232.055
52.36000 230.072
52.40000 200.611
52.44000 221.104
52.48000 220.579
52.52000 215.264
52.56000 216.239
52.60000 211.241
52.64000 212.159
52.68000 218.271
52.72000 213.239
52.76000 212.432
52.80000 190.882
52.84000 207.737
52.88000 208.641
52.92000 215.253
52.96000 211.040
53.00000 207.170
53.04000 221.291
53.08000 206.404
53.12000 213.304
53.16000 212.643
53.20000 197.457
53.24000 217.998
53.28000 213.561
53.32000 207.715
53.36000 203.752
53.40000 206.524
53.44000 188.470
53.48000 214.817
53.52000 204.311
53.56000 205.862
53.60000 201.104
53.64000 194.825
53.68000 202.818
53.72000 213.145
53.76000 195.185
53.80000 196.351
53.84000 198.787
53.88000 203.829
53.92000 189.679
53.96000 193.099
54.00000 196.826
54.04000 191.730
54.08000 203.423
54.12000 200.270
54.16000 201.736
54.20000 198.889
54.24000 195.786
54.28000 195.841
54.32000 199.659
54.36000 194.261
54.40000 187.834
54.44000 199.932
54.48000 195.993
54.52000 188.129
54.56000 207.319
54.60000 202.729
54.64000 199.745
54.68000 205.983
54.72000 201.655
54.76000 195.666
54.80000 186.768
54.84000 184.030
54.88000 199.019
54.92000 191.977
54.96000 195.608
55.00000 197.139
55.04000 184.355
55.08000 188.391
55.12000 216.037
55.16000 211.474
55.20000 204.732
55.24000 201.205
55.28000 204.206
55.32000 203.762
55.36000 217.007
55.40000 205.050
55.44000 216.458
55.48000 218.971
55.52000 234.115
55.56000 240.610
55.60000 263.786
55.64000 257.037
55.68000 264.744
55.72000 281.904
55.76000 306.489
55.80000 322.364
55.84000 335.105
55.88000 328.391
55.92000 336.612
55.96000 339.462
56.00000 322.958
56.04000 309.787
56.08000 288.032
56.12000 280.504
56.16000 261.828
56.20000 250.164
56.24000 234.511
56.28000 237.038
56.32000 231.421
56.36000 209.281
56.40000 211.505
56.44000 196.561
56.48000 181.753
56.52000 185.061
56.56000 199.594
56.60000 185.990
56.64000 190.783
56.68000 178.500
56.72000 190.013
56.76000 175.033
56.80000 176.911
56.84000 168.572
56.88000 178.441
56.92000 179.787
56.96000 171.633
57.00000 173.565
57.04000 195.914
57.08000 164.780
57.12000 173.574
57.16000 186.286
57.20000 160.701
57.24000 177.249
57.28000 178.742
57.32000 169.922
57.36000 166.085
57.40000 164.717
57.44000 164.682
57.48000 161.638
57.52000 161.619
57.56000 159.050
57.60000 177.555
57.64000 166.647
57.68000 167.224
57.72000 164.826
57.76000 156.055
57.80000 163.041
57.84000 165.888
57.88000 159.271
57.92000 166.415
57.96000 165.115
58.00000 164.579
58.04000 163.285
58.08000 166.694
58.12000 158.117
58.16000 147.121
58.20000 163.909
58.24000 160.178
58.28000 146.931
58.32000 173.027
58.36000 162.834
58.40000 148.046
58.44000 163.518
58.48000 166.533
58.52000 150.423
58.56000 162.054
58.60000 165.175
58.64000 155.802
58.68000 156.525
58.72000 158.043
58.76000 164.517
58.80000 160.224
58.84000 154.841
58.88000 155.789
58.92000 153.961
58.96000 157.267
59.00000 156.687
59.04000 157.089
59.08000 159.009
59.12000 154.997
59.16000 162.034
59.20000 151.584
59.24000 164.824
59.28000 156.471
59.32000 151.203
59.36000 149.491
59.40000 154.713
59.44000 155.606
59.48000 156.193
59.52000 148.487
59.56000 156.258
59.60000 149.244
59.64000 144.939
59.68000 150.855
59.72000 149.187
59.76000 160.176
59.80000 153.617
59.84000 143.579
59.88000 151.925
59.92000 155.079
59.96000 153.755
60.00000 142.350
60.04000 152.743
60.08000 145.326
60.12000 149.134
60.16000 151.457
60.20000 150.992
60.24000 153.031
60.28000 156.072
60.32000 161.389
60.36000 153.105
60.40000 139.993
60.44000 154.006
60.48000 148.672
60.52000 151.844
60.56000 147.573
60.60000 153.820
60.64000 159.584
60.68000 148.829
60.72000 145.657
60.76000 147.075
60.80000 151.967
60.84000 147.166
60.88000 145.426
60.92000 142.367
60.96000 151.710
61.00000 156.462
61.04000 143.550
61.08000 137.463
61.12000 140.229
61.16000 140.886
61.20000 156.146
61.24000 141.881
61.28000 144.061
61.32000 140.419
61.36000 147.372
61.40000 148.482
61.44000 140.489
61.48000 148.107
61.52000 137.824
61.56000 139.901
61.60000 149.104
61.64000 145.288
61.68000 142.055
61.72000 156.164
61.76000 147.920
61.80000 131.828
61.84000 144.451
61.88000 156.150
61.92000 145.931
61.96000 149.853
62.00000 153.812
62.04000 135.233
62.08000 134.053
62.12000 146.457
62.16000 146.453
62.20000 152.589
62.24000 147.620
62.28000 139.608
62.32000 155.418
62.36000 135.447
62.40000 149.725
62.44000 137.485
62.48000 145.662
62.52000 148.690
62.56000 138.736
62.60000 141.345
62.64000 153.211
62.68000 140.427
62.72000 144.849
62.76000 140.208
62.80000 147.200
62.84000 149.461
62.88000 150.389
62.92000 133.146
62.96000 132.016
63.00000 144.004
63.04000 132.197
63.08000 132.802
63.12000 140.981
63.16000 142.362
63.20000 129.990
63.24000 138.955
63.28000 138.987
63.32000 137.341
63.36000 147.164
63.40000 136.053
63.44000 133.762
63.48000 144.941
63.52000 140.313
63.56000 148.643
63.60000 139.849
63.64000 142.490
63.68000 146.735
63.72000 146.075
63.76000 131.644
63.80000 144.547
63.84000 136.147
63.88000 138.966
63.92000 136.119
63.96000 125.201
64.00000 129.777
64.04000 139.857
64.08000 129.534
64.12000 139.103
64.16000 127.818
64.20000 136.596
64.24000 141.425
64.28000 135.442
64.32000 137.772
64.36000 132.409
64.40000 137.626
64.44000 135.215
64.48000 134.470
64.52000 139.857
64.56000 150.297
64.60000 157.184
64.64000 162.585
64.68000 152.751
64.72000 161.388
64.76000 153.873
64.80000 151.700
64.84000 136.688
64.88000 128.664
64.92000 131.573
64.96000 139.195
65.00000 133.311
65.04000 135.479
65.08000 128.904
65.12000 130.356
65.16000 134.540
65.20000 136.620
65.24000 127.214
65.28000 138.601
65.32000 141.775
65.36000 137.884
65.40000 137.659
65.44000 134.045
65.48000 131.070
65.52000 133.330
65.56000 150.203
65.60000 126.247
65.64000 135.853
65.68000 136.506
65.72000 128.207
65.76000 135.045
65.80000 125.528
65.84000 137.209
65.88000 145.329
65.92000 145.431
65.96000 133.909
66.00000 140.140
66.04000 130.402
66.08000 134.375
66.12000 134.787
66.16000 140.036
66.20000 138.254
66.24000 136.626
66.28000 128.483
66.32000 139.917
66.36000 134.380
66.40000 133.412
66.44000 145.318
66.48000 134.399
66.52000 135.230
66.56000 134.044
66.60000 124.149
66.64000 131.429
66.68000 134.774
66.72000 134.524
66.76000 133.489
66.80000 144.671
66.84000 131.174
66.88000 142.457
66.92000 136.301
66.96000 136.368
67.00000 138.618
67.04000 133.592
67.08000 130.468
67.12000 134.982
67.16000 139.336
67.20000 131.613
67.24000 129.911
67.28000 125.613
67.32000 126.369
67.36000 137.308
67.40000 134.635
67.44000 141.884
67.48000 142.901
67.52000 128.353
67.56000 127.015
67.60000 123.197
67.64000 137.501
67.68000 140.277
67.72000 141.628
67.76000 133.608
67.80000 141.606
67.84000 138.941
67.88000 136.023
67.92000 145.674
67.96000 138.324
68.00000 135.059
68.04000 142.132
68.08000 145.086
68.12000 148.945
68.16000 143.139
68.20000 148.918
68.24000 159.611
68.28000 148.213
68.32000 144.352
68.36000 150.837
68.40000 146.518
68.44000 152.598
68.48000 157.975
68.52000 162.415
68.56000 151.228
68.60000 154.922
68.64000 165.936
68.68000 161.077
68.72000 178.188
68.76000 168.887
68.80000 182.392
68.84000 193.262
68.88000 193.732
68.92000 221.546
68.96000 245.194
69.00000 279.142
69.04000 325.462
69.08000 329.961
69.12000 330.788
69.16000 349.962
69.20000 322.900
69.24000 312.441
69.28000 293.774
69.32000 296.855
69.36000 311.625
69.40000 327.421
69.44000 342.212
69.48000 363.551
69.52000 379.642
69.56000 400.691
69.60000 403.958
69.64000 421.411
69.68000 429.273
69.72000 446.371
69.76000 445.168
69.80000 445.676
69.84000 445.633
69.88000 430.664
69.92000 431.627
69.96000 438.422
70.00000 426.599