File: XRD/XRD/17-09-2025/XY Data/BTO_Mapping_Theta2Theta_09-17-2025_001_26_0-000_15-000.xy
20.00000 560.002
20.04000 556.517
20.08000 564.980
20.12000 576.597
20.16000 565.144
20.20000 542.723
20.24000 555.882
20.28000 554.265
20.32000 577.743
20.36000 554.626
20.40000 539.452
20.44000 553.172
20.48000 550.513
20.52000 533.812
20.56000 536.391
20.60000 528.253
20.64000 558.598
20.68000 546.657
20.72000 538.658
20.76000 544.698
20.80000 540.092
20.84000 552.713
20.88000 552.475
20.92000 536.461
20.96000 531.985
21.00000 548.247
21.04000 541.296
21.08000 554.372
21.12000 560.878
21.16000 525.784
21.20000 540.671
21.24000 556.131
21.28000 545.854
21.32000 524.230
21.36000 554.400
21.40000 532.335
21.44000 536.267
21.48000 540.670
21.52000 538.533
21.56000 524.450
21.60000 545.822
21.64000 531.351
21.68000 558.274
21.72000 565.022
21.76000 579.932
21.80000 579.884
21.84000 603.252
21.88000 654.628
21.92000 678.468
21.96000 708.329
22.00000 721.353
22.04000 737.891
22.08000 764.177
22.12000 761.660
22.16000 714.771
22.20000 675.752
22.24000 644.553
22.28000 582.753
22.32000 598.808
22.36000 578.359
22.40000 525.832
22.44000 533.577
22.48000 551.983
22.52000 544.950
22.56000 534.583
22.60000 539.808
22.64000 531.716
22.68000 508.939
22.72000 506.570
22.76000 498.171
22.80000 507.059
22.84000 512.595
22.88000 523.115
22.92000 522.037
22.96000 518.822
23.00000 490.327
23.04000 503.363
23.08000 495.709
23.12000 517.802
23.16000 502.444
23.20000 515.395
23.24000 510.246
23.28000 496.831
23.32000 489.978
23.36000 502.176
23.40000 494.454
23.44000 489.579
23.48000 486.986
23.52000 506.486
23.56000 493.196
23.60000 479.801
23.64000 502.968
23.68000 483.298
23.72000 510.406
23.76000 503.582
23.80000 503.240
23.84000 505.959
23.88000 481.142
23.92000 493.646
23.96000 498.610
24.00000 475.006
24.04000 491.590
24.08000 477.101
24.12000 484.444
24.16000 503.882
24.20000 478.499
24.24000 490.771
24.28000 480.590
24.32000 512.230
24.36000 478.168
24.40000 478.378
24.44000 457.726
24.48000 483.631
24.52000 472.856
24.56000 466.981
24.60000 478.623
24.64000 480.480
24.68000 485.781
24.72000 482.836
24.76000 468.968
24.80000 475.345
24.84000 472.020
24.88000 490.744
24.92000 467.184
24.96000 462.360
25.00000 469.193
25.04000 483.686
25.08000 476.533
25.12000 480.104
25.16000 472.416
25.20000 458.006
25.24000 459.676
25.28000 462.787
25.32000 463.855
25.36000 456.094
25.40000 462.033
25.44000 456.895
25.48000 474.997
25.52000 463.366
25.56000 454.777
25.60000 467.333
25.64000 459.892
25.68000 479.204
25.72000 447.824
25.76000 434.628
25.80000 472.102
25.84000 456.852
25.88000 474.567
25.92000 476.214
25.96000 449.859
26.00000 464.070
26.04000 457.436
26.08000 462.276
26.12000 460.174
26.16000 444.590
26.20000 453.073
26.24000 462.815
26.28000 446.072
26.32000 445.818
26.36000 448.953
26.40000 449.104
26.44000 452.494
26.48000 454.539
26.52000 439.398
26.56000 450.691
26.60000 437.542
26.64000 448.254
26.68000 447.887
26.72000 453.438
26.76000 436.201
26.80000 445.990
26.84000 434.343
26.88000 455.934
26.92000 433.604
26.96000 446.013
27.00000 453.825
27.04000 445.541
27.08000 427.874
27.12000 445.126
27.16000 424.256
27.20000 422.861
27.24000 430.321
27.28000 434.765
27.32000 450.857
27.36000 445.791
27.40000 434.334
27.44000 441.635
27.48000 428.861
27.52000 443.993
27.56000 427.103
27.60000 432.438
27.64000 437.084
27.68000 428.173
27.72000 435.566
27.76000 423.286
27.80000 423.968
27.84000 433.237
27.88000 422.701
27.92000 426.608
27.96000 430.628
28.00000 428.834
28.04000 434.697
28.08000 425.802
28.12000 433.447
28.16000 420.197
28.20000 435.055
28.24000 431.997
28.28000 421.444
28.32000 437.077
28.36000 431.798
28.40000 440.259
28.44000 424.604
28.48000 427.336
28.52000 419.870
28.56000 418.751
28.60000 408.455
28.64000 425.273
28.68000 438.496
28.72000 429.587
28.76000 414.542
28.80000 413.701
28.84000 405.784
28.88000 438.102
28.92000 427.003
28.96000 418.851
29.00000 414.612
29.04000 420.950
29.08000 413.359
29.12000 426.469
29.16000 409.512
29.20000 425.327
29.24000 411.747
29.28000 400.955
29.32000 417.174
29.36000 415.987
29.40000 386.005
29.44000 419.462
29.48000 398.437
29.52000 410.480
29.56000 407.377
29.60000 400.357
29.64000 402.477
29.68000 403.853
29.72000 408.214
29.76000 423.377
29.80000 407.417
29.84000 425.599
29.88000 421.264
29.92000 442.905
29.96000 447.423
30.00000 440.155
30.04000 436.865
30.08000 433.312
30.12000 453.631
30.16000 426.496
30.20000 435.368
30.24000 438.255
30.28000 425.076
30.32000 424.249
30.36000 431.567
30.40000 426.597
30.44000 417.684
30.48000 424.167
30.52000 445.581
30.56000 449.634
30.60000 430.231
30.64000 461.439
30.68000 434.307
30.72000 427.243
30.76000 424.651
30.80000 456.317
30.84000 467.041
30.88000 479.195
30.92000 525.443
30.96000 506.712
31.00000 557.234
31.04000 619.238
31.08000 760.805
31.12000 948.384
31.16000 1205.676
31.20000 1609.598
31.24000 2103.926
31.28000 2706.277
31.32000 3265.509
31.36000 3632.392
31.40000 3672.388
31.44000 3478.723
31.48000 3084.566
31.52000 2484.854
31.56000 1855.849
31.60000 1347.656
31.64000 983.976
31.68000 766.052
31.72000 624.337
31.76000 560.262
31.80000 508.715
31.84000 480.379
31.88000 449.306
31.92000 426.587
31.96000 441.095
32.00000 427.291
32.04000 404.416
32.08000 428.770
32.12000 428.836
32.16000 410.388
32.20000 392.327
32.24000 398.109
32.28000 399.096
32.32000 397.759
32.36000 384.835
32.40000 391.742
32.44000 389.695
32.48000 371.331
32.52000 388.872
32.56000 384.831
32.60000 385.161
32.64000 388.804
32.68000 367.141
32.72000 361.658
32.76000 371.330
32.80000 365.774
32.84000 351.978
32.88000 353.009
32.92000 359.017
32.96000 353.324
33.00000 364.129
33.04000 354.528
33.08000 349.057
33.12000 329.202
33.16000 352.095
33.20000 343.477
33.24000 342.077
33.28000 340.635
33.32000 333.800
33.36000 355.409
33.40000 352.776
33.44000 341.576
33.48000 337.103
33.52000 335.477
33.56000 340.256
33.60000 333.204
33.64000 335.826
33.68000 334.027
33.72000 344.175
33.76000 328.779
33.80000 322.428
33.84000 326.642
33.88000 338.219
33.92000 323.115
33.96000 320.384
34.00000 323.824
34.04000 340.547
34.08000 330.408
34.12000 317.460
34.16000 326.220
34.20000 325.784
34.24000 318.624
34.28000 338.270
34.32000 320.279
34.36000 314.612
34.40000 329.884
34.44000 344.055
34.48000 336.098
34.52000 321.876
34.56000 324.428
34.60000 339.371
34.64000 331.116
34.68000 324.863
34.72000 320.364
34.76000 316.105
34.80000 333.332
34.84000 325.038
34.88000 314.287
34.92000 319.117
34.96000 319.990
35.00000 320.690
35.04000 310.347
35.08000 306.452
35.12000 311.191
35.16000 310.964
35.20000 314.333
35.24000 316.463
35.28000 320.302
35.32000 309.865
35.36000 312.374
35.40000 303.507
35.44000 314.946
35.48000 314.238
35.52000 311.671
35.56000 309.888
35.60000 309.622
35.64000 304.055
35.68000 315.594
35.72000 305.500
35.76000 312.719
35.80000 321.511
35.84000 324.393
35.88000 300.483
35.92000 300.841
35.96000 308.607
36.00000 293.370
36.04000 303.864
36.08000 307.937
36.12000 296.292
36.16000 302.283
36.20000 304.148
36.24000 311.574
36.28000 292.595
36.32000 295.277
36.36000 309.084
36.40000 295.956
36.44000 279.413
36.48000 294.194
36.52000 304.692
36.56000 290.780
36.60000 295.346
36.64000 300.084
36.68000 295.338
36.72000 285.886
36.76000 282.830
36.80000 305.448
36.84000 287.382
36.88000 306.018
36.92000 299.810
36.96000 301.711
37.00000 305.527
37.04000 302.179
37.08000 297.754
37.12000 302.625
37.16000 299.140
37.20000 306.868
37.24000 301.919
37.28000 286.090
37.32000 296.530
37.36000 299.659
37.40000 298.628
37.44000 288.737
37.48000 287.021
37.52000 287.551
37.56000 303.977
37.60000 288.707
37.64000 294.663
37.68000 295.099
37.72000 291.425
37.76000 281.099
37.80000 281.685
37.84000 288.968
37.88000 291.360
37.92000 286.874
37.96000 291.575
38.00000 281.256
38.04000 300.953
38.08000 280.766
38.12000 303.922
38.16000 301.747
38.20000 313.012
38.24000 300.349
38.28000 322.606
38.32000 325.911
38.36000 329.762
38.40000 343.317
38.44000 375.548
38.48000 433.344
38.52000 461.110
38.56000 555.848
38.60000 634.821
38.64000 746.683
38.68000 798.619
38.72000 861.183
38.76000 817.166
38.80000 788.312
38.84000 704.618
38.88000 610.955
38.92000 500.697
38.96000 438.166
39.00000 374.360
39.04000 324.885
39.08000 312.728
39.12000 298.360
39.16000 290.932
39.20000 276.919
39.24000 280.222
39.28000 286.688
39.32000 294.025
39.36000 262.188
39.40000 279.762
39.44000 272.652
39.48000 269.861
39.52000 260.340
39.56000 256.492
39.60000 269.747
39.64000 267.405
39.68000 250.251
39.72000 246.294
39.76000 267.636
39.80000 265.440
39.84000 278.189
39.88000 251.935
39.92000 265.121
39.96000 251.300
40.00000 264.930
40.04000 276.691
40.08000 258.855
40.12000 262.177
40.16000 272.612
40.20000 258.737
40.24000 241.894
40.28000 268.028
40.32000 241.422
40.36000 249.486
40.40000 256.257
40.44000 247.889
40.48000 252.373
40.52000 252.135
40.56000 250.646
40.60000 241.504
40.64000 260.875
40.68000 247.460
40.72000 253.514
40.76000 256.391
40.80000 238.551
40.84000 243.186
40.88000 258.895
40.92000 241.702
40.96000 247.387
41.00000 254.444
41.04000 256.909
41.08000 245.122
41.12000 237.182
41.16000 236.791
41.20000 221.574
41.24000 246.910
41.28000 244.793
41.32000 231.952
41.36000 243.610
41.40000 241.364
41.44000 237.889
41.48000 250.160
41.52000 232.167
41.56000 235.768
41.60000 239.687
41.64000 248.417
41.68000 237.957
41.72000 239.569
41.76000 235.787
41.80000 231.647
41.84000 233.200
41.88000 250.173
41.92000 226.222
41.96000 230.735
42.00000 247.437
42.04000 248.810
42.08000 231.576
42.12000 235.455
42.16000 237.070
42.20000 239.934
42.24000 232.430
42.28000 223.896
42.32000 227.464
42.36000 233.681
42.40000 234.710
42.44000 233.233
42.48000 232.653
42.52000 234.001
42.56000 236.510
42.60000 244.379
42.64000 235.846
42.68000 235.301
42.72000 233.938
42.76000 230.738
42.80000 228.043
42.84000 225.355
42.88000 237.617
42.92000 235.757
42.96000 237.696
43.00000 236.787
43.04000 231.664
43.08000 236.690
43.12000 229.586
43.16000 205.433
43.20000 218.620
43.24000 222.194
43.28000 220.482
43.32000 220.245
43.36000 231.471
43.40000 222.562
43.44000 225.875
43.48000 222.067
43.52000 217.731
43.56000 228.464
43.60000 213.880
43.64000 214.415
43.68000 222.573
43.72000 222.386
43.76000 227.638
43.80000 216.592
43.84000 214.823
43.88000 226.540
43.92000 222.126
43.96000 215.369
44.00000 218.818
44.04000 220.999
44.08000 218.936
44.12000 217.913
44.16000 212.730
44.20000 199.966
44.24000 225.490
44.28000 215.382
44.32000 218.489
44.36000 221.813
44.40000 203.960
44.44000 225.666
44.48000 224.059
44.52000 223.556
44.56000 227.148
44.60000 231.366
44.64000 235.619
44.68000 219.898
44.72000 232.016
44.76000 251.999
44.80000 258.538
44.84000 274.890
44.88000 286.258
44.92000 326.410
44.96000 358.445
45.00000 355.110
45.04000 392.004
45.08000 412.800
45.12000 424.507
45.16000 405.998
45.20000 380.498
45.24000 374.409
45.28000 342.243
45.32000 308.478
45.36000 284.084
45.40000 264.967
45.44000 245.734
45.48000 242.028
45.52000 248.016
45.56000 247.681
45.60000 231.647
45.64000 220.660
45.68000 226.375
45.72000 216.469
45.76000 226.498
45.80000 210.911
45.84000 215.244
45.88000 201.841
45.92000 221.181
45.96000 197.801
46.00000 203.699
46.04000 199.299
46.08000 210.359
46.12000 208.351
46.16000 201.332
46.20000 209.985
46.24000 202.528
46.28000 203.048
46.32000 200.362
46.36000 211.745
46.40000 205.791
46.44000 212.131
46.48000 200.777
46.52000 194.818
46.56000 214.016
46.60000 198.296
46.64000 209.038
46.68000 206.146
46.72000 198.130
46.76000 209.635
46.80000 203.456
46.84000 191.929
46.88000 196.391
46.92000 190.447
46.96000 193.133
47.00000 193.916
47.04000 188.909
47.08000 190.899
47.12000 184.623
47.16000 189.755
47.20000 181.798
47.24000 179.625
47.28000 190.268
47.32000 185.052
47.36000 188.418
47.40000 180.474
47.44000 187.422
47.48000 192.061
47.52000 192.771
47.56000 186.613
47.60000 180.269
47.64000 189.706
47.68000 187.849
47.72000 183.670
47.76000 193.552
47.80000 181.901
47.84000 194.436
47.88000 179.507
47.92000 182.605
47.96000 197.099
48.00000 191.911
48.04000 190.115
48.08000 186.499
48.12000 187.399
48.16000 189.205
48.20000 172.067
48.24000 180.178
48.28000 175.441
48.32000 180.865
48.36000 182.531
48.40000 188.238
48.44000 164.326
48.48000 187.114
48.52000 177.816
48.56000 180.332
48.60000 191.866
48.64000 180.402
48.68000 167.772
48.72000 181.260
48.76000 181.686
48.80000 183.011
48.84000 165.040
48.88000 178.449
48.92000 177.133
48.96000 176.526
49.00000 181.429
49.04000 186.686
49.08000 173.864
49.12000 188.520
49.16000 176.912
49.20000 172.713
49.24000 179.389
49.28000 179.998
49.32000 177.214
49.36000 168.581
49.40000 180.563
49.44000 174.574
49.48000 184.513
49.52000 179.757
49.56000 183.595
49.60000 172.138
49.64000 174.579
49.68000 159.124
49.72000 177.165
49.76000 183.245
49.80000 171.762
49.84000 171.521
49.88000 169.342
49.92000 178.097
49.96000 169.210
50.00000 180.826
50.04000 174.714
50.08000 178.326
50.12000 185.636
50.16000 178.213
50.20000 187.111
50.24000 178.310
50.28000 182.125
50.32000 182.867
50.36000 202.700
50.40000 187.616
50.44000 198.316
50.48000 220.156
50.52000 217.234
50.56000 229.467
50.60000 242.205
50.64000 261.635
50.68000 281.386
50.72000 271.707
50.76000 275.676
50.80000 278.238
50.84000 257.560
50.88000 226.817
50.92000 232.820
50.96000 208.702
51.00000 207.439
51.04000 185.105
51.08000 188.735
51.12000 195.701
51.16000 167.691
51.20000 175.672
51.24000 168.388
51.28000 168.941
51.32000 173.295
51.36000 180.962
51.40000 161.725
51.44000 155.518
51.48000 162.953
51.52000 164.023
51.56000 165.239
51.60000 165.252
51.64000 165.386
51.68000 174.539
51.72000 158.847
51.76000 167.695
51.80000 160.205
51.84000 158.598
51.88000 158.010
51.92000 169.122
51.96000 160.388
52.00000 164.296
52.04000 167.154
52.08000 162.848
52.12000 167.223
52.16000 160.041
52.20000 154.871
52.24000 154.587
52.28000 162.964
52.32000 166.162
52.36000 154.453
52.40000 163.489
52.44000 156.960
52.48000 162.433
52.52000 164.330
52.56000 156.815
52.60000 141.999
52.64000 149.876
52.68000 144.993
52.72000 168.098
52.76000 163.456
52.80000 154.454
52.84000 162.808
52.88000 165.872
52.92000 151.803
52.96000 151.040
53.00000 164.270
53.04000 163.185
53.08000 146.543
53.12000 155.810
53.16000 167.687
53.20000 158.121
53.24000 157.192
53.28000 162.218
53.32000 160.247
53.36000 165.406
53.40000 171.611
53.44000 157.084
53.48000 165.166
53.52000 163.424
53.56000 159.216
53.60000 149.380
53.64000 157.784
53.68000 149.564
53.72000 145.251
53.76000 162.666
53.80000 144.263
53.84000 157.706
53.88000 158.079
53.92000 165.457
53.96000 155.760
54.00000 148.860
54.04000 153.699
54.08000 148.312
54.12000 153.127
54.16000 151.901
54.20000 152.016
54.24000 157.808
54.28000 160.660
54.32000 155.519
54.36000 149.926
54.40000 145.913
54.44000 156.555
54.48000 157.959
54.52000 150.669
54.56000 154.224
54.60000 158.717
54.64000 149.228
54.68000 152.752
54.72000 160.136
54.76000 153.265
54.80000 152.264
54.84000 149.682
54.88000 150.630
54.92000 163.003
54.96000 156.096
55.00000 153.262
55.04000 144.808
55.08000 163.231
55.12000 167.378
55.16000 160.016
55.20000 166.647
55.24000 168.917
55.28000 170.083
55.32000 161.461
55.36000 157.411
55.40000 172.906
55.44000 178.423
55.48000 186.835
55.52000 199.063
55.56000 203.102
55.60000 223.318
55.64000 247.265
55.68000 280.301
55.72000 323.133
55.76000 368.660
55.80000 466.125
55.84000 529.391
55.88000 582.540
55.92000 626.590
55.96000 662.346
56.00000 637.595
56.04000 607.070
56.08000 539.626
56.12000 456.486
56.16000 410.522
56.20000 326.754
56.24000 301.168
56.28000 249.303
56.32000 222.158
56.36000 197.211
56.40000 188.195
56.44000 186.219
56.48000 160.605
56.52000 164.139
56.56000 167.725
56.60000 167.983
56.64000 157.328
56.68000 148.089
56.72000 159.074
56.76000 145.262
56.80000 148.359
56.84000 157.350
56.88000 147.620
56.92000 155.071
56.96000 148.524
57.00000 150.959
57.04000 144.477
57.08000 149.373
57.12000 145.097
57.16000 139.815
57.20000 135.834
57.24000 156.007
57.28000 134.858
57.32000 145.807
57.36000 155.197
57.40000 152.066
57.44000 136.202
57.48000 140.187
57.52000 148.479
57.56000 151.187
57.60000 156.445
57.64000 138.918
57.68000 136.670
57.72000 142.737
57.76000 149.503
57.80000 142.168
57.84000 133.859
57.88000 142.946
57.92000 152.454
57.96000 145.666
58.00000 140.130
58.04000 147.526
58.08000 135.477
58.12000 142.385
58.16000 133.998
58.20000 148.944
58.24000 144.023
58.28000 123.012
58.32000 129.515
58.36000 132.353
58.40000 135.428
58.44000 132.945
58.48000 133.517
58.52000 133.938
58.56000 143.530
58.60000 134.110
58.64000 127.580
58.68000 139.594
58.72000 131.612
58.76000 123.612
58.80000 133.799
58.84000 132.639
58.88000 144.072
58.92000 140.234
58.96000 144.702
59.00000 133.941
59.04000 138.747
59.08000 124.485
59.12000 131.391
59.16000 128.471
59.20000 132.658
59.24000 129.123
59.28000 126.809
59.32000 131.337
59.36000 130.958
59.40000 126.934
59.44000 137.329
59.48000 128.514
59.52000 135.469
59.56000 128.325
59.60000 134.508
59.64000 124.552
59.68000 131.170
59.72000 136.854
59.76000 145.188
59.80000 130.185
59.84000 138.251
59.88000 132.302
59.92000 143.040
59.96000 134.030
60.00000 137.696
60.04000 131.464
60.08000 132.037
60.12000 127.579
60.16000 130.081
60.20000 136.853
60.24000 125.965
60.28000 132.017
60.32000 137.466
60.36000 122.449
60.40000 128.315
60.44000 126.349
60.48000 133.348
60.52000 130.221
60.56000 137.234
60.60000 135.083
60.64000 135.263
60.68000 146.714
60.72000 134.951
60.76000 125.827
60.80000 121.177
60.84000 134.638
60.88000 135.493
60.92000 133.428
60.96000 132.601
61.00000 134.948
61.04000 133.376
61.08000 128.344
61.12000 139.159
61.16000 139.996
61.20000 134.601
61.24000 140.716
61.28000 136.114
61.32000 135.080
61.36000 133.073
61.40000 142.617
61.44000 138.451
61.48000 154.207
61.52000 182.053
61.56000 203.370
61.60000 264.796
61.64000 282.142
61.68000 293.707
61.72000 315.694
61.76000 285.512
61.80000 240.760
61.84000 182.197
61.88000 159.847
61.92000 156.266
61.96000 137.843
62.00000 140.274
62.04000 143.056
62.08000 149.060
62.12000 133.901
62.16000 142.249
62.20000 134.214
62.24000 141.845
62.28000 149.690
62.32000 138.353
62.36000 152.096
62.40000 139.302
62.44000 149.051
62.48000 141.479
62.52000 145.946
62.56000 148.829
62.60000 148.212
62.64000 144.181
62.68000 139.279
62.72000 142.387
62.76000 139.282
62.80000 142.929
62.84000 147.704
62.88000 152.211
62.92000 137.130
62.96000 150.542
63.00000 144.130
63.04000 150.124
63.08000 145.383
63.12000 146.035
63.16000 150.090
63.20000 148.061
63.24000 146.576
63.28000 136.813
63.32000 150.356
63.36000 152.101
63.40000 145.885
63.44000 156.250
63.48000 143.320
63.52000 157.852
63.56000 151.759
63.60000 144.996
63.64000 145.112
63.68000 151.658
63.72000 143.359
63.76000 146.505
63.80000 154.039
63.84000 142.989
63.88000 148.949
63.92000 157.020
63.96000 165.490
64.00000 161.492
64.04000 154.776
64.08000 163.077
64.12000 156.325
64.16000 154.703
64.20000 154.849
64.24000 162.177
64.28000 155.346
64.32000 158.670
64.36000 165.386
64.40000 160.986
64.44000 164.461
64.48000 177.164
64.52000 183.006
64.56000 182.028
64.60000 175.300
64.64000 167.280
64.68000 167.842
64.72000 174.603
64.76000 179.616
64.80000 177.385
64.84000 181.072
64.88000 170.812
64.92000 177.635
64.96000 187.898
65.00000 177.723
65.04000 201.319
65.08000 204.637
65.12000 215.082
65.16000 229.638
65.20000 217.280
65.24000 240.665
65.28000 274.018
65.32000 272.080
65.36000 314.423
65.40000 324.968
65.44000 361.539
65.48000 380.961
65.52000 403.530
65.56000 435.509
65.60000 465.081
65.64000 502.094
65.68000 558.052
65.72000 714.830
65.76000 912.801
65.80000 1101.093
65.84000 1226.410
65.88000 1227.218
65.92000 1158.370
65.96000 979.511
66.00000 709.508
66.04000 460.198
66.08000 390.106
66.12000 306.457
66.16000 326.326
66.20000 315.487
66.24000 315.110
66.28000 350.242
66.32000 418.073
66.36000 447.365
66.40000 449.906
66.44000 477.184
66.48000 472.424
66.52000 429.196
66.56000 373.196
66.60000 343.118
66.64000 337.296
66.68000 322.635
66.72000 316.505
66.76000 328.038
66.80000 328.412
66.84000 332.553
66.88000 335.660
66.92000 353.377
66.96000 338.476
67.00000 358.899
67.04000 352.613
67.08000 362.987
67.12000 361.586
67.16000 368.759
67.20000 396.779
67.24000 388.655
67.28000 392.384
67.32000 397.277
67.36000 402.862
67.40000 411.677
67.44000 420.261
67.48000 416.596
67.52000 448.413
67.56000 449.829
67.60000 458.968
67.64000 488.657
67.68000 465.702
67.72000 478.973
67.76000 512.830
67.80000 532.306
67.84000 505.106
67.88000 522.809
67.92000 521.810
67.96000 529.971
68.00000 558.713
68.04000 565.410
68.08000 601.680
68.12000 592.021
68.16000 595.975
68.20000 637.023
68.24000 643.115
68.28000 637.023
68.32000 679.937
68.36000 700.885
68.40000 747.564
68.44000 750.376
68.48000 802.848
68.52000 867.398
68.56000 932.941
68.60000 1033.779
68.64000 1279.659
68.68000 1491.076
68.72000 1740.657
68.76000 1967.518
68.80000 2232.560
68.84000 2667.036
68.88000 3434.490
68.92000 6240.643
68.96000 16386.953
69.00000 37178.352
69.04000 58785.379
69.08000 69677.734
69.12000 71870.234
69.16000 73942.172
69.20000 73741.820
69.24000 61644.594
69.28000 47223.113
69.32000 38632.551
69.36000 34434.895
69.40000 28232.789
69.44000 16950.658
69.48000 7795.604
69.52000 3353.138
69.56000 2103.002
69.60000 1616.520
69.64000 1410.177
69.68000 1219.401
69.72000 1122.094
69.76000 990.858
69.80000 925.530
69.84000 883.530
69.88000 814.135
69.92000 766.046
69.96000 753.081
70.00000 748.810