File: XRD/XRD/17-09-2025/XY Data/BTO_Mapping_Theta2Theta_09-17-2025_001_32_0-000_30-000.xy
20.00000 552.904
20.04000 551.067
20.08000 562.179
20.12000 540.279
20.16000 560.419
20.20000 551.604
20.24000 563.279
20.28000 538.039
20.32000 546.184
20.36000 541.900
20.40000 554.110
20.44000 559.441
20.48000 540.682
20.52000 547.794
20.56000 551.343
20.60000 551.549
20.64000 539.849
20.68000 555.226
20.72000 553.105
20.76000 539.410
20.80000 553.735
20.84000 547.155
20.88000 551.576
20.92000 567.781
20.96000 546.786
21.00000 566.686
21.04000 554.278
21.08000 535.476
21.12000 526.000
21.16000 555.134
21.20000 540.976
21.24000 547.703
21.28000 544.154
21.32000 552.821
21.36000 547.416
21.40000 536.168
21.44000 545.404
21.48000 537.489
21.52000 546.166
21.56000 546.971
21.60000 546.022
21.64000 533.736
21.68000 550.577
21.72000 562.713
21.76000 562.329
21.80000 562.479
21.84000 574.240
21.88000 617.318
21.92000 617.297
21.96000 648.725
22.00000 670.576
22.04000 682.451
22.08000 695.656
22.12000 691.844
22.16000 677.123
22.20000 668.569
22.24000 629.763
22.28000 597.407
22.32000 572.223
22.36000 560.817
22.40000 553.540
22.44000 542.769
22.48000 529.038
22.52000 545.597
22.56000 539.513
22.60000 522.705
22.64000 547.365
22.68000 523.482
22.72000 522.217
22.76000 503.034
22.80000 525.181
22.84000 513.314
22.88000 511.523
22.92000 508.310
22.96000 509.337
23.00000 545.362
23.04000 513.240
23.08000 521.405
23.12000 512.298
23.16000 495.457
23.20000 497.064
23.24000 498.701
23.28000 511.000
23.32000 524.207
23.36000 519.739
23.40000 495.397
23.44000 495.314
23.48000 481.751
23.52000 489.542
23.56000 497.683
23.60000 476.731
23.64000 499.907
23.68000 499.131
23.72000 502.450
23.76000 495.815
23.80000 477.162
23.84000 476.454
23.88000 501.402
23.92000 478.761
23.96000 505.097
24.00000 493.800
24.04000 481.823
24.08000 481.297
24.12000 487.422
24.16000 490.385
24.20000 484.695
24.24000 472.057
24.28000 455.513
24.32000 470.575
24.36000 507.399
24.40000 473.747
24.44000 460.351
24.48000 487.350
24.52000 482.523
24.56000 471.435
24.60000 492.304
24.64000 467.275
24.68000 478.561
24.72000 475.648
24.76000 467.108
24.80000 470.538
24.84000 496.872
24.88000 466.371
24.92000 446.006
24.96000 445.176
25.00000 464.271
25.04000 466.668
25.08000 487.112
25.12000 473.294
25.16000 466.806
25.20000 456.728
25.24000 469.671
25.28000 480.170
25.32000 463.640
25.36000 463.139
25.40000 464.225
25.44000 473.245
25.48000 474.612
25.52000 470.414
25.56000 445.937
25.60000 473.182
25.64000 460.023
25.68000 457.265
25.72000 464.044
25.76000 465.802
25.80000 476.496
25.84000 457.281
25.88000 460.208
25.92000 468.628
25.96000 450.529
26.00000 460.417
26.04000 446.442
26.08000 443.959
26.12000 472.289
26.16000 457.571
26.20000 449.663
26.24000 464.093
26.28000 447.923
26.32000 468.902
26.36000 444.640
26.40000 449.455
26.44000 439.093
26.48000 452.157
26.52000 454.500
26.56000 438.313
26.60000 442.077
26.64000 449.317
26.68000 452.504
26.72000 446.641
26.76000 444.332
26.80000 447.421
26.84000 431.126
26.88000 433.773
26.92000 429.146
26.96000 451.312
27.00000 447.764
27.04000 435.024
27.08000 442.911
27.12000 421.963
27.16000 424.958
27.20000 430.869
27.24000 426.357
27.28000 434.699
27.32000 425.479
27.36000 428.478
27.40000 435.670
27.44000 447.886
27.48000 411.046
27.52000 429.847
27.56000 434.013
27.60000 435.867
27.64000 439.433
27.68000 428.098
27.72000 423.915
27.76000 421.729
27.80000 424.032
27.84000 426.099
27.88000 417.690
27.92000 431.462
27.96000 415.811
28.00000 437.167
28.04000 433.899
28.08000 427.306
28.12000 423.734
28.16000 415.476
28.20000 437.967
28.24000 426.426
28.28000 452.474
28.32000 436.554
28.36000 447.075
28.40000 430.725
28.44000 417.239
28.48000 440.506
28.52000 435.911
28.56000 408.433
28.60000 420.626
28.64000 410.233
28.68000 406.652
28.72000 413.314
28.76000 409.237
28.80000 413.379
28.84000 416.111
28.88000 409.851
28.92000 408.468
28.96000 404.481
29.00000 407.634
29.04000 415.530
29.08000 399.166
29.12000 418.540
29.16000 409.038
29.20000 398.872
29.24000 398.229
29.28000 417.553
29.32000 411.865
29.36000 411.433
29.40000 409.735
29.44000 401.397
29.48000 398.331
29.52000 395.529
29.56000 409.580
29.60000 425.604
29.64000 418.605
29.68000 407.935
29.72000 401.100
29.76000 412.687
29.80000 407.490
29.84000 436.235
29.88000 441.192
29.92000 449.899
29.96000 445.906
30.00000 464.391
30.04000 468.340
30.08000 445.070
30.12000 452.461
30.16000 438.286
30.20000 427.180
30.24000 438.524
30.28000 424.355
30.32000 424.278
30.36000 424.430
30.40000 413.893
30.44000 423.116
30.48000 423.875
30.52000 440.230
30.56000 415.209
30.60000 440.968
30.64000 425.855
30.68000 421.640
30.72000 430.644
30.76000 434.894
30.80000 466.820
30.84000 469.248
30.88000 463.527
30.92000 491.295
30.96000 523.926
31.00000 539.280
31.04000 619.214
31.08000 670.531
31.12000 853.268
31.16000 1080.960
31.20000 1474.589
31.24000 1934.001
31.28000 2504.285
31.32000 3050.148
31.36000 3478.591
31.40000 3711.177
31.44000 3627.092
31.48000 3300.117
31.52000 2707.870
31.56000 2098.145
31.60000 1538.881
31.64000 1158.612
31.68000 835.677
31.72000 670.759
31.76000 565.116
31.80000 506.510
31.84000 473.882
31.88000 445.292
31.92000 444.296
31.96000 437.537
32.00000 428.804
32.04000 425.258
32.08000 414.941
32.12000 398.987
32.16000 399.959
32.20000 380.682
32.24000 402.000
32.28000 394.044
32.32000 396.037
32.36000 399.077
32.40000 402.888
32.44000 384.776
32.48000 381.910
32.52000 384.584
32.56000 380.703
32.60000 384.514
32.64000 358.464
32.68000 370.339
32.72000 351.008
32.76000 350.010
32.80000 361.091
32.84000 357.794
32.88000 357.487
32.92000 354.166
32.96000 341.500
33.00000 342.421
33.04000 370.156
33.08000 343.444
33.12000 349.617
33.16000 345.525
33.20000 335.438
33.24000 329.462
33.28000 327.959
33.32000 343.694
33.36000 353.899
33.40000 342.993
33.44000 331.439
33.48000 331.650
33.52000 324.010
33.56000 334.734
33.60000 324.256
33.64000 338.236
33.68000 338.020
33.72000 332.989
33.76000 339.539
33.80000 336.482
33.84000 330.988
33.88000 333.347
33.92000 340.893
33.96000 345.225
34.00000 328.560
34.04000 320.985
34.08000 335.352
34.12000 322.503
34.16000 316.999
34.20000 333.739
34.24000 331.784
34.28000 350.925
34.32000 325.891
34.36000 328.544
34.40000 323.950
34.44000 317.436
34.48000 321.279
34.52000 328.396
34.56000 331.572
34.60000 319.699
34.64000 313.701
34.68000 322.778
34.72000 317.948
34.76000 328.537
34.80000 347.277
34.84000 311.962
34.88000 321.039
34.92000 321.972
34.96000 306.662
35.00000 318.827
35.04000 312.403
35.08000 313.575
35.12000 319.177
35.16000 313.462
35.20000 294.284
35.24000 312.737
35.28000 319.688
35.32000 310.670
35.36000 301.245
35.40000 295.247
35.44000 307.193
35.48000 313.038
35.52000 315.143
35.56000 305.666
35.60000 298.983
35.64000 301.765
35.68000 301.045
35.72000 299.218
35.76000 306.112
35.80000 311.106
35.84000 292.997
35.88000 292.122
35.92000 300.777
35.96000 292.665
36.00000 303.283
36.04000 313.127
36.08000 316.623
36.12000 302.656
36.16000 305.252
36.20000 295.570
36.24000 294.821
36.28000 289.479
36.32000 301.362
36.36000 304.185
36.40000 304.927
36.44000 294.179
36.48000 275.159
36.52000 289.893
36.56000 296.511
36.60000 292.403
36.64000 294.109
36.68000 285.443
36.72000 303.032
36.76000 274.740
36.80000 298.921
36.84000 297.975
36.88000 293.217
36.92000 310.016
36.96000 300.841
37.00000 305.745
37.04000 311.700
37.08000 287.415
37.12000 301.541
37.16000 300.281
37.20000 284.737
37.24000 301.198
37.28000 293.212
37.32000 284.239
37.36000 285.527
37.40000 295.791
37.44000 294.255
37.48000 292.789
37.52000 295.369
37.56000 276.987
37.60000 292.724
37.64000 296.535
37.68000 288.745
37.72000 291.365
37.76000 284.947
37.80000 283.849
37.84000 285.952
37.88000 291.106
37.92000 293.134
37.96000 297.898
38.00000 282.500
38.04000 296.651
38.08000 295.875
38.12000 296.318
38.16000 291.240
38.20000 289.760
38.24000 284.692
38.28000 306.629
38.32000 312.498
38.36000 327.820
38.40000 318.424
38.44000 356.217
38.48000 383.585
38.52000 434.449
38.56000 513.988
38.60000 612.928
38.64000 705.847
38.68000 786.252
38.72000 849.446
38.76000 886.893
38.80000 849.165
38.84000 774.550
38.88000 649.693
38.92000 564.719
38.96000 461.461
39.00000 388.223
39.04000 336.745
39.08000 313.182
39.12000 311.292
39.16000 291.967
39.20000 275.969
39.24000 283.420
39.28000 273.465
39.32000 285.972
39.36000 273.944
39.40000 279.429
39.44000 268.512
39.48000 270.640
39.52000 269.942
39.56000 252.934
39.60000 267.628
39.64000 265.725
39.68000 264.553
39.72000 253.895
39.76000 268.986
39.80000 268.849
39.84000 265.384
39.88000 267.777
39.92000 259.802
39.96000 259.660
40.00000 265.531
40.04000 250.396
40.08000 270.241
40.12000 255.125
40.16000 254.109
40.20000 241.560
40.24000 255.063
40.28000 251.572
40.32000 258.423
40.36000 261.421
40.40000 264.036
40.44000 254.527
40.48000 244.586
40.52000 257.313
40.56000 262.951
40.60000 246.722
40.64000 263.048
40.68000 260.218
40.72000 250.734
40.76000 252.840
40.80000 246.577
40.84000 248.673
40.88000 249.298
40.92000 242.059
40.96000 242.780
41.00000 241.480
41.04000 235.496
41.08000 245.804
41.12000 254.586
41.16000 242.931
41.20000 248.647
41.24000 237.724
41.28000 232.753
41.32000 220.424
41.36000 232.964
41.40000 231.887
41.44000 238.927
41.48000 230.391
41.52000 227.914
41.56000 234.438
41.60000 237.095
41.64000 243.489
41.68000 238.310
41.72000 244.716
41.76000 234.045
41.80000 240.531
41.84000 245.800
41.88000 225.073
41.92000 218.359
41.96000 228.573
42.00000 234.400
42.04000 231.647
42.08000 226.833
42.12000 255.337
42.16000 231.815
42.20000 230.669
42.24000 225.141
42.28000 236.995
42.32000 224.781
42.36000 231.190
42.40000 237.063
42.44000 241.754
42.48000 242.640
42.52000 231.857
42.56000 233.548
42.60000 230.974
42.64000 227.046
42.68000 226.373
42.72000 223.897
42.76000 235.200
42.80000 231.250
42.84000 223.406
42.88000 221.310
42.92000 219.334
42.96000 223.342
43.00000 230.034
43.04000 209.836
43.08000 214.412
43.12000 220.778
43.16000 231.196
43.20000 224.941
43.24000 225.057
43.28000 227.116
43.32000 232.655
43.36000 222.147
43.40000 230.699
43.44000 214.099
43.48000 227.354
43.52000 220.574
43.56000 222.575
43.60000 221.994
43.64000 215.537
43.68000 219.318
43.72000 217.443
43.76000 218.911
43.80000 220.426
43.84000 220.836
43.88000 227.385
43.92000 215.576
43.96000 218.660
44.00000 215.586
44.04000 220.188
44.08000 216.081
44.12000 222.474
44.16000 220.904
44.20000 214.480
44.24000 214.664
44.28000 210.869
44.32000 231.322
44.36000 213.487
44.40000 224.694
44.44000 228.627
44.48000 212.274
44.52000 224.717
44.56000 229.538
44.60000 229.806
44.64000 231.107
44.68000 224.953
44.72000 245.629
44.76000 216.873
44.80000 249.681
44.84000 234.719
44.88000 264.969
44.92000 284.479
44.96000 297.432
45.00000 300.009
45.04000 327.677
45.08000 356.838
45.12000 349.256
45.16000 362.419
45.20000 357.514
45.24000 343.038
45.28000 328.119
45.32000 310.259
45.36000 281.550
45.40000 258.660
45.44000 264.755
45.48000 257.524
45.52000 246.825
45.56000 230.710
45.60000 225.305
45.64000 233.341
45.68000 207.901
45.72000 220.900
45.76000 209.795
45.80000 223.011
45.84000 204.064
45.88000 212.981
45.92000 212.813
45.96000 205.827
46.00000 199.648
46.04000 204.483
46.08000 207.575
46.12000 201.947
46.16000 207.211
46.20000 195.092
46.24000 207.390
46.28000 185.879
46.32000 196.422
46.36000 212.041
46.40000 210.480
46.44000 197.879
46.48000 200.803
46.52000 213.641
46.56000 188.124
46.60000 198.869
46.64000 187.489
46.68000 208.292
46.72000 205.767
46.76000 190.884
46.80000 193.141
46.84000 191.887
46.88000 188.976
46.92000 179.644
46.96000 187.059
47.00000 199.382
47.04000 188.952
47.08000 178.081
47.12000 193.965
47.16000 202.697
47.20000 187.790
47.24000 186.637
47.28000 193.848
47.32000 182.570
47.36000 192.096
47.40000 182.555
47.44000 187.082
47.48000 183.642
47.52000 185.643
47.56000 184.854
47.60000 184.473
47.64000 196.144
47.68000 186.512
47.72000 174.759
47.76000 189.742
47.80000 186.722
47.84000 181.257
47.88000 183.548
47.92000 178.699
47.96000 180.765
48.00000 191.028
48.04000 189.766
48.08000 189.993
48.12000 194.528
48.16000 180.835
48.20000 190.533
48.24000 181.308
48.28000 188.483
48.32000 184.466
48.36000 186.500
48.40000 186.036
48.44000 176.664
48.48000 188.995
48.52000 170.724
48.56000 171.821
48.60000 183.625
48.64000 187.442
48.68000 191.666
48.72000 185.942
48.76000 183.332
48.80000 177.618
48.84000 191.037
48.88000 182.961
48.92000 162.776
48.96000 170.434
49.00000 163.794
49.04000 188.237
49.08000 173.321
49.12000 184.867
49.16000 184.450
49.20000 177.006
49.24000 169.942
49.28000 175.040
49.32000 174.968
49.36000 174.877
49.40000 166.535
49.44000 179.850
49.48000 179.425
49.52000 175.138
49.56000 181.025
49.60000 171.109
49.64000 179.490
49.68000 176.081
49.72000 188.240
49.76000 185.107
49.80000 167.412
49.84000 167.680
49.88000 189.701
49.92000 172.017
49.96000 179.002
50.00000 176.599
50.04000 171.085
50.08000 170.767
50.12000 173.903
50.16000 175.269
50.20000 181.663
50.24000 171.814
50.28000 184.503
50.32000 171.994
50.36000 191.979
50.40000 184.388
50.44000 190.374
50.48000 208.924
50.52000 217.155
50.56000 213.679
50.60000 226.795
50.64000 241.758
50.68000 255.767
50.72000 264.999
50.76000 286.673
50.80000 277.902
50.84000 247.871
50.88000 251.427
50.92000 238.752
50.96000 227.643
51.00000 208.586
51.04000 199.303
51.08000 183.599
51.12000 182.247
51.16000 167.910
51.20000 165.756
51.24000 158.903
51.28000 167.490
51.32000 177.288
51.36000 173.656
51.40000 164.210
51.44000 175.711
51.48000 164.536
51.52000 167.377
51.56000 167.174
51.60000 172.425
51.64000 174.900
51.68000 159.539
51.72000 160.584
51.76000 163.359
51.80000 170.162
51.84000 164.065
51.88000 158.338
51.92000 163.313
51.96000 164.313
52.00000 164.396
52.04000 169.737
52.08000 164.117
52.12000 168.354
52.16000 166.944
52.20000 161.417
52.24000 154.831
52.28000 157.193
52.32000 158.757
52.36000 151.710
52.40000 163.981
52.44000 160.997
52.48000 169.278
52.52000 160.112
52.56000 160.400
52.60000 150.222
52.64000 160.053
52.68000 173.978
52.72000 147.510
52.76000 164.267
52.80000 156.499
52.84000 160.169
52.88000 158.166
52.92000 162.533
52.96000 156.275
53.00000 154.054
53.04000 156.446
53.08000 168.652
53.12000 171.459
53.16000 164.970
53.20000 157.817
53.24000 152.877
53.28000 151.820
53.32000 171.254
53.36000 166.462
53.40000 175.006
53.44000 169.435
53.48000 166.666
53.52000 158.368
53.56000 162.268
53.60000 157.814
53.64000 157.577
53.68000 149.301
53.72000 152.990
53.76000 162.012
53.80000 158.514
53.84000 149.764
53.88000 148.587
53.92000 145.389
53.96000 155.490
54.00000 158.982
54.04000 160.020
54.08000 159.862
54.12000 156.778
54.16000 145.965
54.20000 152.228
54.24000 154.816
54.28000 153.660
54.32000 142.827
54.36000 155.487
54.40000 150.726
54.44000 148.358
54.48000 156.826
54.52000 158.268
54.56000 150.590
54.60000 153.763
54.64000 161.406
54.68000 149.148
54.72000 151.805
54.76000 156.441
54.80000 159.817
54.84000 157.609
54.88000 159.860
54.92000 157.519
54.96000 152.902
55.00000 149.402
55.04000 159.850
55.08000 154.238
55.12000 165.024
55.16000 155.874
55.20000 160.801
55.24000 151.449
55.28000 165.911
55.32000 162.385
55.36000 175.561
55.40000 167.575
55.44000 175.787
55.48000 174.945
55.52000 184.908
55.56000 195.333
55.60000 211.700
55.64000 225.611
55.68000 250.166
55.72000 294.587
55.76000 370.544
55.80000 423.053
55.84000 497.429
55.88000 556.261
55.92000 602.183
55.96000 639.312
56.00000 643.890
56.04000 615.075
56.08000 572.331
56.12000 504.494
56.16000 452.626
56.20000 384.198
56.24000 323.235
56.28000 283.809
56.32000 241.775
56.36000 212.544
56.40000 200.467
56.44000 174.962
56.48000 168.035
56.52000 163.555
56.56000 156.687
56.60000 155.534
56.64000 152.425
56.68000 154.085
56.72000 166.884
56.76000 154.307
56.80000 152.419
56.84000 147.679
56.88000 143.915
56.92000 153.159
56.96000 142.942
57.00000 137.096
57.04000 137.079
57.08000 134.846
57.12000 139.207
57.16000 144.698
57.20000 139.150
57.24000 149.659
57.28000 146.046
57.32000 152.341
57.36000 143.962
57.40000 143.563
57.44000 135.199
57.48000 143.494
57.52000 132.632
57.56000 143.315
57.60000 150.499
57.64000 140.231
57.68000 142.696
57.72000 139.468
57.76000 144.211
57.80000 135.223
57.84000 150.406
57.88000 145.029
57.92000 149.422
57.96000 136.864
58.00000 137.060
58.04000 131.847
58.08000 135.959
58.12000 142.901
58.16000 146.330
58.20000 139.141
58.24000 138.858
58.28000 132.997
58.32000 136.841
58.36000 129.321
58.40000 138.571
58.44000 133.346
58.48000 135.369
58.52000 132.058
58.56000 140.567
58.60000 133.602
58.64000 139.867
58.68000 139.293
58.72000 143.896
58.76000 130.841
58.80000 142.044
58.84000 138.195
58.88000 144.831
58.92000 132.733
58.96000 133.169
59.00000 136.043
59.04000 133.259
59.08000 137.031
59.12000 139.391
59.16000 129.911
59.20000 141.359
59.24000 127.807
59.28000 139.280
59.32000 136.560
59.36000 136.693
59.40000 126.808
59.44000 135.858
59.48000 143.724
59.52000 128.991
59.56000 135.210
59.60000 138.128
59.64000 136.113
59.68000 122.879
59.72000 121.584
59.76000 129.896
59.80000 145.642
59.84000 135.958
59.88000 138.556
59.92000 138.519
59.96000 127.211
60.00000 126.832
60.04000 135.856
60.08000 146.826
60.12000 138.038
60.16000 131.478
60.20000 136.361
60.24000 137.119
60.28000 134.135
60.32000 124.610
60.36000 127.081
60.40000 130.946
60.44000 132.630
60.48000 135.740
60.52000 130.166
60.56000 127.767
60.60000 135.984
60.64000 125.385
60.68000 135.302
60.72000 138.498
60.76000 135.861
60.80000 132.513
60.84000 133.694
60.88000 140.733
60.92000 132.085
60.96000 133.352
61.00000 125.931
61.04000 141.201
61.08000 139.589
61.12000 133.397
61.16000 141.410
61.20000 131.301
61.24000 130.155
61.28000 136.394
61.32000 131.328
61.36000 128.724
61.40000 139.367
61.44000 149.631
61.48000 142.421
61.52000 148.705
61.56000 206.683
61.60000 245.364
61.64000 261.503
61.68000 278.120
61.72000 275.731
61.76000 273.007
61.80000 224.855
61.84000 174.381
61.88000 144.474
61.92000 146.175
61.96000 140.370
62.00000 137.818
62.04000 141.248
62.08000 147.496
62.12000 145.935
62.16000 129.417
62.20000 148.451
62.24000 134.601
62.28000 134.121
62.32000 144.031
62.36000 141.189
62.40000 131.890
62.44000 136.071
62.48000 130.086
62.52000 139.269
62.56000 139.003
62.60000 133.600
62.64000 138.392
62.68000 128.025
62.72000 146.479
62.76000 143.339
62.80000 138.006
62.84000 146.674
62.88000 141.048
62.92000 147.035
62.96000 137.593
63.00000 141.398
63.04000 151.713
63.08000 149.763
63.12000 142.243
63.16000 147.074
63.20000 142.222
63.24000 154.541
63.28000 150.940
63.32000 148.549
63.36000 147.195
63.40000 152.812
63.44000 132.795
63.48000 144.245
63.52000 140.032
63.56000 145.755
63.60000 146.433
63.64000 143.133
63.68000 150.175
63.72000 153.423
63.76000 156.927
63.80000 142.915
63.84000 160.156
63.88000 147.736
63.92000 148.575
63.96000 146.007
64.00000 157.981
64.04000 149.137
64.08000 161.974
64.12000 162.568
64.16000 151.314
64.20000 153.749
64.24000 153.293
64.28000 156.221
64.32000 154.125
64.36000 158.440
64.40000 157.184
64.44000 167.154
64.48000 165.256
64.52000 169.740
64.56000 170.000
64.60000 167.451
64.64000 165.493
64.68000 170.355
64.72000 175.993
64.76000 173.843
64.80000 166.012
64.84000 170.701
64.88000 169.670
64.92000 175.378
64.96000 175.679
65.00000 183.567
65.04000 199.626
65.08000 206.899
65.12000 212.766
65.16000 205.640
65.20000 210.320
65.24000 224.722
65.28000 236.187
65.32000 255.181
65.36000 289.280
65.40000 305.441
65.44000 337.994
65.48000 349.050
65.52000 406.083
65.56000 432.999
65.60000 423.543
65.64000 464.766
65.68000 512.699
65.72000 634.899
65.76000 853.217
65.80000 1013.403
65.84000 1078.893
65.88000 1097.892
65.92000 1043.614
65.96000 870.629
66.00000 621.622
66.04000 427.355
66.08000 352.787
66.12000 305.585
66.16000 285.556
66.20000 293.875
66.24000 306.826
66.28000 347.446
66.32000 371.408
66.36000 419.784
66.40000 429.448
66.44000 429.144
66.48000 426.162
66.52000 411.070
66.56000 365.261
66.60000 312.094
66.64000 312.748
66.68000 322.893
66.72000 312.541
66.76000 295.838
66.80000 313.426
66.84000 308.681
66.88000 319.738
66.92000 320.403
66.96000 338.030
67.00000 321.635
67.04000 345.387
67.08000 346.767
67.12000 357.703
67.16000 372.181
67.20000 372.386
67.24000 377.298
67.28000 374.911
67.32000 381.332
67.36000 397.610
67.40000 405.904
67.44000 414.726
67.48000 403.750
67.52000 418.880
67.56000 434.621
67.60000 427.977
67.64000 434.306
67.68000 453.226
67.72000 458.508
67.76000 466.815
67.80000 478.133
67.84000 506.310
67.88000 502.010
67.92000 504.088
67.96000 505.932
68.00000 521.297
68.04000 557.690
68.08000 569.369
68.12000 558.030
68.16000 567.168
68.20000 580.982
68.24000 612.857
68.28000 617.824
68.32000 617.896
68.36000 643.873
68.40000 697.627
68.44000 702.841
68.48000 772.023
68.52000 810.696
68.56000 860.059
68.60000 978.683
68.64000 1149.524
68.68000 1351.841
68.72000 1574.051
68.76000 1762.326
68.80000 2005.965
68.84000 2329.985
68.88000 2911.297
68.92000 4997.028
68.96000 13195.100
69.00000 30671.080
69.04000 50073.496
69.08000 60106.855
69.12000 61459.871
69.16000 63349.672
69.20000 64178.449
69.24000 53939.000
69.28000 41309.570
69.32000 33426.477
69.36000 29983.639
69.40000 24828.740
69.44000 15143.035
69.48000 7042.717
69.52000 3033.005
69.56000 1896.178
69.60000 1487.990
69.64000 1291.243
69.68000 1154.456
69.72000 1009.117
69.76000 946.005
69.80000 870.774
69.84000 829.747
69.88000 783.404
69.92000 730.190
69.96000 708.367
70.00000 676.296