File: XRD/XRD/17-09-2025/XY Data/BTO_Mapping_Theta2Theta_09-17-2025_001_28_30-000_15-000.xy
20.00000 570.303
20.04000 535.746
20.08000 553.809
20.12000 553.400
20.16000 545.440
20.20000 566.839
20.24000 549.018
20.28000 548.109
20.32000 547.898
20.36000 552.054
20.40000 547.962
20.44000 533.947
20.48000 542.565
20.52000 547.780
20.56000 562.377
20.60000 548.851
20.64000 556.667
20.68000 537.810
20.72000 555.176
20.76000 540.926
20.80000 554.211
20.84000 583.382
20.88000 539.994
20.92000 547.450
20.96000 539.912
21.00000 536.932
21.04000 519.174
21.08000 543.821
21.12000 552.697
21.16000 538.936
21.20000 541.588
21.24000 536.678
21.28000 563.636
21.32000 566.463
21.36000 523.043
21.40000 538.479
21.44000 516.667
21.48000 542.824
21.52000 545.518
21.56000 538.184
21.60000 558.321
21.64000 543.660
21.68000 550.565
21.72000 556.784
21.76000 565.871
21.80000 567.016
21.84000 577.592
21.88000 597.791
21.92000 609.796
21.96000 617.817
22.00000 636.898
22.04000 650.349
22.08000 675.243
22.12000 653.816
22.16000 656.351
22.20000 648.195
22.24000 634.525
22.28000 615.374
22.32000 583.868
22.36000 544.609
22.40000 529.550
22.44000 531.185
22.48000 525.109
22.52000 540.966
22.56000 513.485
22.60000 515.027
22.64000 530.974
22.68000 513.367
22.72000 522.354
22.76000 519.373
22.80000 506.675
22.84000 504.556
22.88000 511.765
22.92000 503.512
22.96000 500.722
23.00000 488.336
23.04000 520.192
23.08000 498.426
23.12000 504.813
23.16000 510.522
23.20000 510.277
23.24000 501.973
23.28000 489.135
23.32000 505.308
23.36000 514.960
23.40000 489.317
23.44000 495.558
23.48000 498.567
23.52000 501.147
23.56000 503.570
23.60000 505.268
23.64000 495.658
23.68000 494.441
23.72000 502.251
23.76000 517.032
23.80000 529.081
23.84000 515.535
23.88000 522.384
23.92000 518.862
23.96000 540.164
24.00000 529.604
24.04000 524.857
24.08000 520.194
24.12000 515.281
24.16000 515.253
24.20000 509.227
24.24000 512.754
24.28000 507.834
24.32000 479.638
24.36000 502.858
24.40000 492.375
24.44000 484.910
24.48000 480.387
24.52000 472.548
24.56000 503.615
24.60000 478.825
24.64000 474.528
24.68000 479.911
24.72000 479.662
24.76000 474.210
24.80000 482.569
24.84000 480.160
24.88000 474.916
24.92000 478.517
24.96000 460.137
25.00000 491.520
25.04000 466.081
25.08000 465.473
25.12000 475.934
25.16000 449.786
25.20000 472.306
25.24000 453.022
25.28000 470.427
25.32000 452.933
25.36000 470.148
25.40000 475.054
25.44000 447.144
25.48000 453.978
25.52000 455.711
25.56000 464.156
25.60000 446.956
25.64000 458.282
25.68000 472.971
25.72000 450.931
25.76000 458.880
25.80000 462.068
25.84000 451.089
25.88000 454.827
25.92000 454.189
25.96000 451.041
26.00000 459.911
26.04000 459.211
26.08000 446.917
26.12000 464.205
26.16000 453.847
26.20000 454.013
26.24000 439.689
26.28000 462.005
26.32000 441.163
26.36000 451.694
26.40000 432.964
26.44000 435.527
26.48000 432.079
26.52000 437.704
26.56000 451.616
26.60000 446.025
26.64000 410.064
26.68000 441.335
26.72000 457.314
26.76000 449.973
26.80000 453.582
26.84000 444.928
26.88000 434.535
26.92000 450.057
26.96000 448.003
27.00000 438.280
27.04000 425.213
27.08000 430.231
27.12000 419.621
27.16000 427.424
27.20000 440.427
27.24000 436.664
27.28000 432.906
27.32000 437.607
27.36000 437.001
27.40000 441.069
27.44000 442.196
27.48000 434.198
27.52000 446.070
27.56000 427.994
27.60000 427.816
27.64000 427.044
27.68000 432.676
27.72000 432.725
27.76000 439.643
27.80000 432.524
27.84000 435.676
27.88000 420.854
27.92000 430.118
27.96000 420.490
28.00000 413.078
28.04000 413.654
28.08000 418.356
28.12000 427.111
28.16000 413.594
28.20000 427.393
28.24000 426.457
28.28000 417.246
28.32000 434.040
28.36000 430.032
28.40000 413.921
28.44000 409.203
28.48000 404.897
28.52000 418.251
28.56000 418.130
28.60000 407.647
28.64000 417.743
28.68000 407.903
28.72000 407.112
28.76000 412.585
28.80000 383.584
28.84000 405.052
28.88000 408.961
28.92000 414.668
28.96000 420.588
29.00000 413.437
29.04000 416.026
29.08000 401.390
29.12000 400.583
29.16000 415.461
29.20000 384.172
29.24000 400.489
29.28000 415.657
29.32000 401.589
29.36000 399.025
29.40000 411.954
29.44000 403.679
29.48000 403.642
29.52000 396.256
29.56000 405.313
29.60000 398.256
29.64000 395.718
29.68000 396.925
29.72000 392.146
29.76000 410.535
29.80000 399.880
29.84000 399.859
29.88000 402.893
29.92000 411.515
29.96000 410.062
30.00000 417.932
30.04000 409.379
30.08000 423.745
30.12000 418.829
30.16000 423.541
30.20000 397.273
30.24000 408.486
30.28000 388.285
30.32000 403.414
30.36000 411.045
30.40000 402.146
30.44000 385.695
30.48000 400.739
30.52000 393.643
30.56000 398.792
30.60000 398.781
30.64000 400.199
30.68000 421.376
30.72000 428.395
30.76000 415.341
30.80000 421.717
30.84000 431.161
30.88000 429.957
30.92000 453.034
30.96000 486.252
31.00000 499.173
31.04000 558.449
31.08000 584.636
31.12000 667.187
31.16000 792.683
31.20000 986.972
31.24000 1193.515
31.28000 1505.305
31.32000 1739.904
31.36000 1913.613
31.40000 1955.478
31.44000 1882.610
31.48000 1734.671
31.52000 1451.588
31.56000 1163.304
31.60000 943.560
31.64000 746.960
31.68000 641.409
31.72000 539.270
31.76000 487.032
31.80000 476.596
31.84000 426.030
31.88000 422.029
31.92000 427.285
31.96000 386.045
32.00000 412.966
32.04000 400.712
32.08000 395.417
32.12000 386.865
32.16000 391.155
32.20000 386.992
32.24000 378.283
32.28000 397.989
32.32000 376.519
32.36000 380.238
32.40000 368.563
32.44000 372.435
32.48000 376.840
32.52000 382.405
32.56000 369.942
32.60000 359.079
32.64000 371.167
32.68000 355.280
32.72000 368.155
32.76000 345.933
32.80000 342.990
32.84000 356.383
32.88000 345.414
32.92000 360.119
32.96000 347.823
33.00000 348.896
33.04000 349.286
33.08000 344.363
33.12000 367.227
33.16000 330.645
33.20000 345.759
33.24000 348.504
33.28000 339.663
33.32000 338.349
33.36000 332.168
33.40000 343.550
33.44000 338.706
33.48000 340.330
33.52000 334.140
33.56000 336.939
33.60000 351.360
33.64000 350.558
33.68000 343.222
33.72000 349.024
33.76000 335.841
33.80000 336.003
33.84000 334.839
33.88000 347.854
33.92000 343.369
33.96000 339.277
34.00000 349.507
34.04000 338.083
34.08000 346.414
34.12000 350.236
34.16000 329.958
34.20000 354.008
34.24000 353.018
34.28000 341.690
34.32000 357.671
34.36000 352.260
34.40000 351.339
34.44000 347.445
34.48000 355.515
34.52000 335.205
34.56000 344.799
34.60000 336.996
34.64000 348.165
34.68000 332.634
34.72000 343.899
34.76000 321.216
34.80000 339.506
34.84000 324.505
34.88000 327.528
34.92000 319.941
34.96000 321.446
35.00000 327.923
35.04000 319.612
35.08000 305.779
35.12000 318.643
35.16000 318.637
35.20000 300.781
35.24000 318.504
35.28000 325.636
35.32000 306.842
35.36000 298.519
35.40000 298.417
35.44000 303.107
35.48000 303.781
35.52000 295.913
35.56000 299.366
35.60000 308.334
35.64000 297.609
35.68000 304.315
35.72000 278.722
35.76000 298.635
35.80000 303.678
35.84000 280.487
35.88000 284.124
35.92000 279.029
35.96000 302.430
36.00000 293.825
36.04000 301.541
36.08000 295.221
36.12000 298.058
36.16000 293.050
36.20000 287.341
36.24000 321.677
36.28000 302.681
36.32000 278.461
36.36000 299.802
36.40000 299.107
36.44000 296.618
36.48000 303.462
36.52000 311.360
36.56000 287.375
36.60000 283.859
36.64000 290.731
36.68000 292.876
36.72000 277.775
36.76000 311.161
36.80000 290.222
36.84000 292.272
36.88000 304.764
36.92000 286.062
36.96000 289.333
37.00000 290.574
37.04000 298.806
37.08000 307.905
37.12000 295.782
37.16000 310.957
37.20000 286.451
37.24000 300.433
37.28000 282.033
37.32000 286.301
37.36000 318.258
37.40000 288.280
37.44000 319.263
37.48000 299.021
37.52000 286.117
37.56000 284.736
37.60000 301.460
37.64000 290.160
37.68000 286.643
37.72000 280.063
37.76000 282.903
37.80000 291.119
37.84000 278.460
37.88000 296.660
37.92000 273.070
37.96000 285.600
38.00000 283.985
38.04000 286.676
38.08000 282.298
38.12000 295.160
38.16000 286.909
38.20000 311.188
38.24000 287.302
38.28000 290.565
38.32000 311.181
38.36000 315.839
38.40000 356.476
38.44000 383.051
38.48000 433.926
38.52000 493.779
38.56000 602.535
38.60000 726.322
38.64000 825.785
38.68000 977.042
38.72000 1052.809
38.76000 1052.411
38.80000 1045.252
38.84000 956.464
38.88000 815.124
38.92000 686.975
38.96000 561.664
39.00000 462.823
39.04000 394.131
39.08000 340.295
39.12000 312.676
39.16000 299.668
39.20000 298.402
39.24000 281.594
39.28000 283.763
39.32000 279.894
39.36000 275.499
39.40000 265.710
39.44000 278.390
39.48000 281.330
39.52000 269.110
39.56000 280.971
39.60000 269.453
39.64000 263.278
39.68000 259.687
39.72000 254.090
39.76000 251.260
39.80000 258.447
39.84000 248.329
39.88000 284.661
39.92000 265.702
39.96000 252.533
40.00000 255.209
40.04000 278.444
40.08000 265.847
40.12000 254.584
40.16000 249.642
40.20000 264.182
40.24000 261.555
40.28000 244.919
40.32000 248.924
40.36000 238.447
40.40000 251.640
40.44000 248.762
40.48000 252.132
40.52000 247.284
40.56000 259.853
40.60000 235.095
40.64000 236.139
40.68000 233.397
40.72000 235.096
40.76000 246.980
40.80000 246.510
40.84000 242.436
40.88000 251.685
40.92000 247.804
40.96000 239.421
41.00000 254.962
41.04000 234.953
41.08000 230.038
41.12000 229.511
41.16000 238.070
41.20000 231.005
41.24000 245.232
41.28000 230.846
41.32000 232.812
41.36000 230.370
41.40000 249.736
41.44000 230.054
41.48000 244.501
41.52000 242.406
41.56000 231.055
41.60000 240.227
41.64000 244.415
41.68000 237.281
41.72000 244.698
41.76000 226.954
41.80000 236.922
41.84000 252.429
41.88000 235.820
41.92000 243.086
41.96000 241.538
42.00000 235.470
42.04000 240.037
42.08000 229.539
42.12000 230.178
42.16000 241.559
42.20000 228.963
42.24000 244.362
42.28000 229.996
42.32000 222.215
42.36000 232.947
42.40000 226.616
42.44000 239.527
42.48000 234.808
42.52000 239.813
42.56000 237.874
42.60000 230.256
42.64000 245.813
42.68000 239.807
42.72000 244.911
42.76000 238.783
42.80000 227.993
42.84000 226.417
42.88000 220.609
42.92000 213.026
42.96000 224.906
43.00000 219.428
43.04000 219.765
43.08000 231.877
43.12000 244.777
43.16000 249.356
43.20000 213.864
43.24000 232.795
43.28000 225.197
43.32000 223.608
43.36000 228.652
43.40000 217.404
43.44000 217.693
43.48000 226.404
43.52000 226.409
43.56000 230.838
43.60000 222.306
43.64000 219.330
43.68000 224.039
43.72000 221.095
43.76000 218.319
43.80000 211.562
43.84000 223.648
43.88000 221.623
43.92000 214.617
43.96000 222.095
44.00000 210.518
44.04000 216.585
44.08000 220.861
44.12000 215.889
44.16000 205.598
44.20000 207.110
44.24000 216.505
44.28000 215.960
44.32000 215.312
44.36000 224.154
44.40000 212.866
44.44000 229.196
44.48000 213.271
44.52000 217.063
44.56000 218.663
44.60000 217.999
44.64000 227.578
44.68000 235.108
44.72000 245.910
44.76000 247.836
44.80000 240.205
44.84000 263.540
44.88000 269.717
44.92000 278.539
44.96000 283.613
45.00000 297.658
45.04000 306.903
45.08000 310.616
45.12000 328.255
45.16000 322.103
45.20000 304.538
45.24000 316.643
45.28000 282.486
45.32000 270.136
45.36000 265.914
45.40000 250.909
45.44000 240.483
45.48000 242.847
45.52000 243.910
45.56000 228.314
45.60000 218.241
45.64000 238.922
45.68000 216.365
45.72000 202.891
45.76000 219.959
45.80000 221.926
45.84000 216.686
45.88000 213.487
45.92000 204.473
45.96000 208.025
46.00000 199.720
46.04000 207.023
46.08000 205.046
46.12000 203.385
46.16000 200.439
46.20000 203.458
46.24000 199.890
46.28000 201.245
46.32000 201.460
46.36000 204.505
46.40000 193.962
46.44000 202.141
46.48000 192.126
46.52000 196.206
46.56000 199.988
46.60000 198.900
46.64000 206.013
46.68000 202.404
46.72000 210.090
46.76000 191.703
46.80000 203.007
46.84000 191.359
46.88000 187.463
46.92000 209.695
46.96000 196.434
47.00000 188.298
47.04000 199.943
47.08000 198.086
47.12000 181.863
47.16000 182.813
47.20000 187.238
47.24000 192.470
47.28000 196.015
47.32000 183.230
47.36000 194.121
47.40000 183.327
47.44000 186.765
47.48000 173.835
47.52000 182.327
47.56000 181.890
47.60000 186.621
47.64000 196.229
47.68000 181.192
47.72000 178.877
47.76000 188.588
47.80000 177.762
47.84000 189.600
47.88000 180.035
47.92000 187.988
47.96000 185.395
48.00000 189.714
48.04000 179.914
48.08000 180.279
48.12000 181.138
48.16000 189.692
48.20000 178.874
48.24000 185.934
48.28000 169.670
48.32000 170.631
48.36000 185.662
48.40000 176.145
48.44000 179.320
48.48000 172.143
48.52000 182.208
48.56000 181.965
48.60000 176.643
48.64000 169.661
48.68000 175.300
48.72000 174.374
48.76000 177.968
48.80000 175.491
48.84000 170.702
48.88000 180.681
48.92000 180.578
48.96000 177.378
49.00000 175.428
49.04000 182.181
49.08000 176.078
49.12000 181.094
49.16000 183.429
49.20000 176.556
49.24000 176.784
49.28000 180.828
49.32000 176.274
49.36000 182.790
49.40000 177.515
49.44000 174.048
49.48000 184.958
49.52000 169.673
49.56000 169.730
49.60000 180.813
49.64000 170.386
49.68000 179.545
49.72000 180.390
49.76000 179.244
49.80000 179.560
49.84000 173.586
49.88000 175.417
49.92000 170.365
49.96000 174.577
50.00000 177.376
50.04000 169.971
50.08000 171.496
50.12000 162.452
50.16000 173.853
50.20000 175.460
50.24000 181.249
50.28000 169.751
50.32000 180.008
50.36000 179.197
50.40000 181.541
50.44000 181.276
50.48000 186.827
50.52000 193.701
50.56000 187.209
50.60000 207.455
50.64000 224.085
50.68000 208.301
50.72000 209.496
50.76000 220.691
50.80000 215.085
50.84000 216.942
50.88000 206.564
50.92000 201.945
50.96000 199.269
51.00000 179.800
51.04000 175.584
51.08000 175.611
51.12000 182.314
51.16000 169.620
51.20000 177.786
51.24000 176.408
51.28000 170.033
51.32000 161.632
51.36000 171.661
51.40000 168.583
51.44000 163.605
51.48000 156.311
51.52000 163.326
51.56000 167.767
51.60000 156.633
51.64000 154.554
51.68000 155.693
51.72000 155.301
51.76000 154.539
51.80000 165.758
51.84000 156.746
51.88000 148.695
51.92000 156.726
51.96000 167.651
52.00000 164.816
52.04000 168.292
52.08000 159.305
52.12000 163.808
52.16000 159.912
52.20000 156.751
52.24000 155.464
52.28000 147.488
52.32000 157.847
52.36000 160.298
52.40000 147.595
52.44000 153.861
52.48000 156.268
52.52000 162.131
52.56000 154.699
52.60000 154.862
52.64000 164.048
52.68000 163.521
52.72000 156.507
52.76000 164.186
52.80000 161.102
52.84000 160.751
52.88000 159.320
52.92000 144.856
52.96000 148.378
53.00000 152.280
53.04000 160.229
53.08000 168.207
53.12000 152.061
53.16000 152.314
53.20000 158.346
53.24000 160.456
53.28000 151.215
53.32000 171.739
53.36000 154.864
53.40000 159.612
53.44000 168.525
53.48000 169.217
53.52000 154.458
53.56000 155.419
53.60000 163.729
53.64000 170.803
53.68000 160.377
53.72000 146.427
53.76000 148.555
53.80000 148.578
53.84000 157.498
53.88000 151.320
53.92000 148.701
53.96000 147.662
54.00000 150.222
54.04000 147.680
54.08000 162.045
54.12000 152.813
54.16000 152.513
54.20000 161.963
54.24000 155.250
54.28000 157.322
54.32000 150.460
54.36000 147.617
54.40000 156.055
54.44000 152.629
54.48000 157.263
54.52000 166.061
54.56000 163.784
54.60000 156.963
54.64000 150.338
54.68000 161.157
54.72000 161.919
54.76000 151.715
54.80000 158.468
54.84000 170.706
54.88000 150.512
54.92000 148.288
54.96000 157.068
55.00000 161.180
55.04000 158.684
55.08000 161.104
55.12000 155.166
55.16000 160.474
55.20000 156.773
55.24000 166.436
55.28000 167.137
55.32000 167.045
55.36000 175.218
55.40000 172.174
55.44000 164.586
55.48000 164.890
55.52000 196.162
55.56000 191.028
55.60000 220.234
55.64000 234.094
55.68000 268.701
55.72000 303.969
55.76000 351.148
55.80000 418.156
55.84000 457.239
55.88000 508.121
55.92000 551.093
55.96000 561.675
56.00000 583.551
56.04000 554.323
56.08000 489.053
56.12000 436.505
56.16000 397.684
56.20000 358.233
56.24000 305.015
56.28000 267.041
56.32000 233.528
56.36000 210.123
56.40000 193.634
56.44000 181.653
56.48000 182.024
56.52000 174.996
56.56000 167.795
56.60000 158.508
56.64000 164.137
56.68000 169.333
56.72000 152.749
56.76000 152.407
56.80000 153.591
56.84000 149.377
56.88000 148.664
56.92000 143.971
56.96000 151.288
57.00000 141.018
57.04000 142.616
57.08000 151.660
57.12000 139.707
57.16000 148.295
57.20000 138.494
57.24000 135.616
57.28000 148.548
57.32000 146.070
57.36000 142.271
57.40000 151.722
57.44000 140.576
57.48000 133.758
57.52000 146.739
57.56000 149.181
57.60000 138.538
57.64000 139.461
57.68000 143.578
57.72000 138.341
57.76000 149.629
57.80000 130.764
57.84000 131.170
57.88000 138.062
57.92000 134.592
57.96000 131.060
58.00000 141.655
58.04000 138.603
58.08000 143.493
58.12000 143.859
58.16000 136.312
58.20000 143.536
58.24000 131.978
58.28000 135.987
58.32000 136.345
58.36000 140.687
58.40000 137.036
58.44000 140.173
58.48000 137.027
58.52000 141.005
58.56000 135.281
58.60000 139.134
58.64000 133.774
58.68000 133.533
58.72000 129.958
58.76000 129.233
58.80000 135.505
58.84000 127.529
58.88000 139.241
58.92000 136.511
58.96000 137.222
59.00000 138.076
59.04000 141.025
59.08000 136.425
59.12000 137.453
59.16000 134.780
59.20000 134.453
59.24000 133.563
59.28000 128.806
59.32000 136.402
59.36000 137.285
59.40000 126.094
59.44000 132.541
59.48000 138.739
59.52000 135.223
59.56000 129.111
59.60000 131.193
59.64000 128.097
59.68000 129.531
59.72000 141.021
59.76000 128.727
59.80000 133.109
59.84000 134.911
59.88000 130.428
59.92000 135.440
59.96000 132.255
60.00000 142.942
60.04000 133.037
60.08000 132.559
60.12000 138.029
60.16000 132.255
60.20000 127.141
60.24000 136.475
60.28000 143.110
60.32000 143.353
60.36000 133.954
60.40000 136.056
60.44000 130.736
60.48000 138.779
60.52000 123.926
60.56000 123.780
60.60000 125.723
60.64000 125.959
60.68000 135.823
60.72000 137.368
60.76000 136.846
60.80000 136.971
60.84000 130.189
60.88000 127.125
60.92000 135.067
60.96000 135.845
61.00000 138.714
61.04000 126.605
61.08000 128.629
61.12000 135.839
61.16000 122.079
61.20000 133.843
61.24000 141.634
61.28000 136.206
61.32000 140.744
61.36000 140.226
61.40000 140.763
61.44000 138.797
61.48000 137.150
61.52000 150.693
61.56000 179.131
61.60000 221.051
61.64000 230.421
61.68000 234.908
61.72000 244.138
61.76000 248.035
61.80000 203.420
61.84000 161.167
61.88000 152.821
61.92000 145.473
61.96000 153.737
62.00000 137.959
62.04000 145.084
62.08000 145.066
62.12000 141.530
62.16000 135.385
62.20000 140.491
62.24000 141.331
62.28000 126.658
62.32000 131.700
62.36000 149.156
62.40000 127.742
62.44000 142.273
62.48000 141.250
62.52000 135.219
62.56000 138.081
62.60000 136.609
62.64000 146.322
62.68000 141.592
62.72000 143.029
62.76000 142.787
62.80000 143.773
62.84000 140.953
62.88000 139.303
62.92000 142.700
62.96000 139.383
63.00000 134.833
63.04000 143.443
63.08000 149.122
63.12000 154.603
63.16000 140.483
63.20000 150.859
63.24000 154.150
63.28000 140.424
63.32000 135.122
63.36000 142.810
63.40000 150.805
63.44000 141.002
63.48000 135.912
63.52000 151.359
63.56000 144.820
63.60000 148.712
63.64000 140.560
63.68000 144.391
63.72000 145.973
63.76000 151.544
63.80000 152.888
63.84000 160.207
63.88000 155.805
63.92000 144.572
63.96000 156.844
64.00000 149.229
64.04000 143.485
64.08000 154.216
64.12000 146.667
64.16000 153.910
64.20000 154.612
64.24000 163.260
64.28000 159.297
64.32000 157.187
64.36000 159.743
64.40000 151.874
64.44000 166.991
64.48000 166.330
64.52000 166.988
64.56000 163.281
64.60000 167.969
64.64000 168.689
64.68000 161.420
64.72000 174.104
64.76000 168.745
64.80000 177.900
64.84000 165.884
64.88000 173.757
64.92000 171.463
64.96000 177.867
65.00000 189.552
65.04000 184.967
65.08000 182.100
65.12000 190.741
65.16000 198.797
65.20000 205.315
65.24000 217.381
65.28000 219.306
65.32000 240.017
65.36000 245.430
65.40000 261.624
65.44000 269.874
65.48000 283.019
65.52000 286.709
65.56000 307.967
65.60000 328.202
65.64000 344.289
65.68000 383.602
65.72000 484.686
65.76000 635.357
65.80000 766.226
65.84000 869.071
65.88000 870.077
65.92000 857.256
65.96000 771.079
66.00000 559.191
66.04000 400.216
66.08000 326.218
66.12000 274.509
66.16000 268.322
66.20000 256.871
66.24000 271.497
66.28000 303.027
66.32000 357.581
66.36000 375.278
66.40000 370.112
66.44000 375.958
66.48000 388.386
66.52000 375.508
66.56000 332.693
66.60000 314.786
66.64000 292.249
66.68000 283.676
66.72000 302.652
66.76000 283.452
66.80000 287.126
66.84000 305.305
66.88000 304.537
66.92000 308.429
66.96000 320.154
67.00000 298.856
67.04000 288.666
67.08000 332.629
67.12000 340.506
67.16000 341.328
67.20000 338.621
67.24000 343.975
67.28000 371.858
67.32000 362.404
67.36000 365.225
67.40000 374.461
67.44000 379.675
67.48000 391.118
67.52000 395.682
67.56000 405.326
67.60000 411.792
67.64000 426.121
67.68000 420.438
67.72000 424.056
67.76000 436.710
67.80000 436.384
67.84000 454.973
67.88000 467.099
67.92000 482.353
67.96000 479.343
68.00000 486.895
68.04000 494.387
68.08000 501.657
68.12000 522.363
68.16000 529.102
68.20000 540.454
68.24000 558.513
68.28000 580.528
68.32000 584.571
68.36000 610.842
68.40000 651.851
68.44000 652.221
68.48000 694.738
68.52000 746.379
68.56000 766.435
68.60000 875.419
68.64000 980.100
68.68000 1161.355
68.72000 1333.655
68.76000 1503.391
68.80000 1674.324
68.84000 1899.501
68.88000 2248.741
68.92000 3614.838
68.96000 9167.938
69.00000 22386.035
69.04000 38125.664
69.08000 47073.426
69.12000 48602.090
69.16000 50060.613
69.20000 51318.543
69.24000 44198.406
69.28000 33491.836
69.32000 26967.533
69.36000 24121.268
69.40000 20789.461
69.44000 13280.928
69.48000 6138.925
69.52000 2709.815
69.56000 1683.754
69.60000 1326.206
69.64000 1207.104
69.68000 1022.249
69.72000 921.955
69.76000 855.885
69.80000 797.756
69.84000 769.831
69.88000 716.703
69.92000 679.824
69.96000 660.709
70.00000 638.422