File: XRD/XRD/17-09-2025/XY Data/BTO_Mapping_Theta2Theta_09-17-2025_001_35_-15-000_45-000.xy
20.00000 528.935
20.04000 538.820
20.08000 537.519
20.12000 565.314
20.16000 549.537
20.20000 547.790
20.24000 534.123
20.28000 533.355
20.32000 556.626
20.36000 540.161
20.40000 534.830
20.44000 556.987
20.48000 557.309
20.52000 548.813
20.56000 554.996
20.60000 543.829
20.64000 529.745
20.68000 536.926
20.72000 547.524
20.76000 543.678
20.80000 560.644
20.84000 560.607
20.88000 538.915
20.92000 523.806
20.96000 530.842
21.00000 522.692
21.04000 551.978
21.08000 527.277
21.12000 560.025
21.16000 525.318
21.20000 532.912
21.24000 535.804
21.28000 542.307
21.32000 526.377
21.36000 520.076
21.40000 526.310
21.44000 531.118
21.48000 516.573
21.52000 511.199
21.56000 502.699
21.60000 506.455
21.64000 508.543
21.68000 528.517
21.72000 514.876
21.76000 529.181
21.80000 518.380
21.84000 530.041
21.88000 527.622
21.92000 529.659
21.96000 523.072
22.00000 523.193
22.04000 518.001
22.08000 503.703
22.12000 521.994
22.16000 520.401
22.20000 502.645
22.24000 514.136
22.28000 518.733
22.32000 509.186
22.36000 509.650
22.40000 501.531
22.44000 509.684
22.48000 487.397
22.52000 510.011
22.56000 512.653
22.60000 522.831
22.64000 504.490
22.68000 524.420
22.72000 497.023
22.76000 497.446
22.80000 511.054
22.84000 514.026
22.88000 494.160
22.92000 495.586
22.96000 507.033
23.00000 511.838
23.04000 497.259
23.08000 485.876
23.12000 496.190
23.16000 488.661
23.20000 500.934
23.24000 493.227
23.28000 491.342
23.32000 503.611
23.36000 500.478
23.40000 511.199
23.44000 495.109
23.48000 495.631
23.52000 508.029
23.56000 491.746
23.60000 471.898
23.64000 473.877
23.68000 479.648
23.72000 512.841
23.76000 484.868
23.80000 480.600
23.84000 487.906
23.88000 473.771
23.92000 486.135
23.96000 486.235
24.00000 482.324
24.04000 483.939
24.08000 484.295
24.12000 471.607
24.16000 486.852
24.20000 467.132
24.24000 472.191
24.28000 479.398
24.32000 492.925
24.36000 468.618
24.40000 455.204
24.44000 487.706
24.48000 473.290
24.52000 468.990
24.56000 475.976
24.60000 471.216
24.64000 476.978
24.68000 464.279
24.72000 464.915
24.76000 471.719
24.80000 474.750
24.84000 439.474
24.88000 471.025
24.92000 476.709
24.96000 457.682
25.00000 448.778
25.04000 455.263
25.08000 458.272
25.12000 463.561
25.16000 457.842
25.20000 455.432
25.24000 477.615
25.28000 462.804
25.32000 438.326
25.36000 448.227
25.40000 476.614
25.44000 464.747
25.48000 440.117
25.52000 457.695
25.56000 458.074
25.60000 446.173
25.64000 462.479
25.68000 439.054
25.72000 449.292
25.76000 461.882
25.80000 452.900
25.84000 444.756
25.88000 446.756
25.92000 439.965
25.96000 433.692
26.00000 445.979
26.04000 450.823
26.08000 429.373
26.12000 433.031
26.16000 427.854
26.20000 457.384
26.24000 435.916
26.28000 453.719
26.32000 451.297
26.36000 441.580
26.40000 446.013
26.44000 438.096
26.48000 435.010
26.52000 444.201
26.56000 436.363
26.60000 445.984
26.64000 429.867
26.68000 420.027
26.72000 436.430
26.76000 425.854
26.80000 424.407
26.84000 437.588
26.88000 432.886
26.92000 449.101
26.96000 425.909
27.00000 429.804
27.04000 431.192
27.08000 416.052
27.12000 431.913
27.16000 409.444
27.20000 426.156
27.24000 427.586
27.28000 414.044
27.32000 413.482
27.36000 412.155
27.40000 433.099
27.44000 435.091
27.48000 406.256
27.52000 413.991
27.56000 437.727
27.60000 406.424
27.64000 417.284
27.68000 418.381
27.72000 410.833
27.76000 412.937
27.80000 396.404
27.84000 391.413
27.88000 405.120
27.92000 421.266
27.96000 428.918
28.00000 400.676
28.04000 402.866
28.08000 424.604
28.12000 419.775
28.16000 413.075
28.20000 404.184
28.24000 412.244
28.28000 398.340
28.32000 424.227
28.36000 420.291
28.40000 411.545
28.44000 392.484
28.48000 395.242
28.52000 398.607
28.56000 422.863
28.60000 375.228
28.64000 388.688
28.68000 409.400
28.72000 398.139
28.76000 382.753
28.80000 420.873
28.84000 415.514
28.88000 405.599
28.92000 401.768
28.96000 397.426
29.00000 392.266
29.04000 406.156
29.08000 400.135
29.12000 389.626
29.16000 373.302
29.20000 403.952
29.24000 370.151
29.28000 403.947
29.32000 389.927
29.36000 396.876
29.40000 391.549
29.44000 384.934
29.48000 387.171
29.52000 378.473
29.56000 383.313
29.60000 389.359
29.64000 395.984
29.68000 376.563
29.72000 401.415
29.76000 389.886
29.80000 378.886
29.84000 387.925
29.88000 387.783
29.92000 386.860
29.96000 394.667
30.00000 396.419
30.04000 387.710
30.08000 371.456
30.12000 385.919
30.16000 377.061
30.20000 379.276
30.24000 367.040
30.28000 372.532
30.32000 367.793
30.36000 364.914
30.40000 388.118
30.44000 358.887
30.48000 378.344
30.52000 384.281
30.56000 357.634
30.60000 373.787
30.64000 374.236
30.68000 368.423
30.72000 361.104
30.76000 377.760
30.80000 365.083
30.84000 369.968
30.88000 360.866
30.92000 362.211
30.96000 373.066
31.00000 375.477
31.04000 374.587
31.08000 372.990
31.12000 369.725
31.16000 345.857
31.20000 356.426
31.24000 354.435
31.28000 356.406
31.32000 361.422
31.36000 345.188
31.40000 368.106
31.44000 365.692
31.48000 357.555
31.52000 357.813
31.56000 345.632
31.60000 352.323
31.64000 353.866
31.68000 351.020
31.72000 357.555
31.76000 357.658
31.80000 360.237
31.84000 360.070
31.88000 369.226
31.92000 357.749
31.96000 350.194
32.00000 341.834
32.04000 347.789
32.08000 357.079
32.12000 339.519
32.16000 348.348
32.20000 326.723
32.24000 343.004
32.28000 358.713
32.32000 349.041
32.36000 339.156
32.40000 335.504
32.44000 345.016
32.48000 343.130
32.52000 334.728
32.56000 333.642
32.60000 339.324
32.64000 339.697
32.68000 348.313
32.72000 346.288
32.76000 355.571
32.80000 339.125
32.84000 343.629
32.88000 332.948
32.92000 340.674
32.96000 326.933
33.00000 325.434
33.04000 334.665
33.08000 330.534
33.12000 326.728
33.16000 325.523
33.20000 336.480
33.24000 313.015
33.28000 337.179
33.32000 328.078
33.36000 326.699
33.40000 346.508
33.44000 342.180
33.48000 337.711
33.52000 343.051
33.56000 328.220
33.60000 314.592
33.64000 309.154
33.68000 333.241
33.72000 337.750
33.76000 330.333
33.80000 325.199
33.84000 322.244
33.88000 316.890
33.92000 320.426
33.96000 330.132
34.00000 312.809
34.04000 313.488
34.08000 305.272
34.12000 319.016
34.16000 313.091
34.20000 316.147
34.24000 310.436
34.28000 324.273
34.32000 303.322
34.36000 328.040
34.40000 320.822
34.44000 316.890
34.48000 295.991
34.52000 302.327
34.56000 304.179
34.60000 318.071
34.64000 314.086
34.68000 307.950
34.72000 313.118
34.76000 309.537
34.80000 303.692
34.84000 319.641
34.88000 316.299
34.92000 298.054
34.96000 311.225
35.00000 305.958
35.04000 299.435
35.08000 298.052
35.12000 311.897
35.16000 296.197
35.20000 307.965
35.24000 318.839
35.28000 310.766
35.32000 313.359
35.36000 312.005
35.40000 301.961
35.44000 304.254
35.48000 298.707
35.52000 299.319
35.56000 297.669
35.60000 301.193
35.64000 289.968
35.68000 289.745
35.72000 286.789
35.76000 297.287
35.80000 301.679
35.84000 302.320
35.88000 301.200
35.92000 283.654
35.96000 293.577
36.00000 279.887
36.04000 298.809
36.08000 292.009
36.12000 298.914
36.16000 302.813
36.20000 293.513
36.24000 305.935
36.28000 291.318
36.32000 286.225
36.36000 276.914
36.40000 290.131
36.44000 304.025
36.48000 292.082
36.52000 276.576
36.56000 280.925
36.60000 298.004
36.64000 277.784
36.68000 282.680
36.72000 288.740
36.76000 264.426
36.80000 287.754
36.84000 289.885
36.88000 280.716
36.92000 284.924
36.96000 275.018
37.00000 277.549
37.04000 286.663
37.08000 271.407
37.12000 284.222
37.16000 279.852
37.20000 276.493
37.24000 299.522
37.28000 277.387
37.32000 295.504
37.36000 260.659
37.40000 278.083
37.44000 267.058
37.48000 269.653
37.52000 270.644
37.56000 297.185
37.60000 267.674
37.64000 280.351
37.68000 280.549
37.72000 279.295
37.76000 274.411
37.80000 272.380
37.84000 267.991
37.88000 266.739
37.92000 280.959
37.96000 284.516
38.00000 270.424
38.04000 269.967
38.08000 279.363
38.12000 271.532
38.16000 266.226
38.20000 267.398
38.24000 254.181
38.28000 275.889
38.32000 270.004
38.36000 273.767
38.40000 260.434
38.44000 265.758
38.48000 259.911
38.52000 255.063
38.56000 263.668
38.60000 263.656
38.64000 275.298
38.68000 256.760
38.72000 258.739
38.76000 267.529
38.80000 239.065
38.84000 251.768
38.88000 249.132
38.92000 251.140
38.96000 259.079
39.00000 262.684
39.04000 252.759
39.08000 247.586
39.12000 261.504
39.16000 254.960
39.20000 244.014
39.24000 258.122
39.28000 262.071
39.32000 247.975
39.36000 248.402
39.40000 250.023
39.44000 264.001
39.48000 249.952
39.52000 256.499
39.56000 248.004
39.60000 254.057
39.64000 268.179
39.68000 258.875
39.72000 250.245
39.76000 245.818
39.80000 243.053
39.84000 255.039
39.88000 260.667
39.92000 239.299
39.96000 242.092
40.00000 253.571
40.04000 248.200
40.08000 236.921
40.12000 259.865
40.16000 256.480
40.20000 249.402
40.24000 247.334
40.28000 248.441
40.32000 253.459
40.36000 240.156
40.40000 249.796
40.44000 241.336
40.48000 253.744
40.52000 236.534
40.56000 237.886
40.60000 242.324
40.64000 242.860
40.68000 239.629
40.72000 242.717
40.76000 239.546
40.80000 237.267
40.84000 239.612
40.88000 240.173
40.92000 230.105
40.96000 231.397
41.00000 254.464
41.04000 234.573
41.08000 235.955
41.12000 227.458
41.16000 244.132
41.20000 227.873
41.24000 248.278
41.28000 226.986
41.32000 245.829
41.36000 243.131
41.40000 228.147
41.44000 224.939
41.48000 241.123
41.52000 223.283
41.56000 233.444
41.60000 233.813
41.64000 234.833
41.68000 226.782
41.72000 226.419
41.76000 229.946
41.80000 218.022
41.84000 233.864
41.88000 234.636
41.92000 230.085
41.96000 231.751
42.00000 216.126
42.04000 227.978
42.08000 233.473
42.12000 235.828
42.16000 227.336
42.20000 224.276
42.24000 224.079
42.28000 230.881
42.32000 234.371
42.36000 227.882
42.40000 209.783
42.44000 227.922
42.48000 219.472
42.52000 206.545
42.56000 237.688
42.60000 215.899
42.64000 214.465
42.68000 221.900
42.72000 237.342
42.76000 219.891
42.80000 227.889
42.84000 214.426
42.88000 217.596
42.92000 222.528
42.96000 215.715
43.00000 216.592
43.04000 220.252
43.08000 215.357
43.12000 218.731
43.16000 220.571
43.20000 204.864
43.24000 216.657
43.28000 216.075
43.32000 220.153
43.36000 215.884
43.40000 212.301
43.44000 216.521
43.48000 210.080
43.52000 218.187
43.56000 208.649
43.60000 217.342
43.64000 213.154
43.68000 212.347
43.72000 207.258
43.76000 219.267
43.80000 211.149
43.84000 207.854
43.88000 212.194
43.92000 213.559
43.96000 207.650
44.00000 202.419
44.04000 206.669
44.08000 217.425
44.12000 206.452
44.16000 214.967
44.20000 222.693
44.24000 212.362
44.28000 203.940
44.32000 215.690
44.36000 204.963
44.40000 210.916
44.44000 207.916
44.48000 204.043
44.52000 215.606
44.56000 212.089
44.60000 192.170
44.64000 206.863
44.68000 199.722
44.72000 205.108
44.76000 202.588
44.80000 212.247
44.84000 201.708
44.88000 205.007
44.92000 195.543
44.96000 209.251
45.00000 200.283
45.04000 195.119
45.08000 203.964
45.12000 206.477
45.16000 202.075
45.20000 203.713
45.24000 192.669
45.28000 194.728
45.32000 204.014
45.36000 192.858
45.40000 195.791
45.44000 194.672
45.48000 210.941
45.52000 198.890
45.56000 198.904
45.60000 194.932
45.64000 200.894
45.68000 204.355
45.72000 196.580
45.76000 191.742
45.80000 197.994
45.84000 201.353
45.88000 201.729
45.92000 202.862
45.96000 196.264
46.00000 207.175
46.04000 189.979
46.08000 202.744
46.12000 199.819
46.16000 192.769
46.20000 196.740
46.24000 193.851
46.28000 179.006
46.32000 195.922
46.36000 199.683
46.40000 192.184
46.44000 190.296
46.48000 180.153
46.52000 186.229
46.56000 194.656
46.60000 182.988
46.64000 196.246
46.68000 194.555
46.72000 191.056
46.76000 190.856
46.80000 185.330
46.84000 177.480
46.88000 180.122
46.92000 196.848
46.96000 184.446
47.00000 178.333
47.04000 183.900
47.08000 184.814
47.12000 180.394
47.16000 188.467
47.20000 174.429
47.24000 180.676
47.28000 193.882
47.32000 180.627
47.36000 185.475
47.40000 185.036
47.44000 180.716
47.48000 182.541
47.52000 187.630
47.56000 182.979
47.60000 185.989
47.64000 179.698
47.68000 173.613
47.72000 186.986
47.76000 184.058
47.80000 195.637
47.84000 182.122
47.88000 182.672
47.92000 182.599
47.96000 190.964
48.00000 185.235
48.04000 180.049
48.08000 191.819
48.12000 172.496
48.16000 185.720
48.20000 168.765
48.24000 176.868
48.28000 185.117
48.32000 182.246
48.36000 162.898
48.40000 177.115
48.44000 178.242
48.48000 174.491
48.52000 179.097
48.56000 185.488
48.60000 180.739
48.64000 176.673
48.68000 177.644
48.72000 179.428
48.76000 173.864
48.80000 168.875
48.84000 178.778
48.88000 183.758
48.92000 172.196
48.96000 172.521
49.00000 166.142
49.04000 179.604
49.08000 169.881
49.12000 166.201
49.16000 173.925
49.20000 162.940
49.24000 171.346
49.28000 168.753
49.32000 179.800
49.36000 172.327
49.40000 169.897
49.44000 172.445
49.48000 163.196
49.52000 172.564
49.56000 162.197
49.60000 178.768
49.64000 170.515
49.68000 172.835
49.72000 170.013
49.76000 172.115
49.80000 159.788
49.84000 173.550
49.88000 171.711
49.92000 181.234
49.96000 171.303
50.00000 165.732
50.04000 168.655
50.08000 180.241
50.12000 180.715
50.16000 174.204
50.20000 166.409
50.24000 170.065
50.28000 169.731
50.32000 167.865
50.36000 169.524
50.40000 173.419
50.44000 172.154
50.48000 170.827
50.52000 159.627
50.56000 168.775
50.60000 169.169
50.64000 169.232
50.68000 163.679
50.72000 169.466
50.76000 156.215
50.80000 167.076
50.84000 156.052
50.88000 162.702
50.92000 166.861
50.96000 155.700
51.00000 156.156
51.04000 156.208
51.08000 154.903
51.12000 174.031
51.16000 156.899
51.20000 157.187
51.24000 157.257
51.28000 160.356
51.32000 161.663
51.36000 150.932
51.40000 157.880
51.44000 165.482
51.48000 163.446
51.52000 165.961
51.56000 164.040
51.60000 162.678
51.64000 154.471
51.68000 160.522
51.72000 152.383
51.76000 153.913
51.80000 161.679
51.84000 152.808
51.88000 161.312
51.92000 156.704
51.96000 161.868
52.00000 157.806
52.04000 168.243
52.08000 158.013
52.12000 148.097
52.16000 163.651
52.20000 159.118
52.24000 161.542
52.28000 164.404
52.32000 161.862
52.36000 155.253
52.40000 167.093
52.44000 168.045
52.48000 150.815
52.52000 147.075
52.56000 155.851
52.60000 149.007
52.64000 151.207
52.68000 148.666
52.72000 156.171
52.76000 168.674
52.80000 146.143
52.84000 144.431
52.88000 138.763
52.92000 145.221
52.96000 150.310
53.00000 147.366
53.04000 159.017
53.08000 151.010
53.12000 147.752
53.16000 165.139
53.20000 164.357
53.24000 148.334
53.28000 141.060
53.32000 153.192
53.36000 158.407
53.40000 149.763
53.44000 156.670
53.48000 154.267
53.52000 160.503
53.56000 160.967
53.60000 146.589
53.64000 153.990
53.68000 148.529
53.72000 150.570
53.76000 150.974
53.80000 135.719
53.84000 141.783
53.88000 146.863
53.92000 154.783
53.96000 150.147
54.00000 152.403
54.04000 142.887
54.08000 155.762
54.12000 141.138
54.16000 151.969
54.20000 152.888
54.24000 143.394
54.28000 152.141
54.32000 154.326
54.36000 140.679
54.40000 132.353
54.44000 141.896
54.48000 145.017
54.52000 136.031
54.56000 144.288
54.60000 148.746
54.64000 149.290
54.68000 145.260
54.72000 136.196
54.76000 145.450
54.80000 151.276
54.84000 157.673
54.88000 146.017
54.92000 152.709
54.96000 138.741
55.00000 137.726
55.04000 143.299
55.08000 147.610
55.12000 137.337
55.16000 139.073
55.20000 146.163
55.24000 138.497
55.28000 140.288
55.32000 142.840
55.36000 145.957
55.40000 153.938
55.44000 151.576
55.48000 143.823
55.52000 144.357
55.56000 130.438
55.60000 137.268
55.64000 135.293
55.68000 152.714
55.72000 150.453
55.76000 144.372
55.80000 138.416
55.84000 144.778
55.88000 135.007
55.92000 134.292
55.96000 153.337
56.00000 143.201
56.04000 154.793
56.08000 143.900
56.12000 146.607
56.16000 143.905
56.20000 137.717
56.24000 142.018
56.28000 159.152
56.32000 145.376
56.36000 143.099
56.40000 149.831
56.44000 143.881
56.48000 137.731
56.52000 143.387
56.56000 134.798
56.60000 136.426
56.64000 137.407
56.68000 134.595
56.72000 131.251
56.76000 142.246
56.80000 147.542
56.84000 139.436
56.88000 134.940
56.92000 145.941
56.96000 133.491
57.00000 150.520
57.04000 142.176
57.08000 149.615
57.12000 136.511
57.16000 136.291
57.20000 138.269
57.24000 135.649
57.28000 139.820
57.32000 133.756
57.36000 146.813
57.40000 138.877
57.44000 133.356
57.48000 136.679
57.52000 145.236
57.56000 129.086
57.60000 129.451
57.64000 139.583
57.68000 146.905
57.72000 132.525
57.76000 142.686
57.80000 142.237
57.84000 139.574
57.88000 133.100
57.92000 135.429
57.96000 137.927
58.00000 148.056
58.04000 128.304
58.08000 130.837
58.12000 128.146
58.16000 132.479
58.20000 130.969
58.24000 131.560
58.28000 133.682
58.32000 133.764
58.36000 131.395
58.40000 142.413
58.44000 133.489
58.48000 142.797
58.52000 135.725
58.56000 125.105
58.60000 142.911
58.64000 128.207
58.68000 127.201
58.72000 134.023
58.76000 135.711
58.80000 137.808
58.84000 131.560
58.88000 131.427
58.92000 135.935
58.96000 132.449
59.00000 129.737
59.04000 137.515
59.08000 137.505
59.12000 135.014
59.16000 134.607
59.20000 130.016
59.24000 136.674
59.28000 127.953
59.32000 129.600
59.36000 129.239
59.40000 133.925
59.44000 126.414
59.48000 134.973
59.52000 137.290
59.56000 136.272
59.60000 139.454
59.64000 135.057
59.68000 145.618
59.72000 141.014
59.76000 133.035
59.80000 131.314
59.84000 131.821
59.88000 132.965
59.92000 135.828
59.96000 124.573
60.00000 138.009
60.04000 129.455
60.08000 128.847
60.12000 128.422
60.16000 136.107
60.20000 146.030
60.24000 134.841
60.28000 135.282
60.32000 126.656
60.36000 129.433
60.40000 132.970
60.44000 124.885
60.48000 132.952
60.52000 125.687
60.56000 127.277
60.60000 127.803
60.64000 126.988
60.68000 131.704
60.72000 134.379
60.76000 133.539
60.80000 127.233
60.84000 138.591
60.88000 131.660
60.92000 144.491
60.96000 137.438
61.00000 132.477
61.04000 134.755
61.08000 145.481
61.12000 135.252
61.16000 132.052
61.20000 136.254
61.24000 142.189
61.28000 132.409
61.32000 142.493
61.36000 134.213
61.40000 139.220
61.44000 141.080
61.48000 139.625
61.52000 163.157
61.56000 196.444
61.60000 228.623
61.64000 240.370
61.68000 248.714
61.72000 258.337
61.76000 235.737
61.80000 213.730
61.84000 183.208
61.88000 158.031
61.92000 142.960
61.96000 150.027
62.00000 140.046
62.04000 141.905
62.08000 143.243
62.12000 136.882
62.16000 146.900
62.20000 128.528
62.24000 141.304
62.28000 144.241
62.32000 137.555
62.36000 140.971
62.40000 150.540
62.44000 139.557
62.48000 136.914
62.52000 142.476
62.56000 135.233
62.60000 138.013
62.64000 141.260
62.68000 141.170
62.72000 154.410
62.76000 151.495
62.80000 135.389
62.84000 149.962
62.88000 150.924
62.92000 144.245
62.96000 146.253
63.00000 127.009
63.04000 142.519
63.08000 145.095
63.12000 154.385
63.16000 143.778
63.20000 141.267
63.24000 148.553
63.28000 146.975
63.32000 154.326
63.36000 151.678
63.40000 139.207
63.44000 145.292
63.48000 152.975
63.52000 142.264
63.56000 158.893
63.60000 155.147
63.64000 149.464
63.68000 148.887
63.72000 149.520
63.76000 157.025
63.80000 146.209
63.84000 155.934
63.88000 156.190
63.92000 151.759
63.96000 157.437
64.00000 156.425
64.04000 152.271
64.08000 154.838
64.12000 166.433
64.16000 161.463
64.20000 165.711
64.24000 173.138
64.28000 158.196
64.32000 165.175
64.36000 164.834
64.40000 167.548
64.44000 169.111
64.48000 162.051
64.52000 163.754
64.56000 178.183
64.60000 185.799
64.64000 165.116
64.68000 176.204
64.72000 168.171
64.76000 172.776
64.80000 183.327
64.84000 183.720
64.88000 176.203
64.92000 176.383
64.96000 176.021
65.00000 186.313
65.04000 183.068
65.08000 182.364
65.12000 181.517
65.16000 185.928
65.20000 189.102
65.24000 195.016
65.28000 205.486
65.32000 200.844
65.36000 204.331
65.40000 197.505
65.44000 200.706
65.48000 218.075
65.52000 235.915
65.56000 232.395
65.60000 242.503
65.64000 268.164
65.68000 323.936
65.72000 429.943
65.76000 643.056
65.80000 809.958
65.84000 881.513
65.88000 921.102
65.92000 886.342
65.96000 805.424
66.00000 588.560
66.04000 398.308
66.08000 328.133
66.12000 280.852
66.16000 300.042
66.20000 287.146
66.24000 302.418
66.28000 322.644
66.32000 384.508
66.36000 401.738
66.40000 420.308
66.44000 434.476
66.48000 423.340
66.52000 387.526
66.56000 359.448
66.60000 342.864
66.64000 317.585
66.68000 311.150
66.72000 304.532
66.76000 321.804
66.80000 332.424
66.84000 329.984
66.88000 338.532
66.92000 347.760
66.96000 354.137
67.00000 349.828
67.04000 352.404
67.08000 357.568
67.12000 374.948
67.16000 392.820
67.20000 396.801
67.24000 401.256
67.28000 377.301
67.32000 386.228
67.36000 395.838
67.40000 427.262
67.44000 428.247
67.48000 426.181
67.52000 429.132
67.56000 444.464
67.60000 461.586
67.64000 464.814
67.68000 463.723
67.72000 475.104
67.76000 493.572
67.80000 503.755
67.84000 507.256
67.88000 521.281
67.92000 515.068
67.96000 567.492
68.00000 559.167
68.04000 574.042
68.08000 584.251
68.12000 600.857
68.16000 628.737
68.20000 615.624
68.24000 649.659
68.28000 661.138
68.32000 658.226
68.36000 703.833
68.40000 734.934
68.44000 764.725
68.48000 776.502
68.52000 831.253
68.56000 888.688
68.60000 968.854
68.64000 1138.600
68.68000 1350.158
68.72000 1549.336
68.76000 1764.506
68.80000 1978.300
68.84000 2301.322
68.88000 2929.089
68.92000 4845.455
68.96000 12004.192
69.00000 27954.631
69.04000 45333.691
69.08000 54517.156
69.12000 55747.086
69.16000 57626.957
69.20000 57962.848
69.24000 48775.434
69.28000 37776.934
69.32000 30251.553
69.36000 27257.666
69.40000 22727.742
69.44000 13907.044
69.48000 6600.188
69.52000 2820.272
69.56000 1871.185
69.60000 1467.221
69.64000 1267.880
69.68000 1140.014
69.72000 1064.684
69.76000 948.749
69.80000 897.393
69.84000 831.495
69.88000 781.972
69.92000 735.306
69.96000 708.047
70.00000 700.141