File: XRD/XRD/17-09-2025/XY Data/BTO_Mapping_Theta2Theta_09-17-2025_001_05_-15-000_-30-000.xy
20.00000 558.319
20.04000 552.729
20.08000 557.277
20.12000 544.483
20.16000 546.802
20.20000 560.988
20.24000 549.187
20.28000 559.791
20.32000 562.441
20.36000 553.230
20.40000 557.280
20.44000 559.305
20.48000 556.605
20.52000 555.019
20.56000 559.161
20.60000 567.753
20.64000 556.435
20.68000 556.170
20.72000 551.431
20.76000 532.441
20.80000 550.091
20.84000 551.013
20.88000 554.713
20.92000 559.465
20.96000 550.026
21.00000 559.938
21.04000 537.494
21.08000 528.606
21.12000 529.793
21.16000 553.973
21.20000 525.954
21.24000 550.252
21.28000 556.424
21.32000 558.003
21.36000 561.631
21.40000 561.517
21.44000 544.355
21.48000 541.027
21.52000 533.456
21.56000 552.738
21.60000 548.869
21.64000 560.795
21.68000 578.974
21.72000 583.516
21.76000 590.061
21.80000 638.866
21.84000 676.065
21.88000 729.027
21.92000 760.154
21.96000 837.334
22.00000 819.929
22.04000 848.973
22.08000 810.991
22.12000 771.283
22.16000 731.801
22.20000 675.575
22.24000 630.855
22.28000 596.291
22.32000 571.484
22.36000 548.548
22.40000 555.680
22.44000 551.314
22.48000 538.685
22.52000 541.331
22.56000 521.221
22.60000 536.518
22.64000 534.226
22.68000 498.503
22.72000 528.737
22.76000 526.369
22.80000 527.406
22.84000 519.736
22.88000 515.756
22.92000 496.741
22.96000 503.367
23.00000 519.684
23.04000 514.115
23.08000 514.381
23.12000 531.826
23.16000 521.520
23.20000 500.389
23.24000 528.021
23.28000 504.820
23.32000 510.784
23.36000 503.729
23.40000 486.291
23.44000 497.784
23.48000 513.102
23.52000 502.088
23.56000 488.271
23.60000 485.016
23.64000 487.281
23.68000 491.735
23.72000 508.046
23.76000 487.534
23.80000 488.248
23.84000 514.533
23.88000 486.936
23.92000 489.441
23.96000 491.395
24.00000 483.489
24.04000 486.704
24.08000 497.617
24.12000 489.243
24.16000 500.676
24.20000 482.457
24.24000 484.747
24.28000 488.886
24.32000 501.065
24.36000 504.994
24.40000 492.149
24.44000 492.037
24.48000 490.037
24.52000 479.208
24.56000 495.795
24.60000 476.652
24.64000 487.421
24.68000 487.288
24.72000 479.301
24.76000 482.264
24.80000 479.409
24.84000 480.242
24.88000 456.344
24.92000 468.744
24.96000 487.111
25.00000 478.761
25.04000 478.684
25.08000 489.023
25.12000 483.240
25.16000 469.070
25.20000 458.335
25.24000 457.997
25.28000 479.641
25.32000 471.765
25.36000 469.637
25.40000 464.560
25.44000 484.910
25.48000 442.956
25.52000 465.124
25.56000 463.880
25.60000 478.957
25.64000 473.667
25.68000 479.654
25.72000 475.863
25.76000 461.304
25.80000 454.725
25.84000 473.500
25.88000 459.437
25.92000 459.561
25.96000 456.408
26.00000 452.288
26.04000 474.725
26.08000 445.466
26.12000 469.648
26.16000 457.215
26.20000 451.241
26.24000 465.131
26.28000 462.622
26.32000 442.106
26.36000 456.811
26.40000 458.116
26.44000 450.239
26.48000 470.858
26.52000 452.985
26.56000 462.842
26.60000 465.442
26.64000 457.343
26.68000 446.457
26.72000 453.417
26.76000 445.852
26.80000 424.214
26.84000 436.617
26.88000 435.552
26.92000 431.592
26.96000 441.050
27.00000 450.318
27.04000 441.276
27.08000 448.478
27.12000 456.056
27.16000 437.838
27.20000 443.715
27.24000 430.788
27.28000 452.930
27.32000 426.748
27.36000 441.809
27.40000 444.081
27.44000 431.313
27.48000 446.202
27.52000 433.670
27.56000 444.484
27.60000 431.319
27.64000 429.421
27.68000 429.545
27.72000 427.020
27.76000 438.634
27.80000 439.029
27.84000 415.638
27.88000 409.261
27.92000 437.701
27.96000 424.951
28.00000 435.242
28.04000 420.019
28.08000 437.625
28.12000 447.351
28.16000 424.084
28.20000 435.045
28.24000 433.765
28.28000 423.762
28.32000 443.636
28.36000 424.441
28.40000 426.365
28.44000 432.621
28.48000 419.798
28.52000 423.864
28.56000 420.229
28.60000 435.017
28.64000 428.920
28.68000 423.061
28.72000 416.249
28.76000 410.905
28.80000 421.458
28.84000 421.691
28.88000 422.769
28.92000 440.495
28.96000 429.131
29.00000 432.774
29.04000 415.097
29.08000 400.072
29.12000 420.772
29.16000 432.596
29.20000 426.767
29.24000 427.924
29.28000 421.452
29.32000 412.880
29.36000 416.948
29.40000 409.815
29.44000 414.463
29.48000 413.013
29.52000 409.092
29.56000 424.600
29.60000 402.200
29.64000 412.711
29.68000 419.499
29.72000 424.180
29.76000 419.261
29.80000 426.154
29.84000 425.141
29.88000 457.380
29.92000 474.030
29.96000 438.686
30.00000 442.821
30.04000 467.750
30.08000 458.745
30.12000 456.516
30.16000 446.794
30.20000 429.826
30.24000 442.844
30.28000 437.210
30.32000 430.800
30.36000 422.834
30.40000 438.890
30.44000 438.649
30.48000 443.107
30.52000 454.104
30.56000 436.256
30.60000 433.299
30.64000 431.349
30.68000 453.860
30.72000 461.211
30.76000 456.175
30.80000 476.250
30.84000 486.884
30.88000 503.050
30.92000 536.964
30.96000 546.521
31.00000 630.274
31.04000 732.701
31.08000 922.028
31.12000 1202.884
31.16000 1613.197
31.20000 2171.061
31.24000 2866.989
31.28000 3513.406
31.32000 4011.879
31.36000 4102.182
31.40000 4008.296
31.44000 3575.264
31.48000 2837.907
31.52000 2198.625
31.56000 1584.406
31.60000 1119.264
31.64000 824.791
31.68000 650.167
31.72000 564.769
31.76000 520.753
31.80000 475.257
31.84000 478.723
31.88000 446.641
31.92000 454.461
31.96000 432.217
32.00000 427.264
32.04000 413.181
32.08000 417.559
32.12000 415.877
32.16000 404.626
32.20000 402.641
32.24000 412.917
32.28000 411.110
32.32000 402.110
32.36000 396.676
32.40000 387.212
32.44000 409.064
32.48000 392.749
32.52000 401.064
32.56000 384.870
32.60000 381.730
32.64000 366.378
32.68000 378.803
32.72000 397.492
32.76000 367.590
32.80000 373.168
32.84000 371.006
32.88000 365.732
32.92000 361.461
32.96000 349.787
33.00000 355.711
33.04000 336.828
33.08000 363.022
33.12000 355.185
33.16000 345.109
33.20000 354.021
33.24000 352.766
33.28000 337.706
33.32000 344.148
33.36000 345.187
33.40000 337.049
33.44000 347.470
33.48000 340.415
33.52000 337.023
33.56000 340.190
33.60000 336.416
33.64000 351.727
33.68000 341.320
33.72000 336.987
33.76000 328.931
33.80000 323.869
33.84000 320.763
33.88000 336.496
33.92000 342.695
33.96000 344.675
34.00000 328.560
34.04000 341.636
34.08000 340.055
34.12000 329.115
34.16000 334.036
34.20000 332.982
34.24000 337.872
34.28000 339.026
34.32000 331.450
34.36000 323.293
34.40000 325.316
34.44000 331.165
34.48000 315.795
34.52000 305.187
34.56000 327.196
34.60000 309.476
34.64000 320.767
34.68000 324.929
34.72000 313.975
34.76000 327.185
34.80000 319.348
34.84000 307.935
34.88000 315.169
34.92000 311.451
34.96000 315.811
35.00000 310.003
35.04000 329.850
35.08000 315.426
35.12000 311.471
35.16000 299.073
35.20000 305.383
35.24000 321.281
35.28000 315.784
35.32000 327.661
35.36000 311.478
35.40000 312.183
35.44000 315.270
35.48000 313.940
35.52000 316.148
35.56000 321.960
35.60000 289.868
35.64000 303.777
35.68000 303.595
35.72000 304.059
35.76000 298.880
35.80000 311.596
35.84000 303.448
35.88000 305.378
35.92000 306.830
35.96000 294.834
36.00000 303.007
36.04000 311.570
36.08000 308.649
36.12000 301.807
36.16000 296.965
36.20000 304.112
36.24000 306.549
36.28000 298.035
36.32000 296.901
36.36000 298.957
36.40000 296.760
36.44000 295.614
36.48000 304.412
36.52000 296.829
36.56000 302.596
36.60000 302.507
36.64000 322.745
36.68000 304.806
36.72000 297.318
36.76000 288.960
36.80000 303.358
36.84000 324.463
36.88000 288.943
36.92000 282.522
36.96000 302.224
37.00000 311.091
37.04000 304.794
37.08000 307.688
37.12000 303.828
37.16000 285.725
37.20000 298.868
37.24000 286.956
37.28000 293.489
37.32000 294.252
37.36000 299.873
37.40000 288.872
37.44000 273.736
37.48000 267.366
37.52000 284.125
37.56000 300.159
37.60000 285.938
37.64000 272.767
37.68000 287.897
37.72000 296.418
37.76000 290.000
37.80000 295.671
37.84000 294.775
37.88000 272.706
37.92000 299.459
37.96000 291.681
38.00000 294.136
38.04000 292.651
38.08000 291.698
38.12000 312.888
38.16000 293.609
38.20000 293.122
38.24000 303.109
38.28000 316.202
38.32000 315.195
38.36000 327.657
38.40000 382.878
38.44000 400.759
38.48000 440.884
38.52000 500.158
38.56000 535.831
38.60000 590.018
38.64000 636.827
38.68000 654.053
38.72000 662.174
38.76000 636.847
38.80000 561.388
38.84000 516.311
38.88000 436.985
38.92000 377.170
38.96000 355.597
39.00000 326.137
39.04000 285.158
39.08000 285.389
39.12000 287.944
39.16000 276.043
39.20000 276.895
39.24000 267.523
39.28000 265.884
39.32000 281.081
39.36000 271.247
39.40000 276.763
39.44000 263.459
39.48000 259.626
39.52000 276.393
39.56000 282.357
39.60000 270.630
39.64000 269.932
39.68000 245.630
39.72000 271.932
39.76000 270.900
39.80000 274.117
39.84000 254.663
39.88000 267.523
39.92000 260.941
39.96000 250.083
40.00000 265.913
40.04000 261.592
40.08000 261.949
40.12000 256.325
40.16000 273.141
40.20000 262.567
40.24000 251.965
40.28000 256.948
40.32000 266.382
40.36000 255.570
40.40000 261.710
40.44000 252.439
40.48000 260.521
40.52000 254.403
40.56000 244.966
40.60000 246.147
40.64000 247.147
40.68000 255.419
40.72000 245.865
40.76000 246.268
40.80000 260.764
40.84000 253.012
40.88000 239.422
40.92000 240.387
40.96000 253.410
41.00000 259.905
41.04000 239.833
41.08000 231.473
41.12000 249.579
41.16000 254.515
41.20000 249.630
41.24000 254.046
41.28000 237.931
41.32000 240.924
41.36000 241.706
41.40000 237.504
41.44000 241.270
41.48000 245.209
41.52000 240.459
41.56000 235.318
41.60000 232.667
41.64000 245.230
41.68000 239.755
41.72000 229.418
41.76000 243.045
41.80000 231.062
41.84000 231.693
41.88000 232.430
41.92000 238.272
41.96000 226.172
42.00000 240.351
42.04000 237.821
42.08000 225.644
42.12000 248.851
42.16000 224.529
42.20000 225.306
42.24000 228.235
42.28000 235.502
42.32000 234.359
42.36000 243.305
42.40000 223.655
42.44000 233.003
42.48000 216.983
42.52000 233.217
42.56000 232.642
42.60000 236.241
42.64000 226.122
42.68000 229.094
42.72000 220.069
42.76000 234.290
42.80000 230.450
42.84000 237.133
42.88000 226.271
42.92000 234.478
42.96000 232.294
43.00000 224.810
43.04000 235.763
43.08000 223.646
43.12000 233.246
43.16000 230.507
43.20000 228.694
43.24000 232.542
43.28000 214.152
43.32000 226.817
43.36000 234.453
43.40000 227.725
43.44000 213.235
43.48000 223.557
43.52000 214.466
43.56000 231.534
43.60000 228.980
43.64000 229.945
43.68000 222.506
43.72000 240.694
43.76000 224.839
43.80000 234.068
43.84000 227.698
43.88000 223.591
43.92000 211.975
43.96000 227.041
44.00000 229.119
44.04000 219.778
44.08000 232.805
44.12000 232.697
44.16000 233.260
44.20000 246.485
44.24000 217.613
44.28000 224.670
44.32000 222.832
44.36000 222.474
44.40000 222.505
44.44000 235.213
44.48000 227.747
44.52000 234.164
44.56000 231.876
44.60000 235.669
44.64000 263.716
44.68000 270.133
44.72000 266.415
44.76000 312.932
44.80000 347.240
44.84000 387.569
44.88000 433.746
44.92000 464.862
44.96000 476.128
45.00000 484.271
45.04000 498.344
45.08000 485.714
45.12000 443.461
45.16000 413.578
45.20000 379.645
45.24000 365.789
45.28000 316.999
45.32000 286.700
45.36000 271.143
45.40000 250.438
45.44000 238.389
45.48000 241.556
45.52000 232.679
45.56000 231.815
45.60000 216.782
45.64000 233.347
45.68000 229.278
45.72000 218.461
45.76000 217.301
45.80000 211.387
45.84000 196.939
45.88000 214.974
45.92000 208.635
45.96000 214.401
46.00000 204.807
46.04000 211.804
46.08000 202.937
46.12000 208.464
46.16000 194.041
46.20000 210.314
46.24000 195.956
46.28000 207.089
46.32000 199.875
46.36000 204.635
46.40000 198.324
46.44000 201.081
46.48000 199.715
46.52000 202.994
46.56000 194.569
46.60000 210.769
46.64000 206.195
46.68000 193.268
46.72000 188.982
46.76000 192.953
46.80000 199.226
46.84000 198.868
46.88000 193.535
46.92000 191.521
46.96000 200.931
47.00000 193.965
47.04000 193.315
47.08000 194.411
47.12000 199.475
47.16000 194.364
47.20000 206.399
47.24000 181.022
47.28000 195.506
47.32000 178.484
47.36000 193.397
47.40000 183.593
47.44000 188.061
47.48000 200.366
47.52000 190.028
47.56000 185.476
47.60000 191.411
47.64000 190.716
47.68000 191.694
47.72000 186.343
47.76000 182.647
47.80000 181.121
47.84000 181.635
47.88000 184.513
47.92000 175.569
47.96000 190.370
48.00000 190.735
48.04000 177.075
48.08000 186.886
48.12000 189.959
48.16000 187.812
48.20000 178.461
48.24000 186.409
48.28000 176.686
48.32000 194.881
48.36000 179.749
48.40000 182.677
48.44000 182.304
48.48000 180.824
48.52000 182.804
48.56000 189.635
48.60000 181.209
48.64000 183.948
48.68000 174.484
48.72000 181.060
48.76000 182.469
48.80000 179.643
48.84000 180.614
48.88000 182.581
48.92000 179.091
48.96000 177.553
49.00000 186.998
49.04000 177.302
49.08000 184.418
49.12000 178.386
49.16000 186.117
49.20000 173.703
49.24000 188.794
49.28000 176.590
49.32000 179.746
49.36000 179.805
49.40000 172.453
49.44000 172.635
49.48000 186.012
49.52000 182.474
49.56000 182.578
49.60000 181.568
49.64000 173.213
49.68000 176.877
49.72000 179.904
49.76000 186.024
49.80000 180.379
49.84000 172.762
49.88000 182.556
49.92000 178.590
49.96000 186.014
50.00000 175.464
50.04000 166.835
50.08000 180.897
50.12000 182.802
50.16000 176.531
50.20000 190.879
50.24000 172.713
50.28000 186.755
50.32000 214.758
50.36000 207.884
50.40000 198.674
50.44000 216.961
50.48000 247.516
50.52000 241.252
50.56000 267.165
50.60000 287.129
50.64000 297.228
50.68000 275.184
50.72000 284.165
50.76000 287.755
50.80000 281.497
50.84000 246.127
50.88000 232.592
50.92000 225.854
50.96000 206.266
51.00000 193.743
51.04000 187.907
51.08000 185.637
51.12000 175.879
51.16000 175.560
51.20000 172.631
51.24000 169.242
51.28000 170.957
51.32000 168.732
51.36000 163.722
51.40000 163.052
51.44000 165.985
51.48000 171.255
51.52000 167.125
51.56000 169.933
51.60000 171.393
51.64000 162.946
51.68000 170.375
51.72000 171.700
51.76000 161.635
51.80000 162.644
51.84000 166.818
51.88000 161.370
51.92000 163.252
51.96000 172.808
52.00000 154.324
52.04000 172.374
52.08000 161.201
52.12000 172.001
52.16000 162.134
52.20000 167.768
52.24000 163.079
52.28000 152.831
52.32000 161.434
52.36000 166.339
52.40000 151.814
52.44000 162.040
52.48000 162.511
52.52000 169.843
52.56000 159.255
52.60000 150.104
52.64000 147.408
52.68000 170.992
52.72000 166.945
52.76000 167.879
52.80000 155.391
52.84000 152.740
52.88000 157.863
52.92000 160.540
52.96000 174.817
53.00000 159.886
53.04000 157.495
53.08000 169.801
53.12000 163.218
53.16000 164.691
53.20000 155.139
53.24000 158.156
53.28000 169.811
53.32000 164.951
53.36000 164.668
53.40000 166.562
53.44000 167.244
53.48000 167.331
53.52000 155.908
53.56000 166.518
53.60000 163.365
53.64000 151.505
53.68000 150.387
53.72000 156.602
53.76000 157.043
53.80000 152.485
53.84000 157.411
53.88000 156.482
53.92000 153.934
53.96000 151.273
54.00000 142.301
54.04000 153.360
54.08000 150.379
54.12000 164.666
54.16000 161.898
54.20000 162.827
54.24000 151.980
54.28000 155.565
54.32000 160.250
54.36000 153.083
54.40000 149.289
54.44000 145.667
54.48000 159.284
54.52000 157.740
54.56000 152.373
54.60000 151.826
54.64000 148.194
54.68000 158.363
54.72000 153.111
54.76000 156.616
54.80000 157.374
54.84000 169.050
54.88000 150.735
54.92000 158.582
54.96000 144.156
55.00000 156.379
55.04000 159.496
55.08000 160.959
55.12000 152.001
55.16000 153.818
55.20000 171.681
55.24000 163.046
55.28000 164.736
55.32000 175.272
55.36000 179.419
55.40000 185.451
55.44000 194.601
55.48000 208.315
55.52000 230.025
55.56000 258.103
55.60000 295.140
55.64000 331.933
55.68000 416.466
55.72000 496.159
55.76000 530.601
55.80000 619.924
55.84000 645.391
55.88000 690.492
55.92000 660.151
55.96000 640.153
56.00000 583.795
56.04000 519.525
56.08000 453.975
56.12000 378.306
56.16000 342.057
56.20000 279.823
56.24000 244.405
56.28000 229.793
56.32000 195.612
56.36000 194.736
56.40000 177.241
56.44000 168.221
56.48000 170.786
56.52000 166.046
56.56000 158.213
56.60000 161.195
56.64000 152.883
56.68000 157.055
56.72000 142.717
56.76000 152.941
56.80000 172.608
56.84000 154.308
56.88000 142.915
56.92000 148.040
56.96000 149.252
57.00000 156.980
57.04000 148.547
57.08000 149.250
57.12000 141.318
57.16000 149.703
57.20000 143.079
57.24000 142.206
57.28000 149.246
57.32000 140.791
57.36000 144.316
57.40000 141.070
57.44000 141.755
57.48000 146.027
57.52000 154.557
57.56000 137.781
57.60000 144.774
57.64000 141.439
57.68000 148.019
57.72000 145.881
57.76000 138.303
57.80000 143.797
57.84000 140.327
57.88000 145.498
57.92000 135.355
57.96000 136.578
58.00000 152.959
58.04000 132.236
58.08000 140.250
58.12000 137.026
58.16000 133.486
58.20000 143.620
58.24000 141.075
58.28000 139.178
58.32000 149.049
58.36000 148.195
58.40000 133.726
58.44000 141.881
58.48000 143.567
58.52000 146.710
58.56000 145.422
58.60000 138.370
58.64000 139.464
58.68000 134.406
58.72000 137.568
58.76000 128.997
58.80000 129.241
58.84000 142.463
58.88000 132.051
58.92000 138.506
58.96000 139.830
59.00000 138.736
59.04000 131.066
59.08000 131.181
59.12000 143.625
59.16000 133.701
59.20000 135.577
59.24000 137.309
59.28000 137.634
59.32000 132.252
59.36000 134.899
59.40000 133.009
59.44000 133.144
59.48000 122.125
59.52000 134.456
59.56000 127.336
59.60000 142.571
59.64000 132.693
59.68000 136.451
59.72000 132.158
59.76000 132.695
59.80000 134.957
59.84000 131.913
59.88000 133.807
59.92000 129.114
59.96000 139.867
60.00000 131.726
60.04000 131.874
60.08000 143.772
60.12000 123.668
60.16000 122.748
60.20000 134.193
60.24000 137.902
60.28000 140.043
60.32000 130.780
60.36000 138.602
60.40000 125.268
60.44000 134.892
60.48000 140.933
60.52000 134.356
60.56000 135.131
60.60000 140.483
60.64000 117.770
60.68000 138.521
60.72000 128.391
60.76000 125.946
60.80000 134.497
60.84000 130.388
60.88000 124.623
60.92000 134.313
60.96000 136.487
61.00000 129.483
61.04000 137.771
61.08000 129.390
61.12000 136.132
61.16000 137.504
61.20000 137.864
61.24000 142.898
61.28000 140.239
61.32000 146.640
61.36000 140.546
61.40000 140.355
61.44000 149.071
61.48000 150.871
61.52000 177.131
61.56000 253.555
61.60000 301.407
61.64000 332.424
61.68000 323.561
61.72000 341.414
61.76000 309.797
61.80000 256.677
61.84000 200.797
61.88000 160.960
61.92000 158.446
61.96000 141.886
62.00000 150.812
62.04000 148.306
62.08000 152.100
62.12000 140.235
62.16000 129.696
62.20000 136.749
62.24000 138.875
62.28000 151.537
62.32000 149.210
62.36000 151.821
62.40000 151.463
62.44000 147.710
62.48000 142.739
62.52000 130.795
62.56000 142.976
62.60000 147.857
62.64000 140.495
62.68000 135.701
62.72000 139.076
62.76000 143.141
62.80000 144.827
62.84000 144.216
62.88000 140.018
62.92000 154.648
62.96000 148.485
63.00000 135.198
63.04000 150.367
63.08000 139.379
63.12000 152.511
63.16000 148.521
63.20000 150.190
63.24000 147.483
63.28000 150.045
63.32000 146.609
63.36000 147.941
63.40000 151.511
63.44000 142.939
63.48000 144.873
63.52000 150.250
63.56000 148.641
63.60000 148.006
63.64000 151.846
63.68000 152.714
63.72000 155.849
63.76000 157.309
63.80000 165.572
63.84000 140.692
63.88000 154.324
63.92000 152.497
63.96000 147.758
64.00000 159.669
64.04000 164.909
64.08000 153.286
64.12000 162.442
64.16000 166.517
64.20000 161.935
64.24000 166.934
64.28000 171.326
64.32000 167.054
64.36000 171.209
64.40000 170.273
64.44000 161.072
64.48000 168.523
64.52000 166.500
64.56000 169.548
64.60000 168.814
64.64000 174.652
64.68000 174.716
64.72000 182.696
64.76000 172.996
64.80000 189.930
64.84000 195.498
64.88000 179.264
64.92000 188.298
64.96000 198.695
65.00000 198.192
65.04000 203.324
65.08000 220.319
65.12000 226.200
65.16000 249.829
65.20000 252.193
65.24000 287.733
65.28000 321.350
65.32000 338.262
65.36000 372.633
65.40000 396.470
65.44000 441.860
65.48000 460.688
65.52000 481.970
65.56000 504.554
65.60000 482.459
65.64000 543.978
65.68000 623.419
65.72000 825.193
65.76000 1098.884
65.80000 1330.191
65.84000 1410.030
65.88000 1389.571
65.92000 1256.232
65.96000 1061.845
66.00000 754.063
66.04000 517.724
66.08000 394.137
66.12000 361.378
66.16000 317.787
66.20000 337.142
66.24000 350.768
66.28000 404.974
66.32000 440.434
66.36000 504.782
66.40000 541.493
66.44000 504.583
66.48000 499.525
66.52000 454.638
66.56000 408.695
66.60000 357.706
66.64000 338.914
66.68000 351.112
66.72000 342.381
66.76000 330.961
66.80000 351.417
66.84000 356.055
66.88000 356.675
66.92000 367.826
66.96000 380.326
67.00000 383.711
67.04000 414.570
67.08000 388.727
67.12000 398.252
67.16000 393.979
67.20000 416.650
67.24000 406.733
67.28000 421.857
67.32000 429.381
67.36000 440.729
67.40000 424.291
67.44000 455.561
67.48000 447.423
67.52000 459.764
67.56000 486.871
67.60000 482.148
67.64000 486.468
67.68000 515.570
67.72000 532.317
67.76000 515.151
67.80000 525.998
67.84000 546.143
67.88000 529.932
67.92000 566.355
67.96000 582.248
68.00000 585.195
68.04000 594.381
68.08000 609.920
68.12000 652.088
68.16000 663.420
68.20000 688.459
68.24000 704.233
68.28000 735.757
68.32000 746.579
68.36000 790.166
68.40000 838.483
68.44000 851.496
68.48000 887.746
68.52000 948.349
68.56000 1050.056
68.60000 1184.644
68.64000 1436.000
68.68000 1739.352
68.72000 1972.867
68.76000 2299.357
68.80000 2694.973
68.84000 3359.741
68.88000 4867.396
68.92000 9579.142
68.96000 23710.086
69.00000 48321.477
69.04000 71647.086
69.08000 82721.914
69.12000 84851.961
69.16000 87550.063
69.20000 84808.219
69.24000 70779.664
69.28000 55375.797
69.32000 45631.926
69.36000 39626.160
69.40000 30855.932
69.44000 18645.010
69.48000 8843.329
69.52000 3959.756
69.56000 2433.386
69.60000 1848.375
69.64000 1516.318
69.68000 1354.665
69.72000 1202.507
69.76000 1092.511
69.80000 1028.932
69.84000 969.308
69.88000 875.675
69.92000 852.755
69.96000 842.582
70.00000 797.646