File: XRD/XRD/17-09-2025/XY Data/BTO_Mapping_Theta2Theta_09-17-2025_001_10_-30-000_-15-000.xy
20.00000 573.569
20.04000 571.162
20.08000 559.646
20.12000 560.452
20.16000 558.927
20.20000 562.158
20.24000 554.226
20.28000 561.145
20.32000 573.712
20.36000 541.593
20.40000 570.397
20.44000 544.388
20.48000 554.525
20.52000 559.323
20.56000 546.018
20.60000 555.996
20.64000 571.659
20.68000 568.752
20.72000 552.773
20.76000 555.398
20.80000 575.686
20.84000 546.600
20.88000 556.115
20.92000 531.654
20.96000 557.080
21.00000 556.046
21.04000 547.942
21.08000 537.860
21.12000 563.417
21.16000 574.916
21.20000 569.286
21.24000 543.807
21.28000 556.276
21.32000 579.787
21.36000 571.551
21.40000 574.762
21.44000 568.303
21.48000 557.701
21.52000 574.199
21.56000 582.161
21.60000 605.605
21.64000 624.470
21.68000 631.938
21.72000 687.871
21.76000 758.656
21.80000 827.107
21.84000 925.611
21.88000 966.817
21.92000 1054.482
21.96000 1087.507
22.00000 1066.881
22.04000 1005.400
22.08000 914.080
22.12000 853.338
22.16000 771.673
22.20000 706.026
22.24000 639.909
22.28000 607.405
22.32000 589.456
22.36000 574.443
22.40000 570.379
22.44000 548.656
22.48000 564.767
22.52000 539.957
22.56000 541.961
22.60000 516.667
22.64000 538.713
22.68000 525.495
22.72000 524.649
22.76000 526.226
22.80000 536.793
22.84000 511.099
22.88000 533.224
22.92000 524.927
22.96000 523.100
23.00000 516.631
23.04000 516.502
23.08000 519.695
23.12000 515.019
23.16000 520.683
23.20000 514.058
23.24000 488.771
23.28000 516.729
23.32000 530.328
23.36000 504.797
23.40000 513.081
23.44000 501.253
23.48000 518.705
23.52000 514.570
23.56000 513.302
23.60000 515.151
23.64000 507.689
23.68000 512.055
23.72000 519.543
23.76000 507.061
23.80000 510.308
23.84000 525.080
23.88000 498.072
23.92000 498.242
23.96000 516.520
24.00000 496.705
24.04000 497.611
24.08000 494.549
24.12000 506.431
24.16000 496.075
24.20000 502.497
24.24000 507.426
24.28000 507.310
24.32000 485.655
24.36000 493.834
24.40000 494.876
24.44000 503.425
24.48000 506.346
24.52000 497.693
24.56000 493.841
24.60000 504.202
24.64000 495.377
24.68000 493.863
24.72000 497.233
24.76000 477.230
24.80000 482.884
24.84000 493.960
24.88000 459.565
24.92000 482.816
24.96000 492.751
25.00000 470.941
25.04000 471.613
25.08000 480.756
25.12000 472.519
25.16000 481.955
25.20000 478.522
25.24000 495.176
25.28000 481.799
25.32000 488.238
25.36000 486.266
25.40000 494.437
25.44000 481.159
25.48000 490.808
25.52000 486.998
25.56000 469.766
25.60000 480.402
25.64000 475.496
25.68000 465.751
25.72000 469.816
25.76000 472.366
25.80000 492.844
25.84000 482.575
25.88000 492.091
25.92000 469.921
25.96000 487.939
26.00000 487.639
26.04000 474.524
26.08000 461.915
26.12000 467.736
26.16000 482.975
26.20000 461.163
26.24000 455.404
26.28000 460.361
26.32000 452.370
26.36000 460.072
26.40000 458.159
26.44000 448.554
26.48000 457.544
26.52000 477.081
26.56000 458.321
26.60000 458.776
26.64000 461.902
26.68000 454.336
26.72000 462.015
26.76000 437.841
26.80000 451.944
26.84000 460.899
26.88000 459.051
26.92000 443.389
26.96000 445.351
27.00000 473.910
27.04000 459.485
27.08000 459.583
27.12000 466.212
27.16000 463.931
27.20000 449.265
27.24000 453.650
27.28000 452.645
27.32000 456.656
27.36000 459.335
27.40000 451.716
27.44000 443.555
27.48000 450.444
27.52000 461.047
27.56000 461.441
27.60000 455.471
27.64000 443.511
27.68000 461.076
27.72000 455.213
27.76000 463.139
27.80000 436.077
27.84000 445.349
27.88000 445.633
27.92000 442.737
27.96000 423.219
28.00000 459.613
28.04000 455.717
28.08000 449.099
28.12000 460.857
28.16000 454.703
28.20000 451.037
28.24000 456.037
28.28000 469.689
28.32000 445.785
28.36000 457.077
28.40000 446.474
28.44000 443.132
28.48000 431.863
28.52000 417.806
28.56000 441.858
28.60000 415.065
28.64000 447.605
28.68000 437.470
28.72000 449.609
28.76000 434.899
28.80000 433.236
28.84000 441.904
28.88000 438.214
28.92000 420.514
28.96000 435.674
29.00000 447.500
29.04000 435.394
29.08000 426.793
29.12000 425.626
29.16000 425.734
29.20000 439.977
29.24000 435.083
29.28000 441.025
29.32000 429.979
29.36000 439.105
29.40000 442.875
29.44000 432.440
29.48000 430.961
29.52000 435.418
29.56000 436.510
29.60000 428.635
29.64000 429.159
29.68000 443.578
29.72000 444.090
29.76000 474.055
29.80000 439.830
29.84000 457.688
29.88000 448.214
29.92000 478.750
29.96000 480.543
30.00000 477.870
30.04000 479.039
30.08000 451.220
30.12000 462.957
30.16000 447.263
30.20000 445.327
30.24000 452.968
30.28000 452.656
30.32000 436.648
30.36000 456.746
30.40000 432.086
30.44000 448.612
30.48000 449.602
30.52000 458.139
30.56000 464.075
30.60000 450.837
30.64000 476.164
30.68000 487.701
30.72000 484.335
30.76000 499.084
30.80000 516.732
30.84000 553.004
30.88000 576.788
30.92000 649.878
30.96000 740.150
31.00000 938.393
31.04000 1264.999
31.08000 1674.686
31.12000 2239.617
31.16000 2880.186
31.20000 3385.444
31.24000 3725.130
31.28000 3795.570
31.32000 3619.745
31.36000 3101.226
31.40000 2542.603
31.44000 1966.808
31.48000 1465.158
31.52000 1096.942
31.56000 883.862
31.60000 719.690
31.64000 625.815
31.68000 581.495
31.72000 525.441
31.76000 506.617
31.80000 468.127
31.84000 455.666
31.88000 458.323
31.92000 456.172
31.96000 430.406
32.00000 441.181
32.04000 419.972
32.08000 429.482
32.12000 413.754
32.16000 411.243
32.20000 418.548
32.24000 411.309
32.28000 409.856
32.32000 424.371
32.36000 406.860
32.40000 396.918
32.44000 401.797
32.48000 407.842
32.52000 403.185
32.56000 397.473
32.60000 390.770
32.64000 394.063
32.68000 370.155
32.72000 378.834
32.76000 376.358
32.80000 368.564
32.84000 381.661
32.88000 360.654
32.92000 383.083
32.96000 377.020
33.00000 366.265
33.04000 371.780
33.08000 363.114
33.12000 356.138
33.16000 340.076
33.20000 358.016
33.24000 367.435
33.28000 350.309
33.32000 369.322
33.36000 355.253
33.40000 373.074
33.44000 348.451
33.48000 367.642
33.52000 340.106
33.56000 338.986
33.60000 363.070
33.64000 344.116
33.68000 358.406
33.72000 344.094
33.76000 344.168
33.80000 341.601
33.84000 352.932
33.88000 344.440
33.92000 355.328
33.96000 348.145
34.00000 341.796
34.04000 334.501
34.08000 320.711
34.12000 333.347
34.16000 330.677
34.20000 346.304
34.24000 346.566
34.28000 334.340
34.32000 340.815
34.36000 329.887
34.40000 343.851
34.44000 348.085
34.48000 318.181
34.52000 329.029
34.56000 337.711
34.60000 318.901
34.64000 321.918
34.68000 338.032
34.72000 328.075
34.76000 326.880
34.80000 311.398
34.84000 331.659
34.88000 330.550
34.92000 318.104
34.96000 327.086
35.00000 321.266
35.04000 304.482
35.08000 318.092
35.12000 304.141
35.16000 314.996
35.20000 323.853
35.24000 329.368
35.28000 306.649
35.32000 323.264
35.36000 336.314
35.40000 335.281
35.44000 310.468
35.48000 306.691
35.52000 314.843
35.56000 316.803
35.60000 319.037
35.64000 318.424
35.68000 300.614
35.72000 303.554
35.76000 296.221
35.80000 298.267
35.84000 311.073
35.88000 318.034
35.92000 300.196
35.96000 313.106
36.00000 302.847
36.04000 309.296
36.08000 305.353
36.12000 311.906
36.16000 323.103
36.20000 303.760
36.24000 303.818
36.28000 313.548
36.32000 308.601
36.36000 307.678
36.40000 300.528
36.44000 312.109
36.48000 318.059
36.52000 300.359
36.56000 307.505
36.60000 297.301
36.64000 298.481
36.68000 288.506
36.72000 298.972
36.76000 299.449
36.80000 310.825
36.84000 307.529
36.88000 299.836
36.92000 300.415
36.96000 313.860
37.00000 299.404
37.04000 311.934
37.08000 309.496
37.12000 306.347
37.16000 304.885
37.20000 321.738
37.24000 311.662
37.28000 298.667
37.32000 298.612
37.36000 293.232
37.40000 286.988
37.44000 300.751
37.48000 288.019
37.52000 307.886
37.56000 291.316
37.60000 293.780
37.64000 308.315
37.68000 286.809
37.72000 289.037
37.76000 286.990
37.80000 302.327
37.84000 292.021
37.88000 305.283
37.92000 288.525
37.96000 295.209
38.00000 316.963
38.04000 307.081
38.08000 302.865
38.12000 321.848
38.16000 326.555
38.20000 333.548
38.24000 331.734
38.28000 335.074
38.32000 352.823
38.36000 377.737
38.40000 386.730
38.44000 433.271
38.48000 466.834
38.52000 483.727
38.56000 489.299
38.60000 483.412
38.64000 472.387
38.68000 442.299
38.72000 414.070
38.76000 401.929
38.80000 388.394
38.84000 361.341
38.88000 331.649
38.92000 312.124
38.96000 298.333
39.00000 300.826
39.04000 303.678
39.08000 283.878
39.12000 283.310
39.16000 294.828
39.20000 291.806
39.24000 275.509
39.28000 270.053
39.32000 284.348
39.36000 282.682
39.40000 276.128
39.44000 271.528
39.48000 274.901
39.52000 252.175
39.56000 262.439
39.60000 278.168
39.64000 277.782
39.68000 270.246
39.72000 264.674
39.76000 269.262
39.80000 265.988
39.84000 290.357
39.88000 265.242
39.92000 251.698
39.96000 264.454
40.00000 271.093
40.04000 265.196
40.08000 265.997
40.12000 261.016
40.16000 273.773
40.20000 273.758
40.24000 254.901
40.28000 255.971
40.32000 260.235
40.36000 278.057
40.40000 259.521
40.44000 253.698
40.48000 263.110
40.52000 249.961
40.56000 254.677
40.60000 251.943
40.64000 250.625
40.68000 253.193
40.72000 271.925
40.76000 255.202
40.80000 259.536
40.84000 247.784
40.88000 253.499
40.92000 255.176
40.96000 268.686
41.00000 247.745
41.04000 256.358
41.08000 241.155
41.12000 255.136
41.16000 252.523
41.20000 253.220
41.24000 256.919
41.28000 259.128
41.32000 242.479
41.36000 256.018
41.40000 237.629
41.44000 248.993
41.48000 260.407
41.52000 239.750
41.56000 248.003
41.60000 253.042
41.64000 229.229
41.68000 247.418
41.72000 245.656
41.76000 249.726
41.80000 252.517
41.84000 232.814
41.88000 245.306
41.92000 255.441
41.96000 239.713
42.00000 239.592
42.04000 244.971
42.08000 243.016
42.12000 230.227
42.16000 241.465
42.20000 235.879
42.24000 229.469
42.28000 243.577
42.32000 236.607
42.36000 242.056
42.40000 231.220
42.44000 250.280
42.48000 231.122
42.52000 236.878
42.56000 234.527
42.60000 247.173
42.64000 232.760
42.68000 242.072
42.72000 237.124
42.76000 238.719
42.80000 243.912
42.84000 239.605
42.88000 240.429
42.92000 235.171
42.96000 246.648
43.00000 232.716
43.04000 239.281
43.08000 239.807
43.12000 230.438
43.16000 238.733
43.20000 237.424
43.24000 230.465
43.28000 236.664
43.32000 241.636
43.36000 238.134
43.40000 233.330
43.44000 246.602
43.48000 227.480
43.52000 236.557
43.56000 208.816
43.60000 234.400
43.64000 215.304
43.68000 234.340
43.72000 237.646
43.76000 227.186
43.80000 232.399
43.84000 229.744
43.88000 236.849
43.92000 236.683
43.96000 235.537
44.00000 236.829
44.04000 237.448
44.08000 239.825
44.12000 239.404
44.16000 247.956
44.20000 245.630
44.24000 240.626
44.28000 250.192
44.32000 254.536
44.36000 263.139
44.40000 259.529
44.44000 270.693
44.48000 308.920
44.52000 321.733
44.56000 348.649
44.60000 383.341
44.64000 431.689
44.68000 489.516
44.72000 524.998
44.76000 592.633
44.80000 627.979
44.84000 680.581
44.88000 703.599
44.92000 698.479
44.96000 686.845
45.00000 638.630
45.04000 596.229
45.08000 549.609
45.12000 492.502
45.16000 427.328
45.20000 391.861
45.24000 369.796
45.28000 330.830
45.32000 320.479
45.36000 289.475
45.40000 272.354
45.44000 257.772
45.48000 252.277
45.52000 245.114
45.56000 235.580
45.60000 235.598
45.64000 225.302
45.68000 229.625
45.72000 224.097
45.76000 228.818
45.80000 218.209
45.84000 223.721
45.88000 218.839
45.92000 214.289
45.96000 225.159
46.00000 208.377
46.04000 206.713
46.08000 208.356
46.12000 216.025
46.16000 219.644
46.20000 222.741
46.24000 215.948
46.28000 215.884
46.32000 210.323
46.36000 217.596
46.40000 211.958
46.44000 209.971
46.48000 215.928
46.52000 214.831
46.56000 213.111
46.60000 211.519
46.64000 202.001
46.68000 200.575
46.72000 201.433
46.76000 202.512
46.80000 210.039
46.84000 198.776
46.88000 209.379
46.92000 207.756
46.96000 201.446
47.00000 216.042
47.04000 210.781
47.08000 200.556
47.12000 192.297
47.16000 192.062
47.20000 210.823
47.24000 197.416
47.28000 206.182
47.32000 201.418
47.36000 191.038
47.40000 192.974
47.44000 192.259
47.48000 188.028
47.52000 194.597
47.56000 191.562
47.60000 178.776
47.64000 195.553
47.68000 181.491
47.72000 191.757
47.76000 192.510
47.80000 178.891
47.84000 194.590
47.88000 185.838
47.92000 201.552
47.96000 192.289
48.00000 184.125
48.04000 190.388
48.08000 195.599
48.12000 198.282
48.16000 189.792
48.20000 198.039
48.24000 192.691
48.28000 183.501
48.32000 197.787
48.36000 185.537
48.40000 194.716
48.44000 191.838
48.48000 195.096
48.52000 186.738
48.56000 181.360
48.60000 184.820
48.64000 196.693
48.68000 182.371
48.72000 175.404
48.76000 194.024
48.80000 181.928
48.84000 192.888
48.88000 183.174
48.92000 195.983
48.96000 174.705
49.00000 185.643
49.04000 199.661
49.08000 182.227
49.12000 172.538
49.16000 182.089
49.20000 190.343
49.24000 189.970
49.28000 186.838
49.32000 186.586
49.36000 176.588
49.40000 176.458
49.44000 176.168
49.48000 178.961
49.52000 178.823
49.56000 178.569
49.60000 189.196
49.64000 171.624
49.68000 175.844
49.72000 188.252
49.76000 180.613
49.80000 178.473
49.84000 188.600
49.88000 171.435
49.92000 180.273
49.96000 180.984
50.00000 184.482
50.04000 193.406
50.08000 169.158
50.12000 188.097
50.16000 213.386
50.20000 217.073
50.24000 224.086
50.28000 215.698
50.32000 247.881
50.36000 253.252
50.40000 277.648
50.44000 291.557
50.48000 290.958
50.52000 285.305
50.56000 290.815
50.60000 288.552
50.64000 267.212
50.68000 270.078
50.72000 256.057
50.76000 247.587
50.80000 221.210
50.84000 206.323
50.88000 202.454
50.92000 190.460
50.96000 189.627
51.00000 180.359
51.04000 194.102
51.08000 200.471
51.12000 186.050
51.16000 181.715
51.20000 177.703
51.24000 175.983
51.28000 176.825
51.32000 168.256
51.36000 171.735
51.40000 183.739
51.44000 180.487
51.48000 175.842
51.52000 165.694
51.56000 161.444
51.60000 169.764
51.64000 154.725
51.68000 177.266
51.72000 166.238
51.76000 168.874
51.80000 163.509
51.84000 170.163
51.88000 173.230
51.92000 157.186
51.96000 165.275
52.00000 169.888
52.04000 163.429
52.08000 164.183
52.12000 177.439
52.16000 159.959
52.20000 155.733
52.24000 157.003
52.28000 167.839
52.32000 171.773
52.36000 155.264
52.40000 162.495
52.44000 168.883
52.48000 171.507
52.52000 171.789
52.56000 162.809
52.60000 158.367
52.64000 158.577
52.68000 169.964
52.72000 167.689
52.76000 161.716
52.80000 167.624
52.84000 175.991
52.88000 161.770
52.92000 168.711
52.96000 164.044
53.00000 151.993
53.04000 177.474
53.08000 162.352
53.12000 149.189
53.16000 173.257
53.20000 159.162
53.24000 168.110
53.28000 168.713
53.32000 169.333
53.36000 171.891
53.40000 169.075
53.44000 158.080
53.48000 161.101
53.52000 164.743
53.56000 158.790
53.60000 157.596
53.64000 174.800
53.68000 160.607
53.72000 163.239
53.76000 165.132
53.80000 149.122
53.84000 171.689
53.88000 164.251
53.92000 160.550
53.96000 155.191
54.00000 155.571
54.04000 160.452
54.08000 163.672
54.12000 143.270
54.16000 164.101
54.20000 150.120
54.24000 157.431
54.28000 160.468
54.32000 175.034
54.36000 153.049
54.40000 160.216
54.44000 170.591
54.48000 161.859
54.52000 164.838
54.56000 158.176
54.60000 158.927
54.64000 152.616
54.68000 160.709
54.72000 163.811
54.76000 162.919
54.80000 162.030
54.84000 166.997
54.88000 160.341
54.92000 160.846
54.96000 157.787
55.00000 159.978
55.04000 175.518
55.08000 178.122
55.12000 177.242
55.16000 179.734
55.20000 191.403
55.24000 197.148
55.28000 210.028
55.32000 218.165
55.36000 227.414
55.40000 261.774
55.44000 297.480
55.48000 322.156
55.52000 364.568
55.56000 430.767
55.60000 452.757
55.64000 492.415
55.68000 514.996
55.72000 527.832
55.76000 534.127
55.80000 526.888
55.84000 495.321
55.88000 442.902
55.92000 421.075
55.96000 358.559
56.00000 330.536
56.04000 287.909
56.08000 269.737
56.12000 248.204
56.16000 226.733
56.20000 214.257
56.24000 198.095
56.28000 183.263
56.32000 187.878
56.36000 171.213
56.40000 148.793
56.44000 169.223
56.48000 175.033
56.52000 158.141
56.56000 159.780
56.60000 144.665
56.64000 160.495
56.68000 161.905
56.72000 152.202
56.76000 155.561
56.80000 160.651
56.84000 149.941
56.88000 149.975
56.92000 146.313
56.96000 160.753
57.00000 149.655
57.04000 142.658
57.08000 154.518
57.12000 159.691
57.16000 144.783
57.20000 146.675
57.24000 148.978
57.28000 144.310
57.32000 144.251
57.36000 147.705
57.40000 139.208
57.44000 151.408
57.48000 156.504
57.52000 158.031
57.56000 144.793
57.60000 156.542
57.64000 141.829
57.68000 145.515
57.72000 147.598
57.76000 142.321
57.80000 148.703
57.84000 139.233
57.88000 145.334
57.92000 145.695
57.96000 138.866
58.00000 145.489
58.04000 138.755
58.08000 144.999
58.12000 147.779
58.16000 142.281
58.20000 139.693
58.24000 138.409
58.28000 141.016
58.32000 137.035
58.36000 141.735
58.40000 144.748
58.44000 144.986
58.48000 141.532
58.52000 137.039
58.56000 143.057
58.60000 145.780
58.64000 139.398
58.68000 134.330
58.72000 143.171
58.76000 133.879
58.80000 135.133
58.84000 138.686
58.88000 133.367
58.92000 141.189
58.96000 141.956
59.00000 136.982
59.04000 127.709
59.08000 137.641
59.12000 143.451
59.16000 140.218
59.20000 144.881
59.24000 141.940
59.28000 135.933
59.32000 128.576
59.36000 138.188
59.40000 128.059
59.44000 135.089
59.48000 127.400
59.52000 132.281
59.56000 129.052
59.60000 126.494
59.64000 135.345
59.68000 136.492
59.72000 130.465
59.76000 135.068
59.80000 127.041
59.84000 127.764
59.88000 128.981
59.92000 131.087
59.96000 131.828
60.00000 132.204
60.04000 136.639
60.08000 128.719
60.12000 136.293
60.16000 128.873
60.20000 136.982
60.24000 137.478
60.28000 131.737
60.32000 133.469
60.36000 131.312
60.40000 135.535
60.44000 135.554
60.48000 143.688
60.52000 124.221
60.56000 134.663
60.60000 126.806
60.64000 135.684
60.68000 131.560
60.72000 127.184
60.76000 135.022
60.80000 138.590
60.84000 128.672
60.88000 139.183
60.92000 132.957
60.96000 129.967
61.00000 133.999
61.04000 135.267
61.08000 143.836
61.12000 144.105
61.16000 140.528
61.20000 144.841
61.24000 147.260
61.28000 137.068
61.32000 139.078
61.36000 145.912
61.40000 148.580
61.44000 144.945
61.48000 157.187
61.52000 182.332
61.56000 264.087
61.60000 315.401
61.64000 352.407
61.68000 370.602
61.72000 364.185
61.76000 319.722
61.80000 257.242
61.84000 200.269
61.88000 176.006
61.92000 153.243
61.96000 167.098
62.00000 149.509
62.04000 149.490
62.08000 147.953
62.12000 145.660
62.16000 144.122
62.20000 151.325
62.24000 148.419
62.28000 134.270
62.32000 141.985
62.36000 148.490
62.40000 154.167
62.44000 147.907
62.48000 154.115
62.52000 137.751
62.56000 147.196
62.60000 136.485
62.64000 143.923
62.68000 141.951
62.72000 149.466
62.76000 148.067
62.80000 149.597
62.84000 144.764
62.88000 147.771
62.92000 146.655
62.96000 143.377
63.00000 167.238
63.04000 140.688
63.08000 142.815
63.12000 149.195
63.16000 157.987
63.20000 146.907
63.24000 148.308
63.28000 147.040
63.32000 153.110
63.36000 150.009
63.40000 153.647
63.44000 150.670
63.48000 151.310
63.52000 148.927
63.56000 160.585
63.60000 156.958
63.64000 138.814
63.68000 152.872
63.72000 152.298
63.76000 156.829
63.80000 157.754
63.84000 158.426
63.88000 157.305
63.92000 159.495
63.96000 163.105
64.00000 160.148
64.04000 153.469
64.08000 152.940
64.12000 163.966
64.16000 172.412
64.20000 162.276
64.24000 174.100
64.28000 162.229
64.32000 161.499
64.36000 170.525
64.40000 169.699
64.44000 173.489
64.48000 179.827
64.52000 171.871
64.56000 161.806
64.60000 169.434
64.64000 177.127
64.68000 180.860
64.72000 192.659
64.76000 191.855
64.80000 197.050
64.84000 201.882
64.88000 224.140
64.92000 215.691
64.96000 251.854
65.00000 264.404
65.04000 289.566
65.08000 307.525
65.12000 340.701
65.16000 382.550
65.20000 394.345
65.24000 416.662
65.28000 410.131
65.32000 427.125
65.36000 428.204
65.40000 389.446
65.44000 404.483
65.48000 387.379
65.52000 370.987
65.56000 375.171
65.60000 374.385
65.64000 418.370
65.68000 525.329
65.72000 745.165
65.76000 1044.068
65.80000 1284.682
65.84000 1447.117
65.88000 1455.968
65.92000 1358.889
65.96000 1117.822
66.00000 801.247
66.04000 536.807
66.08000 403.346
66.12000 342.673
66.16000 331.168
66.20000 347.412
66.24000 350.434
66.28000 398.390
66.32000 467.579
66.36000 516.909
66.40000 528.726
66.44000 543.551
66.48000 520.518
66.52000 491.512
66.56000 410.030
66.60000 372.947
66.64000 366.063
66.68000 338.384
66.72000 346.782
66.76000 344.854
66.80000 357.999
66.84000 371.743
66.88000 363.705
66.92000 362.499
66.96000 397.005
67.00000 385.123
67.04000 396.555
67.08000 384.493
67.12000 409.353
67.16000 416.497
67.20000 436.813
67.24000 439.970
67.28000 430.096
67.32000 450.648
67.36000 447.132
67.40000 450.852
67.44000 447.483
67.48000 469.308
67.52000 475.424
67.56000 497.586
67.60000 486.100
67.64000 497.807
67.68000 535.163
67.72000 549.477
67.76000 530.912
67.80000 573.416
67.84000 563.032
67.88000 568.637
67.92000 589.179
67.96000 592.537
68.00000 617.859
68.04000 630.897
68.08000 652.270
68.12000 660.363
68.16000 691.263
68.20000 692.356
68.24000 729.911
68.28000 735.218
68.32000 728.973
68.36000 780.874
68.40000 817.237
68.44000 878.763
68.48000 924.079
68.52000 1003.382
68.56000 1083.071
68.60000 1195.198
68.64000 1511.255
68.68000 1804.255
68.72000 2122.673
68.76000 2413.228
68.80000 2783.267
68.84000 3508.965
68.88000 5072.628
68.92000 10201.519
68.96000 24735.900
69.00000 50236.727
69.04000 75712.148
69.08000 88542.438
69.12000 91412.664
69.16000 94047.539
69.20000 91196.609
69.24000 78014.836
69.28000 60620.117
69.32000 49658.059
69.36000 43062.707
69.40000 33866.309
69.44000 21295.465
69.48000 10209.406
69.52000 4502.589
69.56000 2668.491
69.60000 2008.220
69.64000 1686.300
69.68000 1441.727
69.72000 1263.822
69.76000 1168.590
69.80000 1058.477
69.84000 988.351
69.88000 944.085
69.92000 892.536
69.96000 854.225
70.00000 803.770