File: XRD/XRD/17-09-2025/XY Data/BTO_Mapping_Theta2Theta_09-17-2025_001_31_-15-000_30-000.xy
20.00000 551.644
20.04000 539.521
20.08000 546.330
20.12000 567.764
20.16000 557.333
20.20000 549.023
20.24000 568.554
20.28000 548.005
20.32000 589.347
20.36000 561.479
20.40000 553.367
20.44000 560.317
20.48000 555.584
20.52000 551.039
20.56000 537.057
20.60000 538.285
20.64000 539.933
20.68000 552.870
20.72000 562.280
20.76000 541.271
20.80000 548.874
20.84000 571.859
20.88000 551.478
20.92000 580.575
20.96000 545.952
21.00000 547.499
21.04000 549.750
21.08000 534.662
21.12000 551.027
21.16000 537.562
21.20000 560.715
21.24000 554.320
21.28000 516.688
21.32000 542.459
21.36000 527.035
21.40000 538.394
21.44000 540.823
21.48000 546.146
21.52000 568.554
21.56000 547.880
21.60000 545.406
21.64000 552.456
21.68000 534.021
21.72000 573.074
21.76000 561.618
21.80000 589.035
21.84000 656.391
21.88000 665.100
21.92000 697.593
21.96000 775.581
22.00000 787.694
22.04000 824.726
22.08000 787.779
22.12000 776.163
22.16000 744.192
22.20000 685.607
22.24000 655.237
22.28000 609.786
22.32000 580.580
22.36000 556.341
22.40000 543.918
22.44000 534.458
22.48000 529.232
22.52000 504.535
22.56000 520.770
22.60000 534.487
22.64000 521.553
22.68000 519.059
22.72000 527.186
22.76000 520.755
22.80000 518.712
22.84000 500.233
22.88000 507.404
22.92000 525.185
22.96000 508.007
23.00000 517.957
23.04000 501.647
23.08000 501.493
23.12000 512.548
23.16000 495.161
23.20000 507.674
23.24000 494.955
23.28000 499.496
23.32000 496.774
23.36000 496.920
23.40000 488.373
23.44000 510.972
23.48000 488.523
23.52000 485.582
23.56000 496.081
23.60000 499.962
23.64000 513.282
23.68000 496.179
23.72000 488.402
23.76000 500.840
23.80000 480.040
23.84000 489.483
23.88000 491.165
23.92000 482.799
23.96000 495.270
24.00000 493.443
24.04000 489.682
24.08000 484.960
24.12000 475.183
24.16000 502.526
24.20000 504.738
24.24000 492.119
24.28000 485.984
24.32000 485.056
24.36000 484.622
24.40000 489.234
24.44000 463.325
24.48000 482.213
24.52000 493.891
24.56000 496.418
24.60000 494.831
24.64000 483.599
24.68000 462.739
24.72000 470.404
24.76000 483.270
24.80000 462.166
24.84000 466.981
24.88000 482.492
24.92000 475.715
24.96000 480.341
25.00000 477.188
25.04000 490.625
25.08000 481.999
25.12000 466.832
25.16000 460.948
25.20000 462.837
25.24000 463.588
25.28000 459.854
25.32000 454.676
25.36000 468.456
25.40000 461.222
25.44000 466.549
25.48000 464.988
25.52000 457.147
25.56000 474.342
25.60000 463.344
25.64000 468.401
25.68000 464.905
25.72000 454.094
25.76000 470.125
25.80000 454.815
25.84000 466.884
25.88000 477.386
25.92000 461.717
25.96000 473.025
26.00000 468.764
26.04000 461.993
26.08000 450.905
26.12000 462.962
26.16000 462.977
26.20000 442.773
26.24000 472.669
26.28000 456.674
26.32000 458.752
26.36000 452.183
26.40000 454.838
26.44000 439.962
26.48000 441.076
26.52000 459.884
26.56000 447.848
26.60000 458.780
26.64000 456.135
26.68000 449.796
26.72000 439.846
26.76000 454.563
26.80000 442.315
26.84000 453.518
26.88000 463.025
26.92000 448.706
26.96000 444.713
27.00000 441.162
27.04000 431.436
27.08000 444.974
27.12000 434.558
27.16000 439.725
27.20000 435.753
27.24000 465.411
27.28000 454.208
27.32000 447.222
27.36000 434.100
27.40000 433.403
27.44000 440.137
27.48000 438.420
27.52000 423.207
27.56000 424.612
27.60000 430.785
27.64000 446.346
27.68000 428.701
27.72000 428.110
27.76000 428.807
27.80000 426.556
27.84000 429.531
27.88000 435.549
27.92000 427.319
27.96000 421.042
28.00000 422.807
28.04000 429.484
28.08000 453.463
28.12000 434.446
28.16000 425.742
28.20000 437.069
28.24000 437.639
28.28000 441.715
28.32000 435.636
28.36000 423.906
28.40000 429.689
28.44000 422.908
28.48000 417.396
28.52000 413.207
28.56000 418.186
28.60000 425.024
28.64000 414.230
28.68000 427.977
28.72000 405.599
28.76000 399.664
28.80000 425.550
28.84000 419.416
28.88000 432.900
28.92000 396.873
28.96000 419.414
29.00000 413.808
29.04000 417.867
29.08000 431.199
29.12000 405.916
29.16000 410.349
29.20000 407.301
29.24000 418.025
29.28000 399.500
29.32000 415.861
29.36000 394.398
29.40000 432.404
29.44000 413.189
29.48000 413.883
29.52000 404.809
29.56000 429.260
29.60000 394.032
29.64000 418.888
29.68000 401.090
29.72000 410.108
29.76000 405.474
29.80000 428.743
29.84000 418.113
29.88000 438.552
29.92000 433.292
29.96000 431.249
30.00000 452.909
30.04000 467.644
30.08000 446.431
30.12000 456.448
30.16000 451.514
30.20000 443.250
30.24000 454.778
30.28000 433.280
30.32000 410.905
30.36000 422.654
30.40000 432.750
30.44000 429.006
30.48000 440.333
30.52000 436.065
30.56000 452.603
30.60000 436.045
30.64000 442.128
30.68000 455.329
30.72000 453.436
30.76000 455.644
30.80000 466.484
30.84000 455.090
30.88000 497.947
30.92000 509.386
30.96000 533.169
31.00000 608.778
31.04000 671.069
31.08000 794.289
31.12000 1007.428
31.16000 1334.594
31.20000 1778.822
31.24000 2380.681
31.28000 3047.375
31.32000 3640.033
31.36000 4038.301
31.40000 4141.599
31.44000 3942.296
31.48000 3483.219
31.52000 2771.680
31.56000 2102.269
31.60000 1499.500
31.64000 1077.204
31.68000 791.407
31.72000 651.214
31.76000 556.099
31.80000 503.535
31.84000 480.247
31.88000 449.639
31.92000 446.291
31.96000 434.601
32.00000 443.200
32.04000 408.334
32.08000 409.980
32.12000 408.113
32.16000 413.047
32.20000 383.048
32.24000 401.675
32.28000 401.391
32.32000 390.056
32.36000 400.371
32.40000 394.997
32.44000 397.452
32.48000 390.868
32.52000 388.532
32.56000 369.982
32.60000 379.021
32.64000 379.452
32.68000 379.723
32.72000 361.406
32.76000 365.772
32.80000 363.470
32.84000 366.492
32.88000 362.973
32.92000 349.898
32.96000 357.093
33.00000 356.746
33.04000 364.407
33.08000 356.758
33.12000 354.557
33.16000 332.758
33.20000 343.215
33.24000 351.574
33.28000 343.964
33.32000 350.747
33.36000 338.582
33.40000 356.293
33.44000 354.855
33.48000 335.733
33.52000 325.609
33.56000 359.801
33.60000 358.878
33.64000 342.058
33.68000 341.158
33.72000 325.422
33.76000 357.177
33.80000 336.916
33.84000 329.325
33.88000 333.925
33.92000 334.917
33.96000 347.347
34.00000 338.610
34.04000 335.570
34.08000 336.956
34.12000 319.540
34.16000 337.967
34.20000 328.425
34.24000 322.536
34.28000 336.053
34.32000 331.008
34.36000 326.051
34.40000 330.961
34.44000 345.165
34.48000 322.102
34.52000 314.362
34.56000 354.940
34.60000 318.980
34.64000 331.439
34.68000 319.793
34.72000 325.320
34.76000 309.211
34.80000 320.172
34.84000 317.492
34.88000 330.460
34.92000 313.025
34.96000 332.164
35.00000 307.548
35.04000 319.953
35.08000 313.581
35.12000 318.509
35.16000 305.935
35.20000 318.649
35.24000 313.574
35.28000 317.476
35.32000 311.910
35.36000 305.568
35.40000 300.255
35.44000 311.309
35.48000 297.331
35.52000 311.337
35.56000 310.352
35.60000 307.968
35.64000 294.548
35.68000 322.317
35.72000 302.403
35.76000 294.895
35.80000 303.423
35.84000 306.370
35.88000 319.654
35.92000 296.876
35.96000 298.673
36.00000 322.690
36.04000 299.503
36.08000 302.547
36.12000 301.069
36.16000 307.211
36.20000 294.142
36.24000 302.414
36.28000 291.846
36.32000 306.291
36.36000 302.711
36.40000 301.870
36.44000 279.727
36.48000 305.518
36.52000 308.202
36.56000 299.952
36.60000 286.155
36.64000 295.749
36.68000 306.033
36.72000 293.565
36.76000 298.138
36.80000 296.473
36.84000 297.845
36.88000 309.125
36.92000 293.741
36.96000 301.041
37.00000 295.530
37.04000 307.693
37.08000 311.332
37.12000 293.983
37.16000 282.581
37.20000 300.396
37.24000 307.272
37.28000 307.864
37.32000 290.761
37.36000 288.347
37.40000 290.752
37.44000 290.110
37.48000 283.206
37.52000 288.457
37.56000 304.329
37.60000 291.004
37.64000 288.207
37.68000 276.293
37.72000 301.561
37.76000 297.604
37.80000 314.182
37.84000 300.839
37.88000 289.982
37.92000 292.892
37.96000 285.162
38.00000 294.927
38.04000 291.123
38.08000 288.209
38.12000 307.664
38.16000 304.737
38.20000 294.894
38.24000 313.040
38.28000 310.990
38.32000 296.542
38.36000 317.995
38.40000 338.915
38.44000 359.019
38.48000 398.992
38.52000 429.915
38.56000 503.073
38.60000 569.768
38.64000 675.746
38.68000 718.769
38.72000 738.461
38.76000 738.028
38.80000 691.765
38.84000 617.673
38.88000 553.681
38.92000 480.168
38.96000 400.137
39.00000 364.018
39.04000 326.276
39.08000 301.089
39.12000 301.833
39.16000 286.301
39.20000 287.141
39.24000 287.858
39.28000 280.580
39.32000 261.760
39.36000 281.474
39.40000 278.114
39.44000 275.018
39.48000 262.193
39.52000 272.562
39.56000 257.975
39.60000 257.901
39.64000 273.866
39.68000 272.716
39.72000 267.775
39.76000 274.760
39.80000 273.189
39.84000 253.570
39.88000 266.159
39.92000 260.390
39.96000 262.967
40.00000 256.053
40.04000 269.504
40.08000 278.102
40.12000 265.550
40.16000 260.617
40.20000 255.218
40.24000 256.063
40.28000 261.246
40.32000 259.998
40.36000 256.550
40.40000 261.627
40.44000 256.715
40.48000 251.881
40.52000 251.861
40.56000 256.196
40.60000 247.820
40.64000 244.110
40.68000 242.354
40.72000 251.611
40.76000 256.417
40.80000 245.088
40.84000 257.029
40.88000 257.466
40.92000 237.086
40.96000 249.025
41.00000 236.166
41.04000 246.903
41.08000 251.378
41.12000 253.188
41.16000 243.644
41.20000 237.637
41.24000 244.018
41.28000 248.791
41.32000 251.731
41.36000 254.135
41.40000 247.526
41.44000 255.713
41.48000 243.917
41.52000 242.240
41.56000 232.115
41.60000 247.424
41.64000 233.094
41.68000 242.575
41.72000 233.619
41.76000 247.767
41.80000 227.973
41.84000 240.413
41.88000 232.897
41.92000 221.398
41.96000 238.343
42.00000 231.801
42.04000 239.202
42.08000 221.954
42.12000 221.412
42.16000 228.616
42.20000 233.430
42.24000 240.180
42.28000 233.243
42.32000 226.474
42.36000 236.288
42.40000 232.849
42.44000 234.662
42.48000 217.504
42.52000 226.223
42.56000 222.155
42.60000 228.531
42.64000 220.689
42.68000 227.005
42.72000 235.939
42.76000 229.688
42.80000 241.892
42.84000 219.150
42.88000 227.614
42.92000 226.765
42.96000 224.231
43.00000 218.774
43.04000 231.076
43.08000 224.663
43.12000 223.564
43.16000 235.727
43.20000 227.115
43.24000 236.080
43.28000 220.523
43.32000 222.175
43.36000 226.016
43.40000 224.701
43.44000 225.944
43.48000 206.499
43.52000 216.620
43.56000 226.226
43.60000 224.611
43.64000 226.137
43.68000 209.751
43.72000 233.228
43.76000 218.320
43.80000 222.850
43.84000 225.486
43.88000 200.743
43.92000 227.437
43.96000 233.384
44.00000 208.837
44.04000 205.850
44.08000 227.163
44.12000 225.462
44.16000 214.369
44.20000 234.050
44.24000 215.485
44.28000 225.824
44.32000 220.877
44.36000 219.508
44.40000 225.514
44.44000 229.635
44.48000 229.634
44.52000 215.584
44.56000 234.056
44.60000 233.520
44.64000 236.500
44.68000 239.093
44.72000 257.428
44.76000 253.132
44.80000 293.409
44.84000 316.085
44.88000 334.870
44.92000 365.576
44.96000 395.360
45.00000 459.222
45.04000 455.353
45.08000 469.373
45.12000 453.227
45.16000 439.160
45.20000 414.246
45.24000 388.944
45.28000 335.241
45.32000 318.886
45.36000 280.626
45.40000 276.410
45.44000 253.680
45.48000 249.747
45.52000 245.638
45.56000 223.675
45.60000 228.888
45.64000 238.888
45.68000 223.576
45.72000 212.242
45.76000 213.301
45.80000 225.693
45.84000 213.515
45.88000 197.324
45.92000 215.615
45.96000 204.977
46.00000 205.235
46.04000 199.338
46.08000 207.050
46.12000 194.978
46.16000 208.024
46.20000 206.624
46.24000 201.242
46.28000 209.222
46.32000 203.777
46.36000 205.508
46.40000 201.552
46.44000 199.417
46.48000 197.434
46.52000 199.402
46.56000 208.278
46.60000 199.408
46.64000 208.729
46.68000 201.762
46.72000 197.850
46.76000 197.782
46.80000 197.422
46.84000 196.923
46.88000 188.979
46.92000 183.695
46.96000 191.198
47.00000 198.419
47.04000 210.181
47.08000 198.006
47.12000 188.049
47.16000 185.701
47.20000 186.988
47.24000 190.262
47.28000 194.658
47.32000 190.668
47.36000 188.112
47.40000 190.678
47.44000 201.936
47.48000 174.236
47.52000 192.681
47.56000 193.062
47.60000 182.399
47.64000 190.333
47.68000 178.876
47.72000 180.174
47.76000 197.365
47.80000 184.407
47.84000 188.116
47.88000 189.872
47.92000 179.960
47.96000 190.030
48.00000 170.440
48.04000 188.471
48.08000 179.413
48.12000 174.482
48.16000 190.790
48.20000 185.341
48.24000 195.319
48.28000 189.745
48.32000 176.716
48.36000 181.379
48.40000 179.210
48.44000 191.825
48.48000 184.346
48.52000 184.356
48.56000 192.959
48.60000 189.303
48.64000 189.361
48.68000 179.980
48.72000 196.142
48.76000 198.761
48.80000 177.807
48.84000 168.917
48.88000 182.802
48.92000 185.335
48.96000 174.287
49.00000 179.722
49.04000 176.213
49.08000 171.223
49.12000 180.087
49.16000 193.630
49.20000 180.250
49.24000 182.308
49.28000 182.354
49.32000 174.226
49.36000 181.956
49.40000 187.199
49.44000 183.568
49.48000 179.549
49.52000 179.303
49.56000 177.247
49.60000 176.652
49.64000 173.569
49.68000 176.583
49.72000 183.529
49.76000 181.420
49.80000 175.239
49.84000 180.545
49.88000 176.597
49.92000 175.194
49.96000 180.178
50.00000 170.588
50.04000 163.948
50.08000 185.069
50.12000 185.813
50.16000 180.588
50.20000 173.295
50.24000 175.005
50.28000 190.225
50.32000 182.727
50.36000 186.062
50.40000 206.701
50.44000 203.387
50.48000 207.322
50.52000 221.897
50.56000 252.592
50.60000 263.231
50.64000 274.743
50.68000 272.006
50.72000 288.351
50.76000 273.479
50.80000 288.345
50.84000 261.530
50.88000 241.246
50.92000 223.497
50.96000 215.474
51.00000 208.166
51.04000 186.617
51.08000 184.184
51.12000 168.146
51.16000 177.856
51.20000 183.790
51.24000 161.659
51.28000 168.500
51.32000 167.512
51.36000 179.618
51.40000 179.754
51.44000 160.328
51.48000 173.151
51.52000 172.503
51.56000 171.148
51.60000 170.534
51.64000 177.500
51.68000 164.971
51.72000 165.567
51.76000 162.999
51.80000 178.302
51.84000 152.815
51.88000 157.255
51.92000 158.592
51.96000 164.255
52.00000 163.817
52.04000 158.642
52.08000 148.043
52.12000 157.124
52.16000 158.720
52.20000 160.247
52.24000 165.372
52.28000 154.936
52.32000 155.761
52.36000 159.147
52.40000 160.979
52.44000 162.735
52.48000 161.603
52.52000 156.896
52.56000 145.021
52.60000 159.033
52.64000 158.457
52.68000 162.859
52.72000 173.789
52.76000 162.803
52.80000 159.959
52.84000 159.345
52.88000 154.525
52.92000 155.376
52.96000 159.182
53.00000 153.716
53.04000 160.490
53.08000 160.104
53.12000 163.717
53.16000 158.656
53.20000 167.318
53.24000 165.966
53.28000 164.063
53.32000 161.456
53.36000 171.045
53.40000 168.467
53.44000 158.086
53.48000 145.429
53.52000 160.071
53.56000 153.864
53.60000 152.793
53.64000 158.580
53.68000 154.584
53.72000 165.757
53.76000 158.744
53.80000 158.988
53.84000 155.629
53.88000 154.064
53.92000 149.656
53.96000 149.204
54.00000 161.488
54.04000 147.744
54.08000 144.431
54.12000 152.926
54.16000 154.750
54.20000 160.765
54.24000 163.491
54.28000 162.991
54.32000 152.006
54.36000 156.655
54.40000 156.454
54.44000 154.754
54.48000 160.644
54.52000 151.492
54.56000 160.799
54.60000 151.297
54.64000 152.724
54.68000 163.025
54.72000 156.782
54.76000 150.337
54.80000 156.692
54.84000 155.665
54.88000 161.984
54.92000 155.747
54.96000 163.927
55.00000 168.515
55.04000 159.454
55.08000 155.599
55.12000 164.933
55.16000 163.590
55.20000 164.690
55.24000 164.728
55.28000 175.937
55.32000 172.000
55.36000 183.725
55.40000 168.115
55.44000 171.408
55.48000 189.677
55.52000 195.700
55.56000 222.647
55.60000 230.373
55.64000 251.832
55.68000 288.896
55.72000 346.702
55.76000 405.034
55.80000 501.821
55.84000 570.791
55.88000 594.983
55.92000 634.117
55.96000 654.278
56.00000 634.544
56.04000 607.348
56.08000 541.742
56.12000 478.926
56.16000 410.993
56.20000 368.076
56.24000 300.557
56.28000 247.221
56.32000 236.434
56.36000 211.624
56.40000 182.400
56.44000 184.891
56.48000 171.323
56.52000 163.428
56.56000 161.395
56.60000 164.974
56.64000 151.972
56.68000 160.263
56.72000 154.860
56.76000 152.930
56.80000 155.366
56.84000 154.153
56.88000 146.460
56.92000 141.058
56.96000 146.664
57.00000 138.945
57.04000 142.925
57.08000 152.104
57.12000 154.055
57.16000 145.930
57.20000 135.477
57.24000 144.913
57.28000 145.946
57.32000 138.031
57.36000 146.485
57.40000 140.398
57.44000 120.792
57.48000 147.650
57.52000 139.390
57.56000 156.421
57.60000 147.170
57.64000 151.638
57.68000 142.388
57.72000 140.971
57.76000 141.238
57.80000 141.022
57.84000 148.470
57.88000 134.695
57.92000 137.384
57.96000 138.605
58.00000 139.934
58.04000 145.322
58.08000 142.955
58.12000 142.426
58.16000 143.950
58.20000 141.343
58.24000 137.690
58.28000 134.600
58.32000 133.445
58.36000 131.545
58.40000 135.244
58.44000 137.827
58.48000 144.640
58.52000 142.740
58.56000 132.225
58.60000 136.654
58.64000 133.611
58.68000 132.232
58.72000 128.075
58.76000 117.657
58.80000 141.864
58.84000 146.990
58.88000 131.815
58.92000 138.904
58.96000 147.121
59.00000 127.743
59.04000 136.499
59.08000 123.288
59.12000 135.849
59.16000 132.361
59.20000 132.036
59.24000 141.135
59.28000 131.140
59.32000 124.407
59.36000 142.266
59.40000 131.206
59.44000 130.816
59.48000 125.637
59.52000 128.422
59.56000 132.269
59.60000 150.032
59.64000 135.593
59.68000 126.658
59.72000 132.473
59.76000 130.058
59.80000 121.837
59.84000 135.854
59.88000 133.651
59.92000 134.286
59.96000 138.040
60.00000 138.457
60.04000 133.612
60.08000 130.804
60.12000 127.402
60.16000 130.181
60.20000 148.784
60.24000 133.043
60.28000 132.684
60.32000 130.847
60.36000 128.998
60.40000 138.685
60.44000 129.340
60.48000 131.614
60.52000 133.365
60.56000 134.867
60.60000 125.394
60.64000 143.557
60.68000 133.624
60.72000 139.978
60.76000 128.495
60.80000 126.272
60.84000 138.060
60.88000 131.106
60.92000 125.684
60.96000 129.457
61.00000 140.672
61.04000 133.101
61.08000 137.324
61.12000 137.106
61.16000 137.803
61.20000 141.019
61.24000 132.717
61.28000 138.940
61.32000 139.110
61.36000 132.050
61.40000 141.388
61.44000 147.331
61.48000 145.930
61.52000 177.414
61.56000 244.082
61.60000 261.492
61.64000 313.062
61.68000 306.891
61.72000 328.297
61.76000 303.510
61.80000 245.889
61.84000 180.613
61.88000 160.948
61.92000 150.543
61.96000 145.156
62.00000 131.578
62.04000 139.412
62.08000 144.386
62.12000 142.277
62.16000 148.990
62.20000 140.398
62.24000 140.831
62.28000 140.349
62.32000 145.260
62.36000 144.612
62.40000 137.178
62.44000 139.782
62.48000 136.223
62.52000 145.422
62.56000 149.094
62.60000 142.350
62.64000 144.864
62.68000 143.595
62.72000 137.773
62.76000 140.802
62.80000 135.530
62.84000 148.977
62.88000 139.246
62.92000 153.877
62.96000 144.084
63.00000 151.812
63.04000 147.318
63.08000 141.193
63.12000 138.616
63.16000 149.521
63.20000 148.766
63.24000 141.929
63.28000 139.391
63.32000 141.159
63.36000 143.391
63.40000 147.098
63.44000 136.763
63.48000 139.169
63.52000 147.612
63.56000 147.609
63.60000 148.612
63.64000 149.405
63.68000 149.001
63.72000 146.645
63.76000 151.491
63.80000 150.361
63.84000 162.681
63.88000 151.558
63.92000 161.611
63.96000 167.273
64.00000 168.908
64.04000 162.991
64.08000 161.316
64.12000 153.467
64.16000 169.604
64.20000 160.842
64.24000 160.902
64.28000 163.994
64.32000 170.858
64.36000 168.383
64.40000 169.868
64.44000 174.413
64.48000 166.207
64.52000 164.415
64.56000 159.651
64.60000 180.362
64.64000 170.226
64.68000 173.100
64.72000 175.319
64.76000 181.989
64.80000 177.092
64.84000 189.720
64.88000 194.104
64.92000 195.757
64.96000 194.605
65.00000 192.863
65.04000 203.746
65.08000 211.508
65.12000 211.022
65.16000 246.360
65.20000 245.510
65.24000 264.090
65.28000 270.201
65.32000 306.397
65.36000 323.486
65.40000 342.626
65.44000 390.248
65.48000 409.620
65.52000 439.105
65.56000 484.010
65.60000 519.330
65.64000 540.288
65.68000 605.760
65.72000 779.300
65.76000 1008.179
65.80000 1231.525
65.84000 1308.223
65.88000 1329.150
65.92000 1284.218
65.96000 1051.258
66.00000 742.776
66.04000 514.884
66.08000 395.640
66.12000 334.900
66.16000 334.419
66.20000 332.579
66.24000 346.388
66.28000 387.545
66.32000 415.077
66.36000 472.491
66.40000 497.743
66.44000 493.623
66.48000 493.328
66.52000 449.486
66.56000 400.505
66.60000 363.400
66.64000 340.588
66.68000 329.811
66.72000 316.488
66.76000 343.376
66.80000 343.545
66.84000 333.115
66.88000 343.539
66.92000 357.839
66.96000 362.867
67.00000 357.948
67.04000 387.066
67.08000 371.184
67.12000 378.841
67.16000 404.281
67.20000 386.628
67.24000 409.388
67.28000 409.733
67.32000 413.641
67.36000 417.161
67.40000 436.728
67.44000 443.442
67.48000 444.666
67.52000 465.411
67.56000 495.103
67.60000 478.315
67.64000 485.927
67.68000 484.948
67.72000 511.623
67.76000 527.725
67.80000 540.238
67.84000 537.771
67.88000 534.516
67.92000 534.583
67.96000 580.617
68.00000 559.480
68.04000 594.703
68.08000 607.525
68.12000 616.276
68.16000 630.264
68.20000 631.855
68.24000 661.573
68.28000 678.926
68.32000 714.535
68.36000 698.878
68.40000 761.729
68.44000 799.410
68.48000 833.429
68.52000 904.669
68.56000 995.874
68.60000 1161.597
68.64000 1337.552
68.68000 1573.846
68.72000 1896.119
68.76000 2169.618
68.80000 2466.521
68.84000 3002.761
68.88000 4112.662
68.92000 7550.714
68.96000 18956.295
69.00000 41351.586
69.04000 64636.762
69.08000 76984.289
69.12000 79021.320
69.16000 81555.492
69.20000 80933.695
69.24000 68025.086
69.28000 52937.324
69.32000 42869.168
69.36000 38103.410
69.40000 30842.705
69.44000 18856.768
69.48000 9052.535
69.52000 3866.428
69.56000 2343.433
69.60000 1786.911
69.64000 1553.198
69.68000 1275.061
69.72000 1162.914
69.76000 1063.665
69.80000 1000.737
69.84000 934.591
69.88000 873.502
69.92000 819.323
69.96000 784.877
70.00000 757.846