File: XRD/XRD/17-09-2025/XY Data/BTO_Mapping_Theta2Theta_09-17-2025_001_16_-45-000_0-000.xy
20.00000 564.801
20.04000 565.882
20.08000 563.058
20.12000 568.892
20.16000 558.533
20.20000 560.151
20.24000 555.661
20.28000 560.795
20.32000 546.347
20.36000 552.418
20.40000 557.605
20.44000 557.161
20.48000 542.298
20.52000 551.283
20.56000 546.490
20.60000 557.302
20.64000 555.471
20.68000 555.786
20.72000 569.624
20.76000 555.309
20.80000 541.464
20.84000 564.144
20.88000 557.143
20.92000 575.904
20.96000 547.795
21.00000 572.160
21.04000 550.010
21.08000 563.209
21.12000 554.455
21.16000 572.773
21.20000 548.427
21.24000 528.624
21.28000 537.225
21.32000 540.052
21.36000 562.890
21.40000 552.224
21.44000 575.525
21.48000 557.239
21.52000 542.093
21.56000 546.336
21.60000 561.649
21.64000 590.953
21.68000 586.880
21.72000 617.886
21.76000 660.007
21.80000 715.744
21.84000 740.324
21.88000 806.261
21.92000 855.999
21.96000 879.296
22.00000 891.551
22.04000 888.180
22.08000 825.788
22.12000 775.189
22.16000 697.685
22.20000 652.276
22.24000 622.207
22.28000 592.226
22.32000 578.252
22.36000 549.573
22.40000 555.802
22.44000 546.474
22.48000 539.816
22.52000 554.992
22.56000 566.811
22.60000 534.183
22.64000 542.558
22.68000 508.739
22.72000 518.108
22.76000 530.113
22.80000 528.023
22.84000 522.272
22.88000 529.903
22.92000 521.167
22.96000 527.801
23.00000 531.305
23.04000 511.756
23.08000 532.810
23.12000 506.828
23.16000 526.144
23.20000 518.744
23.24000 529.542
23.28000 518.140
23.32000 500.440
23.36000 508.042
23.40000 503.956
23.44000 515.657
23.48000 488.938
23.52000 521.150
23.56000 517.366
23.60000 514.265
23.64000 501.276
23.68000 498.988
23.72000 503.401
23.76000 497.194
23.80000 497.907
23.84000 508.283
23.88000 481.774
23.92000 497.631
23.96000 508.986
24.00000 506.306
24.04000 490.806
24.08000 500.911
24.12000 512.577
24.16000 504.766
24.20000 495.452
24.24000 487.017
24.28000 484.114
24.32000 494.226
24.36000 485.081
24.40000 488.355
24.44000 494.017
24.48000 479.128
24.52000 495.695
24.56000 482.663
24.60000 479.830
24.64000 481.142
24.68000 482.814
24.72000 490.497
24.76000 464.520
24.80000 470.750
24.84000 458.682
24.88000 466.156
24.92000 471.478
24.96000 483.482
25.00000 473.676
25.04000 462.405
25.08000 487.223
25.12000 496.506
25.16000 484.439
25.20000 473.320
25.24000 483.653
25.28000 463.208
25.32000 487.062
25.36000 478.375
25.40000 475.227
25.44000 479.658
25.48000 478.387
25.52000 492.581
25.56000 476.582
25.60000 467.946
25.64000 481.140
25.68000 471.666
25.72000 476.875
25.76000 473.501
25.80000 453.487
25.84000 468.762
25.88000 457.970
25.92000 467.813
25.96000 467.702
26.00000 474.038
26.04000 478.189
26.08000 452.479
26.12000 470.371
26.16000 469.897
26.20000 461.981
26.24000 458.907
26.28000 460.844
26.32000 469.971
26.36000 479.415
26.40000 464.218
26.44000 456.756
26.48000 458.076
26.52000 462.611
26.56000 477.796
26.60000 455.655
26.64000 467.470
26.68000 463.892
26.72000 462.774
26.76000 438.636
26.80000 445.150
26.84000 454.975
26.88000 459.656
26.92000 448.712
26.96000 455.112
27.00000 440.254
27.04000 449.476
27.08000 457.613
27.12000 446.731
27.16000 455.898
27.20000 450.930
27.24000 463.655
27.28000 453.962
27.32000 439.992
27.36000 448.387
27.40000 445.081
27.44000 462.916
27.48000 466.838
27.52000 457.472
27.56000 433.485
27.60000 426.703
27.64000 445.608
27.68000 431.663
27.72000 439.471
27.76000 440.631
27.80000 464.684
27.84000 437.887
27.88000 443.433
27.92000 440.890
27.96000 446.550
28.00000 451.610
28.04000 454.602
28.08000 447.791
28.12000 432.775
28.16000 442.961
28.20000 444.568
28.24000 465.398
28.28000 438.043
28.32000 436.778
28.36000 438.419
28.40000 434.363
28.44000 431.542
28.48000 440.076
28.52000 434.586
28.56000 439.739
28.60000 457.532
28.64000 449.250
28.68000 444.760
28.72000 445.573
28.76000 428.746
28.80000 436.506
28.84000 429.804
28.88000 442.052
28.92000 423.764
28.96000 437.201
29.00000 443.730
29.04000 452.680
29.08000 426.685
29.12000 429.232
29.16000 429.455
29.20000 442.939
29.24000 418.092
29.28000 421.919
29.32000 417.319
29.36000 425.458
29.40000 426.909
29.44000 416.618
29.48000 421.603
29.52000 425.069
29.56000 420.842
29.60000 420.871
29.64000 418.085
29.68000 401.352
29.72000 441.186
29.76000 447.062
29.80000 454.141
29.84000 459.415
29.88000 475.460
29.92000 458.068
29.96000 449.101
30.00000 443.614
30.04000 459.889
30.08000 449.650
30.12000 450.764
30.16000 445.712
30.20000 439.466
30.24000 456.525
30.28000 438.901
30.32000 457.127
30.36000 458.164
30.40000 452.564
30.44000 441.780
30.48000 431.512
30.52000 449.435
30.56000 469.629
30.60000 457.800
30.64000 472.267
30.68000 473.003
30.72000 479.353
30.76000 482.768
30.80000 508.225
30.84000 533.601
30.88000 557.796
30.92000 647.251
30.96000 812.572
31.00000 1104.488
31.04000 1531.459
31.08000 2194.146
31.12000 2946.186
31.16000 3653.414
31.20000 4177.145
31.24000 4404.851
31.28000 4245.789
31.32000 3796.981
31.36000 3099.074
31.40000 2334.422
31.44000 1772.000
31.48000 1298.080
31.52000 999.424
31.56000 799.993
31.60000 697.611
31.64000 584.121
31.68000 533.687
31.72000 504.361
31.76000 496.029
31.80000 457.262
31.84000 430.184
31.88000 444.054
31.92000 431.591
31.96000 431.831
32.00000 398.679
32.04000 412.490
32.08000 417.628
32.12000 390.999
32.16000 391.341
32.20000 402.745
32.24000 394.652
32.28000 378.148
32.32000 392.710
32.36000 379.101
32.40000 381.860
32.44000 386.266
32.48000 380.820
32.52000 379.391
32.56000 371.826
32.60000 391.231
32.64000 379.299
32.68000 364.996
32.72000 363.030
32.76000 374.530
32.80000 371.678
32.84000 365.245
32.88000 365.892
32.92000 353.678
32.96000 360.414
33.00000 374.415
33.04000 344.524
33.08000 346.432
33.12000 371.880
33.16000 347.387
33.20000 356.921
33.24000 361.731
33.28000 358.809
33.32000 355.593
33.36000 346.298
33.40000 359.235
33.44000 348.763
33.48000 360.293
33.52000 342.295
33.56000 362.993
33.60000 356.779
33.64000 345.312
33.68000 334.324
33.72000 341.744
33.76000 345.639
33.80000 320.826
33.84000 326.204
33.88000 331.266
33.92000 328.787
33.96000 339.592
34.00000 336.884
34.04000 331.746
34.08000 333.043
34.12000 337.881
34.16000 344.760
34.20000 335.693
34.24000 331.327
34.28000 328.478
34.32000 333.044
34.36000 333.031
34.40000 322.302
34.44000 335.821
34.48000 329.868
34.52000 326.678
34.56000 324.569
34.60000 314.278
34.64000 330.664
34.68000 325.660
34.72000 342.598
34.76000 313.675
34.80000 326.587
34.84000 332.469
34.88000 332.715
34.92000 316.714
34.96000 326.894
35.00000 302.494
35.04000 325.486
35.08000 318.493
35.12000 331.737
35.16000 316.788
35.20000 320.228
35.24000 329.747
35.28000 319.664
35.32000 307.572
35.36000 313.560
35.40000 309.094
35.44000 329.036
35.48000 318.451
35.52000 319.453
35.56000 309.188
35.60000 313.171
35.64000 319.757
35.68000 309.193
35.72000 313.147
35.76000 308.345
35.80000 299.255
35.84000 304.246
35.88000 310.963
35.92000 300.811
35.96000 302.658
36.00000 307.591
36.04000 304.827
36.08000 297.250
36.12000 316.242
36.16000 306.424
36.20000 303.488
36.24000 310.806
36.28000 295.852
36.32000 284.191
36.36000 309.575
36.40000 308.528
36.44000 304.286
36.48000 314.025
36.52000 303.434
36.56000 303.201
36.60000 326.400
36.64000 306.082
36.68000 307.653
36.72000 327.827
36.76000 315.058
36.80000 314.990
36.84000 313.513
36.88000 319.733
36.92000 308.574
36.96000 316.154
37.00000 310.082
37.04000 301.029
37.08000 329.429
37.12000 321.760
37.16000 299.389
37.20000 302.995
37.24000 291.978
37.28000 282.412
37.32000 306.013
37.36000 293.712
37.40000 290.829
37.44000 297.731
37.48000 295.616
37.52000 313.284
37.56000 298.832
37.60000 300.090
37.64000 294.178
37.68000 295.439
37.72000 290.065
37.76000 287.710
37.80000 288.485
37.84000 299.414
37.88000 293.022
37.92000 280.253
37.96000 286.054
38.00000 310.546
38.04000 295.106
38.08000 298.915
38.12000 304.961
38.16000 301.495
38.20000 306.041
38.24000 303.910
38.28000 326.294
38.32000 324.692
38.36000 331.705
38.40000 337.805
38.44000 352.994
38.48000 356.506
38.52000 360.483
38.56000 364.748
38.60000 358.825
38.64000 354.615
38.68000 356.599
38.72000 356.506
38.76000 334.970
38.80000 302.689
38.84000 309.459
38.88000 298.141
38.92000 296.421
38.96000 296.523
39.00000 285.207
39.04000 300.461
39.08000 275.452
39.12000 277.081
39.16000 274.657
39.20000 264.428
39.24000 262.359
39.28000 268.721
39.32000 286.188
39.36000 276.241
39.40000 257.509
39.44000 265.723
39.48000 286.651
39.52000 274.038
39.56000 270.116
39.60000 277.391
39.64000 265.669
39.68000 266.979
39.72000 265.396
39.76000 257.453
39.80000 267.794
39.84000 258.194
39.88000 258.167
39.92000 258.159
39.96000 260.941
40.00000 259.188
40.04000 267.593
40.08000 260.339
40.12000 255.282
40.16000 256.985
40.20000 256.715
40.24000 253.166
40.28000 254.843
40.32000 261.394
40.36000 254.125
40.40000 262.711
40.44000 248.414
40.48000 252.215
40.52000 263.107
40.56000 243.321
40.60000 254.372
40.64000 255.937
40.68000 244.829
40.72000 260.586
40.76000 261.373
40.80000 244.738
40.84000 259.322
40.88000 266.791
40.92000 254.287
40.96000 234.049
41.00000 262.224
41.04000 248.708
41.08000 245.040
41.12000 254.853
41.16000 249.844
41.20000 231.161
41.24000 238.322
41.28000 256.634
41.32000 249.427
41.36000 253.095
41.40000 238.699
41.44000 243.305
41.48000 248.337
41.52000 253.676
41.56000 242.211
41.60000 230.334
41.64000 249.620
41.68000 248.155
41.72000 249.887
41.76000 239.873
41.80000 247.639
41.84000 254.691
41.88000 246.815
41.92000 248.582
41.96000 248.216
42.00000 238.299
42.04000 245.745
42.08000 235.653
42.12000 235.902
42.16000 228.754
42.20000 233.399
42.24000 246.073
42.28000 236.105
42.32000 241.006
42.36000 239.795
42.40000 239.198
42.44000 237.779
42.48000 238.758
42.52000 248.155
42.56000 234.469
42.60000 224.826
42.64000 236.092
42.68000 222.082
42.72000 225.102
42.76000 239.546
42.80000 234.780
42.84000 243.339
42.88000 232.654
42.92000 231.400
42.96000 235.951
43.00000 232.025
43.04000 233.595
43.08000 237.718
43.12000 232.561
43.16000 232.435
43.20000 233.269
43.24000 234.658
43.28000 228.545
43.32000 237.945
43.36000 236.636
43.40000 226.774
43.44000 231.663
43.48000 225.910
43.52000 228.058
43.56000 228.751
43.60000 246.433
43.64000 228.517
43.68000 231.459
43.72000 224.476
43.76000 227.318
43.80000 228.092
43.84000 231.249
43.88000 236.458
43.92000 232.612
43.96000 230.203
44.00000 239.255
44.04000 218.330
44.08000 227.478
44.12000 237.387
44.16000 238.398
44.20000 232.895
44.24000 232.774
44.28000 239.903
44.32000 245.374
44.36000 244.115
44.40000 249.045
44.44000 262.278
44.48000 294.434
44.52000 297.554
44.56000 323.498
44.60000 365.044
44.64000 404.123
44.68000 459.535
44.72000 507.408
44.76000 558.486
44.80000 603.082
44.84000 611.922
44.88000 586.058
44.92000 615.727
44.96000 578.563
45.00000 547.099
45.04000 488.466
45.08000 450.909
45.12000 444.975
45.16000 395.058
45.20000 367.304
45.24000 339.218
45.28000 314.904
45.32000 281.497
45.36000 305.852
45.40000 262.544
45.44000 264.573
45.48000 249.926
45.52000 246.472
45.56000 235.839
45.60000 240.917
45.64000 214.266
45.68000 221.656
45.72000 228.632
45.76000 219.011
45.80000 211.598
45.84000 206.295
45.88000 210.198
45.92000 206.531
45.96000 218.820
46.00000 204.491
46.04000 214.199
46.08000 202.130
46.12000 208.030
46.16000 198.931
46.20000 199.400
46.24000 202.679
46.28000 218.270
46.32000 209.348
46.36000 197.586
46.40000 211.000
46.44000 204.406
46.48000 211.753
46.52000 206.706
46.56000 213.055
46.60000 204.863
46.64000 196.237
46.68000 202.474
46.72000 204.689
46.76000 199.873
46.80000 196.790
46.84000 203.713
46.88000 190.052
46.92000 195.470
46.96000 191.101
47.00000 205.595
47.04000 201.362
47.08000 191.628
47.12000 203.646
47.16000 197.607
47.20000 187.640
47.24000 196.300
47.28000 200.160
47.32000 183.666
47.36000 185.199
47.40000 212.879
47.44000 191.179
47.48000 197.636
47.52000 192.250
47.56000 188.603
47.60000 180.479
47.64000 190.336
47.68000 185.515
47.72000 184.962
47.76000 185.578
47.80000 187.829
47.84000 202.936
47.88000 194.235
47.92000 187.391
47.96000 183.258
48.00000 188.675
48.04000 188.473
48.08000 184.656
48.12000 190.506
48.16000 189.834
48.20000 199.528
48.24000 187.436
48.28000 187.959
48.32000 178.932
48.36000 177.398
48.40000 193.657
48.44000 175.595
48.48000 176.966
48.52000 185.748
48.56000 192.606
48.60000 193.077
48.64000 186.249
48.68000 197.866
48.72000 190.172
48.76000 187.469
48.80000 176.671
48.84000 182.454
48.88000 193.486
48.92000 191.312
48.96000 185.767
49.00000 191.273
49.04000 194.597
49.08000 175.000
49.12000 177.889
49.16000 189.216
49.20000 188.443
49.24000 186.579
49.28000 190.060
49.32000 184.140
49.36000 183.994
49.40000 189.548
49.44000 185.936
49.48000 178.553
49.52000 185.995
49.56000 191.952
49.60000 190.232
49.64000 184.429
49.68000 184.618
49.72000 178.389
49.76000 190.491
49.80000 189.810
49.84000 180.027
49.88000 187.879
49.92000 180.097
49.96000 206.307
50.00000 192.586
50.04000 185.643
50.08000 187.517
50.12000 196.505
50.16000 203.635
50.20000 193.336
50.24000 215.420
50.28000 222.493
50.32000 239.088
50.36000 244.564
50.40000 245.015
50.44000 270.280
50.48000 257.204
50.52000 269.783
50.56000 265.691
50.60000 245.774
50.64000 236.615
50.68000 229.875
50.72000 221.405
50.76000 217.758
50.80000 202.561
50.84000 197.127
50.88000 193.177
50.92000 194.060
50.96000 187.631
51.00000 187.231
51.04000 173.380
51.08000 174.895
51.12000 180.511
51.16000 176.046
51.20000 178.492
51.24000 166.221
51.28000 176.643
51.32000 165.626
51.36000 157.964
51.40000 157.949
51.44000 164.374
51.48000 167.370
51.52000 145.559
51.56000 165.689
51.60000 175.617
51.64000 167.041
51.68000 173.063
51.72000 169.840
51.76000 178.653
51.80000 171.230
51.84000 153.463
51.88000 170.302
51.92000 169.520
51.96000 157.939
52.00000 169.024
52.04000 170.642
52.08000 154.090
52.12000 164.187
52.16000 159.718
52.20000 165.467
52.24000 170.517
52.28000 168.486
52.32000 162.028
52.36000 170.910
52.40000 159.933
52.44000 159.596
52.48000 163.858
52.52000 150.499
52.56000 160.208
52.60000 169.199
52.64000 160.440
52.68000 155.108
52.72000 171.382
52.76000 172.826
52.80000 154.059
52.84000 169.495
52.88000 163.696
52.92000 160.750
52.96000 169.371
53.00000 173.265
53.04000 165.828
53.08000 171.903
53.12000 159.972
53.16000 166.236
53.20000 168.531
53.24000 164.284
53.28000 162.838
53.32000 159.533
53.36000 161.916
53.40000 159.384
53.44000 163.956
53.48000 166.865
53.52000 164.063
53.56000 167.952
53.60000 163.497
53.64000 168.268
53.68000 160.144
53.72000 155.198
53.76000 148.933
53.80000 148.162
53.84000 158.976
53.88000 149.765
53.92000 158.109
53.96000 162.266
54.00000 153.790
54.04000 159.751
54.08000 145.410
54.12000 153.060
54.16000 161.434
54.20000 174.030
54.24000 151.045
54.28000 156.913
54.32000 162.085
54.36000 164.815
54.40000 158.519
54.44000 144.518
54.48000 152.051
54.52000 172.986
54.56000 158.939
54.60000 162.094
54.64000 160.393
54.68000 174.209
54.72000 154.181
54.76000 154.953
54.80000 146.671
54.84000 160.941
54.88000 165.585
54.92000 161.109
54.96000 161.160
55.00000 173.212
55.04000 174.681
55.08000 173.080
55.12000 164.658
55.16000 196.392
55.20000 181.803
55.24000 183.302
55.28000 217.271
55.32000 237.771
55.36000 263.984
55.40000 324.873
55.44000 398.285
55.48000 473.264
55.52000 539.111
55.56000 598.259
55.60000 620.400
55.64000 643.322
55.68000 609.677
55.72000 572.653
55.76000 535.166
55.80000 461.942
55.84000 406.771
55.88000 368.249
55.92000 332.172
55.96000 278.883
56.00000 259.600
56.04000 219.002
56.08000 214.237
56.12000 210.393
56.16000 189.135
56.20000 185.601
56.24000 178.474
56.28000 175.024
56.32000 169.006
56.36000 170.055
56.40000 174.174
56.44000 166.156
56.48000 154.018
56.52000 162.998
56.56000 159.041
56.60000 150.798
56.64000 152.873
56.68000 163.318
56.72000 150.349
56.76000 157.100
56.80000 151.461
56.84000 145.744
56.88000 150.821
56.92000 147.914
56.96000 159.787
57.00000 151.733
57.04000 150.704
57.08000 152.379
57.12000 163.159
57.16000 143.173
57.20000 154.183
57.24000 141.517
57.28000 150.687
57.32000 142.314
57.36000 136.600
57.40000 162.296
57.44000 158.222
57.48000 151.920
57.52000 137.130
57.56000 149.416
57.60000 138.507
57.64000 142.445
57.68000 144.360
57.72000 149.116
57.76000 149.414
57.80000 145.609
57.84000 138.963
57.88000 138.759
57.92000 143.070
57.96000 142.060
58.00000 142.382
58.04000 149.659
58.08000 133.052
58.12000 144.208
58.16000 141.408
58.20000 141.646
58.24000 138.688
58.28000 137.234
58.32000 139.472
58.36000 141.360
58.40000 138.041
58.44000 142.801
58.48000 144.493
58.52000 142.899
58.56000 141.211
58.60000 130.397
58.64000 131.354
58.68000 134.634
58.72000 135.750
58.76000 135.607
58.80000 135.833
58.84000 140.824
58.88000 120.907
58.92000 136.121
58.96000 142.691
59.00000 139.331
59.04000 140.292
59.08000 129.587
59.12000 141.508
59.16000 133.768
59.20000 136.429
59.24000 135.634
59.28000 135.494
59.32000 141.749
59.36000 131.199
59.40000 135.533
59.44000 151.394
59.48000 132.784
59.52000 131.342
59.56000 141.956
59.60000 141.210
59.64000 134.936
59.68000 145.635
59.72000 135.261
59.76000 127.250
59.80000 145.219
59.84000 131.590
59.88000 137.947
59.92000 139.214
59.96000 134.912
60.00000 141.664
60.04000 133.410
60.08000 132.107
60.12000 142.662
60.16000 135.338
60.20000 140.285
60.24000 137.001
60.28000 130.109
60.32000 144.846
60.36000 134.187
60.40000 137.971
60.44000 133.177
60.48000 135.012
60.52000 135.149
60.56000 128.799
60.60000 124.820
60.64000 143.464
60.68000 125.252
60.72000 131.268
60.76000 129.841
60.80000 145.264
60.84000 136.049
60.88000 129.321
60.92000 141.329
60.96000 137.671
61.00000 138.008
61.04000 131.340
61.08000 144.749
61.12000 144.126
61.16000 142.567
61.20000 147.845
61.24000 148.995
61.28000 134.807
61.32000 141.481
61.36000 148.820
61.40000 135.460
61.44000 140.097
61.48000 157.544
61.52000 195.515
61.56000 255.589
61.60000 325.842
61.64000 359.668
61.68000 360.469
61.72000 389.656
61.76000 355.433
61.80000 286.005
61.84000 219.810
61.88000 182.477
61.92000 167.670
61.96000 164.412
62.00000 152.677
62.04000 152.930
62.08000 149.797
62.12000 152.369
62.16000 155.841
62.20000 153.726
62.24000 146.821
62.28000 151.154
62.32000 153.224
62.36000 145.220
62.40000 148.484
62.44000 137.730
62.48000 141.234
62.52000 155.082
62.56000 148.192
62.60000 147.817
62.64000 145.429
62.68000 141.440
62.72000 154.726
62.76000 148.821
62.80000 142.500
62.84000 137.802
62.88000 138.461
62.92000 150.999
62.96000 149.771
63.00000 150.804
63.04000 149.741
63.08000 148.489
63.12000 153.402
63.16000 154.495
63.20000 136.789
63.24000 144.761
63.28000 149.497
63.32000 150.222
63.36000 156.034
63.40000 156.604
63.44000 149.659
63.48000 145.178
63.52000 168.126
63.56000 159.958
63.60000 144.640
63.64000 146.473
63.68000 161.903
63.72000 150.305
63.76000 161.216
63.80000 154.794
63.84000 160.047
63.88000 162.020
63.92000 155.237
63.96000 151.485
64.00000 160.344
64.04000 169.705
64.08000 162.677
64.12000 160.767
64.16000 153.823
64.20000 163.443
64.24000 169.433
64.28000 172.952
64.32000 178.952
64.36000 168.560
64.40000 180.193
64.44000 177.660
64.48000 170.362
64.52000 183.602
64.56000 184.634
64.60000 180.499
64.64000 185.743
64.68000 192.772
64.72000 204.737
64.76000 213.923
64.80000 217.368
64.84000 242.291
64.88000 256.632
64.92000 297.531
64.96000 322.991
65.00000 375.626
65.04000 415.379
65.08000 470.921
65.12000 490.947
65.16000 516.102
65.20000 527.983
65.24000 523.207
65.28000 504.843
65.32000 475.294
65.36000 453.995
65.40000 428.739
65.44000 390.988
65.48000 400.976
65.52000 357.235
65.56000 351.272
65.60000 345.509
65.64000 384.615
65.68000 506.710
65.72000 725.678
65.76000 1052.831
65.80000 1373.852
65.84000 1515.083
65.88000 1556.697
65.92000 1485.252
65.96000 1290.414
66.00000 899.792
66.04000 598.643
66.08000 446.097
66.12000 364.143
66.16000 350.261
66.20000 337.163
66.24000 376.528
66.28000 413.798
66.32000 470.965
66.36000 533.302
66.40000 585.381
66.44000 572.379
66.48000 565.533
66.52000 525.309
66.56000 452.993
66.60000 383.932
66.64000 361.350
66.68000 350.992
66.72000 352.319
66.76000 367.974
66.80000 362.329
66.84000 368.698
66.88000 371.252
66.92000 400.160
66.96000 394.087
67.00000 395.563
67.04000 405.998
67.08000 417.599
67.12000 429.282
67.16000 422.677
67.20000 446.725
67.24000 450.867
67.28000 450.653
67.32000 455.361
67.36000 456.176
67.40000 469.422
67.44000 482.111
67.48000 474.998
67.52000 507.533
67.56000 480.472
67.60000 524.926
67.64000 530.290
67.68000 533.560
67.72000 534.528
67.76000 540.803
67.80000 571.118
67.84000 585.211
67.88000 610.380
67.92000 612.676
67.96000 615.813
68.00000 635.189
68.04000 657.893
68.08000 670.383
68.12000 671.059
68.16000 709.830
68.20000 742.002
68.24000 738.683
68.28000 762.269
68.32000 798.225
68.36000 795.811
68.40000 856.542
68.44000 903.250
68.48000 950.521
68.52000 1013.819
68.56000 1127.060
68.60000 1252.083
68.64000 1554.085
68.68000 1886.632
68.72000 2253.900
68.76000 2595.959
68.80000 2935.273
68.84000 3597.889
68.88000 4697.570
68.92000 8175.025
68.96000 21192.262
69.00000 49819.453
69.04000 79406.031
69.08000 94271.094
69.12000 97811.742
69.16000 100982.648
69.20000 101328.133
69.24000 87041.844
69.28000 66249.820
69.32000 53515.777
69.36000 47670.730
69.40000 39139.754
69.44000 24734.168
69.48000 11509.229
69.52000 4866.075
69.56000 2855.396
69.60000 2100.216
69.64000 1768.322
69.68000 1541.820
69.72000 1335.691
69.76000 1203.397
69.80000 1120.029
69.84000 1069.029
69.88000 954.100
69.92000 908.695
69.96000 833.137
70.00000 812.257