File: XRD/XRD/17-09-2025/XY Data/BTO_Mapping_Theta2Theta_09-17-2025_001_02_0-000_-45-000.xy
20.00000 568.943
20.04000 549.264
20.08000 551.309
20.12000 544.137
20.16000 591.951
20.20000 534.870
20.24000 553.770
20.28000 579.205
20.32000 568.323
20.36000 542.410
20.40000 544.609
20.44000 548.014
20.48000 564.246
20.52000 541.311
20.56000 551.925
20.60000 530.432
20.64000 560.138
20.68000 537.506
20.72000 536.321
20.76000 541.901
20.80000 551.606
20.84000 540.422
20.88000 514.671
20.92000 540.518
20.96000 539.361
21.00000 538.586
21.04000 550.790
21.08000 540.350
21.12000 581.654
21.16000 549.338
21.20000 542.160
21.24000 545.283
21.28000 547.682
21.32000 537.302
21.36000 535.198
21.40000 532.094
21.44000 536.123
21.48000 546.642
21.52000 537.942
21.56000 526.201
21.60000 530.920
21.64000 532.907
21.68000 551.809
21.72000 563.471
21.76000 558.613
21.80000 589.131
21.84000 584.904
21.88000 605.302
21.92000 644.361
21.96000 691.325
22.00000 695.957
22.04000 695.299
22.08000 710.051
22.12000 735.220
22.16000 699.481
22.20000 658.874
22.24000 631.805
22.28000 597.877
22.32000 590.537
22.36000 568.810
22.40000 549.533
22.44000 546.172
22.48000 544.868
22.52000 532.359
22.56000 547.857
22.60000 523.932
22.64000 511.937
22.68000 515.081
22.72000 511.707
22.76000 514.515
22.80000 509.661
22.84000 516.357
22.88000 517.143
22.92000 516.568
22.96000 501.486
23.00000 511.763
23.04000 496.586
23.08000 509.700
23.12000 512.393
23.16000 504.182
23.20000 492.157
23.24000 495.888
23.28000 517.063
23.32000 499.621
23.36000 492.622
23.40000 487.382
23.44000 500.354
23.48000 501.564
23.52000 481.344
23.56000 494.952
23.60000 496.889
23.64000 508.923
23.68000 501.300
23.72000 480.901
23.76000 487.113
23.80000 492.124
23.84000 484.638
23.88000 503.906
23.92000 513.081
23.96000 481.533
24.00000 477.785
24.04000 496.093
24.08000 483.106
24.12000 489.858
24.16000 486.722
24.20000 487.703
24.24000 498.839
24.28000 481.383
24.32000 478.259
24.36000 471.461
24.40000 472.140
24.44000 470.039
24.48000 478.785
24.52000 478.759
24.56000 496.041
24.60000 483.370
24.64000 480.291
24.68000 477.123
24.72000 466.867
24.76000 475.283
24.80000 468.894
24.84000 485.248
24.88000 488.640
24.92000 476.358
24.96000 444.113
25.00000 481.906
25.04000 474.473
25.08000 469.793
25.12000 494.115
25.16000 470.610
25.20000 477.296
25.24000 474.635
25.28000 463.965
25.32000 461.962
25.36000 475.455
25.40000 474.344
25.44000 463.531
25.48000 449.627
25.52000 466.177
25.56000 465.970
25.60000 472.903
25.64000 467.062
25.68000 465.432
25.72000 446.486
25.76000 470.937
25.80000 473.039
25.84000 463.430
25.88000 443.352
25.92000 448.454
25.96000 458.817
26.00000 461.476
26.04000 449.751
26.08000 464.708
26.12000 461.187
26.16000 445.567
26.20000 464.206
26.24000 457.194
26.28000 446.736
26.32000 467.205
26.36000 446.367
26.40000 430.702
26.44000 454.281
26.48000 436.891
26.52000 439.315
26.56000 445.385
26.60000 454.927
26.64000 451.466
26.68000 437.887
26.72000 436.598
26.76000 449.207
26.80000 445.508
26.84000 462.987
26.88000 443.118
26.92000 443.581
26.96000 446.000
27.00000 441.175
27.04000 440.833
27.08000 428.684
27.12000 430.211
27.16000 436.529
27.20000 432.905
27.24000 450.749
27.28000 457.805
27.32000 432.828
27.36000 434.573
27.40000 432.841
27.44000 427.198
27.48000 432.539
27.52000 423.116
27.56000 415.550
27.60000 429.187
27.64000 417.304
27.68000 434.123
27.72000 422.132
27.76000 395.942
27.80000 419.939
27.84000 423.587
27.88000 424.676
27.92000 432.200
27.96000 430.317
28.00000 421.945
28.04000 422.996
28.08000 417.500
28.12000 433.562
28.16000 433.456
28.20000 433.709
28.24000 426.221
28.28000 429.278
28.32000 426.629
28.36000 453.102
28.40000 418.781
28.44000 431.835
28.48000 430.777
28.52000 434.830
28.56000 462.213
28.60000 414.987
28.64000 411.456
28.68000 400.856
28.72000 411.336
28.76000 423.395
28.80000 444.808
28.84000 423.684
28.88000 413.933
28.92000 425.339
28.96000 405.867
29.00000 416.578
29.04000 415.487
29.08000 403.099
29.12000 410.844
29.16000 402.965
29.20000 404.543
29.24000 398.102
29.28000 414.432
29.32000 427.462
29.36000 420.302
29.40000 404.137
29.44000 401.675
29.48000 411.779
29.52000 414.243
29.56000 410.120
29.60000 401.315
29.64000 403.022
29.68000 420.718
29.72000 400.875
29.76000 420.605
29.80000 438.008
29.84000 424.743
29.88000 430.872
29.92000 436.125
29.96000 457.240
30.00000 458.336
30.04000 425.948
30.08000 449.296
30.12000 438.501
30.16000 437.262
30.20000 443.866
30.24000 416.980
30.28000 419.049
30.32000 434.407
30.36000 418.745
30.40000 438.729
30.44000 425.743
30.48000 424.652
30.52000 413.632
30.56000 435.817
30.60000 438.842
30.64000 458.453
30.68000 435.353
30.72000 427.090
30.76000 439.856
30.80000 466.748
30.84000 479.445
30.88000 476.747
30.92000 491.115
30.96000 490.429
31.00000 560.478
31.04000 639.120
31.08000 753.957
31.12000 916.472
31.16000 1179.178
31.20000 1584.799
31.24000 2082.954
31.28000 2646.328
31.32000 3274.771
31.36000 3705.362
31.40000 3966.366
31.44000 3873.542
31.48000 3465.698
31.52000 2885.727
31.56000 2201.894
31.60000 1605.095
31.64000 1179.739
31.68000 862.249
31.72000 661.324
31.76000 560.729
31.80000 514.122
31.84000 471.986
31.88000 456.910
31.92000 432.913
31.96000 409.969
32.00000 422.678
32.04000 433.633
32.08000 412.652
32.12000 423.314
32.16000 401.707
32.20000 401.862
32.24000 394.462
32.28000 383.303
32.32000 395.792
32.36000 398.720
32.40000 397.366
32.44000 377.845
32.48000 380.033
32.52000 379.848
32.56000 376.608
32.60000 375.621
32.64000 382.163
32.68000 371.717
32.72000 363.942
32.76000 373.165
32.80000 371.880
32.84000 365.983
32.88000 356.920
32.92000 357.710
32.96000 336.470
33.00000 357.638
33.04000 355.547
33.08000 355.664
33.12000 348.764
33.16000 344.861
33.20000 342.342
33.24000 332.358
33.28000 343.135
33.32000 336.877
33.36000 338.951
33.40000 340.056
33.44000 336.798
33.48000 338.441
33.52000 340.895
33.56000 329.572
33.60000 344.672
33.64000 316.784
33.68000 333.038
33.72000 343.347
33.76000 335.192
33.80000 347.519
33.84000 349.978
33.88000 337.300
33.92000 346.339
33.96000 340.348
34.00000 334.825
34.04000 325.855
34.08000 336.016
34.12000 326.975
34.16000 321.889
34.20000 326.938
34.24000 326.680
34.28000 338.299
34.32000 318.133
34.36000 335.414
34.40000 331.805
34.44000 318.720
34.48000 333.865
34.52000 307.622
34.56000 314.553
34.60000 320.725
34.64000 319.670
34.68000 315.402
34.72000 329.168
34.76000 328.631
34.80000 330.882
34.84000 327.621
34.88000 317.718
34.92000 307.743
34.96000 283.231
35.00000 312.095
35.04000 316.768
35.08000 313.447
35.12000 324.803
35.16000 307.493
35.20000 306.926
35.24000 309.446
35.28000 319.107
35.32000 290.742
35.36000 307.786
35.40000 317.082
35.44000 299.643
35.48000 312.795
35.52000 311.734
35.56000 302.243
35.60000 303.975
35.64000 303.661
35.68000 309.794
35.72000 292.697
35.76000 303.304
35.80000 297.201
35.84000 305.803
35.88000 300.507
35.92000 290.895
35.96000 296.433
36.00000 293.362
36.04000 294.567
36.08000 294.417
36.12000 287.872
36.16000 293.550
36.20000 297.034
36.24000 298.586
36.28000 300.043
36.32000 296.757
36.36000 294.354
36.40000 291.578
36.44000 299.039
36.48000 307.837
36.52000 299.663
36.56000 288.215
36.60000 306.726
36.64000 303.540
36.68000 291.703
36.72000 295.202
36.76000 295.096
36.80000 289.943
36.84000 285.666
36.88000 301.923
36.92000 309.694
36.96000 290.409
37.00000 303.957
37.04000 302.299
37.08000 302.850
37.12000 288.977
37.16000 289.045
37.20000 294.969
37.24000 297.904
37.28000 289.491
37.32000 300.974
37.36000 301.327
37.40000 283.424
37.44000 286.686
37.48000 283.559
37.52000 282.968
37.56000 283.073
37.60000 287.728
37.64000 294.389
37.68000 289.317
37.72000 295.857
37.76000 293.890
37.80000 293.391
37.84000 287.666
37.88000 286.751
37.92000 285.578
37.96000 288.658
38.00000 297.458
38.04000 279.676
38.08000 307.560
38.12000 294.440
38.16000 301.553
38.20000 294.275
38.24000 302.650
38.28000 306.187
38.32000 307.746
38.36000 319.446
38.40000 353.380
38.44000 380.116
38.48000 418.869
38.52000 439.101
38.56000 535.911
38.60000 613.296
38.64000 706.216
38.68000 782.858
38.72000 835.703
38.76000 847.389
38.80000 798.890
38.84000 733.547
38.88000 661.914
38.92000 556.982
38.96000 467.545
39.00000 394.304
39.04000 337.346
39.08000 317.992
39.12000 296.189
39.16000 290.423
39.20000 283.993
39.24000 286.052
39.28000 261.387
39.32000 270.724
39.36000 269.044
39.40000 279.527
39.44000 262.297
39.48000 276.731
39.52000 274.070
39.56000 251.802
39.60000 262.956
39.64000 254.838
39.68000 252.555
39.72000 267.636
39.76000 268.337
39.80000 259.648
39.84000 263.202
39.88000 260.615
39.92000 264.544
39.96000 269.971
40.00000 264.014
40.04000 268.679
40.08000 269.710
40.12000 266.714
40.16000 243.713
40.20000 263.981
40.24000 256.492
40.28000 257.298
40.32000 260.010
40.36000 249.852
40.40000 259.295
40.44000 254.967
40.48000 260.002
40.52000 257.829
40.56000 260.657
40.60000 251.510
40.64000 244.816
40.68000 236.826
40.72000 243.168
40.76000 240.322
40.80000 255.141
40.84000 247.005
40.88000 249.826
40.92000 255.124
40.96000 246.140
41.00000 243.396
41.04000 253.112
41.08000 242.018
41.12000 247.438
41.16000 241.946
41.20000 246.427
41.24000 243.213
41.28000 232.600
41.32000 249.262
41.36000 237.552
41.40000 251.662
41.44000 241.415
41.48000 248.969
41.52000 231.577
41.56000 240.586
41.60000 236.318
41.64000 234.722
41.68000 241.567
41.72000 231.959
41.76000 238.925
41.80000 232.316
41.84000 243.333
41.88000 240.497
41.92000 247.414
41.96000 233.406
42.00000 227.691
42.04000 233.970
42.08000 238.306
42.12000 226.046
42.16000 238.916
42.20000 224.359
42.24000 218.303
42.28000 232.405
42.32000 239.269
42.36000 237.010
42.40000 217.177
42.44000 241.266
42.48000 230.036
42.52000 213.884
42.56000 231.838
42.60000 232.461
42.64000 242.853
42.68000 228.614
42.72000 215.588
42.76000 218.338
42.80000 232.980
42.84000 231.040
42.88000 218.000
42.92000 230.726
42.96000 222.470
43.00000 231.805
43.04000 219.834
43.08000 218.934
43.12000 222.580
43.16000 219.250
43.20000 215.085
43.24000 223.717
43.28000 235.134
43.32000 224.867
43.36000 220.723
43.40000 212.508
43.44000 217.550
43.48000 208.250
43.52000 212.269
43.56000 218.236
43.60000 216.346
43.64000 223.509
43.68000 226.492
43.72000 224.613
43.76000 227.880
43.80000 227.626
43.84000 230.155
43.88000 220.394
43.92000 218.004
43.96000 219.350
44.00000 210.458
44.04000 222.908
44.08000 228.168
44.12000 209.104
44.16000 218.801
44.20000 202.553
44.24000 219.971
44.28000 212.937
44.32000 214.787
44.36000 222.187
44.40000 212.768
44.44000 223.340
44.48000 219.115
44.52000 228.027
44.56000 216.809
44.60000 218.036
44.64000 218.135
44.68000 233.883
44.72000 221.723
44.76000 228.175
44.80000 242.198
44.84000 262.234
44.88000 287.297
44.92000 302.578
44.96000 307.953
45.00000 343.777
45.04000 354.946
45.08000 369.365
45.12000 379.001
45.16000 382.844
45.20000 368.191
45.24000 345.104
45.28000 330.266
45.32000 325.666
45.36000 289.967
45.40000 286.137
45.44000 264.361
45.48000 249.688
45.52000 243.900
45.56000 237.212
45.60000 237.365
45.64000 253.596
45.68000 222.901
45.72000 214.856
45.76000 222.594
45.80000 218.946
45.84000 202.348
45.88000 208.253
45.92000 207.989
45.96000 206.343
46.00000 202.928
46.04000 190.041
46.08000 195.313
46.12000 204.419
46.16000 201.724
46.20000 200.045
46.24000 206.851
46.28000 196.574
46.32000 201.923
46.36000 207.962
46.40000 211.333
46.44000 200.407
46.48000 201.319
46.52000 199.422
46.56000 192.251
46.60000 202.943
46.64000 191.138
46.68000 196.101
46.72000 206.182
46.76000 193.648
46.80000 190.955
46.84000 197.472
46.88000 191.792
46.92000 202.774
46.96000 198.914
47.00000 185.452
47.04000 192.355
47.08000 196.472
47.12000 196.040
47.16000 180.484
47.20000 189.421
47.24000 188.865
47.28000 192.479
47.32000 186.142
47.36000 182.169
47.40000 183.751
47.44000 192.496
47.48000 183.304
47.52000 184.416
47.56000 184.127
47.60000 200.463
47.64000 189.309
47.68000 189.124
47.72000 186.392
47.76000 190.453
47.80000 186.934
47.84000 178.145
47.88000 176.053
47.92000 165.490
47.96000 190.431
48.00000 189.699
48.04000 170.412
48.08000 192.921
48.12000 188.784
48.16000 178.710
48.20000 192.818
48.24000 186.326
48.28000 175.681
48.32000 179.914
48.36000 185.292
48.40000 180.816
48.44000 186.576
48.48000 171.378
48.52000 171.320
48.56000 179.419
48.60000 183.072
48.64000 185.917
48.68000 175.841
48.72000 169.878
48.76000 184.923
48.80000 176.706
48.84000 174.856
48.88000 170.751
48.92000 184.507
48.96000 186.137
49.00000 182.305
49.04000 181.575
49.08000 179.652
49.12000 175.072
49.16000 172.317
49.20000 174.672
49.24000 177.175
49.28000 173.935
49.32000 178.933
49.36000 172.485
49.40000 175.124
49.44000 178.165
49.48000 170.016
49.52000 160.907
49.56000 171.679
49.60000 172.598
49.64000 172.680
49.68000 187.144
49.72000 177.404
49.76000 164.218
49.80000 172.185
49.84000 177.495
49.88000 179.158
49.92000 178.506
49.96000 179.842
50.00000 180.649
50.04000 170.834
50.08000 178.353
50.12000 181.084
50.16000 181.039
50.20000 158.859
50.24000 177.374
50.28000 177.592
50.32000 186.983
50.36000 188.295
50.40000 201.819
50.44000 207.824
50.48000 209.047
50.52000 225.207
50.56000 232.223
50.60000 234.141
50.64000 270.808
50.68000 278.905
50.72000 282.581
50.76000 285.200
50.80000 272.866
50.84000 269.243
50.88000 241.612
50.92000 238.605
50.96000 221.941
51.00000 211.545
51.04000 203.036
51.08000 194.797
51.12000 194.540
51.16000 183.737
51.20000 174.287
51.24000 164.252
51.28000 169.238
51.32000 164.868
51.36000 162.536
51.40000 180.978
51.44000 160.307
51.48000 163.885
51.52000 157.321
51.56000 159.516
51.60000 164.111
51.64000 162.383
51.68000 157.770
51.72000 159.500
51.76000 154.064
51.80000 158.615
51.84000 175.893
51.88000 166.534
51.92000 159.205
51.96000 160.289
52.00000 160.560
52.04000 166.206
52.08000 160.218
52.12000 160.723
52.16000 174.038
52.20000 155.198
52.24000 151.958
52.28000 159.035
52.32000 149.806
52.36000 167.998
52.40000 152.703
52.44000 161.640
52.48000 152.608
52.52000 158.202
52.56000 159.594
52.60000 160.660
52.64000 157.578
52.68000 157.947
52.72000 157.171
52.76000 155.914
52.80000 159.204
52.84000 157.661
52.88000 142.361
52.92000 152.261
52.96000 150.957
53.00000 164.239
53.04000 161.373
53.08000 156.183
53.12000 150.078
53.16000 159.929
53.20000 147.722
53.24000 155.301
53.28000 153.056
53.32000 169.833
53.36000 163.038
53.40000 177.246
53.44000 152.437
53.48000 150.384
53.52000 169.124
53.56000 162.021
53.60000 151.855
53.64000 155.557
53.68000 150.480
53.72000 153.086
53.76000 153.262
53.80000 157.196
53.84000 162.774
53.88000 150.243
53.92000 147.134
53.96000 151.215
54.00000 148.355
54.04000 154.829
54.08000 155.927
54.12000 149.735
54.16000 155.266
54.20000 151.642
54.24000 155.563
54.28000 151.596
54.32000 161.736
54.36000 161.462
54.40000 151.249
54.44000 155.223
54.48000 151.824
54.52000 146.004
54.56000 154.357
54.60000 154.226
54.64000 137.463
54.68000 154.673
54.72000 160.513
54.76000 151.410
54.80000 159.247
54.84000 145.651
54.88000 152.266
54.92000 154.636
54.96000 148.173
55.00000 154.456
55.04000 157.746
55.08000 147.816
55.12000 155.391
55.16000 156.237
55.20000 152.318
55.24000 156.466
55.28000 172.821
55.32000 168.655
55.36000 166.408
55.40000 173.390
55.44000 159.758
55.48000 185.308
55.52000 187.757
55.56000 190.976
55.60000 221.870
55.64000 237.790
55.68000 267.750
55.72000 318.632
55.76000 374.185
55.80000 420.012
55.84000 491.776
55.88000 569.572
55.92000 623.111
55.96000 663.435
56.00000 632.328
56.04000 617.251
56.08000 582.375
56.12000 522.678
56.16000 457.495
56.20000 415.386
56.24000 338.858
56.28000 275.567
56.32000 262.819
56.36000 235.246
56.40000 206.755
56.44000 180.288
56.48000 176.485
56.52000 175.773
56.56000 171.252
56.60000 165.453
56.64000 158.802
56.68000 158.374
56.72000 155.522
56.76000 155.621
56.80000 139.593
56.84000 150.865
56.88000 140.648
56.92000 159.694
56.96000 152.289
57.00000 138.449
57.04000 143.385
57.08000 140.488
57.12000 141.454
57.16000 150.605
57.20000 151.854
57.24000 146.519
57.28000 137.353
57.32000 142.198
57.36000 145.940
57.40000 143.204
57.44000 140.736
57.48000 141.393
57.52000 142.746
57.56000 139.672
57.60000 136.342
57.64000 145.861
57.68000 147.999
57.72000 139.850
57.76000 155.548
57.80000 144.358
57.84000 148.197
57.88000 138.205
57.92000 143.365
57.96000 142.306
58.00000 143.051
58.04000 144.754
58.08000 132.793
58.12000 138.741
58.16000 151.577
58.20000 139.738
58.24000 138.712
58.28000 134.849
58.32000 130.149
58.36000 137.658
58.40000 133.693
58.44000 136.880
58.48000 138.995
58.52000 129.652
58.56000 131.887
58.60000 132.608
58.64000 136.355
58.68000 138.831
58.72000 135.506
58.76000 126.550
58.80000 128.762
58.84000 129.359
58.88000 124.197
58.92000 131.031
58.96000 116.456
59.00000 145.729
59.04000 146.599
59.08000 132.433
59.12000 132.474
59.16000 145.184
59.20000 125.717
59.24000 127.381
59.28000 129.504
59.32000 131.348
59.36000 133.620
59.40000 149.306
59.44000 136.437
59.48000 131.643
59.52000 135.228
59.56000 136.510
59.60000 127.435
59.64000 130.380
59.68000 137.253
59.72000 141.464
59.76000 133.060
59.80000 122.603
59.84000 137.817
59.88000 143.485
59.92000 130.745
59.96000 132.801
60.00000 138.581
60.04000 134.301
60.08000 140.798
60.12000 136.333
60.16000 141.801
60.20000 135.018
60.24000 134.745
60.28000 135.836
60.32000 119.590
60.36000 139.451
60.40000 134.688
60.44000 126.712
60.48000 126.161
60.52000 131.595
60.56000 133.250
60.60000 135.321
60.64000 128.335
60.68000 132.841
60.72000 134.680
60.76000 136.690
60.80000 135.365
60.84000 118.578
60.88000 133.098
60.92000 129.941
60.96000 132.075
61.00000 136.719
61.04000 135.601
61.08000 129.602
61.12000 130.641
61.16000 136.049
61.20000 142.047
61.24000 129.729
61.28000 133.696
61.32000 136.661
61.36000 131.633
61.40000 139.315
61.44000 137.069
61.48000 143.269
61.52000 170.961
61.56000 219.981
61.60000 272.878
61.64000 310.607
61.68000 318.143
61.72000 319.736
61.76000 302.047
61.80000 229.792
61.84000 176.313
61.88000 163.462
61.92000 158.599
61.96000 140.518
62.00000 138.074
62.04000 136.354
62.08000 135.083
62.12000 143.846
62.16000 146.640
62.20000 139.960
62.24000 144.081
62.28000 141.957
62.32000 143.631
62.36000 135.811
62.40000 142.539
62.44000 137.419
62.48000 144.578
62.52000 146.076
62.56000 139.109
62.60000 134.665
62.64000 135.621
62.68000 140.419
62.72000 151.422
62.76000 143.357
62.80000 140.686
62.84000 135.922
62.88000 138.683
62.92000 143.779
62.96000 152.838
63.00000 144.549
63.04000 143.396
63.08000 142.820
63.12000 148.830
63.16000 144.187
63.20000 153.028
63.24000 155.074
63.28000 150.335
63.32000 147.369
63.36000 146.167
63.40000 146.612
63.44000 148.464
63.48000 147.994
63.52000 144.104
63.56000 158.522
63.60000 140.694
63.64000 153.809
63.68000 154.185
63.72000 148.685
63.76000 157.037
63.80000 147.886
63.84000 146.467
63.88000 146.692
63.92000 156.603
63.96000 151.924
64.00000 160.891
64.04000 149.898
64.08000 155.055
64.12000 154.333
64.16000 167.092
64.20000 166.569
64.24000 159.962
64.28000 166.546
64.32000 150.586
64.36000 171.192
64.40000 158.776
64.44000 170.120
64.48000 163.991
64.52000 169.014
64.56000 182.381
64.60000 175.972
64.64000 175.244
64.68000 162.067
64.72000 173.424
64.76000 170.080
64.80000 183.620
64.84000 175.844
64.88000 178.133
64.92000 177.636
64.96000 186.089
65.00000 194.669
65.04000 195.515
65.08000 201.429
65.12000 215.215
65.16000 221.088
65.20000 222.023
65.24000 250.482
65.28000 258.628
65.32000 276.032
65.36000 293.411
65.40000 310.144
65.44000 348.089
65.48000 378.408
65.52000 428.745
65.56000 470.618
65.60000 479.837
65.64000 530.569
65.68000 627.964
65.72000 801.220
65.76000 1042.653
65.80000 1234.713
65.84000 1326.087
65.88000 1341.353
65.92000 1228.942
65.96000 1021.820
66.00000 745.973
66.04000 507.468
66.08000 381.043
66.12000 347.408
66.16000 320.717
66.20000 323.160
66.24000 354.895
66.28000 384.490
66.32000 420.110
66.36000 466.892
66.40000 487.768
66.44000 486.987
66.48000 469.980
66.52000 453.689
66.56000 377.839
66.60000 365.240
66.64000 324.099
66.68000 327.921
66.72000 329.656
66.76000 332.514
66.80000 321.025
66.84000 331.868
66.88000 348.368
66.92000 366.392
66.96000 368.258
67.00000 348.567
67.04000 351.284
67.08000 363.771
67.12000 370.119
67.16000 360.364
67.20000 391.380
67.24000 399.810
67.28000 408.305
67.32000 410.201
67.36000 396.950
67.40000 441.961
67.44000 442.722
67.48000 455.419
67.52000 433.318
67.56000 447.154
67.60000 462.546
67.64000 473.651
67.68000 462.558
67.72000 484.332
67.76000 503.077
67.80000 518.297
67.84000 524.911
67.88000 543.909
67.92000 568.587
67.96000 574.469
68.00000 554.155
68.04000 587.012
68.08000 606.321
68.12000 619.666
68.16000 639.274
68.20000 671.982
68.24000 675.978
68.28000 674.707
68.32000 708.335
68.36000 753.081
68.40000 762.016
68.44000 794.125
68.48000 850.185
68.52000 902.458
68.56000 982.278
68.60000 1101.118
68.64000 1365.465
68.68000 1584.505
68.72000 1875.333
68.76000 2155.225
68.80000 2497.622
68.84000 3078.964
68.88000 4152.395
68.92000 7839.356
68.96000 20046.262
69.00000 42380.188
69.04000 64009.309
69.08000 74351.391
69.12000 76083.820
69.16000 78718.680
69.20000 77018.289
69.24000 63556.074
69.28000 49698.340
69.32000 40658.332
69.36000 36007.594
69.40000 28459.449
69.44000 16924.316
69.48000 7918.924
69.52000 3465.396
69.56000 2200.108
69.60000 1700.437
69.64000 1433.901
69.68000 1232.133
69.72000 1126.358
69.76000 1043.717
69.80000 924.042
69.84000 903.847
69.88000 846.091
69.92000 801.067
69.96000 769.261
70.00000 753.727