File: XRD/XRD/17-09-2025/XY Data/BTO_Mapping_Theta2Theta_09-17-2025_001_04_-30-000_-30-000.xy
20.00000 563.966
20.04000 568.524
20.08000 575.647
20.12000 559.579
20.16000 563.087
20.20000 578.147
20.24000 571.895
20.28000 557.243
20.32000 557.759
20.36000 554.183
20.40000 569.691
20.44000 552.777
20.48000 556.200
20.52000 577.635
20.56000 566.968
20.60000 552.477
20.64000 560.155
20.68000 554.461
20.72000 552.721
20.76000 533.873
20.80000 558.374
20.84000 561.504
20.88000 557.116
20.92000 561.663
20.96000 558.450
21.00000 556.905
21.04000 564.646
21.08000 567.382
21.12000 573.736
21.16000 567.803
21.20000 553.269
21.24000 564.822
21.28000 569.259
21.32000 551.758
21.36000 562.529
21.40000 565.298
21.44000 584.640
21.48000 547.456
21.52000 553.812
21.56000 591.283
21.60000 591.125
21.64000 608.443
21.68000 633.847
21.72000 659.014
21.76000 724.377
21.80000 795.795
21.84000 854.990
21.88000 962.131
21.92000 1041.508
21.96000 1061.991
22.00000 1071.674
22.04000 1019.252
22.08000 948.094
22.12000 853.543
22.16000 768.915
22.20000 676.361
22.24000 624.553
22.28000 604.687
22.32000 567.304
22.36000 583.810
22.40000 560.250
22.44000 534.907
22.48000 538.963
22.52000 542.389
22.56000 544.528
22.60000 537.631
22.64000 543.858
22.68000 520.064
22.72000 543.343
22.76000 525.664
22.80000 526.000
22.84000 527.359
22.88000 533.002
22.92000 511.594
22.96000 514.286
23.00000 507.581
23.04000 509.020
23.08000 530.240
23.12000 502.086
23.16000 502.846
23.20000 507.056
23.24000 513.749
23.28000 516.605
23.32000 516.062
23.36000 510.425
23.40000 518.146
23.44000 491.411
23.48000 508.781
23.52000 504.314
23.56000 510.576
23.60000 520.340
23.64000 523.091
23.68000 513.317
23.72000 504.224
23.76000 500.666
23.80000 517.065
23.84000 507.283
23.88000 504.165
23.92000 495.165
23.96000 502.735
24.00000 496.622
24.04000 494.521
24.08000 504.320
24.12000 486.607
24.16000 481.775
24.20000 499.589
24.24000 486.458
24.28000 479.574
24.32000 503.149
24.36000 474.004
24.40000 481.519
24.44000 511.464
24.48000 499.329
24.52000 480.358
24.56000 492.022
24.60000 486.749
24.64000 474.648
24.68000 481.522
24.72000 491.729
24.76000 486.444
24.80000 472.545
24.84000 481.003
24.88000 473.061
24.92000 493.701
24.96000 483.216
25.00000 477.019
25.04000 487.637
25.08000 475.021
25.12000 480.952
25.16000 479.739
25.20000 484.516
25.24000 479.081
25.28000 473.704
25.32000 467.415
25.36000 465.177
25.40000 466.375
25.44000 459.604
25.48000 466.526
25.52000 482.474
25.56000 470.692
25.60000 469.628
25.64000 488.516
25.68000 448.909
25.72000 478.921
25.76000 487.465
25.80000 463.726
25.84000 470.386
25.88000 469.657
25.92000 452.802
25.96000 471.589
26.00000 456.469
26.04000 473.400
26.08000 475.519
26.12000 465.611
26.16000 450.612
26.20000 461.053
26.24000 484.200
26.28000 470.931
26.32000 480.699
26.36000 477.602
26.40000 463.499
26.44000 461.489
26.48000 470.727
26.52000 462.269
26.56000 475.015
26.60000 465.778
26.64000 453.855
26.68000 450.027
26.72000 479.215
26.76000 435.836
26.80000 454.559
26.84000 475.651
26.88000 468.053
26.92000 447.273
26.96000 481.716
27.00000 466.178
27.04000 458.119
27.08000 452.702
27.12000 448.886
27.16000 445.429
27.20000 459.279
27.24000 460.237
27.28000 461.020
27.32000 440.364
27.36000 453.882
27.40000 460.420
27.44000 455.111
27.48000 441.106
27.52000 443.935
27.56000 449.710
27.60000 439.799
27.64000 446.963
27.68000 446.324
27.72000 454.122
27.76000 427.630
27.80000 448.400
27.84000 445.724
27.88000 437.565
27.92000 419.290
27.96000 438.450
28.00000 435.905
28.04000 437.629
28.08000 429.879
28.12000 438.824
28.16000 455.418
28.20000 446.933
28.24000 442.922
28.28000 447.215
28.32000 440.792
28.36000 435.588
28.40000 431.090
28.44000 441.375
28.48000 432.306
28.52000 428.811
28.56000 439.339
28.60000 443.338
28.64000 439.681
28.68000 422.953
28.72000 430.050
28.76000 435.077
28.80000 428.729
28.84000 428.945
28.88000 421.867
28.92000 424.096
28.96000 419.162
29.00000 440.330
29.04000 434.569
29.08000 423.645
29.12000 415.480
29.16000 411.962
29.20000 426.480
29.24000 429.171
29.28000 432.626
29.32000 431.341
29.36000 412.057
29.40000 417.810
29.44000 423.745
29.48000 424.230
29.52000 426.299
29.56000 407.546
29.60000 413.478
29.64000 429.874
29.68000 434.253
29.72000 430.679
29.76000 441.644
29.80000 441.685
29.84000 438.695
29.88000 448.819
29.92000 442.802
29.96000 458.198
30.00000 470.377
30.04000 439.264
30.08000 443.131
30.12000 436.291
30.16000 433.183
30.20000 439.183
30.24000 441.795
30.28000 438.590
30.32000 423.212
30.36000 440.579
30.40000 430.758
30.44000 427.132
30.48000 453.612
30.52000 424.033
30.56000 433.472
30.60000 440.944
30.64000 451.769
30.68000 458.672
30.72000 473.718
30.76000 478.667
30.80000 493.227
30.84000 510.976
30.88000 531.599
30.92000 572.593
30.96000 661.104
31.00000 824.814
31.04000 1071.282
31.08000 1437.612
31.12000 1946.407
31.16000 2543.997
31.20000 3103.798
31.24000 3499.515
31.28000 3641.547
31.32000 3509.509
31.36000 3139.667
31.40000 2591.934
31.44000 1981.024
31.48000 1482.202
31.52000 1105.014
31.56000 824.769
31.60000 680.538
31.64000 590.830
31.68000 542.814
31.72000 486.072
31.76000 469.673
31.80000 459.195
31.84000 449.188
31.88000 449.153
31.92000 423.738
31.96000 433.903
32.00000 428.122
32.04000 433.141
32.08000 420.803
32.12000 406.901
32.16000 398.760
32.20000 417.519
32.24000 409.599
32.28000 408.642
32.32000 393.351
32.36000 393.249
32.40000 379.601
32.44000 406.220
32.48000 422.170
32.52000 385.632
32.56000 387.008
32.60000 386.607
32.64000 376.180
32.68000 381.287
32.72000 372.924
32.76000 377.949
32.80000 379.421
32.84000 361.778
32.88000 367.053
32.92000 376.805
32.96000 356.510
33.00000 362.031
33.04000 361.444
33.08000 373.341
33.12000 360.531
33.16000 364.219
33.20000 359.362
33.24000 366.087
33.28000 340.456
33.32000 347.834
33.36000 342.873
33.40000 346.127
33.44000 353.645
33.48000 371.320
33.52000 334.667
33.56000 338.321
33.60000 338.076
33.64000 355.448
33.68000 352.134
33.72000 342.841
33.76000 357.585
33.80000 350.842
33.84000 333.765
33.88000 333.377
33.92000 327.614
33.96000 347.757
34.00000 341.644
34.04000 326.308
34.08000 346.195
34.12000 347.118
34.16000 335.822
34.20000 319.849
34.24000 349.749
34.28000 316.284
34.32000 336.071
34.36000 333.787
34.40000 331.484
34.44000 324.158
34.48000 327.632
34.52000 321.874
34.56000 316.136
34.60000 319.585
34.64000 335.131
34.68000 327.811
34.72000 325.292
34.76000 324.751
34.80000 302.148
34.84000 327.611
34.88000 319.742
34.92000 332.764
34.96000 324.504
35.00000 327.462
35.04000 312.357
35.08000 313.506
35.12000 321.250
35.16000 321.882
35.20000 323.829
35.24000 320.826
35.28000 308.693
35.32000 312.601
35.36000 312.461
35.40000 309.957
35.44000 314.101
35.48000 309.694
35.52000 301.630
35.56000 314.169
35.60000 313.388
35.64000 314.341
35.68000 304.775
35.72000 303.100
35.76000 318.935
35.80000 326.108
35.84000 309.472
35.88000 307.482
35.92000 301.132
35.96000 308.415
36.00000 297.083
36.04000 286.793
36.08000 303.454
36.12000 304.096
36.16000 288.051
36.20000 300.988
36.24000 323.947
36.28000 302.374
36.32000 315.175
36.36000 326.041
36.40000 316.708
36.44000 301.279
36.48000 302.068
36.52000 304.847
36.56000 310.483
36.60000 296.305
36.64000 294.598
36.68000 300.430
36.72000 317.836
36.76000 293.024
36.80000 313.853
36.84000 306.123
36.88000 314.110
36.92000 309.976
36.96000 317.722
37.00000 303.181
37.04000 298.509
37.08000 315.741
37.12000 290.639
37.16000 282.348
37.20000 304.217
37.24000 311.833
37.28000 306.042
37.32000 310.358
37.36000 307.294
37.40000 300.898
37.44000 287.743
37.48000 289.038
37.52000 304.954
37.56000 303.769
37.60000 286.957
37.64000 298.246
37.68000 305.446
37.72000 308.073
37.76000 309.416
37.80000 303.366
37.84000 300.487
37.88000 280.191
37.92000 289.783
37.96000 295.730
38.00000 304.919
38.04000 291.251
38.08000 306.871
38.12000 309.510
38.16000 300.933
38.20000 296.195
38.24000 311.224
38.28000 332.068
38.32000 348.831
38.36000 379.111
38.40000 413.342
38.44000 414.926
38.48000 454.334
38.52000 470.820
38.56000 468.591
38.60000 479.430
38.64000 473.981
38.68000 451.266
38.72000 443.666
38.76000 408.610
38.80000 385.244
38.84000 354.246
38.88000 332.194
38.92000 319.630
38.96000 301.133
39.00000 311.530
39.04000 289.547
39.08000 276.324
39.12000 285.833
39.16000 270.354
39.20000 276.122
39.24000 284.283
39.28000 273.305
39.32000 265.129
39.36000 278.483
39.40000 278.005
39.44000 291.955
39.48000 278.770
39.52000 275.861
39.56000 264.933
39.60000 255.813
39.64000 266.101
39.68000 258.885
39.72000 262.226
39.76000 263.467
39.80000 277.187
39.84000 268.879
39.88000 254.168
39.92000 263.679
39.96000 269.584
40.00000 274.977
40.04000 264.364
40.08000 257.347
40.12000 263.135
40.16000 267.838
40.20000 263.341
40.24000 271.382
40.28000 270.652
40.32000 268.845
40.36000 249.632
40.40000 244.523
40.44000 249.322
40.48000 263.777
40.52000 258.639
40.56000 254.511
40.60000 259.023
40.64000 248.919
40.68000 260.579
40.72000 261.814
40.76000 238.523
40.80000 256.176
40.84000 263.546
40.88000 257.051
40.92000 250.597
40.96000 254.172
41.00000 253.735
41.04000 257.679
41.08000 248.499
41.12000 258.806
41.16000 259.196
41.20000 255.073
41.24000 245.019
41.28000 237.367
41.32000 248.587
41.36000 244.690
41.40000 243.372
41.44000 253.781
41.48000 239.099
41.52000 238.270
41.56000 254.434
41.60000 229.781
41.64000 241.141
41.68000 248.328
41.72000 247.702
41.76000 249.675
41.80000 240.963
41.84000 229.575
41.88000 242.608
41.92000 232.701
41.96000 231.633
42.00000 239.906
42.04000 240.588
42.08000 235.523
42.12000 239.257
42.16000 232.812
42.20000 233.962
42.24000 228.344
42.28000 237.750
42.32000 232.157
42.36000 247.316
42.40000 240.552
42.44000 240.208
42.48000 234.354
42.52000 231.986
42.56000 239.934
42.60000 239.032
42.64000 243.216
42.68000 233.137
42.72000 238.419
42.76000 233.229
42.80000 240.448
42.84000 236.463
42.88000 232.069
42.92000 228.325
42.96000 241.540
43.00000 234.330
43.04000 242.746
43.08000 235.572
43.12000 234.647
43.16000 231.771
43.20000 225.225
43.24000 237.162
43.28000 234.294
43.32000 237.196
43.36000 236.034
43.40000 229.103
43.44000 235.778
43.48000 225.941
43.52000 230.635
43.56000 226.802
43.60000 224.698
43.64000 230.002
43.68000 244.121
43.72000 232.884
43.76000 237.775
43.80000 215.560
43.84000 228.474
43.88000 240.579
43.92000 226.760
43.96000 224.929
44.00000 234.993
44.04000 233.358
44.08000 234.283
44.12000 222.495
44.16000 237.180
44.20000 236.836
44.24000 241.719
44.28000 244.095
44.32000 241.763
44.36000 264.146
44.40000 265.598
44.44000 270.163
44.48000 281.172
44.52000 297.526
44.56000 327.884
44.60000 360.640
44.64000 414.099
44.68000 470.935
44.72000 520.227
44.76000 597.158
44.80000 632.079
44.84000 671.624
44.88000 703.079
44.92000 699.840
44.96000 683.216
45.00000 648.649
45.04000 590.938
45.08000 540.059
45.12000 492.773
45.16000 452.782
45.20000 387.226
45.24000 350.039
45.28000 320.042
45.32000 303.536
45.36000 296.508
45.40000 270.025
45.44000 241.998
45.48000 245.037
45.52000 243.888
45.56000 229.160
45.60000 239.336
45.64000 230.208
45.68000 229.468
45.72000 230.271
45.76000 225.713
45.80000 216.659
45.84000 212.947
45.88000 224.702
45.92000 217.439
45.96000 227.036
46.00000 217.301
46.04000 207.437
46.08000 218.432
46.12000 229.900
46.16000 210.364
46.20000 207.860
46.24000 214.112
46.28000 211.831
46.32000 206.964
46.36000 214.181
46.40000 214.165
46.44000 210.005
46.48000 203.583
46.52000 206.755
46.56000 209.561
46.60000 200.223
46.64000 204.672
46.68000 209.524
46.72000 204.509
46.76000 202.337
46.80000 208.657
46.84000 206.208
46.88000 197.979
46.92000 195.359
46.96000 193.398
47.00000 202.603
47.04000 193.194
47.08000 195.368
47.12000 206.591
47.16000 205.467
47.20000 199.363
47.24000 193.431
47.28000 179.870
47.32000 185.243
47.36000 200.708
47.40000 207.370
47.44000 193.853
47.48000 192.270
47.52000 195.370
47.56000 195.615
47.60000 189.676
47.64000 196.765
47.68000 190.331
47.72000 188.994
47.76000 181.526
47.80000 194.627
47.84000 188.920
47.88000 183.254
47.92000 183.925
47.96000 191.392
48.00000 181.811
48.04000 200.956
48.08000 189.707
48.12000 196.117
48.16000 187.893
48.20000 184.429
48.24000 196.836
48.28000 185.468
48.32000 187.061
48.36000 189.685
48.40000 186.041
48.44000 195.921
48.48000 191.580
48.52000 180.418
48.56000 182.449
48.60000 189.272
48.64000 179.240
48.68000 185.656
48.72000 181.032
48.76000 187.491
48.80000 187.724
48.84000 186.850
48.88000 187.619
48.92000 191.640
48.96000 186.234
49.00000 184.159
49.04000 174.960
49.08000 174.183
49.12000 185.109
49.16000 195.576
49.20000 186.667
49.24000 179.810
49.28000 190.858
49.32000 194.223
49.36000 172.322
49.40000 183.482
49.44000 182.609
49.48000 171.409
49.52000 179.377
49.56000 180.123
49.60000 178.886
49.64000 177.588
49.68000 180.980
49.72000 183.537
49.76000 185.978
49.80000 188.963
49.84000 185.015
49.88000 182.924
49.92000 186.423
49.96000 183.206
50.00000 193.276
50.04000 181.991
50.08000 179.065
50.12000 198.473
50.16000 198.072
50.20000 200.469
50.24000 202.716
50.28000 232.539
50.32000 231.345
50.36000 235.397
50.40000 272.017
50.44000 271.769
50.48000 289.138
50.52000 288.039
50.56000 284.957
50.60000 286.569
50.64000 273.811
50.68000 277.627
50.72000 257.605
50.76000 249.822
50.80000 228.323
50.84000 216.044
50.88000 210.330
50.92000 199.958
50.96000 192.348
51.00000 177.651
51.04000 182.036
51.08000 178.476
51.12000 178.875
51.16000 170.838
51.20000 187.918
51.24000 175.528
51.28000 172.945
51.32000 171.048
51.36000 167.253
51.40000 168.121
51.44000 175.980
51.48000 172.050
51.52000 153.899
51.56000 162.526
51.60000 165.204
51.64000 173.571
51.68000 165.327
51.72000 160.285
51.76000 175.053
51.80000 169.670
51.84000 158.280
51.88000 164.290
51.92000 169.249
51.96000 166.050
52.00000 158.414
52.04000 166.333
52.08000 164.426
52.12000 163.067
52.16000 162.773
52.20000 165.315
52.24000 154.954
52.28000 155.202
52.32000 164.721
52.36000 158.929
52.40000 165.068
52.44000 155.919
52.48000 154.033
52.52000 168.202
52.56000 162.385
52.60000 153.628
52.64000 166.676
52.68000 168.115
52.72000 155.590
52.76000 168.856
52.80000 153.583
52.84000 157.121
52.88000 158.379
52.92000 168.549
52.96000 161.371
53.00000 164.857
53.04000 165.718
53.08000 171.055
53.12000 166.421
53.16000 161.284
53.20000 161.029
53.24000 158.343
53.28000 156.693
53.32000 166.201
53.36000 165.698
53.40000 171.200
53.44000 162.506
53.48000 148.953
53.52000 155.479
53.56000 163.778
53.60000 155.224
53.64000 153.111
53.68000 151.628
53.72000 159.662
53.76000 152.656
53.80000 160.745
53.84000 154.316
53.88000 153.344
53.92000 147.449
53.96000 156.705
54.00000 154.600
54.04000 166.940
54.08000 155.442
54.12000 164.983
54.16000 162.208
54.20000 149.168
54.24000 158.251
54.28000 156.743
54.32000 161.168
54.36000 166.031
54.40000 160.567
54.44000 158.374
54.48000 160.441
54.52000 162.384
54.56000 160.930
54.60000 156.275
54.64000 155.583
54.68000 163.782
54.72000 160.187
54.76000 153.224
54.80000 168.193
54.84000 166.689
54.88000 163.602
54.92000 155.553
54.96000 160.530
55.00000 166.133
55.04000 163.740
55.08000 167.475
55.12000 165.478
55.16000 178.977
55.20000 192.434
55.24000 191.017
55.28000 194.790
55.32000 204.816
55.36000 208.185
55.40000 237.123
55.44000 287.972
55.48000 319.409
55.52000 373.477
55.56000 415.518
55.60000 470.756
55.64000 531.145
55.68000 530.291
55.72000 586.238
55.76000 586.993
55.80000 558.345
55.84000 530.354
55.88000 512.902
55.92000 452.931
55.96000 410.586
56.00000 359.415
56.04000 316.130
56.08000 275.668
56.12000 247.941
56.16000 226.226
56.20000 206.668
56.24000 199.024
56.28000 174.351
56.32000 188.181
56.36000 167.619
56.40000 170.734
56.44000 170.004
56.48000 156.728
56.52000 155.099
56.56000 155.166
56.60000 153.459
56.64000 154.294
56.68000 162.553
56.72000 154.323
56.76000 148.738
56.80000 144.181
56.84000 146.136
56.88000 151.766
56.92000 148.703
56.96000 150.370
57.00000 142.289
57.04000 151.263
57.08000 143.294
57.12000 146.622
57.16000 144.751
57.20000 153.786
57.24000 149.472
57.28000 141.856
57.32000 145.881
57.36000 147.563
57.40000 147.652
57.44000 148.340
57.48000 147.683
57.52000 141.204
57.56000 152.158
57.60000 149.097
57.64000 135.093
57.68000 138.902
57.72000 143.705
57.76000 155.274
57.80000 143.608
57.84000 128.100
57.88000 144.463
57.92000 148.524
57.96000 138.278
58.00000 131.096
58.04000 140.108
58.08000 139.859
58.12000 144.460
58.16000 142.511
58.20000 142.787
58.24000 144.776
58.28000 139.157
58.32000 135.049
58.36000 144.219
58.40000 145.521
58.44000 137.337
58.48000 148.657
58.52000 145.144
58.56000 144.156
58.60000 138.197
58.64000 133.077
58.68000 135.202
58.72000 130.333
58.76000 146.439
58.80000 132.772
58.84000 136.758
58.88000 137.599
58.92000 130.968
58.96000 142.750
59.00000 148.568
59.04000 133.703
59.08000 154.617
59.12000 136.213
59.16000 132.688
59.20000 134.923
59.24000 138.626
59.28000 136.540
59.32000 135.498
59.36000 138.712
59.40000 133.515
59.44000 141.719
59.48000 138.325
59.52000 132.139
59.56000 141.846
59.60000 140.169
59.64000 137.855
59.68000 124.455
59.72000 132.569
59.76000 130.980
59.80000 136.755
59.84000 133.082
59.88000 129.234
59.92000 141.419
59.96000 134.814
60.00000 139.208
60.04000 134.985
60.08000 137.388
60.12000 135.407
60.16000 145.130
60.20000 133.508
60.24000 140.435
60.28000 134.643
60.32000 135.004
60.36000 132.213
60.40000 139.655
60.44000 123.859
60.48000 137.608
60.52000 128.815
60.56000 144.112
60.60000 129.816
60.64000 129.223
60.68000 130.962
60.72000 140.778
60.76000 138.246
60.80000 134.566
60.84000 135.999
60.88000 133.665
60.92000 145.354
60.96000 141.326
61.00000 136.077
61.04000 140.477
61.08000 142.575
61.12000 146.580
61.16000 150.614
61.20000 145.923
61.24000 140.236
61.28000 139.742
61.32000 134.586
61.36000 141.680
61.40000 148.346
61.44000 137.453
61.48000 158.194
61.52000 188.613
61.56000 252.454
61.60000 314.227
61.64000 348.322
61.68000 361.741
61.72000 357.806
61.76000 327.832
61.80000 263.147
61.84000 195.819
61.88000 176.312
61.92000 147.951
61.96000 156.147
62.00000 144.629
62.04000 136.460
62.08000 155.806
62.12000 146.522
62.16000 146.203
62.20000 137.717
62.24000 155.806
62.28000 147.578
62.32000 146.870
62.36000 143.185
62.40000 144.800
62.44000 149.160
62.48000 155.515
62.52000 153.333
62.56000 141.282
62.60000 139.842
62.64000 150.253
62.68000 150.343
62.72000 138.401
62.76000 143.624
62.80000 143.541
62.84000 145.842
62.88000 148.537
62.92000 149.363
62.96000 147.597
63.00000 138.936
63.04000 144.208
63.08000 151.498
63.12000 156.461
63.16000 147.184
63.20000 146.135
63.24000 146.869
63.28000 151.358
63.32000 142.922
63.36000 149.206
63.40000 159.001
63.44000 152.249
63.48000 149.370
63.52000 147.605
63.56000 162.511
63.60000 149.506
63.64000 148.801
63.68000 143.531
63.72000 147.613
63.76000 148.874
63.80000 153.484
63.84000 162.390
63.88000 161.299
63.92000 163.833
63.96000 159.907
64.00000 153.776
64.04000 165.058
64.08000 168.153
64.12000 168.393
64.16000 165.021
64.20000 163.777
64.24000 168.666
64.28000 158.439
64.32000 159.704
64.36000 164.612
64.40000 172.099
64.44000 173.199
64.48000 175.969
64.52000 172.823
64.56000 176.305
64.60000 180.947
64.64000 181.977
64.68000 183.143
64.72000 183.294
64.76000 178.571
64.80000 197.181
64.84000 189.596
64.88000 201.651
64.92000 210.338
64.96000 220.922
65.00000 257.810
65.04000 270.015
65.08000 287.464
65.12000 313.162
65.16000 341.722
65.20000 372.192
65.24000 395.004
65.28000 411.590
65.32000 418.910
65.36000 406.226
65.40000 423.904
65.44000 401.944
65.48000 397.803
65.52000 376.217
65.56000 383.313
65.60000 386.018
65.64000 423.138
65.68000 503.354
65.72000 728.762
65.76000 1040.186
65.80000 1292.800
65.84000 1428.495
65.88000 1466.559
65.92000 1374.910
65.96000 1131.650
66.00000 807.752
66.04000 557.395
66.08000 411.779
66.12000 344.182
66.16000 335.788
66.20000 334.947
66.24000 351.442
66.28000 408.023
66.32000 460.148
66.36000 514.933
66.40000 534.032
66.44000 569.459
66.48000 541.713
66.52000 472.354
66.56000 426.547
66.60000 369.360
66.64000 345.584
66.68000 360.841
66.72000 339.072
66.76000 345.754
66.80000 360.324
66.84000 348.964
66.88000 355.309
66.92000 378.532
66.96000 376.689
67.00000 379.778
67.04000 386.289
67.08000 394.603
67.12000 396.851
67.16000 425.542
67.20000 424.193
67.24000 426.590
67.28000 446.925
67.32000 441.288
67.36000 427.240
67.40000 437.515
67.44000 466.197
67.48000 467.951
67.52000 496.026
67.56000 480.274
67.60000 517.567
67.64000 520.061
67.68000 529.858
67.72000 525.826
67.76000 545.965
67.80000 529.971
67.84000 563.449
67.88000 571.744
67.92000 583.454
67.96000 596.045
68.00000 618.346
68.04000 638.366
68.08000 655.562
68.12000 654.157
68.16000 652.594
68.20000 689.931
68.24000 694.308
68.28000 732.195
68.32000 769.776
68.36000 811.860
68.40000 837.226
68.44000 863.567
68.48000 945.964
68.52000 997.366
68.56000 1070.917
68.60000 1250.746
68.64000 1522.885
68.68000 1836.368
68.72000 2113.681
68.76000 2453.108
68.80000 2872.496
68.84000 3665.912
68.88000 5449.654
68.92000 10469.249
68.96000 25034.254
69.00000 50961.680
69.04000 76863.773
69.08000 89076.992
69.12000 92427.133
69.16000 94334.602
69.20000 91593.055
69.24000 78488.344
69.28000 60988.371
69.32000 49730.164
69.36000 43177.305
69.40000 34001.090
69.44000 21324.938
69.48000 10226.381
69.52000 4580.057
69.56000 2668.608
69.60000 1988.744
69.64000 1702.858
69.68000 1446.172
69.72000 1315.981
69.76000 1178.716
69.80000 1070.299
69.84000 971.398
69.88000 936.072
69.92000 908.088
69.96000 864.498
70.00000 810.472