File: XRD/XRD/17-09-2025/XY Data/BTO_Mapping_Theta2Theta_09-17-2025_001_09_-45-000_-15-000.xy
20.00000 559.615
20.04000 535.299
20.08000 553.799
20.12000 547.369
20.16000 538.838
20.20000 540.715
20.24000 547.016
20.28000 542.000
20.32000 526.385
20.36000 551.955
20.40000 556.398
20.44000 540.286
20.48000 539.519
20.52000 550.604
20.56000 545.155
20.60000 541.266
20.64000 514.168
20.68000 532.980
20.72000 551.037
20.76000 529.647
20.80000 545.883
20.84000 563.618
20.88000 543.160
20.92000 527.059
20.96000 547.922
21.00000 536.238
21.04000 536.214
21.08000 535.871
21.12000 543.014
21.16000 533.845
21.20000 523.587
21.24000 534.396
21.28000 540.335
21.32000 527.833
21.36000 552.500
21.40000 535.444
21.44000 530.605
21.48000 538.071
21.52000 514.846
21.56000 550.271
21.60000 537.869
21.64000 524.138
21.68000 529.483
21.72000 537.414
21.76000 544.555
21.80000 547.614
21.84000 537.038
21.88000 566.696
21.92000 581.718
21.96000 600.831
22.00000 602.320
22.04000 595.341
22.08000 590.907
22.12000 556.816
22.16000 561.882
22.20000 539.580
22.24000 533.526
22.28000 544.853
22.32000 538.191
22.36000 521.369
22.40000 511.366
22.44000 515.996
22.48000 517.550
22.52000 515.030
22.56000 512.350
22.60000 519.731
22.64000 516.806
22.68000 503.299
22.72000 500.497
22.76000 514.130
22.80000 498.187
22.84000 510.509
22.88000 518.399
22.92000 516.387
22.96000 494.169
23.00000 508.245
23.04000 484.442
23.08000 493.190
23.12000 495.214
23.16000 518.625
23.20000 488.412
23.24000 493.878
23.28000 486.153
23.32000 534.628
23.36000 490.109
23.40000 481.145
23.44000 493.093
23.48000 490.886
23.52000 486.099
23.56000 480.332
23.60000 474.478
23.64000 479.904
23.68000 486.745
23.72000 520.045
23.76000 497.909
23.80000 497.570
23.84000 485.207
23.88000 491.259
23.92000 482.383
23.96000 486.610
24.00000 479.629
24.04000 479.779
24.08000 479.855
24.12000 492.705
24.16000 493.957
24.20000 479.702
24.24000 482.853
24.28000 469.096
24.32000 465.330
24.36000 478.103
24.40000 487.388
24.44000 467.388
24.48000 478.506
24.52000 473.298
24.56000 464.274
24.60000 476.099
24.64000 476.413
24.68000 458.041
24.72000 476.784
24.76000 472.124
24.80000 475.422
24.84000 464.637
24.88000 480.441
24.92000 479.097
24.96000 451.238
25.00000 461.260
25.04000 450.507
25.08000 479.472
25.12000 457.887
25.16000 463.714
25.20000 445.581
25.24000 472.619
25.28000 461.931
25.32000 464.819
25.36000 465.208
25.40000 463.314
25.44000 459.357
25.48000 467.589
25.52000 448.091
25.56000 468.619
25.60000 473.671
25.64000 453.884
25.68000 434.065
25.72000 443.542
25.76000 457.280
25.80000 442.424
25.84000 455.753
25.88000 454.956
25.92000 454.331
25.96000 456.824
26.00000 449.740
26.04000 440.710
26.08000 418.235
26.12000 463.706
26.16000 448.471
26.20000 431.848
26.24000 454.206
26.28000 448.248
26.32000 447.843
26.36000 442.032
26.40000 431.717
26.44000 448.563
26.48000 434.825
26.52000 424.648
26.56000 434.583
26.60000 434.034
26.64000 419.892
26.68000 436.009
26.72000 417.655
26.76000 452.050
26.80000 433.612
26.84000 431.329
26.88000 440.224
26.92000 428.866
26.96000 424.832
27.00000 430.918
27.04000 425.886
27.08000 431.648
27.12000 425.746
27.16000 427.517
27.20000 432.114
27.24000 433.832
27.28000 440.637
27.32000 426.605
27.36000 410.654
27.40000 430.049
27.44000 418.069
27.48000 418.920
27.52000 419.622
27.56000 408.498
27.60000 404.037
27.64000 422.896
27.68000 408.739
27.72000 410.542
27.76000 408.185
27.80000 417.384
27.84000 429.371
27.88000 423.121
27.92000 422.176
27.96000 405.704
28.00000 420.193
28.04000 413.262
28.08000 395.648
28.12000 398.453
28.16000 406.434
28.20000 406.732
28.24000 412.686
28.28000 452.656
28.32000 400.543
28.36000 416.018
28.40000 409.955
28.44000 415.353
28.48000 409.156
28.52000 406.598
28.56000 412.554
28.60000 407.629
28.64000 394.287
28.68000 400.391
28.72000 401.751
28.76000 393.724
28.80000 375.722
28.84000 389.376
28.88000 393.733
28.92000 398.836
28.96000 391.392
29.00000 390.152
29.04000 395.940
29.08000 392.012
29.12000 391.059
29.16000 375.996
29.20000 408.637
29.24000 411.218
29.28000 387.538
29.32000 408.658
29.36000 396.047
29.40000 380.832
29.44000 390.731
29.48000 394.393
29.52000 376.634
29.56000 391.660
29.60000 407.258
29.64000 381.075
29.68000 374.238
29.72000 374.947
29.76000 381.657
29.80000 382.544
29.84000 392.987
29.88000 390.061
29.92000 393.497
29.96000 393.748
30.00000 390.677
30.04000 371.376
30.08000 400.497
30.12000 391.931
30.16000 379.729
30.20000 379.426
30.24000 387.735
30.28000 372.690
30.32000 384.486
30.36000 379.472
30.40000 379.558
30.44000 379.382
30.48000 386.409
30.52000 365.453
30.56000 376.233
30.60000 375.688
30.64000 379.610
30.68000 362.003
30.72000 358.368
30.76000 374.612
30.80000 378.150
30.84000 372.153
30.88000 385.309
30.92000 373.829
30.96000 374.143
31.00000 400.204
31.04000 399.283
31.08000 412.640
31.12000 459.029
31.16000 515.849
31.20000 550.225
31.24000 595.163
31.28000 612.503
31.32000 617.790
31.36000 596.193
31.40000 565.646
31.44000 543.582
31.48000 510.085
31.52000 505.443
31.56000 472.984
31.60000 437.799
31.64000 431.159
31.68000 393.073
31.72000 387.293
31.76000 369.345
31.80000 373.619
31.84000 368.615
31.88000 367.003
31.92000 367.093
31.96000 359.524
32.00000 362.070
32.04000 349.819
32.08000 357.773
32.12000 351.492
32.16000 361.466
32.20000 347.707
32.24000 358.063
32.28000 355.170
32.32000 343.058
32.36000 350.150
32.40000 336.624
32.44000 344.361
32.48000 346.426
32.52000 346.485
32.56000 346.334
32.60000 350.989
32.64000 335.216
32.68000 344.728
32.72000 327.184
32.76000 343.845
32.80000 344.900
32.84000 327.533
32.88000 336.423
32.92000 338.000
32.96000 335.721
33.00000 340.978
33.04000 340.409
33.08000 335.737
33.12000 319.726
33.16000 345.973
33.20000 338.752
33.24000 339.825
33.28000 323.212
33.32000 339.597
33.36000 320.416
33.40000 320.750
33.44000 330.291
33.48000 332.969
33.52000 331.909
33.56000 329.521
33.60000 340.196
33.64000 325.329
33.68000 324.367
33.72000 309.456
33.76000 318.935
33.80000 309.918
33.84000 311.738
33.88000 319.778
33.92000 321.230
33.96000 315.252
34.00000 321.781
34.04000 317.693
34.08000 319.804
34.12000 318.135
34.16000 318.911
34.20000 324.542
34.24000 306.593
34.28000 315.761
34.32000 316.655
34.36000 328.006
34.40000 317.468
34.44000 305.551
34.48000 332.410
34.52000 303.662
34.56000 314.609
34.60000 319.942
34.64000 305.214
34.68000 306.804
34.72000 317.448
34.76000 315.187
34.80000 309.842
34.84000 317.707
34.88000 316.471
34.92000 313.089
34.96000 319.029
35.00000 306.272
35.04000 301.149
35.08000 300.311
35.12000 328.804
35.16000 314.415
35.20000 315.160
35.24000 292.914
35.28000 300.400
35.32000 309.275
35.36000 299.755
35.40000 295.278
35.44000 299.864
35.48000 305.093
35.52000 295.935
35.56000 305.246
35.60000 305.030
35.64000 302.390
35.68000 299.871
35.72000 291.368
35.76000 308.760
35.80000 285.023
35.84000 287.666
35.88000 301.611
35.92000 301.853
35.96000 293.999
36.00000 293.882
36.04000 300.927
36.08000 296.492
36.12000 292.584
36.16000 293.429
36.20000 307.278
36.24000 295.454
36.28000 299.960
36.32000 291.090
36.36000 282.279
36.40000 289.501
36.44000 294.194
36.48000 288.392
36.52000 279.854
36.56000 303.068
36.60000 294.042
36.64000 280.127
36.68000 271.434
36.72000 285.609
36.76000 302.248
36.80000 288.552
36.84000 281.720
36.88000 290.890
36.92000 291.307
36.96000 292.437
37.00000 296.269
37.04000 294.788
37.08000 273.900
37.12000 284.975
37.16000 289.191
37.20000 279.372
37.24000 273.011
37.28000 277.196
37.32000 271.415
37.36000 291.572
37.40000 286.413
37.44000 292.792
37.48000 284.765
37.52000 270.209
37.56000 275.737
37.60000 277.815
37.64000 272.171
37.68000 262.330
37.72000 271.035
37.76000 262.019
37.80000 285.675
37.84000 257.609
37.88000 254.715
37.92000 266.235
37.96000 270.898
38.00000 282.702
38.04000 284.258
38.08000 263.057
38.12000 278.876
38.16000 264.411
38.20000 278.612
38.24000 269.212
38.28000 266.475
38.32000 260.986
38.36000 267.418
38.40000 259.269
38.44000 267.190
38.48000 260.209
38.52000 273.723
38.56000 268.128
38.60000 251.247
38.64000 274.927
38.68000 269.178
38.72000 269.137
38.76000 256.901
38.80000 265.891
38.84000 261.427
38.88000 262.887
38.92000 271.961
38.96000 250.948
39.00000 257.290
39.04000 250.259
39.08000 244.366
39.12000 255.533
39.16000 261.896
39.20000 259.138
39.24000 242.900
39.28000 257.464
39.32000 257.468
39.36000 255.095
39.40000 257.760
39.44000 242.877
39.48000 249.930
39.52000 245.970
39.56000 262.163
39.60000 247.354
39.64000 253.787
39.68000 247.894
39.72000 240.138
39.76000 270.689
39.80000 267.875
39.84000 256.397
39.88000 248.185
39.92000 253.640
39.96000 236.969
40.00000 252.934
40.04000 236.833
40.08000 255.867
40.12000 253.256
40.16000 250.701
40.20000 257.521
40.24000 252.821
40.28000 246.024
40.32000 239.655
40.36000 253.344
40.40000 244.165
40.44000 254.953
40.48000 243.467
40.52000 242.606
40.56000 239.722
40.60000 248.121
40.64000 240.876
40.68000 244.837
40.72000 247.304
40.76000 232.725
40.80000 245.338
40.84000 242.693
40.88000 245.887
40.92000 243.635
40.96000 236.831
41.00000 239.557
41.04000 239.754
41.08000 245.132
41.12000 231.891
41.16000 233.478
41.20000 226.155
41.24000 230.917
41.28000 229.301
41.32000 224.559
41.36000 226.166
41.40000 233.009
41.44000 228.406
41.48000 243.594
41.52000 222.246
41.56000 228.651
41.60000 217.502
41.64000 233.081
41.68000 229.024
41.72000 229.343
41.76000 230.401
41.80000 234.821
41.84000 228.312
41.88000 223.863
41.92000 220.452
41.96000 212.428
42.00000 224.324
42.04000 222.013
42.08000 217.690
42.12000 218.658
42.16000 243.409
42.20000 229.681
42.24000 233.194
42.28000 228.362
42.32000 221.717
42.36000 220.666
42.40000 231.338
42.44000 209.313
42.48000 216.939
42.52000 219.772
42.56000 219.934
42.60000 221.566
42.64000 216.046
42.68000 222.633
42.72000 219.525
42.76000 221.368
42.80000 218.381
42.84000 213.133
42.88000 212.204
42.92000 222.284
42.96000 223.676
43.00000 223.706
43.04000 210.524
43.08000 218.939
43.12000 222.008
43.16000 224.452
43.20000 218.928
43.24000 225.193
43.28000 223.080
43.32000 206.011
43.36000 224.907
43.40000 224.334
43.44000 222.729
43.48000 213.214
43.52000 213.120
43.56000 225.240
43.60000 210.286
43.64000 226.967
43.68000 203.357
43.72000 225.544
43.76000 217.310
43.80000 217.979
43.84000 207.810
43.88000 218.923
43.92000 208.037
43.96000 206.699
44.00000 216.722
44.04000 216.755
44.08000 197.192
44.12000 211.637
44.16000 212.359
44.20000 202.107
44.24000 210.870
44.28000 201.311
44.32000 204.882
44.36000 213.378
44.40000 206.355
44.44000 197.911
44.48000 203.160
44.52000 198.672
44.56000 195.917
44.60000 205.955
44.64000 211.508
44.68000 196.359
44.72000 212.183
44.76000 212.235
44.80000 206.845
44.84000 208.409
44.88000 208.279
44.92000 208.827
44.96000 199.335
45.00000 197.909
45.04000 195.651
45.08000 194.900
45.12000 204.660
45.16000 210.233
45.20000 204.032
45.24000 202.723
45.28000 192.059
45.32000 205.777
45.36000 206.514
45.40000 208.859
45.44000 210.719
45.48000 193.088
45.52000 188.726
45.56000 215.902
45.60000 194.522
45.64000 205.833
45.68000 204.213
45.72000 194.915
45.76000 193.035
45.80000 191.415
45.84000 204.969
45.88000 193.701
45.92000 194.420
45.96000 189.812
46.00000 192.252
46.04000 181.475
46.08000 196.634
46.12000 196.715
46.16000 205.987
46.20000 190.683
46.24000 188.082
46.28000 190.769
46.32000 189.308
46.36000 193.864
46.40000 185.277
46.44000 189.775
46.48000 182.023
46.52000 188.173
46.56000 194.394
46.60000 184.442
46.64000 184.923
46.68000 196.135
46.72000 199.236
46.76000 187.097
46.80000 194.946
46.84000 181.414
46.88000 193.856
46.92000 188.497
46.96000 191.714
47.00000 187.968
47.04000 181.225
47.08000 189.079
47.12000 189.311
47.16000 190.236
47.20000 187.060
47.24000 186.277
47.28000 182.936
47.32000 188.258
47.36000 202.462
47.40000 188.843
47.44000 183.250
47.48000 177.039
47.52000 180.817
47.56000 189.084
47.60000 181.912
47.64000 184.573
47.68000 189.106
47.72000 179.713
47.76000 170.792
47.80000 198.618
47.84000 184.529
47.88000 188.003
47.92000 174.504
47.96000 184.800
48.00000 185.415
48.04000 167.179
48.08000 179.823
48.12000 176.161
48.16000 177.155
48.20000 172.243
48.24000 167.272
48.28000 171.852
48.32000 187.352
48.36000 163.815
48.40000 174.618
48.44000 178.583
48.48000 187.925
48.52000 178.182
48.56000 175.939
48.60000 178.500
48.64000 169.914
48.68000 172.240
48.72000 166.420
48.76000 168.918
48.80000 171.501
48.84000 167.282
48.88000 176.050
48.92000 172.429
48.96000 166.276
49.00000 172.439
49.04000 175.541
49.08000 170.979
49.12000 177.384
49.16000 164.233
49.20000 172.540
49.24000 164.596
49.28000 171.820
49.32000 170.400
49.36000 180.084
49.40000 156.233
49.44000 161.247
49.48000 171.222
49.52000 173.105
49.56000 187.482
49.60000 166.180
49.64000 165.922
49.68000 166.764
49.72000 164.370
49.76000 168.617
49.80000 163.915
49.84000 158.225
49.88000 163.827
49.92000 175.370
49.96000 171.267
50.00000 165.330
50.04000 159.580
50.08000 154.471
50.12000 158.496
50.16000 163.210
50.20000 161.056
50.24000 164.969
50.28000 161.083
50.32000 165.434
50.36000 159.164
50.40000 166.536
50.44000 160.749
50.48000 160.311
50.52000 169.470
50.56000 165.384
50.60000 171.192
50.64000 170.683
50.68000 174.206
50.72000 165.016
50.76000 161.803
50.80000 164.239
50.84000 168.545
50.88000 159.548
50.92000 165.928
50.96000 163.109
51.00000 157.348
51.04000 158.530
51.08000 153.749
51.12000 155.376
51.16000 155.798
51.20000 162.308
51.24000 151.845
51.28000 162.084
51.32000 149.516
51.36000 158.371
51.40000 149.785
51.44000 155.410
51.48000 158.049
51.52000 169.880
51.56000 161.586
51.60000 164.417
51.64000 146.878
51.68000 158.336
51.72000 161.932
51.76000 155.666
51.80000 152.690
51.84000 152.558
51.88000 150.383
51.92000 166.008
51.96000 157.528
52.00000 149.763
52.04000 152.723
52.08000 158.691
52.12000 164.745
52.16000 151.283
52.20000 152.282
52.24000 147.471
52.28000 155.765
52.32000 152.780
52.36000 163.261
52.40000 151.479
52.44000 152.400
52.48000 144.147
52.52000 146.465
52.56000 153.301
52.60000 151.414
52.64000 154.844
52.68000 164.015
52.72000 144.338
52.76000 162.089
52.80000 154.855
52.84000 153.255
52.88000 148.184
52.92000 140.573
52.96000 147.671
53.00000 143.437
53.04000 148.733
53.08000 154.964
53.12000 150.137
53.16000 147.269
53.20000 143.365
53.24000 157.812
53.28000 155.957
53.32000 161.338
53.36000 153.637
53.40000 143.506
53.44000 142.725
53.48000 159.951
53.52000 162.204
53.56000 151.118
53.60000 151.118
53.64000 144.238
53.68000 149.552
53.72000 147.679
53.76000 139.880
53.80000 150.377
53.84000 143.347
53.88000 146.254
53.92000 144.331
53.96000 147.478
54.00000 136.900
54.04000 148.824
54.08000 142.183
54.12000 141.069
54.16000 142.333
54.20000 148.528
54.24000 142.443
54.28000 141.245
54.32000 141.815
54.36000 141.673
54.40000 139.913
54.44000 145.553
54.48000 140.741
54.52000 148.539
54.56000 144.964
54.60000 146.053
54.64000 145.026
54.68000 146.185
54.72000 144.550
54.76000 146.485
54.80000 146.205
54.84000 158.678
54.88000 148.104
54.92000 141.773
54.96000 129.963
55.00000 145.852
55.04000 151.258
55.08000 130.911
55.12000 137.674
55.16000 136.155
55.20000 144.125
55.24000 135.971
55.28000 142.002
55.32000 149.988
55.36000 142.973
55.40000 139.281
55.44000 140.327
55.48000 146.842
55.52000 139.444
55.56000 144.285
55.60000 144.965
55.64000 142.641
55.68000 140.263
55.72000 147.994
55.76000 133.199
55.80000 143.018
55.84000 143.053
55.88000 140.801
55.92000 142.979
55.96000 141.742
56.00000 140.058
56.04000 143.974
56.08000 145.303
56.12000 132.437
56.16000 138.909
56.20000 143.905
56.24000 141.145
56.28000 132.459
56.32000 135.958
56.36000 131.601
56.40000 137.715
56.44000 136.377
56.48000 142.450
56.52000 142.252
56.56000 132.766
56.60000 134.842
56.64000 140.067
56.68000 131.128
56.72000 138.990
56.76000 131.196
56.80000 130.297
56.84000 141.727
56.88000 133.753
56.92000 132.725
56.96000 132.656
57.00000 136.975
57.04000 130.133
57.08000 133.390
57.12000 134.495
57.16000 139.736
57.20000 137.618
57.24000 139.034
57.28000 122.976
57.32000 130.081
57.36000 137.831
57.40000 138.438
57.44000 133.336
57.48000 132.444
57.52000 139.004
57.56000 135.328
57.60000 139.611
57.64000 132.100
57.68000 128.533
57.72000 129.672
57.76000 125.156
57.80000 126.758
57.84000 138.833
57.88000 131.803
57.92000 131.183
57.96000 139.108
58.00000 135.662
58.04000 139.331
58.08000 130.275
58.12000 138.005
58.16000 133.865
58.20000 138.851
58.24000 133.032
58.28000 129.495
58.32000 124.957
58.36000 153.466
58.40000 133.824
58.44000 141.109
58.48000 134.986
58.52000 135.136
58.56000 135.290
58.60000 126.802
58.64000 128.817
58.68000 139.787
58.72000 140.653
58.76000 133.949
58.80000 128.280
58.84000 130.026
58.88000 135.347
58.92000 131.826
58.96000 127.104
59.00000 130.256
59.04000 128.520
59.08000 139.323
59.12000 123.632
59.16000 141.221
59.20000 132.863
59.24000 129.244
59.28000 134.956
59.32000 134.035
59.36000 127.961
59.40000 122.175
59.44000 132.893
59.48000 136.373
59.52000 121.009
59.56000 125.160
59.60000 125.536
59.64000 145.349
59.68000 133.066
59.72000 144.676
59.76000 129.724
59.80000 131.965
59.84000 124.688
59.88000 128.049
59.92000 135.437
59.96000 130.449
60.00000 128.813
60.04000 128.239
60.08000 132.741
60.12000 127.387
60.16000 141.727
60.20000 129.224
60.24000 126.499
60.28000 133.722
60.32000 132.902
60.36000 134.634
60.40000 127.398
60.44000 134.306
60.48000 131.183
60.52000 129.912
60.56000 128.128
60.60000 124.627
60.64000 135.621
60.68000 133.691
60.72000 134.193
60.76000 127.861
60.80000 131.788
60.84000 133.882
60.88000 137.617
60.92000 138.689
60.96000 140.345
61.00000 138.352
61.04000 143.766
61.08000 128.662
61.12000 137.888
61.16000 140.129
61.20000 130.700
61.24000 130.486
61.28000 132.936
61.32000 130.475
61.36000 142.168
61.40000 141.499
61.44000 137.461
61.48000 139.931
61.52000 159.145
61.56000 185.140
61.60000 220.504
61.64000 255.087
61.68000 251.804
61.72000 256.008
61.76000 259.296
61.80000 216.807
61.84000 174.759
61.88000 163.464
61.92000 149.627
61.96000 144.393
62.00000 136.600
62.04000 138.594
62.08000 136.013
62.12000 145.024
62.16000 149.108
62.20000 134.279
62.24000 140.530
62.28000 134.086
62.32000 133.619
62.36000 141.429
62.40000 137.193
62.44000 125.957
62.48000 137.824
62.52000 132.372
62.56000 139.073
62.60000 131.665
62.64000 136.804
62.68000 135.242
62.72000 144.480
62.76000 139.856
62.80000 146.993
62.84000 139.263
62.88000 144.625
62.92000 137.504
62.96000 138.217
63.00000 142.361
63.04000 140.943
63.08000 143.210
63.12000 146.112
63.16000 141.669
63.20000 135.975
63.24000 151.386
63.28000 146.523
63.32000 150.714
63.36000 145.264
63.40000 154.376
63.44000 156.254
63.48000 149.938
63.52000 151.869
63.56000 157.316
63.60000 152.401
63.64000 135.992
63.68000 146.292
63.72000 150.733
63.76000 152.336
63.80000 154.599
63.84000 146.858
63.88000 149.438
63.92000 151.992
63.96000 168.015
64.00000 151.724
64.04000 159.550
64.08000 159.265
64.12000 166.518
64.16000 168.786
64.20000 175.903
64.24000 160.039
64.28000 164.341
64.32000 169.518
64.36000 161.430
64.40000 163.314
64.44000 159.727
64.48000 150.915
64.52000 170.039
64.56000 167.619
64.60000 166.180
64.64000 159.711
64.68000 172.665
64.72000 168.069
64.76000 166.121
64.80000 172.237
64.84000 174.761
64.88000 180.765
64.92000 180.593
64.96000 187.954
65.00000 183.181
65.04000 177.803
65.08000 194.741
65.12000 182.738
65.16000 194.776
65.20000 200.113
65.24000 208.114
65.28000 199.460
65.32000 202.231
65.36000 202.462
65.40000 211.184
65.44000 208.794
65.48000 213.021
65.52000 229.542
65.56000 240.911
65.60000 245.270
65.64000 281.468
65.68000 315.371
65.72000 428.782
65.76000 648.239
65.80000 815.502
65.84000 892.638
65.88000 926.050
65.92000 865.654
65.96000 794.499
66.00000 578.292
66.04000 410.553
66.08000 328.377
66.12000 299.071
66.16000 299.447
66.20000 295.647
66.24000 299.358
66.28000 319.421
66.32000 373.975
66.36000 413.470
66.40000 435.956
66.44000 406.199
66.48000 419.852
66.52000 401.104
66.56000 365.438
66.60000 328.188
66.64000 315.865
66.68000 305.487
66.72000 320.446
66.76000 315.559
66.80000 328.394
66.84000 341.289
66.88000 343.289
66.92000 339.705
66.96000 345.161
67.00000 358.263
67.04000 350.879
67.08000 371.000
67.12000 381.882
67.16000 375.397
67.20000 393.985
67.24000 391.386
67.28000 393.713
67.32000 384.339
67.36000 404.869
67.40000 416.030
67.44000 419.258
67.48000 423.236
67.52000 437.100
67.56000 444.059
67.60000 452.123
67.64000 451.624
67.68000 472.825
67.72000 473.270
67.76000 488.420
67.80000 497.568
67.84000 492.364
67.88000 518.939
67.92000 522.117
67.96000 537.410
68.00000 533.699
68.04000 577.694
68.08000 560.716
68.12000 569.424
68.16000 574.810
68.20000 603.727
68.24000 631.820
68.28000 646.716
68.32000 661.800
68.36000 682.532
68.40000 718.991
68.44000 736.360
68.48000 767.640
68.52000 824.966
68.56000 899.781
68.60000 958.825
68.64000 1135.154
68.68000 1323.478
68.72000 1522.661
68.76000 1673.495
68.80000 1909.585
68.84000 2139.728
68.88000 2642.768
68.92000 4347.281
68.96000 11479.603
69.00000 27544.453
69.04000 45205.445
69.08000 53504.398
69.12000 54873.953
69.16000 56667.031
69.20000 57526.434
69.24000 50096.078
69.28000 37318.191
69.32000 29852.191
69.36000 27049.543
69.40000 22804.938
69.44000 14578.566
69.48000 6578.473
69.52000 2836.702
69.56000 1844.618
69.60000 1460.394
69.64000 1291.486
69.68000 1108.865
69.72000 1024.526
69.76000 949.970
69.80000 889.289
69.84000 825.130
69.88000 801.440
69.92000 752.219
69.96000 701.702
70.00000 685.417