File: XRD/XRD/17-09-2025/XY Data/BTO_Mapping_Theta2Theta_09-17-2025_001_12_0-000_-15-000.xy
20.00000 558.134
20.04000 567.386
20.08000 567.388
20.12000 547.432
20.16000 536.934
20.20000 553.748
20.24000 560.943
20.28000 547.255
20.32000 540.857
20.36000 557.938
20.40000 582.422
20.44000 559.081
20.48000 534.418
20.52000 555.158
20.56000 533.133
20.60000 535.011
20.64000 549.855
20.68000 550.528
20.72000 538.120
20.76000 535.331
20.80000 537.088
20.84000 523.176
20.88000 548.939
20.92000 546.080
20.96000 557.391
21.00000 544.081
21.04000 556.198
21.08000 546.653
21.12000 556.434
21.16000 552.358
21.20000 555.374
21.24000 558.091
21.28000 545.094
21.32000 542.439
21.36000 558.082
21.40000 535.729
21.44000 534.108
21.48000 552.144
21.52000 540.054
21.56000 541.072
21.60000 560.110
21.64000 552.209
21.68000 560.885
21.72000 563.198
21.76000 578.599
21.80000 608.499
21.84000 638.324
21.88000 660.659
21.92000 723.910
21.96000 768.808
22.00000 791.308
22.04000 800.804
22.08000 767.570
22.12000 774.055
22.16000 738.211
22.20000 698.308
22.24000 639.812
22.28000 623.927
22.32000 592.269
22.36000 562.507
22.40000 529.671
22.44000 554.204
22.48000 551.040
22.52000 524.592
22.56000 535.416
22.60000 520.125
22.64000 528.560
22.68000 536.581
22.72000 533.078
22.76000 530.914
22.80000 518.517
22.84000 531.777
22.88000 506.474
22.92000 510.857
22.96000 508.855
23.00000 522.149
23.04000 510.825
23.08000 506.192
23.12000 501.810
23.16000 500.532
23.20000 495.384
23.24000 496.892
23.28000 494.915
23.32000 495.442
23.36000 498.663
23.40000 495.767
23.44000 514.853
23.48000 486.041
23.52000 513.053
23.56000 491.489
23.60000 503.973
23.64000 509.993
23.68000 477.579
23.72000 490.826
23.76000 483.806
23.80000 507.773
23.84000 493.519
23.88000 486.894
23.92000 501.293
23.96000 484.340
24.00000 494.419
24.04000 470.972
24.08000 484.549
24.12000 471.296
24.16000 501.174
24.20000 476.371
24.24000 464.186
24.28000 480.679
24.32000 485.741
24.36000 502.555
24.40000 495.702
24.44000 502.869
24.48000 474.886
24.52000 466.113
24.56000 457.861
24.60000 487.650
24.64000 478.666
24.68000 491.686
24.72000 475.592
24.76000 479.421
24.80000 478.554
24.84000 471.063
24.88000 470.970
24.92000 468.696
24.96000 468.481
25.00000 467.881
25.04000 487.626
25.08000 468.122
25.12000 463.622
25.16000 474.924
25.20000 480.705
25.24000 493.080
25.28000 483.022
25.32000 465.921
25.36000 467.266
25.40000 479.956
25.44000 470.736
25.48000 455.021
25.52000 455.050
25.56000 476.570
25.60000 466.927
25.64000 472.226
25.68000 479.596
25.72000 470.901
25.76000 464.208
25.80000 472.208
25.84000 466.632
25.88000 453.478
25.92000 458.253
25.96000 470.003
26.00000 456.301
26.04000 451.134
26.08000 461.751
26.12000 461.608
26.16000 470.258
26.20000 444.137
26.24000 444.984
26.28000 461.431
26.32000 467.100
26.36000 445.686
26.40000 458.520
26.44000 445.265
26.48000 447.942
26.52000 472.055
26.56000 445.108
26.60000 444.122
26.64000 464.694
26.68000 435.486
26.72000 467.292
26.76000 448.049
26.80000 452.004
26.84000 443.311
26.88000 432.262
26.92000 447.236
26.96000 465.071
27.00000 446.602
27.04000 450.931
27.08000 445.446
27.12000 432.336
27.16000 429.064
27.20000 427.189
27.24000 452.435
27.28000 435.903
27.32000 431.160
27.36000 438.056
27.40000 448.484
27.44000 417.900
27.48000 440.723
27.52000 447.039
27.56000 428.086
27.60000 435.680
27.64000 417.631
27.68000 443.640
27.72000 441.943
27.76000 436.043
27.80000 417.197
27.84000 424.685
27.88000 440.348
27.92000 425.730
27.96000 444.572
28.00000 434.248
28.04000 433.790
28.08000 429.709
28.12000 431.292
28.16000 438.077
28.20000 436.438
28.24000 420.437
28.28000 404.955
28.32000 430.340
28.36000 423.819
28.40000 426.211
28.44000 413.047
28.48000 407.711
28.52000 425.852
28.56000 425.522
28.60000 426.791
28.64000 429.088
28.68000 420.909
28.72000 420.859
28.76000 418.377
28.80000 415.162
28.84000 409.288
28.88000 403.762
28.92000 421.725
28.96000 422.117
29.00000 418.389
29.04000 418.164
29.08000 421.164
29.12000 413.032
29.16000 417.684
29.20000 400.408
29.24000 421.546
29.28000 430.993
29.32000 407.952
29.36000 413.091
29.40000 414.451
29.44000 397.315
29.48000 401.641
29.52000 425.681
29.56000 411.319
29.60000 425.596
29.64000 412.191
29.68000 430.294
29.72000 408.611
29.76000 409.174
29.80000 424.980
29.84000 425.254
29.88000 438.216
29.92000 440.159
29.96000 440.558
30.00000 462.592
30.04000 438.911
30.08000 442.541
30.12000 443.069
30.16000 441.988
30.20000 415.453
30.24000 430.612
30.28000 423.654
30.32000 432.766
30.36000 426.759
30.40000 425.264
30.44000 429.733
30.48000 425.707
30.52000 409.454
30.56000 423.866
30.60000 438.730
30.64000 434.549
30.68000 429.655
30.72000 445.500
30.76000 461.214
30.80000 458.636
30.84000 480.037
30.88000 504.947
30.92000 526.476
30.96000 544.800
31.00000 603.128
31.04000 644.262
31.08000 802.154
31.12000 1015.333
31.16000 1313.462
31.20000 1756.625
31.24000 2303.555
31.28000 2913.497
31.32000 3427.689
31.36000 3777.195
31.40000 3824.926
31.44000 3546.867
31.48000 3072.317
31.52000 2431.133
31.56000 1797.814
31.60000 1275.680
31.64000 934.306
31.68000 713.285
31.72000 621.899
31.76000 530.945
31.80000 502.355
31.84000 468.629
31.88000 451.146
31.92000 437.316
31.96000 432.383
32.00000 432.403
32.04000 404.805
32.08000 417.921
32.12000 415.452
32.16000 412.038
32.20000 390.569
32.24000 406.436
32.28000 405.232
32.32000 398.854
32.36000 385.092
32.40000 366.390
32.44000 387.463
32.48000 384.783
32.52000 363.636
32.56000 372.282
32.60000 376.011
32.64000 359.861
32.68000 364.015
32.72000 366.534
32.76000 355.166
32.80000 349.015
32.84000 341.374
32.88000 345.741
32.92000 359.273
32.96000 346.767
33.00000 351.039
33.04000 356.488
33.08000 346.648
33.12000 365.182
33.16000 354.392
33.20000 350.738
33.24000 334.959
33.28000 343.761
33.32000 338.992
33.36000 343.656
33.40000 346.271
33.44000 355.882
33.48000 346.152
33.52000 332.367
33.56000 354.713
33.60000 341.883
33.64000 348.575
33.68000 340.081
33.72000 346.578
33.76000 333.441
33.80000 335.033
33.84000 331.087
33.88000 335.573
33.92000 318.017
33.96000 341.489
34.00000 344.063
34.04000 331.769
34.08000 329.224
34.12000 313.285
34.16000 331.728
34.20000 329.943
34.24000 313.240
34.28000 313.344
34.32000 322.258
34.36000 316.119
34.40000 328.946
34.44000 336.144
34.48000 319.422
34.52000 330.733
34.56000 328.503
34.60000 327.448
34.64000 325.831
34.68000 319.684
34.72000 323.722
34.76000 311.208
34.80000 331.446
34.84000 326.431
34.88000 319.768
34.92000 314.301
34.96000 326.385
35.00000 326.246
35.04000 302.901
35.08000 296.928
35.12000 319.748
35.16000 317.310
35.20000 309.908
35.24000 322.918
35.28000 320.342
35.32000 300.243
35.36000 304.484
35.40000 307.898
35.44000 302.007
35.48000 318.708
35.52000 300.543
35.56000 312.289
35.60000 304.472
35.64000 303.989
35.68000 297.954
35.72000 321.392
35.76000 296.834
35.80000 285.608
35.84000 303.117
35.88000 312.173
35.92000 315.109
35.96000 318.603
36.00000 306.595
36.04000 320.038
36.08000 307.428
36.12000 290.309
36.16000 308.629
36.20000 308.891
36.24000 301.778
36.28000 299.807
36.32000 286.203
36.36000 293.067
36.40000 307.068
36.44000 302.769
36.48000 289.990
36.52000 295.005
36.56000 303.538
36.60000 301.489
36.64000 286.732
36.68000 288.469
36.72000 283.537
36.76000 290.363
36.80000 291.952
36.84000 306.100
36.88000 283.293
36.92000 292.585
36.96000 302.311
37.00000 306.705
37.04000 302.596
37.08000 295.857
37.12000 291.352
37.16000 299.409
37.20000 295.918
37.24000 298.989
37.28000 298.858
37.32000 293.093
37.36000 293.702
37.40000 296.903
37.44000 304.846
37.48000 305.365
37.52000 288.844
37.56000 306.007
37.60000 274.979
37.64000 300.992
37.68000 303.566
37.72000 283.704
37.76000 294.147
37.80000 298.144
37.84000 288.904
37.88000 287.772
37.92000 280.718
37.96000 311.689
38.00000 286.841
38.04000 290.697
38.08000 287.427
38.12000 290.407
38.16000 296.711
38.20000 293.359
38.24000 302.127
38.28000 308.617
38.32000 308.058
38.36000 325.231
38.40000 370.741
38.44000 376.382
38.48000 418.256
38.52000 486.459
38.56000 568.806
38.60000 625.805
38.64000 739.281
38.68000 809.279
38.72000 813.578
38.76000 794.432
38.80000 747.031
38.84000 651.241
38.88000 563.412
38.92000 490.039
38.96000 403.720
39.00000 363.014
39.04000 333.165
39.08000 305.329
39.12000 298.132
39.16000 291.616
39.20000 281.200
39.24000 278.908
39.28000 262.311
39.32000 270.334
39.36000 289.405
39.40000 280.898
39.44000 281.149
39.48000 265.388
39.52000 266.588
39.56000 267.228
39.60000 258.121
39.64000 264.252
39.68000 255.773
39.72000 255.128
39.76000 268.750
39.80000 258.139
39.84000 248.893
39.88000 263.755
39.92000 264.853
39.96000 256.706
40.00000 264.570
40.04000 251.495
40.08000 255.799
40.12000 246.777
40.16000 263.083
40.20000 269.438
40.24000 261.142
40.28000 252.130
40.32000 260.841
40.36000 262.779
40.40000 258.231
40.44000 258.964
40.48000 255.513
40.52000 260.479
40.56000 261.903
40.60000 259.524
40.64000 236.063
40.68000 264.813
40.72000 242.380
40.76000 239.162
40.80000 247.698
40.84000 246.155
40.88000 262.349
40.92000 259.742
40.96000 244.822
41.00000 235.688
41.04000 239.403
41.08000 245.585
41.12000 250.005
41.16000 250.345
41.20000 245.558
41.24000 249.965
41.28000 244.623
41.32000 239.822
41.36000 239.787
41.40000 232.486
41.44000 245.811
41.48000 238.297
41.52000 233.443
41.56000 242.543
41.60000 237.829
41.64000 244.581
41.68000 236.949
41.72000 230.776
41.76000 236.485
41.80000 246.930
41.84000 244.657
41.88000 239.661
41.92000 238.370
41.96000 217.284
42.00000 229.138
42.04000 237.040
42.08000 235.081
42.12000 236.616
42.16000 223.850
42.20000 227.658
42.24000 249.414
42.28000 228.040
42.32000 224.792
42.36000 230.674
42.40000 220.494
42.44000 234.192
42.48000 218.443
42.52000 228.173
42.56000 218.521
42.60000 222.370
42.64000 224.743
42.68000 235.577
42.72000 229.182
42.76000 232.151
42.80000 230.486
42.84000 225.288
42.88000 220.330
42.92000 233.625
42.96000 229.747
43.00000 236.778
43.04000 218.269
43.08000 217.834
43.12000 225.694
43.16000 234.526
43.20000 222.085
43.24000 238.309
43.28000 219.492
43.32000 222.052
43.36000 239.598
43.40000 221.825
43.44000 215.964
43.48000 224.860
43.52000 228.594
43.56000 216.963
43.60000 219.259
43.64000 220.028
43.68000 223.476
43.72000 210.428
43.76000 215.028
43.80000 222.500
43.84000 217.620
43.88000 223.164
43.92000 233.271
43.96000 218.229
44.00000 210.835
44.04000 215.708
44.08000 210.509
44.12000 229.822
44.16000 225.916
44.20000 218.350
44.24000 217.815
44.28000 214.055
44.32000 235.327
44.36000 219.486
44.40000 217.580
44.44000 226.290
44.48000 225.103
44.52000 233.750
44.56000 238.838
44.60000 232.330
44.64000 238.478
44.68000 245.239
44.72000 233.079
44.76000 260.789
44.80000 277.165
44.84000 288.357
44.88000 334.980
44.92000 363.128
44.96000 397.828
45.00000 432.660
45.04000 470.552
45.08000 434.601
45.12000 453.496
45.16000 430.815
45.20000 395.854
45.24000 379.941
45.28000 343.701
45.32000 315.409
45.36000 281.702
45.40000 265.413
45.44000 262.751
45.48000 257.554
45.52000 237.575
45.56000 230.328
45.60000 228.763
45.64000 226.029
45.68000 215.741
45.72000 213.346
45.76000 207.852
45.80000 218.865
45.84000 216.493
45.88000 202.702
45.92000 210.326
45.96000 216.078
46.00000 196.544
46.04000 211.395
46.08000 193.674
46.12000 197.817
46.16000 203.723
46.20000 200.589
46.24000 207.586
46.28000 209.958
46.32000 193.431
46.36000 193.199
46.40000 203.707
46.44000 203.635
46.48000 200.388
46.52000 198.264
46.56000 193.383
46.60000 189.144
46.64000 209.376
46.68000 202.537
46.72000 198.582
46.76000 193.752
46.80000 184.706
46.84000 186.077
46.88000 193.944
46.92000 187.566
46.96000 187.910
47.00000 183.463
47.04000 188.816
47.08000 198.281
47.12000 191.070
47.16000 192.566
47.20000 194.034
47.24000 189.091
47.28000 189.755
47.32000 186.984
47.36000 180.483
47.40000 170.555
47.44000 179.797
47.48000 194.522
47.52000 189.865
47.56000 188.748
47.60000 182.240
47.64000 179.441
47.68000 173.816
47.72000 191.864
47.76000 187.511
47.80000 176.337
47.84000 180.802
47.88000 181.796
47.92000 186.419
47.96000 186.605
48.00000 176.528
48.04000 177.946
48.08000 184.120
48.12000 181.157
48.16000 179.118
48.20000 184.207
48.24000 176.523
48.28000 179.080
48.32000 185.765
48.36000 184.441
48.40000 176.329
48.44000 191.223
48.48000 175.434
48.52000 187.855
48.56000 189.420
48.60000 177.124
48.64000 173.091
48.68000 181.932
48.72000 179.666
48.76000 167.792
48.80000 174.321
48.84000 168.819
48.88000 185.806
48.92000 168.229
48.96000 172.567
49.00000 167.797
49.04000 183.652
49.08000 179.485
49.12000 170.589
49.16000 178.953
49.20000 181.718
49.24000 173.586
49.28000 178.308
49.32000 181.953
49.36000 174.389
49.40000 178.064
49.44000 187.338
49.48000 181.673
49.52000 164.736
49.56000 167.536
49.60000 175.838
49.64000 173.806
49.68000 176.310
49.72000 173.315
49.76000 183.712
49.80000 167.244
49.84000 179.394
49.88000 171.653
49.92000 172.470
49.96000 183.391
50.00000 168.391
50.04000 171.043
50.08000 181.453
50.12000 175.098
50.16000 173.371
50.20000 171.001
50.24000 177.168
50.28000 190.137
50.32000 179.145
50.36000 188.863
50.40000 207.259
50.44000 193.556
50.48000 205.991
50.52000 225.159
50.56000 231.622
50.60000 248.478
50.64000 266.370
50.68000 277.344
50.72000 277.743
50.76000 295.690
50.80000 248.549
50.84000 253.023
50.88000 242.419
50.92000 220.177
50.96000 215.439
51.00000 207.082
51.04000 190.851
51.08000 185.433
51.12000 184.268
51.16000 177.903
51.20000 158.169
51.24000 178.066
51.28000 175.237
51.32000 161.386
51.36000 162.923
51.40000 165.120
51.44000 154.400
51.48000 169.066
51.52000 163.491
51.56000 167.262
51.60000 174.538
51.64000 166.422
51.68000 163.026
51.72000 160.968
51.76000 159.806
51.80000 159.472
51.84000 169.470
51.88000 163.837
51.92000 167.029
51.96000 163.055
52.00000 153.670
52.04000 166.729
52.08000 161.243
52.12000 166.690
52.16000 172.365
52.20000 167.416
52.24000 162.749
52.28000 158.219
52.32000 155.462
52.36000 159.343
52.40000 160.245
52.44000 151.644
52.48000 158.819
52.52000 162.120
52.56000 165.138
52.60000 158.952
52.64000 163.001
52.68000 163.379
52.72000 150.629
52.76000 161.720
52.80000 155.342
52.84000 165.100
52.88000 158.471
52.92000 156.509
52.96000 155.765
53.00000 166.131
53.04000 158.723
53.08000 161.364
53.12000 153.993
53.16000 168.565
53.20000 142.797
53.24000 159.056
53.28000 159.952
53.32000 150.953
53.36000 161.783
53.40000 156.625
53.44000 159.280
53.48000 157.749
53.52000 161.848
53.56000 157.221
53.60000 154.933
53.64000 161.509
53.68000 158.728
53.72000 163.123
53.76000 155.002
53.80000 155.955
53.84000 157.946
53.88000 162.157
53.92000 165.249
53.96000 151.912
54.00000 151.118
54.04000 149.094
54.08000 151.674
54.12000 155.439
54.16000 155.056
54.20000 162.618
54.24000 153.909
54.28000 159.459
54.32000 159.691
54.36000 163.128
54.40000 144.386
54.44000 160.860
54.48000 161.189
54.52000 164.425
54.56000 155.601
54.60000 161.521
54.64000 162.488
54.68000 163.722
54.72000 151.429
54.76000 149.913
54.80000 156.036
54.84000 159.167
54.88000 157.166
54.92000 160.156
54.96000 151.104
55.00000 166.409
55.04000 156.766
55.08000 166.956
55.12000 154.373
55.16000 164.818
55.20000 160.205
55.24000 165.265
55.28000 165.281
55.32000 170.382
55.36000 176.424
55.40000 172.790
55.44000 181.254
55.48000 179.660
55.52000 200.371
55.56000 217.845
55.60000 229.835
55.64000 268.925
55.68000 313.953
55.72000 368.327
55.76000 421.340
55.80000 489.592
55.84000 580.646
55.88000 623.522
55.92000 657.940
55.96000 672.782
56.00000 651.669
56.04000 596.244
56.08000 544.526
56.12000 476.244
56.16000 405.717
56.20000 343.552
56.24000 285.880
56.28000 239.183
56.32000 226.554
56.36000 207.939
56.40000 177.646
56.44000 177.928
56.48000 178.099
56.52000 176.174
56.56000 156.877
56.60000 153.011
56.64000 159.633
56.68000 149.057
56.72000 153.313
56.76000 149.078
56.80000 137.652
56.84000 147.622
56.88000 143.935
56.92000 159.246
56.96000 145.723
57.00000 148.714
57.04000 145.931
57.08000 145.986
57.12000 146.314
57.16000 143.307
57.20000 145.266
57.24000 149.585
57.28000 155.973
57.32000 134.339
57.36000 149.392
57.40000 150.657
57.44000 145.274
57.48000 130.830
57.52000 148.131
57.56000 154.314
57.60000 151.772
57.64000 142.961
57.68000 142.037
57.72000 151.759
57.76000 141.826
57.80000 138.163
57.84000 154.253
57.88000 148.305
57.92000 137.225
57.96000 144.520
58.00000 146.390
58.04000 142.992
58.08000 137.824
58.12000 147.639
58.16000 134.594
58.20000 147.212
58.24000 132.925
58.28000 140.529
58.32000 132.451
58.36000 138.418
58.40000 139.167
58.44000 141.357
58.48000 142.089
58.52000 132.802
58.56000 132.757
58.60000 142.863
58.64000 135.454
58.68000 141.651
58.72000 136.939
58.76000 127.769
58.80000 133.188
58.84000 139.550
58.88000 146.708
58.92000 133.753
58.96000 131.921
59.00000 141.177
59.04000 128.365
59.08000 134.825
59.12000 135.950
59.16000 138.646
59.20000 129.881
59.24000 137.618
59.28000 132.008
59.32000 137.810
59.36000 135.569
59.40000 136.752
59.44000 134.241
59.48000 125.970
59.52000 135.368
59.56000 136.121
59.60000 132.659
59.64000 129.904
59.68000 130.855
59.72000 137.937
59.76000 131.214
59.80000 136.785
59.84000 137.548
59.88000 125.931
59.92000 134.037
59.96000 121.369
60.00000 132.351
60.04000 143.165
60.08000 136.369
60.12000 133.248
60.16000 122.298
60.20000 120.954
60.24000 127.716
60.28000 132.305
60.32000 145.297
60.36000 121.767
60.40000 136.650
60.44000 132.832
60.48000 130.459
60.52000 137.841
60.56000 131.669
60.60000 130.872
60.64000 133.884
60.68000 129.057
60.72000 130.178
60.76000 125.190
60.80000 127.694
60.84000 144.150
60.88000 143.029
60.92000 140.861
60.96000 138.603
61.00000 143.949
61.04000 127.544
61.08000 132.927
61.12000 143.935
61.16000 132.444
61.20000 140.220
61.24000 137.844
61.28000 138.330
61.32000 137.407
61.36000 134.667
61.40000 145.472
61.44000 132.461
61.48000 148.129
61.52000 174.347
61.56000 213.476
61.60000 272.227
61.64000 291.271
61.68000 325.993
61.72000 323.199
61.76000 291.110
61.80000 228.943
61.84000 192.204
61.88000 152.172
61.92000 145.074
61.96000 137.826
62.00000 141.386
62.04000 141.457
62.08000 153.025
62.12000 137.937
62.16000 139.534
62.20000 130.198
62.24000 145.388
62.28000 149.482
62.32000 134.437
62.36000 132.474
62.40000 144.723
62.44000 147.861
62.48000 153.865
62.52000 146.868
62.56000 144.563
62.60000 148.868
62.64000 139.729
62.68000 136.847
62.72000 151.851
62.76000 149.966
62.80000 146.344
62.84000 134.772
62.88000 142.581
62.92000 145.297
62.96000 144.982
63.00000 140.531
63.04000 144.466
63.08000 158.152
63.12000 137.898
63.16000 142.312
63.20000 142.398
63.24000 153.647
63.28000 151.316
63.32000 148.003
63.36000 147.487
63.40000 142.974
63.44000 146.166
63.48000 147.152
63.52000 133.778
63.56000 148.661
63.60000 146.875
63.64000 150.289
63.68000 153.919
63.72000 163.075
63.76000 147.026
63.80000 149.732
63.84000 163.120
63.88000 150.020
63.92000 157.836
63.96000 152.403
64.00000 156.412
64.04000 152.751
64.08000 163.206
64.12000 168.123
64.16000 146.063
64.20000 154.809
64.24000 162.916
64.28000 162.315
64.32000 163.100
64.36000 158.386
64.40000 163.116
64.44000 156.857
64.48000 170.506
64.52000 167.625
64.56000 164.217
64.60000 169.331
64.64000 172.964
64.68000 169.577
64.72000 177.723
64.76000 187.437
64.80000 178.716
64.84000 175.943
64.88000 190.697
64.92000 182.892
64.96000 183.822
65.00000 182.596
65.04000 203.415
65.08000 205.571
65.12000 217.744
65.16000 236.042
65.20000 247.803
65.24000 245.670
65.28000 270.622
65.32000 304.523
65.36000 325.937
65.40000 342.628
65.44000 381.708
65.48000 410.192
65.52000 439.050
65.56000 457.644
65.60000 489.340
65.64000 511.673
65.68000 577.944
65.72000 760.768
65.76000 984.101
65.80000 1177.727
65.84000 1286.099
65.88000 1309.230
65.92000 1212.985
65.96000 1024.138
66.00000 707.531
66.04000 479.280
66.08000 354.126
66.12000 333.618
66.16000 319.635
66.20000 329.479
66.24000 322.426
66.28000 383.581
66.32000 422.450
66.36000 470.366
66.40000 488.674
66.44000 490.404
66.48000 473.932
66.52000 443.396
66.56000 391.584
66.60000 339.008
66.64000 322.929
66.68000 326.378
66.72000 345.719
66.76000 319.599
66.80000 338.954
66.84000 333.019
66.88000 342.627
66.92000 361.834
66.96000 360.163
67.00000 358.805
67.04000 382.446
67.08000 380.266
67.12000 381.621
67.16000 393.084
67.20000 395.163
67.24000 372.471
67.28000 414.897
67.32000 427.319
67.36000 412.090
67.40000 430.480
67.44000 433.638
67.48000 456.472
67.52000 466.689
67.56000 457.041
67.60000 445.109
67.64000 479.125
67.68000 493.185
67.72000 490.299
67.76000 495.763
67.80000 530.253
67.84000 538.958
67.88000 536.719
67.92000 540.863
67.96000 545.007
68.00000 578.064
68.04000 581.207
68.08000 582.644
68.12000 611.007
68.16000 618.943
68.20000 642.850
68.24000 681.966
68.28000 684.540
68.32000 726.536
68.36000 722.868
68.40000 747.191
68.44000 789.994
68.48000 836.037
68.52000 892.100
68.56000 964.468
68.60000 1089.517
68.64000 1306.666
68.68000 1536.844
68.72000 1852.558
68.76000 2083.780
68.80000 2398.877
68.84000 2882.223
68.88000 3930.078
68.92000 7498.284
68.96000 19368.957
69.00000 41794.059
69.04000 63404.430
69.08000 73948.883
69.12000 75710.336
69.16000 78316.133
69.20000 76936.313
69.24000 63540.820
69.28000 49144.094
69.32000 40115.063
69.36000 35871.367
69.40000 28675.918
69.44000 16739.141
69.48000 7842.775
69.52000 3412.855
69.56000 2135.615
69.60000 1680.058
69.64000 1437.792
69.68000 1281.418
69.72000 1126.878
69.76000 1015.739
69.80000 932.619
69.84000 863.703
69.88000 846.175
69.92000 814.822
69.96000 773.380
70.00000 748.096