File: XRD/XRD/17-09-2025/XY Data/BTO_Mapping_Theta2Theta_09-17-2025_001_25_-15-000_15-000.xy
20.00000 544.201
20.04000 562.381
20.08000 539.021
20.12000 576.649
20.16000 551.447
20.20000 571.671
20.24000 557.020
20.28000 555.104
20.32000 547.593
20.36000 561.875
20.40000 561.207
20.44000 532.202
20.48000 555.674
20.52000 556.502
20.56000 552.837
20.60000 564.067
20.64000 559.333
20.68000 580.386
20.72000 574.770
20.76000 536.726
20.80000 541.601
20.84000 542.577
20.88000 534.442
20.92000 544.640
20.96000 552.638
21.00000 541.870
21.04000 541.485
21.08000 562.639
21.12000 550.089
21.16000 536.948
21.20000 551.301
21.24000 558.951
21.28000 554.474
21.32000 554.090
21.36000 555.448
21.40000 544.376
21.44000 567.857
21.48000 556.882
21.52000 520.340
21.56000 554.856
21.60000 535.862
21.64000 571.789
21.68000 560.638
21.72000 578.241
21.76000 590.587
21.80000 638.625
21.84000 682.940
21.88000 697.830
21.92000 779.298
21.96000 834.559
22.00000 853.313
22.04000 896.767
22.08000 890.709
22.12000 813.914
22.16000 778.443
22.20000 679.240
22.24000 645.863
22.28000 609.151
22.32000 592.200
22.36000 543.787
22.40000 571.848
22.44000 564.909
22.48000 565.318
22.52000 538.801
22.56000 520.619
22.60000 516.000
22.64000 522.857
22.68000 520.272
22.72000 519.253
22.76000 514.987
22.80000 532.405
22.84000 519.313
22.88000 515.751
22.92000 517.296
22.96000 502.566
23.00000 532.587
23.04000 506.836
23.08000 511.162
23.12000 522.870
23.16000 516.854
23.20000 525.765
23.24000 511.377
23.28000 511.124
23.32000 502.496
23.36000 496.569
23.40000 495.199
23.44000 497.142
23.48000 500.594
23.52000 503.251
23.56000 504.027
23.60000 500.276
23.64000 496.102
23.68000 503.687
23.72000 494.647
23.76000 491.335
23.80000 478.998
23.84000 513.486
23.88000 492.713
23.92000 507.567
23.96000 474.011
24.00000 484.270
24.04000 478.813
24.08000 492.315
24.12000 506.250
24.16000 489.316
24.20000 464.862
24.24000 493.180
24.28000 494.642
24.32000 483.193
24.36000 485.693
24.40000 497.094
24.44000 483.974
24.48000 489.312
24.52000 473.197
24.56000 481.724
24.60000 482.239
24.64000 473.821
24.68000 477.061
24.72000 469.344
24.76000 473.231
24.80000 487.652
24.84000 483.708
24.88000 467.659
24.92000 464.335
24.96000 475.994
25.00000 472.694
25.04000 482.577
25.08000 474.209
25.12000 488.041
25.16000 458.588
25.20000 490.908
25.24000 476.438
25.28000 478.517
25.32000 475.904
25.36000 462.297
25.40000 449.712
25.44000 459.829
25.48000 466.574
25.52000 453.403
25.56000 457.050
25.60000 465.517
25.64000 487.256
25.68000 474.522
25.72000 456.375
25.76000 466.133
25.80000 465.311
25.84000 465.474
25.88000 464.435
25.92000 466.004
25.96000 452.729
26.00000 464.737
26.04000 461.686
26.08000 442.989
26.12000 466.353
26.16000 454.345
26.20000 455.536
26.24000 468.109
26.28000 471.793
26.32000 464.792
26.36000 455.303
26.40000 482.349
26.44000 450.317
26.48000 446.523
26.52000 451.584
26.56000 452.677
26.60000 454.767
26.64000 454.680
26.68000 447.391
26.72000 454.601
26.76000 454.871
26.80000 456.765
26.84000 459.383
26.88000 450.867
26.92000 453.229
26.96000 446.347
27.00000 445.535
27.04000 444.843
27.08000 447.844
27.12000 447.492
27.16000 444.331
27.20000 439.081
27.24000 457.016
27.28000 440.255
27.32000 467.671
27.36000 438.078
27.40000 446.576
27.44000 435.504
27.48000 446.064
27.52000 435.279
27.56000 440.254
27.60000 444.017
27.64000 447.133
27.68000 416.299
27.72000 435.243
27.76000 444.647
27.80000 435.703
27.84000 429.357
27.88000 428.454
27.92000 422.971
27.96000 426.880
28.00000 403.031
28.04000 416.832
28.08000 449.253
28.12000 432.799
28.16000 443.111
28.20000 430.901
28.24000 429.347
28.28000 437.746
28.32000 440.263
28.36000 440.489
28.40000 425.353
28.44000 426.677
28.48000 427.769
28.52000 431.454
28.56000 428.636
28.60000 426.046
28.64000 436.891
28.68000 420.019
28.72000 429.002
28.76000 437.529
28.80000 410.462
28.84000 424.581
28.88000 411.391
28.92000 419.206
28.96000 407.962
29.00000 430.523
29.04000 418.322
29.08000 415.379
29.12000 404.572
29.16000 418.409
29.20000 414.197
29.24000 417.271
29.28000 409.435
29.32000 411.647
29.36000 424.743
29.40000 421.281
29.44000 419.217
29.48000 424.797
29.52000 433.107
29.56000 423.886
29.60000 393.522
29.64000 401.174
29.68000 424.856
29.72000 425.504
29.76000 420.344
29.80000 436.148
29.84000 416.768
29.88000 438.776
29.92000 449.118
29.96000 461.078
30.00000 457.477
30.04000 454.059
30.08000 467.836
30.12000 452.748
30.16000 434.067
30.20000 454.210
30.24000 453.223
30.28000 436.160
30.32000 436.725
30.36000 419.602
30.40000 433.320
30.44000 437.229
30.48000 431.609
30.52000 434.855
30.56000 442.338
30.60000 441.645
30.64000 460.184
30.68000 440.340
30.72000 459.879
30.76000 459.785
30.80000 494.351
30.84000 488.848
30.88000 499.951
30.92000 520.816
30.96000 565.291
31.00000 589.832
31.04000 691.457
31.08000 848.168
31.12000 1110.702
31.16000 1483.489
31.20000 2000.055
31.24000 2611.016
31.28000 3258.618
31.32000 3702.129
31.36000 3954.235
31.40000 3878.717
31.44000 3526.254
31.48000 2927.066
31.52000 2245.457
31.56000 1650.863
31.60000 1195.336
31.64000 876.364
31.68000 688.231
31.72000 586.586
31.76000 520.731
31.80000 500.163
31.84000 468.470
31.88000 459.325
31.92000 456.035
31.96000 435.413
32.00000 431.686
32.04000 415.867
32.08000 414.933
32.12000 418.882
32.16000 394.682
32.20000 382.735
32.24000 405.739
32.28000 398.132
32.32000 396.465
32.36000 402.044
32.40000 395.891
32.44000 380.822
32.48000 377.933
32.52000 394.153
32.56000 387.888
32.60000 395.577
32.64000 379.848
32.68000 373.228
32.72000 359.913
32.76000 357.483
32.80000 372.361
32.84000 371.214
32.88000 375.601
32.92000 372.894
32.96000 355.082
33.00000 335.014
33.04000 349.743
33.08000 362.182
33.12000 352.469
33.16000 346.052
33.20000 347.996
33.24000 350.412
33.28000 344.153
33.32000 330.317
33.36000 343.771
33.40000 348.633
33.44000 368.783
33.48000 355.245
33.52000 346.418
33.56000 343.918
33.60000 355.629
33.64000 346.576
33.68000 341.955
33.72000 346.366
33.76000 337.392
33.80000 343.326
33.84000 328.087
33.88000 337.816
33.92000 347.715
33.96000 344.308
34.00000 340.765
34.04000 343.608
34.08000 328.028
34.12000 318.937
34.16000 336.739
34.20000 335.398
34.24000 335.873
34.28000 341.174
34.32000 332.643
34.36000 343.035
34.40000 327.848
34.44000 325.184
34.48000 335.276
34.52000 330.440
34.56000 319.155
34.60000 316.619
34.64000 336.060
34.68000 315.600
34.72000 325.058
34.76000 349.390
34.80000 330.566
34.84000 327.029
34.88000 334.254
34.92000 323.196
34.96000 313.032
35.00000 319.870
35.04000 318.807
35.08000 312.298
35.12000 310.654
35.16000 319.765
35.20000 308.540
35.24000 307.614
35.28000 326.441
35.32000 335.147
35.36000 303.690
35.40000 316.043
35.44000 321.080
35.48000 307.949
35.52000 287.855
35.56000 300.437
35.60000 295.075
35.64000 313.332
35.68000 315.639
35.72000 310.845
35.76000 304.248
35.80000 301.610
35.84000 310.958
35.88000 316.749
35.92000 301.102
35.96000 303.259
36.00000 293.847
36.04000 303.242
36.08000 303.694
36.12000 305.589
36.16000 310.450
36.20000 296.369
36.24000 320.655
36.28000 299.166
36.32000 298.242
36.36000 300.654
36.40000 308.563
36.44000 295.009
36.48000 296.376
36.52000 300.251
36.56000 294.272
36.60000 307.439
36.64000 302.089
36.68000 291.179
36.72000 296.446
36.76000 291.772
36.80000 308.373
36.84000 286.266
36.88000 297.297
36.92000 293.059
36.96000 288.658
37.00000 293.662
37.04000 315.927
37.08000 300.409
37.12000 308.384
37.16000 301.267
37.20000 291.890
37.24000 299.111
37.28000 296.352
37.32000 285.964
37.36000 303.799
37.40000 283.303
37.44000 284.427
37.48000 289.281
37.52000 302.796
37.56000 297.478
37.60000 289.660
37.64000 295.461
37.68000 291.739
37.72000 279.114
37.76000 288.475
37.80000 298.499
37.84000 292.518
37.88000 306.107
37.92000 300.572
37.96000 283.678
38.00000 289.755
38.04000 289.431
38.08000 301.947
38.12000 289.634
38.16000 293.506
38.20000 307.107
38.24000 311.198
38.28000 305.533
38.32000 326.205
38.36000 323.696
38.40000 342.389
38.44000 372.130
38.48000 414.601
38.52000 472.366
38.56000 507.383
38.60000 583.350
38.64000 630.328
38.68000 665.160
38.72000 659.821
38.76000 620.147
38.80000 568.942
38.84000 493.131
38.88000 453.889
38.92000 403.653
38.96000 366.132
39.00000 318.619
39.04000 314.921
39.08000 300.529
39.12000 306.776
39.16000 283.629
39.20000 294.188
39.24000 272.005
39.28000 268.193
39.32000 290.853
39.36000 251.109
39.40000 271.392
39.44000 279.173
39.48000 268.663
39.52000 270.268
39.56000 256.162
39.60000 257.730
39.64000 272.614
39.68000 259.786
39.72000 265.035
39.76000 259.936
39.80000 274.241
39.84000 269.133
39.88000 267.725
39.92000 259.044
39.96000 247.641
40.00000 274.620
40.04000 245.609
40.08000 240.284
40.12000 253.211
40.16000 253.571
40.20000 257.085
40.24000 251.556
40.28000 253.398
40.32000 250.891
40.36000 254.898
40.40000 266.581
40.44000 256.803
40.48000 262.332
40.52000 250.493
40.56000 250.958
40.60000 235.189
40.64000 255.324
40.68000 246.421
40.72000 258.245
40.76000 263.168
40.80000 248.889
40.84000 239.024
40.88000 240.201
40.92000 250.895
40.96000 232.433
41.00000 259.297
41.04000 246.164
41.08000 265.237
41.12000 244.648
41.16000 248.783
41.20000 247.953
41.24000 248.587
41.28000 242.093
41.32000 244.578
41.36000 246.396
41.40000 244.470
41.44000 246.624
41.48000 232.574
41.52000 250.072
41.56000 234.752
41.60000 236.223
41.64000 236.426
41.68000 239.436
41.72000 234.880
41.76000 232.996
41.80000 236.518
41.84000 233.253
41.88000 247.085
41.92000 233.888
41.96000 235.186
42.00000 238.788
42.04000 223.028
42.08000 242.285
42.12000 235.298
42.16000 239.026
42.20000 240.482
42.24000 240.807
42.28000 238.854
42.32000 234.979
42.36000 231.881
42.40000 237.142
42.44000 227.459
42.48000 236.284
42.52000 226.417
42.56000 225.407
42.60000 220.737
42.64000 213.649
42.68000 227.682
42.72000 230.318
42.76000 233.678
42.80000 229.859
42.84000 232.302
42.88000 231.637
42.92000 231.562
42.96000 233.555
43.00000 232.286
43.04000 218.157
43.08000 232.692
43.12000 227.954
43.16000 228.009
43.20000 220.877
43.24000 234.153
43.28000 227.461
43.32000 223.318
43.36000 236.324
43.40000 228.407
43.44000 217.118
43.48000 225.471
43.52000 222.181
43.56000 233.837
43.60000 229.579
43.64000 221.176
43.68000 199.188
43.72000 237.314
43.76000 223.477
43.80000 225.120
43.84000 223.866
43.88000 228.241
43.92000 223.577
43.96000 226.627
44.00000 222.918
44.04000 219.813
44.08000 217.818
44.12000 228.905
44.16000 221.886
44.20000 216.566
44.24000 227.393
44.28000 216.392
44.32000 223.267
44.36000 212.652
44.40000 229.380
44.44000 234.869
44.48000 223.475
44.52000 232.823
44.56000 240.225
44.60000 258.963
44.64000 248.542
44.68000 273.174
44.72000 278.496
44.76000 285.880
44.80000 304.866
44.84000 352.308
44.88000 407.662
44.92000 455.375
44.96000 484.031
45.00000 524.931
45.04000 512.970
45.08000 508.420
45.12000 484.196
45.16000 463.188
45.20000 413.122
45.24000 382.611
45.28000 328.720
45.32000 298.470
45.36000 262.430
45.40000 262.835
45.44000 265.967
45.48000 252.268
45.52000 249.538
45.56000 221.264
45.60000 228.520
45.64000 241.954
45.68000 218.397
45.72000 224.487
45.76000 224.841
45.80000 216.257
45.84000 220.707
45.88000 212.751
45.92000 210.471
45.96000 218.114
46.00000 204.137
46.04000 206.965
46.08000 199.710
46.12000 207.923
46.16000 193.151
46.20000 203.828
46.24000 197.402
46.28000 214.357
46.32000 199.365
46.36000 198.803
46.40000 202.752
46.44000 206.743
46.48000 195.436
46.52000 198.395
46.56000 198.426
46.60000 202.620
46.64000 200.363
46.68000 199.814
46.72000 205.366
46.76000 190.254
46.80000 199.496
46.84000 196.746
46.88000 197.697
46.92000 189.863
46.96000 191.842
47.00000 190.026
47.04000 190.958
47.08000 191.517
47.12000 190.705
47.16000 201.368
47.20000 187.831
47.24000 186.540
47.28000 189.179
47.32000 184.167
47.36000 183.851
47.40000 187.153
47.44000 178.167
47.48000 192.821
47.52000 196.338
47.56000 191.495
47.60000 192.106
47.64000 186.265
47.68000 197.146
47.72000 190.765
47.76000 185.324
47.80000 176.305
47.84000 183.941
47.88000 185.938
47.92000 183.287
47.96000 177.806
48.00000 190.043
48.04000 179.835
48.08000 175.572
48.12000 175.385
48.16000 176.150
48.20000 188.226
48.24000 188.272
48.28000 190.454
48.32000 184.801
48.36000 194.380
48.40000 188.055
48.44000 176.554
48.48000 184.882
48.52000 189.634
48.56000 183.902
48.60000 183.321
48.64000 192.467
48.68000 183.386
48.72000 172.823
48.76000 177.143
48.80000 181.618
48.84000 177.984
48.88000 186.184
48.92000 178.196
48.96000 178.003
49.00000 186.912
49.04000 188.162
49.08000 173.683
49.12000 179.236
49.16000 183.749
49.20000 187.037
49.24000 181.147
49.28000 185.951
49.32000 181.444
49.36000 179.639
49.40000 189.307
49.44000 179.669
49.48000 176.424
49.52000 184.237
49.56000 190.276
49.60000 173.328
49.64000 183.943
49.68000 168.206
49.72000 181.618
49.76000 168.748
49.80000 172.013
49.84000 173.333
49.88000 183.002
49.92000 182.452
49.96000 170.061
50.00000 187.559
50.04000 174.652
50.08000 182.551
50.12000 186.492
50.16000 178.377
50.20000 196.304
50.24000 184.436
50.28000 190.902
50.32000 200.931
50.36000 194.689
50.40000 204.359
50.44000 222.932
50.48000 237.137
50.52000 260.528
50.56000 263.662
50.60000 287.017
50.64000 291.184
50.68000 295.645
50.72000 295.183
50.76000 273.338
50.80000 257.036
50.84000 252.747
50.88000 227.551
50.92000 212.558
50.96000 212.976
51.00000 195.298
51.04000 194.777
51.08000 186.889
51.12000 190.925
51.16000 171.707
51.20000 171.950
51.24000 178.686
51.28000 185.747
51.32000 161.690
51.36000 177.728
51.40000 174.108
51.44000 169.252
51.48000 173.090
51.52000 160.499
51.56000 167.808
51.60000 172.373
51.64000 151.424
51.68000 161.490
51.72000 170.476
51.76000 163.548
51.80000 150.527
51.84000 156.179
51.88000 156.525
51.92000 172.753
51.96000 162.698
52.00000 170.822
52.04000 161.489
52.08000 157.074
52.12000 153.609
52.16000 167.469
52.20000 154.632
52.24000 160.344
52.28000 153.534
52.32000 160.549
52.36000 161.647
52.40000 167.331
52.44000 160.677
52.48000 158.298
52.52000 165.184
52.56000 156.062
52.60000 165.814
52.64000 162.718
52.68000 172.568
52.72000 154.821
52.76000 161.547
52.80000 165.863
52.84000 162.060
52.88000 152.158
52.92000 152.276
52.96000 156.770
53.00000 168.348
53.04000 165.832
53.08000 164.452
53.12000 156.800
53.16000 165.085
53.20000 150.412
53.24000 171.939
53.28000 156.807
53.32000 160.459
53.36000 171.617
53.40000 174.613
53.44000 153.034
53.48000 158.626
53.52000 161.630
53.56000 160.098
53.60000 161.252
53.64000 171.142
53.68000 165.150
53.72000 159.166
53.76000 159.370
53.80000 163.063
53.84000 160.759
53.88000 154.402
53.92000 166.708
53.96000 151.518
54.00000 156.577
54.04000 148.607
54.08000 154.967
54.12000 162.813
54.16000 145.922
54.20000 165.161
54.24000 154.663
54.28000 152.245
54.32000 161.537
54.36000 145.775
54.40000 162.903
54.44000 152.174
54.48000 151.074
54.52000 150.799
54.56000 157.649
54.60000 157.242
54.64000 144.093
54.68000 154.600
54.72000 156.755
54.76000 156.561
54.80000 161.910
54.84000 154.734
54.88000 170.414
54.92000 166.432
54.96000 170.977
55.00000 157.074
55.04000 163.039
55.08000 167.608
55.12000 163.447
55.16000 159.470
55.20000 156.575
55.24000 160.099
55.28000 170.569
55.32000 166.825
55.36000 168.003
55.40000 183.074
55.44000 185.128
55.48000 192.098
55.52000 207.027
55.56000 233.232
55.60000 266.424
55.64000 287.576
55.68000 355.367
55.72000 417.674
55.76000 486.674
55.80000 571.790
55.84000 614.515
55.88000 622.838
55.92000 653.495
55.96000 627.244
56.00000 594.700
56.04000 540.292
56.08000 476.847
56.12000 396.996
56.16000 325.070
56.20000 300.481
56.24000 253.219
56.28000 216.157
56.32000 210.091
56.36000 195.693
56.40000 188.960
56.44000 178.382
56.48000 182.114
56.52000 155.865
56.56000 160.720
56.60000 157.993
56.64000 148.881
56.68000 158.343
56.72000 160.235
56.76000 150.097
56.80000 150.751
56.84000 153.649
56.88000 147.635
56.92000 151.956
56.96000 148.912
57.00000 163.670
57.04000 147.864
57.08000 141.229
57.12000 142.796
57.16000 150.035
57.20000 150.016
57.24000 141.350
57.28000 154.042
57.32000 145.383
57.36000 145.187
57.40000 149.859
57.44000 140.829
57.48000 147.228
57.52000 143.715
57.56000 154.588
57.60000 149.828
57.64000 143.018
57.68000 148.514
57.72000 134.900
57.76000 139.661
57.80000 136.636
57.84000 143.412
57.88000 144.495
57.92000 149.967
57.96000 133.530
58.00000 139.877
58.04000 147.683
58.08000 139.749
58.12000 140.774
58.16000 142.654
58.20000 146.432
58.24000 145.079
58.28000 139.481
58.32000 145.344
58.36000 143.497
58.40000 137.611
58.44000 132.507
58.48000 140.336
58.52000 137.124
58.56000 145.617
58.60000 138.253
58.64000 139.862
58.68000 137.556
58.72000 140.601
58.76000 130.729
58.80000 141.789
58.84000 139.139
58.88000 125.131
58.92000 141.546
58.96000 136.415
59.00000 127.903
59.04000 134.825
59.08000 141.045
59.12000 143.435
59.16000 140.504
59.20000 143.447
59.24000 133.333
59.28000 136.774
59.32000 137.752
59.36000 141.943
59.40000 132.389
59.44000 140.372
59.48000 136.189
59.52000 128.595
59.56000 137.445
59.60000 135.098
59.64000 128.575
59.68000 128.949
59.72000 131.246
59.76000 126.032
59.80000 120.689
59.84000 130.365
59.88000 142.720
59.92000 131.780
59.96000 125.139
60.00000 135.342
60.04000 132.602
60.08000 131.250
60.12000 143.002
60.16000 134.591
60.20000 127.495
60.24000 133.808
60.28000 127.872
60.32000 136.779
60.36000 134.038
60.40000 134.344
60.44000 133.537
60.48000 125.576
60.52000 127.275
60.56000 126.434
60.60000 126.675
60.64000 130.417
60.68000 136.462
60.72000 145.874
60.76000 131.053
60.80000 141.513
60.84000 125.728
60.88000 135.937
60.92000 130.358
60.96000 132.146
61.00000 130.066
61.04000 137.296
61.08000 140.887
61.12000 145.237
61.16000 139.776
61.20000 136.410
61.24000 135.241
61.28000 139.479
61.32000 141.896
61.36000 140.783
61.40000 141.737
61.44000 153.468
61.48000 154.275
61.52000 184.755
61.56000 227.714
61.60000 289.968
61.64000 333.100
61.68000 331.755
61.72000 334.331
61.76000 322.436
61.80000 252.118
61.84000 194.513
61.88000 167.206
61.92000 152.548
61.96000 138.685
62.00000 137.958
62.04000 139.910
62.08000 139.441
62.12000 151.294
62.16000 142.681
62.20000 137.844
62.24000 148.002
62.28000 141.412
62.32000 158.070
62.36000 173.630
62.40000 151.790
62.44000 151.556
62.48000 139.802
62.52000 148.284
62.56000 140.535
62.60000 134.227
62.64000 150.064
62.68000 153.041
62.72000 150.588
62.76000 149.562
62.80000 143.086
62.84000 151.118
62.88000 149.442
62.92000 132.951
62.96000 150.933
63.00000 145.865
63.04000 157.698
63.08000 161.391
63.12000 139.078
63.16000 148.723
63.20000 132.399
63.24000 151.126
63.28000 141.173
63.32000 160.668
63.36000 148.122
63.40000 147.851
63.44000 147.613
63.48000 152.250
63.52000 148.471
63.56000 147.770
63.60000 155.545
63.64000 142.514
63.68000 155.428
63.72000 160.227
63.76000 154.246
63.80000 151.516
63.84000 155.682
63.88000 166.531
63.92000 152.099
63.96000 160.813
64.00000 160.667
64.04000 164.903
64.08000 158.739
64.12000 162.181
64.16000 162.720
64.20000 153.857
64.24000 160.024
64.28000 160.337
64.32000 166.795
64.36000 159.177
64.40000 165.140
64.44000 185.054
64.48000 166.969
64.52000 155.152
64.56000 169.344
64.60000 165.540
64.64000 170.004
64.68000 169.158
64.72000 174.855
64.76000 185.226
64.80000 187.487
64.84000 187.045
64.88000 186.850
64.92000 188.263
64.96000 202.824
65.00000 202.190
65.04000 202.929
65.08000 217.635
65.12000 220.308
65.16000 238.764
65.20000 256.257
65.24000 275.626
65.28000 291.210
65.32000 319.096
65.36000 347.623
65.40000 379.301
65.44000 418.557
65.48000 455.306
65.52000 475.183
65.56000 474.035
65.60000 492.151
65.64000 519.407
65.68000 594.156
65.72000 758.533
65.76000 1037.151
65.80000 1276.073
65.84000 1335.261
65.88000 1355.156
65.92000 1298.852
65.96000 1072.735
66.00000 752.560
66.04000 508.443
66.08000 396.056
66.12000 345.749
66.16000 323.250
66.20000 333.826
66.24000 342.489
66.28000 393.968
66.32000 449.597
66.36000 473.660
66.40000 500.668
66.44000 525.300
66.48000 498.845
66.52000 446.644
66.56000 394.752
66.60000 352.551
66.64000 357.151
66.68000 328.617
66.72000 333.175
66.76000 349.967
66.80000 344.309
66.84000 360.321
66.88000 351.151
66.92000 358.639
66.96000 367.820
67.00000 373.016
67.04000 404.064
67.08000 365.820
67.12000 380.270
67.16000 419.333
67.20000 409.906
67.24000 409.832
67.28000 426.636
67.32000 446.043
67.36000 414.871
67.40000 437.480
67.44000 444.498
67.48000 462.588
67.52000 458.223
67.56000 481.358
67.60000 502.837
67.64000 486.535
67.68000 500.305
67.72000 516.461
67.76000 530.000
67.80000 537.284
67.84000 541.911
67.88000 548.800
67.92000 561.379
67.96000 562.001
68.00000 585.992
68.04000 603.256
68.08000 622.065
68.12000 632.257
68.16000 630.914
68.20000 665.666
68.24000 679.178
68.28000 688.914
68.32000 731.660
68.36000 747.811
68.40000 755.648
68.44000 818.381
68.48000 859.520
68.52000 947.124
68.56000 1002.613
68.60000 1140.294
68.64000 1381.277
68.68000 1683.961
68.72000 1942.649
68.76000 2234.250
68.80000 2595.083
68.84000 3131.505
68.88000 4380.881
68.92000 8403.320
68.96000 21082.824
69.00000 44766.641
69.04000 68199.844
69.08000 80098.477
69.12000 82351.961
69.16000 85325.336
69.20000 83672.773
69.24000 69499.125
69.28000 54342.367
69.32000 44271.848
69.36000 39146.273
69.40000 31236.334
69.44000 18744.738
69.48000 8909.433
69.52000 3861.372
69.56000 2370.648
69.60000 1816.583
69.64000 1539.620
69.68000 1316.292
69.72000 1155.427
69.76000 1077.775
69.80000 1012.335
69.84000 935.368
69.88000 896.789
69.92000 845.182
69.96000 811.045
70.00000 784.842