File: XRD/XRD/17-09-2025/XY Data/BTO_Mapping_Theta2Theta_09-17-2025_001_03_15-000_-45-000.xy
20.00000 562.743
20.04000 559.617
20.08000 550.548
20.12000 559.559
20.16000 547.379
20.20000 543.417
20.24000 553.693
20.28000 558.691
20.32000 558.639
20.36000 540.128
20.40000 540.096
20.44000 549.865
20.48000 527.799
20.52000 558.483
20.56000 553.290
20.60000 551.381
20.64000 561.182
20.68000 539.909
20.72000 577.472
20.76000 541.232
20.80000 553.459
20.84000 537.233
20.88000 555.581
20.92000 533.487
20.96000 560.271
21.00000 536.616
21.04000 526.870
21.08000 522.161
21.12000 539.963
21.16000 532.835
21.20000 543.093
21.24000 547.778
21.28000 549.403
21.32000 537.691
21.36000 551.687
21.40000 532.704
21.44000 550.013
21.48000 555.813
21.52000 536.347
21.56000 529.249
21.60000 535.089
21.64000 548.395
21.68000 565.942
21.72000 562.274
21.76000 555.239
21.80000 565.561
21.84000 569.714
21.88000 595.040
21.92000 603.809
21.96000 621.819
22.00000 645.871
22.04000 637.769
22.08000 676.612
22.12000 651.893
22.16000 630.944
22.20000 622.957
22.24000 617.193
22.28000 595.808
22.32000 596.740
22.36000 566.586
22.40000 567.334
22.44000 542.017
22.48000 554.205
22.52000 538.678
22.56000 530.267
22.60000 524.645
22.64000 525.630
22.68000 516.283
22.72000 502.468
22.76000 512.733
22.80000 521.489
22.84000 522.571
22.88000 500.311
22.92000 501.277
22.96000 490.449
23.00000 493.778
23.04000 503.457
23.08000 526.667
23.12000 525.671
23.16000 499.034
23.20000 517.411
23.24000 520.419
23.28000 490.399
23.32000 510.293
23.36000 499.264
23.40000 475.047
23.44000 491.462
23.48000 498.725
23.52000 480.645
23.56000 502.612
23.60000 505.213
23.64000 494.054
23.68000 487.958
23.72000 493.394
23.76000 524.476
23.80000 486.032
23.84000 498.125
23.88000 502.909
23.92000 509.339
23.96000 512.225
24.00000 481.275
24.04000 500.212
24.08000 485.209
24.12000 506.095
24.16000 503.800
24.20000 521.769
24.24000 481.423
24.28000 494.492
24.32000 485.669
24.36000 492.905
24.40000 495.745
24.44000 479.364
24.48000 474.018
24.52000 491.297
24.56000 471.885
24.60000 476.224
24.64000 475.348
24.68000 465.387
24.72000 486.990
24.76000 464.605
24.80000 474.115
24.84000 462.684
24.88000 451.091
24.92000 477.342
24.96000 464.574
25.00000 477.615
25.04000 469.095
25.08000 472.219
25.12000 465.985
25.16000 474.258
25.20000 496.096
25.24000 462.319
25.28000 468.077
25.32000 465.502
25.36000 466.434
25.40000 467.395
25.44000 467.235
25.48000 466.302
25.52000 475.435
25.56000 479.506
25.60000 447.264
25.64000 459.399
25.68000 460.275
25.72000 450.711
25.76000 448.751
25.80000 450.550
25.84000 464.237
25.88000 439.813
25.92000 453.121
25.96000 453.325
26.00000 457.779
26.04000 468.537
26.08000 453.937
26.12000 459.632
26.16000 446.388
26.20000 431.686
26.24000 461.775
26.28000 452.608
26.32000 424.708
26.36000 457.967
26.40000 458.905
26.44000 442.533
26.48000 416.874
26.52000 445.276
26.56000 438.700
26.60000 427.162
26.64000 452.691
26.68000 436.484
26.72000 437.091
26.76000 441.505
26.80000 427.746
26.84000 445.956
26.88000 437.425
26.92000 451.294
26.96000 442.313
27.00000 434.737
27.04000 424.327
27.08000 427.419
27.12000 440.245
27.16000 449.800
27.20000 442.594
27.24000 437.358
27.28000 432.263
27.32000 432.617
27.36000 435.725
27.40000 432.576
27.44000 418.731
27.48000 420.507
27.52000 419.142
27.56000 430.903
27.60000 444.468
27.64000 431.543
27.68000 429.898
27.72000 431.102
27.76000 447.047
27.80000 423.737
27.84000 435.753
27.88000 418.083
27.92000 417.053
27.96000 414.359
28.00000 415.683
28.04000 424.275
28.08000 433.084
28.12000 426.259
28.16000 423.348
28.20000 428.689
28.24000 437.782
28.28000 413.398
28.32000 419.327
28.36000 421.501
28.40000 432.694
28.44000 417.110
28.48000 417.513
28.52000 435.168
28.56000 432.681
28.60000 412.886
28.64000 416.616
28.68000 432.429
28.72000 408.621
28.76000 409.277
28.80000 413.863
28.84000 424.030
28.88000 404.543
28.92000 401.093
28.96000 414.239
29.00000 407.267
29.04000 427.643
29.08000 419.657
29.12000 407.458
29.16000 402.375
29.20000 403.910
29.24000 408.868
29.28000 412.068
29.32000 399.517
29.36000 418.920
29.40000 426.968
29.44000 412.967
29.48000 414.165
29.52000 418.927
29.56000 410.182
29.60000 402.376
29.64000 399.226
29.68000 388.717
29.72000 406.797
29.76000 404.597
29.80000 407.876
29.84000 418.032
29.88000 413.894
29.92000 440.016
29.96000 407.015
30.00000 399.803
30.04000 430.225
30.08000 413.271
30.12000 428.946
30.16000 435.582
30.20000 434.045
30.24000 433.370
30.28000 411.543
30.32000 422.915
30.36000 420.513
30.40000 419.312
30.44000 425.285
30.48000 414.546
30.52000 401.193
30.56000 421.421
30.60000 425.207
30.64000 424.662
30.68000 415.455
30.72000 434.214
30.76000 452.285
30.80000 458.502
30.84000 452.846
30.88000 473.194
30.92000 480.174
30.96000 529.226
31.00000 572.889
31.04000 652.000
31.08000 766.551
31.12000 921.467
31.16000 1158.426
31.20000 1441.346
31.24000 1810.185
31.28000 2205.584
31.32000 2559.268
31.36000 2746.346
31.40000 2779.092
31.44000 2660.970
31.48000 2420.044
31.52000 1957.284
31.56000 1573.267
31.60000 1205.581
31.64000 973.469
31.68000 776.967
31.72000 648.020
31.76000 547.791
31.80000 526.498
31.84000 483.580
31.88000 458.771
31.92000 429.049
31.96000 420.693
32.00000 389.795
32.04000 401.975
32.08000 393.229
32.12000 386.406
32.16000 398.074
32.20000 385.691
32.24000 382.798
32.28000 372.792
32.32000 363.475
32.36000 379.334
32.40000 364.056
32.44000 362.704
32.48000 367.359
32.52000 358.046
32.56000 369.966
32.60000 365.411
32.64000 342.170
32.68000 354.963
32.72000 350.029
32.76000 344.035
32.80000 358.613
32.84000 343.878
32.88000 353.655
32.92000 345.575
32.96000 356.131
33.00000 360.610
33.04000 340.303
33.08000 342.672
33.12000 343.728
33.16000 339.392
33.20000 353.399
33.24000 358.211
33.28000 346.792
33.32000 324.796
33.36000 342.122
33.40000 346.629
33.44000 333.458
33.48000 323.619
33.52000 332.521
33.56000 335.439
33.60000 333.620
33.64000 345.991
33.68000 336.294
33.72000 345.460
33.76000 344.129
33.80000 334.562
33.84000 333.402
33.88000 332.701
33.92000 342.477
33.96000 342.046
34.00000 347.187
34.04000 329.045
34.08000 321.242
34.12000 338.837
34.16000 325.181
34.20000 332.403
34.24000 338.776
34.28000 339.486
34.32000 314.163
34.36000 330.368
34.40000 330.400
34.44000 321.256
34.48000 325.642
34.52000 320.490
34.56000 322.424
34.60000 313.166
34.64000 324.158
34.68000 325.150
34.72000 311.390
34.76000 306.520
34.80000 322.297
34.84000 327.789
34.88000 309.250
34.92000 315.693
34.96000 327.917
35.00000 323.451
35.04000 309.742
35.08000 301.310
35.12000 307.274
35.16000 294.145
35.20000 321.996
35.24000 304.993
35.28000 314.555
35.32000 294.258
35.36000 306.738
35.40000 302.676
35.44000 292.250
35.48000 300.065
35.52000 323.920
35.56000 307.710
35.60000 292.511
35.64000 301.008
35.68000 317.003
35.72000 306.234
35.76000 285.163
35.80000 306.788
35.84000 308.177
35.88000 295.741
35.92000 297.912
35.96000 304.127
36.00000 296.823
36.04000 263.118
36.08000 292.141
36.12000 292.863
36.16000 296.592
36.20000 283.954
36.24000 288.949
36.28000 294.054
36.32000 280.546
36.36000 286.695
36.40000 294.714
36.44000 294.423
36.48000 290.272
36.52000 293.053
36.56000 287.354
36.60000 302.645
36.64000 297.083
36.68000 289.481
36.72000 291.745
36.76000 274.372
36.80000 292.441
36.84000 299.274
36.88000 274.420
36.92000 290.589
36.96000 278.521
37.00000 289.184
37.04000 275.910
37.08000 291.951
37.12000 290.118
37.16000 291.164
37.20000 297.628
37.24000 292.196
37.28000 281.693
37.32000 292.727
37.36000 283.411
37.40000 293.660
37.44000 287.145
37.48000 284.190
37.52000 293.300
37.56000 262.577
37.60000 278.708
37.64000 273.847
37.68000 284.134
37.72000 278.336
37.76000 278.976
37.80000 291.620
37.84000 293.083
37.88000 272.685
37.92000 288.092
37.96000 289.117
38.00000 298.589
38.04000 283.253
38.08000 276.487
38.12000 295.703
38.16000 301.968
38.20000 302.895
38.24000 294.613
38.28000 310.244
38.32000 305.659
38.36000 315.111
38.40000 337.895
38.44000 348.498
38.48000 383.983
38.52000 415.449
38.56000 455.045
38.60000 508.931
38.64000 546.089
38.68000 574.299
38.72000 572.382
38.76000 580.094
38.80000 551.469
38.84000 544.672
38.88000 459.711
38.92000 432.207
38.96000 381.747
39.00000 349.262
39.04000 312.451
39.08000 305.361
39.12000 292.810
39.16000 279.624
39.20000 285.442
39.24000 268.773
39.28000 266.672
39.32000 268.928
39.36000 275.634
39.40000 270.943
39.44000 273.596
39.48000 255.589
39.52000 265.746
39.56000 267.444
39.60000 271.558
39.64000 270.429
39.68000 258.371
39.72000 273.094
39.76000 254.424
39.80000 267.830
39.84000 252.565
39.88000 251.341
39.92000 269.200
39.96000 255.841
40.00000 258.947
40.04000 265.901
40.08000 248.132
40.12000 247.738
40.16000 263.353
40.20000 249.262
40.24000 251.926
40.28000 255.509
40.32000 253.227
40.36000 241.365
40.40000 253.174
40.44000 262.646
40.48000 248.981
40.52000 251.179
40.56000 255.375
40.60000 242.733
40.64000 257.014
40.68000 240.086
40.72000 240.404
40.76000 249.504
40.80000 255.113
40.84000 248.364
40.88000 240.390
40.92000 248.495
40.96000 256.073
41.00000 251.426
41.04000 237.927
41.08000 248.008
41.12000 243.360
41.16000 233.202
41.20000 248.554
41.24000 245.598
41.28000 242.995
41.32000 234.921
41.36000 236.969
41.40000 244.264
41.44000 245.128
41.48000 231.977
41.52000 244.183
41.56000 233.702
41.60000 236.488
41.64000 237.733
41.68000 229.146
41.72000 227.630
41.76000 233.869
41.80000 247.026
41.84000 243.764
41.88000 230.930
41.92000 233.644
41.96000 243.299
42.00000 244.827
42.04000 234.522
42.08000 233.413
42.12000 234.589
42.16000 225.672
42.20000 244.994
42.24000 235.506
42.28000 237.463
42.32000 231.311
42.36000 230.594
42.40000 225.232
42.44000 230.790
42.48000 235.056
42.52000 238.997
42.56000 237.769
42.60000 233.803
42.64000 230.649
42.68000 224.839
42.72000 224.171
42.76000 233.482
42.80000 237.917
42.84000 219.566
42.88000 234.867
42.92000 222.959
42.96000 235.520
43.00000 222.076
43.04000 219.067
43.08000 222.982
43.12000 222.469
43.16000 205.914
43.20000 238.165
43.24000 214.246
43.28000 227.023
43.32000 222.732
43.36000 220.768
43.40000 216.478
43.44000 221.257
43.48000 208.537
43.52000 218.043
43.56000 223.060
43.60000 220.198
43.64000 210.000
43.68000 206.692
43.72000 226.156
43.76000 232.499
43.80000 224.553
43.84000 219.807
43.88000 219.122
43.92000 222.580
43.96000 216.249
44.00000 209.979
44.04000 213.889
44.08000 220.811
44.12000 211.212
44.16000 222.594
44.20000 224.649
44.24000 212.909
44.28000 214.600
44.32000 218.623
44.36000 227.891
44.40000 219.920
44.44000 224.044
44.48000 220.746
44.52000 213.455
44.56000 227.457
44.60000 230.409
44.64000 231.501
44.68000 228.205
44.72000 257.981
44.76000 245.237
44.80000 260.853
44.84000 255.459
44.88000 264.131
44.92000 276.767
44.96000 298.779
45.00000 298.317
45.04000 314.553
45.08000 329.355
45.12000 333.706
45.16000 320.486
45.20000 329.172
45.24000 335.159
45.28000 320.357
45.32000 295.342
45.36000 306.886
45.40000 276.283
45.44000 255.034
45.48000 257.582
45.52000 248.153
45.56000 242.235
45.60000 228.153
45.64000 250.127
45.68000 245.131
45.72000 234.495
45.76000 221.239
45.80000 207.221
45.84000 212.239
45.88000 217.605
45.92000 193.798
45.96000 202.896
46.00000 211.100
46.04000 211.651
46.08000 207.907
46.12000 206.806
46.16000 199.670
46.20000 195.269
46.24000 195.061
46.28000 202.308
46.32000 210.247
46.36000 212.726
46.40000 215.248
46.44000 203.035
46.48000 201.812
46.52000 209.489
46.56000 201.225
46.60000 196.488
46.64000 197.018
46.68000 189.373
46.72000 201.223
46.76000 199.777
46.80000 197.548
46.84000 182.665
46.88000 187.696
46.92000 187.395
46.96000 193.220
47.00000 197.823
47.04000 184.506
47.08000 175.998
47.12000 183.742
47.16000 184.208
47.20000 191.081
47.24000 186.039
47.28000 187.965
47.32000 185.167
47.36000 177.428
47.40000 180.232
47.44000 180.423
47.48000 191.744
47.52000 191.377
47.56000 186.031
47.60000 186.454
47.64000 189.927
47.68000 185.663
47.72000 173.268
47.76000 186.143
47.80000 194.378
47.84000 178.479
47.88000 188.343
47.92000 201.059
47.96000 170.175
48.00000 183.951
48.04000 183.487
48.08000 172.256
48.12000 180.560
48.16000 182.036
48.20000 184.203
48.24000 183.349
48.28000 186.170
48.32000 178.123
48.36000 174.124
48.40000 180.103
48.44000 182.629
48.48000 182.815
48.52000 177.696
48.56000 176.420
48.60000 176.521
48.64000 172.238
48.68000 178.921
48.72000 182.497
48.76000 183.101
48.80000 164.958
48.84000 174.565
48.88000 175.841
48.92000 181.859
48.96000 181.520
49.00000 174.787
49.04000 164.552
49.08000 171.146
49.12000 184.695
49.16000 162.997
49.20000 173.894
49.24000 173.765
49.28000 169.197
49.32000 184.967
49.36000 189.050
49.40000 167.817
49.44000 172.656
49.48000 176.204
49.52000 168.755
49.56000 184.149
49.60000 174.017
49.64000 175.231
49.68000 181.855
49.72000 177.347
49.76000 175.412
49.80000 167.727
49.84000 174.016
49.88000 175.755
49.92000 163.784
49.96000 177.600
50.00000 170.067
50.04000 173.789
50.08000 178.286
50.12000 164.019
50.16000 172.530
50.20000 166.766
50.24000 174.960
50.28000 183.792
50.32000 177.358
50.36000 190.063
50.40000 188.315
50.44000 186.106
50.48000 180.453
50.52000 203.616
50.56000 210.709
50.60000 229.514
50.64000 229.413
50.68000 244.388
50.72000 234.778
50.76000 242.549
50.80000 240.359
50.84000 220.821
50.88000 215.730
50.92000 211.345
50.96000 199.521
51.00000 190.240
51.04000 190.878
51.08000 186.082
51.12000 187.255
51.16000 181.192
51.20000 187.374
51.24000 191.720
51.28000 167.035
51.32000 170.533
51.36000 171.439
51.40000 166.830
51.44000 170.071
51.48000 156.699
51.52000 168.072
51.56000 156.426
51.60000 159.595
51.64000 154.243
51.68000 154.694
51.72000 151.533
51.76000 166.241
51.80000 164.881
51.84000 164.012
51.88000 151.363
51.92000 166.894
51.96000 165.127
52.00000 156.488
52.04000 151.032
52.08000 161.466
52.12000 157.510
52.16000 160.017
52.20000 164.263
52.24000 161.787
52.28000 170.479
52.32000 148.785
52.36000 159.841
52.40000 156.385
52.44000 159.730
52.48000 148.926
52.52000 152.118
52.56000 166.874
52.60000 161.433
52.64000 150.678
52.68000 158.378
52.72000 154.390
52.76000 165.569
52.80000 153.000
52.84000 152.790
52.88000 152.678
52.92000 158.483
52.96000 155.748
53.00000 153.465
53.04000 159.795
53.08000 152.064
53.12000 157.043
53.16000 152.649
53.20000 152.941
53.24000 151.328
53.28000 158.116
53.32000 160.021
53.36000 158.821
53.40000 160.640
53.44000 158.299
53.48000 155.368
53.52000 163.428
53.56000 153.662
53.60000 155.078
53.64000 151.804
53.68000 150.064
53.72000 152.580
53.76000 148.382
53.80000 162.777
53.84000 150.052
53.88000 160.146
53.92000 161.297
53.96000 147.019
54.00000 151.953
54.04000 148.509
54.08000 146.510
54.12000 149.026
54.16000 163.682
54.20000 154.397
54.24000 145.393
54.28000 149.073
54.32000 148.084
54.36000 154.893
54.40000 147.602
54.44000 154.258
54.48000 157.311
54.52000 149.161
54.56000 149.791
54.60000 158.141
54.64000 162.384
54.68000 152.042
54.72000 151.441
54.76000 150.715
54.80000 151.244
54.84000 152.782
54.88000 154.659
54.92000 151.912
54.96000 153.337
55.00000 152.356
55.04000 161.966
55.08000 152.974
55.12000 144.620
55.16000 156.492
55.20000 151.800
55.24000 162.711
55.28000 164.902
55.32000 162.573
55.36000 149.682
55.40000 162.808
55.44000 173.038
55.48000 179.747
55.52000 176.275
55.56000 185.366
55.60000 206.895
55.64000 218.120
55.68000 243.949
55.72000 266.682
55.76000 304.219
55.80000 342.365
55.84000 342.360
55.88000 408.988
55.92000 401.223
55.96000 412.876
56.00000 411.531
56.04000 397.544
56.08000 378.970
56.12000 351.101
56.16000 313.502
56.20000 288.961
56.24000 267.697
56.28000 232.925
56.32000 216.244
56.36000 207.678
56.40000 175.231
56.44000 174.388
56.48000 167.569
56.52000 157.238
56.56000 162.124
56.60000 162.296
56.64000 155.865
56.68000 154.114
56.72000 143.157
56.76000 151.901
56.80000 159.306
56.84000 150.190
56.88000 147.367
56.92000 148.353
56.96000 142.307
57.00000 151.422
57.04000 134.714
57.08000 138.619
57.12000 131.208
57.16000 144.105
57.20000 142.970
57.24000 134.515
57.28000 133.370
57.32000 134.063
57.36000 138.092
57.40000 141.460
57.44000 141.770
57.48000 141.518
57.52000 135.730
57.56000 139.065
57.60000 140.417
57.64000 129.427
57.68000 145.317
57.72000 136.185
57.76000 134.645
57.80000 139.256
57.84000 142.673
57.88000 134.259
57.92000 135.306
57.96000 143.022
58.00000 137.678
58.04000 133.807
58.08000 134.995
58.12000 134.894
58.16000 130.892
58.20000 133.083
58.24000 136.426
58.28000 132.373
58.32000 141.684
58.36000 136.790
58.40000 132.190
58.44000 141.637
58.48000 131.341
58.52000 140.169
58.56000 134.434
58.60000 130.787
58.64000 135.225
58.68000 141.780
58.72000 136.143
58.76000 123.925
58.80000 133.676
58.84000 124.392
58.88000 132.757
58.92000 133.177
58.96000 126.181
59.00000 140.566
59.04000 132.227
59.08000 127.671
59.12000 131.636
59.16000 132.645
59.20000 129.664
59.24000 130.288
59.28000 132.232
59.32000 135.976
59.36000 141.763
59.40000 137.725
59.44000 132.162
59.48000 130.982
59.52000 130.014
59.56000 133.043
59.60000 135.707
59.64000 126.679
59.68000 130.559
59.72000 133.309
59.76000 126.507
59.80000 129.185
59.84000 132.185
59.88000 141.190
59.92000 122.177
59.96000 131.764
60.00000 123.004
60.04000 124.587
60.08000 143.241
60.12000 127.386
60.16000 134.970
60.20000 134.128
60.24000 131.500
60.28000 135.322
60.32000 130.293
60.36000 129.580
60.40000 124.815
60.44000 132.093
60.48000 133.422
60.52000 128.872
60.56000 138.359
60.60000 120.914
60.64000 146.809
60.68000 134.137
60.72000 141.548
60.76000 134.471
60.80000 123.867
60.84000 132.176
60.88000 122.900
60.92000 142.287
60.96000 133.142
61.00000 127.366
61.04000 129.888
61.08000 138.334
61.12000 140.413
61.16000 152.464
61.20000 135.809
61.24000 144.700
61.28000 133.887
61.32000 132.159
61.36000 137.253
61.40000 132.069
61.44000 136.026
61.48000 136.295
61.52000 159.672
61.56000 203.294
61.60000 229.870
61.64000 248.959
61.68000 261.525
61.72000 254.914
61.76000 249.832
61.80000 198.570
61.84000 172.827
61.88000 148.051
61.92000 141.731
61.96000 148.688
62.00000 145.337
62.04000 145.404
62.08000 142.756
62.12000 142.391
62.16000 135.545
62.20000 133.454
62.24000 145.079
62.28000 139.820
62.32000 129.670
62.36000 139.115
62.40000 146.979
62.44000 133.869
62.48000 133.821
62.52000 143.730
62.56000 151.816
62.60000 157.868
62.64000 149.049
62.68000 142.422
62.72000 144.364
62.76000 146.266
62.80000 143.951
62.84000 135.704
62.88000 143.795
62.92000 142.105
62.96000 144.989
63.00000 143.638
63.04000 145.479
63.08000 146.202
63.12000 146.800
63.16000 141.853
63.20000 141.842
63.24000 159.264
63.28000 146.311
63.32000 139.946
63.36000 144.144
63.40000 145.447
63.44000 148.411
63.48000 146.829
63.52000 142.444
63.56000 150.256
63.60000 145.735
63.64000 140.595
63.68000 147.952
63.72000 155.683
63.76000 156.689
63.80000 158.955
63.84000 163.370
63.88000 151.351
63.92000 154.459
63.96000 147.223
64.00000 147.763
64.04000 159.048
64.08000 154.701
64.12000 158.332
64.16000 155.990
64.20000 156.684
64.24000 149.455
64.28000 169.374
64.32000 171.199
64.36000 167.551
64.40000 162.122
64.44000 168.792
64.48000 159.133
64.52000 147.526
64.56000 167.778
64.60000 159.497
64.64000 173.154
64.68000 170.363
64.72000 167.587
64.76000 187.285
64.80000 178.284
64.84000 178.669
64.88000 188.221
64.92000 184.008
64.96000 185.193
65.00000 187.373
65.04000 187.386
65.08000 208.644
65.12000 212.212
65.16000 210.956
65.20000 222.895
65.24000 236.188
65.28000 239.413
65.32000 265.444
65.36000 278.415
65.40000 306.086
65.44000 316.217
65.48000 334.517
65.52000 349.362
65.56000 370.656
65.60000 417.908
65.64000 424.363
65.68000 488.998
65.72000 626.180
65.76000 813.282
65.80000 959.581
65.84000 1001.610
65.88000 994.263
65.92000 963.744
65.96000 783.495
66.00000 576.331
66.04000 408.121
66.08000 346.372
66.12000 313.898
66.16000 299.093
66.20000 288.647
66.24000 311.560
66.28000 339.188
66.32000 367.534
66.36000 408.780
66.40000 425.820
66.44000 423.635
66.48000 408.835
66.52000 377.976
66.56000 337.405
66.60000 304.955
66.64000 295.716
66.68000 299.021
66.72000 293.942
66.76000 302.252
66.80000 307.660
66.84000 308.656
66.88000 327.260
66.92000 336.016
66.96000 327.945
67.00000 340.745
67.04000 342.691
67.08000 352.545
67.12000 355.274
67.16000 362.904
67.20000 363.519
67.24000 348.093
67.28000 367.045
67.32000 379.289
67.36000 370.015
67.40000 392.060
67.44000 396.023
67.48000 408.871
67.52000 406.672
67.56000 433.047
67.60000 406.494
67.64000 452.930
67.68000 441.682
67.72000 458.258
67.76000 456.857
67.80000 475.011
67.84000 492.480
67.88000 486.993
67.92000 497.794
67.96000 507.534
68.00000 526.746
68.04000 538.413
68.08000 567.380
68.12000 571.645
68.16000 575.373
68.20000 567.098
68.24000 588.906
68.28000 635.142
68.32000 611.073
68.36000 649.139
68.40000 659.839
68.44000 697.238
68.48000 722.721
68.52000 765.032
68.56000 842.376
68.60000 925.736
68.64000 1110.587
68.68000 1282.584
68.72000 1486.078
68.76000 1700.194
68.80000 1902.689
68.84000 2247.342
68.88000 2874.345
68.92000 5296.088
68.96000 14127.444
69.00000 31090.057
69.04000 46688.840
69.08000 53575.051
69.12000 54626.996
69.16000 56622.051
69.20000 55952.008
69.24000 45363.898
69.28000 35011.152
69.32000 28940.441
69.36000 26016.135
69.40000 20562.762
69.44000 11786.262
69.48000 5413.842
69.52000 2379.888
69.56000 1690.708
69.60000 1336.194
69.64000 1176.356
69.68000 1043.970
69.72000 961.896
69.76000 878.035
69.80000 809.186
69.84000 782.820
69.88000 736.862
69.92000 701.737
69.96000 670.205
70.00000 647.817