File: XRD/XRD/17-09-2025/XY Data/BTO_Mapping_Theta2Theta_09-17-2025_001_30_-30-000_30-000.xy
20.00000 549.852
20.04000 559.704
20.08000 572.863
20.12000 565.487
20.16000 550.286
20.20000 561.500
20.24000 578.471
20.28000 543.058
20.32000 553.173
20.36000 552.861
20.40000 547.045
20.44000 558.655
20.48000 549.788
20.52000 533.970
20.56000 546.589
20.60000 560.637
20.64000 559.184
20.68000 531.002
20.72000 558.062
20.76000 547.715
20.80000 540.793
20.84000 538.271
20.88000 553.735
20.92000 549.922
20.96000 547.569
21.00000 546.559
21.04000 564.697
21.08000 550.876
21.12000 547.388
21.16000 544.251
21.20000 546.410
21.24000 540.998
21.28000 542.463
21.32000 554.014
21.36000 530.820
21.40000 530.642
21.44000 513.939
21.48000 529.417
21.52000 545.369
21.56000 547.550
21.60000 543.870
21.64000 571.192
21.68000 562.334
21.72000 570.814
21.76000 608.828
21.80000 636.889
21.84000 664.604
21.88000 732.559
21.92000 762.631
21.96000 808.919
22.00000 829.630
22.04000 843.286
22.08000 815.310
22.12000 789.776
22.16000 739.764
22.20000 685.362
22.24000 626.678
22.28000 603.596
22.32000 573.981
22.36000 558.735
22.40000 555.331
22.44000 532.728
22.48000 534.748
22.52000 543.472
22.56000 529.564
22.60000 548.221
22.64000 516.274
22.68000 525.144
22.72000 519.822
22.76000 512.360
22.80000 516.259
22.84000 517.367
22.88000 498.975
22.92000 509.922
22.96000 499.221
23.00000 499.392
23.04000 505.495
23.08000 496.243
23.12000 490.880
23.16000 517.673
23.20000 522.570
23.24000 495.177
23.28000 501.454
23.32000 498.046
23.36000 495.868
23.40000 510.845
23.44000 497.627
23.48000 510.030
23.52000 507.498
23.56000 502.060
23.60000 486.004
23.64000 522.641
23.68000 500.488
23.72000 494.662
23.76000 498.532
23.80000 500.874
23.84000 494.648
23.88000 483.844
23.92000 490.583
23.96000 482.756
24.00000 485.649
24.04000 485.893
24.08000 498.212
24.12000 494.757
24.16000 486.081
24.20000 480.372
24.24000 502.048
24.28000 479.757
24.32000 471.570
24.36000 511.902
24.40000 498.959
24.44000 490.196
24.48000 471.065
24.52000 482.038
24.56000 495.276
24.60000 492.352
24.64000 495.710
24.68000 478.641
24.72000 463.918
24.76000 459.207
24.80000 482.336
24.84000 469.280
24.88000 456.526
24.92000 464.512
24.96000 463.433
25.00000 491.557
25.04000 487.770
25.08000 480.064
25.12000 469.014
25.16000 466.505
25.20000 464.196
25.24000 463.094
25.28000 484.074
25.32000 468.270
25.36000 478.786
25.40000 482.988
25.44000 479.671
25.48000 478.497
25.52000 481.573
25.56000 458.787
25.60000 447.971
25.64000 472.766
25.68000 469.546
25.72000 448.068
25.76000 469.314
25.80000 482.904
25.84000 455.698
25.88000 455.552
25.92000 462.139
25.96000 466.306
26.00000 460.555
26.04000 446.356
26.08000 467.438
26.12000 467.065
26.16000 443.845
26.20000 447.424
26.24000 459.301
26.28000 445.539
26.32000 473.991
26.36000 457.724
26.40000 450.566
26.44000 463.358
26.48000 466.447
26.52000 464.723
26.56000 461.329
26.60000 448.838
26.64000 443.517
26.68000 448.983
26.72000 449.308
26.76000 444.268
26.80000 438.610
26.84000 438.921
26.88000 458.247
26.92000 454.119
26.96000 453.361
27.00000 438.572
27.04000 436.142
27.08000 444.355
27.12000 438.008
27.16000 428.954
27.20000 447.638
27.24000 446.631
27.28000 425.866
27.32000 452.747
27.36000 448.302
27.40000 452.968
27.44000 430.558
27.48000 435.170
27.52000 424.304
27.56000 423.547
27.60000 430.827
27.64000 436.762
27.68000 435.353
27.72000 424.044
27.76000 432.329
27.80000 438.186
27.84000 442.549
27.88000 440.008
27.92000 431.536
27.96000 432.795
28.00000 429.550
28.04000 418.605
28.08000 441.534
28.12000 426.690
28.16000 431.135
28.20000 416.960
28.24000 454.434
28.28000 458.931
28.32000 436.271
28.36000 439.730
28.40000 427.924
28.44000 420.194
28.48000 436.253
28.52000 426.118
28.56000 414.660
28.60000 443.197
28.64000 425.851
28.68000 437.589
28.72000 444.419
28.76000 421.596
28.80000 439.809
28.84000 409.594
28.88000 417.146
28.92000 398.600
28.96000 405.598
29.00000 425.970
29.04000 408.246
29.08000 414.013
29.12000 423.773
29.16000 418.141
29.20000 409.131
29.24000 420.140
29.28000 402.830
29.32000 417.095
29.36000 414.583
29.40000 415.174
29.44000 426.362
29.48000 418.631
29.52000 411.834
29.56000 415.259
29.60000 407.182
29.64000 415.728
29.68000 405.877
29.72000 409.788
29.76000 432.981
29.80000 430.957
29.84000 439.902
29.88000 432.512
29.92000 452.718
29.96000 454.251
30.00000 454.677
30.04000 457.639
30.08000 465.096
30.12000 443.939
30.16000 446.020
30.20000 429.891
30.24000 443.194
30.28000 455.736
30.32000 440.236
30.36000 446.270
30.40000 426.435
30.44000 420.470
30.48000 415.889
30.52000 427.501
30.56000 445.763
30.60000 440.655
30.64000 444.724
30.68000 434.728
30.72000 452.608
30.76000 459.819
30.80000 466.346
30.84000 473.657
30.88000 518.739
30.92000 515.085
30.96000 555.318
31.00000 610.730
31.04000 735.322
31.08000 899.290
31.12000 1170.032
31.16000 1599.436
31.20000 2194.468
31.24000 2866.245
31.28000 3555.667
31.32000 4126.130
31.36000 4254.464
31.40000 4089.349
31.44000 3612.264
31.48000 3029.752
31.52000 2270.743
31.56000 1653.812
31.60000 1149.193
31.64000 864.527
31.68000 673.297
31.72000 571.599
31.76000 511.642
31.80000 474.546
31.84000 464.531
31.88000 436.435
31.92000 449.305
31.96000 432.758
32.00000 430.230
32.04000 409.294
32.08000 420.074
32.12000 408.297
32.16000 419.016
32.20000 418.409
32.24000 399.737
32.28000 387.943
32.32000 402.895
32.36000 406.504
32.40000 385.404
32.44000 389.162
32.48000 388.653
32.52000 381.841
32.56000 387.121
32.60000 379.269
32.64000 382.308
32.68000 384.089
32.72000 374.476
32.76000 367.070
32.80000 363.462
32.84000 371.119
32.88000 371.678
32.92000 357.043
32.96000 356.573
33.00000 347.826
33.04000 333.682
33.08000 359.579
33.12000 343.755
33.16000 355.498
33.20000 362.026
33.24000 363.710
33.28000 354.237
33.32000 359.400
33.36000 356.851
33.40000 341.861
33.44000 332.779
33.48000 344.847
33.52000 342.882
33.56000 344.414
33.60000 340.288
33.64000 344.782
33.68000 338.418
33.72000 328.578
33.76000 340.270
33.80000 345.855
33.84000 354.285
33.88000 340.730
33.92000 333.846
33.96000 360.819
34.00000 339.270
34.04000 345.601
34.08000 342.777
34.12000 332.585
34.16000 354.263
34.20000 316.011
34.24000 331.884
34.28000 335.882
34.32000 335.035
34.36000 324.609
34.40000 318.557
34.44000 337.589
34.48000 328.466
34.52000 329.605
34.56000 309.460
34.60000 314.945
34.64000 325.511
34.68000 317.799
34.72000 330.381
34.76000 322.704
34.80000 327.826
34.84000 312.626
34.88000 320.905
34.92000 316.731
34.96000 305.246
35.00000 332.119
35.04000 313.570
35.08000 323.999
35.12000 323.741
35.16000 316.655
35.20000 308.100
35.24000 310.223
35.28000 323.013
35.32000 317.178
35.36000 314.075
35.40000 316.976
35.44000 318.229
35.48000 313.271
35.52000 312.844
35.56000 303.629
35.60000 317.080
35.64000 310.356
35.68000 305.997
35.72000 327.488
35.76000 307.721
35.80000 307.620
35.84000 313.713
35.88000 299.552
35.92000 297.058
35.96000 317.291
36.00000 327.053
36.04000 308.310
36.08000 307.148
36.12000 300.897
36.16000 316.005
36.20000 307.005
36.24000 277.101
36.28000 302.677
36.32000 293.649
36.36000 305.175
36.40000 307.720
36.44000 286.016
36.48000 296.221
36.52000 294.982
36.56000 290.408
36.60000 304.804
36.64000 306.385
36.68000 291.201
36.72000 286.688
36.76000 315.126
36.80000 297.399
36.84000 304.128
36.88000 286.983
36.92000 301.770
36.96000 315.989
37.00000 300.551
37.04000 303.647
37.08000 312.376
37.12000 300.083
37.16000 293.254
37.20000 285.972
37.24000 297.382
37.28000 288.292
37.32000 294.827
37.36000 284.313
37.40000 291.906
37.44000 305.559
37.48000 282.104
37.52000 288.151
37.56000 298.605
37.60000 297.590
37.64000 281.259
37.68000 292.275
37.72000 292.394
37.76000 302.109
37.80000 286.869
37.84000 289.577
37.88000 295.348
37.92000 288.312
37.96000 288.647
38.00000 308.068
38.04000 285.526
38.08000 305.679
38.12000 286.407
38.16000 295.404
38.20000 298.028
38.24000 295.514
38.28000 302.540
38.32000 322.849
38.36000 330.713
38.40000 325.112
38.44000 359.138
38.48000 394.385
38.52000 446.305
38.56000 475.432
38.60000 516.513
38.64000 546.804
38.68000 581.807
38.72000 555.173
38.76000 570.358
38.80000 515.047
38.84000 470.080
38.88000 421.950
38.92000 394.269
38.96000 348.885
39.00000 312.858
39.04000 313.840
39.08000 304.483
39.12000 281.619
39.16000 285.372
39.20000 288.891
39.24000 274.323
39.28000 274.803
39.32000 269.857
39.36000 267.896
39.40000 268.304
39.44000 266.742
39.48000 275.067
39.52000 259.860
39.56000 273.667
39.60000 255.846
39.64000 258.989
39.68000 267.904
39.72000 272.085
39.76000 277.786
39.80000 252.647
39.84000 263.362
39.88000 282.390
39.92000 273.026
39.96000 265.360
40.00000 271.306
40.04000 273.553
40.08000 253.576
40.12000 258.360
40.16000 267.822
40.20000 254.764
40.24000 258.657
40.28000 259.268
40.32000 249.694
40.36000 273.347
40.40000 252.687
40.44000 249.821
40.48000 245.643
40.52000 260.023
40.56000 248.254
40.60000 241.497
40.64000 255.406
40.68000 245.935
40.72000 254.984
40.76000 263.580
40.80000 254.505
40.84000 238.532
40.88000 246.128
40.92000 247.747
40.96000 247.221
41.00000 254.932
41.04000 239.950
41.08000 255.559
41.12000 248.032
41.16000 234.701
41.20000 250.143
41.24000 240.332
41.28000 227.234
41.32000 249.552
41.36000 231.610
41.40000 252.637
41.44000 231.358
41.48000 235.750
41.52000 232.335
41.56000 240.066
41.60000 247.994
41.64000 235.328
41.68000 244.363
41.72000 237.367
41.76000 231.905
41.80000 234.171
41.84000 240.787
41.88000 239.827
41.92000 251.903
41.96000 239.710
42.00000 224.100
42.04000 239.385
42.08000 241.074
42.12000 235.065
42.16000 229.591
42.20000 234.821
42.24000 241.309
42.28000 231.778
42.32000 234.056
42.36000 239.184
42.40000 236.206
42.44000 215.039
42.48000 230.204
42.52000 246.693
42.56000 234.993
42.60000 238.799
42.64000 242.488
42.68000 227.228
42.72000 226.554
42.76000 231.173
42.80000 232.961
42.84000 230.472
42.88000 232.498
42.92000 233.323
42.96000 230.488
43.00000 234.547
43.04000 240.054
43.08000 227.311
43.12000 234.681
43.16000 240.930
43.20000 232.829
43.24000 233.157
43.28000 233.335
43.32000 225.860
43.36000 214.699
43.40000 214.637
43.44000 241.368
43.48000 228.961
43.52000 228.592
43.56000 225.794
43.60000 218.060
43.64000 229.679
43.68000 220.985
43.72000 223.597
43.76000 226.546
43.80000 211.947
43.84000 214.083
43.88000 222.247
43.92000 217.585
43.96000 227.266
44.00000 223.437
44.04000 226.117
44.08000 219.158
44.12000 215.648
44.16000 213.504
44.20000 216.940
44.24000 213.816
44.28000 220.768
44.32000 214.012
44.36000 230.093
44.40000 234.070
44.44000 228.120
44.48000 229.631
44.52000 243.179
44.56000 240.365
44.60000 242.112
44.64000 256.902
44.68000 257.863
44.72000 285.161
44.76000 315.791
44.80000 339.116
44.84000 376.773
44.88000 395.076
44.92000 432.136
44.96000 480.173
45.00000 493.506
45.04000 485.355
45.08000 483.089
45.12000 463.998
45.16000 420.220
45.20000 393.456
45.24000 347.513
45.28000 335.888
45.32000 301.545
45.36000 284.877
45.40000 264.184
45.44000 247.126
45.48000 234.756
45.52000 243.545
45.56000 240.005
45.60000 232.305
45.64000 232.853
45.68000 223.675
45.72000 213.853
45.76000 209.164
45.80000 213.644
45.84000 219.118
45.88000 212.416
45.92000 203.433
45.96000 209.179
46.00000 216.055
46.04000 214.444
46.08000 202.361
46.12000 206.640
46.16000 215.044
46.20000 205.206
46.24000 193.150
46.28000 214.876
46.32000 198.368
46.36000 198.825
46.40000 213.745
46.44000 194.393
46.48000 208.188
46.52000 199.957
46.56000 215.470
46.60000 197.387
46.64000 198.853
46.68000 198.320
46.72000 202.918
46.76000 203.211
46.80000 197.232
46.84000 198.265
46.88000 195.183
46.92000 190.007
46.96000 182.282
47.00000 201.597
47.04000 196.570
47.08000 193.427
47.12000 191.573
47.16000 196.693
47.20000 207.989
47.24000 189.578
47.28000 186.624
47.32000 194.153
47.36000 195.011
47.40000 177.870
47.44000 192.354
47.48000 186.349
47.52000 191.167
47.56000 195.207
47.60000 178.251
47.64000 185.566
47.68000 188.935
47.72000 199.100
47.76000 189.606
47.80000 195.034
47.84000 190.902
47.88000 176.028
47.92000 179.083
47.96000 184.881
48.00000 182.163
48.04000 181.901
48.08000 194.152
48.12000 174.039
48.16000 194.617
48.20000 183.753
48.24000 181.694
48.28000 187.675
48.32000 181.156
48.36000 189.137
48.40000 179.624
48.44000 183.559
48.48000 179.112
48.52000 179.076
48.56000 173.928
48.60000 177.030
48.64000 182.467
48.68000 179.083
48.72000 185.939
48.76000 180.260
48.80000 184.246
48.84000 183.384
48.88000 182.978
48.92000 182.585
48.96000 186.777
49.00000 177.395
49.04000 186.661
49.08000 182.657
49.12000 184.361
49.16000 180.972
49.20000 173.143
49.24000 187.315
49.28000 175.589
49.32000 183.478
49.36000 191.527
49.40000 171.150
49.44000 188.195
49.48000 179.929
49.52000 165.259
49.56000 170.220
49.60000 177.169
49.64000 183.332
49.68000 176.390
49.72000 182.537
49.76000 177.020
49.80000 180.872
49.84000 176.702
49.88000 183.657
49.92000 186.184
49.96000 183.255
50.00000 182.866
50.04000 177.372
50.08000 184.145
50.12000 178.992
50.16000 187.235
50.20000 195.286
50.24000 192.533
50.28000 190.084
50.32000 197.315
50.36000 208.180
50.40000 214.724
50.44000 215.249
50.48000 242.316
50.52000 263.741
50.56000 278.820
50.60000 279.461
50.64000 306.946
50.68000 289.460
50.72000 290.259
50.76000 294.840
50.80000 273.151
50.84000 256.989
50.88000 246.151
50.92000 221.818
50.96000 206.586
51.00000 203.889
51.04000 186.839
51.08000 183.625
51.12000 202.094
51.16000 169.718
51.20000 177.925
51.24000 164.001
51.28000 178.015
51.32000 171.324
51.36000 181.908
51.40000 174.469
51.44000 168.939
51.48000 175.430
51.52000 156.108
51.56000 178.174
51.60000 167.884
51.64000 172.131
51.68000 157.472
51.72000 157.205
51.76000 170.545
51.80000 165.333
51.84000 168.593
51.88000 159.625
51.92000 156.320
51.96000 168.511
52.00000 157.076
52.04000 160.178
52.08000 155.642
52.12000 165.196
52.16000 166.742
52.20000 161.643
52.24000 159.723
52.28000 163.859
52.32000 171.540
52.36000 159.919
52.40000 164.081
52.44000 156.972
52.48000 160.811
52.52000 153.762
52.56000 155.286
52.60000 147.199
52.64000 153.561
52.68000 151.308
52.72000 151.672
52.76000 158.621
52.80000 164.305
52.84000 158.071
52.88000 167.672
52.92000 152.750
52.96000 150.722
53.00000 156.498
53.04000 159.371
53.08000 161.344
53.12000 166.405
53.16000 175.168
53.20000 165.737
53.24000 155.827
53.28000 179.249
53.32000 173.456
53.36000 159.173
53.40000 160.130
53.44000 167.094
53.48000 160.717
53.52000 160.105
53.56000 165.220
53.60000 170.607
53.64000 158.628
53.68000 158.735
53.72000 170.956
53.76000 162.579
53.80000 161.825
53.84000 153.175
53.88000 146.103
53.92000 145.733
53.96000 152.414
54.00000 165.698
54.04000 159.028
54.08000 158.956
54.12000 165.288
54.16000 160.955
54.20000 150.522
54.24000 156.074
54.28000 149.738
54.32000 155.508
54.36000 156.879
54.40000 153.779
54.44000 164.143
54.48000 152.017
54.52000 157.108
54.56000 154.737
54.60000 155.584
54.64000 161.458
54.68000 163.911
54.72000 162.508
54.76000 169.256
54.80000 158.922
54.84000 162.588
54.88000 160.584
54.92000 154.422
54.96000 158.022
55.00000 154.440
55.04000 171.280
55.08000 166.986
55.12000 161.473
55.16000 162.042
55.20000 160.487
55.24000 163.306
55.28000 171.802
55.32000 171.294
55.36000 175.559
55.40000 189.628
55.44000 193.774
55.48000 198.063
55.52000 228.877
55.56000 263.441
55.60000 289.764
55.64000 339.959
55.68000 391.763
55.72000 468.508
55.76000 517.453
55.80000 578.126
55.84000 628.455
55.88000 636.184
55.92000 638.995
55.96000 607.647
56.00000 563.417
56.04000 509.026
56.08000 448.787
56.12000 407.859
56.16000 336.383
56.20000 300.596
56.24000 248.029
56.28000 228.429
56.32000 203.423
56.36000 185.714
56.40000 188.641
56.44000 171.365
56.48000 158.802
56.52000 161.164
56.56000 163.896
56.60000 163.495
56.64000 146.912
56.68000 165.600
56.72000 160.831
56.76000 138.724
56.80000 152.961
56.84000 143.634
56.88000 145.318
56.92000 158.456
56.96000 149.616
57.00000 161.715
57.04000 142.832
57.08000 142.753
57.12000 144.538
57.16000 147.159
57.20000 153.536
57.24000 141.161
57.28000 137.963
57.32000 152.442
57.36000 142.964
57.40000 145.550
57.44000 143.655
57.48000 149.349
57.52000 148.000
57.56000 148.346
57.60000 143.149
57.64000 138.656
57.68000 143.570
57.72000 148.270
57.76000 138.144
57.80000 145.841
57.84000 138.328
57.88000 144.074
57.92000 145.286
57.96000 132.733
58.00000 146.199
58.04000 147.797
58.08000 138.892
58.12000 144.302
58.16000 147.265
58.20000 141.709
58.24000 138.371
58.28000 138.523
58.32000 143.331
58.36000 146.971
58.40000 133.593
58.44000 129.667
58.48000 132.561
58.52000 131.525
58.56000 151.013
58.60000 133.513
58.64000 134.887
58.68000 131.613
58.72000 136.036
58.76000 145.723
58.80000 144.376
58.84000 132.190
58.88000 125.259
58.92000 140.115
58.96000 133.734
59.00000 124.004
59.04000 147.783
59.08000 141.728
59.12000 130.320
59.16000 136.157
59.20000 136.472
59.24000 130.218
59.28000 130.047
59.32000 132.053
59.36000 125.299
59.40000 133.146
59.44000 135.409
59.48000 124.676
59.52000 132.217
59.56000 121.534
59.60000 133.944
59.64000 139.586
59.68000 141.378
59.72000 130.331
59.76000 130.719
59.80000 138.233
59.84000 134.432
59.88000 136.711
59.92000 128.024
59.96000 126.978
60.00000 127.777
60.04000 130.850
60.08000 133.978
60.12000 126.905
60.16000 137.335
60.20000 146.877
60.24000 120.301
60.28000 121.583
60.32000 138.216
60.36000 130.471
60.40000 129.062
60.44000 132.510
60.48000 131.317
60.52000 139.021
60.56000 133.022
60.60000 131.905
60.64000 130.603
60.68000 131.132
60.72000 140.500
60.76000 137.941
60.80000 138.277
60.84000 142.674
60.88000 132.071
60.92000 127.745
60.96000 136.227
61.00000 134.993
61.04000 125.731
61.08000 137.572
61.12000 133.624
61.16000 139.474
61.20000 134.203
61.24000 139.283
61.28000 143.679
61.32000 144.255
61.36000 130.772
61.40000 140.309
61.44000 137.305
61.48000 147.364
61.52000 189.856
61.56000 241.632
61.60000 294.915
61.64000 321.985
61.68000 345.659
61.72000 348.076
61.76000 293.676
61.80000 274.143
61.84000 198.872
61.88000 173.965
61.92000 156.613
61.96000 138.868
62.00000 156.191
62.04000 148.453
62.08000 146.704
62.12000 149.602
62.16000 138.738
62.20000 149.397
62.24000 139.394
62.28000 135.649
62.32000 143.615
62.36000 144.663
62.40000 142.249
62.44000 152.183
62.48000 135.424
62.52000 140.251
62.56000 148.004
62.60000 146.049
62.64000 149.817
62.68000 156.663
62.72000 144.900
62.76000 142.392
62.80000 134.988
62.84000 153.173
62.88000 151.466
62.92000 138.005
62.96000 155.153
63.00000 151.686
63.04000 144.996
63.08000 151.511
63.12000 140.619
63.16000 148.852
63.20000 153.546
63.24000 147.789
63.28000 148.581
63.32000 154.806
63.36000 148.816
63.40000 146.168
63.44000 142.740
63.48000 144.836
63.52000 160.846
63.56000 139.517
63.60000 155.168
63.64000 148.654
63.68000 150.412
63.72000 153.133
63.76000 154.213
63.80000 162.891
63.84000 144.609
63.88000 157.853
63.92000 164.840
63.96000 156.812
64.00000 150.106
64.04000 156.455
64.08000 160.489
64.12000 156.084
64.16000 154.010
64.20000 170.037
64.24000 169.761
64.28000 152.930
64.32000 170.159
64.36000 172.978
64.40000 164.677
64.44000 163.667
64.48000 165.134
64.52000 163.641
64.56000 159.157
64.60000 180.112
64.64000 166.002
64.68000 178.713
64.72000 184.244
64.76000 176.805
64.80000 185.739
64.84000 189.785
64.88000 192.611
64.92000 196.000
64.96000 201.471
65.00000 205.458
65.04000 214.515
65.08000 219.771
65.12000 219.878
65.16000 241.063
65.20000 259.727
65.24000 300.616
65.28000 308.630
65.32000 346.342
65.36000 379.010
65.40000 392.513
65.44000 448.918
65.48000 462.248
65.52000 464.359
65.56000 492.317
65.60000 507.091
65.64000 528.266
65.68000 590.222
65.72000 780.271
65.76000 1076.774
65.80000 1324.597
65.84000 1394.230
65.88000 1401.078
65.92000 1358.143
65.96000 1121.119
66.00000 825.554
66.04000 570.656
66.08000 420.950
66.12000 356.200
66.16000 331.700
66.20000 347.398
66.24000 355.182
66.28000 393.049
66.32000 424.249
66.36000 496.702
66.40000 509.855
66.44000 538.043
66.48000 497.731
66.52000 494.633
66.56000 414.698
66.60000 357.908
66.64000 346.788
66.68000 330.149
66.72000 349.932
66.76000 359.072
66.80000 357.829
66.84000 372.145
66.88000 363.460
66.92000 364.255
66.96000 383.862
67.00000 383.885
67.04000 389.037
67.08000 388.734
67.12000 398.863
67.16000 417.563
67.20000 391.154
67.24000 404.673
67.28000 440.025
67.32000 428.485
67.36000 441.426
67.40000 448.197
67.44000 453.161
67.48000 461.879
67.52000 463.769
67.56000 463.029
67.60000 492.780
67.64000 508.031
67.68000 504.243
67.72000 515.919
67.76000 530.116
67.80000 539.314
67.84000 552.686
67.88000 555.609
67.92000 564.040
67.96000 585.326
68.00000 616.246
68.04000 614.471
68.08000 634.234
68.12000 645.059
68.16000 673.343
68.20000 667.794
68.24000 690.239
68.28000 701.716
68.32000 745.088
68.36000 793.107
68.40000 813.639
68.44000 852.774
68.48000 887.188
68.52000 956.359
68.56000 1050.695
68.60000 1149.861
68.64000 1423.761
68.68000 1728.142
68.72000 2057.398
68.76000 2369.354
68.80000 2723.214
68.84000 3380.729
68.88000 4794.393
68.92000 8929.485
68.96000 21304.920
69.00000 45093.047
69.04000 70643.703
69.08000 84526.406
69.12000 87817.031
69.16000 90363.469
69.20000 88817.031
69.24000 76479.820
69.28000 59945.742
69.32000 48489.480
69.36000 42250.984
69.40000 33855.797
69.44000 21785.156
69.48000 10725.555
69.52000 4734.828
69.56000 2758.763
69.60000 2008.096
69.64000 1671.816
69.68000 1420.916
69.72000 1263.786
69.76000 1157.518
69.80000 1051.024
69.84000 982.156
69.88000 925.289
69.92000 885.706
69.96000 858.574
70.00000 814.943