File: XRD/XRD/17-09-2025/XY Data/BTO_Mapping_Theta2Theta_09-17-2025_001_13_15-000_-15-000.xy
20.00000 530.036
20.04000 572.241
20.08000 568.331
20.12000 555.531
20.16000 555.699
20.20000 542.748
20.24000 557.511
20.28000 543.323
20.32000 549.313
20.36000 550.654
20.40000 556.758
20.44000 546.813
20.48000 544.881
20.52000 565.595
20.56000 547.969
20.60000 543.320
20.64000 554.524
20.68000 553.636
20.72000 536.128
20.76000 554.029
20.80000 562.299
20.84000 541.618
20.88000 546.585
20.92000 551.300
20.96000 542.653
21.00000 560.414
21.04000 533.244
21.08000 556.817
21.12000 558.513
21.16000 553.769
21.20000 540.132
21.24000 566.867
21.28000 532.400
21.32000 524.058
21.36000 564.690
21.40000 545.022
21.44000 545.159
21.48000 552.334
21.52000 546.188
21.56000 542.371
21.60000 544.253
21.64000 539.980
21.68000 553.753
21.72000 555.378
21.76000 562.437
21.80000 568.462
21.84000 580.388
21.88000 586.324
21.92000 610.121
21.96000 606.305
22.00000 643.901
22.04000 654.291
22.08000 666.032
22.12000 650.607
22.16000 644.585
22.20000 635.257
22.24000 627.570
22.28000 585.773
22.32000 567.016
22.36000 553.008
22.40000 548.801
22.44000 526.701
22.48000 528.395
22.52000 522.401
22.56000 529.840
22.60000 533.420
22.64000 529.515
22.68000 523.978
22.72000 510.121
22.76000 504.544
22.80000 513.616
22.84000 511.460
22.88000 503.194
22.92000 508.746
22.96000 501.673
23.00000 498.666
23.04000 508.499
23.08000 524.442
23.12000 514.549
23.16000 518.570
23.20000 510.774
23.24000 490.030
23.28000 494.833
23.32000 508.390
23.36000 499.607
23.40000 497.072
23.44000 489.030
23.48000 493.594
23.52000 496.040
23.56000 508.212
23.60000 503.684
23.64000 493.682
23.68000 497.231
23.72000 491.849
23.76000 491.418
23.80000 487.418
23.84000 486.989
23.88000 496.757
23.92000 492.637
23.96000 488.193
24.00000 485.590
24.04000 497.762
24.08000 494.307
24.12000 482.970
24.16000 472.628
24.20000 492.247
24.24000 480.591
24.28000 476.491
24.32000 486.457
24.36000 491.594
24.40000 479.787
24.44000 478.654
24.48000 474.162
24.52000 487.898
24.56000 487.050
24.60000 483.026
24.64000 483.145
24.68000 483.081
24.72000 480.449
24.76000 477.586
24.80000 471.248
24.84000 465.372
24.88000 470.484
24.92000 474.511
24.96000 472.411
25.00000 470.340
25.04000 466.279
25.08000 461.443
25.12000 472.707
25.16000 447.225
25.20000 465.577
25.24000 477.303
25.28000 453.800
25.32000 476.913
25.36000 441.562
25.40000 459.685
25.44000 460.472
25.48000 451.635
25.52000 460.033
25.56000 450.227
25.60000 454.524
25.64000 472.364
25.68000 452.713
25.72000 459.124
25.76000 439.770
25.80000 435.824
25.84000 453.956
25.88000 455.267
25.92000 471.587
25.96000 465.407
26.00000 460.159
26.04000 450.818
26.08000 458.180
26.12000 465.221
26.16000 458.478
26.20000 463.659
26.24000 439.182
26.28000 445.470
26.32000 440.929
26.36000 447.414
26.40000 447.050
26.44000 450.646
26.48000 438.084
26.52000 441.147
26.56000 446.921
26.60000 445.813
26.64000 426.842
26.68000 447.816
26.72000 442.871
26.76000 432.734
26.80000 442.804
26.84000 443.185
26.88000 450.754
26.92000 439.540
26.96000 445.089
27.00000 428.375
27.04000 443.062
27.08000 456.244
27.12000 436.590
27.16000 435.193
27.20000 447.391
27.24000 429.328
27.28000 433.011
27.32000 425.413
27.36000 441.679
27.40000 426.651
27.44000 428.571
27.48000 427.978
27.52000 433.107
27.56000 428.440
27.60000 445.610
27.64000 428.066
27.68000 446.914
27.72000 443.574
27.76000 420.945
27.80000 425.092
27.84000 423.567
27.88000 421.857
27.92000 436.656
27.96000 443.471
28.00000 425.760
28.04000 429.641
28.08000 420.187
28.12000 431.887
28.16000 429.079
28.20000 422.816
28.24000 416.593
28.28000 422.449
28.32000 422.256
28.36000 430.715
28.40000 416.532
28.44000 417.168
28.48000 437.920
28.52000 425.121
28.56000 421.655
28.60000 409.548
28.64000 421.599
28.68000 403.900
28.72000 416.690
28.76000 412.630
28.80000 408.504
28.84000 408.498
28.88000 415.842
28.92000 426.108
28.96000 430.280
29.00000 400.275
29.04000 412.726
29.08000 389.461
29.12000 387.028
29.16000 403.018
29.20000 396.855
29.24000 413.871
29.28000 413.889
29.32000 414.978
29.36000 411.543
29.40000 413.889
29.44000 408.468
29.48000 394.373
29.52000 414.185
29.56000 406.908
29.60000 409.583
29.64000 387.874
29.68000 401.168
29.72000 392.415
29.76000 419.514
29.80000 404.352
29.84000 405.164
29.88000 408.276
29.92000 431.454
29.96000 425.842
30.00000 435.690
30.04000 441.569
30.08000 439.547
30.12000 465.736
30.16000 431.601
30.20000 422.375
30.24000 424.971
30.28000 413.889
30.32000 413.942
30.36000 408.711
30.40000 409.415
30.44000 428.699
30.48000 426.162
30.52000 416.039
30.56000 425.855
30.60000 420.378
30.64000 416.830
30.68000 426.848
30.72000 420.939
30.76000 435.231
30.80000 437.673
30.84000 449.512
30.88000 472.056
30.92000 463.004
30.96000 493.834
31.00000 523.992
31.04000 582.585
31.08000 703.302
31.12000 841.913
31.16000 1072.428
31.20000 1440.498
31.24000 1886.194
31.28000 2375.576
31.32000 2858.480
31.36000 3224.543
31.40000 3299.404
31.44000 3223.788
31.48000 2898.248
31.52000 2374.934
31.56000 1790.850
31.60000 1353.077
31.64000 986.874
31.68000 742.667
31.72000 615.565
31.76000 521.553
31.80000 491.975
31.84000 471.445
31.88000 475.300
31.92000 438.095
31.96000 419.854
32.00000 414.663
32.04000 392.307
32.08000 413.943
32.12000 392.228
32.16000 393.618
32.20000 395.789
32.24000 397.208
32.28000 399.836
32.32000 385.670
32.36000 384.908
32.40000 386.624
32.44000 371.410
32.48000 359.054
32.52000 393.102
32.56000 381.786
32.60000 371.622
32.64000 384.430
32.68000 374.765
32.72000 377.654
32.76000 358.843
32.80000 356.833
32.84000 360.660
32.88000 353.192
32.92000 346.031
32.96000 356.217
33.00000 348.598
33.04000 355.113
33.08000 351.279
33.12000 342.968
33.16000 342.438
33.20000 349.634
33.24000 357.627
33.28000 332.491
33.32000 346.622
33.36000 344.247
33.40000 330.883
33.44000 339.955
33.48000 349.900
33.52000 343.886
33.56000 327.336
33.60000 340.355
33.64000 338.227
33.68000 334.687
33.72000 334.629
33.76000 335.077
33.80000 342.317
33.84000 349.277
33.88000 332.297
33.92000 338.686
33.96000 327.017
34.00000 335.057
34.04000 338.192
34.08000 317.204
34.12000 322.669
34.16000 343.036
34.20000 334.637
34.24000 321.141
34.28000 327.922
34.32000 335.776
34.36000 330.317
34.40000 340.416
34.44000 319.267
34.48000 319.040
34.52000 335.750
34.56000 310.965
34.60000 322.492
34.64000 312.823
34.68000 337.009
34.72000 315.168
34.76000 322.444
34.80000 316.787
34.84000 335.701
34.88000 321.589
34.92000 307.392
34.96000 321.828
35.00000 308.043
35.04000 313.003
35.08000 307.922
35.12000 312.203
35.16000 316.971
35.20000 297.253
35.24000 328.324
35.28000 317.950
35.32000 309.369
35.36000 306.137
35.40000 312.157
35.44000 323.531
35.48000 299.273
35.52000 307.947
35.56000 307.365
35.60000 302.420
35.64000 316.261
35.68000 312.016
35.72000 306.301
35.76000 304.903
35.80000 308.019
35.84000 299.168
35.88000 299.798
35.92000 295.708
35.96000 303.232
36.00000 296.758
36.04000 288.833
36.08000 303.917
36.12000 293.814
36.16000 303.705
36.20000 294.891
36.24000 299.721
36.28000 296.188
36.32000 293.856
36.36000 298.777
36.40000 299.937
36.44000 306.679
36.48000 299.919
36.52000 293.002
36.56000 295.028
36.60000 284.749
36.64000 292.164
36.68000 306.877
36.72000 307.075
36.76000 295.280
36.80000 298.029
36.84000 299.954
36.88000 310.912
36.92000 294.852
36.96000 303.465
37.00000 293.567
37.04000 301.416
37.08000 303.434
37.12000 301.961
37.16000 295.712
37.20000 295.356
37.24000 286.682
37.28000 291.186
37.32000 296.522
37.36000 287.607
37.40000 301.006
37.44000 288.392
37.48000 306.340
37.52000 294.122
37.56000 302.047
37.60000 304.748
37.64000 289.323
37.68000 291.929
37.72000 280.787
37.76000 295.068
37.80000 286.670
37.84000 297.288
37.88000 292.949
37.92000 275.939
37.96000 306.659
38.00000 284.923
38.04000 300.045
38.08000 277.032
38.12000 306.880
38.16000 302.996
38.20000 312.901
38.24000 307.482
38.28000 308.962
38.32000 314.764
38.36000 324.883
38.40000 347.573
38.44000 377.046
38.48000 441.731
38.52000 505.712
38.56000 598.777
38.60000 715.812
38.64000 832.200
38.68000 953.433
38.72000 995.587
38.76000 1012.351
38.80000 984.094
38.84000 853.078
38.88000 731.006
38.92000 603.498
38.96000 508.767
39.00000 418.378
39.04000 366.925
39.08000 323.375
39.12000 288.954
39.16000 290.042
39.20000 285.543
39.24000 283.721
39.28000 277.832
39.32000 275.969
39.36000 278.093
39.40000 270.079
39.44000 267.041
39.48000 283.815
39.52000 272.212
39.56000 276.474
39.60000 278.499
39.64000 254.122
39.68000 262.000
39.72000 260.665
39.76000 283.826
39.80000 254.066
39.84000 261.141
39.88000 268.457
39.92000 255.376
39.96000 273.292
40.00000 265.705
40.04000 258.415
40.08000 258.527
40.12000 253.397
40.16000 254.953
40.20000 248.937
40.24000 239.245
40.28000 259.335
40.32000 256.804
40.36000 264.609
40.40000 261.636
40.44000 254.119
40.48000 251.841
40.52000 253.891
40.56000 259.682
40.60000 243.602
40.64000 249.127
40.68000 243.224
40.72000 251.371
40.76000 256.874
40.80000 244.938
40.84000 253.218
40.88000 253.464
40.92000 245.037
40.96000 244.528
41.00000 253.506
41.04000 249.710
41.08000 236.381
41.12000 258.545
41.16000 242.569
41.20000 239.607
41.24000 249.540
41.28000 245.621
41.32000 240.020
41.36000 241.787
41.40000 246.622
41.44000 245.819
41.48000 233.463
41.52000 249.080
41.56000 230.166
41.60000 238.339
41.64000 233.874
41.68000 236.127
41.72000 233.173
41.76000 236.134
41.80000 248.777
41.84000 230.545
41.88000 225.570
41.92000 238.582
41.96000 240.456
42.00000 233.015
42.04000 234.409
42.08000 242.162
42.12000 246.809
42.16000 243.940
42.20000 231.241
42.24000 217.136
42.28000 231.711
42.32000 229.866
42.36000 231.786
42.40000 234.581
42.44000 220.047
42.48000 221.365
42.52000 223.855
42.56000 245.612
42.60000 234.824
42.64000 233.967
42.68000 223.083
42.72000 224.474
42.76000 231.455
42.80000 228.070
42.84000 230.508
42.88000 229.042
42.92000 241.573
42.96000 223.434
43.00000 229.894
43.04000 206.449
43.08000 219.635
43.12000 215.236
43.16000 216.363
43.20000 218.754
43.24000 232.819
43.28000 224.645
43.32000 229.420
43.36000 217.978
43.40000 218.761
43.44000 220.653
43.48000 233.694
43.52000 214.253
43.56000 215.736
43.60000 229.000
43.64000 227.504
43.68000 231.482
43.72000 220.877
43.76000 227.930
43.80000 217.273
43.84000 225.766
43.88000 211.856
43.92000 221.818
43.96000 220.657
44.00000 205.079
44.04000 219.305
44.08000 222.052
44.12000 213.968
44.16000 220.090
44.20000 229.991
44.24000 215.005
44.28000 219.769
44.32000 229.912
44.36000 217.000
44.40000 219.340
44.44000 210.231
44.48000 213.788
44.52000 226.938
44.56000 207.446
44.60000 215.814
44.64000 236.441
44.68000 217.239
44.72000 236.852
44.76000 232.645
44.80000 236.011
44.84000 242.908
44.88000 255.840
44.92000 270.758
44.96000 287.870
45.00000 298.332
45.04000 326.534
45.08000 317.948
45.12000 305.633
45.16000 326.591
45.20000 322.623
45.24000 330.812
45.28000 302.184
45.32000 267.365
45.36000 277.229
45.40000 264.227
45.44000 254.768
45.48000 230.540
45.52000 248.751
45.56000 236.280
45.60000 216.402
45.64000 234.080
45.68000 224.322
45.72000 223.905
45.76000 218.905
45.80000 211.454
45.84000 202.182
45.88000 198.061
45.92000 209.798
45.96000 202.044
46.00000 199.577
46.04000 200.214
46.08000 200.353
46.12000 194.790
46.16000 202.368
46.20000 205.246
46.24000 212.647
46.28000 202.725
46.32000 206.479
46.36000 214.043
46.40000 195.109
46.44000 199.664
46.48000 202.011
46.52000 209.593
46.56000 193.410
46.60000 189.913
46.64000 178.096
46.68000 198.652
46.72000 196.494
46.76000 186.774
46.80000 186.822
46.84000 194.146
46.88000 208.801
46.92000 201.591
46.96000 200.559
47.00000 192.935
47.04000 190.674
47.08000 190.350
47.12000 185.109
47.16000 195.404
47.20000 187.455
47.24000 190.970
47.28000 195.484
47.32000 193.032
47.36000 195.479
47.40000 181.149
47.44000 184.047
47.48000 183.237
47.52000 185.784
47.56000 190.401
47.60000 182.878
47.64000 186.361
47.68000 187.431
47.72000 181.252
47.76000 191.253
47.80000 201.530
47.84000 188.944
47.88000 177.858
47.92000 181.072
47.96000 177.634
48.00000 181.825
48.04000 193.221
48.08000 176.296
48.12000 186.283
48.16000 176.627
48.20000 186.872
48.24000 192.116
48.28000 180.390
48.32000 181.168
48.36000 188.881
48.40000 191.103
48.44000 178.370
48.48000 184.789
48.52000 183.136
48.56000 170.319
48.60000 175.057
48.64000 179.762
48.68000 182.670
48.72000 177.430
48.76000 169.987
48.80000 169.445
48.84000 180.606
48.88000 181.331
48.92000 171.825
48.96000 163.331
49.00000 171.698
49.04000 174.140
49.08000 182.815
49.12000 164.359
49.16000 164.943
49.20000 180.694
49.24000 165.189
49.28000 174.450
49.32000 164.304
49.36000 175.519
49.40000 173.097
49.44000 172.979
49.48000 174.319
49.52000 167.793
49.56000 177.985
49.60000 172.808
49.64000 176.477
49.68000 174.789
49.72000 170.294
49.76000 177.338
49.80000 170.117
49.84000 167.117
49.88000 175.671
49.92000 169.785
49.96000 177.289
50.00000 170.370
50.04000 172.086
50.08000 178.135
50.12000 186.563
50.16000 177.513
50.20000 176.582
50.24000 170.360
50.28000 177.154
50.32000 171.876
50.36000 177.246
50.40000 181.070
50.44000 192.407
50.48000 198.941
50.52000 210.550
50.56000 217.529
50.60000 235.762
50.64000 244.716
50.68000 242.418
50.72000 261.949
50.76000 267.807
50.80000 261.310
50.84000 246.751
50.88000 238.647
50.92000 220.318
50.96000 207.764
51.00000 215.933
51.04000 184.348
51.08000 186.475
51.12000 177.793
51.16000 170.048
51.20000 174.430
51.24000 168.222
51.28000 166.781
51.32000 165.859
51.36000 162.694
51.40000 162.914
51.44000 154.595
51.48000 166.653
51.52000 182.461
51.56000 163.506
51.60000 163.873
51.64000 165.627
51.68000 167.068
51.72000 154.475
51.76000 155.929
51.80000 158.288
51.84000 164.827
51.88000 154.917
51.92000 161.589
51.96000 157.677
52.00000 157.262
52.04000 171.352
52.08000 159.248
52.12000 166.034
52.16000 174.039
52.20000 156.088
52.24000 163.384
52.28000 161.688
52.32000 159.337
52.36000 153.998
52.40000 148.234
52.44000 165.680
52.48000 157.320
52.52000 161.741
52.56000 157.084
52.60000 160.647
52.64000 161.762
52.68000 152.776
52.72000 161.892
52.76000 167.096
52.80000 163.846
52.84000 160.215
52.88000 148.288
52.92000 153.015
52.96000 150.817
53.00000 153.454
53.04000 157.951
53.08000 150.147
53.12000 154.709
53.16000 156.164
53.20000 159.543
53.24000 162.516
53.28000 152.140
53.32000 160.695
53.36000 164.651
53.40000 146.381
53.44000 157.774
53.48000 166.039
53.52000 156.041
53.56000 160.256
53.60000 154.286
53.64000 165.923
53.68000 156.913
53.72000 149.370
53.76000 157.279
53.80000 166.066
53.84000 153.853
53.88000 152.442
53.92000 160.653
53.96000 155.115
54.00000 151.526
54.04000 158.879
54.08000 154.992
54.12000 158.276
54.16000 154.057
54.20000 160.326
54.24000 159.981
54.28000 153.292
54.32000 147.679
54.36000 150.575
54.40000 153.640
54.44000 152.610
54.48000 142.485
54.52000 154.376
54.56000 157.493
54.60000 162.669
54.64000 149.155
54.68000 143.601
54.72000 151.056
54.76000 149.128
54.80000 152.834
54.84000 145.308
54.88000 152.145
54.92000 155.644
54.96000 166.921
55.00000 146.411
55.04000 153.216
55.08000 158.050
55.12000 159.910
55.16000 154.878
55.20000 150.586
55.24000 151.958
55.28000 166.634
55.32000 163.459
55.36000 157.177
55.40000 175.380
55.44000 180.715
55.48000 165.252
55.52000 190.109
55.56000 194.393
55.60000 205.502
55.64000 243.881
55.68000 268.533
55.72000 313.024
55.76000 382.642
55.80000 419.423
55.84000 496.237
55.88000 556.709
55.92000 630.058
55.96000 644.831
56.00000 663.166
56.04000 624.440
56.08000 549.482
56.12000 518.878
56.16000 453.345
56.20000 386.579
56.24000 309.132
56.28000 273.360
56.32000 261.742
56.36000 215.400
56.40000 201.774
56.44000 178.910
56.48000 184.024
56.52000 161.263
56.56000 155.520
56.60000 156.728
56.64000 152.257
56.68000 156.430
56.72000 156.114
56.76000 149.609
56.80000 146.808
56.84000 150.549
56.88000 146.914
56.92000 146.904
56.96000 150.266
57.00000 148.884
57.04000 148.562
57.08000 138.311
57.12000 149.661
57.16000 132.443
57.20000 149.976
57.24000 141.274
57.28000 140.533
57.32000 144.201
57.36000 134.546
57.40000 138.698
57.44000 144.917
57.48000 140.809
57.52000 148.110
57.56000 137.671
57.60000 137.046
57.64000 149.536
57.68000 145.557
57.72000 143.120
57.76000 150.666
57.80000 145.516
57.84000 141.563
57.88000 145.627
57.92000 148.866
57.96000 135.751
58.00000 135.343
58.04000 140.551
58.08000 131.746
58.12000 134.244
58.16000 140.225
58.20000 135.181
58.24000 144.650
58.28000 139.326
58.32000 132.112
58.36000 131.404
58.40000 147.272
58.44000 143.657
58.48000 130.696
58.52000 132.814
58.56000 129.103
58.60000 134.316
58.64000 140.756
58.68000 131.764
58.72000 129.794
58.76000 138.868
58.80000 132.626
58.84000 143.777
58.88000 142.169
58.92000 141.322
58.96000 130.405
59.00000 128.855
59.04000 128.089
59.08000 143.858
59.12000 137.741
59.16000 144.626
59.20000 131.877
59.24000 134.892
59.28000 133.929
59.32000 142.946
59.36000 139.410
59.40000 148.022
59.44000 137.702
59.48000 123.283
59.52000 125.227
59.56000 140.131
59.60000 126.269
59.64000 131.788
59.68000 128.397
59.72000 144.407
59.76000 131.580
59.80000 144.546
59.84000 137.189
59.88000 125.302
59.92000 139.496
59.96000 130.873
60.00000 135.480
60.04000 133.405
60.08000 137.522
60.12000 126.780
60.16000 134.183
60.20000 131.938
60.24000 130.054
60.28000 126.282
60.32000 119.090
60.36000 128.475
60.40000 124.659
60.44000 136.914
60.48000 134.871
60.52000 138.854
60.56000 130.540
60.60000 129.976
60.64000 150.379
60.68000 134.601
60.72000 131.223
60.76000 138.238
60.80000 138.701
60.84000 120.381
60.88000 134.153
60.92000 134.773
60.96000 131.780
61.00000 131.027
61.04000 136.302
61.08000 133.540
61.12000 128.630
61.16000 128.184
61.20000 137.237
61.24000 135.586
61.28000 127.969
61.32000 131.158
61.36000 132.844
61.40000 136.431
61.44000 138.833
61.48000 138.908
61.52000 150.567
61.56000 196.588
61.60000 218.333
61.64000 250.528
61.68000 268.231
61.72000 262.859
61.76000 253.937
61.80000 202.755
61.84000 168.249
61.88000 143.194
61.92000 142.776
61.96000 132.497
62.00000 137.058
62.04000 133.349
62.08000 145.271
62.12000 136.218
62.16000 146.135
62.20000 140.455
62.24000 147.346
62.28000 131.080
62.32000 136.966
62.36000 140.421
62.40000 136.214
62.44000 144.368
62.48000 136.988
62.52000 142.515
62.56000 134.222
62.60000 134.777
62.64000 137.252
62.68000 128.420
62.72000 141.228
62.76000 147.296
62.80000 139.639
62.84000 135.567
62.88000 146.507
62.92000 138.865
62.96000 146.294
63.00000 134.376
63.04000 131.384
63.08000 140.691
63.12000 136.689
63.16000 148.589
63.20000 148.218
63.24000 134.685
63.28000 143.328
63.32000 149.509
63.36000 154.369
63.40000 147.244
63.44000 151.083
63.48000 140.386
63.52000 143.757
63.56000 145.428
63.60000 145.071
63.64000 158.148
63.68000 150.641
63.72000 154.348
63.76000 142.574
63.80000 155.765
63.84000 145.207
63.88000 144.601
63.92000 159.798
63.96000 161.607
64.00000 158.240
64.04000 167.868
64.08000 151.971
64.12000 153.776
64.16000 161.553
64.20000 154.101
64.24000 155.411
64.28000 148.107
64.32000 154.698
64.36000 157.336
64.40000 161.532
64.44000 158.958
64.48000 168.915
64.52000 158.437
64.56000 158.115
64.60000 160.532
64.64000 171.886
64.68000 165.250
64.72000 172.848
64.76000 163.929
64.80000 164.201
64.84000 179.518
64.88000 182.724
64.92000 172.590
64.96000 179.444
65.00000 185.655
65.04000 191.166
65.08000 199.780
65.12000 194.209
65.16000 204.994
65.20000 214.148
65.24000 221.130
65.28000 225.130
65.32000 254.045
65.36000 276.997
65.40000 320.245
65.44000 336.053
65.48000 349.498
65.52000 369.269
65.56000 401.239
65.60000 393.344
65.64000 433.070
65.68000 498.977
65.72000 607.190
65.76000 792.333
65.80000 914.759
65.84000 970.838
65.88000 966.638
65.92000 917.994
65.96000 757.811
66.00000 555.475
66.04000 396.102
66.08000 325.936
66.12000 304.024
66.16000 292.893
66.20000 279.761
66.24000 280.939
66.28000 313.418
66.32000 344.617
66.36000 368.580
66.40000 369.748
66.44000 402.777
66.48000 390.248
66.52000 365.088
66.56000 332.717
66.60000 307.402
66.64000 303.719
66.68000 300.756
66.72000 304.676
66.76000 302.909
66.80000 303.974
66.84000 311.057
66.88000 293.692
66.92000 303.448
66.96000 317.794
67.00000 322.286
67.04000 320.584
67.08000 322.424
67.12000 328.917
67.16000 343.888
67.20000 340.442
67.24000 334.920
67.28000 341.155
67.32000 362.444
67.36000 380.498
67.40000 372.571
67.44000 376.616
67.48000 403.591
67.52000 392.286
67.56000 399.452
67.60000 415.705
67.64000 413.747
67.68000 424.925
67.72000 440.090
67.76000 438.505
67.80000 439.164
67.84000 445.597
67.88000 461.626
67.92000 485.921
67.96000 479.216
68.00000 483.343
68.04000 510.620
68.08000 541.136
68.12000 515.653
68.16000 546.643
68.20000 523.927
68.24000 579.474
68.28000 568.056
68.32000 614.356
68.36000 645.078
68.40000 641.626
68.44000 685.257
68.48000 662.134
68.52000 748.854
68.56000 792.890
68.60000 839.076
68.64000 1037.076
68.68000 1214.900
68.72000 1416.590
68.76000 1602.731
68.80000 1792.783
68.84000 2023.141
68.88000 2542.986
68.92000 4434.806
68.96000 11938.014
69.00000 27092.994
69.04000 42356.004
69.08000 49668.832
69.12000 50524.973
69.16000 52418.879
69.20000 52406.906
69.24000 42849.570
69.28000 32822.137
69.32000 26904.467
69.36000 24409.711
69.40000 19737.066
69.44000 11443.846
69.48000 5310.214
69.52000 2349.274
69.56000 1545.554
69.60000 1306.629
69.64000 1135.771
69.68000 998.223
69.72000 904.486
69.76000 826.793
69.80000 780.148
69.84000 741.192
69.88000 698.122
69.92000 676.893
69.96000 670.917
70.00000 637.076