File: XRD/XRD/17-09-2025/XY Data/BTO_Mapping_Theta2Theta_09-17-2025_001_15_45-000_-15-000.xy
20.00000 552.169
20.04000 571.616
20.08000 552.386
20.12000 562.410
20.16000 569.064
20.20000 563.591
20.24000 554.572
20.28000 540.485
20.32000 532.129
20.36000 556.911
20.40000 568.522
20.44000 553.310
20.48000 570.824
20.52000 512.352
20.56000 560.365
20.60000 545.497
20.64000 553.055
20.68000 549.788
20.72000 570.580
20.76000 529.421
20.80000 531.705
20.84000 533.390
20.88000 535.596
20.92000 557.511
20.96000 545.001
21.00000 549.081
21.04000 541.746
21.08000 536.551
21.12000 550.056
21.16000 564.038
21.20000 540.425
21.24000 554.193
21.28000 529.999
21.32000 539.890
21.36000 526.935
21.40000 528.328
21.44000 524.799
21.48000 543.123
21.52000 535.161
21.56000 558.391
21.60000 554.822
21.64000 545.123
21.68000 541.366
21.72000 535.134
21.76000 544.734
21.80000 552.885
21.84000 559.993
21.88000 570.623
21.92000 571.290
21.96000 581.723
22.00000 552.232
22.04000 595.298
22.08000 582.172
22.12000 578.074
22.16000 574.502
22.20000 581.695
22.24000 571.257
22.28000 544.760
22.32000 544.209
22.36000 524.807
22.40000 553.972
22.44000 531.737
22.48000 530.557
22.52000 523.420
22.56000 535.173
22.60000 530.379
22.64000 513.255
22.68000 509.244
22.72000 514.516
22.76000 513.705
22.80000 506.863
22.84000 514.392
22.88000 532.528
22.92000 515.997
22.96000 509.174
23.00000 510.919
23.04000 498.859
23.08000 506.039
23.12000 507.757
23.16000 509.961
23.20000 489.189
23.24000 512.457
23.28000 497.217
23.32000 481.180
23.36000 509.782
23.40000 494.176
23.44000 492.768
23.48000 479.732
23.52000 513.661
23.56000 492.140
23.60000 512.426
23.64000 503.081
23.68000 506.947
23.72000 498.014
23.76000 491.519
23.80000 503.992
23.84000 524.492
23.88000 501.179
23.92000 500.385
23.96000 507.457
24.00000 512.724
24.04000 476.751
24.08000 494.947
24.12000 504.019
24.16000 510.865
24.20000 482.266
24.24000 483.800
24.28000 475.188
24.32000 474.242
24.36000 495.310
24.40000 490.272
24.44000 460.457
24.48000 471.306
24.52000 470.597
24.56000 479.448
24.60000 491.916
24.64000 484.984
24.68000 469.071
24.72000 474.996
24.76000 476.372
24.80000 473.792
24.84000 478.949
24.88000 478.315
24.92000 481.362
24.96000 470.243
25.00000 470.071
25.04000 466.004
25.08000 468.750
25.12000 457.043
25.16000 484.504
25.20000 458.753
25.24000 472.847
25.28000 465.950
25.32000 461.880
25.36000 452.485
25.40000 476.762
25.44000 449.960
25.48000 473.574
25.52000 465.946
25.56000 457.522
25.60000 450.252
25.64000 448.652
25.68000 440.622
25.72000 458.390
25.76000 453.057
25.80000 450.917
25.84000 456.915
25.88000 438.643
25.92000 465.132
25.96000 462.618
26.00000 434.695
26.04000 459.212
26.08000 460.664
26.12000 457.557
26.16000 458.633
26.20000 426.472
26.24000 432.539
26.28000 429.888
26.32000 450.871
26.36000 438.615
26.40000 452.647
26.44000 434.371
26.48000 440.974
26.52000 455.240
26.56000 459.667
26.60000 442.497
26.64000 447.858
26.68000 434.090
26.72000 446.547
26.76000 442.800
26.80000 427.325
26.84000 459.845
26.88000 432.318
26.92000 432.821
26.96000 427.001
27.00000 425.084
27.04000 425.825
27.08000 439.993
27.12000 427.348
27.16000 430.775
27.20000 439.807
27.24000 434.819
27.28000 436.479
27.32000 434.868
27.36000 427.842
27.40000 416.005
27.44000 425.670
27.48000 427.223
27.52000 429.517
27.56000 427.686
27.60000 421.268
27.64000 407.832
27.68000 424.324
27.72000 422.884
27.76000 399.338
27.80000 418.291
27.84000 427.459
27.88000 410.759
27.92000 422.112
27.96000 415.015
28.00000 407.606
28.04000 411.048
28.08000 412.569
28.12000 421.304
28.16000 421.770
28.20000 405.049
28.24000 407.095
28.28000 413.335
28.32000 424.953
28.36000 406.105
28.40000 409.703
28.44000 399.411
28.48000 418.271
28.52000 433.806
28.56000 411.683
28.60000 419.619
28.64000 409.477
28.68000 422.234
28.72000 414.992
28.76000 416.091
28.80000 430.665
28.84000 411.753
28.88000 426.791
28.92000 413.706
28.96000 400.990
29.00000 404.812
29.04000 400.156
29.08000 394.974
29.12000 398.365
29.16000 406.844
29.20000 406.770
29.24000 399.712
29.28000 425.341
29.32000 419.940
29.36000 408.671
29.40000 396.372
29.44000 382.657
29.48000 398.935
29.52000 389.022
29.56000 402.005
29.60000 396.009
29.64000 392.778
29.68000 399.836
29.72000 378.341
29.76000 380.460
29.80000 394.051
29.84000 406.064
29.88000 400.253
29.92000 396.714
29.96000 389.577
30.00000 388.819
30.04000 386.895
30.08000 398.061
30.12000 404.589
30.16000 376.698
30.20000 392.848
30.24000 387.465
30.28000 378.039
30.32000 393.346
30.36000 397.628
30.40000 390.531
30.44000 380.261
30.48000 396.790
30.52000 391.475
30.56000 385.535
30.60000 395.318
30.64000 399.416
30.68000 389.112
30.72000 386.668
30.76000 409.294
30.80000 401.628
30.84000 401.179
30.88000 422.536
30.92000 425.158
30.96000 425.912
31.00000 450.924
31.04000 471.777
31.08000 509.765
31.12000 540.726
31.16000 607.711
31.20000 661.333
31.24000 709.704
31.28000 745.101
31.32000 770.227
31.36000 797.991
31.40000 748.189
31.44000 702.241
31.48000 661.046
31.52000 589.099
31.56000 537.287
31.60000 505.649
31.64000 464.028
31.68000 422.807
31.72000 415.011
31.76000 409.655
31.80000 398.992
31.84000 387.453
31.88000 378.494
31.92000 377.438
31.96000 373.079
32.00000 374.848
32.04000 388.797
32.08000 363.609
32.12000 363.405
32.16000 356.000
32.20000 351.978
32.24000 355.910
32.28000 367.251
32.32000 350.590
32.36000 352.709
32.40000 373.671
32.44000 347.830
32.48000 354.298
32.52000 356.794
32.56000 355.247
32.60000 355.139
32.64000 360.494
32.68000 349.661
32.72000 344.418
32.76000 333.222
32.80000 345.320
32.84000 340.229
32.88000 334.391
32.92000 339.070
32.96000 357.537
33.00000 342.652
33.04000 329.760
33.08000 337.561
33.12000 327.016
33.16000 332.245
33.20000 340.964
33.24000 324.867
33.28000 331.972
33.32000 327.783
33.36000 329.351
33.40000 342.976
33.44000 334.290
33.48000 337.271
33.52000 336.526
33.56000 331.086
33.60000 338.132
33.64000 354.730
33.68000 328.250
33.72000 353.782
33.76000 331.108
33.80000 332.019
33.84000 331.630
33.88000 326.283
33.92000 332.494
33.96000 323.749
34.00000 335.525
34.04000 340.524
34.08000 319.731
34.12000 324.171
34.16000 330.790
34.20000 333.772
34.24000 330.354
34.28000 325.557
34.32000 338.903
34.36000 340.659
34.40000 338.400
34.44000 326.437
34.48000 340.977
34.52000 315.972
34.56000 327.198
34.60000 311.286
34.64000 319.785
34.68000 313.584
34.72000 317.659
34.76000 318.529
34.80000 324.577
34.84000 312.904
34.88000 307.396
34.92000 307.657
34.96000 303.314
35.00000 299.240
35.04000 314.901
35.08000 323.269
35.12000 335.610
35.16000 302.975
35.20000 301.908
35.24000 300.526
35.28000 289.780
35.32000 295.552
35.36000 304.782
35.40000 292.152
35.44000 299.357
35.48000 300.711
35.52000 293.675
35.56000 306.093
35.60000 289.709
35.64000 305.757
35.68000 305.007
35.72000 308.248
35.76000 300.575
35.80000 285.488
35.84000 294.466
35.88000 296.906
35.92000 295.779
35.96000 303.871
36.00000 300.779
36.04000 293.104
36.08000 304.617
36.12000 306.327
36.16000 293.914
36.20000 298.978
36.24000 288.916
36.28000 295.917
36.32000 298.032
36.36000 285.605
36.40000 301.667
36.44000 298.540
36.48000 283.074
36.52000 276.072
36.56000 267.893
36.60000 288.584
36.64000 287.178
36.68000 283.548
36.72000 274.562
36.76000 299.334
36.80000 281.881
36.84000 287.245
36.88000 304.028
36.92000 288.961
36.96000 276.069
37.00000 298.000
37.04000 256.322
37.08000 300.481
37.12000 277.148
37.16000 280.632
37.20000 289.231
37.24000 280.420
37.28000 252.515
37.32000 291.009
37.36000 266.883
37.40000 279.328
37.44000 274.988
37.48000 292.054
37.52000 277.631
37.56000 281.942
37.60000 285.565
37.64000 274.217
37.68000 285.074
37.72000 284.794
37.76000 276.904
37.80000 279.637
37.84000 288.863
37.88000 284.960
37.92000 280.256
37.96000 260.934
38.00000 286.169
38.04000 285.837
38.08000 284.053
38.12000 276.009
38.16000 286.172
38.20000 276.757
38.24000 283.319
38.28000 282.907
38.32000 291.166
38.36000 271.220
38.40000 301.044
38.44000 318.209
38.48000 321.481
38.52000 364.218
38.56000 387.429
38.60000 407.361
38.64000 409.331
38.68000 449.925
38.72000 420.869
38.76000 406.810
38.80000 368.197
38.84000 355.622
38.88000 326.705
38.92000 292.975
38.96000 291.453
39.00000 273.307
39.04000 286.464
39.08000 277.761
39.12000 262.617
39.16000 286.420
39.20000 268.312
39.24000 279.402
39.28000 262.792
39.32000 276.703
39.36000 262.787
39.40000 263.272
39.44000 252.388
39.48000 257.730
39.52000 267.319
39.56000 250.772
39.60000 261.880
39.64000 262.483
39.68000 264.607
39.72000 245.693
39.76000 268.991
39.80000 249.720
39.84000 235.199
39.88000 256.546
39.92000 241.541
39.96000 258.864
40.00000 256.725
40.04000 254.181
40.08000 248.254
40.12000 251.569
40.16000 239.492
40.20000 250.886
40.24000 240.243
40.28000 240.877
40.32000 248.325
40.36000 248.066
40.40000 254.064
40.44000 239.099
40.48000 239.158
40.52000 249.140
40.56000 236.092
40.60000 248.258
40.64000 226.971
40.68000 240.513
40.72000 237.272
40.76000 244.851
40.80000 220.677
40.84000 247.538
40.88000 236.995
40.92000 238.299
40.96000 254.024
41.00000 258.457
41.04000 238.904
41.08000 238.564
41.12000 243.188
41.16000 247.640
41.20000 233.507
41.24000 240.990
41.28000 229.667
41.32000 230.509
41.36000 245.248
41.40000 240.914
41.44000 240.873
41.48000 238.871
41.52000 240.322
41.56000 237.785
41.60000 233.180
41.64000 240.792
41.68000 237.155
41.72000 230.582
41.76000 228.323
41.80000 221.207
41.84000 234.165
41.88000 241.778
41.92000 232.900
41.96000 232.339
42.00000 234.640
42.04000 242.966
42.08000 235.046
42.12000 233.775
42.16000 229.014
42.20000 226.565
42.24000 252.242
42.28000 218.449
42.32000 242.302
42.36000 235.336
42.40000 250.758
42.44000 244.754
42.48000 227.744
42.52000 230.851
42.56000 229.588
42.60000 235.533
42.64000 217.465
42.68000 229.194
42.72000 225.161
42.76000 227.399
42.80000 218.136
42.84000 204.970
42.88000 228.440
42.92000 240.832
42.96000 231.159
43.00000 219.706
43.04000 224.653
43.08000 224.989
43.12000 224.398
43.16000 217.552
43.20000 217.426
43.24000 216.824
43.28000 228.841
43.32000 218.559
43.36000 207.118
43.40000 233.486
43.44000 207.938
43.48000 217.171
43.52000 220.206
43.56000 221.871
43.60000 228.724
43.64000 221.150
43.68000 224.912
43.72000 211.323
43.76000 222.814
43.80000 216.543
43.84000 217.085
43.88000 227.665
43.92000 213.194
43.96000 203.107
44.00000 216.659
44.04000 219.593
44.08000 211.015
44.12000 222.925
44.16000 227.616
44.20000 216.872
44.24000 208.400
44.28000 197.984
44.32000 217.310
44.36000 214.602
44.40000 222.873
44.44000 208.544
44.48000 219.010
44.52000 228.321
44.56000 227.954
44.60000 217.427
44.64000 228.984
44.68000 237.296
44.72000 250.307
44.76000 247.342
44.80000 222.622
44.84000 248.620
44.88000 258.216
44.92000 258.837
44.96000 256.443
45.00000 241.143
45.04000 252.388
45.08000 239.845
45.12000 252.559
45.16000 246.230
45.20000 242.214
45.24000 233.520
45.28000 240.265
45.32000 235.933
45.36000 229.407
45.40000 220.594
45.44000 212.568
45.48000 224.751
45.52000 224.546
45.56000 201.390
45.60000 217.984
45.64000 204.347
45.68000 207.721
45.72000 209.247
45.76000 198.603
45.80000 206.981
45.84000 196.329
45.88000 209.551
45.92000 209.182
45.96000 195.771
46.00000 214.885
46.04000 202.275
46.08000 205.245
46.12000 193.057
46.16000 199.131
46.20000 182.963
46.24000 194.014
46.28000 202.773
46.32000 199.884
46.36000 196.874
46.40000 197.663
46.44000 183.137
46.48000 181.247
46.52000 192.183
46.56000 190.519
46.60000 188.077
46.64000 188.340
46.68000 207.675
46.72000 190.779
46.76000 189.212
46.80000 174.720
46.84000 199.409
46.88000 206.067
46.92000 190.980
46.96000 188.031
47.00000 184.250
47.04000 197.850
47.08000 188.159
47.12000 184.883
47.16000 190.526
47.20000 186.292
47.24000 187.236
47.28000 184.311
47.32000 184.007
47.36000 185.598
47.40000 190.595
47.44000 187.501
47.48000 182.375
47.52000 194.815
47.56000 187.945
47.60000 185.347
47.64000 179.412
47.68000 187.928
47.72000 189.668
47.76000 182.989
47.80000 182.882
47.84000 182.885
47.88000 177.922
47.92000 178.045
47.96000 180.617
48.00000 182.797
48.04000 184.428
48.08000 173.015
48.12000 175.116
48.16000 178.040
48.20000 186.955
48.24000 178.303
48.28000 180.179
48.32000 178.642
48.36000 171.098
48.40000 172.435
48.44000 165.201
48.48000 178.252
48.52000 179.535
48.56000 183.051
48.60000 177.181
48.64000 190.562
48.68000 179.364
48.72000 176.602
48.76000 160.816
48.80000 182.783
48.84000 181.832
48.88000 178.325
48.92000 184.548
48.96000 169.834
49.00000 173.871
49.04000 180.366
49.08000 179.350
49.12000 181.208
49.16000 174.090
49.20000 182.059
49.24000 176.803
49.28000 173.307
49.32000 181.301
49.36000 183.744
49.40000 180.825
49.44000 171.575
49.48000 173.711
49.52000 181.686
49.56000 183.580
49.60000 179.081
49.64000 161.892
49.68000 169.886
49.72000 179.829
49.76000 168.044
49.80000 165.584
49.84000 163.415
49.88000 168.078
49.92000 168.304
49.96000 171.912
50.00000 166.601
50.04000 179.672
50.08000 172.441
50.12000 159.884
50.16000 170.971
50.20000 160.973
50.24000 171.967
50.28000 161.057
50.32000 177.785
50.36000 167.308
50.40000 178.005
50.44000 184.712
50.48000 169.013
50.52000 178.783
50.56000 176.771
50.60000 173.634
50.64000 185.655
50.68000 184.703
50.72000 183.137
50.76000 173.138
50.80000 173.064
50.84000 171.524
50.88000 165.940
50.92000 170.224
50.96000 165.531
51.00000 175.835
51.04000 167.830
51.08000 165.450
51.12000 165.398
51.16000 165.902
51.20000 167.691
51.24000 165.644
51.28000 164.200
51.32000 174.946
51.36000 157.872
51.40000 148.871
51.44000 170.150
51.48000 157.730
51.52000 151.600
51.56000 164.214
51.60000 153.772
51.64000 153.835
51.68000 162.542
51.72000 155.423
51.76000 156.214
51.80000 155.558
51.84000 159.655
51.88000 153.640
51.92000 163.909
51.96000 149.644
52.00000 167.592
52.04000 150.202
52.08000 160.884
52.12000 157.970
52.16000 144.128
52.20000 155.665
52.24000 158.500
52.28000 161.749
52.32000 160.785
52.36000 159.041
52.40000 158.293
52.44000 153.920
52.48000 146.738
52.52000 146.132
52.56000 152.796
52.60000 151.900
52.64000 157.932
52.68000 143.434
52.72000 155.977
52.76000 159.738
52.80000 158.606
52.84000 156.926
52.88000 163.435
52.92000 155.721
52.96000 142.145
53.00000 152.808
53.04000 146.040
53.08000 151.547
53.12000 150.691
53.16000 153.959
53.20000 160.827
53.24000 159.486
53.28000 158.063
53.32000 158.384
53.36000 158.019
53.40000 162.329
53.44000 160.014
53.48000 156.591
53.52000 145.484
53.56000 139.469
53.60000 145.648
53.64000 147.866
53.68000 157.036
53.72000 146.106
53.76000 149.774
53.80000 130.108
53.84000 148.112
53.88000 154.581
53.92000 142.354
53.96000 148.671
54.00000 147.951
54.04000 153.803
54.08000 150.312
54.12000 151.453
54.16000 142.728
54.20000 147.420
54.24000 148.250
54.28000 146.876
54.32000 147.944
54.36000 146.726
54.40000 144.133
54.44000 154.449
54.48000 149.156
54.52000 152.724
54.56000 143.649
54.60000 153.094
54.64000 141.799
54.68000 153.263
54.72000 161.843
54.76000 136.339
54.80000 153.923
54.84000 151.949
54.88000 148.706
54.92000 138.536
54.96000 147.545
55.00000 145.643
55.04000 153.607
55.08000 148.611
55.12000 151.652
55.16000 145.033
55.20000 155.391
55.24000 143.654
55.28000 150.103
55.32000 152.113
55.36000 140.656
55.40000 149.784
55.44000 163.410
55.48000 165.033
55.52000 170.602
55.56000 171.393
55.60000 171.310
55.64000 191.020
55.68000 196.276
55.72000 204.962
55.76000 229.642
55.80000 206.894
55.84000 232.807
55.88000 217.435
55.92000 218.249
55.96000 225.725
56.00000 217.674
56.04000 213.884
56.08000 179.837
56.12000 192.878
56.16000 186.092
56.20000 156.495
56.24000 155.241
56.28000 164.510
56.32000 160.057
56.36000 149.234
56.40000 145.194
56.44000 148.512
56.48000 149.582
56.52000 145.538
56.56000 144.994
56.60000 139.754
56.64000 138.353
56.68000 149.359
56.72000 144.074
56.76000 139.693
56.80000 136.926
56.84000 143.664
56.88000 135.484
56.92000 125.905
56.96000 145.364
57.00000 131.837
57.04000 129.772
57.08000 135.758
57.12000 142.551
57.16000 145.750
57.20000 140.832
57.24000 133.852
57.28000 136.949
57.32000 133.666
57.36000 137.333
57.40000 145.010
57.44000 125.182
57.48000 142.142
57.52000 144.597
57.56000 133.399
57.60000 139.468
57.64000 139.988
57.68000 135.204
57.72000 142.954
57.76000 132.628
57.80000 125.917
57.84000 121.776
57.88000 137.347
57.92000 127.210
57.96000 127.107
58.00000 132.540
58.04000 137.445
58.08000 135.629
58.12000 139.972
58.16000 141.193
58.20000 143.366
58.24000 129.706
58.28000 138.415
58.32000 139.464
58.36000 137.113
58.40000 138.964
58.44000 137.318
58.48000 132.621
58.52000 139.787
58.56000 127.839
58.60000 123.487
58.64000 139.008
58.68000 134.536
58.72000 135.250
58.76000 139.583
58.80000 138.213
58.84000 136.291
58.88000 127.812
58.92000 136.705
58.96000 148.822
59.00000 122.133
59.04000 131.212
59.08000 139.280
59.12000 135.816
59.16000 135.640
59.20000 133.291
59.24000 141.650
59.28000 119.696
59.32000 137.187
59.36000 135.627
59.40000 133.350
59.44000 127.943
59.48000 138.915
59.52000 138.669
59.56000 130.293
59.60000 136.369
59.64000 131.258
59.68000 126.744
59.72000 124.635
59.76000 126.148
59.80000 128.702
59.84000 136.539
59.88000 143.809
59.92000 124.352
59.96000 134.457
60.00000 134.153
60.04000 135.813
60.08000 131.681
60.12000 116.568
60.16000 126.063
60.20000 132.792
60.24000 134.170
60.28000 142.273
60.32000 136.615
60.36000 134.228
60.40000 137.615
60.44000 122.726
60.48000 120.248
60.52000 129.873
60.56000 129.908
60.60000 133.484
60.64000 126.941
60.68000 138.609
60.72000 119.677
60.76000 140.080
60.80000 142.152
60.84000 134.372
60.88000 130.251
60.92000 133.399
60.96000 144.045
61.00000 136.265
61.04000 137.441
61.08000 139.753
61.12000 150.615
61.16000 133.557
61.20000 133.070
61.24000 136.147
61.28000 137.594
61.32000 136.668
61.36000 133.883
61.40000 138.898
61.44000 135.332
61.48000 147.384
61.52000 158.132
61.56000 190.562
61.60000 221.009
61.64000 253.884
61.68000 240.971
61.72000 257.669
61.76000 269.124
61.80000 222.324
61.84000 168.875
61.88000 162.721
61.92000 144.705
61.96000 142.016
62.00000 141.086
62.04000 142.827
62.08000 135.424
62.12000 142.201
62.16000 143.883
62.20000 138.115
62.24000 138.785
62.28000 141.814
62.32000 137.714
62.36000 133.130
62.40000 142.655
62.44000 133.147
62.48000 140.015
62.52000 137.892
62.56000 139.195
62.60000 144.349
62.64000 140.315
62.68000 141.473
62.72000 143.654
62.76000 136.427
62.80000 144.276
62.84000 142.389
62.88000 156.920
62.92000 131.019
62.96000 144.921
63.00000 151.000
63.04000 146.139
63.08000 140.726
63.12000 145.621
63.16000 143.645
63.20000 141.522
63.24000 140.081
63.28000 156.263
63.32000 143.048
63.36000 150.519
63.40000 143.896
63.44000 151.473
63.48000 144.003
63.52000 156.746
63.56000 164.104
63.60000 145.713
63.64000 155.353
63.68000 149.519
63.72000 141.819
63.76000 152.051
63.80000 155.738
63.84000 143.104
63.88000 155.572
63.92000 154.531
63.96000 153.822
64.00000 158.635
64.04000 161.562
64.08000 157.423
64.12000 162.603
64.16000 162.389
64.20000 158.447
64.24000 156.245
64.28000 167.448
64.32000 175.650
64.36000 162.474
64.40000 157.624
64.44000 160.767
64.48000 177.774
64.52000 168.610
64.56000 172.203
64.60000 159.412
64.64000 174.206
64.68000 171.293
64.72000 172.186
64.76000 167.768
64.80000 170.287
64.84000 173.603
64.88000 179.562
64.92000 176.543
64.96000 180.578
65.00000 189.407
65.04000 191.561
65.08000 210.180
65.12000 189.792
65.16000 182.282
65.20000 205.050
65.24000 196.549
65.28000 202.569
65.32000 210.490
65.36000 214.975
65.40000 227.948
65.44000 219.334
65.48000 228.086
65.52000 234.102
65.56000 242.566
65.60000 248.486
65.64000 278.317
65.68000 316.135
65.72000 445.026
65.76000 630.099
65.80000 795.075
65.84000 892.770
65.88000 932.229
65.92000 898.493
65.96000 765.911
66.00000 583.357
66.04000 419.094
66.08000 335.254
66.12000 311.822
66.16000 291.390
66.20000 294.496
66.24000 295.309
66.28000 312.270
66.32000 346.552
66.36000 402.200
66.40000 416.365
66.44000 416.361
66.48000 418.524
66.52000 390.610
66.56000 360.474
66.60000 319.005
66.64000 302.461
66.68000 300.018
66.72000 304.107
66.76000 329.779
66.80000 333.474
66.84000 324.564
66.88000 327.517
66.92000 322.376
66.96000 335.869
67.00000 333.955
67.04000 344.708
67.08000 352.324
67.12000 352.408
67.16000 365.020
67.20000 380.723
67.24000 381.812
67.28000 384.653
67.32000 385.607
67.36000 406.308
67.40000 390.043
67.44000 415.492
67.48000 418.114
67.52000 415.674
67.56000 433.972
67.60000 431.152
67.64000 450.613
67.68000 457.224
67.72000 471.869
67.76000 476.071
67.80000 480.564
67.84000 480.894
67.88000 485.758
67.92000 516.371
67.96000 524.550
68.00000 539.324
68.04000 564.556
68.08000 549.373
68.12000 557.500
68.16000 588.762
68.20000 590.315
68.24000 617.133
68.28000 641.564
68.32000 656.592
68.36000 674.383
68.40000 687.003
68.44000 715.130
68.48000 749.101
68.52000 805.729
68.56000 840.708
68.60000 936.446
68.64000 1060.239
68.68000 1268.924
68.72000 1473.827
68.76000 1642.156
68.80000 1827.761
68.84000 2084.380
68.88000 2504.716
68.92000 4093.648
68.96000 10399.731
69.00000 25213.367
69.04000 42166.082
69.08000 51659.922
69.12000 53505.910
69.16000 55064.246
69.20000 56356.098
69.24000 48201.422
69.28000 36063.438
69.32000 29219.705
69.36000 26544.625
69.40000 22615.852
69.44000 14181.220
69.48000 6462.982
69.52000 2828.729
69.56000 1822.300
69.60000 1441.370
69.64000 1222.035
69.68000 1112.070
69.72000 1007.968
69.76000 926.611
69.80000 867.940
69.84000 831.816
69.88000 775.774
69.92000 731.084
69.96000 688.878
70.00000 662.771