File: XRD/XRD/17-09-2025/XY Data/BTO_Mapping_Theta2Theta_09-17-2025_001_33_15-000_30-000.xy
20.00000 558.954
20.04000 543.409
20.08000 537.850
20.12000 546.195
20.16000 545.784
20.20000 563.787
20.24000 545.259
20.28000 559.046
20.32000 532.343
20.36000 554.428
20.40000 556.135
20.44000 524.858
20.48000 549.561
20.52000 562.494
20.56000 541.192
20.60000 533.624
20.64000 550.278
20.68000 557.776
20.72000 552.619
20.76000 543.484
20.80000 550.897
20.84000 532.159
20.88000 549.827
20.92000 538.313
20.96000 534.056
21.00000 540.797
21.04000 552.643
21.08000 531.724
21.12000 532.625
21.16000 528.692
21.20000 559.033
21.24000 537.443
21.28000 543.587
21.32000 535.291
21.36000 550.478
21.40000 531.141
21.44000 561.160
21.48000 525.626
21.52000 528.410
21.56000 524.298
21.60000 534.028
21.64000 554.282
21.68000 538.147
21.72000 542.499
21.76000 539.312
21.80000 547.361
21.84000 556.747
21.88000 566.862
21.92000 586.174
21.96000 607.570
22.00000 611.337
22.04000 629.190
22.08000 622.065
22.12000 621.456
22.16000 628.893
22.20000 616.337
22.24000 597.173
22.28000 559.368
22.32000 560.229
22.36000 546.952
22.40000 557.322
22.44000 527.058
22.48000 521.953
22.52000 510.814
22.56000 523.242
22.60000 530.086
22.64000 511.929
22.68000 510.164
22.72000 512.870
22.76000 504.110
22.80000 512.691
22.84000 513.928
22.88000 502.868
22.92000 511.064
22.96000 510.567
23.00000 492.531
23.04000 494.546
23.08000 501.986
23.12000 490.832
23.16000 489.742
23.20000 511.428
23.24000 509.630
23.28000 497.656
23.32000 516.950
23.36000 508.949
23.40000 492.166
23.44000 488.671
23.48000 474.195
23.52000 513.252
23.56000 500.012
23.60000 517.517
23.64000 499.937
23.68000 483.089
23.72000 488.663
23.76000 494.905
23.80000 496.469
23.84000 520.310
23.88000 505.405
23.92000 509.647
23.96000 505.793
24.00000 519.600
24.04000 512.170
24.08000 497.032
24.12000 494.995
24.16000 484.507
24.20000 494.451
24.24000 496.542
24.28000 488.727
24.32000 501.973
24.36000 485.617
24.40000 480.190
24.44000 494.866
24.48000 476.109
24.52000 472.830
24.56000 459.300
24.60000 497.099
24.64000 478.622
24.68000 472.871
24.72000 479.605
24.76000 483.627
24.80000 477.100
24.84000 477.147
24.88000 478.213
24.92000 485.772
24.96000 470.910
25.00000 466.869
25.04000 475.077
25.08000 460.975
25.12000 473.262
25.16000 473.217
25.20000 471.447
25.24000 463.727
25.28000 482.407
25.32000 468.811
25.36000 460.685
25.40000 461.247
25.44000 461.351
25.48000 473.412
25.52000 472.368
25.56000 452.222
25.60000 453.192
25.64000 461.360
25.68000 474.076
25.72000 463.001
25.76000 458.004
25.80000 457.058
25.84000 457.983
25.88000 460.841
25.92000 453.177
25.96000 437.279
26.00000 457.758
26.04000 441.873
26.08000 456.852
26.12000 454.543
26.16000 460.423
26.20000 450.463
26.24000 444.475
26.28000 449.640
26.32000 446.928
26.36000 455.477
26.40000 441.786
26.44000 434.581
26.48000 439.756
26.52000 446.302
26.56000 435.826
26.60000 460.248
26.64000 452.063
26.68000 446.440
26.72000 450.904
26.76000 446.537
26.80000 444.478
26.84000 441.948
26.88000 445.123
26.92000 451.901
26.96000 455.278
27.00000 439.841
27.04000 436.369
27.08000 440.742
27.12000 416.514
27.16000 445.068
27.20000 455.491
27.24000 446.286
27.28000 435.224
27.32000 413.841
27.36000 440.695
27.40000 446.878
27.44000 428.613
27.48000 452.796
27.52000 417.846
27.56000 415.065
27.60000 439.577
27.64000 437.287
27.68000 426.959
27.72000 433.319
27.76000 430.650
27.80000 432.893
27.84000 419.917
27.88000 416.673
27.92000 441.214
27.96000 433.779
28.00000 430.332
28.04000 436.138
28.08000 440.048
28.12000 413.805
28.16000 417.795
28.20000 419.044
28.24000 430.265
28.28000 434.013
28.32000 431.530
28.36000 417.760
28.40000 409.321
28.44000 406.430
28.48000 400.711
28.52000 415.855
28.56000 431.252
28.60000 409.264
28.64000 413.963
28.68000 427.486
28.72000 404.584
28.76000 418.151
28.80000 438.505
28.84000 413.169
28.88000 417.315
28.92000 415.653
28.96000 412.458
29.00000 386.046
29.04000 408.435
29.08000 396.854
29.12000 418.671
29.16000 406.883
29.20000 413.371
29.24000 406.664
29.28000 420.557
29.32000 418.817
29.36000 397.668
29.40000 402.603
29.44000 403.656
29.48000 401.805
29.52000 392.402
29.56000 414.382
29.60000 413.915
29.64000 403.473
29.68000 397.099
29.72000 418.428
29.76000 404.021
29.80000 408.872
29.84000 421.859
29.88000 404.588
29.92000 409.929
29.96000 411.576
30.00000 429.058
30.04000 415.640
30.08000 440.389
30.12000 438.876
30.16000 435.311
30.20000 433.421
30.24000 400.334
30.28000 403.634
30.32000 408.779
30.36000 425.943
30.40000 400.907
30.44000 406.413
30.48000 406.313
30.52000 414.387
30.56000 416.897
30.60000 421.294
30.64000 413.234
30.68000 434.165
30.72000 418.526
30.76000 432.543
30.80000 419.579
30.84000 416.799
30.88000 457.207
30.92000 465.689
30.96000 482.858
31.00000 485.505
31.04000 550.049
31.08000 621.151
31.12000 724.829
31.16000 868.032
31.20000 1143.597
31.24000 1503.558
31.28000 1828.807
31.32000 2283.043
31.36000 2587.166
31.40000 2661.815
31.44000 2611.972
31.48000 2372.016
31.52000 1964.840
31.56000 1594.312
31.60000 1218.388
31.64000 913.141
31.68000 719.416
31.72000 581.968
31.76000 516.586
31.80000 477.060
31.84000 433.345
31.88000 422.033
31.92000 429.496
31.96000 416.520
32.00000 427.959
32.04000 403.863
32.08000 394.636
32.12000 398.485
32.16000 394.827
32.20000 391.113
32.24000 385.621
32.28000 378.073
32.32000 390.051
32.36000 380.169
32.40000 385.937
32.44000 400.022
32.48000 391.658
32.52000 381.542
32.56000 374.018
32.60000 375.710
32.64000 357.471
32.68000 362.243
32.72000 345.028
32.76000 356.405
32.80000 345.974
32.84000 359.840
32.88000 356.259
32.92000 360.828
32.96000 342.321
33.00000 337.724
33.04000 347.521
33.08000 332.112
33.12000 351.951
33.16000 351.473
33.20000 362.215
33.24000 351.575
33.28000 344.001
33.32000 331.385
33.36000 338.989
33.40000 324.317
33.44000 333.646
33.48000 323.307
33.52000 339.264
33.56000 325.231
33.60000 336.276
33.64000 340.838
33.68000 337.324
33.72000 335.434
33.76000 328.559
33.80000 337.297
33.84000 351.783
33.88000 335.648
33.92000 336.543
33.96000 331.252
34.00000 346.888
34.04000 339.098
34.08000 341.244
34.12000 344.583
34.16000 335.363
34.20000 342.954
34.24000 348.762
34.28000 340.120
34.32000 358.039
34.36000 332.155
34.40000 350.757
34.44000 343.333
34.48000 354.986
34.52000 349.817
34.56000 330.119
34.60000 329.498
34.64000 334.960
34.68000 311.830
34.72000 332.715
34.76000 341.605
34.80000 326.341
34.84000 338.743
34.88000 331.923
34.92000 331.978
34.96000 313.949
35.00000 313.918
35.04000 310.682
35.08000 316.105
35.12000 328.030
35.16000 311.065
35.20000 305.631
35.24000 292.873
35.28000 296.626
35.32000 305.902
35.36000 306.770
35.40000 296.581
35.44000 319.597
35.48000 302.683
35.52000 309.303
35.56000 312.920
35.60000 300.594
35.64000 308.210
35.68000 302.037
35.72000 321.519
35.76000 296.593
35.80000 289.958
35.84000 311.462
35.88000 311.182
35.92000 302.883
35.96000 303.187
36.00000 285.664
36.04000 288.593
36.08000 293.273
36.12000 300.450
36.16000 301.056
36.20000 299.115
36.24000 291.610
36.28000 297.435
36.32000 281.748
36.36000 283.919
36.40000 281.751
36.44000 292.473
36.48000 282.914
36.52000 290.622
36.56000 294.495
36.60000 303.231
36.64000 295.230
36.68000 294.468
36.72000 301.101
36.76000 305.395
36.80000 284.940
36.84000 308.619
36.88000 298.295
36.92000 297.714
36.96000 300.925
37.00000 310.079
37.04000 290.519
37.08000 303.480
37.12000 302.718
37.16000 297.610
37.20000 296.884
37.24000 299.043
37.28000 296.158
37.32000 291.680
37.36000 295.390
37.40000 285.382
37.44000 295.350
37.48000 285.885
37.52000 286.638
37.56000 270.246
37.60000 298.091
37.64000 286.307
37.68000 285.720
37.72000 293.732
37.76000 302.409
37.80000 284.868
37.84000 281.529
37.88000 295.075
37.92000 291.757
37.96000 290.382
38.00000 294.661
38.04000 285.912
38.08000 290.170
38.12000 308.006
38.16000 297.486
38.20000 297.337
38.24000 294.361
38.28000 279.470
38.32000 328.550
38.36000 321.557
38.40000 337.757
38.44000 368.545
38.48000 425.180
38.52000 480.334
38.56000 557.785
38.60000 697.680
38.64000 866.490
38.68000 1011.843
38.72000 1065.752
38.76000 1114.353
38.80000 1096.453
38.84000 1003.695
38.88000 851.004
38.92000 687.180
38.96000 570.672
39.00000 458.265
39.04000 380.928
39.08000 334.021
39.12000 318.320
39.16000 303.379
39.20000 294.966
39.24000 284.873
39.28000 268.391
39.32000 265.906
39.36000 294.324
39.40000 271.432
39.44000 281.788
39.48000 282.681
39.52000 275.986
39.56000 273.277
39.60000 271.665
39.64000 264.014
39.68000 269.694
39.72000 271.079
39.76000 261.184
39.80000 270.703
39.84000 270.508
39.88000 269.546
39.92000 266.224
39.96000 266.084
40.00000 251.791
40.04000 256.849
40.08000 254.759
40.12000 247.629
40.16000 266.060
40.20000 264.643
40.24000 254.414
40.28000 258.639
40.32000 258.975
40.36000 256.707
40.40000 255.529
40.44000 257.177
40.48000 243.871
40.52000 244.844
40.56000 235.407
40.60000 266.208
40.64000 256.379
40.68000 256.505
40.72000 246.555
40.76000 247.135
40.80000 251.201
40.84000 248.615
40.88000 251.059
40.92000 249.580
40.96000 235.899
41.00000 240.247
41.04000 244.600
41.08000 236.797
41.12000 254.043
41.16000 246.308
41.20000 245.166
41.24000 248.339
41.28000 244.791
41.32000 245.023
41.36000 247.230
41.40000 230.533
41.44000 238.250
41.48000 241.587
41.52000 243.202
41.56000 239.243
41.60000 236.550
41.64000 227.966
41.68000 234.687
41.72000 244.071
41.76000 236.826
41.80000 234.543
41.84000 236.926
41.88000 240.457
41.92000 239.768
41.96000 240.951
42.00000 230.641
42.04000 235.687
42.08000 227.415
42.12000 220.430
42.16000 235.039
42.20000 229.750
42.24000 240.834
42.28000 239.466
42.32000 235.128
42.36000 218.307
42.40000 233.365
42.44000 233.564
42.48000 237.390
42.52000 237.472
42.56000 236.222
42.60000 230.712
42.64000 220.461
42.68000 226.731
42.72000 233.552
42.76000 223.237
42.80000 230.080
42.84000 222.950
42.88000 239.677
42.92000 221.992
42.96000 225.891
43.00000 228.503
43.04000 228.670
43.08000 228.229
43.12000 218.510
43.16000 231.446
43.20000 234.607
43.24000 234.220
43.28000 236.908
43.32000 210.993
43.36000 218.268
43.40000 216.542
43.44000 223.732
43.48000 229.326
43.52000 214.376
43.56000 217.255
43.60000 226.128
43.64000 229.342
43.68000 216.177
43.72000 211.888
43.76000 217.707
43.80000 216.347
43.84000 224.160
43.88000 202.355
43.92000 220.417
43.96000 210.522
44.00000 214.430
44.04000 215.126
44.08000 214.587
44.12000 213.550
44.16000 220.367
44.20000 209.054
44.24000 219.996
44.28000 212.685
44.32000 222.212
44.36000 212.627
44.40000 205.426
44.44000 217.876
44.48000 213.136
44.52000 229.204
44.56000 224.413
44.60000 226.618
44.64000 231.582
44.68000 231.853
44.72000 223.309
44.76000 242.202
44.80000 242.661
44.84000 228.641
44.88000 240.790
44.92000 251.855
44.96000 264.007
45.00000 276.706
45.04000 304.259
45.08000 311.867
45.12000 289.048
45.16000 282.944
45.20000 268.472
45.24000 285.655
45.28000 283.457
45.32000 250.748
45.36000 263.037
45.40000 246.872
45.44000 241.758
45.48000 236.403
45.52000 239.100
45.56000 233.358
45.60000 221.646
45.64000 208.047
45.68000 227.804
45.72000 195.407
45.76000 207.351
45.80000 212.154
45.84000 205.710
45.88000 208.189
45.92000 206.201
45.96000 203.270
46.00000 208.392
46.04000 203.341
46.08000 200.513
46.12000 191.812
46.16000 205.089
46.20000 201.896
46.24000 199.124
46.28000 210.901
46.32000 193.812
46.36000 215.651
46.40000 204.249
46.44000 210.543
46.48000 201.165
46.52000 203.746
46.56000 183.414
46.60000 200.238
46.64000 205.736
46.68000 209.060
46.72000 201.128
46.76000 206.209
46.80000 192.843
46.84000 195.594
46.88000 203.016
46.92000 191.968
46.96000 191.327
47.00000 191.150
47.04000 193.149
47.08000 202.874
47.12000 184.565
47.16000 188.552
47.20000 184.154
47.24000 188.757
47.28000 189.384
47.32000 190.926
47.36000 188.684
47.40000 196.923
47.44000 183.421
47.48000 180.375
47.52000 178.754
47.56000 195.410
47.60000 185.937
47.64000 178.762
47.68000 186.948
47.72000 182.294
47.76000 175.995
47.80000 181.376
47.84000 191.516
47.88000 185.767
47.92000 183.924
47.96000 181.866
48.00000 185.841
48.04000 179.211
48.08000 180.119
48.12000 187.868
48.16000 174.052
48.20000 175.879
48.24000 179.381
48.28000 178.037
48.32000 177.087
48.36000 179.682
48.40000 178.026
48.44000 185.392
48.48000 178.368
48.52000 178.710
48.56000 177.557
48.60000 189.373
48.64000 174.739
48.68000 178.167
48.72000 183.466
48.76000 168.107
48.80000 173.121
48.84000 179.458
48.88000 182.061
48.92000 183.997
48.96000 187.092
49.00000 180.982
49.04000 186.321
49.08000 182.869
49.12000 176.151
49.16000 174.918
49.20000 176.129
49.24000 165.879
49.28000 176.758
49.32000 185.621
49.36000 177.357
49.40000 175.729
49.44000 181.253
49.48000 182.241
49.52000 171.303
49.56000 174.551
49.60000 170.474
49.64000 175.484
49.68000 182.828
49.72000 189.133
49.76000 161.763
49.80000 183.469
49.84000 164.586
49.88000 156.369
49.92000 170.920
49.96000 175.342
50.00000 161.175
50.04000 172.960
50.08000 190.735
50.12000 179.245
50.16000 171.434
50.20000 175.671
50.24000 184.905
50.28000 175.615
50.32000 171.462
50.36000 171.844
50.40000 185.052
50.44000 189.497
50.48000 184.972
50.52000 193.211
50.56000 210.698
50.60000 215.491
50.64000 223.741
50.68000 238.166
50.72000 230.042
50.76000 225.072
50.80000 234.729
50.84000 222.762
50.88000 218.376
50.92000 201.400
50.96000 208.015
51.00000 207.741
51.04000 181.511
51.08000 173.037
51.12000 182.326
51.16000 180.107
51.20000 175.744
51.24000 169.509
51.28000 172.716
51.32000 172.545
51.36000 161.990
51.40000 161.205
51.44000 164.997
51.48000 161.849
51.52000 159.386
51.56000 162.043
51.60000 153.680
51.64000 152.318
51.68000 165.469
51.72000 159.441
51.76000 160.203
51.80000 158.033
51.84000 171.617
51.88000 168.163
51.92000 166.961
51.96000 160.759
52.00000 157.661
52.04000 167.771
52.08000 161.950
52.12000 159.837
52.16000 153.431
52.20000 160.085
52.24000 157.026
52.28000 157.903
52.32000 167.235
52.36000 164.288
52.40000 162.296
52.44000 164.660
52.48000 152.421
52.52000 158.223
52.56000 165.601
52.60000 161.084
52.64000 158.681
52.68000 156.046
52.72000 152.732
52.76000 160.394
52.80000 148.632
52.84000 153.776
52.88000 163.168
52.92000 158.950
52.96000 154.332
53.00000 150.168
53.04000 151.714
53.08000 150.515
53.12000 152.680
53.16000 154.312
53.20000 158.296
53.24000 153.863
53.28000 144.818
53.32000 161.589
53.36000 146.977
53.40000 163.408
53.44000 155.137
53.48000 151.000
53.52000 166.425
53.56000 153.045
53.60000 147.296
53.64000 164.241
53.68000 156.841
53.72000 156.012
53.76000 158.569
53.80000 146.709
53.84000 164.213
53.88000 162.429
53.92000 157.161
53.96000 159.489
54.00000 157.173
54.04000 155.339
54.08000 150.025
54.12000 151.872
54.16000 156.791
54.20000 152.226
54.24000 152.613
54.28000 158.371
54.32000 150.151
54.36000 153.508
54.40000 153.811
54.44000 161.187
54.48000 163.192
54.52000 145.945
54.56000 145.929
54.60000 154.654
54.64000 141.188
54.68000 160.966
54.72000 154.669
54.76000 149.969
54.80000 152.616
54.84000 162.104
54.88000 159.855
54.92000 135.837
54.96000 147.008
55.00000 155.123
55.04000 163.730
55.08000 156.699
55.12000 162.835
55.16000 148.239
55.20000 164.577
55.24000 162.193
55.28000 163.050
55.32000 175.677
55.36000 150.107
55.40000 175.483
55.44000 170.722
55.48000 184.545
55.52000 183.711
55.56000 186.861
55.60000 212.164
55.64000 237.176
55.68000 264.936
55.72000 303.559
55.76000 354.140
55.80000 420.015
55.84000 479.235
55.88000 534.046
55.92000 597.258
55.96000 615.988
56.00000 621.155
56.04000 611.886
56.08000 565.797
56.12000 485.707
56.16000 447.936
56.20000 384.520
56.24000 325.536
56.28000 287.849
56.32000 239.509
56.36000 224.623
56.40000 210.693
56.44000 182.839
56.48000 176.194
56.52000 176.548
56.56000 161.798
56.60000 157.947
56.64000 154.523
56.68000 159.334
56.72000 153.889
56.76000 152.576
56.80000 153.522
56.84000 151.607
56.88000 146.771
56.92000 152.205
56.96000 143.669
57.00000 149.564
57.04000 152.939
57.08000 142.372
57.12000 144.619
57.16000 143.732
57.20000 135.596
57.24000 143.431
57.28000 145.029
57.32000 139.381
57.36000 143.604
57.40000 149.365
57.44000 143.253
57.48000 144.647
57.52000 146.146
57.56000 144.611
57.60000 144.326
57.64000 145.079
57.68000 145.879
57.72000 140.644
57.76000 136.816
57.80000 138.272
57.84000 151.204
57.88000 141.376
57.92000 139.686
57.96000 136.166
58.00000 150.576
58.04000 140.191
58.08000 132.006
58.12000 136.123
58.16000 145.061
58.20000 132.249
58.24000 134.988
58.28000 133.684
58.32000 129.325
58.36000 139.444
58.40000 141.385
58.44000 128.760
58.48000 138.856
58.52000 132.530
58.56000 132.052
58.60000 145.590
58.64000 142.697
58.68000 136.800
58.72000 142.279
58.76000 129.491
58.80000 136.840
58.84000 145.265
58.88000 127.133
58.92000 130.847
58.96000 118.891
59.00000 142.570
59.04000 141.670
59.08000 139.307
59.12000 139.178
59.16000 135.137
59.20000 126.219
59.24000 133.256
59.28000 138.231
59.32000 134.006
59.36000 133.961
59.40000 139.395
59.44000 132.690
59.48000 141.510
59.52000 129.412
59.56000 131.403
59.60000 131.639
59.64000 126.013
59.68000 136.058
59.72000 139.613
59.76000 135.340
59.80000 124.857
59.84000 137.653
59.88000 134.144
59.92000 135.860
59.96000 132.046
60.00000 140.827
60.04000 133.478
60.08000 130.112
60.12000 132.755
60.16000 132.129
60.20000 129.335
60.24000 134.580
60.28000 131.356
60.32000 136.747
60.36000 128.152
60.40000 128.960
60.44000 132.161
60.48000 135.666
60.52000 131.465
60.56000 129.104
60.60000 129.657
60.64000 127.388
60.68000 134.220
60.72000 149.270
60.76000 139.333
60.80000 135.539
60.84000 131.779
60.88000 133.036
60.92000 139.285
60.96000 142.359
61.00000 140.653
61.04000 143.478
61.08000 144.053
61.12000 132.934
61.16000 119.269
61.20000 137.031
61.24000 132.926
61.28000 152.060
61.32000 139.982
61.36000 137.576
61.40000 133.770
61.44000 133.446
61.48000 134.501
61.52000 159.780
61.56000 170.186
61.60000 215.647
61.64000 235.751
61.68000 240.817
61.72000 246.732
61.76000 243.879
61.80000 207.680
61.84000 176.447
61.88000 143.021
61.92000 141.773
61.96000 135.339
62.00000 132.227
62.04000 139.697
62.08000 134.248
62.12000 143.989
62.16000 138.012
62.20000 151.759
62.24000 139.771
62.28000 134.839
62.32000 136.043
62.36000 127.290
62.40000 152.047
62.44000 145.305
62.48000 145.678
62.52000 135.782
62.56000 136.675
62.60000 134.835
62.64000 137.390
62.68000 151.397
62.72000 133.878
62.76000 136.853
62.80000 127.899
62.84000 140.461
62.88000 128.386
62.92000 140.713
62.96000 143.498
63.00000 145.929
63.04000 148.016
63.08000 142.861
63.12000 137.102
63.16000 147.806
63.20000 141.120
63.24000 141.091
63.28000 142.722
63.32000 159.166
63.36000 144.736
63.40000 138.484
63.44000 141.050
63.48000 142.088
63.52000 150.401
63.56000 149.639
63.60000 145.087
63.64000 138.355
63.68000 141.635
63.72000 151.177
63.76000 152.794
63.80000 141.193
63.84000 150.677
63.88000 155.152
63.92000 139.525
63.96000 148.628
64.00000 149.189
64.04000 140.292
64.08000 153.465
64.12000 149.898
64.16000 155.711
64.20000 143.196
64.24000 146.822
64.28000 156.611
64.32000 166.661
64.36000 160.622
64.40000 159.008
64.44000 173.244
64.48000 166.057
64.52000 160.698
64.56000 153.350
64.60000 171.030
64.64000 157.917
64.68000 172.614
64.72000 166.954
64.76000 173.397
64.80000 168.259
64.84000 167.098
64.88000 173.297
64.92000 164.452
64.96000 172.433
65.00000 180.223
65.04000 191.166
65.08000 186.741
65.12000 187.540
65.16000 201.545
65.20000 202.089
65.24000 215.027
65.28000 232.402
65.32000 233.119
65.36000 248.437
65.40000 285.457
65.44000 305.520
65.48000 306.865
65.52000 334.616
65.56000 345.948
65.60000 362.287
65.64000 382.981
65.68000 406.316
65.72000 525.561
65.76000 648.755
65.80000 792.552
65.84000 867.690
65.88000 885.161
65.92000 857.933
65.96000 743.871
66.00000 550.909
66.04000 391.955
66.08000 330.417
66.12000 298.150
66.16000 287.759
66.20000 265.808
66.24000 289.609
66.28000 302.421
66.32000 330.242
66.36000 361.302
66.40000 381.971
66.44000 384.768
66.48000 383.939
66.52000 362.338
66.56000 325.879
66.60000 315.709
66.64000 298.926
66.68000 288.272
66.72000 294.075
66.76000 283.390
66.80000 289.603
66.84000 280.394
66.88000 309.830
66.92000 317.340
66.96000 303.834
67.00000 307.931
67.04000 334.701
67.08000 323.330
67.12000 341.353
67.16000 334.645
67.20000 343.888
67.24000 354.058
67.28000 334.019
67.32000 349.597
67.36000 378.735
67.40000 386.338
67.44000 362.332
67.48000 375.611
67.52000 387.328
67.56000 408.193
67.60000 403.418
67.64000 394.582
67.68000 419.642
67.72000 428.330
67.76000 433.022
67.80000 430.321
67.84000 457.422
67.88000 465.865
67.92000 463.117
67.96000 474.666
68.00000 493.712
68.04000 506.084
68.08000 500.148
68.12000 517.470
68.16000 522.768
68.20000 537.650
68.24000 557.755
68.28000 574.740
68.32000 603.880
68.36000 613.424
68.40000 638.535
68.44000 656.775
68.48000 695.910
68.52000 709.403
68.56000 728.710
68.60000 838.480
68.64000 963.828
68.68000 1156.815
68.72000 1280.289
68.76000 1506.594
68.80000 1637.193
68.84000 1881.087
68.88000 2250.414
68.92000 3594.086
68.96000 9162.237
69.00000 22279.744
69.04000 37697.289
69.08000 46189.754
69.12000 47667.969
69.16000 49190.840
69.20000 50393.184
69.24000 43141.313
69.28000 32739.697
69.32000 26369.412
69.36000 23569.418
69.40000 20216.715
69.44000 12812.896
69.48000 5954.829
69.52000 2597.139
69.56000 1630.255
69.60000 1306.302
69.64000 1132.630
69.68000 984.963
69.72000 908.386
69.76000 866.400
69.80000 770.674
69.84000 732.884
69.88000 682.009
69.92000 660.802
69.96000 666.134
70.00000 653.744