File: XRD/11-09-2025/XY Data/01092025_BTO_omega_1_001_17_-2-782_-12-187.xy
20.00000 39.316
20.04000 43.131
20.08000 37.577
20.12000 36.353
20.16000 41.309
20.20000 33.131
20.24000 26.253
20.28000 40.190
20.32000 39.445
20.36000 48.733
20.40000 33.249
20.44000 42.618
20.48000 41.583
20.52000 26.374
20.56000 40.329
20.60000 36.094
20.64000 50.452
20.68000 32.525
20.72000 30.297
20.76000 37.385
20.80000 18.129
20.84000 27.261
20.88000 28.333
20.92000 35.158
20.96000 26.256
21.00000 30.310
21.04000 28.028
21.08000 28.469
21.12000 32.251
21.16000 44.627
21.20000 39.604
21.24000 29.314
21.28000 30.164
21.32000 43.633
21.36000 36.373
21.40000 28.382
21.44000 40.159
21.48000 32.168
21.52000 31.445
21.56000 34.197
21.60000 27.351
21.64000 25.089
21.68000 32.312
21.72000 33.364
21.76000 29.309
21.80000 27.277
21.84000 30.277
21.88000 27.290
21.92000 31.400
21.96000 25.106
22.00000 28.451
22.04000 18.241
22.08000 33.272
22.12000 25.197
22.16000 33.301
22.20000 20.210
22.24000 32.346
22.28000 30.512
22.32000 25.443
22.36000 24.447
22.40000 28.421
22.44000 30.148
22.48000 30.246
22.52000 22.295
22.56000 18.208
22.60000 22.186
22.64000 26.363
22.68000 24.325
22.72000 26.346
22.76000 21.265
22.80000 21.186
22.84000 27.229
22.88000 17.052
22.92000 22.114
22.96000 30.145
23.00000 29.312
23.04000 18.253
23.08000 36.391
23.12000 21.047
23.16000 21.268
23.20000 25.338
23.24000 21.374
23.28000 18.228
23.32000 30.361
23.36000 27.424
23.40000 19.193
23.44000 24.263
23.48000 26.128
23.52000 24.496
23.56000 23.380
23.60000 25.203
23.64000 18.999
23.68000 32.478
23.72000 20.255
23.76000 21.283
23.80000 36.376
23.84000 25.174
23.88000 18.232
23.92000 15.236
23.96000 18.027
24.00000 12.090
24.04000 14.159
24.08000 10.215
24.12000 21.380
24.16000 22.296
24.20000 13.233
24.24000 20.289
24.28000 11.137
24.32000 10.993
24.36000 14.196
24.40000 19.414
24.44000 14.236
24.48000 22.186
24.52000 15.203
24.56000 14.178
24.60000 16.290
24.64000 23.293
24.68000 12.293
24.72000 12.238
24.76000 11.219
24.80000 14.039
24.84000 17.044
24.88000 25.291
24.92000 15.178
24.96000 22.155
25.00000 9.185
25.04000 20.187
25.08000 19.292
25.12000 14.251
25.16000 18.348
25.20000 14.094
25.24000 9.171
25.28000 11.181
25.32000 17.162
25.36000 15.238
25.40000 11.212
25.44000 6.053
25.48000 12.063
25.52000 25.314
25.56000 15.191
25.60000 15.158
25.64000 14.347
25.68000 7.052
25.72000 22.250
25.76000 9.205
25.80000 10.162
25.84000 14.174
25.88000 13.024
25.92000 19.417
25.96000 17.140
26.00000 12.107
26.04000 10.151
26.08000 16.225
26.12000 14.243
26.16000 20.050
26.20000 12.244
26.24000 17.252
26.28000 14.184
26.32000 12.076
26.36000 16.079
26.40000 16.135
26.44000 10.112
26.48000 6.050
26.52000 15.132
26.56000 9.118
26.60000 11.159
26.64000 9.186
26.68000 15.184
26.72000 18.316
26.76000 10.056
26.80000 15.082
26.84000 11.997
26.88000 12.054
26.92000 7.030
26.96000 8.151
27.00000 11.229
27.04000 13.107
27.08000 11.313
27.12000 10.072
27.16000 10.139
27.20000 13.175
27.24000 17.036
27.28000 9.093
27.32000 7.060
27.36000 13.133
27.40000 3.012
27.44000 11.154
27.48000 12.137
27.52000 10.139
27.56000 11.237
27.60000 12.056
27.64000 15.126
27.68000 19.370
27.72000 6.087
27.76000 16.168
27.80000 14.212
27.84000 11.186
27.88000 7.194
27.92000 9.028
27.96000 9.151
28.00000 6.041
28.04000 10.229
28.08000 10.135
28.12000 12.175
28.16000 5.098
28.20000 8.060
28.24000 5.070
28.28000 8.125
28.32000 8.096
28.36000 11.257
28.40000 15.183
28.44000 13.258
28.48000 16.240
28.52000 9.150
28.56000 5.004
28.60000 11.114
28.64000 4.098
28.68000 8.205
28.72000 17.116
28.76000 13.203
28.80000 5.066
28.84000 5.098
28.88000 5.125
28.92000 8.155
28.96000 12.241
29.00000 10.108
29.04000 9.109
29.08000 6.176
29.12000 7.001
29.16000 15.102
29.20000 12.122
29.24000 7.071
29.28000 6.984
29.32000 14.197
29.36000 11.142
29.40000 9.235
29.44000 12.220
29.48000 6.118
29.52000 7.125
29.56000 5.021
29.60000 5.997
29.64000 10.005
29.68000 13.114
29.72000 10.025
29.76000 11.209
29.80000 8.906
29.84000 10.208
29.88000 13.146
29.92000 8.130
29.96000 11.145
30.00000 5.963
30.04000 7.085
30.08000 10.182
30.12000 15.229
30.16000 8.062
30.20000 7.152
30.24000 9.042
30.28000 14.124
30.32000 6.029
30.36000 8.067
30.40000 13.158
30.44000 9.117
30.48000 6.154
30.52000 10.076
30.56000 9.214
30.60000 8.172
30.64000 15.190
30.68000 10.105
30.72000 10.033
30.76000 6.059
30.80000 5.178
30.84000 9.091
30.88000 2.015
30.92000 5.082
30.96000 7.054
31.00000 7.991
31.04000 12.190
31.08000 4.002
31.12000 9.253
31.16000 7.101
31.20000 7.077
31.24000 8.103
31.28000 3.067
31.32000 12.311
31.36000 13.196
31.40000 7.169
31.44000 9.026
31.48000 6.109
31.52000 5.952
31.56000 6.054
31.60000 2.977
31.64000 4.099
31.68000 8.061
31.72000 10.153
31.76000 11.258
31.80000 6.044
31.84000 4.152
31.88000 7.017
31.92000 5.072
31.96000 13.187
32.00000 9.148
32.04000 4.136
32.08000 8.074
32.12000 7.304
32.16000 8.095
32.20000 8.097
32.24000 9.175
32.28000 7.031
32.32000 9.166
32.36000 6.092
32.40000 8.122
32.44000 8.022
32.48000 5.022
32.52000 7.080
32.56000 5.996
32.60000 5.088
32.64000 10.104
32.68000 6.134
32.72000 6.128
32.76000 8.148
32.80000 6.064
32.84000 8.039
32.88000 9.021
32.92000 6.035
32.96000 7.148
33.00000 8.039
33.04000 5.012
33.08000 7.023
33.12000 6.052
33.16000 7.015
33.20000 7.025
33.24000 7.051
33.28000 6.045
33.32000 9.102
33.36000 9.095
33.40000 11.235
33.44000 3.011
33.48000 6.038
33.52000 5.093
33.56000 7.022
33.60000 6.167
33.64000 4.949
33.68000 6.032
33.72000 6.109
33.76000 7.094
33.80000 7.085
33.84000 10.068
33.88000 5.153
33.92000 8.157
33.96000 5.044
34.00000 6.110
34.04000 8.205
34.08000 5.083
34.12000 9.203
34.16000 5.088
34.20000 6.148
34.24000 8.075
34.28000 4.088
34.32000 0.981
34.36000 1.980
34.40000 5.107
34.44000 5.001
34.48000 4.036
34.52000 7.121
34.56000 4.080
34.60000 4.079
34.64000 6.109
34.68000 5.165
34.72000 6.021
34.76000 2.992
34.80000 5.022
34.84000 9.108
34.88000 5.036
34.92000 7.092
34.96000 3.999
35.00000 5.002
35.04000 5.113
35.08000 5.019
35.12000 8.168
35.16000 4.981
35.20000 3.077
35.24000 1.004
35.28000 5.068
35.32000 5.025
35.36000 6.188
35.40000 7.085
35.44000 10.219
35.48000 6.085
35.52000 8.022
35.56000 2.938
35.60000 9.154
35.64000 1.963
35.68000 5.089
35.72000 1.991
35.76000 6.136
35.80000 3.998
35.84000 7.057
35.88000 4.062
35.92000 8.050
35.96000 10.081
36.00000 2.000
36.04000 8.194
36.08000 8.008
36.12000 7.078
36.16000 7.116
36.20000 4.939
36.24000 7.111
36.28000 7.054
36.32000 11.201
36.36000 4.028
36.40000 7.164
36.44000 1.999
36.48000 4.072
36.52000 1.972
36.56000 6.094
36.60000 2.981
36.64000 3.991
36.68000 3.068
36.72000 7.231
36.76000 2.131
36.80000 4.106
36.84000 5.056
36.88000 4.026
36.92000 4.091
36.96000 0.995
37.00000 3.108
37.04000 4.022
37.08000 6.051
37.12000 5.120
37.16000 6.060
37.20000 2.995
37.24000 3.027
37.28000 6.075
37.32000 5.969
37.36000 7.024
37.40000 4.982
37.44000 6.081
37.48000 2.972
37.52000 4.102
37.56000 7.037
37.60000 3.050
37.64000 3.020
37.68000 4.949
37.72000 2.011
37.76000 6.037
37.80000 6.168
37.84000 4.980
37.88000 4.075
37.92000 6.042
37.96000 7.106
38.00000 5.091
38.04000 3.020
38.08000 2.028
38.12000 4.051
38.16000 6.054
38.20000 6.080
38.24000 8.173
38.28000 0.000
38.32000 6.078
38.36000 4.093
38.40000 4.043
38.44000 7.055
38.48000 2.017
38.52000 4.059
38.56000 8.122
38.60000 2.978
38.64000 2.019
38.68000 4.022
38.72000 3.073
38.76000 4.126
38.80000 5.118
38.84000 5.063
38.88000 5.053
38.92000 7.160
38.96000 5.017
39.00000 6.102
39.04000 3.965
39.08000 6.114
39.12000 2.000
39.16000 4.098
39.20000 5.071
39.24000 3.968
39.28000 6.146
39.32000 3.092
39.36000 4.075
39.40000 2.990
39.44000 1.063
39.48000 4.018
39.52000 4.119
39.56000 5.098
39.60000 3.082
39.64000 5.077
39.68000 9.054
39.72000 5.045
39.76000 7.144
39.80000 2.043
39.84000 4.059
39.88000 2.040
39.92000 0.000
39.96000 4.037
40.00000 3.038
40.04000 5.068
40.08000 6.100
40.12000 5.012
40.16000 1.028
40.20000 7.246
40.24000 5.136
40.28000 2.019
40.32000 4.066
40.36000 5.010
40.40000 4.016
40.44000 4.158
40.48000 4.126
40.52000 4.034
40.56000 1.003
40.60000 3.032
40.64000 4.012
40.68000 5.076
40.72000 5.057
40.76000 4.016
40.80000 2.109
40.84000 3.031
40.88000 6.040
40.92000 5.088
40.96000 1.996
41.00000 5.044
41.04000 1.031
41.08000 6.087
41.12000 1.030
41.16000 1.011
41.20000 5.037
41.24000 2.021
41.28000 1.973
41.32000 7.018
41.36000 2.016
41.40000 6.112
41.44000 3.042
41.48000 1.983
41.52000 4.082
41.56000 3.010
41.60000 7.012
41.64000 4.066
41.68000 2.018
41.72000 4.155
41.76000 5.162
41.80000 2.026
41.84000 3.020
41.88000 5.048
41.92000 4.088
41.96000 1.982
42.00000 2.994
42.04000 1.030
42.08000 0.000
42.12000 5.069
42.16000 0.000
42.20000 7.206
42.24000 5.996
42.28000 1.995
42.32000 5.059
42.36000 8.073
42.40000 5.008
42.44000 3.033
42.48000 3.058
42.52000 1.043
42.56000 3.068
42.60000 4.012
42.64000 5.085
42.68000 2.045
42.72000 1.975
42.76000 3.013
42.80000 1.990
42.84000 1.014
42.88000 3.059
42.92000 4.025
42.96000 3.045
43.00000 6.007
43.04000 1.000
43.08000 1.012
43.12000 5.045
43.16000 0.970
43.20000 4.063
43.24000 0.977
43.28000 4.028
43.32000 2.028
43.36000 1.030
43.40000 4.048
43.44000 3.033
43.48000 4.011
43.52000 3.003
43.56000 0.000
43.60000 0.000
43.64000 3.984
43.68000 3.983
43.72000 5.113
43.76000 3.095
43.80000 3.038
43.84000 2.037
43.88000 0.000
43.92000 5.079
43.96000 4.050
44.00000 1.994
44.04000 1.008
44.08000 5.065
44.12000 2.994
44.16000 1.976
44.20000 1.995
44.24000 3.059
44.28000 2.026
44.32000 1.017
44.36000 5.036
44.40000 2.077
44.44000 1.055
44.48000 5.020
44.52000 1.035
44.56000 1.995
44.60000 6.130
44.64000 1.007
44.68000 1.994
44.72000 5.031
44.76000 0.992
44.80000 4.011
44.84000 1.969
44.88000 0.000
44.92000 3.054
44.96000 2.983
45.00000 0.000
45.04000 2.017
45.08000 5.106
45.12000 2.030
45.16000 6.081
45.20000 2.996
45.24000 4.028
45.28000 2.004
45.32000 2.036
45.36000 2.026
45.40000 1.029
45.44000 1.995
45.48000 1.001
45.52000 3.001
45.56000 1.012
45.60000 6.166
45.64000 3.027
45.68000 0.000
45.72000 4.154
45.76000 5.096
45.80000 2.059
45.84000 2.975
45.88000 4.083
45.92000 3.163
45.96000 4.998
46.00000 3.015
46.04000 0.986
46.08000 4.123
46.12000 2.003
46.16000 7.105
46.20000 2.036
46.24000 2.014
46.28000 1.006
46.32000 2.033
46.36000 2.071
46.40000 2.067
46.44000 2.039
46.48000 1.025
46.52000 3.041
46.56000 1.023
46.60000 7.061
46.64000 3.131
46.68000 5.130
46.72000 6.027
46.76000 3.102
46.80000 4.067
46.84000 2.036
46.88000 3.028
46.92000 2.033
46.96000 4.104
47.00000 0.000
47.04000 3.952
47.08000 3.977
47.12000 0.976
47.16000 2.003
47.20000 1.994
47.24000 2.008
47.28000 3.112
47.32000 3.048
47.36000 1.002
47.40000 0.998
47.44000 2.047
47.48000 2.008
47.52000 3.035
47.56000 1.004
47.60000 6.127
47.64000 1.004
47.68000 3.000
47.72000 1.962
47.76000 4.016
47.80000 4.214
47.84000 4.000
47.88000 0.000
47.92000 6.268
47.96000 1.007
48.00000 2.997
48.04000 2.065
48.08000 0.000
48.12000 1.027
48.16000 1.028
48.20000 3.053
48.24000 0.000
48.28000 3.038
48.32000 1.993
48.36000 1.053
48.40000 1.985
48.44000 4.121
48.48000 2.003
48.52000 2.006
48.56000 1.035
48.60000 3.060
48.64000 2.070
48.68000 2.051
48.72000 0.000
48.76000 1.032
48.80000 7.101
48.84000 1.011
48.88000 2.026
48.92000 2.034
48.96000 1.043
49.00000 3.027
49.04000 1.972
49.08000 5.067
49.12000 8.119
49.16000 2.031
49.20000 0.978
49.24000 3.069
49.28000 0.976
49.32000 2.006
49.36000 2.018
49.40000 1.948
49.44000 0.000
49.48000 1.023
49.52000 0.995
49.56000 3.081
49.60000 0.980
49.64000 4.096
49.68000 2.964
49.72000 2.088
49.76000 2.051
49.80000 4.053
49.84000 2.009
49.88000 2.091
49.92000 0.000
49.96000 1.985
50.00000 1.017
50.04000 0.995
50.08000 3.073
50.12000 0.000
50.16000 2.054
50.20000 3.063
50.24000 2.037
50.28000 1.009
50.32000 3.037
50.36000 3.079
50.40000 1.976
50.44000 1.013
50.48000 2.059
50.52000 2.008
50.56000 0.000
50.60000 1.049
50.64000 3.027
50.68000 2.068
50.72000 4.180
50.76000 1.047
50.80000 0.000
50.84000 1.031
50.88000 0.000
50.92000 2.079
50.96000 3.143
51.00000 0.997
51.04000 3.007
51.08000 0.000
51.12000 2.027
51.16000 1.080
51.20000 3.011
51.24000 0.000
51.28000 0.000
51.32000 4.081
51.36000 3.036
51.40000 2.043
51.44000 0.000
51.48000 0.977
51.52000 1.025
51.56000 2.019
51.60000 1.046
51.64000 6.151
51.68000 0.000
51.72000 3.065
51.76000 0.967
51.80000 6.038
51.84000 3.035
51.88000 3.002
51.92000 1.003
51.96000 2.051
52.00000 2.048
52.04000 3.100
52.08000 1.020
52.12000 2.981
52.16000 0.976
52.20000 0.000
52.24000 1.031
52.28000 1.023
52.32000 1.980
52.36000 0.000
52.40000 2.987
52.44000 0.000
52.48000 4.059
52.52000 2.974
52.56000 2.008
52.60000 1.004
52.64000 1.048
52.68000 1.025
52.72000 1.999
52.76000 0.989
52.80000 4.997
52.84000 3.065
52.88000 2.036
52.92000 0.000
52.96000 3.027
53.00000 9.187
53.04000 5.163
53.08000 3.006
53.12000 2.996
53.16000 0.000
53.20000 1.996
53.24000 0.000
53.28000 2.031
53.32000 1.010
53.36000 4.034
53.40000 0.995
53.44000 2.008
53.48000 3.080
53.52000 2.019
53.56000 1.022
53.60000 0.000
53.64000 0.000
53.68000 6.112
53.72000 4.100
53.76000 3.032
53.80000 0.980
53.84000 1.997
53.88000 0.000
53.92000 1.972
53.96000 0.000
54.00000 0.000
54.04000 2.059
54.08000 1.006
54.12000 2.057
54.16000 1.030
54.20000 1.039
54.24000 2.999
54.28000 0.000
54.32000 1.051
54.36000 1.019
54.40000 0.000
54.44000 3.063
54.48000 2.027
54.52000 0.000
54.56000 1.007
54.60000 0.000
54.64000 0.992
54.68000 0.000
54.72000 3.048
54.76000 0.986
54.80000 1.036
54.84000 0.974
54.88000 2.005
54.92000 2.070
54.96000 1.005
55.00000 1.024
55.04000 1.020
55.08000 1.041
55.12000 1.015
55.16000 1.994
55.20000 4.054
55.24000 4.074
55.28000 1.016
55.32000 1.990
55.36000 1.036
55.40000 0.998
55.44000 0.000
55.48000 3.011
55.52000 2.007
55.56000 2.042
55.60000 2.072
55.64000 0.000
55.68000 0.000
55.72000 2.064
55.76000 1.044
55.80000 0.999
55.84000 3.036
55.88000 1.990
55.92000 0.982
55.96000 0.982
56.00000 3.006
56.04000 0.991
56.08000 4.011
56.12000 3.012
56.16000 1.060
56.20000 2.003
56.24000 1.024
56.28000 2.076
56.32000 1.015
56.36000 0.000
56.40000 0.000
56.44000 1.024
56.48000 0.976
56.52000 1.036
56.56000 1.988
56.60000 0.000
56.64000 2.041
56.68000 2.016
56.72000 0.000
56.76000 2.116
56.80000 4.053
56.84000 2.043
56.88000 0.000
56.92000 3.055
56.96000 0.000
57.00000 0.000
57.04000 2.039
57.08000 0.990
57.12000 1.033
57.16000 0.998
57.20000 3.020
57.24000 2.028
57.28000 0.000
57.32000 0.000
57.36000 4.068
57.40000 2.023
57.44000 0.000
57.48000 3.007
57.52000 1.013
57.56000 1.029
57.60000 2.065
57.64000 4.117
57.68000 2.049
57.72000 1.016
57.76000 0.969
57.80000 2.017
57.84000 1.016
57.88000 1.007
57.92000 1.013
57.96000 1.032
58.00000 0.000
58.04000 2.007
58.08000 1.012
58.12000 1.053
58.16000 3.073
58.20000 2.128
58.24000 0.000
58.28000 0.000
58.32000 2.043
58.36000 2.020
58.40000 2.037
58.44000 3.030
58.48000 2.038
58.52000 1.010
58.56000 4.050
58.60000 1.980
58.64000 0.000
58.68000 3.982
58.72000 1.049
58.76000 0.000
58.80000 0.000
58.84000 4.070
58.88000 2.029
58.92000 0.000
58.96000 1.014
59.00000 4.080
59.04000 1.981
59.08000 1.993
59.12000 2.023
59.16000 3.034
59.20000 1.987
59.24000 4.072
59.28000 2.988
59.32000 0.989
59.36000 1.051
59.40000 3.063
59.44000 1.020
59.48000 3.023
59.52000 2.018
59.56000 1.000
59.60000 4.139
59.64000 2.973
59.68000 1.977
59.72000 1.971
59.76000 1.005
59.80000 1.007
59.84000 1.014
59.88000 4.085
59.92000 0.000
59.96000 1.999
60.00000 1.062
60.04000 4.009
60.08000 1.018
60.12000 0.000
60.16000 4.088
60.20000 0.000
60.24000 0.000
60.28000 1.002
60.32000 2.011
60.36000 0.989
60.40000 5.077
60.44000 2.029
60.48000 2.054
60.52000 3.068
60.56000 0.000
60.60000 2.054
60.64000 0.000
60.68000 1.001
60.72000 1.013
60.76000 0.995
60.80000 1.034
60.84000 3.072
60.88000 1.035
60.92000 4.028
60.96000 1.024
61.00000 2.005
61.04000 3.155
61.08000 5.015
61.12000 0.000
61.16000 2.014
61.20000 0.000
61.24000 0.997
61.28000 0.980
61.32000 3.063
61.36000 0.000
61.40000 2.033
61.44000 0.999
61.48000 0.993
61.52000 1.996
61.56000 2.012
61.60000 0.000
61.64000 2.014
61.68000 0.980
61.72000 0.978
61.76000 0.000
61.80000 2.071
61.84000 4.038
61.88000 0.000
61.92000 1.015
61.96000 0.979
62.00000 0.000
62.04000 2.074
62.08000 2.004
62.12000 0.000
62.16000 3.054
62.20000 5.143
62.24000 3.025
62.28000 1.986
62.32000 2.039
62.36000 0.000
62.40000 3.107
62.44000 4.071
62.48000 0.991
62.52000 5.021
62.56000 2.063
62.60000 3.035
62.64000 2.109
62.68000 0.000
62.72000 0.991
62.76000 0.990
62.80000 2.028
62.84000 3.052
62.88000 1.025
62.92000 0.991
62.96000 1.040
63.00000 1.022
63.04000 0.000
63.08000 1.030
63.12000 2.099
63.16000 2.075
63.20000 1.016
63.24000 2.040
63.28000 2.028
63.32000 1.009
63.36000 1.975
63.40000 0.000
63.44000 2.035
63.48000 4.062
63.52000 1.022
63.56000 0.000
63.60000 2.020
63.64000 0.998
63.68000 1.032
63.72000 1.007
63.76000 0.982
63.80000 1.956
63.84000 6.023
63.88000 0.000
63.92000 0.000
63.96000 6.195
64.00000 0.988
64.04000 2.992
64.08000 2.034
64.12000 4.014
64.16000 2.049
64.20000 1.033
64.24000 2.031
64.28000 4.035
64.32000 3.054
64.36000 1.011
64.40000 2.001
64.44000 2.052
64.48000 0.000
64.52000 0.993
64.56000 1.025
64.60000 5.003
64.64000 0.000
64.68000 0.000
64.72000 4.033
64.76000 3.065
64.80000 0.997
64.84000 0.996
64.88000 0.000
64.92000 1.006
64.96000 1.986
65.00000 1.025