File: XRD/11-09-2025/XY Data/01092025_BTO_omega_1_001_31_-25-000_0-000.xy
20.00000 15.199
20.04000 20.333
20.08000 16.167
20.12000 17.323
20.16000 16.171
20.20000 11.979
20.24000 14.236
20.28000 20.530
20.32000 21.167
20.36000 19.455
20.40000 22.309
20.44000 13.090
20.48000 17.373
20.52000 17.199
20.56000 21.276
20.60000 16.153
20.64000 14.188
20.68000 21.252
20.72000 16.242
20.76000 12.183
20.80000 18.222
20.84000 24.294
20.88000 18.079
20.92000 14.372
20.96000 16.230
21.00000 16.298
21.04000 23.506
21.08000 15.135
21.12000 19.173
21.16000 22.214
21.20000 15.309
21.24000 21.362
21.28000 18.044
21.32000 13.104
21.36000 23.265
21.40000 19.203
21.44000 18.088
21.48000 14.025
21.52000 21.305
21.56000 18.190
21.60000 16.283
21.64000 17.274
21.68000 22.273
21.72000 19.316
21.76000 28.420
21.80000 22.201
21.84000 16.249
21.88000 20.497
21.92000 18.198
21.96000 15.361
22.00000 18.298
22.04000 14.309
22.08000 18.438
22.12000 14.034
22.16000 18.230
22.20000 15.266
22.24000 29.547
22.28000 22.106
22.32000 18.031
22.36000 16.395
22.40000 16.191
22.44000 13.108
22.48000 14.327
22.52000 21.209
22.56000 22.031
22.60000 21.174
22.64000 21.331
22.68000 15.248
22.72000 34.505
22.76000 18.125
22.80000 17.301
22.84000 21.221
22.88000 14.111
22.92000 13.156
22.96000 26.536
23.00000 13.958
23.04000 14.165
23.08000 16.367
23.12000 18.082
23.16000 21.336
23.20000 26.180
23.24000 31.582
23.28000 20.106
23.32000 23.286
23.36000 20.286
23.40000 18.276
23.44000 17.237
23.48000 29.382
23.52000 27.442
23.56000 26.276
23.60000 22.234
23.64000 24.279
23.68000 22.260
23.72000 23.380
23.76000 23.286
23.80000 26.564
23.84000 14.412
23.88000 24.361
23.92000 23.200
23.96000 29.239
24.00000 20.173
24.04000 19.187
24.08000 33.353
24.12000 22.294
24.16000 16.462
24.20000 27.491
24.24000 19.178
24.28000 32.655
24.32000 33.461
24.36000 21.377
24.40000 27.266
24.44000 21.290
24.48000 24.299
24.52000 23.246
24.56000 31.233
24.60000 17.294
24.64000 25.459
24.68000 32.400
24.72000 31.239
24.76000 22.237
24.80000 31.258
24.84000 39.527
24.88000 35.369
24.92000 32.239
24.96000 31.417
25.00000 30.404
25.04000 31.449
25.08000 26.299
25.12000 37.559
25.16000 34.490
25.20000 16.240
25.24000 28.086
25.28000 31.605
25.32000 23.206
25.36000 29.260
25.40000 21.459
25.44000 33.544
25.48000 36.478
25.52000 27.162
25.56000 27.291
25.60000 27.542
25.64000 26.546
25.68000 35.540
25.72000 45.636
25.76000 36.767
25.80000 30.268
25.84000 38.270
25.88000 27.244
25.92000 39.742
25.96000 50.707
26.00000 34.406
26.04000 36.314
26.08000 38.491
26.12000 35.530
26.16000 25.212
26.20000 23.309
26.24000 36.495
26.28000 35.508
26.32000 36.362
26.36000 35.207
26.40000 38.295
26.44000 42.375
26.48000 31.381
26.52000 39.666
26.56000 34.311
26.60000 40.237
26.64000 27.529
26.68000 26.320
26.72000 28.359
26.76000 34.517
26.80000 41.394
26.84000 34.458
26.88000 29.029
26.92000 42.688
26.96000 30.483
27.00000 31.422
27.04000 42.403
27.08000 33.428
27.12000 39.478
27.16000 48.714
27.20000 32.377
27.24000 50.434
27.28000 38.516
27.32000 35.427
27.36000 38.573
27.40000 47.393
27.44000 30.479
27.48000 35.514
27.52000 39.314
27.56000 36.282
27.60000 34.402
27.64000 35.626
27.68000 37.421
27.72000 36.303
27.76000 33.461
27.80000 51.715
27.84000 31.445
27.88000 27.205
27.92000 28.333
27.96000 31.481
28.00000 33.376
28.04000 44.518
28.08000 47.619
28.12000 49.592
28.16000 35.587
28.20000 35.603
28.24000 27.432
28.28000 30.513
28.32000 29.446
28.36000 38.423
28.40000 30.261
28.44000 36.460
28.48000 31.280
28.52000 36.319
28.56000 34.290
28.60000 33.283
28.64000 34.740
28.68000 37.502
28.72000 31.443
28.76000 27.405
28.80000 29.355
28.84000 40.470
28.88000 42.649
28.92000 26.256
28.96000 29.285
29.00000 24.101
29.04000 30.226
29.08000 30.139
29.12000 33.484
29.16000 29.423
29.20000 39.382
29.24000 32.580
29.28000 28.491
29.32000 25.070
29.36000 38.350
29.40000 34.508
29.44000 26.293
29.48000 27.332
29.52000 28.376
29.56000 27.301
29.60000 27.483
29.64000 26.197
29.68000 39.562
29.72000 29.416
29.76000 29.492
29.80000 37.423
29.84000 27.278
29.88000 33.474
29.92000 18.258
29.96000 29.119
30.00000 31.264
30.04000 35.600
30.08000 36.248
30.12000 33.482
30.16000 28.307
30.20000 25.209
30.24000 31.237
30.28000 18.383
30.32000 29.174
30.36000 20.222
30.40000 27.285
30.44000 31.446
30.48000 26.484
30.52000 26.334
30.56000 16.126
30.60000 27.352
30.64000 20.307
30.68000 31.179
30.72000 23.293
30.76000 29.357
30.80000 24.289
30.84000 18.293
30.88000 30.175
30.92000 17.116
30.96000 24.246
31.00000 26.340
31.04000 19.261
31.08000 21.325
31.12000 19.317
31.16000 21.330
31.20000 15.125
31.24000 17.121
31.28000 19.031
31.32000 16.327
31.36000 14.176
31.40000 25.377
31.44000 15.111
31.48000 25.511
31.52000 19.418
31.56000 23.396
31.60000 25.491
31.64000 23.507
31.68000 21.216
31.72000 17.306
31.76000 17.180
31.80000 19.279
31.84000 20.093
31.88000 20.580
31.92000 25.153
31.96000 19.004
32.00000 25.489
32.04000 11.063
32.08000 28.432
32.12000 32.374
32.16000 28.352
32.20000 20.350
32.24000 25.395
32.28000 23.138
32.32000 23.335
32.36000 26.544
32.40000 30.327
32.44000 13.291
32.48000 22.379
32.52000 21.051
32.56000 20.334
32.60000 17.185
32.64000 26.296
32.68000 23.344
32.72000 22.255
32.76000 11.121
32.80000 19.993
32.84000 17.139
32.88000 25.430
32.92000 17.256
32.96000 15.240
33.00000 12.065
33.04000 16.134
33.08000 13.143
33.12000 17.405
33.16000 17.346
33.20000 17.275
33.24000 10.980
33.28000 20.202
33.32000 16.266
33.36000 15.096
33.40000 11.160
33.44000 14.202
33.48000 16.192
33.52000 26.486
33.56000 19.128
33.60000 13.033
33.64000 16.179
33.68000 12.068
33.72000 16.154
33.76000 16.298
33.80000 10.090
33.84000 16.236
33.88000 13.132
33.92000 9.078
33.96000 18.259
34.00000 11.182
34.04000 17.370
34.08000 18.017
34.12000 12.192
34.16000 17.384
34.20000 14.182
34.24000 10.037
34.28000 12.215
34.32000 13.163
34.36000 13.120
34.40000 20.178
34.44000 13.321
34.48000 10.105
34.52000 7.223
34.56000 14.332
34.60000 13.320
34.64000 13.248
34.68000 6.034
34.72000 12.198
34.76000 12.210
34.80000 10.196
34.84000 13.299
34.88000 20.198
34.92000 12.095
34.96000 3.042
35.00000 7.046
35.04000 20.288
35.08000 15.095
35.12000 21.171
35.16000 9.123
35.20000 13.021
35.24000 13.101
35.28000 16.259
35.32000 11.150
35.36000 13.247
35.40000 28.469
35.44000 13.127
35.48000 12.133
35.52000 14.326
35.56000 19.400
35.60000 12.182
35.64000 12.106
35.68000 18.276
35.72000 10.226
35.76000 11.070
35.80000 12.164
35.84000 13.091
35.88000 9.090
35.92000 11.162
35.96000 15.132
36.00000 14.311
36.04000 15.250
36.08000 16.078
36.12000 16.129
36.16000 10.242
36.20000 17.224
36.24000 11.190
36.28000 17.317
36.32000 22.404
36.36000 14.289
36.40000 25.189
36.44000 15.343
36.48000 12.159
36.52000 10.130
36.56000 11.146
36.60000 16.199
36.64000 10.164
36.68000 12.189
36.72000 10.209
36.76000 18.241
36.80000 16.265
36.84000 18.156
36.88000 15.136
36.92000 16.129
36.96000 16.270
37.00000 12.242
37.04000 15.233
37.08000 12.112
37.12000 10.981
37.16000 18.208
37.20000 17.185
37.24000 12.213
37.28000 14.295
37.32000 14.307
37.36000 17.083
37.40000 16.152
37.44000 11.088
37.48000 10.080
37.52000 12.279
37.56000 15.260
37.60000 12.179
37.64000 13.190
37.68000 10.108
37.72000 12.145
37.76000 20.182
37.80000 12.143
37.84000 14.045
37.88000 13.089
37.92000 14.248
37.96000 15.163
38.00000 13.201
38.04000 16.226
38.08000 11.197
38.12000 15.161
38.16000 17.070
38.20000 15.223
38.24000 13.140
38.28000 16.146
38.32000 13.279
38.36000 19.146
38.40000 18.294
38.44000 15.335
38.48000 15.345
38.52000 9.095
38.56000 17.244
38.60000 22.237
38.64000 11.165
38.68000 16.162
38.72000 9.084
38.76000 18.283
38.80000 12.113
38.84000 16.073
38.88000 7.121
38.92000 13.174
38.96000 19.242
39.00000 11.150
39.04000 21.143
39.08000 10.050
39.12000 22.084
39.16000 15.198
39.20000 19.316
39.24000 12.319
39.28000 19.167
39.32000 11.039
39.36000 10.152
39.40000 15.022
39.44000 16.156
39.48000 25.478
39.52000 12.110
39.56000 13.155
39.60000 15.264
39.64000 19.300
39.68000 18.080
39.72000 18.492
39.76000 22.362
39.80000 14.178
39.84000 18.251
39.88000 16.131
39.92000 17.180
39.96000 17.228
40.00000 21.195
40.04000 14.029
40.08000 17.224
40.12000 16.432
40.16000 13.151
40.20000 18.267
40.24000 7.158
40.28000 17.088
40.32000 10.198
40.36000 17.192
40.40000 17.098
40.44000 15.158
40.48000 9.075
40.52000 20.228
40.56000 13.295
40.60000 15.135
40.64000 17.181
40.68000 14.050
40.72000 8.148
40.76000 16.189
40.80000 11.103
40.84000 15.268
40.88000 14.313
40.92000 19.359
40.96000 15.263
41.00000 21.099
41.04000 12.153
41.08000 9.192
41.12000 10.211
41.16000 15.160
41.20000 13.127
41.24000 19.113
41.28000 11.114
41.32000 11.064
41.36000 16.178
41.40000 14.141
41.44000 13.123
41.48000 21.328
41.52000 14.085
41.56000 15.386
41.60000 9.067
41.64000 13.070
41.68000 15.181
41.72000 9.129
41.76000 11.121
41.80000 10.084
41.84000 13.154
41.88000 22.240
41.92000 10.155
41.96000 20.193
42.00000 10.246
42.04000 14.148
42.08000 15.412
42.12000 12.207
42.16000 14.345
42.20000 12.176
42.24000 15.159
42.28000 17.302
42.32000 14.050
42.36000 10.264
42.40000 15.177
42.44000 19.315
42.48000 4.029
42.52000 22.268
42.56000 15.282
42.60000 16.101
42.64000 14.217
42.68000 14.098
42.72000 14.160
42.76000 11.099
42.80000 18.369
42.84000 15.153
42.88000 14.201
42.92000 13.188
42.96000 13.268
43.00000 7.231
43.04000 13.072
43.08000 11.178
43.12000 16.419
43.16000 15.064
43.20000 13.017
43.24000 20.381
43.28000 17.216
43.32000 15.347
43.36000 18.311
43.40000 20.195
43.44000 16.256
43.48000 20.301
43.52000 9.048
43.56000 14.305
43.60000 14.147
43.64000 14.246
43.68000 14.285
43.72000 15.329
43.76000 21.367
43.80000 16.424
43.84000 15.117
43.88000 17.223
43.92000 20.350
43.96000 14.343
44.00000 19.249
44.04000 13.931
44.08000 19.305
44.12000 16.126
44.16000 20.111
44.20000 14.045
44.24000 16.239
44.28000 15.166
44.32000 17.329
44.36000 14.131
44.40000 12.145
44.44000 16.259
44.48000 19.205
44.52000 11.020
44.56000 12.408
44.60000 19.241
44.64000 17.342
44.68000 16.128
44.72000 13.113
44.76000 12.260
44.80000 15.251
44.84000 21.396
44.88000 12.092
44.92000 12.201
44.96000 10.102
45.00000 20.243
45.04000 19.247
45.08000 14.351
45.12000 8.096
45.16000 11.188
45.20000 11.156
45.24000 14.320
45.28000 7.073
45.32000 10.063
45.36000 13.110
45.40000 16.271
45.44000 10.125
45.48000 16.176
45.52000 16.346
45.56000 17.420
45.60000 10.128
45.64000 20.446
45.68000 13.220
45.72000 11.123
45.76000 12.161
45.80000 9.186
45.84000 8.212
45.88000 22.222
45.92000 18.177
45.96000 25.379
46.00000 8.179
46.04000 14.215
46.08000 27.330
46.12000 16.338
46.16000 13.135
46.20000 12.459
46.24000 16.230
46.28000 25.342
46.32000 17.276
46.36000 20.287
46.40000 23.351
46.44000 17.253
46.48000 10.150
46.52000 20.383
46.56000 19.435
46.60000 16.250
46.64000 13.277
46.68000 19.281
46.72000 13.227
46.76000 21.235
46.80000 11.239
46.84000 8.172
46.88000 11.313
46.92000 17.150
46.96000 16.125
47.00000 15.193
47.04000 17.162
47.08000 17.203
47.12000 10.143
47.16000 12.059
47.20000 17.328
47.24000 13.202
47.28000 10.141
47.32000 8.045
47.36000 9.189
47.40000 22.263
47.44000 10.206
47.48000 15.158
47.52000 7.997
47.56000 15.204
47.60000 13.269
47.64000 12.332
47.68000 14.040
47.72000 7.049
47.76000 15.415
47.80000 17.139
47.84000 13.106
47.88000 17.164
47.92000 21.428
47.96000 12.061
48.00000 16.225
48.04000 25.370
48.08000 17.360
48.12000 12.138
48.16000 10.198
48.20000 18.995
48.24000 12.232
48.28000 18.074
48.32000 20.516
48.36000 20.270
48.40000 14.298
48.44000 8.057
48.48000 13.235
48.52000 12.989
48.56000 17.257
48.60000 12.202
48.64000 21.204
48.68000 17.270
48.72000 18.392
48.76000 15.364
48.80000 10.171
48.84000 15.372
48.88000 11.122
48.92000 12.124
48.96000 16.124
49.00000 17.187
49.04000 10.255
49.08000 9.121
49.12000 13.219
49.16000 14.290
49.20000 15.044
49.24000 13.275
49.28000 16.149
49.32000 11.406
49.36000 12.198
49.40000 15.141
49.44000 13.182
49.48000 17.376
49.52000 14.061
49.56000 12.224
49.60000 12.040
49.64000 9.132
49.68000 20.259
49.72000 5.042
49.76000 14.221
49.80000 9.186
49.84000 24.384
49.88000 13.210
49.92000 11.055
49.96000 12.184
50.00000 18.228
50.04000 19.160
50.08000 12.216
50.12000 17.086
50.16000 8.044
50.20000 12.297
50.24000 10.078
50.28000 12.182
50.32000 13.343
50.36000 15.070
50.40000 12.328
50.44000 11.110
50.48000 10.117
50.52000 12.185
50.56000 12.127
50.60000 10.138
50.64000 9.191
50.68000 10.116
50.72000 12.343
50.76000 12.081
50.80000 17.149
50.84000 13.338
50.88000 13.128
50.92000 12.150
50.96000 18.313
51.00000 10.094
51.04000 10.225
51.08000 9.036
51.12000 11.100
51.16000 8.091
51.20000 13.216
51.24000 14.135
51.28000 12.003
51.32000 9.034
51.36000 11.199
51.40000 10.197
51.44000 14.225
51.48000 14.171
51.52000 8.169
51.56000 8.038
51.60000 17.968
51.64000 11.081
51.68000 16.289
51.72000 18.222
51.76000 13.032
51.80000 14.279
51.84000 15.142
51.88000 15.239
51.92000 8.023
51.96000 6.157
52.00000 13.074
52.04000 16.120
52.08000 9.981
52.12000 7.104
52.16000 11.066
52.20000 14.207
52.24000 14.219
52.28000 13.130
52.32000 18.237
52.36000 12.202
52.40000 13.139
52.44000 11.272
52.48000 14.180
52.52000 7.045
52.56000 16.216
52.60000 13.228
52.64000 11.239
52.68000 10.057
52.72000 15.291
52.76000 10.098
52.80000 7.066
52.84000 11.186
52.88000 8.063
52.92000 6.159
52.96000 11.020
53.00000 10.143
53.04000 13.195
53.08000 17.274
53.12000 12.209
53.16000 8.045
53.20000 12.256
53.24000 11.007
53.28000 12.128
53.32000 9.127
53.36000 14.237
53.40000 14.187
53.44000 6.093
53.48000 9.151
53.52000 18.401
53.56000 8.072
53.60000 17.254
53.64000 9.964
53.68000 9.948
53.72000 14.182
53.76000 12.192
53.80000 13.151
53.84000 14.323
53.88000 13.139
53.92000 17.339
53.96000 9.163
54.00000 9.025
54.04000 11.110
54.08000 5.950
54.12000 9.209
54.16000 7.022
54.20000 8.219
54.24000 7.098
54.28000 6.069
54.32000 13.002
54.36000 17.268
54.40000 16.234
54.44000 11.043
54.48000 9.195
54.52000 11.110
54.56000 12.147
54.60000 14.369
54.64000 13.181
54.68000 6.077
54.72000 17.031
54.76000 12.286
54.80000 13.135
54.84000 15.121
54.88000 14.264
54.92000 11.173
54.96000 7.014
55.00000 7.088
55.04000 9.089
55.08000 12.143
55.12000 8.978
55.16000 10.224
55.20000 7.149
55.24000 16.141
55.28000 6.080
55.32000 6.052
55.36000 11.236
55.40000 9.019
55.44000 12.105
55.48000 10.139
55.52000 13.147
55.56000 8.201
55.60000 14.115
55.64000 10.187
55.68000 10.180
55.72000 10.193
55.76000 13.233
55.80000 8.097
55.84000 9.086
55.88000 8.074
55.92000 13.218
55.96000 10.213
56.00000 11.003
56.04000 7.045
56.08000 8.148
56.12000 9.083
56.16000 12.105
56.20000 7.115
56.24000 8.084
56.28000 13.284
56.32000 9.119
56.36000 9.000
56.40000 9.032
56.44000 4.990
56.48000 10.044
56.52000 7.126
56.56000 6.988
56.60000 11.108
56.64000 7.064
56.68000 13.155
56.72000 6.059
56.76000 16.397
56.80000 9.267
56.84000 12.182
56.88000 12.052
56.92000 9.104
56.96000 12.147
57.00000 8.045
57.04000 12.251
57.08000 11.210
57.12000 6.088
57.16000 12.255
57.20000 10.232
57.24000 15.073
57.28000 4.055
57.32000 6.076
57.36000 16.307
57.40000 10.157
57.44000 14.135
57.48000 16.164
57.52000 12.163
57.56000 16.019
57.60000 9.016
57.64000 14.343
57.68000 12.199
57.72000 12.342
57.76000 8.103
57.80000 12.112
57.84000 10.117
57.88000 8.124
57.92000 12.194
57.96000 6.177
58.00000 9.131
58.04000 9.168
58.08000 10.060
58.12000 13.251
58.16000 11.074
58.20000 9.183
58.24000 15.231
58.28000 13.326
58.32000 10.025
58.36000 4.054
58.40000 9.027
58.44000 10.228
58.48000 9.103
58.52000 8.008
58.56000 14.233
58.60000 15.123
58.64000 10.215
58.68000 8.038
58.72000 13.176
58.76000 6.009
58.80000 9.104
58.84000 8.045
58.88000 6.048
58.92000 8.033
58.96000 5.119
59.00000 9.095
59.04000 7.142
59.08000 11.160
59.12000 9.111
59.16000 8.247
59.20000 7.138
59.24000 7.105
59.28000 5.064
59.32000 4.136
59.36000 9.062
59.40000 8.036
59.44000 12.187
59.48000 12.161
59.52000 10.155
59.56000 11.296
59.60000 12.171
59.64000 12.003
59.68000 7.096
59.72000 10.094
59.76000 11.173
59.80000 7.086
59.84000 14.268
59.88000 8.173
59.92000 9.101
59.96000 7.193
60.00000 8.164
60.04000 7.040
60.08000 11.186
60.12000 11.209
60.16000 6.093
60.20000 7.178
60.24000 8.179
60.28000 10.059
60.32000 10.174
60.36000 8.073
60.40000 11.086
60.44000 6.028
60.48000 8.035
60.52000 10.069
60.56000 14.998
60.60000 6.150
60.64000 9.099
60.68000 4.114
60.72000 5.097
60.76000 12.183
60.80000 10.135
60.84000 10.217
60.88000 7.231
60.92000 7.989
60.96000 3.064
61.00000 6.063
61.04000 6.995
61.08000 11.221
61.12000 8.092
61.16000 10.056
61.20000 8.165
61.24000 6.073
61.28000 8.009
61.32000 9.225
61.36000 9.034
61.40000 6.079
61.44000 9.089
61.48000 5.033
61.52000 3.000
61.56000 6.154
61.60000 5.135
61.64000 9.065
61.68000 3.967
61.72000 10.134
61.76000 10.141
61.80000 6.133
61.84000 9.146
61.88000 10.264
61.92000 9.090
61.96000 9.131
62.00000 8.007
62.04000 8.035
62.08000 4.049
62.12000 10.162
62.16000 14.088
62.20000 5.116
62.24000 9.103
62.28000 5.026
62.32000 7.150
62.36000 6.162
62.40000 11.177
62.44000 7.128
62.48000 12.072
62.52000 12.013
62.56000 4.090
62.60000 10.234
62.64000 6.078
62.68000 9.095
62.72000 7.083
62.76000 10.087
62.80000 7.036
62.84000 10.117
62.88000 6.055
62.92000 6.114
62.96000 4.037
63.00000 4.016
63.04000 3.044
63.08000 7.077
63.12000 5.155
63.16000 4.010
63.20000 12.136
63.24000 4.020
63.28000 5.053
63.32000 6.043
63.36000 9.050
63.40000 4.178
63.44000 8.053
63.48000 8.125
63.52000 8.079
63.56000 4.983
63.60000 7.031
63.64000 11.245
63.68000 11.019
63.72000 5.143
63.76000 9.163
63.80000 5.119
63.84000 7.040
63.88000 12.063
63.92000 16.113
63.96000 6.056
64.00000 7.050
64.04000 7.104
64.08000 7.072
64.12000 12.139
64.16000 2.984
64.20000 3.053
64.24000 10.087
64.28000 6.102
64.32000 7.102
64.36000 11.226
64.40000 7.070
64.44000 8.084
64.48000 9.251
64.52000 1.993
64.56000 11.100
64.60000 7.061
64.64000 4.002
64.68000 12.176
64.72000 3.019
64.76000 7.050
64.80000 8.120
64.84000 8.177
64.88000 4.049
64.92000 9.090
64.96000 6.039
65.00000 8.025