File: XRD/11-09-2025/XY Data/01092025_BTO_omega_0_5_001_09_22-524_10-847.xy
20.00000 22.096
20.04000 16.214
20.08000 16.167
20.12000 20.387
20.16000 18.220
20.20000 15.241
20.24000 15.143
20.28000 16.436
20.32000 30.388
20.36000 17.241
20.40000 21.344
20.44000 19.255
20.48000 22.114
20.52000 18.274
20.56000 16.107
20.60000 12.298
20.64000 20.286
20.68000 18.323
20.72000 15.176
20.76000 29.311
20.80000 17.156
20.84000 19.380
20.88000 28.400
20.92000 14.111
20.96000 28.508
21.00000 16.227
21.04000 24.191
21.08000 14.409
21.12000 18.292
21.16000 19.246
21.20000 21.335
21.24000 27.492
21.28000 26.419
21.32000 22.376
21.36000 27.382
21.40000 25.202
21.44000 22.427
21.48000 19.204
21.52000 18.307
21.56000 24.503
21.60000 14.078
21.64000 18.485
21.68000 15.132
21.72000 19.222
21.76000 31.292
21.80000 23.207
21.84000 19.294
21.88000 23.311
21.92000 17.201
21.96000 17.202
22.00000 27.279
22.04000 25.453
22.08000 33.276
22.12000 19.456
22.16000 21.029
22.20000 22.369
22.24000 22.211
22.28000 19.268
22.32000 24.454
22.36000 35.513
22.40000 30.611
22.44000 17.250
22.48000 20.278
22.52000 28.093
22.56000 22.393
22.60000 18.112
22.64000 27.300
22.68000 20.372
22.72000 26.700
22.76000 20.342
22.80000 28.166
22.84000 21.522
22.88000 29.408
22.92000 29.327
22.96000 26.380
23.00000 22.301
23.04000 26.440
23.08000 30.513
23.12000 23.197
23.16000 26.190
23.20000 21.106
23.24000 26.340
23.28000 22.268
23.32000 25.346
23.36000 18.261
23.40000 23.397
23.44000 25.193
23.48000 19.245
23.52000 24.152
23.56000 25.434
23.60000 26.252
23.64000 36.506
23.68000 39.585
23.72000 20.203
23.76000 26.493
23.80000 37.498
23.84000 31.459
23.88000 31.548
23.92000 26.329
23.96000 23.323
24.00000 40.589
24.04000 34.574
24.08000 26.505
24.12000 27.299
24.16000 29.434
24.20000 35.533
24.24000 32.703
24.28000 30.411
24.32000 42.539
24.36000 35.296
24.40000 24.319
24.44000 27.202
24.48000 46.468
24.52000 32.384
24.56000 37.349
24.60000 25.495
24.64000 47.486
24.68000 34.603
24.72000 51.002
24.76000 39.533
24.80000 47.539
24.84000 38.401
24.88000 32.575
24.92000 45.695
24.96000 32.398
25.00000 41.348
25.04000 37.469
25.08000 56.917
25.12000 45.694
25.16000 37.677
25.20000 30.437
25.24000 46.525
25.28000 39.692
25.32000 44.387
25.36000 45.505
25.40000 44.471
25.44000 40.428
25.48000 36.698
25.52000 46.834
25.56000 55.675
25.60000 48.730
25.64000 47.697
25.68000 42.551
25.72000 37.520
25.76000 36.606
25.80000 46.681
25.84000 47.664
25.88000 53.934
25.92000 49.552
25.96000 48.483
26.00000 52.771
26.04000 51.578
26.08000 50.586
26.12000 59.975
26.16000 54.782
26.20000 51.933
26.24000 42.394
26.28000 50.704
26.32000 55.781
26.36000 65.036
26.40000 51.495
26.44000 53.011
26.48000 61.791
26.52000 48.374
26.56000 58.978
26.60000 56.822
26.64000 62.763
26.68000 60.795
26.72000 47.493
26.76000 52.049
26.80000 52.670
26.84000 50.594
26.88000 52.801
26.92000 63.656
26.96000 52.609
27.00000 62.915
27.04000 62.104
27.08000 65.781
27.12000 72.099
27.16000 63.718
27.20000 48.871
27.24000 56.669
27.28000 71.606
27.32000 64.779
27.36000 55.703
27.40000 58.968
27.44000 66.007
27.48000 51.799
27.52000 66.872
27.56000 54.693
27.60000 58.729
27.64000 65.967
27.68000 69.247
27.72000 50.632
27.76000 61.816
27.80000 67.902
27.84000 59.137
27.88000 60.669
27.92000 61.739
27.96000 59.986
28.00000 62.117
28.04000 74.086
28.08000 59.987
28.12000 61.084
28.16000 49.625
28.20000 55.578
28.24000 58.984
28.28000 62.708
28.32000 58.866
28.36000 64.759
28.40000 70.878
28.44000 58.810
28.48000 62.137
28.52000 54.638
28.56000 51.633
28.60000 62.803
28.64000 71.141
28.68000 54.459
28.72000 66.797
28.76000 68.057
28.80000 53.732
28.84000 50.754
28.88000 52.787
28.92000 54.927
28.96000 54.574
29.00000 43.447
29.04000 63.810
29.08000 61.861
29.12000 49.608
29.16000 52.682
29.20000 58.957
29.24000 42.453
29.28000 55.339
29.32000 53.651
29.36000 47.699
29.40000 45.659
29.44000 44.688
29.48000 52.641
29.52000 60.892
29.56000 66.158
29.60000 54.735
29.64000 59.717
29.68000 48.602
29.72000 40.350
29.76000 40.691
29.80000 57.758
29.84000 41.419
29.88000 49.803
29.92000 50.622
29.96000 47.562
30.00000 44.644
30.04000 43.598
30.08000 34.420
30.12000 46.702
30.16000 34.421
30.20000 53.024
30.24000 53.552
30.28000 42.400
30.32000 36.528
30.36000 37.526
30.40000 39.834
30.44000 41.567
30.48000 45.452
30.52000 26.369
30.56000 30.442
30.60000 42.813
30.64000 36.306
30.68000 56.644
30.72000 37.646
30.76000 45.753
30.80000 36.509
30.84000 45.780
30.88000 37.638
30.92000 50.874
30.96000 30.640
31.00000 33.594
31.04000 33.450
31.08000 34.504
31.12000 36.418
31.16000 35.554
31.20000 36.594
31.24000 31.637
31.28000 30.224
31.32000 29.633
31.36000 32.428
31.40000 28.373
31.44000 36.759
31.48000 32.554
31.52000 41.647
31.56000 49.579
31.60000 25.235
31.64000 32.438
31.68000 36.286
31.72000 27.429
31.76000 32.410
31.80000 34.481
31.84000 26.291
31.88000 33.529
31.92000 26.458
31.96000 32.223
32.00000 27.420
32.04000 31.322
32.08000 22.386
32.12000 29.521
32.16000 30.390
32.20000 28.297
32.24000 33.389
32.28000 38.567
32.32000 22.233
32.36000 28.278
32.40000 20.214
32.44000 37.310
32.48000 28.325
32.52000 22.333
32.56000 23.356
32.60000 22.074
32.64000 28.159
32.68000 33.570
32.72000 17.284
32.76000 21.303
32.80000 29.610
32.84000 22.383
32.88000 26.335
32.92000 21.332
32.96000 28.153
33.00000 31.454
33.04000 29.415
33.08000 21.244
33.12000 27.252
33.16000 20.310
33.20000 22.172
33.24000 30.432
33.28000 20.102
33.32000 21.230
33.36000 21.323
33.40000 24.288
33.44000 26.574
33.48000 10.303
33.52000 21.477
33.56000 13.163
33.60000 17.192
33.64000 21.481
33.68000 19.286
33.72000 18.102
33.76000 22.490
33.80000 17.212
33.84000 20.381
33.88000 13.176
33.92000 16.205
33.96000 13.289
34.00000 18.446
34.04000 16.105
34.08000 16.113
34.12000 21.143
34.16000 20.441
34.20000 12.183
34.24000 18.280
34.28000 20.262
34.32000 15.228
34.36000 16.221
34.40000 11.108
34.44000 19.276
34.48000 18.306
34.52000 13.110
34.56000 18.283
34.60000 22.386
34.64000 20.228
34.68000 14.205
34.72000 11.035
34.76000 13.257
34.80000 17.343
34.84000 17.082
34.88000 24.210
34.92000 16.288
34.96000 21.314
35.00000 18.184
35.04000 14.195
35.08000 23.299
35.12000 14.273
35.16000 13.262
35.20000 21.974
35.24000 18.207
35.28000 17.059
35.32000 16.164
35.36000 20.324
35.40000 19.315
35.44000 25.160
35.48000 22.332
35.52000 17.324
35.56000 15.394
35.60000 16.292
35.64000 22.378
35.68000 22.446
35.72000 19.254
35.76000 24.366
35.80000 9.128
35.84000 20.312
35.88000 17.131
35.92000 14.185
35.96000 18.136
36.00000 10.107
36.04000 16.131
36.08000 15.211
36.12000 19.198
36.16000 22.802
36.20000 16.182
36.24000 21.253
36.28000 11.189
36.32000 22.294
36.36000 19.381
36.40000 17.206
36.44000 28.250
36.48000 19.193
36.52000 21.266
36.56000 15.031
36.60000 15.329
36.64000 28.287
36.68000 17.318
36.72000 12.176
36.76000 19.361
36.80000 11.250
36.84000 22.209
36.88000 14.209
36.92000 19.334
36.96000 16.216
37.00000 18.161
37.04000 14.171
37.08000 20.369
37.12000 21.347
37.16000 23.333
37.20000 21.091
37.24000 21.317
37.28000 14.080
37.32000 24.359
37.36000 10.949
37.40000 12.206
37.44000 21.445
37.48000 21.400
37.52000 23.416
37.56000 15.195
37.60000 23.247
37.64000 17.269
37.68000 21.386
37.72000 20.305
37.76000 22.492
37.80000 17.347
37.84000 18.331
37.88000 16.091
37.92000 25.329
37.96000 22.472
38.00000 16.242
38.04000 13.212
38.08000 18.207
38.12000 17.255
38.16000 22.284
38.20000 21.362
38.24000 11.130
38.28000 21.185
38.32000 20.310
38.36000 14.144
38.40000 13.134
38.44000 15.349
38.48000 19.302
38.52000 27.494
38.56000 14.079
38.60000 13.261
38.64000 18.324
38.68000 30.546
38.72000 18.296
38.76000 14.359
38.80000 21.195
38.84000 17.179
38.88000 25.244
38.92000 15.110
38.96000 22.182
39.00000 20.110
39.04000 19.180
39.08000 20.368
39.12000 32.260
39.16000 20.319
39.20000 19.167
39.24000 21.286
39.28000 17.192
39.32000 22.293
39.36000 16.103
39.40000 21.321
39.44000 19.222
39.48000 22.617
39.52000 24.200
39.56000 13.265
39.60000 22.159
39.64000 23.308
39.68000 21.246
39.72000 13.198
39.76000 30.362
39.80000 14.259
39.84000 26.247
39.88000 22.436
39.92000 25.354
39.96000 22.302
40.00000 23.464
40.04000 25.272
40.08000 29.571
40.12000 20.118
40.16000 21.319
40.20000 22.050
40.24000 22.196
40.28000 18.285
40.32000 24.335
40.36000 26.486
40.40000 29.558
40.44000 21.248
40.48000 27.367
40.52000 36.581
40.56000 22.160
40.60000 28.324
40.64000 19.110
40.68000 12.262
40.72000 19.292
40.76000 16.195
40.80000 19.202
40.84000 30.548
40.88000 30.415
40.92000 26.357
40.96000 25.437
41.00000 23.163
41.04000 31.412
41.08000 26.339
41.12000 19.366
41.16000 26.390
41.20000 24.450
41.24000 18.151
41.28000 23.102
41.32000 23.261
41.36000 20.349
41.40000 22.227
41.44000 21.324
41.48000 17.238
41.52000 15.236
41.56000 20.329
41.60000 18.179
41.64000 27.171
41.68000 24.254
41.72000 25.370
41.76000 24.255
41.80000 13.181
41.84000 24.219
41.88000 27.310
41.92000 22.027
41.96000 20.254
42.00000 27.364
42.04000 14.152
42.08000 19.298
42.12000 23.305
42.16000 22.244
42.20000 24.173
42.24000 12.078
42.28000 22.252
42.32000 20.308
42.36000 24.501
42.40000 26.366
42.44000 21.263
42.48000 19.322
42.52000 17.311
42.56000 23.449
42.60000 27.412
42.64000 23.459
42.68000 24.165
42.72000 22.280
42.76000 29.471
42.80000 29.191
42.84000 16.124
42.88000 18.255
42.92000 25.475
42.96000 19.202
43.00000 14.152
43.04000 22.168
43.08000 24.085
43.12000 24.310
43.16000 18.348
43.20000 27.412
43.24000 26.237
43.28000 22.280
43.32000 24.300
43.36000 22.323
43.40000 19.183
43.44000 14.198
43.48000 23.299
43.52000 20.141
43.56000 13.092
43.60000 22.202
43.64000 17.165
43.68000 22.451
43.72000 26.446
43.76000 27.261
43.80000 24.620
43.84000 25.529
43.88000 20.188
43.92000 20.433
43.96000 22.115
44.00000 20.400
44.04000 16.174
44.08000 24.269
44.12000 24.357
44.16000 18.130
44.20000 27.358
44.24000 28.406
44.28000 22.218
44.32000 22.236
44.36000 19.205
44.40000 21.084
44.44000 15.285
44.48000 22.222
44.52000 24.590
44.56000 18.328
44.60000 17.426
44.64000 15.069
44.68000 24.383
44.72000 18.292
44.76000 36.487
44.80000 21.335
44.84000 25.345
44.88000 15.142
44.92000 20.293
44.96000 20.246
45.00000 16.331
45.04000 25.326
45.08000 26.358
45.12000 15.049
45.16000 26.317
45.20000 24.250
45.24000 22.237
45.28000 21.262
45.32000 20.372
45.36000 22.096
45.40000 21.366
45.44000 23.327
45.48000 21.300
45.52000 18.067
45.56000 25.453
45.60000 15.340
45.64000 18.077
45.68000 20.287
45.72000 20.104
45.76000 16.199
45.80000 18.287
45.84000 31.388
45.88000 23.439
45.92000 20.138
45.96000 19.235
46.00000 24.492
46.04000 28.346
46.08000 23.395
46.12000 17.196
46.16000 30.541
46.20000 20.265
46.24000 14.214
46.28000 21.413
46.32000 21.358
46.36000 22.068
46.40000 30.530
46.44000 24.444
46.48000 17.231
46.52000 21.028
46.56000 17.269
46.60000 16.120
46.64000 20.359
46.68000 16.257
46.72000 24.153
46.76000 18.183
46.80000 21.188
46.84000 27.296
46.88000 24.320
46.92000 16.387
46.96000 16.211
47.00000 17.241
47.04000 23.530
47.08000 26.578
47.12000 20.182
47.16000 23.296
47.20000 17.167
47.24000 11.282
47.28000 26.359
47.32000 15.069
47.36000 25.160
47.40000 19.327
47.44000 21.330
47.48000 17.113
47.52000 21.273
47.56000 22.286
47.60000 31.439
47.64000 18.453
47.68000 15.094
47.72000 18.281
47.76000 16.289
47.80000 14.191
47.84000 11.188
47.88000 19.280
47.92000 21.223
47.96000 24.253
48.00000 21.160
48.04000 21.195
48.08000 26.376
48.12000 11.168
48.16000 28.296
48.20000 15.266
48.24000 23.345
48.28000 16.172
48.32000 17.038
48.36000 16.473
48.40000 16.968
48.44000 24.336
48.48000 20.218
48.52000 13.320
48.56000 15.129
48.60000 23.088
48.64000 22.348
48.68000 18.195
48.72000 21.279
48.76000 13.271
48.80000 17.328
48.84000 19.087
48.88000 22.179
48.92000 12.163
48.96000 10.986
49.00000 19.328
49.04000 23.378
49.08000 14.176
49.12000 25.285
49.16000 14.193
49.20000 12.067
49.24000 15.046
49.28000 23.313
49.32000 10.042
49.36000 26.103
49.40000 16.165
49.44000 19.411
49.48000 20.168
49.52000 16.287
49.56000 19.113
49.60000 30.336
49.64000 26.447
49.68000 16.326
49.72000 13.278
49.76000 15.164
49.80000 16.198
49.84000 13.181
49.88000 21.319
49.92000 23.165
49.96000 14.168
50.00000 17.047
50.04000 20.376
50.08000 19.346
50.12000 20.471
50.16000 18.288
50.20000 9.131
50.24000 15.271
50.28000 21.379
50.32000 13.206
50.36000 16.267
50.40000 13.181
50.44000 22.224
50.48000 17.965
50.52000 18.280
50.56000 16.277
50.60000 14.237
50.64000 11.097
50.68000 22.365
50.72000 16.407
50.76000 14.237
50.80000 13.177
50.84000 12.093
50.88000 13.177
50.92000 15.275
50.96000 15.277
51.00000 17.349
51.04000 17.102
51.08000 17.071
51.12000 19.065
51.16000 11.158
51.20000 18.270
51.24000 21.306
51.28000 13.122
51.32000 20.302
51.36000 15.216
51.40000 21.295
51.44000 17.231
51.48000 9.033
51.52000 11.205
51.56000 22.349
51.60000 15.089
51.64000 16.218
51.68000 12.984
51.72000 14.069
51.76000 14.117
51.80000 19.315
51.84000 16.098
51.88000 15.196
51.92000 16.434
51.96000 12.100
52.00000 18.131
52.04000 12.175
52.08000 20.200
52.12000 20.448
52.16000 17.239
52.20000 9.221
52.24000 15.096
52.28000 19.209
52.32000 21.198
52.36000 18.298
52.40000 14.171
52.44000 17.285
52.48000 14.245
52.52000 7.070
52.56000 15.197
52.60000 10.136
52.64000 8.974
52.68000 11.059
52.72000 11.032
52.76000 14.128
52.80000 11.225
52.84000 18.229
52.88000 10.025
52.92000 13.113
52.96000 14.280
53.00000 13.232
53.04000 15.212
53.08000 18.277
53.12000 14.086
53.16000 18.160
53.20000 12.165
53.24000 21.283
53.28000 19.200
53.32000 25.264
53.36000 11.120
53.40000 15.233
53.44000 15.198
53.48000 14.211
53.52000 13.191
53.56000 15.330
53.60000 16.196
53.64000 20.272
53.68000 14.212
53.72000 14.143
53.76000 13.078
53.80000 18.337
53.84000 16.316
53.88000 17.353
53.92000 13.174
53.96000 14.178
54.00000 14.100
54.04000 13.939
54.08000 14.346
54.12000 14.119
54.16000 7.184
54.20000 14.082
54.24000 7.191
54.28000 14.087
54.32000 15.065
54.36000 12.142
54.40000 12.176
54.44000 16.070
54.48000 14.212
54.52000 15.249
54.56000 13.261
54.60000 20.061
54.64000 8.107
54.68000 10.252
54.72000 18.090
54.76000 17.151
54.80000 15.187
54.84000 12.093
54.88000 7.283
54.92000 16.167
54.96000 7.066
55.00000 14.107
55.04000 16.349
55.08000 15.226
55.12000 14.122
55.16000 11.125
55.20000 8.111
55.24000 11.034
55.28000 15.403
55.32000 13.133
55.36000 17.355
55.40000 16.072
55.44000 9.092
55.48000 13.198
55.52000 14.159
55.56000 15.189
55.60000 11.099
55.64000 10.195
55.68000 13.173
55.72000 18.314
55.76000 17.214
55.80000 19.184
55.84000 14.146
55.88000 9.227
55.92000 14.279
55.96000 16.306
56.00000 10.191
56.04000 16.192
56.08000 11.050
56.12000 15.238
56.16000 11.346
56.20000 6.090
56.24000 7.024
56.28000 13.183
56.32000 12.042
56.36000 12.118
56.40000 10.144
56.44000 15.052
56.48000 6.168
56.52000 15.154
56.56000 9.200
56.60000 5.079
56.64000 8.120
56.68000 21.444
56.72000 11.256
56.76000 11.185
56.80000 10.192
56.84000 15.158
56.88000 11.052
56.92000 16.145
56.96000 9.028
57.00000 8.109
57.04000 11.214
57.08000 9.142
57.12000 10.113
57.16000 9.157
57.20000 14.231
57.24000 13.255
57.28000 19.171
57.32000 12.245
57.36000 13.008
57.40000 11.179
57.44000 11.162
57.48000 14.197
57.52000 10.095
57.56000 21.451
57.60000 15.135
57.64000 15.127
57.68000 10.155
57.72000 12.063
57.76000 15.109
57.80000 16.318
57.84000 7.110
57.88000 18.182
57.92000 21.301
57.96000 12.163
58.00000 4.088
58.04000 15.258
58.08000 7.147
58.12000 13.220
58.16000 15.217
58.20000 16.165
58.24000 11.319
58.28000 14.071
58.32000 12.219
58.36000 12.063
58.40000 14.104
58.44000 8.077
58.48000 7.037
58.52000 14.218
58.56000 8.097
58.60000 16.211
58.64000 8.077
58.68000 10.195
58.72000 10.210
58.76000 16.225
58.80000 6.140
58.84000 13.230
58.88000 4.021
58.92000 5.022
58.96000 5.095
59.00000 4.030
59.04000 6.118
59.08000 6.088
59.12000 12.213
59.16000 7.068
59.20000 13.211
59.24000 8.100
59.28000 11.178
59.32000 8.086
59.36000 12.248
59.40000 7.179
59.44000 14.197
59.48000 16.077
59.52000 14.147
59.56000 16.153
59.60000 13.014
59.64000 10.047
59.68000 9.081
59.72000 11.158
59.76000 6.988
59.80000 13.095
59.84000 8.129
59.88000 6.057
59.92000 7.042
59.96000 9.187
60.00000 10.085
60.04000 7.132
60.08000 8.077
60.12000 10.047
60.16000 7.114
60.20000 6.089
60.24000 11.154
60.28000 12.150
60.32000 16.113
60.36000 3.969
60.40000 11.028
60.44000 12.092
60.48000 8.169
60.52000 8.133
60.56000 6.111
60.60000 10.041
60.64000 15.245
60.68000 7.185
60.72000 6.046
60.76000 10.052
60.80000 11.140
60.84000 8.018
60.88000 7.105
60.92000 8.136
60.96000 12.033
61.00000 6.173
61.04000 3.978
61.08000 8.137
61.12000 11.190
61.16000 8.048
61.20000 13.205
61.24000 12.319
61.28000 7.111
61.32000 11.135
61.36000 7.105
61.40000 11.033
61.44000 11.078
61.48000 8.085
61.52000 13.143
61.56000 5.106
61.60000 7.235
61.64000 7.071
61.68000 5.099
61.72000 5.142
61.76000 7.184
61.80000 10.146
61.84000 9.245
61.88000 4.993
61.92000 8.082
61.96000 12.184
62.00000 12.260
62.04000 3.069
62.08000 2.005
62.12000 9.137
62.16000 9.070
62.20000 7.083
62.24000 12.085
62.28000 11.053
62.32000 14.259
62.36000 8.013
62.40000 11.139
62.44000 9.164
62.48000 7.089
62.52000 13.164
62.56000 8.146
62.60000 6.104
62.64000 10.214
62.68000 10.031
62.72000 6.043
62.76000 6.077
62.80000 7.139
62.84000 4.092
62.88000 10.073
62.92000 9.048
62.96000 4.028
63.00000 13.953
63.04000 7.136
63.08000 9.207
63.12000 9.047
63.16000 7.091
63.20000 13.082
63.24000 6.114
63.28000 8.130
63.32000 13.067
63.36000 5.077
63.40000 8.116
63.44000 8.126
63.48000 5.049
63.52000 7.156
63.56000 13.185
63.60000 3.032
63.64000 17.046
63.68000 8.071
63.72000 6.047
63.76000 6.004
63.80000 11.177
63.84000 10.172
63.88000 11.083
63.92000 5.037
63.96000 9.004
64.00000 10.100
64.04000 8.104
64.08000 11.076
64.12000 6.182
64.16000 11.160
64.20000 4.009
64.24000 11.462
64.28000 15.241
64.32000 6.199
64.36000 13.072
64.40000 8.152
64.44000 2.984
64.48000 9.182
64.52000 10.030
64.56000 3.057
64.60000 7.088
64.64000 8.176
64.68000 5.075
64.72000 10.094
64.76000 9.233
64.80000 5.005
64.84000 9.098
64.88000 6.036
64.92000 4.998
64.96000 10.232
65.00000 9.165