File: XRD/11-09-2025/XY Data/01092025_BTO_omega_1_001_14_-15-587_-19-546.xy
20.00000 156.334
20.04000 160.293
20.08000 157.111
20.12000 142.589
20.16000 139.753
20.20000 141.290
20.24000 169.766
20.28000 156.451
20.32000 145.355
20.36000 129.374
20.40000 132.273
20.44000 152.440
20.48000 152.282
20.52000 131.031
20.56000 160.202
20.60000 116.914
20.64000 140.250
20.68000 119.088
20.72000 131.323
20.76000 112.950
20.80000 140.111
20.84000 140.117
20.88000 126.143
20.92000 111.086
20.96000 125.108
21.00000 115.154
21.04000 110.815
21.08000 115.268
21.12000 122.147
21.16000 111.097
21.20000 121.945
21.24000 99.311
21.28000 104.206
21.32000 96.611
21.36000 105.372
21.40000 96.868
21.44000 101.989
21.48000 111.168
21.52000 102.404
21.56000 105.991
21.60000 117.970
21.64000 113.486
21.68000 86.935
21.72000 98.733
21.76000 91.787
21.80000 98.102
21.84000 73.741
21.88000 92.726
21.92000 99.581
21.96000 83.743
22.00000 85.408
22.04000 85.648
22.08000 88.590
22.12000 63.588
22.16000 66.745
22.20000 62.430
22.24000 62.683
22.28000 66.430
22.32000 57.183
22.36000 57.392
22.40000 71.659
22.44000 57.458
22.48000 63.678
22.52000 59.645
22.56000 66.695
22.60000 61.759
22.64000 67.490
22.68000 60.495
22.72000 63.768
22.76000 76.739
22.80000 58.044
22.84000 54.709
22.88000 48.576
22.92000 52.755
22.96000 53.337
23.00000 40.275
23.04000 47.477
23.08000 50.642
23.12000 36.283
23.16000 41.372
23.20000 41.454
23.24000 42.279
23.28000 37.300
23.32000 47.563
23.36000 35.364
23.40000 40.779
23.44000 37.408
23.48000 44.544
23.52000 36.254
23.56000 40.826
23.60000 35.465
23.64000 48.265
23.68000 31.325
23.72000 38.535
23.76000 36.390
23.80000 38.351
23.84000 29.159
23.88000 34.128
23.92000 33.622
23.96000 35.330
24.00000 31.448
24.04000 30.149
24.08000 27.225
24.12000 27.279
24.16000 17.075
24.20000 33.234
24.24000 43.311
24.28000 21.125
24.32000 35.406
24.36000 21.127
24.40000 28.369
24.44000 18.263
24.48000 31.308
24.52000 27.259
24.56000 22.223
24.60000 29.423
24.64000 26.309
24.68000 18.190
24.72000 24.267
24.76000 18.246
24.80000 24.355
24.84000 16.315
24.88000 23.275
24.92000 22.235
24.96000 24.375
25.00000 27.183
25.04000 19.233
25.08000 24.253
25.12000 24.482
25.16000 21.227
25.20000 27.348
25.24000 14.144
25.28000 25.276
25.32000 18.259
25.36000 21.212
25.40000 20.207
25.44000 14.301
25.48000 19.187
25.52000 21.354
25.56000 14.022
25.60000 20.276
25.64000 12.109
25.68000 16.262
25.72000 12.076
25.76000 21.145
25.80000 15.154
25.84000 19.255
25.88000 17.144
25.92000 16.204
25.96000 21.324
26.00000 13.285
26.04000 14.144
26.08000 16.081
26.12000 17.270
26.16000 10.147
26.20000 11.074
26.24000 21.359
26.28000 17.156
26.32000 15.207
26.36000 13.118
26.40000 17.189
26.44000 14.180
26.48000 14.291
26.52000 20.212
26.56000 15.205
26.60000 13.075
26.64000 20.357
26.68000 8.099
26.72000 13.085
26.76000 9.258
26.80000 7.097
26.84000 22.322
26.88000 13.154
26.92000 21.346
26.96000 12.193
27.00000 18.291
27.04000 15.115
27.08000 19.295
27.12000 8.165
27.16000 13.180
27.20000 20.278
27.24000 19.283
27.28000 11.137
27.32000 11.988
27.36000 14.279
27.40000 12.922
27.44000 11.113
27.48000 14.129
27.52000 17.236
27.56000 15.134
27.60000 11.128
27.64000 15.292
27.68000 14.060
27.72000 7.149
27.76000 14.091
27.80000 7.057
27.84000 13.132
27.88000 14.073
27.92000 12.137
27.96000 16.158
28.00000 7.994
28.04000 11.160
28.08000 11.001
28.12000 12.060
28.16000 19.242
28.20000 17.236
28.24000 11.107
28.28000 11.346
28.32000 17.058
28.36000 14.277
28.40000 15.153
28.44000 16.154
28.48000 10.241
28.52000 7.087
28.56000 8.174
28.60000 10.028
28.64000 18.272
28.68000 19.150
28.72000 12.198
28.76000 15.214
28.80000 7.239
28.84000 8.147
28.88000 12.061
28.92000 10.018
28.96000 10.086
29.00000 7.164
29.04000 7.133
29.08000 10.092
29.12000 8.101
29.16000 11.135
29.20000 10.099
29.24000 11.117
29.28000 12.263
29.32000 6.057
29.36000 2.991
29.40000 14.300
29.44000 10.052
29.48000 3.056
29.52000 13.090
29.56000 10.241
29.60000 10.121
29.64000 12.209
29.68000 10.012
29.72000 7.105
29.76000 8.967
29.80000 5.069
29.84000 7.082
29.88000 8.097
29.92000 10.192
29.96000 10.019
30.00000 9.237
30.04000 14.384
30.08000 9.136
30.12000 12.141
30.16000 6.086
30.20000 8.138
30.24000 10.064
30.28000 13.182
30.32000 7.323
30.36000 10.242
30.40000 8.076
30.44000 10.193
30.48000 11.314
30.52000 15.248
30.56000 11.174
30.60000 9.171
30.64000 6.016
30.68000 11.120
30.72000 11.225
30.76000 7.108
30.80000 9.056
30.84000 8.234
30.88000 9.120
30.92000 9.071
30.96000 10.960
31.00000 3.986
31.04000 6.140
31.08000 11.313
31.12000 8.133
31.16000 9.119
31.20000 10.233
31.24000 8.042
31.28000 4.050
31.32000 9.159
31.36000 9.111
31.40000 10.122
31.44000 4.036
31.48000 8.069
31.52000 9.137
31.56000 9.205
31.60000 13.061
31.64000 5.141
31.68000 8.063
31.72000 7.088
31.76000 9.071
31.80000 9.143
31.84000 9.177
31.88000 2.074
31.92000 9.183
31.96000 6.040
32.00000 9.082
32.04000 7.108
32.08000 10.167
32.12000 6.989
32.16000 9.027
32.20000 5.033
32.24000 8.021
32.28000 11.263
32.32000 6.023
32.36000 7.069
32.40000 8.164
32.44000 14.168
32.48000 10.041
32.52000 8.089
32.56000 6.083
32.60000 10.198
32.64000 6.033
32.68000 9.036
32.72000 8.221
32.76000 6.082
32.80000 9.221
32.84000 11.205
32.88000 5.094
32.92000 10.217
32.96000 5.995
33.00000 3.984
33.04000 10.074
33.08000 6.998
33.12000 8.943
33.16000 6.011
33.20000 8.144
33.24000 10.124
33.28000 12.038
33.32000 8.218
33.36000 6.167
33.40000 8.028
33.44000 3.950
33.48000 9.165
33.52000 6.184
33.56000 5.037
33.60000 5.005
33.64000 5.015
33.68000 9.116
33.72000 10.131
33.76000 6.054
33.80000 8.080
33.84000 7.114
33.88000 10.167
33.92000 5.071
33.96000 6.996
34.00000 8.048
34.04000 10.106
34.08000 6.067
34.12000 9.101
34.16000 1.999
34.20000 5.104
34.24000 7.055
34.28000 5.096
34.32000 9.179
34.36000 6.109
34.40000 4.058
34.44000 13.287
34.48000 4.993
34.52000 8.107
34.56000 11.186
34.60000 10.074
34.64000 1.017
34.68000 6.104
34.72000 6.114
34.76000 5.024
34.80000 6.941
34.84000 6.150
34.88000 9.330
34.92000 8.154
34.96000 4.055
35.00000 5.064
35.04000 8.112
35.08000 3.033
35.12000 12.239
35.16000 11.301
35.20000 6.091
35.24000 6.992
35.28000 4.098
35.32000 6.061
35.36000 4.063
35.40000 3.035
35.44000 8.135
35.48000 4.040
35.52000 1.985
35.56000 8.166
35.60000 7.091
35.64000 2.059
35.68000 9.183
35.72000 11.025
35.76000 5.980
35.80000 6.011
35.84000 2.033
35.88000 9.073
35.92000 4.030
35.96000 5.951
36.00000 7.202
36.04000 9.133
36.08000 6.200
36.12000 5.031
36.16000 3.035
36.20000 3.073
36.24000 6.044
36.28000 8.178
36.32000 1.971
36.36000 7.096
36.40000 5.055
36.44000 8.093
36.48000 9.073
36.52000 6.201
36.56000 9.163
36.60000 7.064
36.64000 10.057
36.68000 4.140
36.72000 11.014
36.76000 7.145
36.80000 7.141
36.84000 7.173
36.88000 2.998
36.92000 3.078
36.96000 8.166
37.00000 9.123
37.04000 7.049
37.08000 4.126
37.12000 6.157
37.16000 3.021
37.20000 7.159
37.24000 4.056
37.28000 7.140
37.32000 11.198
37.36000 6.017
37.40000 7.085
37.44000 7.091
37.48000 2.008
37.52000 2.031
37.56000 4.037
37.60000 4.087
37.64000 3.961
37.68000 2.001
37.72000 6.994
37.76000 10.092
37.80000 1.998
37.84000 8.062
37.88000 5.106
37.92000 7.123
37.96000 5.118
38.00000 8.055
38.04000 1.972
38.08000 5.085
38.12000 2.027
38.16000 2.057
38.20000 7.122
38.24000 0.000
38.28000 2.983
38.32000 7.961
38.36000 6.214
38.40000 4.962
38.44000 7.057
38.48000 6.114
38.52000 4.035
38.56000 7.998
38.60000 8.163
38.64000 7.026
38.68000 6.106
38.72000 5.958
38.76000 3.013
38.80000 5.053
38.84000 2.024
38.88000 3.034
38.92000 4.078
38.96000 5.009
39.00000 9.043
39.04000 2.989
39.08000 5.073
39.12000 3.093
39.16000 3.016
39.20000 0.996
39.24000 7.113
39.28000 9.138
39.32000 7.077
39.36000 3.095
39.40000 3.004
39.44000 6.073
39.48000 5.974
39.52000 4.165
39.56000 2.047
39.60000 3.053
39.64000 6.083
39.68000 3.018
39.72000 8.206
39.76000 12.296
39.80000 6.119
39.84000 2.999
39.88000 6.098
39.92000 4.056
39.96000 3.991
40.00000 6.984
40.04000 5.089
40.08000 6.062
40.12000 2.968
40.16000 4.032
40.20000 4.084
40.24000 5.132
40.28000 4.976
40.32000 6.040
40.36000 5.101
40.40000 5.049
40.44000 6.077
40.48000 5.043
40.52000 1.040
40.56000 2.072
40.60000 3.065
40.64000 4.072
40.68000 4.036
40.72000 0.000
40.76000 2.033
40.80000 3.036
40.84000 0.000
40.88000 6.062
40.92000 3.066
40.96000 2.054
41.00000 8.162
41.04000 7.038
41.08000 4.105
41.12000 5.024
41.16000 9.113
41.20000 3.026
41.24000 5.073
41.28000 4.086
41.32000 1.978
41.36000 2.053
41.40000 2.020
41.44000 2.055
41.48000 4.022
41.52000 1.036
41.56000 5.106
41.60000 5.106
41.64000 3.090
41.68000 3.981
41.72000 7.091
41.76000 10.209
41.80000 2.007
41.84000 5.064
41.88000 5.014
41.92000 1.994
41.96000 4.006
42.00000 6.086
42.04000 4.042
42.08000 4.050
42.12000 3.064
42.16000 2.004
42.20000 5.085
42.24000 6.099
42.28000 5.062
42.32000 4.108
42.36000 4.013
42.40000 2.976
42.44000 4.078
42.48000 4.027
42.52000 2.038
42.56000 2.993
42.60000 4.029
42.64000 4.017
42.68000 6.110
42.72000 5.017
42.76000 6.050
42.80000 5.034
42.84000 0.992
42.88000 4.045
42.92000 6.125
42.96000 3.015
43.00000 2.019
43.04000 6.069
43.08000 2.009
43.12000 6.009
43.16000 4.168
43.20000 4.072
43.24000 1.981
43.28000 5.073
43.32000 6.122
43.36000 3.077
43.40000 5.040
43.44000 5.063
43.48000 4.992
43.52000 5.007
43.56000 3.089
43.60000 6.047
43.64000 3.963
43.68000 9.072
43.72000 5.151
43.76000 3.032
43.80000 8.030
43.84000 5.104
43.88000 5.026
43.92000 2.050
43.96000 1.987
44.00000 2.980
44.04000 6.104
44.08000 4.053
44.12000 5.962
44.16000 5.051
44.20000 2.048
44.24000 5.028
44.28000 1.016
44.32000 8.068
44.36000 3.051
44.40000 3.096
44.44000 4.097
44.48000 5.043
44.52000 4.022
44.56000 3.016
44.60000 4.020
44.64000 5.078
44.68000 2.009
44.72000 4.072
44.76000 1.032
44.80000 3.005
44.84000 5.085
44.88000 0.990
44.92000 0.000
44.96000 4.032
45.00000 5.013
45.04000 4.082
45.08000 1.005
45.12000 3.027
45.16000 0.000
45.20000 6.092
45.24000 3.062
45.28000 0.000
45.32000 5.058
45.36000 3.047
45.40000 8.124
45.44000 5.989
45.48000 2.981
45.52000 3.074
45.56000 2.033
45.60000 3.047
45.64000 1.009
45.68000 2.011
45.72000 3.001
45.76000 3.080
45.80000 4.037
45.84000 2.048
45.88000 3.032
45.92000 1.992
45.96000 2.019
46.00000 0.993
46.04000 1.006
46.08000 2.031
46.12000 4.046
46.16000 6.010
46.20000 2.070
46.24000 2.049
46.28000 4.995
46.32000 2.990
46.36000 2.056
46.40000 3.067
46.44000 3.977
46.48000 6.064
46.52000 8.164
46.56000 3.033
46.60000 3.055
46.64000 0.992
46.68000 5.046
46.72000 4.010
46.76000 5.031
46.80000 5.144
46.84000 4.053
46.88000 4.088
46.92000 1.025
46.96000 8.106
47.00000 7.945
47.04000 2.045
47.08000 4.027
47.12000 2.961
47.16000 3.137
47.20000 1.988
47.24000 1.963
47.28000 0.000
47.32000 3.026
47.36000 3.023
47.40000 4.025
47.44000 0.985
47.48000 6.026
47.52000 2.094
47.56000 6.004
47.60000 3.050
47.64000 2.958
47.68000 0.000
47.72000 4.085
47.76000 3.054
47.80000 3.026
47.84000 6.077
47.88000 3.960
47.92000 0.996
47.96000 4.071
48.00000 1.018
48.04000 0.999
48.08000 2.082
48.12000 3.004
48.16000 3.093
48.20000 2.039
48.24000 0.000
48.28000 2.026
48.32000 2.052
48.36000 4.081
48.40000 1.005
48.44000 3.027
48.48000 1.989
48.52000 0.000
48.56000 4.043
48.60000 0.000
48.64000 2.981
48.68000 4.975
48.72000 6.053
48.76000 4.115
48.80000 5.169
48.84000 3.002
48.88000 4.031
48.92000 2.029
48.96000 2.060
49.00000 1.996
49.04000 3.007
49.08000 3.025
49.12000 3.029
49.16000 4.037
49.20000 4.078
49.24000 3.014
49.28000 3.038
49.32000 4.079
49.36000 0.000
49.40000 2.058
49.44000 0.986
49.48000 2.014
49.52000 1.002
49.56000 2.025
49.60000 1.999
49.64000 0.000
49.68000 2.055
49.72000 2.023
49.76000 4.068
49.80000 5.006
49.84000 2.011
49.88000 3.056
49.92000 0.987
49.96000 1.029
50.00000 2.073
50.04000 0.000
50.08000 6.057
50.12000 3.962
50.16000 2.002
50.20000 4.039
50.24000 4.093
50.28000 4.097
50.32000 5.107
50.36000 1.021
50.40000 6.155
50.44000 4.047
50.48000 2.034
50.52000 6.997
50.56000 5.012
50.60000 2.042
50.64000 3.026
50.68000 3.076
50.72000 2.994
50.76000 1.995
50.80000 3.013
50.84000 3.097
50.88000 2.025
50.92000 0.000
50.96000 0.998
51.00000 2.071
51.04000 4.011
51.08000 4.007
51.12000 0.000
51.16000 1.058
51.20000 1.993
51.24000 5.015
51.28000 2.992
51.32000 1.008
51.36000 2.047
51.40000 5.055
51.44000 3.002
51.48000 3.031
51.52000 2.025
51.56000 3.086
51.60000 3.022
51.64000 3.070
51.68000 3.103
51.72000 4.033
51.76000 3.031
51.80000 0.000
51.84000 4.059
51.88000 5.103
51.92000 7.146
51.96000 2.063
52.00000 0.000
52.04000 0.000
52.08000 2.038
52.12000 3.011
52.16000 2.003
52.20000 4.085
52.24000 2.026
52.28000 6.113
52.32000 0.980
52.36000 2.023
52.40000 4.001
52.44000 4.052
52.48000 2.990
52.52000 1.995
52.56000 3.063
52.60000 1.995
52.64000 5.121
52.68000 2.010
52.72000 3.034
52.76000 2.035
52.80000 0.000
52.84000 0.000
52.88000 2.048
52.92000 6.156
52.96000 1.014
53.00000 3.027
53.04000 0.000
53.08000 4.040
53.12000 3.020
53.16000 1.987
53.20000 6.002
53.24000 0.985
53.28000 1.045
53.32000 2.989
53.36000 1.004
53.40000 1.993
53.44000 3.013
53.48000 7.117
53.52000 4.019
53.56000 3.005
53.60000 0.000
53.64000 5.141
53.68000 1.989
53.72000 5.050
53.76000 3.086
53.80000 1.991
53.84000 3.029
53.88000 2.098
53.92000 1.994
53.96000 0.000
54.00000 5.053
54.04000 3.098
54.08000 0.995
54.12000 3.081
54.16000 1.979
54.20000 1.030
54.24000 1.022
54.28000 4.035
54.32000 0.988
54.36000 2.039
54.40000 0.981
54.44000 0.988
54.48000 1.007
54.52000 4.085
54.56000 7.076
54.60000 3.084
54.64000 1.046
54.68000 3.051
54.72000 3.047
54.76000 2.000
54.80000 3.987
54.84000 1.009
54.88000 1.983
54.92000 2.007
54.96000 2.038
55.00000 1.009
55.04000 0.990
55.08000 4.059
55.12000 4.007
55.16000 4.139
55.20000 1.065
55.24000 3.109
55.28000 1.012
55.32000 0.991
55.36000 2.990
55.40000 2.001
55.44000 3.125
55.48000 4.009
55.52000 4.079
55.56000 1.015
55.60000 0.000
55.64000 2.034
55.68000 6.009
55.72000 1.988
55.76000 0.989
55.80000 1.024
55.84000 1.028
55.88000 3.005
55.92000 2.043
55.96000 2.062
56.00000 4.004
56.04000 1.026
56.08000 3.046
56.12000 0.987
56.16000 1.978
56.20000 1.963
56.24000 2.018
56.28000 3.020
56.32000 3.086
56.36000 3.038
56.40000 2.051
56.44000 0.993
56.48000 0.000
56.52000 1.012
56.56000 5.146
56.60000 2.022
56.64000 3.040
56.68000 4.039
56.72000 0.000
56.76000 1.011
56.80000 5.065
56.84000 1.007
56.88000 2.991
56.92000 7.069
56.96000 2.021
57.00000 0.988
57.04000 3.035
57.08000 6.080
57.12000 2.000
57.16000 0.996
57.20000 1.998
57.24000 0.000
57.28000 6.042
57.32000 3.973
57.36000 0.000
57.40000 4.048
57.44000 3.092
57.48000 3.075
57.52000 1.033
57.56000 2.012
57.60000 0.000
57.64000 0.985
57.68000 2.014
57.72000 3.063
57.76000 3.020
57.80000 2.005
57.84000 5.155
57.88000 2.974
57.92000 0.979
57.96000 2.046
58.00000 2.021
58.04000 3.000
58.08000 2.034
58.12000 1.016
58.16000 4.107
58.20000 0.000
58.24000 2.095
58.28000 1.973
58.32000 1.050
58.36000 3.996
58.40000 4.180
58.44000 0.000
58.48000 1.022
58.52000 0.977
58.56000 2.062
58.60000 4.112
58.64000 1.007
58.68000 3.980
58.72000 5.016
58.76000 4.057
58.80000 0.000
58.84000 0.000
58.88000 2.043
58.92000 0.975
58.96000 1.976
59.00000 2.014
59.04000 1.959
59.08000 3.026
59.12000 1.998
59.16000 3.050
59.20000 4.159
59.24000 1.977
59.28000 3.021
59.32000 0.000
59.36000 3.025
59.40000 6.092
59.44000 4.139
59.48000 4.123
59.52000 1.068
59.56000 2.998
59.60000 1.045
59.64000 2.045
59.68000 1.036
59.72000 3.044
59.76000 2.037
59.80000 3.961
59.84000 1.031
59.88000 3.005
59.92000 2.074
59.96000 0.000
60.00000 2.028
60.04000 1.994
60.08000 2.005
60.12000 1.996
60.16000 0.995
60.20000 1.032
60.24000 3.999
60.28000 2.019
60.32000 1.053
60.36000 1.987
60.40000 1.982
60.44000 1.015
60.48000 1.012
60.52000 0.000
60.56000 4.048
60.60000 1.981
60.64000 3.008
60.68000 1.004
60.72000 0.994
60.76000 2.036
60.80000 0.998
60.84000 0.999
60.88000 2.005
60.92000 2.024
60.96000 4.066
61.00000 4.018
61.04000 3.006
61.08000 2.982
61.12000 2.972
61.16000 2.966
61.20000 2.061
61.24000 2.004
61.28000 1.025
61.32000 1.012
61.36000 2.022
61.40000 0.000
61.44000 0.987
61.48000 2.998
61.52000 0.000
61.56000 0.000
61.60000 2.015
61.64000 4.154
61.68000 0.974
61.72000 2.957
61.76000 1.027
61.80000 3.097
61.84000 5.084
61.88000 0.988
61.92000 0.000
61.96000 2.967
62.00000 2.022
62.04000 2.007
62.08000 3.016
62.12000 1.977
62.16000 3.011
62.20000 2.023
62.24000 0.000
62.28000 3.026
62.32000 2.090
62.36000 1.006
62.40000 1.992
62.44000 2.030
62.48000 3.007
62.52000 3.948
62.56000 0.991
62.60000 0.000
62.64000 1.976
62.68000 0.985
62.72000 3.060
62.76000 1.002
62.80000 0.966
62.84000 0.000
62.88000 2.975
62.92000 1.036
62.96000 0.000
63.00000 0.985
63.04000 0.993
63.08000 2.035
63.12000 3.098
63.16000 1.008
63.20000 2.050
63.24000 0.997
63.28000 2.043
63.32000 1.990
63.36000 1.017
63.40000 3.036
63.44000 6.020
63.48000 2.052
63.52000 5.035
63.56000 2.038
63.60000 1.029
63.64000 2.044
63.68000 0.000
63.72000 5.111
63.76000 2.092
63.80000 3.024
63.84000 1.990
63.88000 2.012
63.92000 1.013
63.96000 2.014
64.00000 3.009
64.04000 5.109
64.08000 1.029
64.12000 0.000
64.16000 4.078
64.20000 0.993
64.24000 4.015
64.28000 1.035
64.32000 5.108
64.36000 2.002
64.40000 4.073
64.44000 0.000
64.48000 1.091
64.52000 2.042
64.56000 0.000
64.60000 4.076
64.64000 0.000
64.68000 1.979
64.72000 2.009
64.76000 0.000
64.80000 0.000
64.84000 5.018
64.88000 3.136
64.92000 1.006
64.96000 2.081
65.00000 1.020