File: XRD/11-09-2025/XY Data/01092025_BTO_omega_0_5_001_24_-8-345_36-560.xy
20.00000 17.297
20.04000 23.162
20.08000 13.202
20.12000 23.297
20.16000 19.270
20.20000 19.225
20.24000 19.412
20.28000 15.076
20.32000 24.182
20.36000 12.145
20.40000 20.286
20.44000 16.203
20.48000 13.066
20.52000 31.397
20.56000 19.249
20.60000 11.231
20.64000 9.096
20.68000 18.287
20.72000 17.189
20.76000 21.266
20.80000 15.466
20.84000 15.292
20.88000 21.344
20.92000 24.620
20.96000 22.353
21.00000 17.244
21.04000 19.017
21.08000 15.215
21.12000 17.057
21.16000 18.273
21.20000 20.156
21.24000 29.293
21.28000 23.278
21.32000 23.480
21.36000 19.223
21.40000 24.457
21.44000 23.111
21.48000 18.352
21.52000 26.300
21.56000 21.188
21.60000 22.458
21.64000 30.451
21.68000 21.252
21.72000 27.441
21.76000 22.463
21.80000 21.206
21.84000 18.156
21.88000 19.192
21.92000 27.300
21.96000 29.347
22.00000 24.302
22.04000 26.445
22.08000 27.275
22.12000 20.251
22.16000 16.239
22.20000 12.167
22.24000 23.570
22.28000 29.628
22.32000 20.321
22.36000 26.178
22.40000 24.098
22.44000 29.433
22.48000 28.524
22.52000 33.444
22.56000 26.269
22.60000 22.464
22.64000 31.645
22.68000 25.263
22.72000 22.333
22.76000 26.477
22.80000 25.286
22.84000 33.414
22.88000 27.340
22.92000 25.244
22.96000 27.394
23.00000 30.560
23.04000 29.289
23.08000 23.111
23.12000 24.285
23.16000 28.503
23.20000 23.400
23.24000 27.314
23.28000 25.203
23.32000 27.491
23.36000 27.315
23.40000 25.431
23.44000 19.395
23.48000 32.371
23.52000 25.273
23.56000 28.103
23.60000 26.377
23.64000 25.247
23.68000 23.254
23.72000 39.329
23.76000 34.385
23.80000 30.401
23.84000 33.354
23.88000 36.996
23.92000 28.431
23.96000 36.587
24.00000 32.252
24.04000 25.148
24.08000 33.519
24.12000 33.625
24.16000 28.407
24.20000 33.287
24.24000 38.584
24.28000 23.499
24.32000 42.672
24.36000 31.492
24.40000 35.302
24.44000 31.403
24.48000 39.693
24.52000 34.712
24.56000 32.380
24.60000 32.651
24.64000 33.270
24.68000 34.527
24.72000 26.437
24.76000 34.642
24.80000 30.166
24.84000 38.355
24.88000 33.323
24.92000 44.377
24.96000 35.509
25.00000 37.295
25.04000 35.547
25.08000 47.751
25.12000 40.460
25.16000 49.578
25.20000 45.736
25.24000 36.456
25.28000 44.416
25.32000 41.704
25.36000 38.534
25.40000 46.220
25.44000 47.583
25.48000 45.811
25.52000 50.599
25.56000 35.277
25.60000 42.436
25.64000 41.666
25.68000 51.962
25.72000 50.820
25.76000 56.728
25.80000 40.554
25.84000 42.497
25.88000 52.864
25.92000 49.596
25.96000 48.864
26.00000 56.677
26.04000 51.557
26.08000 63.851
26.12000 64.765
26.16000 41.649
26.20000 49.642
26.24000 54.636
26.28000 52.593
26.32000 51.754
26.36000 53.392
26.40000 62.582
26.44000 51.667
26.48000 47.573
26.52000 56.617
26.56000 52.816
26.60000 50.618
26.64000 50.588
26.68000 48.059
26.72000 53.723
26.76000 48.785
26.80000 51.549
26.84000 64.768
26.88000 43.592
26.92000 54.847
26.96000 59.987
27.00000 64.011
27.04000 62.842
27.08000 49.770
27.12000 68.698
27.16000 68.974
27.20000 52.587
27.24000 52.506
27.28000 63.762
27.32000 68.822
27.36000 57.777
27.40000 60.710
27.44000 41.540
27.48000 58.607
27.52000 62.259
27.56000 53.955
27.60000 63.911
27.64000 75.162
27.68000 67.728
27.72000 53.706
27.76000 54.818
27.80000 70.066
27.84000 61.752
27.88000 57.583
27.92000 52.732
27.96000 67.068
28.00000 66.008
28.04000 69.705
28.08000 61.820
28.12000 68.023
28.16000 48.799
28.20000 53.549
28.24000 54.350
28.28000 63.987
28.32000 53.609
28.36000 59.118
28.40000 63.206
28.44000 68.793
28.48000 60.649
28.52000 58.072
28.56000 60.946
28.60000 56.718
28.64000 59.807
28.68000 70.791
28.72000 61.375
28.76000 55.630
28.80000 59.958
28.84000 66.875
28.88000 48.560
28.92000 74.050
28.96000 51.606
29.00000 48.298
29.04000 58.028
29.08000 71.987
29.12000 53.838
29.16000 52.614
29.20000 54.516
29.24000 40.741
29.28000 52.451
29.32000 60.225
29.36000 59.087
29.40000 50.770
29.44000 54.550
29.48000 49.638
29.52000 55.938
29.56000 49.581
29.60000 49.511
29.64000 48.776
29.68000 53.682
29.72000 44.691
29.76000 42.412
29.80000 42.763
29.84000 36.474
29.88000 51.480
29.92000 53.672
29.96000 42.466
30.00000 49.850
30.04000 48.853
30.08000 48.479
30.12000 39.501
30.16000 49.360
30.20000 42.645
30.24000 40.445
30.28000 31.524
30.32000 42.896
30.36000 41.559
30.40000 41.540
30.44000 28.317
30.48000 35.562
30.52000 36.385
30.56000 51.834
30.60000 38.431
30.64000 33.513
30.68000 36.555
30.72000 43.517
30.76000 36.576
30.80000 34.833
30.84000 29.708
30.88000 30.397
30.92000 30.356
30.96000 23.215
31.00000 35.269
31.04000 34.641
31.08000 26.222
31.12000 31.546
31.16000 43.675
31.20000 32.367
31.24000 40.627
31.28000 29.528
31.32000 29.393
31.36000 28.290
31.40000 39.609
31.44000 40.660
31.48000 33.602
31.52000 23.115
31.56000 28.553
31.60000 36.539
31.64000 27.446
31.68000 42.793
31.72000 29.449
31.76000 28.382
31.80000 31.122
31.84000 22.430
31.88000 38.565
31.92000 24.172
31.96000 41.676
32.00000 24.305
32.04000 23.331
32.08000 37.278
32.12000 31.634
32.16000 29.402
32.20000 24.407
32.24000 28.575
32.28000 14.223
32.32000 36.632
32.36000 28.202
32.40000 30.482
32.44000 25.235
32.48000 37.498
32.52000 21.418
32.56000 31.208
32.60000 18.293
32.64000 17.392
32.68000 25.267
32.72000 19.451
32.76000 22.311
32.80000 20.260
32.84000 20.467
32.88000 23.206
32.92000 19.492
32.96000 26.299
33.00000 21.229
33.04000 26.746
33.08000 30.224
33.12000 20.192
33.16000 21.475
33.20000 22.329
33.24000 15.232
33.28000 26.449
33.32000 26.081
33.36000 19.347
33.40000 25.425
33.44000 20.332
33.48000 21.393
33.52000 30.551
33.56000 24.228
33.60000 17.238
33.64000 21.227
33.68000 17.243
33.72000 30.401
33.76000 14.104
33.80000 19.340
33.84000 17.341
33.88000 29.535
33.92000 17.266
33.96000 22.162
34.00000 14.145
34.04000 17.272
34.08000 16.278
34.12000 12.242
34.16000 22.470
34.20000 19.268
34.24000 23.180
34.28000 28.471
34.32000 15.122
34.36000 18.219
34.40000 18.365
34.44000 17.178
34.48000 19.298
34.52000 21.225
34.56000 29.660
34.60000 22.251
34.64000 24.381
34.68000 19.225
34.72000 8.060
34.76000 15.119
34.80000 14.152
34.84000 26.402
34.88000 6.985
34.92000 17.201
34.96000 13.062
35.00000 23.226
35.04000 19.104
35.08000 18.186
35.12000 14.265
35.16000 21.279
35.20000 17.260
35.24000 15.140
35.28000 16.429
35.32000 20.313
35.36000 16.203
35.40000 15.254
35.44000 25.147
35.48000 20.214
35.52000 21.351
35.56000 24.221
35.60000 25.239
35.64000 19.288
35.68000 24.317
35.72000 21.183
35.76000 15.172
35.80000 22.287
35.84000 16.171
35.88000 15.283
35.92000 15.279
35.96000 26.269
36.00000 14.145
36.04000 29.479
36.08000 10.109
36.12000 18.399
36.16000 19.071
36.20000 17.187
36.24000 26.341
36.28000 17.187
36.32000 28.452
36.36000 18.257
36.40000 20.328
36.44000 22.384
36.48000 18.191
36.52000 18.346
36.56000 12.090
36.60000 17.249
36.64000 18.073
36.68000 18.178
36.72000 15.262
36.76000 21.402
36.80000 23.346
36.84000 22.273
36.88000 18.281
36.92000 23.388
36.96000 19.284
37.00000 21.244
37.04000 16.162
37.08000 17.300
37.12000 18.297
37.16000 14.114
37.20000 25.303
37.24000 16.190
37.28000 16.213
37.32000 24.128
37.36000 17.284
37.40000 23.484
37.44000 23.228
37.48000 16.173
37.52000 19.253
37.56000 17.225
37.60000 14.275
37.64000 19.218
37.68000 17.279
37.72000 16.163
37.76000 23.249
37.80000 16.116
37.84000 28.395
37.88000 23.288
37.92000 17.243
37.96000 18.286
38.00000 21.243
38.04000 22.388
38.08000 23.371
38.12000 20.089
38.16000 29.309
38.20000 22.170
38.24000 20.274
38.28000 15.289
38.32000 17.137
38.36000 31.445
38.40000 15.270
38.44000 24.263
38.48000 15.216
38.52000 27.282
38.56000 19.182
38.60000 20.418
38.64000 23.204
38.68000 22.281
38.72000 19.163
38.76000 20.300
38.80000 17.310
38.84000 20.136
38.88000 19.190
38.92000 27.377
38.96000 22.186
39.00000 24.199
39.04000 15.118
39.08000 20.392
39.12000 16.149
39.16000 20.308
39.20000 14.375
39.24000 22.302
39.28000 28.315
39.32000 20.197
39.36000 23.661
39.40000 24.380
39.44000 20.311
39.48000 24.341
39.52000 21.290
39.56000 18.071
39.60000 19.095
39.64000 24.258
39.68000 18.417
39.72000 21.002
39.76000 22.475
39.80000 23.218
39.84000 20.272
39.88000 18.142
39.92000 26.305
39.96000 16.237
40.00000 14.197
40.04000 19.218
40.08000 24.346
40.12000 18.493
40.16000 23.162
40.20000 20.290
40.24000 21.484
40.28000 33.494
40.32000 22.270
40.36000 27.575
40.40000 25.369
40.44000 23.133
40.48000 23.147
40.52000 24.489
40.56000 33.397
40.60000 26.487
40.64000 19.376
40.68000 26.385
40.72000 25.340
40.76000 25.471
40.80000 21.401
40.84000 24.562
40.88000 28.283
40.92000 26.254
40.96000 25.523
41.00000 20.432
41.04000 22.294
41.08000 26.052
41.12000 23.403
41.16000 24.329
41.20000 23.263
41.24000 22.250
41.28000 15.291
41.32000 13.101
41.36000 23.127
41.40000 28.393
41.44000 25.240
41.48000 24.372
41.52000 19.156
41.56000 25.385
41.60000 25.406
41.64000 14.171
41.68000 20.179
41.72000 25.173
41.76000 28.486
41.80000 22.461
41.84000 16.196
41.88000 20.539
41.92000 26.166
41.96000 27.269
42.00000 21.298
42.04000 26.242
42.08000 24.351
42.12000 21.251
42.16000 30.249
42.20000 14.074
42.24000 14.232
42.28000 21.282
42.32000 24.478
42.36000 28.123
42.40000 17.195
42.44000 22.453
42.48000 28.434
42.52000 21.381
42.56000 27.255
42.60000 17.094
42.64000 26.235
42.68000 26.438
42.72000 21.244
42.76000 23.128
42.80000 22.584
42.84000 19.157
42.88000 21.224
42.92000 32.313
42.96000 22.301
43.00000 20.251
43.04000 25.445
43.08000 21.454
43.12000 20.345
43.16000 30.220
43.20000 24.367
43.24000 24.204
43.28000 19.474
43.32000 13.103
43.36000 12.167
43.40000 18.156
43.44000 17.276
43.48000 24.171
43.52000 19.262
43.56000 17.159
43.60000 15.326
43.64000 25.165
43.68000 17.168
43.72000 23.465
43.76000 25.315
43.80000 21.171
43.84000 17.254
43.88000 17.179
43.92000 18.396
43.96000 12.005
44.00000 15.200
44.04000 18.133
44.08000 21.411
44.12000 28.525
44.16000 24.448
44.20000 20.415
44.24000 19.281
44.28000 19.135
44.32000 18.249
44.36000 26.497
44.40000 20.254
44.44000 22.449
44.48000 24.419
44.52000 23.284
44.56000 14.072
44.60000 31.512
44.64000 25.282
44.68000 23.326
44.72000 19.165
44.76000 23.431
44.80000 21.220
44.84000 14.099
44.88000 27.230
44.92000 20.382
44.96000 28.458
45.00000 16.304
45.04000 17.362
45.08000 21.238
45.12000 20.267
45.16000 21.160
45.20000 30.319
45.24000 21.275
45.28000 24.279
45.32000 19.217
45.36000 21.401
45.40000 24.168
45.44000 18.152
45.48000 21.499
45.52000 15.264
45.56000 24.189
45.60000 21.506
45.64000 17.393
45.68000 22.238
45.72000 16.180
45.76000 20.320
45.80000 15.155
45.84000 17.123
45.88000 22.094
45.92000 16.399
45.96000 25.279
46.00000 16.256
46.04000 16.121
46.08000 24.259
46.12000 27.246
46.16000 29.333
46.20000 20.227
46.24000 19.272
46.28000 18.095
46.32000 23.369
46.36000 22.354
46.40000 22.442
46.44000 23.521
46.48000 17.262
46.52000 18.350
46.56000 18.128
46.60000 26.383
46.64000 20.359
46.68000 20.213
46.72000 26.142
46.76000 20.406
46.80000 25.012
46.84000 16.247
46.88000 15.217
46.92000 23.151
46.96000 18.327
47.00000 21.374
47.04000 32.496
47.08000 16.283
47.12000 13.070
47.16000 17.266
47.20000 12.374
47.24000 20.356
47.28000 19.203
47.32000 20.194
47.36000 27.223
47.40000 20.214
47.44000 20.324
47.48000 17.246
47.52000 18.344
47.56000 22.386
47.60000 19.451
47.64000 23.383
47.68000 19.449
47.72000 23.384
47.76000 15.207
47.80000 22.324
47.84000 19.131
47.88000 21.250
47.92000 18.163
47.96000 20.309
48.00000 16.200
48.04000 21.160
48.08000 25.229
48.12000 28.265
48.16000 17.243
48.20000 19.158
48.24000 20.556
48.28000 29.583
48.32000 22.311
48.36000 22.130
48.40000 15.345
48.44000 19.128
48.48000 18.197
48.52000 20.276
48.56000 35.194
48.60000 12.320
48.64000 19.356
48.68000 20.245
48.72000 21.436
48.76000 22.183
48.80000 21.381
48.84000 16.259
48.88000 20.327
48.92000 18.216
48.96000 20.075
49.00000 16.067
49.04000 21.324
49.08000 11.301
49.12000 18.210
49.16000 17.254
49.20000 21.164
49.24000 18.266
49.28000 16.130
49.32000 25.312
49.36000 21.216
49.40000 17.092
49.44000 20.278
49.48000 21.221
49.52000 22.045
49.56000 25.464
49.60000 16.062
49.64000 13.120
49.68000 15.235
49.72000 17.144
49.76000 20.263
49.80000 14.100
49.84000 18.311
49.88000 22.237
49.92000 16.169
49.96000 23.322
50.00000 16.285
50.04000 26.236
50.08000 21.174
50.12000 19.333
50.16000 16.372
50.20000 10.113
50.24000 12.332
50.28000 14.177
50.32000 19.086
50.36000 17.191
50.40000 21.327
50.44000 13.160
50.48000 18.303
50.52000 19.366
50.56000 18.253
50.60000 21.215
50.64000 16.082
50.68000 13.107
50.72000 19.359
50.76000 18.216
50.80000 17.255
50.84000 13.172
50.88000 11.215
50.92000 16.208
50.96000 16.297
51.00000 20.277
51.04000 17.363
51.08000 17.232
51.12000 18.246
51.16000 8.179
51.20000 18.374
51.24000 22.395
51.28000 23.334
51.32000 17.280
51.36000 19.337
51.40000 14.100
51.44000 21.243
51.48000 13.243
51.52000 25.368
51.56000 14.338
51.60000 24.317
51.64000 17.079
51.68000 11.045
51.72000 26.325
51.76000 13.233
51.80000 19.148
51.84000 13.020
51.88000 21.296
51.92000 15.113
51.96000 17.102
52.00000 14.114
52.04000 15.150
52.08000 19.239
52.12000 28.004
52.16000 15.277
52.20000 20.430
52.24000 22.224
52.28000 16.353
52.32000 10.023
52.36000 18.135
52.40000 18.315
52.44000 19.208
52.48000 16.297
52.52000 19.033
52.56000 11.264
52.60000 9.019
52.64000 10.131
52.68000 13.224
52.72000 18.231
52.76000 12.033
52.80000 20.400
52.84000 14.147
52.88000 16.203
52.92000 15.087
52.96000 19.441
53.00000 9.099
53.04000 16.253
53.08000 23.188
53.12000 24.276
53.16000 7.999
53.20000 16.466
53.24000 16.323
53.28000 24.311
53.32000 17.240
53.36000 16.249
53.40000 11.214
53.44000 11.959
53.48000 12.131
53.52000 20.074
53.56000 18.279
53.60000 17.088
53.64000 15.156
53.68000 9.252
53.72000 11.146
53.76000 16.149
53.80000 15.166
53.84000 21.233
53.88000 14.204
53.92000 16.305
53.96000 11.179
54.00000 19.169
54.04000 16.282
54.08000 19.226
54.12000 9.116
54.16000 11.196
54.20000 16.293
54.24000 23.379
54.28000 17.190
54.32000 14.311
54.36000 10.064
54.40000 16.114
54.44000 12.259
54.48000 15.151
54.52000 12.225
54.56000 19.323
54.60000 15.389
54.64000 16.147
54.68000 12.067
54.72000 11.280
54.76000 14.086
54.80000 20.342
54.84000 14.266
54.88000 12.135
54.92000 12.132
54.96000 8.139
55.00000 23.414
55.04000 12.298
55.08000 20.370
55.12000 8.345
55.16000 14.028
55.20000 19.142
55.24000 16.320
55.28000 10.208
55.32000 16.235
55.36000 8.146
55.40000 13.125
55.44000 7.105
55.48000 21.311
55.52000 10.174
55.56000 14.140
55.60000 14.123
55.64000 18.163
55.68000 16.172
55.72000 12.183
55.76000 14.156
55.80000 16.261
55.84000 17.244
55.88000 13.098
55.92000 16.174
55.96000 14.198
56.00000 12.185
56.04000 12.177
56.08000 14.965
56.12000 12.075
56.16000 15.944
56.20000 12.242
56.24000 12.208
56.28000 12.251
56.32000 18.489
56.36000 16.124
56.40000 12.014
56.44000 14.183
56.48000 16.323
56.52000 8.148
56.56000 10.131
56.60000 17.120
56.64000 12.115
56.68000 16.262
56.72000 21.246
56.76000 8.124
56.80000 12.164
56.84000 9.187
56.88000 16.048
56.92000 14.181
56.96000 10.968
57.00000 13.165
57.04000 9.046
57.08000 11.294
57.12000 15.256
57.16000 16.253
57.20000 16.165
57.24000 12.173
57.28000 9.125
57.32000 9.096
57.36000 16.160
57.40000 16.244
57.44000 14.003
57.48000 13.188
57.52000 14.105
57.56000 10.097
57.60000 15.287
57.64000 16.279
57.68000 14.176
57.72000 9.145
57.76000 10.092
57.80000 17.115
57.84000 8.143
57.88000 13.130
57.92000 18.113
57.96000 8.226
58.00000 14.106
58.04000 8.083
58.08000 11.096
58.12000 12.141
58.16000 11.180
58.20000 12.125
58.24000 15.370
58.28000 9.146
58.32000 12.184
58.36000 13.224
58.40000 12.079
58.44000 14.181
58.48000 10.255
58.52000 9.942
58.56000 9.144
58.60000 13.197
58.64000 14.193
58.68000 13.044
58.72000 17.163
58.76000 8.051
58.80000 12.074
58.84000 15.299
58.88000 15.202
58.92000 10.074
58.96000 9.024
59.00000 10.231
59.04000 13.172
59.08000 12.005
59.12000 9.054
59.16000 7.971
59.20000 12.225
59.24000 7.157
59.28000 9.091
59.32000 11.966
59.36000 17.372
59.40000 9.004
59.44000 12.060
59.48000 12.181
59.52000 8.172
59.56000 15.166
59.60000 11.023
59.64000 14.221
59.68000 16.121
59.72000 9.219
59.76000 8.123
59.80000 5.026
59.84000 8.983
59.88000 18.173
59.92000 13.039
59.96000 6.004
60.00000 6.036
60.04000 11.193
60.08000 6.151
60.12000 10.182
60.16000 13.145
60.20000 8.072
60.24000 9.253
60.28000 4.962
60.32000 6.972
60.36000 10.058
60.40000 11.162
60.44000 11.094
60.48000 6.109
60.52000 6.066
60.56000 4.150
60.60000 13.276
60.64000 10.095
60.68000 10.273
60.72000 8.039
60.76000 4.046
60.80000 15.128
60.84000 5.135
60.88000 12.155
60.92000 13.213
60.96000 11.070
61.00000 13.038
61.04000 8.903
61.08000 9.181
61.12000 11.061
61.16000 6.104
61.20000 10.287
61.24000 10.023
61.28000 5.044
61.32000 11.305
61.36000 10.154
61.40000 14.163
61.44000 12.213
61.48000 16.268
61.52000 7.060
61.56000 6.136
61.60000 7.042
61.64000 11.140
61.68000 15.106
61.72000 5.059
61.76000 9.087
61.80000 8.130
61.84000 12.198
61.88000 4.050
61.92000 12.154
61.96000 11.286
62.00000 12.069
62.04000 10.237
62.08000 3.069
62.12000 11.097
62.16000 8.030
62.20000 5.957
62.24000 7.030
62.28000 8.022
62.32000 14.256
62.36000 10.196
62.40000 6.015
62.44000 7.192
62.48000 7.016
62.52000 4.021
62.56000 4.154
62.60000 5.990
62.64000 10.097
62.68000 7.039
62.72000 8.118
62.76000 4.056
62.80000 8.075
62.84000 4.036
62.88000 8.078
62.92000 10.076
62.96000 10.111
63.00000 6.018
63.04000 11.133
63.08000 16.106
63.12000 9.031
63.16000 6.988
63.20000 4.055
63.24000 13.279
63.28000 11.154
63.32000 4.091
63.36000 16.327
63.40000 6.091
63.44000 10.295
63.48000 13.303
63.52000 11.011
63.56000 5.044
63.60000 6.033
63.64000 7.984
63.68000 6.099
63.72000 10.204
63.76000 10.155
63.80000 12.087
63.84000 6.135
63.88000 16.170
63.92000 6.062
63.96000 10.169
64.00000 8.131
64.04000 5.025
64.08000 15.430
64.12000 7.210
64.16000 10.233
64.20000 10.072
64.24000 5.075
64.28000 11.175
64.32000 10.150
64.36000 7.073
64.40000 3.106
64.44000 11.093
64.48000 6.970
64.52000 6.058
64.56000 8.059
64.60000 10.114
64.64000 13.158
64.68000 13.184
64.72000 10.098
64.76000 5.941
64.80000 9.022
64.84000 4.894
64.88000 8.020
64.92000 13.141
64.96000 6.995
65.00000 7.948