File: XRD/11-09-2025/XY Data/01092025_BTO_omega_1_001_41_-2-782_12-187.xy
20.00000 15.102
20.04000 16.198
20.08000 18.278
20.12000 18.214
20.16000 22.265
20.20000 15.197
20.24000 23.341
20.28000 19.193
20.32000 24.209
20.36000 20.313
20.40000 13.057
20.44000 15.229
20.48000 18.155
20.52000 13.280
20.56000 13.186
20.60000 24.516
20.64000 18.347
20.68000 21.273
20.72000 17.453
20.76000 18.352
20.80000 22.252
20.84000 17.245
20.88000 22.535
20.92000 19.421
20.96000 21.468
21.00000 14.175
21.04000 24.357
21.08000 18.174
21.12000 15.323
21.16000 18.138
21.20000 23.409
21.24000 20.124
21.28000 19.228
21.32000 20.209
21.36000 27.417
21.40000 17.258
21.44000 19.366
21.48000 21.272
21.52000 19.299
21.56000 22.742
21.60000 15.423
21.64000 18.181
21.68000 24.475
21.72000 20.278
21.76000 23.246
21.80000 15.535
21.84000 23.294
21.88000 13.198
21.92000 17.155
21.96000 24.152
22.00000 19.222
22.04000 23.348
22.08000 20.106
22.12000 15.258
22.16000 24.232
22.20000 21.445
22.24000 19.205
22.28000 18.243
22.32000 17.117
22.36000 20.351
22.40000 26.111
22.44000 17.178
22.48000 22.418
22.52000 16.268
22.56000 24.175
22.60000 25.170
22.64000 21.361
22.68000 24.137
22.72000 20.272
22.76000 21.360
22.80000 18.376
22.84000 32.581
22.88000 31.379
22.92000 20.249
22.96000 29.341
23.00000 27.415
23.04000 23.284
23.08000 27.143
23.12000 25.055
23.16000 21.223
23.20000 21.210
23.24000 29.289
23.28000 24.358
23.32000 22.293
23.36000 21.046
23.40000 21.413
23.44000 31.450
23.48000 19.016
23.52000 20.375
23.56000 29.239
23.60000 19.201
23.64000 18.093
23.68000 21.225
23.72000 33.362
23.76000 23.674
23.80000 26.585
23.84000 28.286
23.88000 26.266
23.92000 28.447
23.96000 25.305
24.00000 27.211
24.04000 25.262
24.08000 32.481
24.12000 35.655
24.16000 33.678
24.20000 26.496
24.24000 29.658
24.28000 24.161
24.32000 25.443
24.36000 23.312
24.40000 28.538
24.44000 33.417
24.48000 20.106
24.52000 32.549
24.56000 22.337
24.60000 28.594
24.64000 29.519
24.68000 35.315
24.72000 32.349
24.76000 22.201
24.80000 21.465
24.84000 24.451
24.88000 31.339
24.92000 24.268
24.96000 32.513
25.00000 33.335
25.04000 33.405
25.08000 33.492
25.12000 26.226
25.16000 30.396
25.20000 31.365
25.24000 34.477
25.28000 34.639
25.32000 32.521
25.36000 42.701
25.40000 43.415
25.44000 35.530
25.48000 30.269
25.52000 44.567
25.56000 29.337
25.60000 42.773
25.64000 35.595
25.68000 33.502
25.72000 38.591
25.76000 40.366
25.80000 40.408
25.84000 38.405
25.88000 32.100
25.92000 35.602
25.96000 37.603
26.00000 33.306
26.04000 41.711
26.08000 42.448
26.12000 34.579
26.16000 34.331
26.20000 52.916
26.24000 43.693
26.28000 44.252
26.32000 44.383
26.36000 42.520
26.40000 39.509
26.44000 45.599
26.48000 32.283
26.52000 50.601
26.56000 32.398
26.60000 55.774
26.64000 38.558
26.68000 32.274
26.72000 46.330
26.76000 44.673
26.80000 47.482
26.84000 38.766
26.88000 46.640
26.92000 38.078
26.96000 47.338
27.00000 49.581
27.04000 56.988
27.08000 38.570
27.12000 41.723
27.16000 40.503
27.20000 49.932
27.24000 43.852
27.28000 43.534
27.32000 41.314
27.36000 52.608
27.40000 55.762
27.44000 37.515
27.48000 37.584
27.52000 47.433
27.56000 53.844
27.60000 50.797
27.64000 42.308
27.68000 41.455
27.72000 48.748
27.76000 42.729
27.80000 37.562
27.84000 42.604
27.88000 57.509
27.92000 53.528
27.96000 43.653
28.00000 49.294
28.04000 62.882
28.08000 49.906
28.12000 57.794
28.16000 36.318
28.20000 49.747
28.24000 47.788
28.28000 36.475
28.32000 51.652
28.36000 29.153
28.40000 40.528
28.44000 52.495
28.48000 35.546
28.52000 55.725
28.56000 44.675
28.60000 38.509
28.64000 52.775
28.68000 44.695
28.72000 39.480
28.76000 43.007
28.80000 27.400
28.84000 45.867
28.88000 47.871
28.92000 45.617
28.96000 30.552
29.00000 41.373
29.04000 38.337
29.08000 50.862
29.12000 33.437
29.16000 42.480
29.20000 40.459
29.24000 29.639
29.28000 31.383
29.32000 46.731
29.36000 37.589
29.40000 42.630
29.44000 32.489
29.48000 35.606
29.52000 42.487
29.56000 30.311
29.60000 40.438
29.64000 33.551
29.68000 37.325
29.72000 35.361
29.76000 33.580
29.80000 38.456
29.84000 30.201
29.88000 31.610
29.92000 28.664
29.96000 25.272
30.00000 39.635
30.04000 38.398
30.08000 28.337
30.12000 34.549
30.16000 30.230
30.20000 25.377
30.24000 31.424
30.28000 26.462
30.32000 32.357
30.36000 34.491
30.40000 33.374
30.44000 33.378
30.48000 22.079
30.52000 34.615
30.56000 34.214
30.60000 34.655
30.64000 28.674
30.68000 22.342
30.72000 32.446
30.76000 37.559
30.80000 28.426
30.84000 23.125
30.88000 20.241
30.92000 23.104
30.96000 25.323
31.00000 16.268
31.04000 26.207
31.08000 27.420
31.12000 24.137
31.16000 24.417
31.20000 21.501
31.24000 21.359
31.28000 23.261
31.32000 27.103
31.36000 22.430
31.40000 27.479
31.44000 27.357
31.48000 28.409
31.52000 25.411
31.56000 22.370
31.60000 21.165
31.64000 24.206
31.68000 19.297
31.72000 32.326
31.76000 26.386
31.80000 27.502
31.84000 24.172
31.88000 27.314
31.92000 24.462
31.96000 24.301
32.00000 27.419
32.04000 20.196
32.08000 26.276
32.12000 35.406
32.16000 34.487
32.20000 17.137
32.24000 26.205
32.28000 39.630
32.32000 34.569
32.36000 31.448
32.40000 27.277
32.44000 29.013
32.48000 25.378
32.52000 20.367
32.56000 33.567
32.60000 30.284
32.64000 24.258
32.68000 20.501
32.72000 26.251
32.76000 13.132
32.80000 15.103
32.84000 22.287
32.88000 18.369
32.92000 26.244
32.96000 27.514
33.00000 23.375
33.04000 22.162
33.08000 19.286
33.12000 19.225
33.16000 18.172
33.20000 22.224
33.24000 15.176
33.28000 23.520
33.32000 27.353
33.36000 22.234
33.40000 19.024
33.44000 13.330
33.48000 15.116
33.52000 14.140
33.56000 20.270
33.60000 14.208
33.64000 22.280
33.68000 14.071
33.72000 15.064
33.76000 13.108
33.80000 17.235
33.84000 24.235
33.88000 17.150
33.92000 22.393
33.96000 12.297
34.00000 11.066
34.04000 19.157
34.08000 23.339
34.12000 13.115
34.16000 13.154
34.20000 16.210
34.24000 17.212
34.28000 12.140
34.32000 15.156
34.36000 22.264
34.40000 14.181
34.44000 10.204
34.48000 14.140
34.52000 18.127
34.56000 9.132
34.60000 10.194
34.64000 9.193
34.68000 14.176
34.72000 17.109
34.76000 9.156
34.80000 16.139
34.84000 11.342
34.88000 10.240
34.92000 16.203
34.96000 12.076
35.00000 13.113
35.04000 17.276
35.08000 17.510
35.12000 17.274
35.16000 15.127
35.20000 14.309
35.24000 12.078
35.28000 9.963
35.32000 14.015
35.36000 19.258
35.40000 20.358
35.44000 9.060
35.48000 12.088
35.52000 13.216
35.56000 6.051
35.60000 16.178
35.64000 13.161
35.68000 18.330
35.72000 16.152
35.76000 14.267
35.80000 10.031
35.84000 22.347
35.88000 14.197
35.92000 14.143
35.96000 9.103
36.00000 17.302
36.04000 11.063
36.08000 17.142
36.12000 18.163
36.16000 12.288
36.20000 14.220
36.24000 13.094
36.28000 9.185
36.32000 13.298
36.36000 16.121
36.40000 12.227
36.44000 12.992
36.48000 13.113
36.52000 11.185
36.56000 16.318
36.60000 15.153
36.64000 24.124
36.68000 18.277
36.72000 14.121
36.76000 19.333
36.80000 11.140
36.84000 17.174
36.88000 12.299
36.92000 25.287
36.96000 22.285
37.00000 17.163
37.04000 15.235
37.08000 16.034
37.12000 19.257
37.16000 19.215
37.20000 13.283
37.24000 19.313
37.28000 8.059
37.32000 12.207
37.36000 12.190
37.40000 22.424
37.44000 20.409
37.48000 22.330
37.52000 16.130
37.56000 21.289
37.60000 13.107
37.64000 10.158
37.68000 15.224
37.72000 18.291
37.76000 15.132
37.80000 15.238
37.84000 11.123
37.88000 18.188
37.92000 16.376
37.96000 14.222
38.00000 19.496
38.04000 12.307
38.08000 17.276
38.12000 23.228
38.16000 19.175
38.20000 19.181
38.24000 21.408
38.28000 18.169
38.32000 25.051
38.36000 16.157
38.40000 17.195
38.44000 21.506
38.48000 14.250
38.52000 19.359
38.56000 18.221
38.60000 22.463
38.64000 19.247
38.68000 17.312
38.72000 12.068
38.76000 19.379
38.80000 16.214
38.84000 9.152
38.88000 13.197
38.92000 19.194
38.96000 15.204
39.00000 18.263
39.04000 13.193
39.08000 16.202
39.12000 19.307
39.16000 21.470
39.20000 22.311
39.24000 15.212
39.28000 17.260
39.32000 14.391
39.36000 16.279
39.40000 17.255
39.44000 29.507
39.48000 24.433
39.52000 15.107
39.56000 21.316
39.60000 22.345
39.64000 28.510
39.68000 29.335
39.72000 24.192
39.76000 13.244
39.80000 14.059
39.84000 23.336
39.88000 20.064
39.92000 21.426
39.96000 23.409
40.00000 20.424
40.04000 25.208
40.08000 21.274
40.12000 24.475
40.16000 29.407
40.20000 22.428
40.24000 22.197
40.28000 16.254
40.32000 15.133
40.36000 17.074
40.40000 13.138
40.44000 19.278
40.48000 17.264
40.52000 16.203
40.56000 11.220
40.60000 15.145
40.64000 19.129
40.68000 20.269
40.72000 18.467
40.76000 23.328
40.80000 16.373
40.84000 16.288
40.88000 15.078
40.92000 26.446
40.96000 25.574
41.00000 15.317
41.04000 16.212
41.08000 18.196
41.12000 18.201
41.16000 21.308
41.20000 23.364
41.24000 14.263
41.28000 20.468
41.32000 20.212
41.36000 13.057
41.40000 18.201
41.44000 21.237
41.48000 24.200
41.52000 14.144
41.56000 22.162
41.60000 13.176
41.64000 14.083
41.68000 21.145
41.72000 11.182
41.76000 17.282
41.80000 16.154
41.84000 11.117
41.88000 25.247
41.92000 24.321
41.96000 17.357
42.00000 19.281
42.04000 18.287
42.08000 17.307
42.12000 21.198
42.16000 20.331
42.20000 17.281
42.24000 13.115
42.28000 16.283
42.32000 13.240
42.36000 23.169
42.40000 22.402
42.44000 19.173
42.48000 17.281
42.52000 21.122
42.56000 14.222
42.60000 31.436
42.64000 9.163
42.68000 19.304
42.72000 16.169
42.76000 21.088
42.80000 16.162
42.84000 22.429
42.88000 11.148
42.92000 10.015
42.96000 29.356
43.00000 16.292
43.04000 19.349
43.08000 22.248
43.12000 20.281
43.16000 19.264
43.20000 20.092
43.24000 13.173
43.28000 16.363
43.32000 13.143
43.36000 15.157
43.40000 11.014
43.44000 22.279
43.48000 23.431
43.52000 17.280
43.56000 18.222
43.60000 12.150
43.64000 18.200
43.68000 24.134
43.72000 17.195
43.76000 20.286
43.80000 17.103
43.84000 12.107
43.88000 11.240
43.92000 18.431
43.96000 21.401
44.00000 26.287
44.04000 15.202
44.08000 26.376
44.12000 18.239
44.16000 20.268
44.20000 15.192
44.24000 15.385
44.28000 10.190
44.32000 11.047
44.36000 17.175
44.40000 15.318
44.44000 24.560
44.48000 21.347
44.52000 13.106
44.56000 12.051
44.60000 18.162
44.64000 26.313
44.68000 18.111
44.72000 14.082
44.76000 22.409
44.80000 19.225
44.84000 16.281
44.88000 22.377
44.92000 21.387
44.96000 11.304
45.00000 17.117
45.04000 12.151
45.08000 20.032
45.12000 12.082
45.16000 17.225
45.20000 20.345
45.24000 13.270
45.28000 15.329
45.32000 15.007
45.36000 14.214
45.40000 14.264
45.44000 20.138
45.48000 17.282
45.52000 16.149
45.56000 17.217
45.60000 13.136
45.64000 18.197
45.68000 20.361
45.72000 22.253
45.76000 23.485
45.80000 22.051
45.84000 12.189
45.88000 13.285
45.92000 26.383
45.96000 17.058
46.00000 16.176
46.04000 23.327
46.08000 12.114
46.12000 22.155
46.16000 17.236
46.20000 14.171
46.24000 23.309
46.28000 22.480
46.32000 19.194
46.36000 30.553
46.40000 20.386
46.44000 18.192
46.48000 22.344
46.52000 17.150
46.56000 19.451
46.60000 20.186
46.64000 19.368
46.68000 15.366
46.72000 17.210
46.76000 17.252
46.80000 16.149
46.84000 14.180
46.88000 19.324
46.92000 25.260
46.96000 16.205
47.00000 13.236
47.04000 12.061
47.08000 18.218
47.12000 17.157
47.16000 6.213
47.20000 16.211
47.24000 21.258
47.28000 25.384
47.32000 10.301
47.36000 15.160
47.40000 18.101
47.44000 23.099
47.48000 18.308
47.52000 19.348
47.56000 17.201
47.60000 17.192
47.64000 17.202
47.68000 19.449
47.72000 21.244
47.76000 17.118
47.80000 18.277
47.84000 17.249
47.88000 10.239
47.92000 15.082
47.96000 18.269
48.00000 16.083
48.04000 9.085
48.08000 15.191
48.12000 15.272
48.16000 13.156
48.20000 19.385
48.24000 15.139
48.28000 17.212
48.32000 14.300
48.36000 15.222
48.40000 22.269
48.44000 23.202
48.48000 14.195
48.52000 18.208
48.56000 19.174
48.60000 18.321
48.64000 6.027
48.68000 19.220
48.72000 16.934
48.76000 20.274
48.80000 24.414
48.84000 18.204
48.88000 19.207
48.92000 16.279
48.96000 17.227
49.00000 15.169
49.04000 17.294
49.08000 16.226
49.12000 21.410
49.16000 15.259
49.20000 14.227
49.24000 20.268
49.28000 13.260
49.32000 14.188
49.36000 12.225
49.40000 14.166
49.44000 20.208
49.48000 19.136
49.52000 20.384
49.56000 15.184
49.60000 11.151
49.64000 18.306
49.68000 14.093
49.72000 12.123
49.76000 16.180
49.80000 15.253
49.84000 18.381
49.88000 12.165
49.92000 16.070
49.96000 14.259
50.00000 21.291
50.04000 14.251
50.08000 9.033
50.12000 12.254
50.16000 7.162
50.20000 18.048
50.24000 14.156
50.28000 24.348
50.32000 18.125
50.36000 16.062
50.40000 19.192
50.44000 10.146
50.48000 19.413
50.52000 9.193
50.56000 16.175
50.60000 12.077
50.64000 15.138
50.68000 10.039
50.72000 7.062
50.76000 14.291
50.80000 16.201
50.84000 16.255
50.88000 12.167
50.92000 13.130
50.96000 19.238
51.00000 14.211
51.04000 16.337
51.08000 15.100
51.12000 10.125
51.16000 8.155
51.20000 9.228
51.24000 3.985
51.28000 14.106
51.32000 17.137
51.36000 10.095
51.40000 18.161
51.44000 18.182
51.48000 16.170
51.52000 19.286
51.56000 12.169
51.60000 8.212
51.64000 18.247
51.68000 14.201
51.72000 21.291
51.76000 19.261
51.80000 15.322
51.84000 14.343
51.88000 10.103
51.92000 17.231
51.96000 18.366
52.00000 18.294
52.04000 15.168
52.08000 19.104
52.12000 16.065
52.16000 16.265
52.20000 19.249
52.24000 16.236
52.28000 16.267
52.32000 15.248
52.36000 27.335
52.40000 13.997
52.44000 13.013
52.48000 18.422
52.52000 19.435
52.56000 14.185
52.60000 14.162
52.64000 19.247
52.68000 13.053
52.72000 14.147
52.76000 16.277
52.80000 17.379
52.84000 11.337
52.88000 13.271
52.92000 11.107
52.96000 16.075
53.00000 12.089
53.04000 11.473
53.08000 16.211
53.12000 9.149
53.16000 14.181
53.20000 11.186
53.24000 13.123
53.28000 11.037
53.32000 12.159
53.36000 9.214
53.40000 11.156
53.44000 18.230
53.48000 7.221
53.52000 14.112
53.56000 16.126
53.60000 16.268
53.64000 12.273
53.68000 12.194
53.72000 12.207
53.76000 16.241
53.80000 8.018
53.84000 14.206
53.88000 13.249
53.92000 12.114
53.96000 14.144
54.00000 19.372
54.04000 9.124
54.08000 16.132
54.12000 15.143
54.16000 17.280
54.20000 19.228
54.24000 10.153
54.28000 16.139
54.32000 20.412
54.36000 16.275
54.40000 6.069
54.44000 6.181
54.48000 10.372
54.52000 16.309
54.56000 10.070
54.60000 8.030
54.64000 16.078
54.68000 9.035
54.72000 14.120
54.76000 11.191
54.80000 14.163
54.84000 6.035
54.88000 22.315
54.92000 13.117
54.96000 15.192
55.00000 20.513
55.04000 13.197
55.08000 12.159
55.12000 15.144
55.16000 15.251
55.20000 13.076
55.24000 6.036
55.28000 9.184
55.32000 17.197
55.36000 16.178
55.40000 11.317
55.44000 9.137
55.48000 8.052
55.52000 8.242
55.56000 10.962
55.60000 13.236
55.64000 10.145
55.68000 20.275
55.72000 12.177
55.76000 10.082
55.80000 12.247
55.84000 10.079
55.88000 17.012
55.92000 12.279
55.96000 11.146
56.00000 9.180
56.04000 11.255
56.08000 8.068
56.12000 12.220
56.16000 16.231
56.20000 18.140
56.24000 14.073
56.28000 13.304
56.32000 9.135
56.36000 16.186
56.40000 11.222
56.44000 17.235
56.48000 15.131
56.52000 16.180
56.56000 11.071
56.60000 16.109
56.64000 12.047
56.68000 13.198
56.72000 12.292
56.76000 10.074
56.80000 16.203
56.84000 8.047
56.88000 18.345
56.92000 24.342
56.96000 15.086
57.00000 10.193
57.04000 10.060
57.08000 15.118
57.12000 17.386
57.16000 14.220
57.20000 12.188
57.24000 13.185
57.28000 10.992
57.32000 14.345
57.36000 11.262
57.40000 11.122
57.44000 17.243
57.48000 8.162
57.52000 18.133
57.56000 16.141
57.60000 20.399
57.64000 8.972
57.68000 14.360
57.72000 18.454
57.76000 8.974
57.80000 14.154
57.84000 13.198
57.88000 7.059
57.92000 8.048
57.96000 24.356
58.00000 9.185
58.04000 11.023
58.08000 16.223
58.12000 12.036
58.16000 11.196
58.20000 13.033
58.24000 12.186
58.28000 6.203
58.32000 14.292
58.36000 12.255
58.40000 14.121
58.44000 10.063
58.48000 10.171
58.52000 16.249
58.56000 8.051
58.60000 17.162
58.64000 15.027
58.68000 6.979
58.72000 7.101
58.76000 9.104
58.80000 6.163
58.84000 7.086
58.88000 9.162
58.92000 15.263
58.96000 14.203
59.00000 9.029
59.04000 11.097
59.08000 9.060
59.12000 14.256
59.16000 6.131
59.20000 16.080
59.24000 17.222
59.28000 10.036
59.32000 10.175
59.36000 9.108
59.40000 11.027
59.44000 9.019
59.48000 19.257
59.52000 10.197
59.56000 4.008
59.60000 12.285
59.64000 10.184
59.68000 6.117
59.72000 6.070
59.76000 8.066
59.80000 7.118
59.84000 12.104
59.88000 11.182
59.92000 10.153
59.96000 12.130
60.00000 9.055
60.04000 10.135
60.08000 7.084
60.12000 7.987
60.16000 10.079
60.20000 13.186
60.24000 9.981
60.28000 8.131
60.32000 10.103
60.36000 15.247
60.40000 13.133
60.44000 15.143
60.48000 10.043
60.52000 10.068
60.56000 11.052
60.60000 7.049
60.64000 10.021
60.68000 11.294
60.72000 12.248
60.76000 11.111
60.80000 11.979
60.84000 16.105
60.88000 8.107
60.92000 10.275
60.96000 15.079
61.00000 8.120
61.04000 9.073
61.08000 10.094
61.12000 11.096
61.16000 9.090
61.20000 11.067
61.24000 9.018
61.28000 11.148
61.32000 7.999
61.36000 21.122
61.40000 8.136
61.44000 12.174
61.48000 13.289
61.52000 14.185
61.56000 6.112
61.60000 7.109
61.64000 10.153
61.68000 13.162
61.72000 10.093
61.76000 12.146
61.80000 7.997
61.84000 11.236
61.88000 13.192
61.92000 8.081
61.96000 14.208
62.00000 12.241
62.04000 8.224
62.08000 10.945
62.12000 4.073
62.16000 4.966
62.20000 10.106
62.24000 11.146
62.28000 9.102
62.32000 11.102
62.36000 5.036
62.40000 11.173
62.44000 9.059
62.48000 13.302
62.52000 9.041
62.56000 12.201
62.60000 7.006
62.64000 4.139
62.68000 12.087
62.72000 15.181
62.76000 10.063
62.80000 8.022
62.84000 10.020
62.88000 8.106
62.92000 8.097
62.96000 9.212
63.00000 14.130
63.04000 7.060
63.08000 10.200
63.12000 8.149
63.16000 9.171
63.20000 9.063
63.24000 7.053
63.28000 9.131
63.32000 10.197
63.36000 6.119
63.40000 10.051
63.44000 9.181
63.48000 12.118
63.52000 8.098
63.56000 8.060
63.60000 6.096
63.64000 9.124
63.68000 10.053
63.72000 11.063
63.76000 9.204
63.80000 9.211
63.84000 14.133
63.88000 8.120
63.92000 13.341
63.96000 12.268
64.00000 6.092
64.04000 5.024
64.08000 9.937
64.12000 4.035
64.16000 8.146
64.20000 7.135
64.24000 6.070
64.28000 9.014
64.32000 9.122
64.36000 7.995
64.40000 11.249
64.44000 10.076
64.48000 11.047
64.52000 8.112
64.56000 8.987
64.60000 6.023
64.64000 9.064
64.68000 6.141
64.72000 15.190
64.76000 15.311
64.80000 11.163
64.84000 9.165
64.88000 11.089
64.92000 8.046
64.96000 14.140
65.00000 3.071