File: XRD/11-09-2025/XY Data/01092025_BTO_omega_1_001_32_-37-500_0-000.xy
20.00000 13.187
20.04000 11.169
20.08000 21.324
20.12000 11.223
20.16000 25.506
20.20000 15.334
20.24000 19.334
20.28000 20.006
20.32000 25.304
20.36000 22.087
20.40000 18.172
20.44000 20.329
20.48000 23.233
20.52000 14.219
20.56000 14.290
20.60000 20.226
20.64000 19.342
20.68000 13.217
20.72000 15.186
20.76000 16.265
20.80000 17.450
20.84000 24.271
20.88000 14.218
20.92000 15.042
20.96000 14.266
21.00000 14.098
21.04000 16.140
21.08000 20.303
21.12000 24.252
21.16000 14.106
21.20000 18.184
21.24000 24.206
21.28000 19.176
21.32000 26.390
21.36000 18.013
21.40000 12.995
21.44000 15.123
21.48000 16.273
21.52000 10.089
21.56000 24.461
21.60000 22.282
21.64000 20.182
21.68000 13.213
21.72000 14.094
21.76000 26.187
21.80000 24.365
21.84000 15.142
21.88000 20.266
21.92000 16.199
21.96000 24.235
22.00000 31.441
22.04000 20.378
22.08000 19.253
22.12000 18.267
22.16000 19.109
22.20000 20.175
22.24000 24.262
22.28000 20.261
22.32000 21.299
22.36000 24.162
22.40000 30.502
22.44000 20.217
22.48000 15.115
22.52000 16.298
22.56000 19.195
22.60000 22.162
22.64000 22.500
22.68000 20.156
22.72000 28.393
22.76000 21.306
22.80000 17.395
22.84000 12.133
22.88000 28.405
22.92000 17.194
22.96000 22.277
23.00000 20.210
23.04000 18.196
23.08000 27.387
23.12000 24.197
23.16000 24.408
23.20000 24.386
23.24000 12.111
23.28000 24.385
23.32000 29.301
23.36000 18.064
23.40000 17.081
23.44000 28.218
23.48000 32.548
23.52000 20.240
23.56000 24.044
23.60000 17.323
23.64000 19.199
23.68000 22.347
23.72000 27.460
23.76000 30.565
23.80000 25.393
23.84000 35.536
23.88000 30.531
23.92000 29.499
23.96000 26.304
24.00000 23.407
24.04000 25.430
24.08000 24.243
24.12000 20.316
24.16000 26.267
24.20000 21.276
24.24000 25.331
24.28000 29.442
24.32000 24.232
24.36000 26.491
24.40000 19.160
24.44000 26.351
24.48000 30.329
24.52000 30.125
24.56000 18.223
24.60000 18.303
24.64000 21.254
24.68000 25.302
24.72000 26.511
24.76000 26.243
24.80000 22.260
24.84000 28.484
24.88000 32.416
24.92000 22.176
24.96000 24.104
25.00000 26.200
25.04000 29.387
25.08000 24.462
25.12000 27.216
25.16000 22.388
25.20000 23.287
25.24000 28.495
25.28000 33.173
25.32000 22.189
25.36000 25.074
25.40000 21.397
25.44000 27.355
25.48000 25.282
25.52000 24.167
25.56000 30.106
25.60000 26.116
25.64000 23.235
25.68000 39.308
25.72000 39.246
25.76000 28.492
25.80000 33.310
25.84000 25.245
25.88000 27.018
25.92000 23.415
25.96000 33.230
26.00000 21.272
26.04000 35.454
26.08000 27.107
26.12000 32.644
26.16000 43.580
26.20000 40.711
26.24000 45.691
26.28000 33.550
26.32000 34.181
26.36000 33.284
26.40000 39.158
26.44000 34.355
26.48000 35.275
26.52000 37.452
26.56000 34.193
26.60000 41.517
26.64000 38.808
26.68000 38.489
26.72000 28.427
26.76000 36.680
26.80000 36.783
26.84000 36.043
26.88000 30.418
26.92000 42.685
26.96000 42.453
27.00000 39.776
27.04000 31.372
27.08000 37.597
27.12000 22.471
27.16000 42.439
27.20000 34.407
27.24000 43.661
27.28000 24.256
27.32000 46.631
27.36000 22.207
27.40000 35.524
27.44000 25.364
27.48000 31.295
27.52000 37.657
27.56000 41.726
27.60000 27.420
27.64000 36.505
27.68000 29.236
27.72000 38.578
27.76000 40.476
27.80000 36.665
27.84000 25.205
27.88000 43.649
27.92000 34.427
27.96000 41.525
28.00000 37.622
28.04000 39.451
28.08000 32.611
28.12000 51.611
28.16000 44.375
28.20000 35.456
28.24000 38.246
28.28000 35.445
28.32000 29.301
28.36000 30.499
28.40000 21.365
28.44000 28.286
28.48000 49.643
28.52000 24.178
28.56000 27.354
28.60000 35.209
28.64000 39.360
28.68000 30.367
28.72000 26.157
28.76000 37.544
28.80000 30.685
28.84000 38.497
28.88000 31.252
28.92000 35.497
28.96000 34.546
29.00000 38.305
29.04000 29.449
29.08000 27.175
29.12000 38.507
29.16000 29.361
29.20000 38.540
29.24000 30.391
29.28000 34.561
29.32000 32.353
29.36000 36.238
29.40000 28.240
29.44000 28.277
29.48000 29.221
29.52000 28.405
29.56000 28.333
29.60000 26.366
29.64000 24.203
29.68000 26.384
29.72000 30.403
29.76000 28.299
29.80000 27.526
29.84000 27.408
29.88000 33.560
29.92000 21.367
29.96000 17.101
30.00000 23.189
30.04000 29.339
30.08000 24.473
30.12000 24.373
30.16000 14.115
30.20000 30.444
30.24000 29.366
30.28000 18.271
30.32000 20.432
30.36000 29.385
30.40000 35.645
30.44000 24.224
30.48000 21.393
30.52000 24.484
30.56000 20.259
30.60000 25.575
30.64000 20.070
30.68000 20.238
30.72000 25.427
30.76000 20.213
30.80000 25.217
30.84000 27.286
30.88000 14.057
30.92000 31.648
30.96000 13.215
31.00000 27.484
31.04000 21.408
31.08000 28.291
31.12000 19.236
31.16000 18.151
31.20000 21.596
31.24000 15.341
31.28000 17.274
31.32000 27.389
31.36000 20.214
31.40000 21.228
31.44000 22.379
31.48000 18.149
31.52000 23.477
31.56000 20.193
31.60000 21.997
31.64000 19.342
31.68000 22.073
31.72000 20.200
31.76000 19.207
31.80000 12.203
31.84000 26.067
31.88000 21.984
31.92000 23.522
31.96000 13.307
32.00000 25.348
32.04000 22.535
32.08000 31.485
32.12000 26.114
32.16000 29.374
32.20000 39.370
32.24000 19.218
32.28000 31.350
32.32000 19.443
32.36000 21.276
32.40000 25.513
32.44000 18.223
32.48000 25.129
32.52000 24.386
32.56000 18.266
32.60000 22.179
32.64000 23.519
32.68000 21.435
32.72000 20.150
32.76000 17.468
32.80000 15.143
32.84000 21.239
32.88000 22.338
32.92000 22.236
32.96000 16.181
33.00000 19.300
33.04000 20.133
33.08000 18.274
33.12000 13.160
33.16000 8.102
33.20000 16.956
33.24000 11.143
33.28000 20.160
33.32000 14.194
33.36000 15.183
33.40000 11.963
33.44000 21.223
33.48000 15.170
33.52000 9.160
33.56000 15.269
33.60000 16.117
33.64000 14.065
33.68000 20.106
33.72000 25.218
33.76000 16.135
33.80000 18.256
33.84000 12.244
33.88000 14.275
33.92000 14.059
33.96000 11.137
34.00000 12.123
34.04000 16.301
34.08000 19.411
34.12000 15.198
34.16000 15.092
34.20000 16.230
34.24000 11.229
34.28000 10.033
34.32000 12.104
34.36000 13.152
34.40000 17.133
34.44000 15.113
34.48000 17.993
34.52000 15.211
34.56000 15.069
34.60000 10.280
34.64000 12.154
34.68000 15.407
34.72000 12.054
34.76000 9.090
34.80000 14.154
34.84000 20.310
34.88000 12.186
34.92000 19.198
34.96000 15.140
35.00000 15.190
35.04000 8.101
35.08000 20.130
35.12000 6.982
35.16000 9.036
35.20000 9.131
35.24000 10.285
35.28000 14.282
35.32000 20.170
35.36000 18.294
35.40000 12.262
35.44000 15.350
35.48000 13.145
35.52000 11.126
35.56000 7.061
35.60000 12.237
35.64000 12.045
35.68000 19.354
35.72000 16.271
35.76000 7.027
35.80000 15.029
35.84000 12.181
35.88000 9.996
35.92000 12.170
35.96000 13.150
36.00000 14.263
36.04000 12.216
36.08000 17.180
36.12000 12.155
36.16000 9.169
36.20000 13.138
36.24000 14.395
36.28000 12.123
36.32000 7.073
36.36000 23.357
36.40000 8.140
36.44000 15.125
36.48000 12.331
36.52000 19.570
36.56000 13.135
36.60000 23.317
36.64000 15.394
36.68000 14.353
36.72000 13.226
36.76000 15.274
36.80000 15.163
36.84000 19.227
36.88000 19.169
36.92000 16.287
36.96000 11.185
37.00000 15.125
37.04000 8.010
37.08000 14.208
37.12000 20.294
37.16000 14.167
37.20000 15.255
37.24000 17.100
37.28000 10.247
37.32000 21.164
37.36000 12.253
37.40000 19.187
37.44000 9.104
37.48000 14.214
37.52000 11.156
37.56000 15.096
37.60000 12.014
37.64000 10.205
37.68000 9.022
37.72000 13.221
37.76000 17.208
37.80000 18.145
37.84000 10.191
37.88000 14.084
37.92000 12.105
37.96000 15.205
38.00000 16.038
38.04000 14.099
38.08000 10.132
38.12000 21.215
38.16000 10.133
38.20000 14.204
38.24000 12.158
38.28000 19.245
38.32000 9.152
38.36000 11.220
38.40000 14.197
38.44000 12.079
38.48000 12.186
38.52000 5.073
38.56000 14.012
38.60000 14.137
38.64000 12.218
38.68000 20.289
38.72000 12.142
38.76000 15.189
38.80000 14.220
38.84000 14.206
38.88000 12.293
38.92000 18.414
38.96000 13.113
39.00000 12.076
39.04000 11.318
39.08000 9.245
39.12000 13.158
39.16000 22.153
39.20000 11.047
39.24000 12.036
39.28000 9.116
39.32000 15.120
39.36000 17.234
39.40000 19.224
39.44000 20.201
39.48000 17.303
39.52000 17.156
39.56000 14.231
39.60000 14.208
39.64000 21.199
39.68000 20.043
39.72000 20.237
39.76000 17.202
39.80000 13.014
39.84000 19.320
39.88000 11.209
39.92000 16.257
39.96000 16.363
40.00000 14.995
40.04000 20.184
40.08000 11.089
40.12000 20.424
40.16000 23.117
40.20000 21.192
40.24000 20.054
40.28000 15.201
40.32000 16.195
40.36000 11.094
40.40000 12.159
40.44000 17.230
40.48000 15.276
40.52000 19.245
40.56000 15.221
40.60000 15.203
40.64000 15.133
40.68000 15.253
40.72000 16.115
40.76000 19.135
40.80000 9.174
40.84000 7.203
40.88000 17.318
40.92000 14.117
40.96000 8.011
41.00000 12.072
41.04000 16.252
41.08000 18.357
41.12000 9.193
41.16000 11.296
41.20000 6.182
41.24000 6.069
41.28000 10.147
41.32000 14.226
41.36000 15.442
41.40000 16.105
41.44000 10.150
41.48000 14.102
41.52000 13.159
41.56000 15.168
41.60000 12.116
41.64000 13.296
41.68000 16.096
41.72000 11.024
41.76000 8.064
41.80000 15.191
41.84000 15.184
41.88000 9.226
41.92000 21.496
41.96000 14.257
42.00000 18.088
42.04000 17.335
42.08000 13.030
42.12000 9.134
42.16000 13.215
42.20000 15.245
42.24000 17.113
42.28000 11.159
42.32000 10.073
42.36000 11.013
42.40000 21.338
42.44000 14.335
42.48000 14.138
42.52000 15.265
42.56000 15.242
42.60000 14.152
42.64000 10.041
42.68000 23.317
42.72000 8.043
42.76000 22.282
42.80000 14.238
42.84000 9.044
42.88000 9.111
42.92000 12.139
42.96000 16.245
43.00000 15.084
43.04000 12.017
43.08000 18.257
43.12000 10.136
43.16000 18.216
43.20000 9.147
43.24000 12.128
43.28000 15.106
43.32000 12.167
43.36000 11.246
43.40000 12.254
43.44000 22.366
43.48000 10.153
43.52000 20.526
43.56000 13.150
43.60000 27.205
43.64000 9.998
43.68000 15.090
43.72000 16.324
43.76000 18.269
43.80000 12.103
43.84000 15.223
43.88000 14.221
43.92000 16.275
43.96000 9.106
44.00000 20.562
44.04000 22.339
44.08000 17.322
44.12000 15.069
44.16000 15.114
44.20000 14.162
44.24000 18.281
44.28000 14.166
44.32000 16.347
44.36000 11.076
44.40000 11.054
44.44000 13.063
44.48000 14.130
44.52000 15.108
44.56000 8.093
44.60000 14.068
44.64000 13.113
44.68000 11.194
44.72000 14.130
44.76000 11.054
44.80000 21.061
44.84000 14.074
44.88000 13.193
44.92000 14.032
44.96000 14.101
45.00000 10.226
45.04000 13.160
45.08000 18.230
45.12000 13.081
45.16000 6.088
45.20000 13.209
45.24000 11.067
45.28000 12.130
45.32000 9.355
45.36000 14.050
45.40000 8.150
45.44000 8.067
45.48000 24.448
45.52000 15.282
45.56000 17.071
45.60000 8.987
45.64000 10.085
45.68000 14.167
45.72000 18.222
45.76000 11.037
45.80000 11.185
45.84000 13.283
45.88000 9.108
45.92000 21.392
45.96000 16.169
46.00000 17.152
46.04000 15.285
46.08000 10.188
46.12000 14.156
46.16000 11.071
46.20000 20.278
46.24000 17.123
46.28000 21.263
46.32000 18.278
46.36000 15.267
46.40000 24.286
46.44000 16.203
46.48000 16.144
46.52000 17.267
46.56000 17.325
46.60000 12.064
46.64000 15.186
46.68000 15.149
46.72000 11.183
46.76000 19.280
46.80000 13.185
46.84000 18.212
46.88000 16.267
46.92000 16.237
46.96000 11.104
47.00000 14.280
47.04000 15.221
47.08000 13.082
47.12000 10.096
47.16000 14.230
47.20000 9.254
47.24000 5.069
47.28000 19.194
47.32000 11.088
47.36000 18.147
47.40000 18.170
47.44000 14.065
47.48000 12.142
47.52000 10.035
47.56000 11.047
47.60000 16.182
47.64000 15.091
47.68000 15.112
47.72000 20.433
47.76000 13.145
47.80000 13.053
47.84000 16.141
47.88000 7.023
47.92000 11.045
47.96000 9.083
48.00000 12.034
48.04000 13.152
48.08000 18.186
48.12000 11.027
48.16000 12.154
48.20000 14.136
48.24000 8.088
48.28000 15.075
48.32000 10.183
48.36000 9.037
48.40000 12.153
48.44000 11.212
48.48000 8.243
48.52000 10.166
48.56000 14.106
48.60000 9.302
48.64000 10.194
48.68000 15.256
48.72000 14.186
48.76000 15.239
48.80000 15.084
48.84000 10.068
48.88000 13.159
48.92000 8.058
48.96000 14.201
49.00000 17.121
49.04000 10.070
49.08000 9.154
49.12000 12.214
49.16000 14.055
49.20000 19.112
49.24000 12.208
49.28000 14.319
49.32000 12.073
49.36000 18.051
49.40000 10.259
49.44000 13.112
49.48000 13.004
49.52000 10.177
49.56000 8.081
49.60000 8.055
49.64000 18.481
49.68000 20.288
49.72000 15.203
49.76000 9.124
49.80000 13.172
49.84000 14.190
49.88000 14.114
49.92000 21.126
49.96000 7.212
50.00000 10.196
50.04000 16.435
50.08000 10.121
50.12000 10.221
50.16000 18.330
50.20000 14.125
50.24000 15.190
50.28000 10.078
50.32000 9.088
50.36000 8.129
50.40000 18.241
50.44000 13.064
50.48000 13.215
50.52000 11.226
50.56000 14.202
50.60000 14.202
50.64000 15.183
50.68000 7.076
50.72000 12.276
50.76000 6.981
50.80000 15.195
50.84000 13.013
50.88000 11.186
50.92000 14.176
50.96000 21.333
51.00000 10.149
51.04000 17.277
51.08000 16.222
51.12000 11.203
51.16000 8.069
51.20000 12.129
51.24000 16.289
51.28000 10.177
51.32000 7.082
51.36000 8.108
51.40000 14.202
51.44000 11.074
51.48000 16.237
51.52000 12.215
51.56000 12.241
51.60000 10.164
51.64000 11.127
51.68000 10.152
51.72000 12.094
51.76000 18.287
51.80000 13.163
51.84000 9.171
51.88000 17.214
51.92000 14.994
51.96000 14.303
52.00000 10.098
52.04000 12.151
52.08000 3.985
52.12000 16.298
52.16000 15.180
52.20000 9.203
52.24000 14.057
52.28000 18.120
52.32000 5.067
52.36000 11.161
52.40000 16.066
52.44000 15.197
52.48000 14.219
52.52000 10.116
52.56000 10.116
52.60000 8.077
52.64000 11.251
52.68000 10.149
52.72000 12.154
52.76000 10.128
52.80000 13.169
52.84000 13.201
52.88000 15.263
52.92000 6.044
52.96000 10.173
53.00000 10.159
53.04000 10.164
53.08000 12.172
53.12000 5.056
53.16000 7.097
53.20000 11.234
53.24000 11.968
53.28000 11.001
53.32000 8.139
53.36000 15.180
53.40000 17.180
53.44000 9.123
53.48000 11.097
53.52000 13.076
53.56000 10.091
53.60000 11.088
53.64000 10.070
53.68000 13.350
53.72000 14.338
53.76000 11.193
53.80000 14.130
53.84000 12.103
53.88000 13.246
53.92000 7.193
53.96000 11.192
54.00000 16.138
54.04000 8.136
54.08000 9.162
54.12000 11.109
54.16000 6.030
54.20000 7.210
54.24000 12.192
54.28000 10.105
54.32000 8.130
54.36000 6.136
54.40000 13.063
54.44000 8.050
54.48000 10.221
54.52000 7.057
54.56000 10.124
54.60000 9.182
54.64000 6.068
54.68000 14.159
54.72000 11.971
54.76000 12.098
54.80000 11.131
54.84000 12.226
54.88000 7.035
54.92000 13.115
54.96000 7.958
55.00000 12.236
55.04000 12.083
55.08000 16.285
55.12000 9.081
55.16000 10.150
55.20000 6.128
55.24000 11.076
55.28000 5.054
55.32000 14.361
55.36000 12.154
55.40000 8.045
55.44000 13.201
55.48000 9.217
55.52000 11.936
55.56000 10.150
55.60000 6.055
55.64000 11.118
55.68000 13.258
55.72000 10.100
55.76000 12.016
55.80000 13.110
55.84000 11.072
55.88000 5.162
55.92000 8.016
55.96000 11.144
56.00000 6.119
56.04000 18.175
56.08000 9.124
56.12000 11.247
56.16000 12.101
56.20000 10.243
56.24000 9.126
56.28000 6.047
56.32000 9.257
56.36000 13.191
56.40000 13.365
56.44000 15.155
56.48000 11.107
56.52000 10.030
56.56000 5.053
56.60000 8.222
56.64000 5.087
56.68000 9.067
56.72000 12.213
56.76000 7.112
56.80000 10.144
56.84000 7.192
56.88000 6.026
56.92000 6.041
56.96000 7.124
57.00000 8.027
57.04000 11.236
57.08000 10.009
57.12000 7.146
57.16000 13.279
57.20000 11.153
57.24000 5.056
57.28000 6.968
57.32000 12.138
57.36000 8.128
57.40000 11.070
57.44000 6.131
57.48000 13.121
57.52000 9.213
57.56000 9.143
57.60000 6.123
57.64000 12.090
57.68000 17.298
57.72000 9.079
57.76000 12.114
57.80000 10.133
57.84000 13.239
57.88000 14.146
57.92000 9.151
57.96000 10.278
58.00000 11.103
58.04000 14.221
58.08000 15.111
58.12000 13.079
58.16000 8.179
58.20000 6.074
58.24000 10.158
58.28000 4.107
58.32000 13.211
58.36000 9.133
58.40000 10.224
58.44000 12.131
58.48000 14.238
58.52000 7.116
58.56000 18.206
58.60000 13.957
58.64000 11.203
58.68000 11.229
58.72000 5.073
58.76000 12.233
58.80000 12.098
58.84000 11.078
58.88000 6.092
58.92000 9.177
58.96000 9.187
59.00000 6.096
59.04000 5.003
59.08000 6.178
59.12000 7.029
59.16000 7.054
59.20000 7.095
59.24000 6.066
59.28000 6.046
59.32000 7.077
59.36000 9.131
59.40000 10.087
59.44000 4.045
59.48000 6.096
59.52000 10.054
59.56000 8.198
59.60000 6.002
59.64000 16.154
59.68000 5.224
59.72000 9.990
59.76000 8.092
59.80000 8.081
59.84000 4.011
59.88000 19.263
59.92000 8.046
59.96000 8.124
60.00000 8.021
60.04000 3.201
60.08000 9.164
60.12000 11.199
60.16000 10.237
60.20000 10.084
60.24000 4.972
60.28000 12.160
60.32000 11.276
60.36000 8.014
60.40000 9.065
60.44000 12.012
60.48000 5.005
60.52000 11.174
60.56000 10.282
60.60000 6.101
60.64000 6.961
60.68000 10.187
60.72000 9.050
60.76000 8.919
60.80000 10.268
60.84000 6.039
60.88000 9.145
60.92000 9.232
60.96000 9.130
61.00000 11.151
61.04000 12.253
61.08000 13.279
61.12000 5.986
61.16000 7.044
61.20000 9.176
61.24000 9.954
61.28000 8.053
61.32000 7.152
61.36000 4.028
61.40000 3.037
61.44000 8.074
61.48000 12.219
61.52000 6.057
61.56000 6.038
61.60000 14.077
61.64000 10.095
61.68000 4.057
61.72000 7.032
61.76000 11.240
61.80000 6.145
61.84000 11.107
61.88000 7.106
61.92000 6.110
61.96000 12.157
62.00000 10.184
62.04000 4.026
62.08000 6.000
62.12000 8.066
62.16000 14.204
62.20000 6.138
62.24000 10.206
62.28000 11.175
62.32000 6.054
62.36000 9.129
62.40000 8.059
62.44000 6.105
62.48000 11.019
62.52000 9.216
62.56000 6.028
62.60000 10.096
62.64000 4.114
62.68000 6.068
62.72000 5.976
62.76000 6.113
62.80000 9.130
62.84000 6.034
62.88000 5.061
62.92000 8.045
62.96000 12.036
63.00000 6.124
63.04000 9.129
63.08000 7.210
63.12000 7.070
63.16000 11.109
63.20000 5.025
63.24000 7.105
63.28000 7.148
63.32000 11.109
63.36000 1.997
63.40000 13.132
63.44000 6.014
63.48000 8.082
63.52000 6.028
63.56000 8.223
63.60000 7.271
63.64000 11.262
63.68000 5.000
63.72000 3.026
63.76000 10.062
63.80000 12.025
63.84000 10.074
63.88000 9.060
63.92000 9.135
63.96000 5.980
64.00000 2.043
64.04000 4.016
64.08000 8.061
64.12000 10.188
64.16000 11.209
64.20000 12.129
64.24000 11.194
64.28000 9.107
64.32000 5.124
64.36000 8.020
64.40000 5.076
64.44000 6.048
64.48000 6.002
64.52000 10.180
64.56000 3.033
64.60000 10.130
64.64000 10.058
64.68000 8.136
64.72000 11.153
64.76000 11.071
64.80000 10.190
64.84000 6.988
64.88000 9.057
64.92000 3.990
64.96000 7.047
65.00000 7.090