File: XRD/11-09-2025/XY Data/01092025_BTO_omega_0_5_001_19_5-563_24-373.xy
20.00000 21.379
20.04000 22.233
20.08000 18.134
20.12000 19.222
20.16000 14.134
20.20000 14.192
20.24000 14.184
20.28000 27.381
20.32000 22.146
20.36000 22.203
20.40000 24.281
20.44000 19.363
20.48000 21.221
20.52000 17.134
20.56000 26.479
20.60000 17.247
20.64000 25.321
20.68000 19.318
20.72000 10.159
20.76000 12.055
20.80000 10.001
20.84000 22.237
20.88000 14.166
20.92000 18.457
20.96000 18.269
21.00000 17.227
21.04000 14.145
21.08000 21.157
21.12000 31.370
21.16000 21.215
21.20000 22.029
21.24000 21.282
21.28000 25.359
21.32000 25.207
21.36000 22.367
21.40000 20.301
21.44000 19.252
21.48000 30.257
21.52000 25.068
21.56000 19.321
21.60000 15.033
21.64000 28.305
21.68000 23.312
21.72000 19.240
21.76000 23.354
21.80000 22.324
21.84000 26.091
21.88000 20.215
21.92000 27.510
21.96000 26.264
22.00000 21.213
22.04000 16.221
22.08000 19.300
22.12000 22.359
22.16000 18.281
22.20000 22.200
22.24000 19.134
22.28000 30.434
22.32000 13.120
22.36000 18.948
22.40000 18.273
22.44000 28.227
22.48000 26.263
22.52000 32.259
22.56000 19.211
22.60000 25.386
22.64000 23.296
22.68000 25.215
22.72000 23.311
22.76000 25.327
22.80000 28.152
22.84000 19.117
22.88000 24.226
22.92000 34.457
22.96000 23.563
23.00000 27.336
23.04000 22.314
23.08000 23.226
23.12000 18.329
23.16000 24.474
23.20000 24.453
23.24000 20.192
23.28000 25.250
23.32000 29.412
23.36000 25.387
23.40000 27.606
23.44000 28.233
23.48000 24.206
23.52000 26.179
23.56000 21.058
23.60000 27.584
23.64000 19.362
23.68000 26.369
23.72000 33.402
23.76000 25.468
23.80000 24.361
23.84000 27.384
23.88000 27.225
23.92000 32.414
23.96000 25.396
24.00000 28.416
24.04000 30.395
24.08000 35.359
24.12000 26.456
24.16000 29.094
24.20000 26.244
24.24000 38.612
24.28000 25.419
24.32000 37.411
24.36000 33.532
24.40000 40.709
24.44000 38.381
24.48000 40.271
24.52000 32.511
24.56000 36.619
24.60000 36.535
24.64000 37.470
24.68000 39.547
24.72000 45.775
24.76000 30.245
24.80000 37.694
24.84000 36.409
24.88000 29.354
24.92000 38.597
24.96000 41.441
25.00000 44.459
25.04000 44.655
25.08000 34.258
25.12000 48.859
25.16000 42.230
25.20000 39.398
25.24000 46.348
25.28000 46.749
25.32000 43.826
25.36000 34.206
25.40000 50.494
25.44000 39.321
25.48000 50.766
25.52000 50.690
25.56000 37.594
25.60000 44.577
25.64000 52.444
25.68000 47.482
25.72000 46.587
25.76000 40.510
25.80000 46.535
25.84000 45.707
25.88000 48.513
25.92000 62.607
25.96000 54.499
26.00000 51.383
26.04000 51.855
26.08000 51.765
26.12000 56.875
26.16000 45.729
26.20000 57.858
26.24000 62.116
26.28000 49.565
26.32000 70.136
26.36000 45.314
26.40000 53.432
26.44000 61.794
26.48000 51.463
26.52000 38.501
26.56000 48.812
26.60000 55.542
26.64000 63.731
26.68000 59.580
26.72000 52.493
26.76000 52.725
26.80000 55.475
26.84000 64.077
26.88000 50.771
26.92000 60.235
26.96000 74.404
27.00000 67.790
27.04000 59.981
27.08000 66.568
27.12000 61.535
27.16000 45.856
27.20000 54.575
27.24000 71.315
27.28000 51.431
27.32000 59.972
27.36000 71.074
27.40000 65.941
27.44000 63.858
27.48000 63.798
27.52000 63.759
27.56000 67.916
27.60000 60.463
27.64000 67.812
27.68000 52.618
27.72000 56.625
27.76000 58.762
27.80000 77.925
27.84000 57.649
27.88000 60.817
27.92000 73.908
27.96000 48.755
28.00000 74.773
28.04000 63.974
28.08000 43.519
28.12000 57.641
28.16000 57.727
28.20000 61.790
28.24000 78.856
28.28000 62.732
28.32000 43.612
28.36000 52.615
28.40000 63.925
28.44000 59.063
28.48000 57.577
28.52000 55.927
28.56000 66.885
28.60000 62.908
28.64000 54.670
28.68000 63.775
28.72000 55.700
28.76000 60.458
28.80000 77.039
28.84000 43.886
28.88000 56.957
28.92000 60.521
28.96000 65.672
29.00000 61.750
29.04000 54.807
29.08000 67.744
29.12000 52.791
29.16000 47.542
29.20000 58.534
29.24000 46.654
29.28000 51.759
29.32000 44.684
29.36000 57.004
29.40000 42.412
29.44000 58.796
29.48000 44.744
29.52000 50.830
29.56000 46.494
29.60000 51.708
29.64000 65.823
29.68000 37.644
29.72000 51.894
29.76000 47.646
29.80000 44.819
29.84000 35.394
29.88000 37.530
29.92000 35.360
29.96000 51.814
30.00000 38.652
30.04000 37.429
30.08000 37.866
30.12000 48.508
30.16000 44.624
30.20000 40.646
30.24000 50.573
30.28000 35.419
30.32000 35.525
30.36000 44.812
30.40000 40.382
30.44000 36.588
30.48000 35.227
30.52000 42.510
30.56000 35.386
30.60000 34.706
30.64000 35.468
30.68000 45.650
30.72000 43.491
30.76000 43.562
30.80000 30.540
30.84000 44.689
30.88000 40.593
30.92000 35.584
30.96000 30.510
31.00000 39.476
31.04000 44.512
31.08000 32.568
31.12000 41.592
31.16000 30.580
31.20000 35.337
31.24000 45.660
31.28000 32.463
31.32000 25.150
31.36000 26.563
31.40000 42.416
31.44000 38.484
31.48000 43.428
31.52000 33.459
31.56000 29.450
31.60000 34.504
31.64000 46.399
31.68000 33.337
31.72000 20.308
31.76000 29.288
31.80000 37.333
31.84000 22.593
31.88000 30.499
31.92000 27.552
31.96000 29.279
32.00000 35.339
32.04000 28.515
32.08000 28.229
32.12000 30.299
32.16000 41.474
32.20000 24.294
32.24000 32.273
32.28000 32.275
32.32000 31.362
32.36000 29.561
32.40000 31.572
32.44000 29.236
32.48000 27.291
32.52000 24.267
32.56000 35.468
32.60000 28.416
32.64000 22.277
32.68000 24.284
32.72000 23.221
32.76000 15.085
32.80000 30.402
32.84000 28.300
32.88000 22.380
32.92000 30.302
32.96000 17.261
33.00000 22.282
33.04000 19.452
33.08000 24.001
33.12000 15.145
33.16000 22.092
33.20000 16.212
33.24000 16.090
33.28000 15.003
33.32000 22.534
33.36000 16.049
33.40000 12.041
33.44000 27.294
33.48000 26.417
33.52000 22.244
33.56000 19.454
33.60000 9.176
33.64000 17.119
33.68000 29.509
33.72000 23.132
33.76000 15.200
33.80000 22.075
33.84000 14.108
33.88000 17.269
33.92000 23.275
33.96000 16.131
34.00000 12.360
34.04000 19.435
34.08000 21.156
34.12000 31.482
34.16000 16.097
34.20000 15.283
34.24000 28.753
34.28000 21.400
34.32000 17.288
34.36000 18.333
34.40000 16.211
34.44000 16.292
34.48000 16.194
34.52000 26.276
34.56000 12.105
34.60000 25.318
34.64000 19.117
34.68000 13.010
34.72000 14.065
34.76000 10.174
34.80000 13.226
34.84000 21.204
34.88000 17.100
34.92000 26.296
34.96000 19.298
35.00000 22.369
35.04000 20.198
35.08000 14.174
35.12000 19.281
35.16000 21.389
35.20000 24.711
35.24000 14.196
35.28000 17.299
35.32000 20.232
35.36000 16.173
35.40000 17.271
35.44000 18.197
35.48000 21.125
35.52000 16.205
35.56000 17.095
35.60000 19.336
35.64000 18.272
35.68000 18.412
35.72000 20.324
35.76000 22.530
35.80000 21.400
35.84000 12.176
35.88000 16.284
35.92000 17.076
35.96000 22.082
36.00000 19.185
36.04000 24.282
36.08000 17.178
36.12000 27.217
36.16000 13.315
36.20000 21.410
36.24000 17.073
36.28000 15.274
36.32000 16.176
36.36000 27.273
36.40000 19.351
36.44000 11.202
36.48000 24.433
36.52000 21.212
36.56000 22.214
36.60000 16.076
36.64000 12.248
36.68000 18.205
36.72000 21.433
36.76000 14.197
36.80000 19.211
36.84000 19.269
36.88000 25.309
36.92000 18.294
36.96000 17.263
37.00000 18.436
37.04000 13.172
37.08000 14.076
37.12000 20.333
37.16000 20.169
37.20000 13.266
37.24000 25.446
37.28000 27.247
37.32000 25.156
37.36000 17.200
37.40000 19.326
37.44000 22.275
37.48000 23.413
37.52000 11.251
37.56000 24.235
37.60000 15.251
37.64000 16.315
37.68000 18.254
37.72000 19.350
37.76000 19.215
37.80000 15.186
37.84000 20.377
37.88000 21.191
37.92000 24.314
37.96000 25.329
38.00000 29.333
38.04000 14.145
38.08000 19.113
38.12000 26.024
38.16000 19.255
38.20000 17.432
38.24000 26.398
38.28000 12.167
38.32000 18.230
38.36000 28.343
38.40000 16.186
38.44000 16.145
38.48000 20.166
38.52000 29.361
38.56000 19.259
38.60000 22.243
38.64000 18.399
38.68000 21.312
38.72000 30.240
38.76000 22.429
38.80000 31.514
38.84000 28.434
38.88000 28.161
38.92000 24.463
38.96000 15.327
39.00000 19.365
39.04000 19.206
39.08000 28.248
39.12000 22.426
39.16000 25.423
39.20000 30.420
39.24000 21.282
39.28000 20.296
39.32000 20.341
39.36000 15.268
39.40000 24.318
39.44000 19.128
39.48000 14.266
39.52000 23.150
39.56000 18.436
39.60000 17.231
39.64000 22.338
39.68000 21.085
39.72000 17.215
39.76000 18.315
39.80000 18.393
39.84000 23.403
39.88000 14.205
39.92000 22.379
39.96000 24.386
40.00000 18.104
40.04000 25.305
40.08000 19.144
40.12000 17.217
40.16000 24.309
40.20000 29.387
40.24000 25.428
40.28000 19.199
40.32000 20.164
40.36000 26.294
40.40000 18.988
40.44000 33.266
40.48000 25.362
40.52000 20.166
40.56000 17.336
40.60000 32.583
40.64000 23.326
40.68000 19.398
40.72000 27.151
40.76000 29.278
40.80000 21.293
40.84000 24.320
40.88000 32.525
40.92000 28.341
40.96000 24.286
41.00000 24.374
41.04000 27.292
41.08000 20.415
41.12000 28.382
41.16000 13.254
41.20000 19.404
41.24000 18.281
41.28000 23.240
41.32000 23.359
41.36000 15.236
41.40000 22.313
41.44000 25.088
41.48000 22.356
41.52000 19.341
41.56000 30.604
41.60000 15.179
41.64000 26.368
41.68000 29.572
41.72000 26.243
41.76000 15.235
41.80000 26.409
41.84000 22.528
41.88000 18.244
41.92000 23.486
41.96000 18.980
42.00000 25.455
42.04000 19.253
42.08000 23.102
42.12000 15.376
42.16000 30.475
42.20000 21.353
42.24000 24.336
42.28000 15.271
42.32000 28.475
42.36000 25.425
42.40000 23.341
42.44000 18.415
42.48000 32.814
42.52000 20.213
42.56000 20.149
42.60000 14.225
42.64000 22.371
42.68000 24.302
42.72000 22.480
42.76000 33.112
42.80000 25.664
42.84000 23.276
42.88000 16.143
42.92000 29.334
42.96000 16.287
43.00000 26.462
43.04000 31.423
43.08000 29.426
43.12000 22.335
43.16000 20.288
43.20000 17.046
43.24000 18.210
43.28000 17.371
43.32000 23.310
43.36000 29.437
43.40000 20.152
43.44000 23.189
43.48000 12.123
43.52000 19.232
43.56000 19.194
43.60000 23.327
43.64000 20.548
43.68000 22.220
43.72000 18.228
43.76000 17.296
43.80000 18.358
43.84000 15.183
43.88000 18.264
43.92000 23.259
43.96000 13.039
44.00000 20.306
44.04000 28.245
44.08000 22.206
44.12000 15.158
44.16000 28.478
44.20000 15.236
44.24000 20.410
44.28000 25.427
44.32000 18.260
44.36000 25.165
44.40000 24.442
44.44000 19.159
44.48000 27.293
44.52000 22.232
44.56000 23.291
44.60000 29.566
44.64000 20.412
44.68000 19.094
44.72000 25.218
44.76000 21.394
44.80000 19.218
44.84000 28.372
44.88000 27.323
44.92000 26.354
44.96000 22.495
45.00000 26.387
45.04000 22.390
45.08000 16.281
45.12000 24.327
45.16000 17.200
45.20000 18.302
45.24000 18.131
45.28000 22.278
45.32000 19.221
45.36000 19.209
45.40000 23.053
45.44000 24.357
45.48000 24.390
45.52000 23.327
45.56000 20.415
45.60000 27.292
45.64000 16.303
45.68000 20.114
45.72000 26.375
45.76000 24.203
45.80000 24.380
45.84000 19.195
45.88000 27.348
45.92000 24.430
45.96000 21.290
46.00000 13.237
46.04000 19.212
46.08000 17.193
46.12000 29.355
46.16000 23.297
46.20000 26.977
46.24000 25.330
46.28000 23.351
46.32000 19.415
46.36000 17.139
46.40000 20.167
46.44000 30.251
46.48000 26.460
46.52000 22.971
46.56000 22.327
46.60000 26.277
46.64000 29.530
46.68000 28.466
46.72000 15.263
46.76000 21.225
46.80000 13.113
46.84000 19.223
46.88000 18.063
46.92000 20.217
46.96000 15.152
47.00000 25.368
47.04000 20.245
47.08000 25.216
47.12000 18.337
47.16000 17.483
47.20000 27.358
47.24000 15.197
47.28000 23.260
47.32000 22.248
47.36000 31.665
47.40000 25.194
47.44000 17.140
47.48000 20.290
47.52000 19.401
47.56000 18.152
47.60000 25.367
47.64000 16.355
47.68000 18.222
47.72000 14.212
47.76000 13.156
47.80000 16.121
47.84000 23.265
47.88000 25.319
47.92000 19.260
47.96000 19.253
48.00000 19.281
48.04000 22.222
48.08000 19.313
48.12000 21.281
48.16000 17.312
48.20000 25.255
48.24000 19.201
48.28000 14.259
48.32000 18.128
48.36000 22.244
48.40000 24.378
48.44000 19.364
48.48000 21.259
48.52000 22.384
48.56000 17.308
48.60000 19.506
48.64000 24.254
48.68000 12.152
48.72000 18.095
48.76000 20.081
48.80000 22.280
48.84000 20.325
48.88000 24.485
48.92000 20.186
48.96000 17.317
49.00000 20.304
49.04000 18.339
49.08000 16.182
49.12000 17.343
49.16000 23.281
49.20000 19.398
49.24000 26.143
49.28000 12.994
49.32000 16.126
49.36000 20.322
49.40000 24.356
49.44000 16.207
49.48000 9.083
49.52000 19.428
49.56000 16.110
49.60000 22.364
49.64000 16.311
49.68000 18.362
49.72000 20.354
49.76000 17.042
49.80000 8.086
49.84000 12.066
49.88000 13.051
49.92000 14.251
49.96000 22.194
50.00000 16.422
50.04000 13.105
50.08000 24.388
50.12000 14.071
50.16000 17.998
50.20000 10.177
50.24000 17.121
50.28000 13.133
50.32000 17.204
50.36000 19.237
50.40000 18.195
50.44000 22.342
50.48000 18.352
50.52000 16.051
50.56000 15.204
50.60000 21.142
50.64000 6.054
50.68000 17.105
50.72000 23.373
50.76000 17.242
50.80000 16.189
50.84000 16.273
50.88000 15.147
50.92000 13.068
50.96000 15.189
51.00000 16.068
51.04000 15.074
51.08000 17.312
51.12000 12.205
51.16000 22.345
51.20000 15.312
51.24000 21.234
51.28000 12.995
51.32000 21.213
51.36000 24.276
51.40000 16.287
51.44000 14.078
51.48000 28.410
51.52000 19.252
51.56000 13.267
51.60000 21.346
51.64000 11.134
51.68000 16.191
51.72000 14.086
51.76000 17.254
51.80000 14.074
51.84000 28.383
51.88000 14.009
51.92000 14.277
51.96000 19.132
52.00000 13.205
52.04000 15.241
52.08000 20.338
52.12000 19.213
52.16000 12.178
52.20000 21.483
52.24000 10.158
52.28000 17.169
52.32000 10.172
52.36000 15.103
52.40000 13.046
52.44000 16.129
52.48000 16.180
52.52000 16.257
52.56000 11.343
52.60000 10.150
52.64000 12.173
52.68000 13.060
52.72000 11.177
52.76000 25.328
52.80000 18.163
52.84000 13.106
52.88000 12.121
52.92000 14.289
52.96000 27.419
53.00000 15.357
53.04000 11.167
53.08000 12.165
53.12000 9.120
53.16000 19.056
53.20000 11.111
53.24000 17.202
53.28000 13.134
53.32000 19.290
53.36000 22.113
53.40000 11.200
53.44000 15.370
53.48000 13.350
53.52000 20.323
53.56000 17.279
53.60000 12.155
53.64000 9.131
53.68000 20.398
53.72000 15.135
53.76000 11.049
53.80000 12.194
53.84000 14.129
53.88000 18.064
53.92000 12.253
53.96000 12.243
54.00000 12.067
54.04000 11.978
54.08000 18.513
54.12000 16.091
54.16000 16.233
54.20000 13.233
54.24000 13.148
54.28000 17.118
54.32000 13.257
54.36000 14.085
54.40000 14.259
54.44000 15.267
54.48000 17.235
54.52000 10.249
54.56000 11.016
54.60000 13.223
54.64000 6.052
54.68000 17.240
54.72000 11.181
54.76000 15.288
54.80000 21.264
54.84000 18.421
54.88000 11.190
54.92000 18.320
54.96000 10.154
55.00000 7.097
55.04000 14.213
55.08000 20.150
55.12000 9.109
55.16000 16.118
55.20000 16.080
55.24000 22.448
55.28000 12.077
55.32000 15.128
55.36000 16.236
55.40000 17.335
55.44000 12.102
55.48000 17.360
55.52000 21.570
55.56000 8.079
55.60000 7.106
55.64000 8.131
55.68000 5.115
55.72000 8.029
55.76000 11.035
55.80000 8.130
55.84000 14.131
55.88000 9.178
55.92000 13.173
55.96000 8.142
56.00000 15.216
56.04000 15.029
56.08000 16.313
56.12000 13.091
56.16000 8.960
56.20000 7.013
56.24000 18.214
56.28000 12.125
56.32000 26.284
56.36000 14.080
56.40000 10.286
56.44000 14.217
56.48000 19.148
56.52000 8.043
56.56000 11.252
56.60000 6.138
56.64000 14.126
56.68000 12.232
56.72000 17.197
56.76000 12.155
56.80000 10.143
56.84000 9.004
56.88000 12.148
56.92000 12.168
56.96000 17.218
57.00000 8.135
57.04000 11.119
57.08000 14.121
57.12000 6.174
57.16000 10.227
57.20000 15.051
57.24000 14.095
57.28000 14.320
57.32000 16.099
57.36000 10.119
57.40000 17.120
57.44000 18.214
57.48000 5.943
57.52000 15.208
57.56000 10.070
57.60000 15.222
57.64000 12.174
57.68000 19.175
57.72000 5.116
57.76000 14.159
57.80000 14.959
57.84000 11.117
57.88000 11.149
57.92000 16.143
57.96000 5.063
58.00000 13.212
58.04000 15.096
58.08000 11.101
58.12000 11.010
58.16000 10.934
58.20000 17.235
58.24000 16.027
58.28000 9.045
58.32000 17.177
58.36000 7.064
58.40000 10.195
58.44000 11.225
58.48000 17.130
58.52000 15.201
58.56000 11.964
58.60000 11.114
58.64000 11.165
58.68000 13.185
58.72000 9.056
58.76000 13.044
58.80000 13.364
58.84000 12.234
58.88000 13.046
58.92000 13.106
58.96000 11.194
59.00000 10.171
59.04000 13.057
59.08000 9.075
59.12000 14.946
59.16000 11.148
59.20000 8.100
59.24000 9.328
59.28000 8.098
59.32000 3.027
59.36000 11.131
59.40000 10.235
59.44000 4.065
59.48000 6.206
59.52000 10.137
59.56000 7.022
59.60000 13.250
59.64000 12.074
59.68000 11.196
59.72000 13.258
59.76000 13.201
59.80000 9.078
59.84000 13.076
59.88000 12.154
59.92000 14.270
59.96000 11.069
60.00000 17.239
60.04000 9.970
60.08000 9.145
60.12000 9.184
60.16000 13.122
60.20000 7.111
60.24000 10.256
60.28000 7.122
60.32000 11.254
60.36000 9.071
60.40000 7.043
60.44000 7.195
60.48000 14.112
60.52000 7.248
60.56000 10.310
60.60000 10.030
60.64000 8.075
60.68000 10.129
60.72000 9.180
60.76000 18.417
60.80000 6.012
60.84000 8.068
60.88000 9.153
60.92000 11.122
60.96000 13.065
61.00000 11.168
61.04000 8.161
61.08000 6.949
61.12000 7.152
61.16000 8.193
61.20000 11.220
61.24000 6.146
61.28000 15.027
61.32000 6.982
61.36000 5.038
61.40000 8.118
61.44000 14.175
61.48000 5.051
61.52000 6.093
61.56000 11.275
61.60000 17.191
61.64000 10.185
61.68000 12.153
61.72000 7.064
61.76000 11.150
61.80000 8.074
61.84000 10.153
61.88000 9.009
61.92000 7.005
61.96000 6.042
62.00000 11.159
62.04000 9.003
62.08000 4.053
62.12000 6.059
62.16000 6.094
62.20000 12.111
62.24000 6.100
62.28000 6.160
62.32000 4.080
62.36000 5.964
62.40000 12.154
62.44000 13.069
62.48000 3.994
62.52000 6.147
62.56000 10.199
62.60000 10.040
62.64000 3.073
62.68000 5.993
62.72000 11.065
62.76000 8.110
62.80000 5.060
62.84000 10.095
62.88000 8.017
62.92000 12.014
62.96000 7.010
63.00000 10.108
63.04000 9.064
63.08000 15.410
63.12000 8.914
63.16000 9.119
63.20000 9.109
63.24000 9.227
63.28000 11.144
63.32000 5.043
63.36000 11.044
63.40000 11.059
63.44000 11.147
63.48000 9.297
63.52000 7.070
63.56000 8.112
63.60000 8.120
63.64000 8.082
63.68000 4.115
63.72000 8.177
63.76000 4.034
63.80000 5.105
63.84000 5.031
63.88000 7.077
63.92000 3.966
63.96000 8.186
64.00000 9.133
64.04000 8.103
64.08000 10.108
64.12000 6.166
64.16000 13.082
64.20000 8.182
64.24000 9.202
64.28000 10.257
64.32000 12.166
64.36000 10.046
64.40000 8.347
64.44000 10.024
64.48000 5.113
64.52000 14.287
64.56000 12.159
64.60000 8.053
64.64000 2.000
64.68000 7.985
64.72000 9.002
64.76000 4.083
64.80000 6.112
64.84000 7.068
64.88000 12.315
64.92000 8.039
64.96000 5.127
65.00000 3.988