File: XRD/11-09-2025/XY Data/01092025_BTO_omega_1_001_22_-7-794_-9-773.xy
20.00000 16.170
20.04000 12.066
20.08000 20.270
20.12000 16.166
20.16000 16.222
20.20000 24.613
20.24000 23.280
20.28000 18.108
20.32000 19.304
20.36000 17.169
20.40000 13.226
20.44000 9.285
20.48000 14.086
20.52000 17.491
20.56000 20.224
20.60000 16.105
20.64000 13.263
20.68000 12.106
20.72000 15.233
20.76000 9.274
20.80000 13.174
20.84000 22.239
20.88000 14.089
20.92000 18.087
20.96000 13.113
21.00000 15.388
21.04000 16.383
21.08000 13.323
21.12000 19.388
21.16000 16.099
21.20000 26.437
21.24000 15.233
21.28000 4.045
21.32000 16.106
21.36000 15.276
21.40000 16.180
21.44000 17.230
21.48000 16.125
21.52000 10.187
21.56000 13.266
21.60000 18.332
21.64000 5.090
21.68000 20.311
21.72000 22.257
21.76000 17.457
21.80000 20.250
21.84000 9.043
21.88000 13.063
21.92000 13.262
21.96000 9.169
22.00000 22.440
22.04000 15.083
22.08000 22.345
22.12000 15.117
22.16000 13.249
22.20000 13.168
22.24000 18.250
22.28000 15.164
22.32000 10.128
22.36000 20.384
22.40000 11.054
22.44000 21.136
22.48000 9.095
22.52000 20.326
22.56000 23.224
22.60000 14.216
22.64000 18.239
22.68000 13.211
22.72000 14.282
22.76000 18.281
22.80000 10.004
22.84000 15.197
22.88000 10.052
22.92000 9.132
22.96000 14.169
23.00000 19.419
23.04000 12.138
23.08000 13.203
23.12000 13.375
23.16000 17.402
23.20000 12.050
23.24000 13.089
23.28000 16.225
23.32000 10.142
23.36000 14.186
23.40000 16.165
23.44000 10.180
23.48000 11.094
23.52000 10.142
23.56000 13.004
23.60000 9.181
23.64000 13.283
23.68000 12.244
23.72000 17.318
23.76000 16.255
23.80000 15.182
23.84000 10.156
23.88000 8.092
23.92000 19.218
23.96000 15.036
24.00000 14.070
24.04000 7.063
24.08000 12.193
24.12000 11.072
24.16000 4.983
24.20000 14.285
24.24000 10.182
24.28000 14.102
24.32000 14.127
24.36000 19.133
24.40000 9.082
24.44000 12.147
24.48000 11.060
24.52000 17.272
24.56000 14.982
24.60000 9.189
24.64000 13.232
24.68000 15.170
24.72000 16.327
24.76000 8.110
24.80000 14.302
24.84000 10.265
24.88000 15.028
24.92000 11.236
24.96000 11.093
25.00000 16.215
25.04000 7.134
25.08000 8.120
25.12000 9.999
25.16000 14.372
25.20000 10.189
25.24000 7.097
25.28000 10.142
25.32000 8.069
25.36000 10.273
25.40000 16.372
25.44000 10.092
25.48000 11.103
25.52000 10.102
25.56000 7.133
25.60000 14.108
25.64000 11.053
25.68000 10.109
25.72000 11.154
25.76000 13.132
25.80000 11.048
25.84000 8.169
25.88000 13.360
25.92000 5.067
25.96000 7.146
26.00000 14.135
26.04000 15.166
26.08000 8.137
26.12000 8.989
26.16000 10.085
26.20000 10.156
26.24000 14.110
26.28000 9.044
26.32000 10.222
26.36000 8.191
26.40000 10.180
26.44000 14.190
26.48000 10.027
26.52000 18.231
26.56000 9.059
26.60000 7.074
26.64000 10.349
26.68000 13.010
26.72000 9.202
26.76000 8.145
26.80000 11.158
26.84000 9.215
26.88000 16.179
26.92000 7.076
26.96000 7.090
27.00000 12.119
27.04000 10.185
27.08000 14.126
27.12000 10.223
27.16000 5.046
27.20000 7.022
27.24000 12.069
27.28000 7.055
27.32000 7.150
27.36000 9.158
27.40000 17.206
27.44000 4.001
27.48000 5.168
27.52000 9.036
27.56000 9.253
27.60000 5.167
27.64000 8.045
27.68000 10.137
27.72000 8.175
27.76000 4.027
27.80000 6.098
27.84000 9.121
27.88000 7.179
27.92000 8.178
27.96000 5.094
28.00000 15.342
28.04000 12.225
28.08000 11.199
28.12000 8.135
28.16000 11.235
28.20000 11.107
28.24000 10.156
28.28000 6.053
28.32000 12.278
28.36000 10.284
28.40000 13.155
28.44000 13.129
28.48000 10.209
28.52000 7.990
28.56000 12.176
28.60000 7.085
28.64000 12.110
28.68000 9.091
28.72000 15.328
28.76000 9.148
28.80000 4.091
28.84000 9.093
28.88000 9.244
28.92000 5.118
28.96000 5.032
29.00000 8.168
29.04000 8.117
29.08000 9.052
29.12000 9.210
29.16000 7.176
29.20000 6.006
29.24000 8.036
29.28000 4.117
29.32000 3.046
29.36000 14.173
29.40000 11.159
29.44000 10.106
29.48000 7.067
29.52000 6.023
29.56000 11.210
29.60000 9.144
29.64000 9.231
29.68000 9.109
29.72000 3.020
29.76000 13.231
29.80000 15.218
29.84000 16.116
29.88000 4.121
29.92000 7.023
29.96000 9.058
30.00000 7.205
30.04000 5.055
30.08000 10.213
30.12000 5.056
30.16000 10.160
30.20000 9.100
30.24000 11.237
30.28000 3.122
30.32000 2.037
30.36000 9.124
30.40000 20.300
30.44000 6.978
30.48000 9.130
30.52000 5.148
30.56000 5.054
30.60000 4.096
30.64000 10.199
30.68000 8.213
30.72000 10.059
30.76000 6.214
30.80000 9.139
30.84000 9.203
30.88000 10.180
30.92000 4.078
30.96000 11.124
31.00000 4.077
31.04000 9.074
31.08000 8.103
31.12000 6.164
31.16000 10.210
31.20000 9.125
31.24000 13.152
31.28000 10.147
31.32000 5.959
31.36000 7.077
31.40000 6.054
31.44000 5.997
31.48000 11.061
31.52000 5.019
31.56000 6.135
31.60000 6.006
31.64000 5.106
31.68000 3.997
31.72000 9.127
31.76000 9.095
31.80000 3.955
31.84000 7.232
31.88000 9.096
31.92000 8.946
31.96000 9.131
32.00000 4.089
32.04000 4.061
32.08000 10.084
32.12000 9.104
32.16000 10.010
32.20000 3.092
32.24000 8.182
32.28000 3.044
32.32000 3.962
32.36000 2.082
32.40000 6.048
32.44000 5.073
32.48000 7.145
32.52000 5.008
32.56000 6.212
32.60000 8.141
32.64000 4.070
32.68000 3.052
32.72000 3.093
32.76000 0.991
32.80000 5.065
32.84000 6.155
32.88000 7.096
32.92000 6.060
32.96000 3.095
33.00000 4.188
33.04000 8.005
33.08000 9.044
33.12000 4.062
33.16000 7.931
33.20000 7.105
33.24000 5.086
33.28000 6.039
33.32000 7.055
33.36000 4.131
33.40000 6.033
33.44000 2.021
33.48000 3.031
33.52000 5.076
33.56000 4.047
33.60000 6.099
33.64000 7.046
33.68000 4.070
33.72000 5.063
33.76000 5.095
33.80000 7.207
33.84000 5.113
33.88000 8.152
33.92000 9.148
33.96000 5.110
34.00000 5.121
34.04000 1.007
34.08000 3.204
34.12000 5.111
34.16000 4.035
34.20000 4.010
34.24000 10.988
34.28000 5.094
34.32000 5.099
34.36000 5.132
34.40000 9.116
34.44000 5.005
34.48000 7.077
34.52000 7.128
34.56000 4.042
34.60000 4.032
34.64000 4.021
34.68000 7.130
34.72000 1.999
34.76000 3.002
34.80000 6.007
34.84000 9.159
34.88000 7.038
34.92000 5.038
34.96000 4.007
35.00000 2.027
35.04000 9.070
35.08000 9.183
35.12000 4.028
35.16000 3.047
35.20000 6.088
35.24000 4.017
35.28000 5.002
35.32000 5.050
35.36000 11.200
35.40000 3.057
35.44000 8.108
35.48000 8.063
35.52000 11.213
35.56000 2.052
35.60000 6.054
35.64000 6.093
35.68000 6.036
35.72000 7.075
35.76000 4.024
35.80000 5.052
35.84000 4.047
35.88000 4.014
35.92000 3.974
35.96000 4.002
36.00000 2.023
36.04000 2.046
36.08000 5.042
36.12000 6.157
36.16000 5.040
36.20000 4.999
36.24000 4.091
36.28000 2.060
36.32000 5.001
36.36000 3.051
36.40000 1.020
36.44000 2.006
36.48000 8.026
36.52000 12.156
36.56000 3.018
36.60000 5.991
36.64000 8.078
36.68000 2.989
36.72000 3.004
36.76000 6.112
36.80000 3.033
36.84000 5.144
36.88000 4.015
36.92000 4.057
36.96000 9.192
37.00000 3.987
37.04000 7.071
37.08000 4.020
37.12000 2.033
37.16000 1.001
37.20000 6.164
37.24000 2.992
37.28000 9.123
37.32000 3.021
37.36000 0.998
37.40000 3.086
37.44000 5.121
37.48000 5.209
37.52000 6.159
37.56000 6.072
37.60000 8.065
37.64000 6.174
37.68000 8.092
37.72000 3.028
37.76000 2.027
37.80000 1.976
37.84000 7.033
37.88000 6.129
37.92000 4.113
37.96000 1.964
38.00000 8.147
38.04000 1.030
38.08000 3.985
38.12000 1.974
38.16000 7.088
38.20000 5.032
38.24000 2.981
38.28000 3.961
38.32000 3.066
38.36000 4.021
38.40000 2.997
38.44000 5.972
38.48000 4.003
38.52000 6.104
38.56000 3.070
38.60000 7.135
38.64000 5.121
38.68000 8.098
38.72000 4.088
38.76000 1.991
38.80000 4.112
38.84000 5.022
38.88000 5.998
38.92000 4.027
38.96000 2.000
39.00000 3.001
39.04000 3.977
39.08000 2.012
39.12000 2.025
39.16000 7.265
39.20000 5.092
39.24000 3.983
39.28000 4.065
39.32000 3.088
39.36000 3.059
39.40000 3.091
39.44000 1.993
39.48000 5.136
39.52000 4.061
39.56000 2.008
39.60000 4.966
39.64000 4.025
39.68000 8.134
39.72000 4.120
39.76000 3.110
39.80000 4.067
39.84000 2.986
39.88000 3.021
39.92000 4.100
39.96000 4.021
40.00000 3.020
40.04000 4.068
40.08000 5.039
40.12000 3.109
40.16000 3.075
40.20000 3.139
40.24000 2.008
40.28000 4.035
40.32000 2.002
40.36000 2.055
40.40000 5.140
40.44000 5.064
40.48000 6.092
40.52000 2.037
40.56000 4.118
40.60000 9.134
40.64000 0.000
40.68000 2.011
40.72000 3.054
40.76000 3.009
40.80000 7.061
40.84000 3.050
40.88000 4.022
40.92000 3.054
40.96000 3.086
41.00000 3.023
41.04000 5.995
41.08000 8.164
41.12000 7.110
41.16000 0.000
41.20000 3.961
41.24000 1.999
41.28000 2.017
41.32000 3.097
41.36000 3.945
41.40000 3.946
41.44000 1.982
41.48000 2.045
41.52000 1.998
41.56000 2.036
41.60000 5.106
41.64000 3.072
41.68000 2.008
41.72000 2.098
41.76000 4.029
41.80000 7.041
41.84000 0.980
41.88000 6.023
41.92000 2.050
41.96000 1.985
42.00000 2.028
42.04000 4.037
42.08000 4.994
42.12000 4.095
42.16000 0.000
42.20000 1.003
42.24000 2.057
42.28000 0.980
42.32000 3.065
42.36000 2.026
42.40000 2.988
42.44000 6.060
42.48000 4.034
42.52000 6.082
42.56000 9.985
42.60000 1.071
42.64000 4.028
42.68000 2.079
42.72000 1.000
42.76000 4.031
42.80000 2.033
42.84000 3.084
42.88000 0.000
42.92000 3.002
42.96000 4.019
43.00000 0.996
43.04000 3.100
43.08000 0.000
43.12000 5.059
43.16000 0.000
43.20000 1.980
43.24000 2.033
43.28000 1.011
43.32000 2.013
43.36000 5.070
43.40000 3.035
43.44000 1.980
43.48000 1.992
43.52000 3.038
43.56000 1.976
43.60000 5.124
43.64000 4.110
43.68000 0.000
43.72000 2.039
43.76000 4.049
43.80000 3.016
43.84000 6.108
43.88000 3.121
43.92000 2.040
43.96000 0.000
44.00000 1.003
44.04000 3.079
44.08000 4.049
44.12000 3.035
44.16000 2.031
44.20000 0.997
44.24000 0.966
44.28000 0.984
44.32000 4.942
44.36000 3.083
44.40000 2.956
44.44000 5.038
44.48000 6.089
44.52000 1.994
44.56000 2.065
44.60000 3.005
44.64000 4.128
44.68000 3.008
44.72000 4.016
44.76000 3.020
44.80000 1.092
44.84000 4.090
44.88000 6.016
44.92000 0.000
44.96000 3.994
45.00000 1.075
45.04000 0.000
45.08000 4.047
45.12000 4.030
45.16000 6.080
45.20000 3.036
45.24000 1.982
45.28000 2.996
45.32000 3.125
45.36000 4.044
45.40000 0.000
45.44000 2.991
45.48000 4.165
45.52000 2.978
45.56000 4.076
45.60000 2.025
45.64000 1.989
45.68000 3.024
45.72000 3.127
45.76000 1.999
45.80000 2.025
45.84000 2.072
45.88000 0.982
45.92000 2.020
45.96000 4.075
46.00000 4.082
46.04000 0.000
46.08000 8.084
46.12000 4.001
46.16000 2.008
46.20000 5.087
46.24000 2.053
46.28000 5.072
46.32000 4.060
46.36000 4.082
46.40000 0.000
46.44000 4.057
46.48000 1.023
46.52000 5.032
46.56000 1.054
46.60000 1.014
46.64000 1.005
46.68000 2.057
46.72000 2.073
46.76000 3.009
46.80000 2.005
46.84000 3.002
46.88000 3.058
46.92000 4.065
46.96000 0.996
47.00000 4.055
47.04000 0.000
47.08000 4.151
47.12000 4.015
47.16000 2.050
47.20000 2.052
47.24000 2.008
47.28000 0.000
47.32000 3.076
47.36000 2.056
47.40000 1.024
47.44000 2.984
47.48000 2.038
47.52000 2.002
47.56000 2.009
47.60000 2.996
47.64000 7.048
47.68000 2.078
47.72000 2.035
47.76000 3.072
47.80000 2.977
47.84000 3.018
47.88000 3.044
47.92000 0.000
47.96000 0.000
48.00000 1.987
48.04000 0.997
48.08000 4.041
48.12000 1.957
48.16000 2.001
48.20000 0.000
48.24000 1.988
48.28000 7.137
48.32000 0.000
48.36000 3.037
48.40000 5.207
48.44000 1.019
48.48000 2.028
48.52000 1.021
48.56000 2.986
48.60000 4.106
48.64000 2.035
48.68000 0.997
48.72000 0.999
48.76000 0.000
48.80000 0.996
48.84000 3.019
48.88000 1.015
48.92000 1.014
48.96000 4.081
49.00000 1.031
49.04000 1.014
49.08000 3.032
49.12000 3.111
49.16000 2.039
49.20000 0.000
49.24000 2.014
49.28000 5.002
49.32000 0.000
49.36000 2.027
49.40000 5.942
49.44000 3.048
49.48000 4.110
49.52000 3.989
49.56000 3.039
49.60000 0.980
49.64000 2.038
49.68000 3.085
49.72000 0.000
49.76000 0.000
49.80000 1.039
49.84000 5.102
49.88000 2.067
49.92000 2.085
49.96000 4.019
50.00000 1.000
50.04000 3.016
50.08000 3.065
50.12000 0.977
50.16000 0.000
50.20000 2.043
50.24000 4.092
50.28000 5.083
50.32000 3.041
50.36000 0.973
50.40000 4.096
50.44000 1.004
50.48000 2.011
50.52000 2.999
50.56000 3.075
50.60000 2.049
50.64000 1.022
50.68000 1.012
50.72000 3.038
50.76000 1.046
50.80000 2.947
50.84000 3.045
50.88000 2.026
50.92000 2.045
50.96000 4.110
51.00000 3.061
51.04000 3.085
51.08000 3.049
51.12000 1.002
51.16000 1.009
51.20000 1.990
51.24000 1.000
51.28000 0.000
51.32000 5.150
51.36000 0.000
51.40000 1.042
51.44000 2.966
51.48000 2.075
51.52000 0.996
51.56000 1.028
51.60000 0.995
51.64000 2.004
51.68000 2.012
51.72000 3.140
51.76000 0.000
51.80000 1.987
51.84000 0.000
51.88000 1.999
51.92000 0.000
51.96000 0.992
52.00000 0.999
52.04000 4.064
52.08000 1.038
52.12000 0.991
52.16000 2.055
52.20000 1.950
52.24000 4.020
52.28000 3.001
52.32000 1.992
52.36000 1.001
52.40000 0.000
52.44000 1.009
52.48000 2.012
52.52000 7.026
52.56000 1.003
52.60000 0.000
52.64000 1.012
52.68000 1.032
52.72000 3.061
52.76000 1.014
52.80000 3.068
52.84000 3.049
52.88000 0.000
52.92000 0.976
52.96000 3.119
53.00000 0.000
53.04000 0.000
53.08000 3.054
53.12000 2.003
53.16000 2.094
53.20000 2.022
53.24000 1.974
53.28000 2.019
53.32000 1.982
53.36000 0.000
53.40000 3.068
53.44000 0.000
53.48000 2.048
53.52000 2.086
53.56000 2.073
53.60000 0.000
53.64000 1.010
53.68000 3.094
53.72000 2.025
53.76000 0.000
53.80000 2.040
53.84000 2.037
53.88000 0.000
53.92000 1.011
53.96000 3.027
54.00000 0.000
54.04000 0.000
54.08000 0.992
54.12000 0.000
54.16000 0.000
54.20000 0.000
54.24000 2.025
54.28000 0.993
54.32000 1.013
54.36000 0.000
54.40000 3.011
54.44000 0.000
54.48000 1.987
54.52000 3.001
54.56000 2.084
54.60000 1.009
54.64000 1.041
54.68000 3.094
54.72000 0.974
54.76000 1.100
54.80000 1.027
54.84000 2.080
54.88000 2.005
54.92000 1.995
54.96000 0.982
55.00000 0.000
55.04000 0.000
55.08000 7.012
55.12000 0.000
55.16000 2.006
55.20000 1.013
55.24000 2.972
55.28000 0.992
55.32000 0.000
55.36000 3.035
55.40000 3.058
55.44000 1.991
55.48000 0.000
55.52000 2.025
55.56000 1.055
55.60000 1.006
55.64000 5.118
55.68000 0.000
55.72000 2.029
55.76000 5.101
55.80000 1.026
55.84000 0.000
55.88000 1.030
55.92000 0.973
55.96000 3.024
56.00000 2.024
56.04000 1.992
56.08000 0.000
56.12000 2.063
56.16000 1.975
56.20000 2.000
56.24000 3.026
56.28000 4.028
56.32000 0.997
56.36000 1.989
56.40000 1.012
56.44000 1.008
56.48000 2.052
56.52000 1.047
56.56000 2.044
56.60000 3.103
56.64000 2.005
56.68000 2.145
56.72000 2.001
56.76000 1.028
56.80000 1.023
56.84000 2.010
56.88000 0.999
56.92000 3.014
56.96000 1.011
57.00000 3.039
57.04000 2.057
57.08000 1.997
57.12000 0.000
57.16000 3.967
57.20000 0.000
57.24000 0.000
57.28000 1.014
57.32000 0.967
57.36000 0.000
57.40000 1.011
57.44000 1.029
57.48000 4.036
57.52000 1.081
57.56000 1.000
57.60000 0.000
57.64000 2.094
57.68000 4.016
57.72000 0.997
57.76000 0.000
57.80000 2.066
57.84000 1.028
57.88000 4.063
57.92000 3.042
57.96000 2.007
58.00000 1.032
58.04000 0.000
58.08000 0.986
58.12000 3.026
58.16000 2.006
58.20000 1.023
58.24000 2.980
58.28000 0.000
58.32000 1.007
58.36000 1.087
58.40000 1.041
58.44000 2.032
58.48000 2.009
58.52000 3.092
58.56000 1.002
58.60000 0.000
58.64000 0.983
58.68000 2.009
58.72000 1.992
58.76000 5.112
58.80000 0.000
58.84000 2.103
58.88000 1.991
58.92000 0.000
58.96000 2.073
59.00000 1.014
59.04000 3.074
59.08000 1.021
59.12000 1.028
59.16000 2.070
59.20000 2.038
59.24000 0.979
59.28000 0.000
59.32000 2.015
59.36000 0.989
59.40000 0.000
59.44000 1.027
59.48000 2.023
59.52000 3.007
59.56000 2.040
59.60000 1.006
59.64000 3.998
59.68000 1.953
59.72000 0.000
59.76000 1.981
59.80000 0.000
59.84000 2.086
59.88000 0.000
59.92000 2.017
59.96000 2.044
60.00000 0.000
60.04000 0.000
60.08000 2.003
60.12000 0.982
60.16000 1.011
60.20000 0.998
60.24000 3.086
60.28000 2.015
60.32000 0.000
60.36000 2.010
60.40000 2.005
60.44000 0.000
60.48000 1.979
60.52000 0.000
60.56000 1.007
60.60000 2.086
60.64000 2.026
60.68000 1.001
60.72000 3.018
60.76000 2.039
60.80000 0.000
60.84000 0.000
60.88000 3.087
60.92000 1.978
60.96000 0.998
61.00000 3.062
61.04000 3.087
61.08000 1.990
61.12000 2.003
61.16000 2.012
61.20000 1.006
61.24000 3.023
61.28000 0.000
61.32000 2.086
61.36000 1.005
61.40000 0.000
61.44000 3.011
61.48000 0.000
61.52000 0.986
61.56000 1.003
61.60000 0.000
61.64000 1.026
61.68000 0.991
61.72000 0.000
61.76000 3.055
61.80000 1.045
61.84000 2.002
61.88000 1.028
61.92000 1.994
61.96000 0.998
62.00000 3.985
62.04000 0.986
62.08000 2.105
62.12000 1.067
62.16000 1.060
62.20000 1.013
62.24000 0.000
62.28000 4.024
62.32000 3.100
62.36000 2.081
62.40000 3.095
62.44000 2.007
62.48000 2.060
62.52000 1.008
62.56000 0.000
62.60000 1.019
62.64000 3.023
62.68000 1.018
62.72000 1.040
62.76000 0.000
62.80000 1.972
62.84000 0.996
62.88000 2.005
62.92000 0.000
62.96000 1.009
63.00000 2.036
63.04000 1.032
63.08000 0.996
63.12000 0.000
63.16000 2.004
63.20000 0.000
63.24000 3.056
63.28000 3.073
63.32000 1.031
63.36000 0.989
63.40000 0.981
63.44000 2.056
63.48000 1.009
63.52000 3.992
63.56000 1.992
63.60000 3.032
63.64000 3.009
63.68000 0.980
63.72000 1.019
63.76000 0.000
63.80000 2.057
63.84000 1.027
63.88000 1.030
63.92000 0.000
63.96000 0.000
64.00000 0.000
64.04000 0.981
64.08000 1.982
64.12000 1.047
64.16000 2.024
64.20000 0.000
64.24000 0.000
64.28000 3.027
64.32000 2.037
64.36000 0.000
64.40000 0.000
64.44000 1.033
64.48000 2.036
64.52000 0.000
64.56000 0.000
64.60000 3.065
64.64000 1.998
64.68000 1.019
64.72000 0.000
64.76000 1.015
64.80000 2.044
64.84000 3.055
64.88000 0.000
64.92000 0.000
64.96000 0.987
65.00000 0.000