File: XRD/11-09-2025/XY Data/01092025_BTO_omega_0_5_001_15_-15-587_19-546.xy
20.00000 21.192
20.04000 14.227
20.08000 27.544
20.12000 17.011
20.16000 27.073
20.20000 15.068
20.24000 21.266
20.28000 20.170
20.32000 15.350
20.36000 24.399
20.40000 18.180
20.44000 24.099
20.48000 25.374
20.52000 23.386
20.56000 15.116
20.60000 17.088
20.64000 10.159
20.68000 17.161
20.72000 19.140
20.76000 19.054
20.80000 27.461
20.84000 23.418
20.88000 21.244
20.92000 20.167
20.96000 23.195
21.00000 17.163
21.04000 17.287
21.08000 17.116
21.12000 18.188
21.16000 15.091
21.20000 24.351
21.24000 20.225
21.28000 19.104
21.32000 13.216
21.36000 16.148
21.40000 31.773
21.44000 22.323
21.48000 25.115
21.52000 28.283
21.56000 19.150
21.60000 31.894
21.64000 23.125
21.68000 16.246
21.72000 21.277
21.76000 18.153
21.80000 24.215
21.84000 36.540
21.88000 29.285
21.92000 25.299
21.96000 26.113
22.00000 18.249
22.04000 23.298
22.08000 19.366
22.12000 23.312
22.16000 31.296
22.20000 24.315
22.24000 19.237
22.28000 17.194
22.32000 23.317
22.36000 27.178
22.40000 24.344
22.44000 16.244
22.48000 28.202
22.52000 25.438
22.56000 29.412
22.60000 27.486
22.64000 30.187
22.68000 22.355
22.72000 32.278
22.76000 25.373
22.80000 27.442
22.84000 25.380
22.88000 33.700
22.92000 37.593
22.96000 23.103
23.00000 29.510
23.04000 14.176
23.08000 28.193
23.12000 31.398
23.16000 29.054
23.20000 33.451
23.24000 32.418
23.28000 22.075
23.32000 35.453
23.36000 22.271
23.40000 32.518
23.44000 37.419
23.48000 30.510
23.52000 35.301
23.56000 31.407
23.60000 29.366
23.64000 27.541
23.68000 27.377
23.72000 20.486
23.76000 33.401
23.80000 30.164
23.84000 33.437
23.88000 37.866
23.92000 25.277
23.96000 27.178
24.00000 31.580
24.04000 35.588
24.08000 34.184
24.12000 25.308
24.16000 26.427
24.20000 42.564
24.24000 29.548
24.28000 34.600
24.32000 27.381
24.36000 32.410
24.40000 44.437
24.44000 29.342
24.48000 30.337
24.52000 38.450
24.56000 40.474
24.60000 32.334
24.64000 37.608
24.68000 32.279
24.72000 29.197
24.76000 33.487
24.80000 41.574
24.84000 38.320
24.88000 32.605
24.92000 39.611
24.96000 45.713
25.00000 39.661
25.04000 35.586
25.08000 43.536
25.12000 45.515
25.16000 41.566
25.20000 34.314
25.24000 45.587
25.28000 42.552
25.32000 41.546
25.36000 42.391
25.40000 42.610
25.44000 33.490
25.48000 40.563
25.52000 48.872
25.56000 50.559
25.60000 39.493
25.64000 37.507
25.68000 47.789
25.72000 45.688
25.76000 45.421
25.80000 52.905
25.84000 39.623
25.88000 54.948
25.92000 46.480
25.96000 60.503
26.00000 40.416
26.04000 42.618
26.08000 46.819
26.12000 50.758
26.16000 45.464
26.20000 43.528
26.24000 42.731
26.28000 53.462
26.32000 46.704
26.36000 57.957
26.40000 57.754
26.44000 66.049
26.48000 47.703
26.52000 42.620
26.56000 54.691
26.60000 43.578
26.64000 57.154
26.68000 47.541
26.72000 49.645
26.76000 51.749
26.80000 40.458
26.84000 57.661
26.88000 56.729
26.92000 63.596
26.96000 49.489
27.00000 60.762
27.04000 49.866
27.08000 55.652
27.12000 50.497
27.16000 44.646
27.20000 57.680
27.24000 66.615
27.28000 50.531
27.32000 61.778
27.36000 62.933
27.40000 39.474
27.44000 71.989
27.48000 65.028
27.52000 63.543
27.56000 65.669
27.60000 55.775
27.64000 51.617
27.68000 55.779
27.72000 67.812
27.76000 75.057
27.80000 61.773
27.84000 63.959
27.88000 63.805
27.92000 51.344
27.96000 47.793
28.00000 64.299
28.04000 50.680
28.08000 53.352
28.12000 58.864
28.16000 48.650
28.20000 41.783
28.24000 44.805
28.28000 42.497
28.32000 46.727
28.36000 50.656
28.40000 55.924
28.44000 61.531
28.48000 48.734
28.52000 62.753
28.56000 63.044
28.60000 52.733
28.64000 44.561
28.68000 76.927
28.72000 53.513
28.76000 43.620
28.80000 58.720
28.84000 47.556
28.88000 58.725
28.92000 50.529
28.96000 55.991
29.00000 39.997
29.04000 56.651
29.08000 48.544
29.12000 42.572
29.16000 51.741
29.20000 42.424
29.24000 54.774
29.28000 53.597
29.32000 50.437
29.36000 31.485
29.40000 49.009
29.44000 43.302
29.48000 42.463
29.52000 47.756
29.56000 35.440
29.60000 49.574
29.64000 32.429
29.68000 40.660
29.72000 51.605
29.76000 46.295
29.80000 36.556
29.84000 41.713
29.88000 38.486
29.92000 40.406
29.96000 33.567
30.00000 37.371
30.04000 50.800
30.08000 44.475
30.12000 37.447
30.16000 43.571
30.20000 38.446
30.24000 53.971
30.28000 42.557
30.32000 42.448
30.36000 34.466
30.40000 41.502
30.44000 51.511
30.48000 41.480
30.52000 34.621
30.56000 44.644
30.60000 32.488
30.64000 29.340
30.68000 39.465
30.72000 45.684
30.76000 29.452
30.80000 31.490
30.84000 25.489
30.88000 34.621
30.92000 36.355
30.96000 31.461
31.00000 31.401
31.04000 37.365
31.08000 37.243
31.12000 36.507
31.16000 26.428
31.20000 28.377
31.24000 31.448
31.28000 29.472
31.32000 31.122
31.36000 27.431
31.40000 34.325
31.44000 25.416
31.48000 31.504
31.52000 29.629
31.56000 27.357
31.60000 28.349
31.64000 27.503
31.68000 28.309
31.72000 31.467
31.76000 36.351
31.80000 39.441
31.84000 21.498
31.88000 22.311
31.92000 34.229
31.96000 33.467
32.00000 29.564
32.04000 28.610
32.08000 39.429
32.12000 37.587
32.16000 22.213
32.20000 29.308
32.24000 35.542
32.28000 22.129
32.32000 22.257
32.36000 19.403
32.40000 32.291
32.44000 32.537
32.48000 35.539
32.52000 37.802
32.56000 28.368
32.60000 30.289
32.64000 24.115
32.68000 34.338
32.72000 38.666
32.76000 21.193
32.80000 18.224
32.84000 32.581
32.88000 23.280
32.92000 29.458
32.96000 24.953
33.00000 25.294
33.04000 29.263
33.08000 18.369
33.12000 17.227
33.16000 28.311
33.20000 18.155
33.24000 20.399
33.28000 21.359
33.32000 14.281
33.36000 20.271
33.40000 19.348
33.44000 20.239
33.48000 19.067
33.52000 25.490
33.56000 19.107
33.60000 22.167
33.64000 15.230
33.68000 18.119
33.72000 20.390
33.76000 14.103
33.80000 22.192
33.84000 14.124
33.88000 24.304
33.92000 19.335
33.96000 13.166
34.00000 17.250
34.04000 30.374
34.08000 14.145
34.12000 19.149
34.16000 22.209
34.20000 25.462
34.24000 17.266
34.28000 18.236
34.32000 28.558
34.36000 17.146
34.40000 19.227
34.44000 16.236
34.48000 23.170
34.52000 20.347
34.56000 21.408
34.60000 15.286
34.64000 27.474
34.68000 18.181
34.72000 17.254
34.76000 18.165
34.80000 17.239
34.84000 22.377
34.88000 18.107
34.92000 20.077
34.96000 23.448
35.00000 22.353
35.04000 15.114
35.08000 17.239
35.12000 19.287
35.16000 16.159
35.20000 20.278
35.24000 18.164
35.28000 25.536
35.32000 16.239
35.36000 20.256
35.40000 17.450
35.44000 18.070
35.48000 20.272
35.52000 16.094
35.56000 15.045
35.60000 16.223
35.64000 27.177
35.68000 10.054
35.72000 17.147
35.76000 14.147
35.80000 20.099
35.84000 23.247
35.88000 14.281
35.92000 20.204
35.96000 22.155
36.00000 21.189
36.04000 19.134
36.08000 17.126
36.12000 13.172
36.16000 14.163
36.20000 13.089
36.24000 20.185
36.28000 19.103
36.32000 25.341
36.36000 17.196
36.40000 20.271
36.44000 16.260
36.48000 19.302
36.52000 20.369
36.56000 14.125
36.60000 18.222
36.64000 19.349
36.68000 23.308
36.72000 22.383
36.76000 22.292
36.80000 16.180
36.84000 25.325
36.88000 22.343
36.92000 21.260
36.96000 19.032
37.00000 24.460
37.04000 22.442
37.08000 12.213
37.12000 15.111
37.16000 18.253
37.20000 20.215
37.24000 20.365
37.28000 20.307
37.32000 19.261
37.36000 14.056
37.40000 22.193
37.44000 13.976
37.48000 13.259
37.52000 16.225
37.56000 28.519
37.60000 22.427
37.64000 13.327
37.68000 22.465
37.72000 27.434
37.76000 14.116
37.80000 19.572
37.84000 22.215
37.88000 19.080
37.92000 25.508
37.96000 25.279
38.00000 19.412
38.04000 19.074
38.08000 24.278
38.12000 26.198
38.16000 28.385
38.20000 18.273
38.24000 25.224
38.28000 23.312
38.32000 21.671
38.36000 18.046
38.40000 15.176
38.44000 15.943
38.48000 14.272
38.52000 25.241
38.56000 17.152
38.60000 28.319
38.64000 14.250
38.68000 23.240
38.72000 26.207
38.76000 17.255
38.80000 22.381
38.84000 19.198
38.88000 22.183
38.92000 16.246
38.96000 23.137
39.00000 17.177
39.04000 31.359
39.08000 23.060
39.12000 21.219
39.16000 18.194
39.20000 23.236
39.24000 27.463
39.28000 20.225
39.32000 26.466
39.36000 34.561
39.40000 23.335
39.44000 25.248
39.48000 26.560
39.52000 27.430
39.56000 19.217
39.60000 21.313
39.64000 14.179
39.68000 18.111
39.72000 24.389
39.76000 26.177
39.80000 28.416
39.84000 29.385
39.88000 27.156
39.92000 20.348
39.96000 14.157
40.00000 19.200
40.04000 22.465
40.08000 23.278
40.12000 23.296
40.16000 24.415
40.20000 32.434
40.24000 21.350
40.28000 23.168
40.32000 20.226
40.36000 19.305
40.40000 13.240
40.44000 21.264
40.48000 22.003
40.52000 32.354
40.56000 20.253
40.60000 25.312
40.64000 18.354
40.68000 28.229
40.72000 25.118
40.76000 24.299
40.80000 28.656
40.84000 16.259
40.88000 15.351
40.92000 16.207
40.96000 21.494
41.00000 23.334
41.04000 24.705
41.08000 23.572
41.12000 16.534
41.16000 22.396
41.20000 27.434
41.24000 19.307
41.28000 27.488
41.32000 23.231
41.36000 22.281
41.40000 18.315
41.44000 24.262
41.48000 18.329
41.52000 29.162
41.56000 22.244
41.60000 21.524
41.64000 25.372
41.68000 27.491
41.72000 21.418
41.76000 27.348
41.80000 21.417
41.84000 25.441
41.88000 25.510
41.92000 24.427
41.96000 24.945
42.00000 17.407
42.04000 23.442
42.08000 18.289
42.12000 18.167
42.16000 17.213
42.20000 20.469
42.24000 17.211
42.28000 25.230
42.32000 33.494
42.36000 27.683
42.40000 20.377
42.44000 26.473
42.48000 19.231
42.52000 18.125
42.56000 19.182
42.60000 15.336
42.64000 28.105
42.68000 20.381
42.72000 23.254
42.76000 23.393
42.80000 28.540
42.84000 14.991
42.88000 16.194
42.92000 28.200
42.96000 17.175
43.00000 18.063
43.04000 22.354
43.08000 19.315
43.12000 24.137
43.16000 22.287
43.20000 27.382
43.24000 27.412
43.28000 20.238
43.32000 24.234
43.36000 15.141
43.40000 25.313
43.44000 21.399
43.48000 17.327
43.52000 17.300
43.56000 23.332
43.60000 12.133
43.64000 13.200
43.68000 23.289
43.72000 20.258
43.76000 17.110
43.80000 23.122
43.84000 25.311
43.88000 21.421
43.92000 15.098
43.96000 26.494
44.00000 26.342
44.04000 21.203
44.08000 18.322
44.12000 23.524
44.16000 15.207
44.20000 27.579
44.24000 23.448
44.28000 20.378
44.32000 27.457
44.36000 23.164
44.40000 25.520
44.44000 25.250
44.48000 19.163
44.52000 15.102
44.56000 27.265
44.60000 23.179
44.64000 15.062
44.68000 21.159
44.72000 19.321
44.76000 16.231
44.80000 27.411
44.84000 22.338
44.88000 30.546
44.92000 21.362
44.96000 21.242
45.00000 23.296
45.04000 21.486
45.08000 20.286
45.12000 24.234
45.16000 25.171
45.20000 21.466
45.24000 27.265
45.28000 35.444
45.32000 25.314
45.36000 25.380
45.40000 18.356
45.44000 24.237
45.48000 20.416
45.52000 14.167
45.56000 21.391
45.60000 20.241
45.64000 19.263
45.68000 20.277
45.72000 13.269
45.76000 24.761
45.80000 21.229
45.84000 25.284
45.88000 23.517
45.92000 24.377
45.96000 32.669
46.00000 16.152
46.04000 19.184
46.08000 21.047
46.12000 18.271
46.16000 24.258
46.20000 28.284
46.24000 18.221
46.28000 10.216
46.32000 17.199
46.36000 20.266
46.40000 25.249
46.44000 20.247
46.48000 28.366
46.52000 11.028
46.56000 21.384
46.60000 29.408
46.64000 24.257
46.68000 25.267
46.72000 22.045
46.76000 20.495
46.80000 29.244
46.84000 16.243
46.88000 26.337
46.92000 19.111
46.96000 23.279
47.00000 19.086
47.04000 16.177
47.08000 16.214
47.12000 23.396
47.16000 23.475
47.20000 22.519
47.24000 17.233
47.28000 21.296
47.32000 16.058
47.36000 18.144
47.40000 27.286
47.44000 26.314
47.48000 26.440
47.52000 23.419
47.56000 21.154
47.60000 27.309
47.64000 18.165
47.68000 23.368
47.72000 15.170
47.76000 20.062
47.80000 19.080
47.84000 19.127
47.88000 21.349
47.92000 27.164
47.96000 11.128
48.00000 20.119
48.04000 12.131
48.08000 14.242
48.12000 15.093
48.16000 21.404
48.20000 19.160
48.24000 17.197
48.28000 21.098
48.32000 21.268
48.36000 24.314
48.40000 23.343
48.44000 14.117
48.48000 21.269
48.52000 17.144
48.56000 21.232
48.60000 23.191
48.64000 13.312
48.68000 15.207
48.72000 19.390
48.76000 19.357
48.80000 18.236
48.84000 18.178
48.88000 14.284
48.92000 17.315
48.96000 25.318
49.00000 15.141
49.04000 18.995
49.08000 25.361
49.12000 20.414
49.16000 18.222
49.20000 19.404
49.24000 21.328
49.28000 20.133
49.32000 15.115
49.36000 22.569
49.40000 16.217
49.44000 19.090
49.48000 14.204
49.52000 19.461
49.56000 15.135
49.60000 16.196
49.64000 18.301
49.68000 20.242
49.72000 17.392
49.76000 16.210
49.80000 23.365
49.84000 19.274
49.88000 14.311
49.92000 13.056
49.96000 21.190
50.00000 17.178
50.04000 27.350
50.08000 15.160
50.12000 16.260
50.16000 32.427
50.20000 18.264
50.24000 21.526
50.28000 16.178
50.32000 16.301
50.36000 13.217
50.40000 21.124
50.44000 14.253
50.48000 20.213
50.52000 17.028
50.56000 13.409
50.60000 11.138
50.64000 15.325
50.68000 21.269
50.72000 13.261
50.76000 19.261
50.80000 16.211
50.84000 20.385
50.88000 14.222
50.92000 11.193
50.96000 18.224
51.00000 19.258
51.04000 19.083
51.08000 16.334
51.12000 24.477
51.16000 13.107
51.20000 8.064
51.24000 24.408
51.28000 15.167
51.32000 13.323
51.36000 25.259
51.40000 13.103
51.44000 17.175
51.48000 22.307
51.52000 18.994
51.56000 17.306
51.60000 16.172
51.64000 27.271
51.68000 9.989
51.72000 14.127
51.76000 15.014
51.80000 23.441
51.84000 16.184
51.88000 14.157
51.92000 17.211
51.96000 25.296
52.00000 15.246
52.04000 15.091
52.08000 11.171
52.12000 5.995
52.16000 14.261
52.20000 15.217
52.24000 13.204
52.28000 8.145
52.32000 18.119
52.36000 14.099
52.40000 16.091
52.44000 20.196
52.48000 18.205
52.52000 16.146
52.56000 11.133
52.60000 13.167
52.64000 18.403
52.68000 20.480
52.72000 20.268
52.76000 21.433
52.80000 18.255
52.84000 14.244
52.88000 21.456
52.92000 17.291
52.96000 10.011
53.00000 24.199
53.04000 14.286
53.08000 17.099
53.12000 10.266
53.16000 17.258
53.20000 18.152
53.24000 9.139
53.28000 9.167
53.32000 15.345
53.36000 9.076
53.40000 12.074
53.44000 17.220
53.48000 14.141
53.52000 24.178
53.56000 17.291
53.60000 20.388
53.64000 13.092
53.68000 11.234
53.72000 13.101
53.76000 7.149
53.80000 6.098
53.84000 15.013
53.88000 15.102
53.92000 15.154
53.96000 15.362
54.00000 14.329
54.04000 20.401
54.08000 17.246
54.12000 12.196
54.16000 19.425
54.20000 16.197
54.24000 10.140
54.28000 9.958
54.32000 17.316
54.36000 11.275
54.40000 15.292
54.44000 17.234
54.48000 10.125
54.52000 7.062
54.56000 21.025
54.60000 12.158
54.64000 16.115
54.68000 11.985
54.72000 7.154
54.76000 9.194
54.80000 16.270
54.84000 14.325
54.88000 20.184
54.92000 13.144
54.96000 13.138
55.00000 12.045
55.04000 11.092
55.08000 18.174
55.12000 20.400
55.16000 17.429
55.20000 15.157
55.24000 14.103
55.28000 16.281
55.32000 10.188
55.36000 14.235
55.40000 15.353
55.44000 10.111
55.48000 17.108
55.52000 11.139
55.56000 12.178
55.60000 19.194
55.64000 18.230
55.68000 16.102
55.72000 5.003
55.76000 12.163
55.80000 11.171
55.84000 18.265
55.88000 10.088
55.92000 16.260
55.96000 19.170
56.00000 8.935
56.04000 13.053
56.08000 11.976
56.12000 12.075
56.16000 12.352
56.20000 12.202
56.24000 10.100
56.28000 5.079
56.32000 10.173
56.36000 14.141
56.40000 15.067
56.44000 13.195
56.48000 14.135
56.52000 19.301
56.56000 9.218
56.60000 12.086
56.64000 11.089
56.68000 17.279
56.72000 14.242
56.76000 11.142
56.80000 11.145
56.84000 11.059
56.88000 11.218
56.92000 10.154
56.96000 10.110
57.00000 9.211
57.04000 12.182
57.08000 18.302
57.12000 17.453
57.16000 20.245
57.20000 13.256
57.24000 13.298
57.28000 10.137
57.32000 10.192
57.36000 10.111
57.40000 12.077
57.44000 4.082
57.48000 19.448
57.52000 9.140
57.56000 14.118
57.60000 10.090
57.64000 7.070
57.68000 10.211
57.72000 14.314
57.76000 7.981
57.80000 11.165
57.84000 9.021
57.88000 12.118
57.92000 14.147
57.96000 13.362
58.00000 10.017
58.04000 12.075
58.08000 17.277
58.12000 15.226
58.16000 9.038
58.20000 6.140
58.24000 12.130
58.28000 11.147
58.32000 17.382
58.36000 9.153
58.40000 15.228
58.44000 13.201
58.48000 8.064
58.52000 7.148
58.56000 12.058
58.60000 12.255
58.64000 10.080
58.68000 12.123
58.72000 16.147
58.76000 13.290
58.80000 8.139
58.84000 10.142
58.88000 12.130
58.92000 14.256
58.96000 4.066
59.00000 10.109
59.04000 12.170
59.08000 9.165
59.12000 15.400
59.16000 17.242
59.20000 17.169
59.24000 12.133
59.28000 8.042
59.32000 11.260
59.36000 7.094
59.40000 17.224
59.44000 16.199
59.48000 8.081
59.52000 6.981
59.56000 12.279
59.60000 7.213
59.64000 13.100
59.68000 16.138
59.72000 14.994
59.76000 13.078
59.80000 18.348
59.84000 13.271
59.88000 11.175
59.92000 9.996
59.96000 7.124
60.00000 7.043
60.04000 9.354
60.08000 15.084
60.12000 5.096
60.16000 7.189
60.20000 8.101
60.24000 6.002
60.28000 10.172
60.32000 12.257
60.36000 10.002
60.40000 17.302
60.44000 9.116
60.48000 10.187
60.52000 10.188
60.56000 17.129
60.60000 10.224
60.64000 7.143
60.68000 12.125
60.72000 10.168
60.76000 14.287
60.80000 8.161
60.84000 5.162
60.88000 10.084
60.92000 11.146
60.96000 9.162
61.00000 17.207
61.04000 8.030
61.08000 6.114
61.12000 6.167
61.16000 4.106
61.20000 13.084
61.24000 7.080
61.28000 8.091
61.32000 6.990
61.36000 7.959
61.40000 11.158
61.44000 8.206
61.48000 11.094
61.52000 10.082
61.56000 6.097
61.60000 15.358
61.64000 18.141
61.68000 7.066
61.72000 13.040
61.76000 10.162
61.80000 7.184
61.84000 9.107
61.88000 12.231
61.92000 3.091
61.96000 9.035
62.00000 14.259
62.04000 10.150
62.08000 11.082
62.12000 11.194
62.16000 7.056
62.20000 16.976
62.24000 6.093
62.28000 7.105
62.32000 12.290
62.36000 7.084
62.40000 12.188
62.44000 8.103
62.48000 8.109
62.52000 8.076
62.56000 3.990
62.60000 9.134
62.64000 8.149
62.68000 5.036
62.72000 5.104
62.76000 6.014
62.80000 5.051
62.84000 9.186
62.88000 5.049
62.92000 14.067
62.96000 13.198
63.00000 10.095
63.04000 4.098
63.08000 9.991
63.12000 10.180
63.16000 10.175
63.20000 10.021
63.24000 9.147
63.28000 4.020
63.32000 8.063
63.36000 6.178
63.40000 10.030
63.44000 11.188
63.48000 11.149
63.52000 15.150
63.56000 9.036
63.60000 11.232
63.64000 4.102
63.68000 11.133
63.72000 8.086
63.76000 11.051
63.80000 10.158
63.84000 8.033
63.88000 12.177
63.92000 8.134
63.96000 11.089
64.00000 8.030
64.04000 10.206
64.08000 7.071
64.12000 11.244
64.16000 8.045
64.20000 14.148
64.24000 8.054
64.28000 12.033
64.32000 13.204
64.36000 6.064
64.40000 7.112
64.44000 5.999
64.48000 10.128
64.52000 9.186
64.56000 15.224
64.60000 5.076
64.64000 9.119
64.68000 4.967
64.72000 14.396
64.76000 7.051
64.80000 11.193
64.84000 8.099
64.88000 13.296
64.92000 9.077
64.96000 15.099
65.00000 8.065