File: XRD/11-09-2025/XY Data/01092025_BTO_omega_1_001_43_-33-786_16-271.xy
20.00000 15.261
20.04000 33.378
20.08000 10.036
20.12000 24.276
20.16000 19.308
20.20000 23.305
20.24000 16.482
20.28000 19.115
20.32000 21.198
20.36000 23.248
20.40000 25.357
20.44000 27.333
20.48000 21.220
20.52000 16.214
20.56000 15.123
20.60000 21.098
20.64000 29.186
20.68000 18.162
20.72000 9.083
20.76000 10.080
20.80000 15.142
20.84000 20.162
20.88000 11.070
20.92000 14.217
20.96000 19.191
21.00000 22.349
21.04000 18.357
21.08000 23.228
21.12000 22.389
21.16000 25.343
21.20000 21.344
21.24000 28.295
21.28000 23.281
21.32000 25.272
21.36000 15.203
21.40000 17.106
21.44000 23.289
21.48000 20.417
21.52000 22.156
21.56000 22.210
21.60000 13.287
21.64000 22.592
21.68000 14.182
21.72000 19.093
21.76000 20.341
21.80000 25.169
21.84000 10.130
21.88000 19.028
21.92000 21.228
21.96000 19.172
22.00000 22.232
22.04000 23.174
22.08000 21.251
22.12000 19.210
22.16000 24.187
22.20000 12.358
22.24000 29.356
22.28000 23.352
22.32000 21.235
22.36000 21.291
22.40000 15.193
22.44000 13.251
22.48000 21.278
22.52000 20.363
22.56000 30.458
22.60000 22.189
22.64000 26.034
22.68000 22.389
22.72000 29.363
22.76000 22.114
22.80000 18.222
22.84000 18.992
22.88000 16.100
22.92000 19.413
22.96000 20.291
23.00000 24.265
23.04000 33.542
23.08000 15.324
23.12000 30.258
23.16000 30.458
23.20000 21.260
23.24000 29.390
23.28000 32.492
23.32000 15.210
23.36000 21.330
23.40000 23.447
23.44000 33.489
23.48000 28.385
23.52000 23.342
23.56000 16.260
23.60000 21.271
23.64000 16.336
23.68000 26.349
23.72000 24.339
23.76000 23.449
23.80000 19.273
23.84000 28.472
23.88000 32.580
23.92000 25.427
23.96000 22.605
24.00000 24.194
24.04000 20.179
24.08000 29.263
24.12000 34.355
24.16000 18.400
24.20000 35.491
24.24000 25.146
24.28000 15.145
24.32000 28.270
24.36000 25.125
24.40000 27.159
24.44000 23.132
24.48000 27.331
24.52000 27.447
24.56000 27.060
24.60000 28.419
24.64000 17.145
24.68000 30.472
24.72000 21.565
24.76000 24.268
24.80000 32.244
24.84000 20.360
24.88000 40.707
24.92000 34.425
24.96000 28.315
25.00000 29.366
25.04000 29.553
25.08000 24.205
25.12000 25.283
25.16000 29.238
25.20000 25.501
25.24000 37.362
25.28000 36.413
25.32000 32.727
25.36000 41.339
25.40000 33.747
25.44000 21.209
25.48000 36.362
25.52000 33.581
25.56000 38.478
25.60000 38.232
25.64000 27.524
25.68000 33.257
25.72000 37.707
25.76000 31.208
25.80000 34.696
25.84000 34.637
25.88000 32.243
25.92000 38.672
25.96000 31.338
26.00000 37.395
26.04000 45.442
26.08000 26.494
26.12000 43.748
26.16000 35.346
26.20000 38.630
26.24000 48.441
26.28000 31.296
26.32000 41.284
26.36000 35.328
26.40000 42.500
26.44000 33.298
26.48000 40.602
26.52000 39.565
26.56000 38.288
26.60000 46.328
26.64000 39.300
26.68000 46.737
26.72000 35.652
26.76000 36.507
26.80000 31.287
26.84000 32.134
26.88000 38.322
26.92000 44.528
26.96000 39.446
27.00000 32.278
27.04000 40.632
27.08000 27.232
27.12000 43.433
27.16000 47.382
27.20000 46.666
27.24000 39.377
27.28000 49.839
27.32000 40.699
27.36000 39.451
27.40000 39.297
27.44000 45.326
27.48000 39.482
27.52000 36.375
27.56000 43.639
27.60000 51.603
27.64000 38.360
27.68000 42.488
27.72000 39.518
27.76000 44.629
27.80000 42.525
27.84000 27.352
27.88000 42.619
27.92000 45.440
27.96000 33.431
28.00000 38.314
28.04000 39.498
28.08000 33.347
28.12000 47.477
28.16000 47.549
28.20000 45.507
28.24000 42.697
28.28000 36.409
28.32000 34.218
28.36000 32.594
28.40000 36.522
28.44000 39.593
28.48000 40.437
28.52000 40.955
28.56000 43.804
28.60000 44.457
28.64000 52.925
28.68000 31.429
28.72000 47.605
28.76000 30.612
28.80000 42.252
28.84000 42.623
28.88000 32.259
28.92000 39.644
28.96000 45.661
29.00000 41.382
29.04000 39.560
29.08000 34.373
29.12000 44.728
29.16000 33.483
29.20000 27.324
29.24000 34.471
29.28000 21.385
29.32000 42.322
29.36000 31.629
29.40000 42.401
29.44000 31.618
29.48000 35.443
29.52000 33.462
29.56000 36.496
29.60000 35.437
29.64000 38.492
29.68000 29.549
29.72000 34.732
29.76000 32.263
29.80000 30.419
29.84000 38.626
29.88000 31.465
29.92000 32.428
29.96000 33.353
30.00000 38.766
30.04000 31.708
30.08000 26.234
30.12000 34.497
30.16000 23.320
30.20000 22.267
30.24000 32.414
30.28000 24.190
30.32000 32.330
30.36000 35.828
30.40000 29.503
30.44000 26.546
30.48000 27.284
30.52000 36.382
30.56000 23.190
30.60000 18.206
30.64000 23.357
30.68000 32.510
30.72000 26.448
30.76000 31.526
30.80000 33.368
30.84000 17.366
30.88000 27.375
30.92000 22.138
30.96000 20.261
31.00000 35.049
31.04000 34.397
31.08000 31.543
31.12000 21.229
31.16000 19.238
31.20000 33.447
31.24000 27.175
31.28000 19.266
31.32000 21.462
31.36000 17.276
31.40000 17.175
31.44000 28.181
31.48000 24.272
31.52000 19.319
31.56000 32.419
31.60000 25.170
31.64000 22.337
31.68000 31.171
31.72000 30.387
31.76000 26.235
31.80000 15.192
31.84000 24.206
31.88000 24.270
31.92000 28.422
31.96000 23.195
32.00000 26.634
32.04000 29.571
32.08000 29.611
32.12000 28.366
32.16000 31.384
32.20000 23.388
32.24000 25.164
32.28000 18.217
32.32000 23.377
32.36000 30.322
32.40000 16.319
32.44000 23.220
32.48000 23.258
32.52000 21.232
32.56000 20.254
32.60000 23.256
32.64000 18.225
32.68000 33.425
32.72000 22.397
32.76000 22.255
32.80000 18.191
32.84000 16.277
32.88000 22.115
32.92000 12.233
32.96000 21.231
33.00000 23.368
33.04000 23.393
33.08000 9.128
33.12000 18.185
33.16000 21.256
33.20000 19.184
33.24000 18.363
33.28000 18.158
33.32000 21.385
33.36000 16.105
33.40000 18.476
33.44000 18.293
33.48000 16.242
33.52000 9.137
33.56000 17.258
33.60000 15.188
33.64000 15.223
33.68000 22.254
33.72000 16.110
33.76000 10.165
33.80000 20.345
33.84000 18.408
33.88000 13.203
33.92000 12.180
33.96000 16.120
34.00000 9.124
34.04000 15.345
34.08000 18.192
34.12000 16.155
34.16000 25.200
34.20000 25.419
34.24000 17.224
34.28000 16.024
34.32000 17.314
34.36000 16.207
34.40000 16.105
34.44000 16.191
34.48000 20.286
34.52000 10.111
34.56000 14.348
34.60000 15.276
34.64000 17.156
34.68000 20.126
34.72000 13.077
34.76000 11.094
34.80000 13.174
34.84000 17.408
34.88000 20.257
34.92000 16.329
34.96000 19.117
35.00000 14.092
35.04000 20.245
35.08000 13.131
35.12000 13.210
35.16000 15.313
35.20000 15.032
35.24000 14.127
35.28000 19.299
35.32000 16.259
35.36000 20.055
35.40000 11.069
35.44000 10.122
35.48000 12.151
35.52000 10.025
35.56000 8.105
35.60000 17.153
35.64000 10.119
35.68000 11.307
35.72000 14.196
35.76000 6.024
35.80000 13.258
35.84000 16.239
35.88000 16.175
35.92000 14.250
35.96000 19.411
36.00000 9.065
36.04000 10.162
36.08000 10.044
36.12000 17.241
36.16000 20.174
36.20000 9.113
36.24000 21.234
36.28000 17.987
36.32000 19.236
36.36000 18.225
36.40000 14.002
36.44000 18.055
36.48000 26.377
36.52000 13.225
36.56000 14.175
36.60000 15.127
36.64000 22.309
36.68000 13.088
36.72000 17.199
36.76000 11.275
36.80000 12.241
36.84000 10.070
36.88000 15.249
36.92000 17.131
36.96000 14.264
37.00000 14.116
37.04000 21.358
37.08000 17.293
37.12000 12.109
37.16000 19.367
37.20000 25.056
37.24000 15.184
37.28000 21.240
37.32000 12.068
37.36000 18.281
37.40000 10.992
37.44000 14.200
37.48000 11.026
37.52000 12.255
37.56000 12.285
37.60000 8.118
37.64000 17.147
37.68000 14.978
37.72000 15.148
37.76000 12.193
37.80000 9.128
37.84000 11.991
37.88000 12.097
37.92000 20.238
37.96000 12.044
38.00000 18.199
38.04000 26.044
38.08000 23.258
38.12000 14.009
38.16000 12.050
38.20000 10.088
38.24000 18.215
38.28000 24.238
38.32000 21.069
38.36000 13.157
38.40000 15.174
38.44000 16.293
38.48000 16.207
38.52000 17.024
38.56000 13.973
38.60000 13.088
38.64000 14.275
38.68000 20.446
38.72000 8.081
38.76000 20.423
38.80000 14.286
38.84000 21.242
38.88000 22.198
38.92000 12.151
38.96000 24.365
39.00000 10.134
39.04000 9.185
39.08000 17.184
39.12000 14.106
39.16000 12.203
39.20000 13.194
39.24000 19.177
39.28000 9.144
39.32000 19.423
39.36000 18.285
39.40000 15.195
39.44000 20.273
39.48000 7.131
39.52000 21.336
39.56000 17.229
39.60000 16.259
39.64000 15.171
39.68000 14.072
39.72000 16.261
39.76000 10.212
39.80000 16.296
39.84000 23.284
39.88000 15.193
39.92000 13.060
39.96000 8.173
40.00000 19.172
40.04000 14.090
40.08000 22.400
40.12000 14.300
40.16000 11.175
40.20000 15.237
40.24000 18.561
40.28000 28.197
40.32000 14.178
40.36000 17.159
40.40000 17.296
40.44000 12.148
40.48000 21.227
40.52000 14.175
40.56000 11.098
40.60000 14.249
40.64000 12.107
40.68000 17.260
40.72000 17.354
40.76000 13.215
40.80000 16.149
40.84000 13.157
40.88000 18.224
40.92000 13.244
40.96000 23.364
41.00000 15.276
41.04000 18.193
41.08000 17.258
41.12000 23.536
41.16000 21.266
41.20000 18.252
41.24000 17.079
41.28000 21.209
41.32000 9.201
41.36000 15.208
41.40000 11.215
41.44000 13.225
41.48000 14.167
41.52000 16.165
41.56000 20.372
41.60000 13.115
41.64000 14.044
41.68000 23.346
41.72000 20.228
41.76000 17.076
41.80000 19.218
41.84000 15.031
41.88000 11.115
41.92000 14.143
41.96000 23.443
42.00000 25.286
42.04000 15.358
42.08000 14.156
42.12000 21.272
42.16000 21.454
42.20000 15.193
42.24000 12.152
42.28000 16.180
42.32000 14.312
42.36000 12.096
42.40000 19.352
42.44000 11.148
42.48000 26.413
42.52000 11.196
42.56000 13.160
42.60000 16.261
42.64000 12.173
42.68000 13.203
42.72000 12.209
42.76000 18.310
42.80000 9.056
42.84000 19.409
42.88000 16.117
42.92000 15.075
42.96000 11.188
43.00000 17.074
43.04000 19.210
43.08000 18.346
43.12000 10.170
43.16000 9.265
43.20000 9.327
43.24000 12.026
43.28000 12.069
43.32000 19.192
43.36000 10.116
43.40000 12.992
43.44000 14.168
43.48000 15.385
43.52000 20.267
43.56000 15.011
43.60000 15.311
43.64000 13.123
43.68000 20.222
43.72000 19.177
43.76000 22.422
43.80000 19.356
43.84000 19.220
43.88000 21.105
43.92000 22.276
43.96000 19.248
44.00000 18.310
44.04000 9.122
44.08000 15.233
44.12000 13.079
44.16000 7.041
44.20000 15.148
44.24000 21.177
44.28000 21.204
44.32000 10.220
44.36000 14.201
44.40000 27.539
44.44000 19.138
44.48000 20.283
44.52000 13.164
44.56000 12.087
44.60000 15.228
44.64000 15.242
44.68000 12.251
44.72000 15.224
44.76000 11.136
44.80000 14.220
44.84000 19.030
44.88000 13.078
44.92000 17.155
44.96000 21.296
45.00000 21.493
45.04000 18.390
45.08000 23.194
45.12000 17.112
45.16000 20.249
45.20000 11.168
45.24000 21.190
45.28000 17.282
45.32000 8.089
45.36000 18.136
45.40000 19.134
45.44000 17.209
45.48000 11.081
45.52000 9.130
45.56000 21.112
45.60000 19.286
45.64000 23.494
45.68000 18.267
45.72000 18.431
45.76000 15.152
45.80000 16.192
45.84000 17.032
45.88000 21.118
45.92000 12.190
45.96000 15.302
46.00000 26.209
46.04000 17.117
46.08000 17.145
46.12000 21.225
46.16000 19.137
46.20000 20.166
46.24000 21.424
46.28000 15.290
46.32000 24.365
46.36000 18.260
46.40000 19.241
46.44000 12.135
46.48000 17.284
46.52000 23.353
46.56000 19.276
46.60000 23.445
46.64000 9.107
46.68000 13.247
46.72000 25.337
46.76000 19.222
46.80000 16.067
46.84000 19.416
46.88000 18.232
46.92000 20.383
46.96000 12.100
47.00000 14.134
47.04000 10.118
47.08000 14.272
47.12000 8.139
47.16000 18.375
47.20000 10.233
47.24000 20.362
47.28000 13.222
47.32000 7.095
47.36000 15.188
47.40000 12.125
47.44000 16.241
47.48000 11.142
47.52000 20.353
47.56000 18.227
47.60000 14.042
47.64000 17.265
47.68000 19.175
47.72000 18.377
47.76000 16.150
47.80000 18.193
47.84000 12.065
47.88000 16.199
47.92000 12.139
47.96000 13.269
48.00000 16.085
48.04000 22.367
48.08000 9.151
48.12000 13.985
48.16000 21.398
48.20000 10.247
48.24000 12.180
48.28000 20.084
48.32000 17.091
48.36000 14.203
48.40000 15.021
48.44000 9.076
48.48000 13.029
48.52000 15.203
48.56000 23.247
48.60000 11.961
48.64000 5.112
48.68000 10.178
48.72000 8.197
48.76000 8.198
48.80000 14.158
48.84000 14.103
48.88000 8.254
48.92000 11.193
48.96000 12.118
49.00000 14.264
49.04000 18.404
49.08000 14.301
49.12000 18.136
49.16000 9.124
49.20000 13.189
49.24000 16.085
49.28000 10.052
49.32000 14.122
49.36000 9.055
49.40000 21.285
49.44000 10.138
49.48000 15.287
49.52000 12.128
49.56000 10.059
49.60000 7.058
49.64000 18.316
49.68000 19.298
49.72000 14.109
49.76000 13.320
49.80000 19.049
49.84000 11.072
49.88000 14.023
49.92000 19.364
49.96000 13.085
50.00000 13.036
50.04000 15.207
50.08000 21.438
50.12000 14.152
50.16000 7.069
50.20000 13.331
50.24000 16.097
50.28000 11.288
50.32000 11.131
50.36000 7.998
50.40000 9.121
50.44000 14.183
50.48000 9.216
50.52000 14.083
50.56000 10.080
50.60000 14.322
50.64000 14.147
50.68000 13.211
50.72000 14.275
50.76000 17.167
50.80000 15.292
50.84000 15.112
50.88000 26.078
50.92000 17.315
50.96000 11.091
51.00000 13.292
51.04000 18.061
51.08000 16.190
51.12000 14.169
51.16000 11.197
51.20000 12.137
51.24000 14.402
51.28000 16.307
51.32000 13.170
51.36000 19.201
51.40000 16.200
51.44000 12.140
51.48000 13.314
51.52000 17.082
51.56000 20.202
51.60000 11.202
51.64000 12.147
51.68000 20.056
51.72000 12.245
51.76000 18.338
51.80000 10.096
51.84000 18.367
51.88000 15.202
51.92000 10.071
51.96000 10.239
52.00000 28.290
52.04000 15.088
52.08000 13.229
52.12000 9.082
52.16000 10.132
52.20000 9.196
52.24000 16.179
52.28000 11.202
52.32000 14.226
52.36000 18.276
52.40000 11.279
52.44000 20.061
52.48000 11.085
52.52000 16.128
52.56000 12.269
52.60000 18.341
52.64000 9.098
52.68000 18.156
52.72000 16.193
52.76000 14.101
52.80000 14.375
52.84000 15.177
52.88000 14.258
52.92000 5.065
52.96000 10.152
53.00000 10.219
53.04000 12.143
53.08000 12.143
53.12000 9.223
53.16000 10.042
53.20000 13.128
53.24000 16.083
53.28000 10.193
53.32000 13.150
53.36000 11.182
53.40000 15.058
53.44000 9.142
53.48000 11.095
53.52000 13.314
53.56000 14.082
53.60000 8.228
53.64000 14.370
53.68000 11.062
53.72000 14.214
53.76000 16.320
53.80000 12.138
53.84000 13.100
53.88000 18.189
53.92000 6.029
53.96000 9.027
54.00000 16.198
54.04000 12.148
54.08000 12.085
54.12000 9.080
54.16000 8.033
54.20000 13.158
54.24000 7.102
54.28000 5.008
54.32000 12.322
54.36000 16.125
54.40000 18.282
54.44000 6.066
54.48000 15.120
54.52000 16.090
54.56000 8.178
54.60000 7.105
54.64000 10.095
54.68000 13.282
54.72000 6.137
54.76000 10.120
54.80000 8.164
54.84000 5.042
54.88000 12.118
54.92000 8.109
54.96000 12.231
55.00000 6.071
55.04000 6.064
55.08000 16.305
55.12000 12.100
55.16000 12.103
55.20000 14.157
55.24000 10.140
55.28000 11.035
55.32000 7.201
55.36000 11.190
55.40000 18.151
55.44000 11.218
55.48000 7.101
55.52000 17.087
55.56000 14.238
55.60000 11.241
55.64000 7.992
55.68000 6.113
55.72000 16.159
55.76000 8.974
55.80000 3.057
55.84000 11.279
55.88000 18.154
55.92000 9.084
55.96000 8.058
56.00000 7.096
56.04000 9.143
56.08000 9.112
56.12000 10.195
56.16000 11.215
56.20000 7.014
56.24000 17.310
56.28000 9.057
56.32000 12.166
56.36000 11.066
56.40000 17.114
56.44000 11.404
56.48000 13.233
56.52000 18.314
56.56000 15.048
56.60000 10.127
56.64000 13.168
56.68000 8.152
56.72000 13.914
56.76000 9.206
56.80000 8.161
56.84000 15.279
56.88000 11.279
56.92000 4.161
56.96000 15.248
57.00000 13.091
57.04000 10.113
57.08000 11.225
57.12000 17.145
57.16000 10.116
57.20000 8.222
57.24000 10.116
57.28000 12.054
57.32000 14.298
57.36000 14.258
57.40000 10.118
57.44000 10.012
57.48000 8.169
57.52000 13.256
57.56000 16.000
57.60000 18.419
57.64000 16.193
57.68000 8.077
57.72000 9.186
57.76000 13.157
57.80000 6.004
57.84000 17.166
57.88000 14.102
57.92000 11.952
57.96000 7.150
58.00000 8.107
58.04000 9.081
58.08000 11.160
58.12000 17.273
58.16000 10.123
58.20000 10.163
58.24000 6.977
58.28000 10.146
58.32000 9.091
58.36000 4.985
58.40000 8.051
58.44000 9.164
58.48000 14.144
58.52000 12.302
58.56000 6.083
58.60000 13.309
58.64000 7.121
58.68000 7.106
58.72000 7.046
58.76000 13.125
58.80000 13.208
58.84000 8.184
58.88000 3.062
58.92000 1.963
58.96000 12.048
59.00000 11.167
59.04000 12.149
59.08000 6.052
59.12000 12.087
59.16000 13.061
59.20000 14.244
59.24000 8.050
59.28000 11.098
59.32000 7.113
59.36000 10.153
59.40000 7.075
59.44000 11.197
59.48000 5.009
59.52000 13.212
59.56000 9.089
59.60000 10.116
59.64000 15.191
59.68000 7.119
59.72000 9.228
59.76000 10.950
59.80000 7.162
59.84000 10.054
59.88000 11.169
59.92000 11.272
59.96000 9.192
60.00000 7.030
60.04000 10.151
60.08000 12.107
60.12000 16.309
60.16000 5.084
60.20000 11.094
60.24000 11.143
60.28000 13.203
60.32000 9.108
60.36000 13.198
60.40000 11.043
60.44000 15.269
60.48000 9.192
60.52000 6.065
60.56000 11.166
60.60000 11.112
60.64000 9.213
60.68000 7.066
60.72000 15.348
60.76000 12.085
60.80000 12.064
60.84000 12.249
60.88000 12.052
60.92000 9.189
60.96000 9.109
61.00000 8.176
61.04000 10.017
61.08000 4.115
61.12000 6.094
61.16000 6.054
61.20000 10.036
61.24000 7.051
61.28000 3.070
61.32000 9.205
61.36000 14.312
61.40000 8.995
61.44000 9.067
61.48000 9.265
61.52000 8.168
61.56000 10.166
61.60000 8.096
61.64000 15.146
61.68000 9.153
61.72000 11.173
61.76000 12.251
61.80000 9.138
61.84000 5.110
61.88000 15.426
61.92000 8.053
61.96000 10.246
62.00000 12.304
62.04000 3.048
62.08000 6.086
62.12000 10.169
62.16000 14.058
62.20000 6.153
62.24000 11.242
62.28000 6.076
62.32000 11.156
62.36000 11.059
62.40000 9.044
62.44000 6.026
62.48000 9.080
62.52000 6.053
62.56000 7.021
62.60000 5.109
62.64000 11.020
62.68000 17.068
62.72000 9.099
62.76000 8.069
62.80000 11.255
62.84000 6.028
62.88000 6.074
62.92000 9.170
62.96000 8.342
63.00000 4.180
63.04000 7.020
63.08000 3.952
63.12000 9.031
63.16000 7.054
63.20000 16.330
63.24000 7.094
63.28000 9.019
63.32000 10.189
63.36000 8.084
63.40000 10.145
63.44000 5.055
63.48000 9.036
63.52000 14.180
63.56000 5.094
63.60000 8.083
63.64000 8.140
63.68000 14.211
63.72000 8.124
63.76000 7.098
63.80000 9.154
63.84000 9.166
63.88000 10.174
63.92000 8.142
63.96000 12.247
64.00000 6.066
64.04000 14.302
64.08000 12.119
64.12000 9.099
64.16000 6.059
64.20000 7.996
64.24000 12.130
64.28000 7.161
64.32000 6.110
64.36000 11.242
64.40000 11.991
64.44000 6.061
64.48000 14.081
64.52000 11.171
64.56000 3.054
64.60000 6.136
64.64000 13.286
64.68000 12.038
64.72000 8.173
64.76000 13.298
64.80000 9.011
64.84000 4.089
64.88000 11.050
64.92000 7.148
64.96000 9.099
65.00000 13.228