File: XRD/11-09-2025/XY Data/01092025_BTO_omega_0_5_001_05_11-262_5-424.xy
20.00000 19.207
20.04000 23.435
20.08000 22.332
20.12000 18.356
20.16000 19.209
20.20000 17.140
20.24000 16.361
20.28000 19.262
20.32000 17.301
20.36000 21.185
20.40000 23.291
20.44000 20.454
20.48000 16.290
20.52000 13.342
20.56000 23.281
20.60000 30.558
20.64000 17.102
20.68000 23.190
20.72000 20.442
20.76000 17.248
20.80000 26.438
20.84000 23.318
20.88000 23.282
20.92000 21.131
20.96000 18.071
21.00000 22.144
21.04000 28.232
21.08000 18.236
21.12000 28.257
21.16000 18.251
21.20000 23.314
21.24000 20.453
21.28000 20.313
21.32000 30.352
21.36000 16.144
21.40000 20.318
21.44000 21.179
21.48000 18.126
21.52000 18.374
21.56000 19.184
21.60000 24.223
21.64000 22.211
21.68000 23.393
21.72000 27.393
21.76000 21.241
21.80000 24.314
21.84000 21.174
21.88000 26.341
21.92000 17.275
21.96000 34.617
22.00000 26.296
22.04000 23.289
22.08000 19.289
22.12000 26.310
22.16000 26.163
22.20000 23.473
22.24000 26.280
22.28000 19.279
22.32000 15.260
22.36000 25.309
22.40000 32.746
22.44000 22.175
22.48000 25.252
22.52000 29.460
22.56000 22.391
22.60000 26.280
22.64000 24.230
22.68000 21.351
22.72000 25.199
22.76000 30.343
22.80000 28.459
22.84000 22.097
22.88000 28.398
22.92000 27.349
22.96000 20.178
23.00000 24.209
23.04000 18.327
23.08000 28.492
23.12000 24.292
23.16000 23.519
23.20000 22.412
23.24000 24.315
23.28000 28.481
23.32000 18.232
23.36000 26.448
23.40000 29.141
23.44000 26.377
23.48000 25.398
23.52000 39.606
23.56000 35.594
23.60000 24.301
23.64000 35.485
23.68000 35.418
23.72000 30.405
23.76000 26.503
23.80000 18.355
23.84000 32.422
23.88000 39.678
23.92000 21.257
23.96000 24.150
24.00000 34.293
24.04000 27.388
24.08000 31.423
24.12000 30.578
24.16000 30.259
24.20000 35.499
24.24000 43.525
24.28000 30.362
24.32000 35.420
24.36000 32.612
24.40000 34.410
24.44000 30.447
24.48000 30.217
24.52000 47.929
24.56000 36.411
24.60000 30.232
24.64000 37.263
24.68000 34.459
24.72000 42.617
24.76000 37.477
24.80000 50.880
24.84000 58.903
24.88000 37.608
24.92000 38.654
24.96000 34.458
25.00000 41.596
25.04000 35.763
25.08000 37.485
25.12000 39.595
25.16000 39.838
25.20000 37.424
25.24000 39.343
25.28000 39.418
25.32000 36.094
25.36000 37.789
25.40000 39.367
25.44000 37.422
25.48000 46.415
25.52000 32.571
25.56000 42.764
25.60000 38.477
25.64000 48.550
25.68000 56.724
25.72000 44.543
25.76000 43.698
25.80000 49.552
25.84000 57.863
25.88000 53.710
25.92000 48.398
25.96000 39.541
26.00000 38.392
26.04000 58.767
26.08000 48.698
26.12000 46.317
26.16000 58.756
26.20000 50.648
26.24000 44.494
26.28000 66.086
26.32000 57.884
26.36000 46.517
26.40000 54.787
26.44000 49.634
26.48000 52.460
26.52000 74.005
26.56000 46.497
26.60000 58.912
26.64000 47.649
26.68000 46.718
26.72000 57.654
26.76000 51.050
26.80000 64.792
26.84000 63.942
26.88000 71.836
26.92000 59.960
26.96000 59.776
27.00000 58.775
27.04000 71.117
27.08000 49.659
27.12000 56.914
27.16000 51.574
27.20000 63.816
27.24000 62.738
27.28000 57.888
27.32000 63.961
27.36000 63.189
27.40000 73.001
27.44000 50.813
27.48000 67.860
27.52000 42.575
27.56000 72.602
27.60000 64.563
27.64000 61.919
27.68000 55.963
27.72000 40.490
27.76000 59.947
27.80000 67.066
27.84000 61.828
27.88000 65.776
27.92000 64.027
27.96000 61.752
28.00000 59.781
28.04000 60.931
28.08000 78.435
28.12000 67.786
28.16000 52.471
28.20000 62.109
28.24000 54.619
28.28000 64.071
28.32000 57.807
28.36000 49.639
28.40000 63.739
28.44000 54.856
28.48000 56.686
28.52000 62.713
28.56000 52.771
28.60000 57.806
28.64000 42.422
28.68000 56.469
28.72000 61.797
28.76000 59.680
28.80000 59.719
28.84000 52.560
28.88000 59.894
28.92000 50.651
28.96000 63.748
29.00000 64.206
29.04000 56.610
29.08000 60.935
29.12000 60.825
29.16000 48.832
29.20000 59.049
29.24000 42.721
29.28000 60.711
29.32000 60.988
29.36000 54.046
29.40000 54.795
29.44000 52.069
29.48000 47.949
29.52000 51.828
29.56000 48.648
29.60000 45.554
29.64000 54.829
29.68000 45.426
29.72000 42.482
29.76000 48.731
29.80000 36.347
29.84000 44.765
29.88000 40.556
29.92000 45.634
29.96000 57.789
30.00000 57.764
30.04000 40.665
30.08000 47.799
30.12000 36.688
30.16000 35.619
30.20000 41.436
30.24000 49.612
30.28000 44.605
30.32000 35.471
30.36000 46.848
30.40000 39.589
30.44000 39.974
30.48000 36.239
30.52000 45.854
30.56000 38.749
30.60000 36.457
30.64000 40.690
30.68000 31.445
30.72000 38.526
30.76000 36.261
30.80000 42.448
30.84000 45.383
30.88000 47.466
30.92000 39.272
30.96000 28.223
31.00000 32.761
31.04000 37.526
31.08000 26.281
31.12000 36.406
31.16000 35.665
31.20000 41.513
31.24000 37.623
31.28000 34.359
31.32000 30.309
31.36000 30.277
31.40000 32.234
31.44000 35.429
31.48000 26.412
31.52000 43.710
31.56000 25.332
31.60000 32.367
31.64000 54.573
31.68000 25.547
31.72000 29.710
31.76000 29.324
31.80000 29.458
31.84000 24.190
31.88000 30.449
31.92000 23.249
31.96000 31.485
32.00000 31.427
32.04000 43.689
32.08000 29.521
32.12000 28.429
32.16000 24.346
32.20000 27.485
32.24000 28.440
32.28000 33.619
32.32000 29.387
32.36000 22.334
32.40000 30.308
32.44000 18.364
32.48000 24.244
32.52000 28.293
32.56000 27.410
32.60000 32.167
32.64000 19.353
32.68000 24.239
32.72000 24.482
32.76000 28.390
32.80000 35.475
32.84000 26.167
32.88000 20.300
32.92000 34.414
32.96000 29.237
33.00000 35.423
33.04000 27.352
33.08000 19.376
33.12000 30.233
33.16000 31.338
33.20000 34.533
33.24000 26.432
33.28000 27.538
33.32000 28.374
33.36000 17.196
33.40000 23.371
33.44000 21.276
33.48000 17.432
33.52000 17.366
33.56000 24.233
33.60000 19.377
33.64000 19.271
33.68000 17.238
33.72000 26.316
33.76000 23.512
33.80000 30.553
33.84000 29.320
33.88000 20.218
33.92000 25.190
33.96000 24.354
34.00000 17.164
34.04000 20.284
34.08000 16.113
34.12000 14.251
34.16000 23.040
34.20000 29.443
34.24000 23.180
34.28000 20.284
34.32000 18.354
34.36000 25.421
34.40000 21.303
34.44000 33.623
34.48000 19.205
34.52000 28.484
34.56000 17.292
34.60000 28.570
34.64000 22.163
34.68000 18.281
34.72000 14.087
34.76000 14.111
34.80000 16.294
34.84000 17.243
34.88000 23.188
34.92000 14.215
34.96000 23.142
35.00000 18.280
35.04000 24.313
35.08000 11.041
35.12000 22.127
35.16000 15.150
35.20000 15.133
35.24000 16.214
35.28000 16.325
35.32000 16.324
35.36000 13.154
35.40000 19.177
35.44000 14.156
35.48000 17.400
35.52000 11.200
35.56000 18.171
35.60000 18.280
35.64000 24.370
35.68000 14.153
35.72000 22.520
35.76000 9.017
35.80000 23.251
35.84000 16.139
35.88000 27.271
35.92000 19.433
35.96000 17.284
36.00000 19.288
36.04000 15.271
36.08000 25.261
36.12000 23.197
36.16000 18.250
36.20000 16.179
36.24000 17.112
36.28000 18.141
36.32000 18.071
36.36000 17.208
36.40000 19.367
36.44000 12.143
36.48000 13.041
36.52000 25.497
36.56000 19.018
36.60000 15.279
36.64000 26.095
36.68000 19.097
36.72000 23.496
36.76000 11.128
36.80000 18.263
36.84000 23.377
36.88000 24.337
36.92000 14.422
36.96000 24.249
37.00000 15.043
37.04000 17.283
37.08000 17.169
37.12000 25.311
37.16000 16.063
37.20000 15.184
37.24000 21.357
37.28000 19.374
37.32000 19.099
37.36000 19.329
37.40000 17.194
37.44000 22.536
37.48000 27.227
37.52000 20.469
37.56000 18.272
37.60000 22.359
37.64000 11.071
37.68000 15.061
37.72000 18.257
37.76000 18.292
37.80000 30.404
37.84000 21.649
37.88000 24.360
37.92000 22.328
37.96000 15.363
38.00000 21.277
38.04000 20.196
38.08000 35.437
38.12000 21.197
38.16000 15.248
38.20000 23.064
38.24000 32.096
38.28000 12.093
38.32000 25.303
38.36000 19.224
38.40000 9.014
38.44000 26.424
38.48000 17.187
38.52000 27.371
38.56000 23.522
38.60000 11.148
38.64000 17.303
38.68000 21.336
38.72000 15.234
38.76000 22.313
38.80000 22.343
38.84000 25.216
38.88000 24.335
38.92000 16.280
38.96000 29.679
39.00000 19.335
39.04000 23.134
39.08000 27.385
39.12000 30.264
39.16000 22.223
39.20000 17.191
39.24000 21.168
39.28000 22.364
39.32000 21.146
39.36000 22.286
39.40000 19.267
39.44000 17.282
39.48000 27.168
39.52000 21.199
39.56000 26.321
39.60000 21.256
39.64000 19.046
39.68000 29.273
39.72000 23.702
39.76000 27.400
39.80000 23.506
39.84000 23.169
39.88000 29.397
39.92000 25.234
39.96000 25.429
40.00000 20.103
40.04000 24.366
40.08000 23.424
40.12000 21.299
40.16000 18.098
40.20000 22.293
40.24000 21.350
40.28000 18.211
40.32000 30.698
40.36000 19.444
40.40000 20.238
40.44000 21.198
40.48000 18.422
40.52000 21.346
40.56000 23.306
40.60000 17.188
40.64000 15.329
40.68000 27.520
40.72000 17.311
40.76000 18.234
40.80000 21.188
40.84000 17.241
40.88000 34.590
40.92000 26.421
40.96000 22.266
41.00000 20.390
41.04000 22.204
41.08000 27.164
41.12000 20.276
41.16000 26.444
41.20000 19.276
41.24000 14.149
41.28000 22.394
41.32000 28.550
41.36000 24.110
41.40000 22.363
41.44000 24.282
41.48000 27.321
41.52000 15.055
41.56000 27.185
41.60000 25.327
41.64000 17.227
41.68000 18.327
41.72000 25.332
41.76000 25.295
41.80000 20.325
41.84000 24.184
41.88000 18.477
41.92000 25.357
41.96000 20.191
42.00000 24.191
42.04000 24.398
42.08000 17.386
42.12000 12.245
42.16000 20.196
42.20000 28.221
42.24000 17.049
42.28000 21.197
42.32000 17.278
42.36000 17.320
42.40000 18.284
42.44000 19.081
42.48000 17.196
42.52000 32.415
42.56000 15.337
42.60000 19.330
42.64000 26.340
42.68000 24.272
42.72000 20.218
42.76000 30.552
42.80000 14.079
42.84000 26.210
42.88000 22.214
42.92000 31.486
42.96000 26.291
43.00000 22.188
43.04000 28.702
43.08000 14.160
43.12000 20.173
43.16000 23.260
43.20000 14.044
43.24000 24.282
43.28000 20.421
43.32000 24.445
43.36000 22.194
43.40000 30.637
43.44000 19.168
43.48000 23.143
43.52000 26.543
43.56000 20.109
43.60000 31.442
43.64000 25.161
43.68000 26.211
43.72000 16.339
43.76000 21.264
43.80000 17.131
43.84000 20.292
43.88000 23.259
43.92000 23.304
43.96000 17.093
44.00000 23.163
44.04000 10.179
44.08000 24.347
44.12000 20.335
44.16000 23.316
44.20000 24.387
44.24000 24.266
44.28000 22.455
44.32000 21.392
44.36000 21.258
44.40000 24.227
44.44000 22.190
44.48000 24.493
44.52000 22.148
44.56000 27.274
44.60000 23.318
44.64000 24.264
44.68000 28.273
44.72000 26.545
44.76000 21.392
44.80000 22.401
44.84000 21.450
44.88000 20.189
44.92000 16.155
44.96000 19.111
45.00000 21.415
45.04000 28.178
45.08000 26.352
45.12000 18.215
45.16000 21.401
45.20000 25.269
45.24000 19.127
45.28000 21.295
45.32000 24.319
45.36000 25.340
45.40000 13.265
45.44000 21.389
45.48000 21.196
45.52000 22.459
45.56000 21.260
45.60000 13.099
45.64000 26.275
45.68000 15.234
45.72000 22.050
45.76000 25.322
45.80000 20.283
45.84000 22.326
45.88000 19.188
45.92000 22.283
45.96000 19.316
46.00000 26.281
46.04000 30.633
46.08000 23.322
46.12000 17.164
46.16000 23.299
46.20000 21.226
46.24000 23.410
46.28000 22.393
46.32000 23.163
46.36000 18.273
46.40000 22.309
46.44000 19.309
46.48000 20.198
46.52000 21.368
46.56000 20.208
46.60000 25.320
46.64000 17.223
46.68000 13.102
46.72000 28.493
46.76000 28.410
46.80000 22.485
46.84000 18.232
46.88000 17.240
46.92000 26.361
46.96000 17.256
47.00000 20.429
47.04000 22.042
47.08000 24.229
47.12000 24.228
47.16000 24.516
47.20000 22.228
47.24000 17.140
47.28000 28.329
47.32000 23.298
47.36000 21.334
47.40000 18.284
47.44000 15.318
47.48000 15.148
47.52000 21.130
47.56000 24.310
47.60000 18.186
47.64000 22.290
47.68000 20.369
47.72000 19.293
47.76000 21.185
47.80000 16.285
47.84000 19.370
47.88000 21.405
47.92000 14.077
47.96000 16.330
48.00000 17.179
48.04000 17.163
48.08000 18.230
48.12000 20.175
48.16000 28.484
48.20000 13.089
48.24000 23.338
48.28000 20.187
48.32000 19.228
48.36000 19.127
48.40000 17.146
48.44000 20.317
48.48000 16.249
48.52000 14.222
48.56000 16.203
48.60000 19.258
48.64000 21.370
48.68000 21.342
48.72000 16.321
48.76000 17.276
48.80000 23.283
48.84000 18.185
48.88000 15.355
48.92000 21.311
48.96000 20.217
49.00000 19.217
49.04000 17.089
49.08000 22.363
49.12000 18.363
49.16000 14.217
49.20000 20.188
49.24000 15.210
49.28000 21.391
49.32000 21.305
49.36000 26.257
49.40000 12.166
49.44000 21.288
49.48000 21.369
49.52000 24.547
49.56000 25.230
49.60000 9.261
49.64000 18.105
49.68000 19.220
49.72000 18.144
49.76000 22.238
49.80000 19.334
49.84000 13.071
49.88000 17.184
49.92000 17.277
49.96000 17.383
50.00000 19.146
50.04000 21.083
50.08000 12.235
50.12000 16.121
50.16000 19.345
50.20000 15.122
50.24000 16.210
50.28000 15.227
50.32000 23.420
50.36000 22.313
50.40000 18.203
50.44000 16.192
50.48000 14.047
50.52000 18.268
50.56000 25.330
50.60000 17.062
50.64000 15.099
50.68000 16.196
50.72000 19.056
50.76000 11.204
50.80000 12.097
50.84000 22.162
50.88000 18.151
50.92000 17.166
50.96000 15.278
51.00000 25.371
51.04000 14.131
51.08000 15.118
51.12000 15.226
51.16000 15.145
51.20000 19.130
51.24000 19.344
51.28000 24.304
51.32000 16.246
51.36000 16.163
51.40000 10.120
51.44000 16.175
51.48000 16.154
51.52000 16.091
51.56000 10.037
51.60000 23.788
51.64000 13.174
51.68000 13.139
51.72000 14.010
51.76000 17.328
51.80000 11.232
51.84000 22.096
51.88000 13.295
51.92000 14.328
51.96000 20.157
52.00000 19.277
52.04000 18.285
52.08000 16.216
52.12000 14.191
52.16000 18.460
52.20000 12.078
52.24000 12.162
52.28000 14.352
52.32000 17.343
52.36000 15.288
52.40000 10.151
52.44000 17.248
52.48000 16.385
52.52000 19.476
52.56000 26.392
52.60000 10.104
52.64000 12.260
52.68000 11.215
52.72000 13.079
52.76000 8.169
52.80000 18.228
52.84000 18.303
52.88000 13.129
52.92000 17.342
52.96000 14.111
53.00000 16.232
53.04000 9.063
53.08000 10.116
53.12000 10.057
53.16000 19.079
53.20000 14.270
53.24000 22.547
53.28000 22.139
53.32000 13.290
53.36000 13.116
53.40000 22.501
53.44000 12.132
53.48000 16.078
53.52000 12.241
53.56000 8.117
53.60000 11.171
53.64000 20.329
53.68000 9.084
53.72000 11.041
53.76000 13.150
53.80000 10.144
53.84000 15.165
53.88000 10.985
53.92000 10.026
53.96000 17.112
54.00000 17.213
54.04000 10.266
54.08000 11.055
54.12000 14.118
54.16000 18.323
54.20000 15.217
54.24000 16.416
54.28000 11.199
54.32000 8.199
54.36000 14.168
54.40000 9.158
54.44000 17.386
54.48000 13.136
54.52000 12.239
54.56000 11.166
54.60000 10.225
54.64000 11.077
54.68000 13.083
54.72000 6.093
54.76000 14.106
54.80000 10.292
54.84000 9.080
54.88000 9.956
54.92000 12.237
54.96000 20.237
55.00000 13.002
55.04000 15.178
55.08000 17.143
55.12000 16.193
55.16000 10.177
55.20000 13.144
55.24000 10.308
55.28000 17.151
55.32000 15.075
55.36000 14.283
55.40000 8.115
55.44000 10.055
55.48000 13.132
55.52000 16.244
55.56000 12.136
55.60000 9.203
55.64000 11.129
55.68000 16.331
55.72000 13.140
55.76000 12.155
55.80000 10.318
55.84000 6.070
55.88000 11.116
55.92000 9.118
55.96000 11.039
56.00000 16.371
56.04000 11.196
56.08000 17.260
56.12000 7.008
56.16000 19.257
56.20000 20.101
56.24000 12.169
56.28000 18.193
56.32000 18.180
56.36000 16.168
56.40000 13.116
56.44000 9.079
56.48000 13.103
56.52000 12.131
56.56000 15.295
56.60000 11.082
56.64000 11.101
56.68000 10.260
56.72000 12.155
56.76000 18.198
56.80000 9.001
56.84000 10.147
56.88000 10.138
56.92000 16.237
56.96000 14.410
57.00000 8.135
57.04000 11.094
57.08000 11.121
57.12000 7.167
57.16000 13.249
57.20000 11.247
57.24000 14.247
57.28000 17.289
57.32000 16.231
57.36000 12.195
57.40000 15.272
57.44000 8.051
57.48000 17.145
57.52000 8.071
57.56000 6.105
57.60000 11.160
57.64000 14.124
57.68000 13.065
57.72000 16.220
57.76000 12.214
57.80000 15.113
57.84000 13.022
57.88000 15.973
57.92000 19.342
57.96000 14.155
58.00000 15.073
58.04000 13.119
58.08000 16.110
58.12000 6.975
58.16000 15.299
58.20000 10.026
58.24000 9.228
58.28000 18.377
58.32000 6.042
58.36000 15.141
58.40000 11.134
58.44000 16.273
58.48000 18.165
58.52000 9.070
58.56000 7.158
58.60000 5.997
58.64000 12.126
58.68000 8.168
58.72000 14.327
58.76000 17.187
58.80000 10.196
58.84000 11.067
58.88000 9.263
58.92000 5.140
58.96000 12.019
59.00000 7.117
59.04000 7.104
59.08000 8.137
59.12000 13.246
59.16000 5.112
59.20000 11.047
59.24000 15.170
59.28000 10.081
59.32000 11.196
59.36000 9.113
59.40000 14.337
59.44000 12.223
59.48000 6.184
59.52000 10.101
59.56000 5.032
59.60000 6.020
59.64000 10.203
59.68000 13.034
59.72000 7.066
59.76000 14.132
59.80000 9.058
59.84000 9.157
59.88000 10.157
59.92000 10.261
59.96000 12.136
60.00000 11.092
60.04000 12.178
60.08000 7.074
60.12000 6.015
60.16000 14.342
60.20000 11.163
60.24000 11.159
60.28000 7.061
60.32000 13.242
60.36000 1.048
60.40000 5.035
60.44000 14.263
60.48000 4.086
60.52000 10.242
60.56000 14.211
60.60000 13.256
60.64000 9.130
60.68000 9.112
60.72000 6.024
60.76000 6.046
60.80000 14.059
60.84000 4.061
60.88000 11.273
60.92000 7.068
60.96000 5.001
61.00000 13.011
61.04000 10.201
61.08000 16.138
61.12000 10.066
61.16000 14.267
61.20000 9.013
61.24000 9.127
61.28000 6.155
61.32000 11.218
61.36000 8.144
61.40000 8.128
61.44000 9.297
61.48000 5.966
61.52000 12.156
61.56000 8.046
61.60000 16.153
61.64000 11.192
61.68000 11.070
61.72000 8.160
61.76000 8.113
61.80000 7.106
61.84000 6.008
61.88000 8.157
61.92000 11.081
61.96000 11.065
62.00000 5.062
62.04000 3.027
62.08000 11.234
62.12000 6.974
62.16000 4.060
62.20000 9.126
62.24000 12.157
62.28000 9.123
62.32000 9.036
62.36000 8.071
62.40000 14.268
62.44000 13.156
62.48000 6.104
62.52000 5.019
62.56000 8.042
62.60000 9.066
62.64000 7.100
62.68000 11.245
62.72000 5.001
62.76000 8.156
62.80000 13.156
62.84000 15.214
62.88000 9.102
62.92000 9.162
62.96000 3.033
63.00000 7.089
63.04000 8.998
63.08000 10.132
63.12000 2.020
63.16000 11.091
63.20000 9.103
63.24000 9.140
63.28000 6.123
63.32000 12.281
63.36000 10.129
63.40000 8.172
63.44000 10.186
63.48000 3.044
63.52000 7.100
63.56000 6.083
63.60000 5.087
63.64000 6.037
63.68000 7.050
63.72000 8.068
63.76000 7.066
63.80000 7.042
63.84000 7.017
63.88000 8.028
63.92000 7.092
63.96000 6.151
64.00000 10.072
64.04000 7.085
64.08000 6.154
64.12000 12.127
64.16000 8.114
64.20000 14.959
64.24000 13.210
64.28000 9.995
64.32000 10.030
64.36000 10.109
64.40000 15.217
64.44000 4.056
64.48000 7.039
64.52000 6.029
64.56000 8.116
64.60000 11.121
64.64000 13.062
64.68000 9.053
64.72000 8.125
64.76000 5.146
64.80000 4.057
64.84000 4.083
64.88000 10.123
64.92000 8.055
64.96000 8.097
65.00000 4.969