File: XRD/11-09-2025/XY Data/01092025_BTO_omega_1_001_18_2-782_-12-187.xy
20.00000 38.449
20.04000 34.242
20.08000 32.156
20.12000 32.613
20.16000 40.307
20.20000 41.663
20.24000 35.297
20.28000 32.445
20.32000 37.477
20.36000 34.548
20.40000 66.026
20.44000 30.322
20.48000 23.092
20.52000 29.440
20.56000 34.435
20.60000 39.595
20.64000 48.632
20.68000 43.577
20.72000 35.255
20.76000 33.451
20.80000 32.564
20.84000 46.676
20.88000 48.615
20.92000 41.418
20.96000 37.431
21.00000 39.179
21.04000 34.328
21.08000 38.688
21.12000 38.727
21.16000 36.591
21.20000 49.467
21.24000 32.460
21.28000 36.367
21.32000 31.704
21.36000 42.549
21.40000 34.271
21.44000 28.525
21.48000 32.254
21.52000 40.246
21.56000 33.260
21.60000 33.203
21.64000 51.472
21.68000 30.203
21.72000 26.294
21.76000 27.427
21.80000 38.430
21.84000 40.531
21.88000 34.037
21.92000 34.330
21.96000 31.487
22.00000 30.270
22.04000 31.336
22.08000 30.258
22.12000 29.342
22.16000 32.425
22.20000 24.302
22.24000 25.382
22.28000 29.369
22.32000 31.163
22.36000 21.211
22.40000 28.308
22.44000 24.431
22.48000 19.218
22.52000 28.322
22.56000 25.269
22.60000 17.275
22.64000 25.986
22.68000 30.167
22.72000 21.154
22.76000 28.108
22.80000 20.212
22.84000 35.214
22.88000 21.309
22.92000 34.385
22.96000 17.164
23.00000 24.297
23.04000 25.188
23.08000 19.182
23.12000 33.464
23.16000 22.126
23.20000 36.238
23.24000 22.206
23.28000 22.286
23.32000 37.518
23.36000 25.906
23.40000 25.279
23.44000 20.011
23.48000 11.149
23.52000 21.252
23.56000 10.117
23.60000 20.357
23.64000 17.201
23.68000 31.376
23.72000 26.343
23.76000 20.233
23.80000 23.410
23.84000 20.242
23.88000 25.534
23.92000 21.236
23.96000 7.971
24.00000 18.085
24.04000 24.419
24.08000 28.457
24.12000 24.393
24.16000 20.504
24.20000 22.320
24.24000 19.173
24.28000 24.323
24.32000 18.324
24.36000 12.191
24.40000 17.240
24.44000 16.356
24.48000 18.405
24.52000 21.287
24.56000 12.060
24.60000 21.143
24.64000 13.089
24.68000 17.241
24.72000 10.301
24.76000 22.194
24.80000 15.069
24.84000 15.362
24.88000 13.136
24.92000 25.233
24.96000 20.373
25.00000 14.248
25.04000 20.262
25.08000 15.232
25.12000 19.221
25.16000 21.172
25.20000 14.281
25.24000 12.353
25.28000 18.075
25.32000 21.293
25.36000 24.290
25.40000 11.052
25.44000 11.205
25.48000 17.264
25.52000 13.047
25.56000 12.073
25.60000 12.074
25.64000 13.106
25.68000 21.345
25.72000 10.307
25.76000 16.250
25.80000 11.224
25.84000 11.296
25.88000 10.111
25.92000 17.253
25.96000 12.026
26.00000 8.154
26.04000 16.211
26.08000 14.207
26.12000 16.237
26.16000 17.162
26.20000 15.290
26.24000 14.288
26.28000 14.197
26.32000 6.106
26.36000 15.088
26.40000 8.996
26.44000 14.179
26.48000 11.070
26.52000 14.146
26.56000 8.099
26.60000 12.155
26.64000 20.375
26.68000 13.192
26.72000 14.175
26.76000 11.069
26.80000 11.091
26.84000 15.106
26.88000 9.169
26.92000 15.172
26.96000 8.987
27.00000 7.079
27.04000 8.180
27.08000 10.182
27.12000 12.159
27.16000 13.152
27.20000 15.160
27.24000 8.088
27.28000 5.134
27.32000 7.002
27.36000 13.245
27.40000 13.064
27.44000 14.164
27.48000 12.115
27.52000 11.210
27.56000 14.226
27.60000 13.219
27.64000 15.229
27.68000 11.072
27.72000 14.301
27.76000 18.416
27.80000 14.081
27.84000 12.241
27.88000 6.083
27.92000 7.226
27.96000 12.329
28.00000 15.170
28.04000 10.298
28.08000 10.041
28.12000 8.118
28.16000 10.129
28.20000 8.180
28.24000 10.325
28.28000 14.249
28.32000 8.184
28.36000 11.201
28.40000 9.076
28.44000 13.155
28.48000 6.142
28.52000 16.201
28.56000 10.068
28.60000 11.075
28.64000 11.136
28.68000 9.245
28.72000 10.152
28.76000 9.210
28.80000 12.128
28.84000 7.083
28.88000 7.019
28.92000 7.010
28.96000 6.066
29.00000 10.077
29.04000 9.174
29.08000 8.045
29.12000 9.128
29.16000 10.045
29.20000 10.044
29.24000 8.100
29.28000 10.136
29.32000 10.189
29.36000 12.237
29.40000 12.175
29.44000 10.064
29.48000 8.187
29.52000 8.075
29.56000 8.110
29.60000 11.120
29.64000 10.161
29.68000 13.168
29.72000 6.011
29.76000 7.173
29.80000 11.186
29.84000 8.126
29.88000 12.243
29.92000 10.138
29.96000 8.160
30.00000 5.084
30.04000 9.013
30.08000 7.164
30.12000 12.085
30.16000 10.111
30.20000 5.037
30.24000 10.084
30.28000 13.304
30.32000 6.909
30.36000 7.050
30.40000 6.981
30.44000 4.040
30.48000 7.048
30.52000 12.061
30.56000 7.086
30.60000 16.286
30.64000 8.978
30.68000 10.072
30.72000 5.160
30.76000 11.168
30.80000 12.197
30.84000 2.015
30.88000 11.172
30.92000 7.977
30.96000 8.199
31.00000 9.219
31.04000 7.905
31.08000 6.065
31.12000 14.214
31.16000 14.048
31.20000 6.086
31.24000 5.027
31.28000 8.120
31.32000 10.183
31.36000 5.020
31.40000 3.016
31.44000 5.004
31.48000 8.162
31.52000 8.214
31.56000 7.015
31.60000 11.247
31.64000 5.960
31.68000 5.013
31.72000 10.147
31.76000 9.183
31.80000 5.980
31.84000 7.168
31.88000 8.056
31.92000 8.123
31.96000 1.986
32.00000 11.181
32.04000 6.085
32.08000 4.042
32.12000 7.208
32.16000 11.094
32.20000 5.103
32.24000 8.034
32.28000 7.044
32.32000 4.993
32.36000 8.144
32.40000 12.058
32.44000 11.205
32.48000 5.105
32.52000 6.059
32.56000 14.136
32.60000 4.016
32.64000 6.067
32.68000 4.051
32.72000 6.016
32.76000 8.190
32.80000 3.020
32.84000 11.240
32.88000 8.075
32.92000 9.100
32.96000 5.060
33.00000 3.037
33.04000 7.068
33.08000 0.982
33.12000 7.121
33.16000 6.064
33.20000 9.114
33.24000 5.053
33.28000 6.980
33.32000 8.307
33.36000 5.980
33.40000 5.039
33.44000 4.074
33.48000 4.025
33.52000 6.940
33.56000 13.152
33.60000 5.126
33.64000 9.019
33.68000 7.039
33.72000 6.100
33.76000 7.133
33.80000 3.073
33.84000 8.132
33.88000 4.066
33.92000 7.111
33.96000 11.143
34.00000 14.295
34.04000 8.100
34.08000 2.040
34.12000 5.093
34.16000 5.007
34.20000 6.053
34.24000 5.109
34.28000 7.224
34.32000 3.062
34.36000 4.017
34.40000 4.069
34.44000 6.186
34.48000 4.040
34.52000 4.057
34.56000 9.178
34.60000 4.122
34.64000 3.089
34.68000 3.019
34.72000 3.023
34.76000 9.126
34.80000 10.108
34.84000 5.033
34.88000 7.097
34.92000 6.079
34.96000 4.149
35.00000 10.143
35.04000 2.980
35.08000 4.108
35.12000 4.046
35.16000 5.114
35.20000 11.118
35.24000 8.972
35.28000 7.184
35.32000 12.324
35.36000 3.989
35.40000 2.051
35.44000 6.061
35.48000 10.120
35.52000 1.014
35.56000 5.112
35.60000 4.075
35.64000 7.183
35.68000 5.084
35.72000 6.048
35.76000 9.208
35.80000 6.070
35.84000 15.270
35.88000 7.120
35.92000 3.068
35.96000 8.044
36.00000 6.103
36.04000 5.080
36.08000 4.118
36.12000 4.072
36.16000 4.940
36.20000 8.085
36.24000 1.020
36.28000 4.032
36.32000 3.961
36.36000 4.094
36.40000 5.039
36.44000 8.104
36.48000 7.086
36.52000 3.056
36.56000 3.017
36.60000 4.087
36.64000 3.046
36.68000 5.059
36.72000 7.046
36.76000 5.060
36.80000 2.993
36.84000 11.072
36.88000 11.058
36.92000 8.073
36.96000 2.144
37.00000 4.071
37.04000 7.036
37.08000 4.113
37.12000 4.058
37.16000 0.990
37.20000 7.076
37.24000 4.106
37.28000 1.995
37.32000 9.121
37.36000 8.117
37.40000 3.090
37.44000 5.012
37.48000 5.005
37.52000 5.017
37.56000 4.166
37.60000 6.045
37.64000 2.973
37.68000 5.050
37.72000 1.007
37.76000 2.011
37.80000 4.021
37.84000 6.147
37.88000 3.110
37.92000 5.072
37.96000 2.988
38.00000 9.174
38.04000 5.078
38.08000 7.992
38.12000 3.065
38.16000 10.062
38.20000 2.049
38.24000 6.039
38.28000 3.101
38.32000 9.088
38.36000 6.031
38.40000 7.166
38.44000 8.102
38.48000 4.101
38.52000 6.195
38.56000 7.099
38.60000 7.226
38.64000 2.988
38.68000 3.054
38.72000 5.035
38.76000 3.965
38.80000 2.051
38.84000 6.035
38.88000 1.051
38.92000 8.163
38.96000 5.064
39.00000 3.087
39.04000 2.077
39.08000 4.048
39.12000 6.093
39.16000 1.040
39.20000 6.183
39.24000 2.079
39.28000 6.097
39.32000 5.095
39.36000 5.059
39.40000 2.004
39.44000 8.066
39.48000 8.133
39.52000 5.029
39.56000 5.131
39.60000 2.034
39.64000 3.047
39.68000 8.059
39.72000 2.060
39.76000 4.077
39.80000 4.002
39.84000 6.056
39.88000 3.994
39.92000 4.968
39.96000 6.102
40.00000 7.014
40.04000 3.023
40.08000 6.153
40.12000 5.032
40.16000 4.067
40.20000 8.092
40.24000 7.138
40.28000 4.029
40.32000 5.098
40.36000 5.124
40.40000 5.112
40.44000 7.119
40.48000 4.976
40.52000 1.033
40.56000 0.988
40.60000 4.044
40.64000 7.156
40.68000 4.081
40.72000 4.013
40.76000 2.975
40.80000 5.019
40.84000 5.085
40.88000 3.998
40.92000 2.088
40.96000 3.035
41.00000 3.013
41.04000 4.029
41.08000 1.018
41.12000 7.115
41.16000 3.966
41.20000 6.033
41.24000 6.036
41.28000 2.025
41.32000 5.142
41.36000 5.071
41.40000 5.042
41.44000 3.075
41.48000 2.054
41.52000 7.067
41.56000 4.059
41.60000 5.059
41.64000 5.114
41.68000 7.071
41.72000 3.972
41.76000 1.032
41.80000 0.990
41.84000 1.990
41.88000 1.008
41.92000 6.073
41.96000 5.033
42.00000 5.104
42.04000 8.072
42.08000 3.027
42.12000 6.123
42.16000 5.029
42.20000 2.001
42.24000 6.010
42.28000 0.000
42.32000 6.158
42.36000 2.035
42.40000 2.043
42.44000 4.124
42.48000 1.037
42.52000 4.014
42.56000 1.979
42.60000 4.057
42.64000 4.021
42.68000 5.113
42.72000 2.036
42.76000 1.013
42.80000 3.067
42.84000 4.075
42.88000 5.092
42.92000 3.017
42.96000 4.026
43.00000 2.039
43.04000 2.030
43.08000 3.012
43.12000 2.011
43.16000 3.090
43.20000 4.141
43.24000 2.947
43.28000 3.071
43.32000 0.993
43.36000 2.991
43.40000 4.018
43.44000 5.070
43.48000 5.013
43.52000 3.044
43.56000 5.109
43.60000 4.079
43.64000 7.178
43.68000 0.996
43.72000 5.009
43.76000 0.000
43.80000 1.994
43.84000 1.085
43.88000 5.098
43.92000 3.059
43.96000 3.015
44.00000 2.989
44.04000 5.103
44.08000 3.024
44.12000 3.075
44.16000 6.979
44.20000 5.065
44.24000 4.032
44.28000 4.080
44.32000 4.087
44.36000 5.018
44.40000 3.997
44.44000 4.060
44.48000 5.212
44.52000 5.100
44.56000 0.000
44.60000 2.000
44.64000 3.001
44.68000 2.032
44.72000 1.043
44.76000 4.981
44.80000 1.035
44.84000 3.000
44.88000 3.012
44.92000 5.029
44.96000 4.066
45.00000 0.000
45.04000 3.142
45.08000 3.045
45.12000 0.979
45.16000 4.020
45.20000 4.995
45.24000 2.082
45.28000 5.030
45.32000 0.982
45.36000 5.970
45.40000 4.063
45.44000 2.972
45.48000 3.088
45.52000 3.999
45.56000 0.977
45.60000 2.036
45.64000 0.980
45.68000 2.025
45.72000 2.036
45.76000 2.017
45.80000 1.041
45.84000 3.029
45.88000 5.054
45.92000 0.000
45.96000 2.050
46.00000 5.065
46.04000 1.002
46.08000 3.016
46.12000 3.060
46.16000 0.992
46.20000 1.008
46.24000 1.011
46.28000 2.044
46.32000 6.082
46.36000 5.993
46.40000 1.010
46.44000 2.024
46.48000 0.978
46.52000 0.980
46.56000 4.076
46.60000 3.058
46.64000 3.045
46.68000 3.081
46.72000 3.042
46.76000 0.000
46.80000 3.015
46.84000 1.055
46.88000 0.988
46.92000 1.980
46.96000 3.016
47.00000 3.028
47.04000 3.046
47.08000 2.042
47.12000 0.982
47.16000 0.987
47.20000 8.121
47.24000 1.013
47.28000 4.031
47.32000 4.160
47.36000 1.028
47.40000 4.035
47.44000 3.042
47.48000 3.037
47.52000 4.077
47.56000 2.013
47.60000 4.065
47.64000 1.043
47.68000 3.987
47.72000 3.062
47.76000 2.987
47.80000 2.030
47.84000 5.087
47.88000 1.004
47.92000 2.010
47.96000 2.046
48.00000 4.101
48.04000 4.012
48.08000 4.014
48.12000 0.999
48.16000 2.046
48.20000 1.005
48.24000 2.988
48.28000 2.093
48.32000 3.005
48.36000 0.000
48.40000 1.008
48.44000 2.007
48.48000 6.080
48.52000 4.094
48.56000 2.022
48.60000 0.990
48.64000 4.000
48.68000 1.033
48.72000 0.000
48.76000 1.970
48.80000 0.000
48.84000 1.050
48.88000 3.009
48.92000 2.055
48.96000 1.000
49.00000 3.042
49.04000 2.122
49.08000 1.038
49.12000 7.083
49.16000 3.040
49.20000 1.030
49.24000 1.001
49.28000 3.044
49.32000 2.037
49.36000 5.035
49.40000 2.050
49.44000 3.001
49.48000 1.970
49.52000 5.120
49.56000 1.008
49.60000 1.006
49.64000 3.097
49.68000 1.033
49.72000 6.118
49.76000 3.065
49.80000 3.101
49.84000 1.050
49.88000 4.053
49.92000 2.081
49.96000 2.956
50.00000 1.005
50.04000 1.027
50.08000 2.042
50.12000 2.018
50.16000 3.039
50.20000 2.065
50.24000 0.000
50.28000 2.049
50.32000 0.000
50.36000 0.000
50.40000 1.088
50.44000 1.962
50.48000 4.063
50.52000 6.033
50.56000 1.042
50.60000 0.987
50.64000 1.008
50.68000 2.038
50.72000 2.051
50.76000 2.054
50.80000 2.046
50.84000 0.992
50.88000 3.011
50.92000 0.989
50.96000 0.000
51.00000 2.042
51.04000 3.076
51.08000 0.000
51.12000 2.014
51.16000 2.961
51.20000 3.019
51.24000 5.074
51.28000 0.000
51.32000 0.000
51.36000 1.042
51.40000 1.045
51.44000 1.009
51.48000 4.069
51.52000 1.039
51.56000 1.023
51.60000 0.974
51.64000 3.162
51.68000 0.995
51.72000 3.043
51.76000 3.996
51.80000 8.091
51.84000 1.054
51.88000 4.018
51.92000 0.000
51.96000 3.112
52.00000 4.959
52.04000 2.033
52.08000 3.006
52.12000 0.985
52.16000 1.025
52.20000 0.000
52.24000 1.019
52.28000 3.045
52.32000 2.007
52.36000 0.000
52.40000 3.013
52.44000 5.079
52.48000 1.057
52.52000 0.000
52.56000 1.003
52.60000 1.033
52.64000 1.050
52.68000 5.046
52.72000 0.991
52.76000 0.000
52.80000 2.039
52.84000 1.006
52.88000 0.000
52.92000 2.023
52.96000 4.018
53.00000 2.099
53.04000 2.070
53.08000 0.000
53.12000 2.995
53.16000 1.017
53.20000 4.074
53.24000 3.086
53.28000 3.022
53.32000 0.000
53.36000 3.035
53.40000 2.030
53.44000 1.015
53.48000 5.096
53.52000 2.094
53.56000 0.000
53.60000 1.050
53.64000 1.986
53.68000 3.034
53.72000 1.007
53.76000 2.030
53.80000 5.010
53.84000 1.046
53.88000 1.031
53.92000 2.003
53.96000 7.135
54.00000 3.113
54.04000 0.000
54.08000 1.987
54.12000 1.973
54.16000 2.024
54.20000 1.018
54.24000 0.000
54.28000 3.008
54.32000 2.015
54.36000 1.025
54.40000 2.005
54.44000 2.053
54.48000 0.992
54.52000 0.000
54.56000 1.000
54.60000 1.995
54.64000 3.091
54.68000 7.025
54.72000 2.103
54.76000 0.987
54.80000 0.988
54.84000 6.014
54.88000 1.989
54.92000 1.015
54.96000 1.042
55.00000 0.999
55.04000 1.040
55.08000 0.993
55.12000 3.020
55.16000 3.040
55.20000 5.105
55.24000 2.012
55.28000 3.016
55.32000 3.031
55.36000 0.994
55.40000 1.068
55.44000 3.069
55.48000 3.029
55.52000 2.977
55.56000 1.980
55.60000 1.973
55.64000 0.000
55.68000 2.071
55.72000 0.997
55.76000 2.031
55.80000 4.098
55.84000 4.021
55.88000 0.000
55.92000 3.060
55.96000 0.000
56.00000 3.022
56.04000 3.032
56.08000 2.001
56.12000 2.005
56.16000 2.011
56.20000 1.012
56.24000 1.025
56.28000 1.008
56.32000 3.971
56.36000 2.016
56.40000 5.119
56.44000 1.000
56.48000 0.000
56.52000 2.020
56.56000 1.978
56.60000 3.049
56.64000 0.986
56.68000 1.980
56.72000 5.105
56.76000 2.016
56.80000 3.058
56.84000 0.000
56.88000 3.004
56.92000 0.992
56.96000 3.056
57.00000 1.046
57.04000 1.057
57.08000 1.988
57.12000 1.007
57.16000 1.015
57.20000 0.000
57.24000 2.018
57.28000 0.000
57.32000 0.989
57.36000 1.992
57.40000 2.048
57.44000 2.035
57.48000 1.977
57.52000 0.000
57.56000 2.094
57.60000 0.989
57.64000 1.985
57.68000 0.978
57.72000 2.058
57.76000 3.029
57.80000 1.021
57.84000 0.987
57.88000 0.000
57.92000 0.993
57.96000 0.982
58.00000 3.037
58.04000 3.109
58.08000 0.000
58.12000 4.034
58.16000 0.000
58.20000 2.045
58.24000 2.073
58.28000 0.993
58.32000 0.995
58.36000 1.027
58.40000 1.008
58.44000 2.067
58.48000 0.000
58.52000 1.048
58.56000 2.010
58.60000 0.000
58.64000 1.017
58.68000 0.000
58.72000 1.013
58.76000 1.034
58.80000 3.014
58.84000 3.008
58.88000 1.035
58.92000 1.998
58.96000 4.041
59.00000 0.000
59.04000 0.000
59.08000 0.000
59.12000 2.990
59.16000 2.941
59.20000 0.981
59.24000 1.043
59.28000 3.059
59.32000 2.040
59.36000 3.018
59.40000 1.030
59.44000 1.023
59.48000 4.005
59.52000 1.986
59.56000 1.007
59.60000 1.030
59.64000 1.975
59.68000 0.000
59.72000 1.037
59.76000 2.012
59.80000 4.037
59.84000 1.990
59.88000 0.000
59.92000 3.032
59.96000 0.981
60.00000 3.081
60.04000 2.047
60.08000 2.039
60.12000 3.000
60.16000 2.004
60.20000 0.992
60.24000 0.000
60.28000 3.036
60.32000 1.989
60.36000 5.070
60.40000 2.067
60.44000 0.000
60.48000 1.025
60.52000 4.044
60.56000 0.988
60.60000 3.051
60.64000 4.038
60.68000 1.979
60.72000 2.077
60.76000 2.092
60.80000 1.021
60.84000 3.075
60.88000 2.034
60.92000 1.980
60.96000 1.069
61.00000 0.000
61.04000 2.016
61.08000 2.958
61.12000 1.006
61.16000 0.000
61.20000 2.056
61.24000 3.001
61.28000 0.000
61.32000 0.000
61.36000 3.001
61.40000 2.018
61.44000 0.997
61.48000 1.999
61.52000 1.999
61.56000 1.014
61.60000 4.056
61.64000 0.000
61.68000 0.000
61.72000 1.001
61.76000 0.000
61.80000 0.000
61.84000 2.001
61.88000 0.000
61.92000 1.011
61.96000 2.074
62.00000 4.022
62.04000 2.985
62.08000 0.000
62.12000 0.999
62.16000 0.983
62.20000 2.043
62.24000 2.013
62.28000 3.020
62.32000 5.086
62.36000 2.046
62.40000 3.047
62.44000 2.020
62.48000 2.039
62.52000 1.032
62.56000 2.028
62.60000 0.994
62.64000 1.017
62.68000 1.977
62.72000 1.009
62.76000 3.112
62.80000 3.148
62.84000 1.018
62.88000 0.978
62.92000 3.103
62.96000 0.999
63.00000 2.034
63.04000 0.995
63.08000 5.082
63.12000 0.998
63.16000 1.042
63.20000 2.029
63.24000 3.045
63.28000 1.030
63.32000 1.078
63.36000 1.029
63.40000 1.014
63.44000 4.061
63.48000 3.086
63.52000 1.985
63.56000 0.994
63.60000 2.000
63.64000 3.069
63.68000 0.985
63.72000 1.027
63.76000 0.000
63.80000 1.044
63.84000 0.000
63.88000 3.003
63.92000 2.020
63.96000 0.000
64.00000 0.993
64.04000 0.000
64.08000 0.000
64.12000 3.025
64.16000 1.035
64.20000 2.014
64.24000 2.012
64.28000 4.054
64.32000 0.000
64.36000 2.050
64.40000 3.007
64.44000 0.000
64.48000 3.097
64.52000 2.004
64.56000 0.000
64.60000 1.006
64.64000 2.043
64.68000 1.000
64.72000 2.065
64.76000 3.060
64.80000 1.053
64.84000 0.000
64.88000 3.046
64.92000 2.074
64.96000 0.999
65.00000 1.989