File: XRD/11-09-2025/XY Data/01092025_BTO_omega_0_5_001_20_-5-563_24-373.xy
20.00000 18.327
20.04000 15.290
20.08000 25.184
20.12000 24.388
20.16000 18.303
20.20000 17.223
20.24000 23.403
20.28000 20.161
20.32000 15.107
20.36000 25.188
20.40000 22.256
20.44000 19.207
20.48000 24.128
20.52000 26.235
20.56000 22.238
20.60000 12.054
20.64000 15.186
20.68000 12.148
20.72000 23.406
20.76000 23.408
20.80000 24.310
20.84000 22.317
20.88000 28.220
20.92000 24.252
20.96000 15.187
21.00000 22.237
21.04000 23.275
21.08000 23.204
21.12000 17.219
21.16000 17.183
21.20000 22.209
21.24000 17.183
21.28000 22.410
21.32000 14.060
21.36000 26.251
21.40000 20.243
21.44000 20.160
21.48000 17.332
21.52000 25.521
21.56000 22.285
21.60000 21.444
21.64000 21.232
21.68000 22.578
21.72000 24.406
21.76000 25.628
21.80000 17.159
21.84000 22.057
21.88000 18.133
21.92000 18.292
21.96000 23.509
22.00000 35.296
22.04000 20.307
22.08000 31.580
22.12000 18.322
22.16000 30.410
22.20000 18.159
22.24000 33.356
22.28000 26.562
22.32000 22.358
22.36000 22.299
22.40000 29.236
22.44000 25.357
22.48000 26.335
22.52000 25.427
22.56000 22.190
22.60000 24.247
22.64000 17.197
22.68000 26.376
22.72000 22.277
22.76000 19.321
22.80000 21.189
22.84000 32.318
22.88000 23.330
22.92000 28.349
22.96000 22.323
23.00000 25.129
23.04000 28.267
23.08000 25.265
23.12000 33.474
23.16000 34.318
23.20000 23.298
23.24000 26.426
23.28000 27.405
23.32000 27.397
23.36000 23.345
23.40000 26.340
23.44000 30.234
23.48000 25.313
23.52000 32.505
23.56000 31.315
23.60000 31.554
23.64000 27.532
23.68000 41.584
23.72000 18.200
23.76000 27.250
23.80000 23.202
23.84000 33.631
23.88000 43.437
23.92000 28.429
23.96000 37.682
24.00000 31.420
24.04000 22.337
24.08000 38.450
24.12000 37.398
24.16000 43.689
24.20000 29.255
24.24000 27.512
24.28000 34.285
24.32000 31.448
24.36000 35.304
24.40000 35.500
24.44000 41.642
24.48000 39.509
24.52000 32.367
24.56000 39.607
24.60000 30.586
24.64000 36.287
24.68000 34.240
24.72000 26.375
24.76000 36.508
24.80000 31.437
24.84000 44.006
24.88000 41.509
24.92000 40.597
24.96000 44.399
25.00000 34.401
25.04000 33.601
25.08000 43.613
25.12000 43.262
25.16000 31.324
25.20000 48.006
25.24000 35.645
25.28000 45.692
25.32000 48.484
25.36000 43.489
25.40000 33.566
25.44000 37.475
25.48000 46.897
25.52000 47.782
25.56000 43.672
25.60000 42.278
25.64000 29.350
25.68000 49.870
25.72000 38.194
25.76000 41.400
25.80000 61.849
25.84000 43.694
25.88000 50.698
25.92000 41.469
25.96000 50.820
26.00000 47.633
26.04000 52.089
26.08000 41.474
26.12000 51.698
26.16000 65.590
26.20000 48.694
26.24000 53.715
26.28000 46.615
26.32000 59.899
26.36000 73.056
26.40000 45.379
26.44000 50.889
26.48000 51.477
26.52000 58.629
26.56000 66.882
26.60000 43.795
26.64000 58.752
26.68000 57.685
26.72000 73.216
26.76000 55.637
26.80000 65.964
26.84000 57.707
26.88000 52.770
26.92000 67.785
26.96000 51.823
27.00000 52.034
27.04000 64.041
27.08000 52.588
27.12000 79.025
27.16000 62.841
27.20000 67.815
27.24000 43.901
27.28000 50.814
27.32000 70.930
27.36000 62.807
27.40000 46.806
27.44000 54.828
27.48000 49.563
27.52000 61.874
27.56000 67.720
27.60000 71.916
27.64000 65.266
27.68000 56.988
27.72000 72.053
27.76000 57.441
27.80000 71.004
27.84000 50.520
27.88000 65.023
27.92000 53.808
27.96000 54.903
28.00000 68.508
28.04000 55.791
28.08000 56.456
28.12000 72.096
28.16000 52.703
28.20000 48.699
28.24000 58.757
28.28000 62.041
28.32000 64.587
28.36000 66.059
28.40000 65.728
28.44000 61.929
28.48000 57.730
28.52000 51.584
28.56000 62.655
28.60000 40.761
28.64000 56.820
28.68000 57.930
28.72000 55.596
28.76000 65.801
28.80000 64.412
28.84000 55.924
28.88000 44.783
28.92000 74.931
28.96000 64.779
29.00000 47.692
29.04000 56.816
29.08000 55.006
29.12000 64.235
29.16000 44.653
29.20000 55.815
29.24000 53.462
29.28000 51.720
29.32000 46.658
29.36000 46.623
29.40000 44.647
29.44000 45.865
29.48000 34.314
29.52000 38.482
29.56000 43.441
29.60000 50.649
29.64000 48.155
29.68000 41.487
29.72000 33.268
29.76000 52.904
29.80000 44.528
29.84000 42.733
29.88000 44.478
29.92000 41.585
29.96000 44.456
30.00000 44.061
30.04000 46.802
30.08000 50.559
30.12000 44.641
30.16000 46.741
30.20000 44.792
30.24000 40.686
30.28000 33.196
30.32000 44.607
30.36000 35.697
30.40000 32.669
30.44000 35.652
30.48000 49.485
30.52000 43.697
30.56000 36.680
30.60000 40.710
30.64000 53.474
30.68000 29.435
30.72000 38.771
30.76000 37.691
30.80000 50.659
30.84000 38.528
30.88000 38.473
30.92000 39.510
30.96000 41.797
31.00000 35.324
31.04000 28.306
31.08000 24.174
31.12000 32.374
31.16000 39.504
31.20000 31.341
31.24000 43.357
31.28000 36.408
31.32000 44.852
31.36000 37.587
31.40000 32.418
31.44000 39.668
31.48000 30.407
31.52000 34.591
31.56000 30.419
31.60000 33.568
31.64000 28.235
31.68000 36.668
31.72000 34.377
31.76000 20.219
31.80000 27.481
31.84000 29.299
31.88000 27.288
31.92000 29.459
31.96000 27.108
32.00000 32.321
32.04000 27.288
32.08000 31.264
32.12000 23.293
32.16000 30.532
32.20000 22.456
32.24000 32.386
32.28000 26.389
32.32000 34.376
32.36000 33.370
32.40000 37.516
32.44000 24.232
32.48000 31.300
32.52000 26.170
32.56000 31.388
32.60000 30.673
32.64000 28.367
32.68000 26.370
32.72000 23.376
32.76000 16.251
32.80000 35.214
32.84000 19.324
32.88000 21.292
32.92000 27.496
32.96000 25.256
33.00000 19.041
33.04000 28.278
33.08000 21.153
33.12000 23.158
33.16000 24.356
33.20000 23.245
33.24000 19.273
33.28000 29.646
33.32000 17.255
33.36000 23.348
33.40000 20.108
33.44000 21.299
33.48000 19.240
33.52000 12.137
33.56000 18.236
33.60000 27.258
33.64000 29.502
33.68000 22.205
33.72000 18.207
33.76000 15.276
33.80000 18.297
33.84000 11.114
33.88000 19.132
33.92000 12.328
33.96000 25.385
34.00000 18.456
34.04000 25.423
34.08000 20.412
34.12000 19.200
34.16000 26.329
34.20000 18.095
34.24000 20.226
34.28000 22.276
34.32000 17.334
34.36000 20.341
34.40000 24.304
34.44000 20.361
34.48000 21.192
34.52000 22.173
34.56000 28.473
34.60000 24.218
34.64000 20.327
34.68000 20.357
34.72000 21.307
34.76000 19.347
34.80000 24.283
34.84000 18.425
34.88000 17.147
34.92000 14.222
34.96000 19.211
35.00000 17.161
35.04000 13.110
35.08000 17.049
35.12000 12.056
35.16000 15.256
35.20000 25.328
35.24000 12.163
35.28000 17.297
35.32000 22.333
35.36000 15.160
35.40000 25.401
35.44000 13.283
35.48000 16.082
35.52000 11.265
35.56000 22.282
35.60000 18.505
35.64000 21.036
35.68000 23.178
35.72000 18.233
35.76000 12.150
35.80000 21.300
35.84000 15.239
35.88000 17.447
35.92000 16.305
35.96000 16.232
36.00000 15.076
36.04000 20.175
36.08000 12.164
36.12000 12.116
36.16000 31.321
36.20000 19.299
36.24000 25.418
36.28000 16.029
36.32000 14.119
36.36000 17.241
36.40000 19.116
36.44000 15.262
36.48000 11.176
36.52000 20.404
36.56000 17.140
36.60000 16.164
36.64000 20.180
36.68000 25.238
36.72000 22.277
36.76000 18.121
36.80000 21.279
36.84000 21.235
36.88000 22.369
36.92000 14.290
36.96000 18.375
37.00000 16.282
37.04000 22.211
37.08000 26.093
37.12000 15.319
37.16000 18.210
37.20000 15.123
37.24000 16.133
37.28000 23.268
37.32000 19.220
37.36000 18.394
37.40000 18.332
37.44000 21.380
37.48000 17.993
37.52000 25.129
37.56000 17.254
37.60000 24.095
37.64000 20.417
37.68000 22.331
37.72000 24.198
37.76000 23.188
37.80000 15.198
37.84000 14.107
37.88000 20.228
37.92000 20.263
37.96000 25.250
38.00000 22.282
38.04000 20.059
38.08000 16.231
38.12000 23.287
38.16000 23.132
38.20000 23.271
38.24000 23.197
38.28000 15.166
38.32000 19.285
38.36000 15.031
38.40000 11.164
38.44000 28.348
38.48000 22.449
38.52000 15.269
38.56000 23.224
38.60000 25.069
38.64000 22.317
38.68000 22.405
38.72000 22.230
38.76000 16.188
38.80000 19.408
38.84000 27.396
38.88000 23.260
38.92000 23.293
38.96000 19.210
39.00000 22.344
39.04000 26.580
39.08000 27.451
39.12000 15.197
39.16000 22.497
39.20000 19.290
39.24000 22.341
39.28000 27.503
39.32000 21.218
39.36000 21.460
39.40000 30.376
39.44000 19.149
39.48000 24.334
39.52000 13.154
39.56000 17.364
39.60000 17.203
39.64000 24.256
39.68000 29.440
39.72000 27.201
39.76000 23.393
39.80000 23.260
39.84000 17.280
39.88000 25.203
39.92000 14.993
39.96000 20.300
40.00000 16.105
40.04000 26.376
40.08000 22.472
40.12000 26.536
40.16000 23.496
40.20000 23.197
40.24000 18.332
40.28000 24.288
40.32000 19.225
40.36000 17.188
40.40000 21.209
40.44000 24.341
40.48000 25.373
40.52000 14.082
40.56000 20.160
40.60000 25.395
40.64000 29.063
40.68000 16.156
40.72000 23.354
40.76000 18.428
40.80000 30.451
40.84000 19.169
40.88000 25.349
40.92000 23.237
40.96000 16.407
41.00000 15.337
41.04000 25.574
41.08000 24.355
41.12000 23.290
41.16000 22.180
41.20000 16.296
41.24000 24.380
41.28000 13.103
41.32000 23.227
41.36000 21.304
41.40000 25.322
41.44000 13.095
41.48000 23.317
41.52000 22.484
41.56000 24.331
41.60000 26.367
41.64000 15.056
41.68000 25.414
41.72000 19.319
41.76000 18.446
41.80000 11.137
41.84000 21.198
41.88000 18.290
41.92000 25.529
41.96000 22.356
42.00000 15.332
42.04000 24.243
42.08000 24.235
42.12000 28.178
42.16000 19.391
42.20000 25.396
42.24000 17.282
42.28000 24.460
42.32000 22.324
42.36000 34.187
42.40000 17.193
42.44000 19.049
42.48000 21.106
42.52000 29.365
42.56000 16.245
42.60000 24.271
42.64000 20.585
42.68000 25.148
42.72000 24.314
42.76000 22.117
42.80000 23.219
42.84000 33.975
42.88000 23.167
42.92000 25.467
42.96000 23.176
43.00000 8.140
43.04000 23.334
43.08000 21.365
43.12000 32.437
43.16000 26.337
43.20000 25.346
43.24000 30.556
43.28000 25.372
43.32000 18.085
43.36000 23.221
43.40000 25.431
43.44000 28.313
43.48000 25.337
43.52000 33.499
43.56000 21.070
43.60000 19.349
43.64000 25.243
43.68000 18.278
43.72000 26.325
43.76000 29.361
43.80000 25.348
43.84000 23.276
43.88000 17.125
43.92000 26.382
43.96000 21.346
44.00000 18.121
44.04000 22.404
44.08000 21.319
44.12000 22.309
44.16000 25.511
44.20000 26.292
44.24000 23.431
44.28000 19.243
44.32000 19.465
44.36000 23.308
44.40000 21.267
44.44000 26.325
44.48000 21.218
44.52000 21.229
44.56000 18.326
44.60000 24.297
44.64000 19.214
44.68000 24.240
44.72000 21.235
44.76000 20.145
44.80000 19.214
44.84000 31.217
44.88000 18.467
44.92000 16.339
44.96000 22.214
45.00000 26.290
45.04000 17.205
45.08000 22.267
45.12000 20.377
45.16000 18.241
45.20000 26.408
45.24000 26.351
45.28000 23.558
45.32000 23.161
45.36000 29.441
45.40000 25.355
45.44000 24.500
45.48000 28.603
45.52000 16.231
45.56000 20.431
45.60000 26.367
45.64000 22.094
45.68000 22.236
45.72000 16.119
45.76000 19.113
45.80000 26.201
45.84000 24.385
45.88000 20.072
45.92000 22.109
45.96000 20.565
46.00000 26.218
46.04000 18.167
46.08000 12.219
46.12000 23.263
46.16000 16.234
46.20000 21.280
46.24000 17.343
46.28000 17.164
46.32000 17.237
46.36000 22.503
46.40000 25.559
46.44000 16.142
46.48000 26.209
46.52000 21.277
46.56000 22.047
46.60000 25.238
46.64000 23.533
46.68000 15.285
46.72000 18.363
46.76000 23.336
46.80000 25.181
46.84000 20.212
46.88000 12.131
46.92000 17.234
46.96000 15.180
47.00000 27.406
47.04000 21.236
47.08000 27.302
47.12000 16.172
47.16000 18.306
47.20000 22.261
47.24000 22.450
47.28000 24.207
47.32000 15.106
47.36000 15.127
47.40000 22.248
47.44000 19.268
47.48000 25.498
47.52000 14.153
47.56000 17.356
47.60000 21.342
47.64000 15.117
47.68000 16.190
47.72000 17.319
47.76000 20.260
47.80000 26.193
47.84000 21.389
47.88000 26.237
47.92000 14.198
47.96000 21.274
48.00000 20.436
48.04000 23.303
48.08000 14.339
48.12000 20.314
48.16000 21.213
48.20000 20.019
48.24000 18.289
48.28000 10.988
48.32000 20.398
48.36000 23.325
48.40000 24.321
48.44000 24.360
48.48000 14.027
48.52000 22.183
48.56000 13.186
48.60000 28.456
48.64000 22.420
48.68000 18.238
48.72000 16.253
48.76000 17.337
48.80000 18.313
48.84000 14.163
48.88000 25.207
48.92000 26.433
48.96000 18.182
49.00000 17.067
49.04000 22.074
49.08000 17.194
49.12000 21.469
49.16000 24.210
49.20000 13.243
49.24000 14.110
49.28000 21.228
49.32000 21.026
49.36000 16.310
49.40000 22.561
49.44000 8.942
49.48000 22.190
49.52000 16.224
49.56000 8.008
49.60000 14.037
49.64000 24.199
49.68000 19.376
49.72000 30.186
49.76000 10.132
49.80000 18.114
49.84000 19.283
49.88000 30.316
49.92000 18.196
49.96000 20.337
50.00000 13.321
50.04000 19.410
50.08000 22.146
50.12000 13.267
50.16000 26.391
50.20000 17.224
50.24000 15.193
50.28000 24.345
50.32000 18.050
50.36000 19.242
50.40000 21.164
50.44000 13.124
50.48000 21.157
50.52000 18.275
50.56000 14.316
50.60000 21.251
50.64000 22.349
50.68000 13.284
50.72000 16.273
50.76000 16.274
50.80000 20.362
50.84000 11.084
50.88000 15.172
50.92000 23.226
50.96000 14.202
51.00000 13.300
51.04000 18.165
51.08000 13.140
51.12000 13.034
51.16000 18.179
51.20000 20.180
51.24000 19.138
51.28000 16.165
51.32000 24.244
51.36000 17.109
51.40000 21.542
51.44000 14.232
51.48000 14.206
51.52000 18.041
51.56000 16.286
51.60000 17.260
51.64000 13.167
51.68000 19.293
51.72000 23.229
51.76000 15.985
51.80000 16.163
51.84000 15.180
51.88000 15.966
51.92000 19.221
51.96000 13.132
52.00000 11.145
52.04000 12.197
52.08000 18.264
52.12000 21.029
52.16000 18.109
52.20000 12.210
52.24000 17.263
52.28000 21.265
52.32000 25.262
52.36000 19.251
52.40000 13.276
52.44000 16.317
52.48000 18.337
52.52000 13.151
52.56000 17.241
52.60000 18.039
52.64000 11.225
52.68000 14.178
52.72000 18.204
52.76000 19.413
52.80000 12.078
52.84000 17.171
52.88000 13.118
52.92000 9.097
52.96000 23.223
53.00000 10.077
53.04000 18.086
53.08000 14.121
53.12000 12.992
53.16000 16.335
53.20000 15.081
53.24000 16.256
53.28000 18.193
53.32000 13.087
53.36000 18.232
53.40000 11.156
53.44000 13.114
53.48000 9.264
53.52000 9.079
53.56000 13.076
53.60000 12.212
53.64000 13.313
53.68000 19.301
53.72000 10.290
53.76000 12.006
53.80000 11.094
53.84000 17.097
53.88000 9.247
53.92000 14.256
53.96000 18.161
54.00000 18.170
54.04000 18.329
54.08000 25.401
54.12000 8.070
54.16000 16.307
54.20000 19.328
54.24000 16.323
54.28000 14.099
54.32000 13.218
54.36000 17.164
54.40000 14.228
54.44000 22.175
54.48000 11.079
54.52000 15.998
54.56000 10.984
54.60000 17.150
54.64000 19.080
54.68000 13.206
54.72000 16.289
54.76000 14.202
54.80000 16.339
54.84000 11.212
54.88000 10.145
54.92000 10.242
54.96000 11.048
55.00000 13.194
55.04000 16.265
55.08000 13.182
55.12000 15.130
55.16000 13.242
55.20000 13.226
55.24000 13.168
55.28000 22.210
55.32000 18.337
55.36000 13.180
55.40000 8.088
55.44000 13.087
55.48000 16.224
55.52000 6.980
55.56000 20.341
55.60000 14.182
55.64000 13.252
55.68000 11.123
55.72000 9.018
55.76000 9.106
55.80000 12.125
55.84000 11.087
55.88000 9.134
55.92000 14.048
55.96000 7.027
56.00000 10.203
56.04000 15.272
56.08000 11.121
56.12000 13.114
56.16000 11.107
56.20000 14.074
56.24000 13.239
56.28000 6.048
56.32000 22.242
56.36000 18.211
56.40000 17.149
56.44000 15.223
56.48000 13.174
56.52000 12.015
56.56000 11.163
56.60000 12.338
56.64000 15.390
56.68000 12.155
56.72000 15.160
56.76000 18.312
56.80000 13.111
56.84000 8.224
56.88000 18.234
56.92000 14.280
56.96000 10.192
57.00000 17.395
57.04000 8.118
57.08000 21.152
57.12000 10.112
57.16000 13.186
57.20000 13.251
57.24000 11.124
57.28000 6.093
57.32000 9.167
57.36000 18.961
57.40000 9.122
57.44000 13.143
57.48000 9.152
57.52000 13.059
57.56000 11.211
57.60000 10.054
57.64000 11.133
57.68000 15.137
57.72000 12.190
57.76000 14.200
57.80000 17.284
57.84000 11.051
57.88000 14.181
57.92000 14.320
57.96000 10.005
58.00000 8.135
58.04000 11.041
58.08000 12.107
58.12000 16.198
58.16000 9.167
58.20000 11.104
58.24000 12.170
58.28000 9.173
58.32000 12.165
58.36000 4.050
58.40000 18.318
58.44000 19.071
58.48000 16.316
58.52000 14.194
58.56000 10.160
58.60000 13.238
58.64000 10.349
58.68000 11.146
58.72000 10.103
58.76000 12.089
58.80000 9.192
58.84000 9.003
58.88000 7.113
58.92000 11.022
58.96000 11.294
59.00000 13.174
59.04000 12.096
59.08000 12.022
59.12000 8.125
59.16000 17.238
59.20000 13.115
59.24000 16.178
59.28000 7.089
59.32000 16.093
59.36000 9.147
59.40000 12.084
59.44000 7.018
59.48000 15.095
59.52000 8.083
59.56000 4.094
59.60000 11.110
59.64000 8.114
59.68000 9.178
59.72000 11.121
59.76000 10.124
59.80000 8.147
59.84000 8.099
59.88000 15.170
59.92000 13.360
59.96000 15.137
60.00000 9.118
60.04000 7.056
60.08000 5.064
60.12000 10.237
60.16000 6.069
60.20000 3.050
60.24000 18.155
60.28000 9.135
60.32000 12.326
60.36000 5.134
60.40000 16.199
60.44000 11.117
60.48000 5.124
60.52000 9.133
60.56000 8.118
60.60000 7.056
60.64000 13.220
60.68000 9.129
60.72000 12.295
60.76000 14.189
60.80000 13.242
60.84000 6.119
60.88000 7.104
60.92000 11.047
60.96000 8.030
61.00000 6.946
61.04000 9.991
61.08000 12.082
61.12000 10.103
61.16000 3.969
61.20000 13.201
61.24000 11.036
61.28000 6.117
61.32000 14.204
61.36000 16.161
61.40000 8.065
61.44000 14.162
61.48000 8.083
61.52000 6.990
61.56000 8.254
61.60000 11.185
61.64000 10.003
61.68000 13.253
61.72000 10.181
61.76000 10.168
61.80000 13.065
61.84000 9.076
61.88000 3.026
61.92000 7.036
61.96000 13.262
62.00000 11.149
62.04000 8.099
62.08000 9.136
62.12000 18.209
62.16000 7.029
62.20000 9.130
62.24000 10.280
62.28000 6.104
62.32000 10.168
62.36000 9.092
62.40000 7.983
62.44000 12.285
62.48000 7.008
62.52000 9.087
62.56000 7.049
62.60000 9.020
62.64000 6.111
62.68000 7.003
62.72000 8.179
62.76000 11.252
62.80000 14.109
62.84000 11.217
62.88000 8.024
62.92000 12.071
62.96000 13.093
63.00000 7.122
63.04000 7.015
63.08000 9.117
63.12000 7.205
63.16000 10.244
63.20000 18.287
63.24000 5.105
63.28000 11.012
63.32000 9.013
63.36000 10.154
63.40000 7.119
63.44000 11.017
63.48000 5.193
63.52000 7.038
63.56000 9.084
63.60000 12.326
63.64000 5.060
63.68000 6.143
63.72000 12.156
63.76000 7.150
63.80000 14.306
63.84000 7.166
63.88000 14.253
63.92000 14.223
63.96000 8.195
64.00000 10.122
64.04000 12.087
64.08000 9.047
64.12000 9.101
64.16000 14.979
64.20000 5.009
64.24000 5.083
64.28000 12.240
64.32000 11.094
64.36000 9.122
64.40000 7.076
64.44000 7.138
64.48000 9.040
64.52000 10.064
64.56000 10.071
64.60000 13.281
64.64000 6.073
64.68000 14.180
64.72000 5.005
64.76000 10.211
64.80000 12.141
64.84000 10.106
64.88000 4.013
64.92000 4.992
64.96000 16.089
65.00000 5.018