File: XRD/11-09-2025/XY Data/01092025_BTO_deposition_001_02_-9-010_4-339.xy
20.00000 9.288
20.04000 7.213
20.08000 9.291
20.12000 5.207
20.16000 6.194
20.20000 6.177
20.24000 7.207
20.28000 8.232
20.32000 9.355
20.36000 8.320
20.40000 8.403
20.44000 8.274
20.48000 10.370
20.52000 8.223
20.56000 9.293
20.60000 9.284
20.64000 14.336
20.68000 5.165
20.72000 13.307
20.76000 13.431
20.80000 10.378
20.84000 11.294
20.88000 7.188
20.92000 8.278
20.96000 13.440
21.00000 14.434
21.04000 8.218
21.08000 8.190
21.12000 11.335
21.16000 9.228
21.20000 6.204
21.24000 6.169
21.28000 13.471
21.32000 9.272
21.36000 11.459
21.40000 7.179
21.44000 14.490
21.48000 5.148
21.52000 2.046
21.56000 9.422
21.60000 11.396
21.64000 7.222
21.68000 9.278
21.72000 8.320
21.76000 13.554
21.80000 9.258
21.84000 3.147
21.88000 7.126
21.92000 4.167
21.96000 10.369
22.00000 7.184
22.04000 8.164
22.08000 7.227
22.12000 9.345
22.16000 7.273
22.20000 8.347
22.24000 7.140
22.28000 17.444
22.32000 9.382
22.36000 9.242
22.40000 11.468
22.44000 6.157
22.48000 10.276
22.52000 11.246
22.56000 9.296
22.60000 7.133
22.64000 11.323
22.68000 14.468
22.72000 5.107
22.76000 13.445
22.80000 7.163
22.84000 8.274
22.88000 9.274
22.92000 9.281
22.96000 13.397
23.00000 10.336
23.04000 6.249
23.08000 10.357
23.12000 11.514
23.16000 8.194
23.20000 16.604
23.24000 12.419
23.28000 14.296
23.32000 11.382
23.36000 13.405
23.40000 8.282
23.44000 4.146
23.48000 8.096
23.52000 9.313
23.56000 12.274
23.60000 8.325
23.64000 15.505
23.68000 3.066
23.72000 7.216
23.76000 11.292
23.80000 11.336
23.84000 11.490
23.88000 12.425
23.92000 8.383
23.96000 17.671
24.00000 10.351
24.04000 10.274
24.08000 7.209
24.12000 14.478
24.16000 7.246
24.20000 14.485
24.24000 16.414
24.28000 16.399
24.32000 15.428
24.36000 16.511
24.40000 11.299
24.44000 11.276
24.48000 9.388
24.52000 4.137
24.56000 10.368
24.60000 15.457
24.64000 16.349
24.68000 17.431
24.72000 14.432
24.76000 11.333
24.80000 10.262
24.84000 13.388
24.88000 8.234
24.92000 14.523
24.96000 11.356
25.00000 12.444
25.04000 14.345
25.08000 19.590
25.12000 9.359
25.16000 14.629
25.20000 14.683
25.24000 16.635
25.28000 13.397
25.32000 8.286
25.36000 18.599
25.40000 19.666
25.44000 13.467
25.48000 8.322
25.52000 12.450
25.56000 13.269
25.60000 12.430
25.64000 14.526
25.68000 15.542
25.72000 18.583
25.76000 20.623
25.80000 12.232
25.84000 19.793
25.88000 16.619
25.92000 28.875
25.96000 17.666
26.00000 21.635
26.04000 10.129
26.08000 14.438
26.12000 22.811
26.16000 21.728
26.20000 15.619
26.24000 15.415
26.28000 20.577
26.32000 15.491
26.36000 16.482
26.40000 19.606
26.44000 12.408
26.48000 17.673
26.52000 18.706
26.56000 8.229
26.60000 19.628
26.64000 13.272
26.68000 21.774
26.72000 15.436
26.76000 16.636
26.80000 26.765
26.84000 17.546
26.88000 12.358
26.92000 15.512
26.96000 13.480
27.00000 16.476
27.04000 19.500
27.08000 16.628
27.12000 14.468
27.16000 17.502
27.20000 16.585
27.24000 22.750
27.28000 18.609
27.32000 17.441
27.36000 15.354
27.40000 21.615
27.44000 20.776
27.48000 19.804
27.52000 8.319
27.56000 17.348
27.60000 24.658
27.64000 12.465
27.68000 24.949
27.72000 18.687
27.76000 14.437
27.80000 15.563
27.84000 26.778
27.88000 11.308
27.92000 17.523
27.96000 22.848
28.00000 19.671
28.04000 18.560
28.08000 22.705
28.12000 26.808
28.16000 14.483
28.20000 16.426
28.24000 18.657
28.28000 16.585
28.32000 20.903
28.36000 16.664
28.40000 10.283
28.44000 20.838
28.48000 14.454
28.52000 19.537
28.56000 17.500
28.60000 21.705
28.64000 20.651
28.68000 16.533
28.72000 13.664
28.76000 15.539
28.80000 15.416
28.84000 15.513
28.88000 14.345
28.92000 24.657
28.96000 14.471
29.00000 16.545
29.04000 18.364
29.08000 19.694
29.12000 20.812
29.16000 14.418
29.20000 9.238
29.24000 10.234
29.28000 14.451
29.32000 18.641
29.36000 14.475
29.40000 16.585
29.44000 12.501
29.48000 9.336
29.52000 15.588
29.56000 20.674
29.60000 15.401
29.64000 16.690
29.68000 11.375
29.72000 14.450
29.76000 15.545
29.80000 10.282
29.84000 12.548
29.88000 11.335
29.92000 14.466
29.96000 14.507
30.00000 15.419
30.04000 18.427
30.08000 13.316
30.12000 13.388
30.16000 8.239
30.20000 9.434
30.24000 10.335
30.28000 10.261
30.32000 16.461
30.36000 15.504
30.40000 21.820
30.44000 11.399
30.48000 10.289
30.52000 17.472
30.56000 10.335
30.60000 11.248
30.64000 10.230
30.68000 12.443
30.72000 7.259
30.76000 8.226
30.80000 10.348
30.84000 10.259
30.88000 12.467
30.92000 8.254
30.96000 8.258
31.00000 3.111
31.04000 7.211
31.08000 11.431
31.12000 8.214
31.16000 14.586
31.20000 19.596
31.24000 4.270
31.28000 11.325
31.32000 14.492
31.36000 13.258
31.40000 9.362
31.44000 17.581
31.48000 13.316
31.52000 5.059
31.56000 12.529
31.60000 10.277
31.64000 13.269
31.68000 14.392
31.72000 8.309
31.76000 9.361
31.80000 7.226
31.84000 13.423
31.88000 16.614
31.92000 9.341
31.96000 9.378
32.00000 12.562
32.04000 17.654
32.08000 8.234
32.12000 10.235
32.16000 4.132
32.20000 9.295
32.24000 7.407
32.28000 15.489
32.32000 7.294
32.36000 9.315
32.40000 12.299
32.44000 9.301
32.48000 15.524
32.52000 12.348
32.56000 13.398
32.60000 10.364
32.64000 7.190
32.68000 7.209
32.72000 11.211
32.76000 8.364
32.80000 7.200
32.84000 8.192
32.88000 18.732
32.92000 4.152
32.96000 8.227
33.00000 10.239
33.04000 6.251
33.08000 14.327
33.12000 7.189
33.16000 4.053
33.20000 4.216
33.24000 3.198
33.28000 10.368
33.32000 4.132
33.36000 6.153
33.40000 6.129
33.44000 6.089
33.48000 6.138
33.52000 5.123
33.56000 6.301
33.60000 3.149
33.64000 8.288
33.68000 8.205
33.72000 9.191
33.76000 8.269
33.80000 8.412
33.84000 6.187
33.88000 5.139
33.92000 7.166
33.96000 6.150
34.00000 9.196
34.04000 4.083
34.08000 4.149
34.12000 5.258
34.16000 7.300
34.20000 7.303
34.24000 11.304
34.28000 6.091
34.32000 2.037
34.36000 5.214
34.40000 4.067
34.44000 4.066
34.48000 6.154
34.52000 6.266
34.56000 7.234
34.60000 9.390
34.64000 9.205
34.68000 5.157
34.72000 13.588
34.76000 8.237
34.80000 6.153
34.84000 6.270
34.88000 7.280
34.92000 9.152
34.96000 8.216
35.00000 11.325
35.04000 4.099
35.08000 5.196
35.12000 6.164
35.16000 5.146
35.20000 10.357
35.24000 4.200
35.28000 6.196
35.32000 7.208
35.36000 3.112
35.40000 8.318
35.44000 6.190
35.48000 5.132
35.52000 6.128
35.56000 4.136
35.60000 5.268
35.64000 5.163
35.68000 6.179
35.72000 6.281
35.76000 9.322
35.80000 5.195
35.84000 5.206
35.88000 9.394
35.92000 7.263
35.96000 6.078
36.00000 4.065
36.04000 6.134
36.08000 4.123
36.12000 8.319
36.16000 6.099
36.20000 5.112
36.24000 4.134
36.28000 7.253
36.32000 11.298
36.36000 15.324
36.40000 8.137
36.44000 4.058
36.48000 6.175
36.52000 2.041
36.56000 11.275
36.60000 8.249
36.64000 5.130
36.68000 1.064
36.72000 7.289
36.76000 6.134
36.80000 5.176
36.84000 12.336
36.88000 4.195
36.92000 5.256
36.96000 7.206
37.00000 8.291
37.04000 4.092
37.08000 6.189
37.12000 9.246
37.16000 11.486
37.20000 9.315
37.24000 6.241
37.28000 7.191
37.32000 5.091
37.36000 3.040
37.40000 6.249
37.44000 6.303
37.48000 7.251
37.52000 7.267
37.56000 8.178
37.60000 3.234
37.64000 6.147
37.68000 7.323
37.72000 10.255
37.76000 10.222
37.80000 9.295
37.84000 6.175
37.88000 5.308
37.92000 4.133
37.96000 3.065
38.00000 8.184
38.04000 12.413
38.08000 6.269
38.12000 4.138
38.16000 6.222
38.20000 9.204
38.24000 3.050
38.28000 8.188
38.32000 4.086
38.36000 5.209
38.40000 5.109
38.44000 7.369
38.48000 6.215
38.52000 5.226
38.56000 7.187
38.60000 6.208
38.64000 7.239
38.68000 7.213
38.72000 7.277
38.76000 7.208
38.80000 6.310
38.84000 9.176
38.88000 4.079
38.92000 9.490
38.96000 8.329
39.00000 5.201
39.04000 10.516
39.08000 5.084
39.12000 9.229
39.16000 7.137
39.20000 1.019
39.24000 8.319
39.28000 4.149
39.32000 5.206
39.36000 7.248
39.40000 5.163
39.44000 6.227
39.48000 6.266
39.52000 7.283
39.56000 6.258
39.60000 4.113
39.64000 4.171
39.68000 6.178
39.72000 4.156
39.76000 9.263
39.80000 5.253
39.84000 7.297
39.88000 3.024
39.92000 10.255
39.96000 11.506
40.00000 10.280
40.04000 14.460
40.08000 8.226
40.12000 5.163
40.16000 9.308
40.20000 10.242
40.24000 6.212
40.28000 5.152
40.32000 6.269
40.36000 7.196
40.40000 6.177
40.44000 9.380
40.48000 8.381
40.52000 2.107
40.56000 6.142
40.60000 7.346
40.64000 4.076
40.68000 9.241
40.72000 6.258
40.76000 5.131
40.80000 5.098
40.84000 3.039
40.88000 3.049
40.92000 2.025
40.96000 4.089
41.00000 5.035
41.04000 6.070
41.08000 9.364
41.12000 7.092
41.16000 5.206
41.20000 11.495
41.24000 6.223
41.28000 9.256
41.32000 14.452
41.36000 7.318
41.40000 7.131
41.44000 11.471
41.48000 5.105
41.52000 6.273
41.56000 12.439
41.60000 2.048
41.64000 6.285
41.68000 4.075
41.72000 6.254
41.76000 12.360
41.80000 4.035
41.84000 12.474
41.88000 7.331
41.92000 3.092
41.96000 10.325
42.00000 5.148
42.04000 6.189
42.08000 10.196
42.12000 7.278
42.16000 3.080
42.20000 12.468
42.24000 8.144
42.28000 8.276
42.32000 6.278
42.36000 9.280
42.40000 7.226
42.44000 7.270
42.48000 7.195
42.52000 8.264
42.56000 6.259
42.60000 5.187
42.64000 6.193
42.68000 6.307
42.72000 9.419
42.76000 11.375
42.80000 6.214
42.84000 3.145
42.88000 9.302
42.92000 4.086
42.96000 11.416
43.00000 7.215
43.04000 3.034
43.08000 7.252
43.12000 5.166
43.16000 4.061
43.20000 9.113
43.24000 2.080
43.28000 8.239
43.32000 8.148
43.36000 7.148
43.40000 6.200
43.44000 6.020
43.48000 1.044
43.52000 6.183
43.56000 3.140
43.60000 5.122
43.64000 8.266
43.68000 3.094
43.72000 4.153
43.76000 10.334
43.80000 7.243
43.84000 3.091
43.88000 8.296
43.92000 4.128
43.96000 9.262
44.00000 8.262
44.04000 8.399
44.08000 9.262
44.12000 9.342
44.16000 6.174
44.20000 9.226
44.24000 5.085
44.28000 8.302
44.32000 5.125
44.36000 7.230
44.40000 9.315
44.44000 7.295
44.48000 11.483
44.52000 3.056
44.56000 3.074
44.60000 7.197
44.64000 6.220
44.68000 10.266
44.72000 3.076
44.76000 4.126
44.80000 7.249
44.84000 4.078
44.88000 7.164
44.92000 8.214
44.96000 3.069
45.00000 7.137
45.04000 6.151
45.08000 9.200
45.12000 6.207
45.16000 4.165
45.20000 11.278
45.24000 8.297
45.28000 6.159
45.32000 7.344
45.36000 8.242
45.40000 5.193
45.44000 8.196
45.48000 10.263
45.52000 12.649
45.56000 8.130
45.60000 3.096
45.64000 4.126
45.68000 8.210
45.72000 12.507
45.76000 4.101
45.80000 5.039
45.84000 9.200
45.88000 8.220
45.92000 9.365
45.96000 3.110
46.00000 6.185
46.04000 7.192
46.08000 8.200
46.12000 10.350
46.16000 4.145
46.20000 8.327
46.24000 6.235
46.28000 8.189
46.32000 7.281
46.36000 6.234
46.40000 10.216
46.44000 12.411
46.48000 8.174
46.52000 5.166
46.56000 7.226
46.60000 5.121
46.64000 3.048
46.68000 8.172
46.72000 5.091
46.76000 7.164
46.80000 12.484
46.84000 5.131
46.88000 9.210
46.92000 6.232
46.96000 5.161
47.00000 6.252
47.04000 5.125
47.08000 7.293
47.12000 6.164
47.16000 9.394
47.20000 3.111
47.24000 9.196
47.28000 5.164
47.32000 4.058
47.36000 8.229
47.40000 6.168
47.44000 9.245
47.48000 5.147
47.52000 9.306
47.56000 6.163
47.60000 7.329
47.64000 6.266
47.68000 6.247
47.72000 6.141
47.76000 5.108
47.80000 13.381
47.84000 7.200
47.88000 8.359
47.92000 2.037
47.96000 2.102
48.00000 7.281
48.04000 8.288
48.08000 5.154
48.12000 4.124
48.16000 5.118
48.20000 6.197
48.24000 8.126
48.28000 7.259
48.32000 4.125
48.36000 6.128
48.40000 11.407
48.44000 6.160
48.48000 8.168
48.52000 5.148
48.56000 7.171
48.60000 6.181
48.64000 9.358
48.68000 9.301
48.72000 0.997
48.76000 6.207
48.80000 5.080
48.84000 3.075
48.88000 10.410
48.92000 4.063
48.96000 5.183
49.00000 5.132
49.04000 6.136
49.08000 5.115
49.12000 6.214
49.16000 4.189
49.20000 5.192
49.24000 5.174
49.28000 11.358
49.32000 8.321
49.36000 12.300
49.40000 8.309
49.44000 8.371
49.48000 3.199
49.52000 9.319
49.56000 6.174
49.60000 7.341
49.64000 6.319
49.68000 4.109
49.72000 4.104
49.76000 7.348
49.80000 7.256
49.84000 6.220
49.88000 12.251
49.92000 5.116
49.96000 7.160
50.00000 8.276
50.04000 6.214
50.08000 7.278
50.12000 6.141
50.16000 4.146
50.20000 4.091
50.24000 11.341
50.28000 10.344
50.32000 5.208
50.36000 7.301
50.40000 8.250
50.44000 5.241
50.48000 7.236
50.52000 4.164
50.56000 5.108
50.60000 3.066
50.64000 9.201
50.68000 2.040
50.72000 6.250
50.76000 10.171
50.80000 8.174
50.84000 12.359
50.88000 4.137
50.92000 5.129
50.96000 9.347
51.00000 9.413
51.04000 4.103
51.08000 10.335
51.12000 9.465
51.16000 10.379
51.20000 4.155
51.24000 9.310
51.28000 4.118
51.32000 7.321
51.36000 5.059
51.40000 4.010
51.44000 5.186
51.48000 7.321
51.52000 4.178
51.56000 4.148
51.60000 6.150
51.64000 15.321
51.68000 5.152
51.72000 3.145
51.76000 3.115
51.80000 14.485
51.84000 6.227
51.88000 10.367
51.92000 11.430
51.96000 5.080
52.00000 6.205
52.04000 8.241
52.08000 7.308
52.12000 8.279
52.16000 7.144
52.20000 9.263
52.24000 9.253
52.28000 0.000
52.32000 3.093
52.36000 4.157
52.40000 7.210
52.44000 5.120
52.48000 3.170
52.52000 8.194
52.56000 7.303
52.60000 8.244
52.64000 8.334
52.68000 9.378
52.72000 7.200
52.76000 6.208
52.80000 5.151
52.84000 9.239
52.88000 5.176
52.92000 7.223
52.96000 5.170
53.00000 6.215
53.04000 15.314
53.08000 4.081
53.12000 10.222
53.16000 11.391
53.20000 10.308
53.24000 11.517
53.28000 4.155
53.32000 6.210
53.36000 8.221
53.40000 11.495
53.44000 27.866
53.48000 42.238
53.52000 139.402
53.56000 232.634
53.60000 377.790
53.64000 453.246
53.68000 540.418
53.72000 551.540
53.76000 553.247
53.80000 492.583
53.84000 374.262
53.88000 279.917
53.92000 196.607
53.96000 91.206
54.00000 23.621
54.04000 11.374
54.08000 5.127
54.12000 9.288
54.16000 8.200
54.20000 12.369
54.24000 9.283
54.28000 10.360
54.32000 10.224
54.36000 5.078
54.40000 10.371
54.44000 11.241
54.48000 9.369
54.52000 7.298
54.56000 7.348
54.60000 6.148
54.64000 10.410
54.68000 8.269
54.72000 17.538
54.76000 7.234
54.80000 14.819
54.84000 16.452
54.88000 9.273
54.92000 18.658
54.96000 16.371
55.00000 16.666
55.04000 13.630
55.08000 16.492
55.12000 21.687
55.16000 15.432
55.20000 14.576
55.24000 14.361
55.28000 10.388
55.32000 14.598
55.36000 18.502
55.40000 14.449
55.44000 14.327
55.48000 15.455
55.52000 21.873
55.56000 18.695
55.60000 15.434
55.64000 14.428
55.68000 14.374
55.72000 28.887
55.76000 14.453
55.80000 21.793
55.84000 11.465
55.88000 16.511
55.92000 15.424
55.96000 9.179
56.00000 15.560
56.04000 19.639
56.08000 13.290
56.12000 6.233
56.16000 8.311
56.20000 13.712
56.24000 12.491
56.28000 11.292
56.32000 12.415
56.36000 10.286
56.40000 13.405
56.44000 12.499
56.48000 10.324
56.52000 6.175
56.56000 8.232
56.60000 9.227
56.64000 6.110
56.68000 14.435
56.72000 11.197
56.76000 6.153
56.80000 6.210
56.84000 8.186
56.88000 6.302
56.92000 6.204
56.96000 5.115
57.00000 5.171
57.04000 17.587
57.08000 8.201
57.12000 6.191
57.16000 13.593
57.20000 4.135
57.24000 16.581
57.28000 4.141
57.32000 6.147
57.36000 11.365
57.40000 8.365
57.44000 4.140
57.48000 8.279
57.52000 5.247
57.56000 10.314
57.60000 5.166
57.64000 6.264
57.68000 11.170
57.72000 6.172
57.76000 9.349
57.80000 7.310
57.84000 6.356
57.88000 4.239
57.92000 9.353
57.96000 4.142
58.00000 6.173
58.04000 11.359
58.08000 12.335
58.12000 7.211
58.16000 7.165
58.20000 3.054
58.24000 6.121
58.28000 3.145
58.32000 9.253
58.36000 8.256
58.40000 3.120
58.44000 8.231
58.48000 3.126
58.52000 3.130
58.56000 8.162
58.60000 6.145
58.64000 3.092
58.68000 6.257
58.72000 7.278
58.76000 5.189
58.80000 5.194
58.84000 3.130
58.88000 7.217
58.92000 9.227
58.96000 5.207
59.00000 4.164
59.04000 4.143
59.08000 5.130
59.12000 5.166
59.16000 4.166
59.20000 4.046
59.24000 4.121
59.28000 7.099
59.32000 5.240
59.36000 7.178
59.40000 5.088
59.44000 4.125
59.48000 3.175
59.52000 6.200
59.56000 2.066
59.60000 8.296
59.64000 7.136
59.68000 6.236
59.72000 5.174
59.76000 5.105
59.80000 5.106
59.84000 1.051
59.88000 5.270
59.92000 10.369
59.96000 4.133
60.00000 8.251
60.04000 7.322
60.08000 5.222
60.12000 2.064
60.16000 6.184
60.20000 7.309
60.24000 1.055
60.28000 4.067
60.32000 6.225
60.36000 5.237
60.40000 2.008
60.44000 6.117
60.48000 5.166
60.52000 4.077
60.56000 6.190
60.60000 5.135
60.64000 5.142
60.68000 7.174
60.72000 8.295
60.76000 4.151
60.80000 2.022
60.84000 4.109
60.88000 6.225
60.92000 3.099
60.96000 1.006
61.00000 5.345
61.04000 6.141
61.08000 3.152
61.12000 2.090
61.16000 5.100
61.20000 6.218
61.24000 3.045
61.28000 3.079
61.32000 4.164
61.36000 5.200
61.40000 5.140
61.44000 7.318
61.48000 5.104
61.52000 7.150
61.56000 2.149
61.60000 5.212
61.64000 3.150
61.68000 5.187
61.72000 5.234
61.76000 4.090
61.80000 2.094
61.84000 2.147
61.88000 5.177
61.92000 5.123
61.96000 1.051
62.00000 6.182
62.04000 2.100
62.08000 3.049
62.12000 9.230
62.16000 4.239
62.20000 5.242
62.24000 3.039
62.28000 4.099
62.32000 4.209
62.36000 4.133
62.40000 11.274
62.44000 8.224
62.48000 6.300
62.52000 4.122
62.56000 2.044
62.60000 2.078
62.64000 2.094
62.68000 4.155
62.72000 3.101
62.76000 5.099
62.80000 2.106
62.84000 6.264
62.88000 2.046
62.92000 6.223
62.96000 3.132
63.00000 4.095
63.04000 5.341
63.08000 3.105
63.12000 7.208
63.16000 5.062
63.20000 3.104
63.24000 2.036
63.28000 3.099
63.32000 6.340
63.36000 8.267
63.40000 5.218
63.44000 4.276
63.48000 3.055
63.52000 6.188
63.56000 2.068
63.60000 6.234
63.64000 3.097
63.68000 6.296
63.72000 3.203
63.76000 2.011
63.80000 2.073
63.84000 4.098
63.88000 5.283
63.92000 3.063
63.96000 3.106
64.00000 2.055
64.04000 2.067
64.08000 1.015
64.12000 4.052
64.16000 3.173
64.20000 3.140
64.24000 4.183
64.28000 3.109
64.32000 7.180
64.36000 0.000
64.40000 0.000
64.44000 4.192
64.48000 6.261
64.52000 5.171
64.56000 5.218
64.60000 8.221
64.64000 5.154
64.68000 5.169
64.72000 6.237
64.76000 6.049
64.80000 3.072
64.84000 4.135
64.88000 3.130
64.92000 5.138
64.96000 4.167
65.00000 3.045