File: XRD/11-09-2025/XY Data/01092025_BTO_deposition_001_01_9-010_4-339.xy
20.00000 8.223
20.04000 8.158
20.08000 11.419
20.12000 4.094
20.16000 8.201
20.20000 7.100
20.24000 7.257
20.28000 6.227
20.32000 10.187
20.36000 6.101
20.40000 9.352
20.44000 12.539
20.48000 5.184
20.52000 5.184
20.56000 10.357
20.60000 7.106
20.64000 7.197
20.68000 7.300
20.72000 8.170
20.76000 11.306
20.80000 17.547
20.84000 7.221
20.88000 17.487
20.92000 11.428
20.96000 4.148
21.00000 6.120
21.04000 6.153
21.08000 12.365
21.12000 9.377
21.16000 10.418
21.20000 7.203
21.24000 11.451
21.28000 9.132
21.32000 13.476
21.36000 6.172
21.40000 5.200
21.44000 8.257
21.48000 9.336
21.52000 8.261
21.56000 11.374
21.60000 10.204
21.64000 6.157
21.68000 13.515
21.72000 16.426
21.76000 8.211
21.80000 9.324
21.84000 9.258
21.88000 12.452
21.92000 11.313
21.96000 9.371
22.00000 15.498
22.04000 13.403
22.08000 9.291
22.12000 13.365
22.16000 14.475
22.20000 5.153
22.24000 13.374
22.28000 6.166
22.32000 11.338
22.36000 5.309
22.40000 10.342
22.44000 10.287
22.48000 13.271
22.52000 13.403
22.56000 5.103
22.60000 7.299
22.64000 13.445
22.68000 8.312
22.72000 5.181
22.76000 9.276
22.80000 11.484
22.84000 9.329
22.88000 15.363
22.92000 8.278
22.96000 8.366
23.00000 7.223
23.04000 13.340
23.08000 7.302
23.12000 8.227
23.16000 12.307
23.20000 10.161
23.24000 7.292
23.28000 3.095
23.32000 10.156
23.36000 13.405
23.40000 11.250
23.44000 6.189
23.48000 15.493
23.52000 7.270
23.56000 9.336
23.60000 10.434
23.64000 12.349
23.68000 8.174
23.72000 13.248
23.76000 10.349
23.80000 15.434
23.84000 14.450
23.88000 11.386
23.92000 11.431
23.96000 12.381
24.00000 13.386
24.04000 16.599
24.08000 9.372
24.12000 9.325
24.16000 15.517
24.20000 12.235
24.24000 12.485
24.28000 14.550
24.32000 11.339
24.36000 17.619
24.40000 5.166
24.44000 8.289
24.48000 9.338
24.52000 9.296
24.56000 16.369
24.60000 15.515
24.64000 14.391
24.68000 13.411
24.72000 13.469
24.76000 13.494
24.80000 11.349
24.84000 9.207
24.88000 12.375
24.92000 13.441
24.96000 15.587
25.00000 14.366
25.04000 11.246
25.08000 8.210
25.12000 18.663
25.16000 17.541
25.20000 16.547
25.24000 11.409
25.28000 23.654
25.32000 12.280
25.36000 16.508
25.40000 13.482
25.44000 11.406
25.48000 14.410
25.52000 12.294
25.56000 9.294
25.60000 11.317
25.64000 16.643
25.68000 8.369
25.72000 16.488
25.76000 20.624
25.80000 20.584
25.84000 14.392
25.88000 17.658
25.92000 19.695
25.96000 16.477
26.00000 18.672
26.04000 23.695
26.08000 14.638
26.12000 20.623
26.16000 21.708
26.20000 21.663
26.24000 24.735
26.28000 22.691
26.32000 19.482
26.36000 14.566
26.40000 9.242
26.44000 19.443
26.48000 17.556
26.52000 14.554
26.56000 23.767
26.60000 19.334
26.64000 20.645
26.68000 18.777
26.72000 17.557
26.76000 23.608
26.80000 18.553
26.84000 16.363
26.88000 18.760
26.92000 13.397
26.96000 20.773
27.00000 15.543
27.04000 22.914
27.08000 19.553
27.12000 24.967
27.16000 13.345
27.20000 23.864
27.24000 20.829
27.28000 20.451
27.32000 14.384
27.36000 15.667
27.40000 24.727
27.44000 14.483
27.48000 17.526
27.52000 21.569
27.56000 18.496
27.60000 16.504
27.64000 17.666
27.68000 12.407
27.72000 24.684
27.76000 18.630
27.80000 23.638
27.84000 21.819
27.88000 25.917
27.92000 29.003
27.96000 21.713
28.00000 27.964
28.04000 20.657
28.08000 23.948
28.12000 19.618
28.16000 10.484
28.20000 25.835
28.24000 19.612
28.28000 17.632
28.32000 19.785
28.36000 18.628
28.40000 21.636
28.44000 15.358
28.48000 19.669
28.52000 18.616
28.56000 22.573
28.60000 14.448
28.64000 24.800
28.68000 21.803
28.72000 16.414
28.76000 14.372
28.80000 24.593
28.84000 17.629
28.88000 16.561
28.92000 18.650
28.96000 24.796
29.00000 11.425
29.04000 23.775
29.08000 17.535
29.12000 12.372
29.16000 21.917
29.20000 13.510
29.24000 15.623
29.28000 8.239
29.32000 8.181
29.36000 10.206
29.40000 22.841
29.44000 16.609
29.48000 19.499
29.52000 17.562
29.56000 16.461
29.60000 16.774
29.64000 14.432
29.68000 13.456
29.72000 14.312
29.76000 15.298
29.80000 15.489
29.84000 20.797
29.88000 15.511
29.92000 10.353
29.96000 18.483
30.00000 7.182
30.04000 11.332
30.08000 18.715
30.12000 18.570
30.16000 10.386
30.20000 11.407
30.24000 8.224
30.28000 6.266
30.32000 14.501
30.36000 16.586
30.40000 16.565
30.44000 14.465
30.48000 10.112
30.52000 11.183
30.56000 15.587
30.60000 11.510
30.64000 17.611
30.68000 10.355
30.72000 11.344
30.76000 11.311
30.80000 12.313
30.84000 10.224
30.88000 9.301
30.92000 14.453
30.96000 14.494
31.00000 9.263
31.04000 7.260
31.08000 14.426
31.12000 12.579
31.16000 4.161
31.20000 9.318
31.24000 9.297
31.28000 10.343
31.32000 18.537
31.36000 8.348
31.40000 9.129
31.44000 12.524
31.48000 10.351
31.52000 12.427
31.56000 9.305
31.60000 9.320
31.64000 6.304
31.68000 9.333
31.72000 4.142
31.76000 5.186
31.80000 16.477
31.84000 2.012
31.88000 11.293
31.92000 12.398
31.96000 13.451
32.00000 14.461
32.04000 11.315
32.08000 7.153
32.12000 14.536
32.16000 6.159
32.20000 12.446
32.24000 5.141
32.28000 11.334
32.32000 8.354
32.36000 11.388
32.40000 8.324
32.44000 15.543
32.48000 6.299
32.52000 12.380
32.56000 8.315
32.60000 9.262
32.64000 7.145
32.68000 9.173
32.72000 8.438
32.76000 6.145
32.80000 10.278
32.84000 11.298
32.88000 7.183
32.92000 9.270
32.96000 8.378
33.00000 7.267
33.04000 5.264
33.08000 9.170
33.12000 4.096
33.16000 12.549
33.20000 8.263
33.24000 7.258
33.28000 14.564
33.32000 6.224
33.36000 6.249
33.40000 8.105
33.44000 7.218
33.48000 9.273
33.52000 7.318
33.56000 9.269
33.60000 16.465
33.64000 9.307
33.68000 10.405
33.72000 5.083
33.76000 4.162
33.80000 5.114
33.84000 6.229
33.88000 7.294
33.92000 12.442
33.96000 7.254
34.00000 6.108
34.04000 4.173
34.08000 7.190
34.12000 4.137
34.16000 4.140
34.20000 7.386
34.24000 7.282
34.28000 5.165
34.32000 5.101
34.36000 5.130
34.40000 9.338
34.44000 7.351
34.48000 7.352
34.52000 5.122
34.56000 8.321
34.60000 7.250
34.64000 8.312
34.68000 7.230
34.72000 4.096
34.76000 14.291
34.80000 2.017
34.84000 8.197
34.88000 4.183
34.92000 6.154
34.96000 5.209
35.00000 6.157
35.04000 7.181
35.08000 7.123
35.12000 5.206
35.16000 7.224
35.20000 8.202
35.24000 7.199
35.28000 5.179
35.32000 7.276
35.36000 4.207
35.40000 5.072
35.44000 5.133
35.48000 4.109
35.52000 16.506
35.56000 4.084
35.60000 1.019
35.64000 12.459
35.68000 12.343
35.72000 3.059
35.76000 2.073
35.80000 2.068
35.84000 8.239
35.88000 5.176
35.92000 4.137
35.96000 4.216
36.00000 4.131
36.04000 2.065
36.08000 6.185
36.12000 7.073
36.16000 5.185
36.20000 7.158
36.24000 6.119
36.28000 8.131
36.32000 7.164
36.36000 4.130
36.40000 6.226
36.44000 7.252
36.48000 9.275
36.52000 11.349
36.56000 7.107
36.60000 3.137
36.64000 11.382
36.68000 3.087
36.72000 6.290
36.76000 6.193
36.80000 7.248
36.84000 8.248
36.88000 10.313
36.92000 9.251
36.96000 7.222
37.00000 7.309
37.04000 10.473
37.08000 7.255
37.12000 3.115
37.16000 7.196
37.20000 7.288
37.24000 4.132
37.28000 10.432
37.32000 7.271
37.36000 7.312
37.40000 6.210
37.44000 7.261
37.48000 6.145
37.52000 3.047
37.56000 3.042
37.60000 10.256
37.64000 5.224
37.68000 2.101
37.72000 2.111
37.76000 8.153
37.80000 8.263
37.84000 8.235
37.88000 6.255
37.92000 4.049
37.96000 13.430
38.00000 5.242
38.04000 4.199
38.08000 7.170
38.12000 8.167
38.16000 6.327
38.20000 6.165
38.24000 7.189
38.28000 6.226
38.32000 11.421
38.36000 8.269
38.40000 9.155
38.44000 7.249
38.48000 9.346
38.52000 10.326
38.56000 7.326
38.60000 5.124
38.64000 7.112
38.68000 9.104
38.72000 7.439
38.76000 3.026
38.80000 6.127
38.84000 7.190
38.88000 11.364
38.92000 7.293
38.96000 4.041
39.00000 7.223
39.04000 7.312
39.08000 7.246
39.12000 3.009
39.16000 8.256
39.20000 12.427
39.24000 10.384
39.28000 11.266
39.32000 4.133
39.36000 9.312
39.40000 6.175
39.44000 9.302
39.48000 5.211
39.52000 10.169
39.56000 12.266
39.60000 7.241
39.64000 8.381
39.68000 10.322
39.72000 3.134
39.76000 7.200
39.80000 3.175
39.84000 4.147
39.88000 10.374
39.92000 12.312
39.96000 6.309
40.00000 8.315
40.04000 6.238
40.08000 9.215
40.12000 9.220
40.16000 5.137
40.20000 7.138
40.24000 14.447
40.28000 9.337
40.32000 7.179
40.36000 8.349
40.40000 7.179
40.44000 13.468
40.48000 11.178
40.52000 8.286
40.56000 7.183
40.60000 10.222
40.64000 4.163
40.68000 7.218
40.72000 13.453
40.76000 12.270
40.80000 11.236
40.84000 9.320
40.88000 8.195
40.92000 9.319
40.96000 5.271
41.00000 3.118
41.04000 10.328
41.08000 9.271
41.12000 9.378
41.16000 7.216
41.20000 9.208
41.24000 5.117
41.28000 4.194
41.32000 13.639
41.36000 7.255
41.40000 8.212
41.44000 2.084
41.48000 5.231
41.52000 7.145
41.56000 10.180
41.60000 5.170
41.64000 2.058
41.68000 8.274
41.72000 10.345
41.76000 5.103
41.80000 6.124
41.84000 6.256
41.88000 7.312
41.92000 8.203
41.96000 3.114
42.00000 8.208
42.04000 6.230
42.08000 12.392
42.12000 10.121
42.16000 5.200
42.20000 10.355
42.24000 12.379
42.28000 8.288
42.32000 8.305
42.36000 4.127
42.40000 10.420
42.44000 10.274
42.48000 4.177
42.52000 8.326
42.56000 7.345
42.60000 8.263
42.64000 14.433
42.68000 5.138
42.72000 8.286
42.76000 6.178
42.80000 12.468
42.84000 11.359
42.88000 8.215
42.92000 9.272
42.96000 6.256
43.00000 6.319
43.04000 5.127
43.08000 3.040
43.12000 5.083
43.16000 7.156
43.20000 4.159
43.24000 9.236
43.28000 9.396
43.32000 8.173
43.36000 5.089
43.40000 10.375
43.44000 7.150
43.48000 3.080
43.52000 7.237
43.56000 5.160
43.60000 4.086
43.64000 8.317
43.68000 7.177
43.72000 9.290
43.76000 12.303
43.80000 8.269
43.84000 10.186
43.88000 8.227
43.92000 6.140
43.96000 7.118
44.00000 6.124
44.04000 10.288
44.08000 13.431
44.12000 5.133
44.16000 11.369
44.20000 5.169
44.24000 4.109
44.28000 10.308
44.32000 9.263
44.36000 8.316
44.40000 7.319
44.44000 5.187
44.48000 5.110
44.52000 5.215
44.56000 8.145
44.60000 4.113
44.64000 9.222
44.68000 4.114
44.72000 7.124
44.76000 9.221
44.80000 5.164
44.84000 11.392
44.88000 8.268
44.92000 4.097
44.96000 8.348
45.00000 5.121
45.04000 8.258
45.08000 8.230
45.12000 7.273
45.16000 5.194
45.20000 6.152
45.24000 5.198
45.28000 9.172
45.32000 5.155
45.36000 9.232
45.40000 6.212
45.44000 10.381
45.48000 9.177
45.52000 6.150
45.56000 7.159
45.60000 6.247
45.64000 3.060
45.68000 6.239
45.72000 2.068
45.76000 11.357
45.80000 9.405
45.84000 10.201
45.88000 10.350
45.92000 11.378
45.96000 10.351
46.00000 8.276
46.04000 10.380
46.08000 8.282
46.12000 9.266
46.16000 6.291
46.20000 4.080
46.24000 6.241
46.28000 8.270
46.32000 13.481
46.36000 13.315
46.40000 6.061
46.44000 4.128
46.48000 4.157
46.52000 6.238
46.56000 7.157
46.60000 9.353
46.64000 6.192
46.68000 6.147
46.72000 8.269
46.76000 4.141
46.80000 13.425
46.84000 11.407
46.88000 8.337
46.92000 8.276
46.96000 9.320
47.00000 6.201
47.04000 7.175
47.08000 7.212
47.12000 13.687
47.16000 6.239
47.20000 6.225
47.24000 7.187
47.28000 8.159
47.32000 7.217
47.36000 3.093
47.40000 7.312
47.44000 3.102
47.48000 5.059
47.52000 6.176
47.56000 6.265
47.60000 3.056
47.64000 8.161
47.68000 8.263
47.72000 6.212
47.76000 8.216
47.80000 8.187
47.84000 7.288
47.88000 9.286
47.92000 5.217
47.96000 9.359
48.00000 5.168
48.04000 5.124
48.08000 5.180
48.12000 4.120
48.16000 4.139
48.20000 6.136
48.24000 10.162
48.28000 7.168
48.32000 5.194
48.36000 3.083
48.40000 8.294
48.44000 5.160
48.48000 2.096
48.52000 5.237
48.56000 5.069
48.60000 7.125
48.64000 8.387
48.68000 2.081
48.72000 6.240
48.76000 9.295
48.80000 7.228
48.84000 5.146
48.88000 4.201
48.92000 0.000
48.96000 15.338
49.00000 7.097
49.04000 7.218
49.08000 8.280
49.12000 5.205
49.16000 7.285
49.20000 8.321
49.24000 4.170
49.28000 8.296
49.32000 8.193
49.36000 5.130
49.40000 10.331
49.44000 3.092
49.48000 7.288
49.52000 8.445
49.56000 3.036
49.60000 7.226
49.64000 10.176
49.68000 7.201
49.72000 8.414
49.76000 6.215
49.80000 2.055
49.84000 8.232
49.88000 10.293
49.92000 8.268
49.96000 7.214
50.00000 6.285
50.04000 9.228
50.08000 9.519
50.12000 6.164
50.16000 5.135
50.20000 7.337
50.24000 6.122
50.28000 5.082
50.32000 7.188
50.36000 4.170
50.40000 7.412
50.44000 4.082
50.48000 7.191
50.52000 8.248
50.56000 0.000
50.60000 3.058
50.64000 8.262
50.68000 13.476
50.72000 5.242
50.76000 9.425
50.80000 9.484
50.84000 4.081
50.88000 2.049
50.92000 6.157
50.96000 8.215
51.00000 6.199
51.04000 6.287
51.08000 8.260
51.12000 3.097
51.16000 12.426
51.20000 3.051
51.24000 10.418
51.28000 4.092
51.32000 5.143
51.36000 7.191
51.40000 8.213
51.44000 4.088
51.48000 7.266
51.52000 6.136
51.56000 5.194
51.60000 9.258
51.64000 9.373
51.68000 6.153
51.72000 8.148
51.76000 2.052
51.80000 9.230
51.84000 6.264
51.88000 8.361
51.92000 8.367
51.96000 2.085
52.00000 10.230
52.04000 6.147
52.08000 5.147
52.12000 7.343
52.16000 7.244
52.20000 5.285
52.24000 8.312
52.28000 10.475
52.32000 8.278
52.36000 9.186
52.40000 5.195
52.44000 5.064
52.48000 5.187
52.52000 7.268
52.56000 6.239
52.60000 5.093
52.64000 12.514
52.68000 10.324
52.72000 12.434
52.76000 2.059
52.80000 6.326
52.84000 10.383
52.88000 9.277
52.92000 6.237
52.96000 6.228
53.00000 4.153
53.04000 8.168
53.08000 12.323
53.12000 6.092
53.16000 7.242
53.20000 7.277
53.24000 8.297
53.28000 11.348
53.32000 9.236
53.36000 12.319
53.40000 7.162
53.44000 12.442
53.48000 21.957
53.52000 75.285
53.56000 166.603
53.60000 234.748
53.64000 327.501
53.68000 373.409
53.72000 441.270
53.76000 493.908
53.80000 454.114
53.84000 358.942
53.88000 286.393
53.92000 216.295
53.96000 114.599
54.00000 36.266
54.04000 15.477
54.08000 5.196
54.12000 8.239
54.16000 6.199
54.20000 12.408
54.24000 5.150
54.28000 5.184
54.32000 8.147
54.36000 6.181
54.40000 8.197
54.44000 13.478
54.48000 5.067
54.52000 11.370
54.56000 14.469
54.60000 6.212
54.64000 12.206
54.68000 13.440
54.72000 5.187
54.76000 17.571
54.80000 17.587
54.84000 13.279
54.88000 17.627
54.92000 23.910
54.96000 13.339
55.00000 10.300
55.04000 16.611
55.08000 14.457
55.12000 14.343
55.16000 22.729
55.20000 15.421
55.24000 11.358
55.28000 14.472
55.32000 13.306
55.36000 15.522
55.40000 10.238
55.44000 8.202
55.48000 15.420
55.52000 20.653
55.56000 16.482
55.60000 10.321
55.64000 14.558
55.68000 8.317
55.72000 9.166
55.76000 17.441
55.80000 15.526
55.84000 12.511
55.88000 8.308
55.92000 10.348
55.96000 11.346
56.00000 11.382
56.04000 7.157
56.08000 8.212
56.12000 11.291
56.16000 11.270
56.20000 12.368
56.24000 12.465
56.28000 7.189
56.32000 10.338
56.36000 9.268
56.40000 9.198
56.44000 8.248
56.48000 8.327
56.52000 9.315
56.56000 5.088
56.60000 10.240
56.64000 13.358
56.68000 9.399
56.72000 10.329
56.76000 7.322
56.80000 7.208
56.84000 7.252
56.88000 9.146
56.92000 10.335
56.96000 5.223
57.00000 8.212
57.04000 8.246
57.08000 4.079
57.12000 13.455
57.16000 9.374
57.20000 10.288
57.24000 10.339
57.28000 9.181
57.32000 9.326
57.36000 5.162
57.40000 10.329
57.44000 4.109
57.48000 6.292
57.52000 7.273
57.56000 6.236
57.60000 5.169
57.64000 8.218
57.68000 3.027
57.72000 6.175
57.76000 4.058
57.80000 8.181
57.84000 7.172
57.88000 3.122
57.92000 4.082
57.96000 8.224
58.00000 6.205
58.04000 10.349
58.08000 8.255
58.12000 8.348
58.16000 7.142
58.20000 4.081
58.24000 4.138
58.28000 6.214
58.32000 5.188
58.36000 8.240
58.40000 3.090
58.44000 1.016
58.48000 2.032
58.52000 5.209
58.56000 5.121
58.60000 3.135
58.64000 6.221
58.68000 7.246
58.72000 1.052
58.76000 4.126
58.80000 5.145
58.84000 6.214
58.88000 6.109
58.92000 2.047
58.96000 12.480
59.00000 4.169
59.04000 5.216
59.08000 3.038
59.12000 1.036
59.16000 8.289
59.20000 6.149
59.24000 3.137
59.28000 6.174
59.32000 5.150
59.36000 4.173
59.40000 5.220
59.44000 6.157
59.48000 5.223
59.52000 3.042
59.56000 3.124
59.60000 6.157
59.64000 11.399
59.68000 2.052
59.72000 8.192
59.76000 6.236
59.80000 7.168
59.84000 4.153
59.88000 2.044
59.92000 5.165
59.96000 2.088
60.00000 3.097
60.04000 7.247
60.08000 1.070
60.12000 6.187
60.16000 2.034
60.20000 4.093
60.24000 8.291
60.28000 6.218
60.32000 1.037
60.36000 7.164
60.40000 4.151
60.44000 1.074
60.48000 2.072
60.52000 3.106
60.56000 2.036
60.60000 7.249
60.64000 8.323
60.68000 8.329
60.72000 6.190
60.76000 6.180
60.80000 7.331
60.84000 5.107
60.88000 4.169
60.92000 6.175
60.96000 3.094
61.00000 4.172
61.04000 2.042
61.08000 2.079
61.12000 2.089
61.16000 4.148
61.20000 6.227
61.24000 10.382
61.28000 6.220
61.32000 7.251
61.36000 6.239
61.40000 4.126
61.44000 7.185
61.48000 5.153
61.52000 7.162
61.56000 6.150
61.60000 8.199
61.64000 5.110
61.68000 2.079
61.72000 1.029
61.76000 4.174
61.80000 1.033
61.84000 1.055
61.88000 4.122
61.92000 7.242
61.96000 4.216
62.00000 4.091
62.04000 3.045
62.08000 3.072
62.12000 7.203
62.16000 6.071
62.20000 4.067
62.24000 6.333
62.28000 3.092
62.32000 7.278
62.36000 0.000
62.40000 4.107
62.44000 7.192
62.48000 4.147
62.52000 4.158
62.56000 4.120
62.60000 3.093
62.64000 5.097
62.68000 3.122
62.72000 3.103
62.76000 6.238
62.80000 4.172
62.84000 3.122
62.88000 5.202
62.92000 4.103
62.96000 2.043
63.00000 2.032
63.04000 3.086
63.08000 8.317
63.12000 6.114
63.16000 7.216
63.20000 3.080
63.24000 4.194
63.28000 6.286
63.32000 1.058
63.36000 6.208
63.40000 2.078
63.44000 4.104
63.48000 4.207
63.52000 0.998
63.56000 4.122
63.60000 8.317
63.64000 5.060
63.68000 8.218
63.72000 6.221
63.76000 4.142
63.80000 5.222
63.84000 4.142
63.88000 6.104
63.92000 5.230
63.96000 4.177
64.00000 5.168
64.04000 7.298
64.08000 6.227
64.12000 6.176
64.16000 1.048
64.20000 4.203
64.24000 5.178
64.28000 5.121
64.32000 1.035
64.36000 2.052
64.40000 1.003
64.44000 1.001
64.48000 1.059
64.52000 1.993
64.56000 9.266
64.60000 4.152
64.64000 4.071
64.68000 5.287
64.72000 4.186
64.76000 4.206
64.80000 4.160
64.84000 5.111
64.88000 10.314
64.92000 3.064
64.96000 4.115
65.00000 2.067