File: XRD/11-09-2025/XY Data/01092025_BTO_omega_1_001_30_-12-500_0-000.xy
20.00000 22.275
20.04000 21.165
20.08000 17.145
20.12000 29.499
20.16000 27.321
20.20000 27.499
20.24000 18.234
20.28000 17.228
20.32000 22.270
20.36000 19.159
20.40000 26.418
20.44000 22.256
20.48000 16.299
20.52000 17.139
20.56000 13.095
20.60000 20.165
20.64000 15.373
20.68000 12.268
20.72000 26.343
20.76000 22.392
20.80000 8.201
20.84000 18.238
20.88000 22.348
20.92000 18.351
20.96000 23.352
21.00000 21.177
21.04000 21.189
21.08000 11.199
21.12000 18.265
21.16000 21.139
21.20000 22.112
21.24000 33.559
21.28000 19.299
21.32000 26.385
21.36000 27.270
21.40000 21.376
21.44000 18.083
21.48000 18.265
21.52000 21.257
21.56000 16.221
21.60000 17.089
21.64000 21.100
21.68000 18.233
21.72000 22.489
21.76000 16.122
21.80000 20.235
21.84000 17.138
21.88000 15.359
21.92000 22.317
21.96000 19.065
22.00000 15.153
22.04000 18.111
22.08000 19.224
22.12000 24.421
22.16000 20.274
22.20000 13.366
22.24000 19.141
22.28000 17.286
22.32000 20.197
22.36000 18.299
22.40000 20.349
22.44000 16.420
22.48000 12.251
22.52000 23.292
22.56000 23.449
22.60000 20.383
22.64000 20.362
22.68000 21.446
22.72000 13.154
22.76000 24.191
22.80000 16.276
22.84000 19.243
22.88000 19.280
22.92000 22.170
22.96000 22.339
23.00000 24.240
23.04000 19.122
23.08000 23.196
23.12000 16.236
23.16000 20.358
23.20000 25.429
23.24000 29.239
23.28000 16.261
23.32000 25.456
23.36000 28.364
23.40000 27.172
23.44000 23.335
23.48000 13.134
23.52000 32.333
23.56000 19.323
23.60000 22.255
23.64000 23.166
23.68000 17.122
23.72000 22.186
23.76000 22.405
23.80000 21.246
23.84000 22.217
23.88000 28.342
23.92000 28.235
23.96000 22.232
24.00000 23.279
24.04000 18.959
24.08000 20.316
24.12000 17.088
24.16000 27.186
24.20000 22.491
24.24000 25.257
24.28000 26.362
24.32000 31.671
24.36000 24.638
24.40000 24.518
24.44000 27.293
24.48000 34.419
24.52000 37.436
24.56000 18.390
24.60000 18.295
24.64000 25.389
24.68000 30.539
24.72000 26.288
24.76000 25.516
24.80000 28.308
24.84000 43.649
24.88000 27.349
24.92000 29.359
24.96000 35.371
25.00000 23.655
25.04000 16.230
25.08000 30.264
25.12000 38.347
25.16000 25.438
25.20000 25.515
25.24000 35.426
25.28000 22.318
25.32000 30.483
25.36000 26.121
25.40000 29.309
25.44000 30.454
25.48000 27.107
25.52000 28.500
25.56000 32.419
25.60000 35.338
25.64000 30.330
25.68000 34.523
25.72000 35.387
25.76000 50.704
25.80000 30.460
25.84000 32.466
25.88000 34.495
25.92000 28.280
25.96000 28.334
26.00000 33.537
26.04000 30.543
26.08000 35.342
26.12000 37.396
26.16000 32.268
26.20000 32.333
26.24000 40.541
26.28000 30.454
26.32000 36.342
26.36000 40.682
26.40000 46.692
26.44000 46.554
26.48000 38.260
26.52000 35.508
26.56000 31.540
26.60000 46.811
26.64000 35.653
26.68000 32.315
26.72000 37.643
26.76000 31.588
26.80000 36.534
26.84000 35.426
26.88000 25.509
26.92000 41.662
26.96000 25.465
27.00000 31.409
27.04000 41.496
27.08000 35.533
27.12000 29.391
27.16000 34.532
27.20000 57.697
27.24000 33.061
27.28000 26.452
27.32000 34.540
27.36000 32.547
27.40000 35.517
27.44000 40.673
27.48000 37.611
27.52000 37.603
27.56000 42.513
27.60000 37.367
27.64000 38.759
27.68000 38.489
27.72000 35.427
27.76000 39.639
27.80000 41.319
27.84000 44.698
27.88000 29.542
27.92000 34.563
27.96000 41.393
28.00000 48.813
28.04000 50.840
28.08000 42.533
28.12000 39.449
28.16000 32.458
28.20000 36.347
28.24000 39.549
28.28000 34.331
28.32000 32.352
28.36000 30.255
28.40000 48.515
28.44000 40.493
28.48000 25.330
28.52000 45.711
28.56000 39.895
28.60000 27.276
28.64000 43.580
28.68000 27.531
28.72000 46.553
28.76000 30.402
28.80000 35.615
28.84000 32.205
28.88000 34.373
28.92000 45.377
28.96000 32.660
29.00000 22.161
29.04000 32.365
29.08000 34.481
29.12000 20.322
29.16000 35.593
29.20000 47.639
29.24000 25.494
29.28000 40.592
29.32000 35.537
29.36000 29.527
29.40000 33.570
29.44000 28.301
29.48000 29.562
29.52000 27.309
29.56000 31.498
29.60000 27.240
29.64000 26.347
29.68000 31.380
29.72000 32.504
29.76000 28.561
29.80000 26.369
29.84000 26.357
29.88000 29.413
29.92000 30.169
29.96000 20.235
30.00000 28.351
30.04000 27.584
30.08000 25.303
30.12000 15.193
30.16000 22.161
30.20000 30.456
30.24000 21.243
30.28000 28.447
30.32000 24.276
30.36000 36.471
30.40000 20.400
30.44000 23.191
30.48000 18.270
30.52000 24.472
30.56000 34.526
30.60000 29.219
30.64000 17.212
30.68000 32.572
30.72000 30.332
30.76000 22.461
30.80000 31.358
30.84000 17.105
30.88000 25.624
30.92000 28.383
30.96000 23.463
31.00000 25.346
31.04000 25.261
31.08000 30.508
31.12000 25.440
31.16000 31.320
31.20000 21.306
31.24000 19.319
31.28000 28.255
31.32000 12.166
31.36000 16.203
31.40000 24.058
31.44000 15.051
31.48000 13.284
31.52000 29.160
31.56000 18.274
31.60000 30.624
31.64000 20.192
31.68000 32.420
31.72000 19.309
31.76000 21.179
31.80000 33.253
31.84000 21.380
31.88000 17.337
31.92000 18.124
31.96000 18.353
32.00000 15.036
32.04000 23.301
32.08000 25.244
32.12000 30.368
32.16000 29.411
32.20000 25.368
32.24000 24.262
32.28000 34.355
32.32000 26.160
32.36000 34.605
32.40000 26.241
32.44000 26.514
32.48000 27.243
32.52000 14.039
32.56000 25.322
32.60000 22.236
32.64000 24.388
32.68000 25.328
32.72000 17.123
32.76000 20.217
32.80000 23.381
32.84000 16.218
32.88000 14.400
32.92000 14.015
32.96000 21.103
33.00000 16.268
33.04000 11.183
33.08000 22.233
33.12000 11.165
33.16000 13.229
33.20000 22.363
33.24000 12.137
33.28000 21.297
33.32000 16.061
33.36000 15.215
33.40000 14.141
33.44000 21.157
33.48000 12.140
33.52000 12.130
33.56000 16.340
33.60000 18.114
33.64000 13.154
33.68000 10.101
33.72000 9.053
33.76000 14.148
33.80000 10.115
33.84000 23.568
33.88000 20.309
33.92000 16.143
33.96000 23.281
34.00000 21.225
34.04000 16.310
34.08000 14.294
34.12000 15.146
34.16000 13.250
34.20000 14.297
34.24000 15.275
34.28000 10.081
34.32000 12.063
34.36000 20.189
34.40000 7.155
34.44000 18.188
34.48000 14.074
34.52000 17.308
34.56000 17.345
34.60000 7.956
34.64000 10.115
34.68000 18.349
34.72000 17.159
34.76000 10.330
34.80000 12.186
34.84000 12.102
34.88000 10.081
34.92000 12.211
34.96000 19.307
35.00000 19.185
35.04000 19.180
35.08000 11.136
35.12000 18.299
35.16000 15.247
35.20000 17.080
35.24000 13.106
35.28000 15.145
35.32000 13.016
35.36000 12.049
35.40000 13.287
35.44000 17.349
35.48000 17.210
35.52000 10.296
35.56000 14.114
35.60000 13.207
35.64000 11.200
35.68000 7.103
35.72000 15.190
35.76000 6.088
35.80000 13.043
35.84000 9.117
35.88000 15.090
35.92000 12.428
35.96000 13.008
36.00000 14.227
36.04000 16.233
36.08000 11.039
36.12000 13.075
36.16000 19.202
36.20000 20.119
36.24000 21.558
36.28000 11.167
36.32000 9.166
36.36000 12.244
36.40000 16.287
36.44000 19.330
36.48000 15.177
36.52000 14.271
36.56000 7.020
36.60000 18.319
36.64000 21.205
36.68000 14.255
36.72000 14.155
36.76000 18.285
36.80000 14.251
36.84000 18.217
36.88000 11.271
36.92000 10.231
36.96000 16.251
37.00000 19.322
37.04000 15.088
37.08000 11.161
37.12000 18.246
37.16000 21.196
37.20000 11.193
37.24000 10.110
37.28000 19.078
37.32000 18.165
37.36000 10.105
37.40000 10.154
37.44000 13.071
37.48000 9.221
37.52000 18.175
37.56000 15.227
37.60000 11.193
37.64000 23.139
37.68000 13.189
37.72000 11.022
37.76000 14.243
37.80000 11.165
37.84000 9.112
37.88000 14.271
37.92000 15.126
37.96000 14.226
38.00000 21.324
38.04000 14.133
38.08000 13.985
38.12000 22.225
38.16000 14.058
38.20000 13.218
38.24000 10.129
38.28000 10.058
38.32000 9.241
38.36000 12.190
38.40000 12.045
38.44000 12.390
38.48000 10.053
38.52000 13.195
38.56000 14.189
38.60000 17.198
38.64000 6.139
38.68000 19.367
38.72000 9.222
38.76000 10.059
38.80000 19.253
38.84000 13.114
38.88000 12.226
38.92000 13.152
38.96000 18.318
39.00000 20.328
39.04000 14.208
39.08000 20.368
39.12000 17.227
39.16000 14.070
39.20000 7.122
39.24000 17.165
39.28000 9.096
39.32000 14.208
39.36000 16.290
39.40000 14.054
39.44000 11.105
39.48000 15.189
39.52000 17.156
39.56000 10.042
39.60000 14.167
39.64000 17.113
39.68000 11.301
39.72000 20.621
39.76000 11.095
39.80000 14.096
39.84000 12.184
39.88000 13.270
39.92000 20.301
39.96000 14.066
40.00000 14.378
40.04000 16.137
40.08000 23.368
40.12000 11.229
40.16000 19.234
40.20000 13.208
40.24000 22.318
40.28000 17.239
40.32000 13.110
40.36000 12.002
40.40000 19.283
40.44000 14.260
40.48000 17.251
40.52000 9.069
40.56000 24.225
40.60000 7.117
40.64000 21.246
40.68000 22.158
40.72000 13.027
40.76000 17.359
40.80000 12.423
40.84000 21.173
40.88000 18.268
40.92000 18.198
40.96000 21.223
41.00000 10.095
41.04000 17.240
41.08000 15.351
41.12000 13.182
41.16000 19.276
41.20000 13.247
41.24000 14.075
41.28000 6.053
41.32000 17.421
41.36000 10.047
41.40000 15.327
41.44000 22.232
41.48000 13.169
41.52000 15.196
41.56000 9.033
41.60000 13.317
41.64000 15.130
41.68000 11.207
41.72000 12.154
41.76000 12.076
41.80000 19.216
41.84000 14.195
41.88000 18.412
41.92000 16.218
41.96000 18.924
42.00000 15.222
42.04000 15.160
42.08000 14.124
42.12000 24.378
42.16000 16.181
42.20000 13.099
42.24000 10.173
42.28000 14.950
42.32000 18.348
42.36000 13.137
42.40000 15.210
42.44000 16.296
42.48000 16.221
42.52000 14.276
42.56000 24.542
42.60000 14.239
42.64000 19.154
42.68000 13.163
42.72000 10.046
42.76000 17.186
42.80000 20.247
42.84000 22.339
42.88000 12.179
42.92000 12.226
42.96000 10.239
43.00000 16.288
43.04000 12.045
43.08000 15.182
43.12000 12.206
43.16000 20.205
43.20000 10.161
43.24000 13.138
43.28000 20.400
43.32000 18.440
43.36000 17.306
43.40000 14.226
43.44000 12.305
43.48000 20.209
43.52000 18.220
43.56000 13.076
43.60000 18.227
43.64000 20.190
43.68000 17.017
43.72000 20.279
43.76000 16.032
43.80000 15.315
43.84000 19.150
43.88000 13.077
43.92000 11.091
43.96000 12.323
44.00000 20.302
44.04000 15.242
44.08000 16.289
44.12000 18.138
44.16000 14.075
44.20000 20.156
44.24000 11.205
44.28000 11.374
44.32000 21.347
44.36000 12.083
44.40000 14.217
44.44000 21.288
44.48000 12.104
44.52000 13.371
44.56000 12.074
44.60000 16.347
44.64000 15.292
44.68000 9.162
44.72000 15.163
44.76000 17.317
44.80000 16.281
44.84000 9.048
44.88000 14.131
44.92000 14.197
44.96000 10.188
45.00000 12.146
45.04000 18.208
45.08000 10.190
45.12000 13.118
45.16000 16.157
45.20000 9.104
45.24000 18.172
45.28000 16.186
45.32000 8.184
45.36000 20.079
45.40000 16.162
45.44000 15.258
45.48000 14.227
45.52000 17.269
45.56000 12.238
45.60000 13.275
45.64000 11.948
45.68000 13.194
45.72000 12.310
45.76000 16.165
45.80000 14.178
45.84000 15.170
45.88000 7.031
45.92000 18.357
45.96000 14.223
46.00000 10.129
46.04000 13.967
46.08000 15.069
46.12000 15.055
46.16000 13.050
46.20000 19.184
46.24000 16.120
46.28000 11.036
46.32000 18.311
46.36000 15.180
46.40000 10.029
46.44000 15.056
46.48000 16.485
46.52000 17.326
46.56000 15.261
46.60000 17.230
46.64000 15.196
46.68000 16.150
46.72000 14.101
46.76000 12.047
46.80000 15.172
46.84000 17.310
46.88000 21.190
46.92000 18.312
46.96000 20.097
47.00000 17.180
47.04000 16.253
47.08000 18.074
47.12000 10.070
47.16000 13.224
47.20000 14.261
47.24000 8.034
47.28000 13.328
47.32000 10.294
47.36000 11.081
47.40000 11.122
47.44000 18.271
47.48000 16.101
47.52000 15.321
47.56000 12.274
47.60000 10.041
47.64000 10.074
47.68000 13.077
47.72000 13.199
47.76000 26.388
47.80000 13.177
47.84000 10.041
47.88000 18.185
47.92000 19.317
47.96000 16.278
48.00000 10.136
48.04000 12.236
48.08000 8.106
48.12000 18.239
48.16000 6.118
48.20000 18.332
48.24000 14.168
48.28000 12.038
48.32000 5.027
48.36000 9.085
48.40000 13.125
48.44000 11.096
48.48000 12.201
48.52000 11.114
48.56000 12.174
48.60000 21.370
48.64000 16.256
48.68000 12.078
48.72000 16.185
48.76000 21.242
48.80000 9.056
48.84000 17.441
48.88000 24.516
48.92000 12.073
48.96000 9.085
49.00000 17.196
49.04000 13.219
49.08000 20.003
49.12000 20.318
49.16000 8.077
49.20000 16.108
49.24000 9.033
49.28000 18.221
49.32000 12.154
49.36000 19.162
49.40000 10.060
49.44000 13.133
49.48000 15.136
49.52000 12.089
49.56000 15.060
49.60000 14.215
49.64000 10.124
49.68000 10.131
49.72000 9.194
49.76000 16.177
49.80000 12.091
49.84000 9.140
49.88000 7.044
49.92000 16.247
49.96000 11.076
50.00000 13.151
50.04000 21.339
50.08000 14.284
50.12000 17.188
50.16000 10.253
50.20000 19.257
50.24000 11.153
50.28000 12.250
50.32000 16.362
50.36000 11.052
50.40000 9.153
50.44000 14.212
50.48000 16.262
50.52000 17.183
50.56000 13.180
50.60000 10.097
50.64000 17.270
50.68000 10.129
50.72000 12.216
50.76000 14.095
50.80000 10.181
50.84000 9.055
50.88000 9.285
50.92000 10.112
50.96000 8.182
51.00000 20.287
51.04000 12.202
51.08000 14.206
51.12000 17.161
51.16000 10.094
51.20000 11.162
51.24000 16.086
51.28000 11.138
51.32000 12.110
51.36000 21.410
51.40000 12.020
51.44000 13.187
51.48000 8.122
51.52000 13.195
51.56000 8.047
51.60000 16.178
51.64000 9.061
51.68000 12.150
51.72000 13.130
51.76000 15.269
51.80000 11.102
51.84000 14.289
51.88000 20.249
51.92000 10.205
51.96000 13.320
52.00000 8.133
52.04000 12.081
52.08000 18.412
52.12000 16.124
52.16000 6.027
52.20000 8.150
52.24000 9.147
52.28000 9.227
52.32000 6.127
52.36000 13.258
52.40000 17.204
52.44000 11.141
52.48000 9.046
52.52000 16.203
52.56000 8.147
52.60000 9.268
52.64000 11.139
52.68000 7.068
52.72000 12.111
52.76000 13.283
52.80000 7.091
52.84000 15.129
52.88000 15.241
52.92000 10.116
52.96000 6.033
53.00000 7.055
53.04000 16.262
53.08000 14.249
53.12000 18.390
53.16000 13.102
53.20000 10.324
53.24000 10.143
53.28000 16.079
53.32000 7.965
53.36000 12.088
53.40000 8.288
53.44000 16.293
53.48000 11.349
53.52000 8.262
53.56000 10.019
53.60000 15.088
53.64000 6.958
53.68000 18.071
53.72000 13.040
53.76000 3.146
53.80000 5.086
53.84000 15.247
53.88000 15.111
53.92000 13.179
53.96000 7.106
54.00000 15.221
54.04000 9.147
54.08000 9.185
54.12000 14.280
54.16000 9.136
54.20000 9.025
54.24000 13.176
54.28000 13.166
54.32000 11.180
54.36000 13.144
54.40000 8.135
54.44000 19.208
54.48000 10.056
54.52000 10.114
54.56000 11.131
54.60000 11.213
54.64000 10.122
54.68000 10.155
54.72000 8.078
54.76000 9.188
54.80000 11.102
54.84000 15.019
54.88000 4.055
54.92000 10.127
54.96000 10.078
55.00000 5.038
55.04000 8.168
55.08000 12.125
55.12000 7.131
55.16000 6.126
55.20000 13.173
55.24000 9.075
55.28000 7.100
55.32000 8.127
55.36000 11.055
55.40000 18.103
55.44000 6.061
55.48000 7.007
55.52000 8.189
55.56000 13.179
55.60000 7.054
55.64000 12.193
55.68000 14.107
55.72000 12.016
55.76000 9.156
55.80000 13.126
55.84000 7.130
55.88000 10.097
55.92000 11.038
55.96000 5.988
56.00000 10.144
56.04000 7.098
56.08000 6.036
56.12000 5.173
56.16000 13.102
56.20000 7.152
56.24000 12.229
56.28000 12.140
56.32000 11.130
56.36000 10.192
56.40000 6.046
56.44000 5.988
56.48000 17.212
56.52000 9.187
56.56000 9.067
56.60000 6.105
56.64000 12.172
56.68000 9.101
56.72000 11.165
56.76000 9.119
56.80000 9.190
56.84000 4.109
56.88000 14.212
56.92000 6.044
56.96000 12.227
57.00000 12.171
57.04000 8.061
57.08000 13.214
57.12000 16.335
57.16000 12.008
57.20000 6.012
57.24000 16.252
57.28000 10.115
57.32000 13.213
57.36000 14.139
57.40000 16.324
57.44000 4.075
57.48000 8.042
57.52000 10.165
57.56000 5.011
57.60000 10.455
57.64000 18.262
57.68000 11.154
57.72000 11.130
57.76000 12.163
57.80000 12.135
57.84000 6.993
57.88000 15.140
57.92000 5.165
57.96000 8.181
58.00000 12.000
58.04000 6.117
58.08000 6.147
58.12000 10.202
58.16000 7.010
58.20000 15.196
58.24000 13.055
58.28000 11.014
58.32000 9.197
58.36000 6.009
58.40000 4.042
58.44000 7.024
58.48000 2.995
58.52000 10.104
58.56000 9.018
58.60000 10.201
58.64000 8.121
58.68000 7.096
58.72000 10.085
58.76000 9.223
58.80000 7.156
58.84000 9.135
58.88000 8.022
58.92000 7.100
58.96000 7.154
59.00000 10.077
59.04000 14.184
59.08000 7.061
59.12000 4.006
59.16000 11.124
59.20000 7.055
59.24000 8.119
59.28000 10.045
59.32000 15.016
59.36000 11.217
59.40000 7.136
59.44000 8.180
59.48000 8.064
59.52000 5.956
59.56000 12.132
59.60000 8.084
59.64000 11.260
59.68000 15.147
59.72000 8.044
59.76000 6.950
59.80000 9.080
59.84000 5.068
59.88000 6.160
59.92000 8.075
59.96000 9.130
60.00000 5.055
60.04000 3.006
60.08000 14.153
60.12000 10.186
60.16000 5.071
60.20000 4.919
60.24000 5.168
60.28000 8.087
60.32000 10.189
60.36000 11.063
60.40000 9.075
60.44000 9.200
60.48000 13.078
60.52000 10.056
60.56000 6.181
60.60000 11.128
60.64000 5.012
60.68000 9.158
60.72000 6.071
60.76000 6.159
60.80000 4.065
60.84000 8.036
60.88000 7.121
60.92000 9.064
60.96000 8.087
61.00000 10.095
61.04000 10.076
61.08000 8.168
61.12000 4.153
61.16000 2.997
61.20000 6.095
61.24000 5.106
61.28000 9.104
61.32000 4.955
61.36000 7.052
61.40000 8.245
61.44000 11.188
61.48000 1.009
61.52000 8.160
61.56000 14.320
61.60000 8.121
61.64000 8.036
61.68000 7.990
61.72000 8.116
61.76000 7.106
61.80000 4.163
61.84000 6.053
61.88000 8.072
61.92000 10.124
61.96000 11.139
62.00000 5.987
62.04000 9.143
62.08000 9.103
62.12000 6.996
62.16000 14.231
62.20000 12.148
62.24000 7.007
62.28000 11.118
62.32000 7.212
62.36000 7.093
62.40000 9.032
62.44000 6.163
62.48000 6.036
62.52000 8.074
62.56000 9.155
62.60000 8.060
62.64000 5.027
62.68000 5.077
62.72000 13.147
62.76000 7.108
62.80000 9.111
62.84000 9.289
62.88000 9.107
62.92000 8.142
62.96000 9.159
63.00000 7.152
63.04000 5.981
63.08000 6.078
63.12000 7.102
63.16000 6.090
63.20000 6.048
63.24000 6.979
63.28000 7.060
63.32000 11.194
63.36000 11.060
63.40000 4.001
63.44000 4.966
63.48000 7.924
63.52000 4.048
63.56000 8.081
63.60000 8.169
63.64000 10.136
63.68000 13.059
63.72000 2.040
63.76000 6.056
63.80000 8.099
63.84000 12.303
63.88000 9.277
63.92000 7.113
63.96000 7.089
64.00000 6.154
64.04000 6.185
64.08000 5.057
64.12000 2.992
64.16000 8.071
64.20000 3.006
64.24000 4.095
64.28000 14.146
64.32000 10.223
64.36000 8.127
64.40000 7.141
64.44000 7.079
64.48000 10.015
64.52000 4.010
64.56000 10.063
64.60000 6.066
64.64000 16.030
64.68000 8.140
64.72000 7.168
64.76000 5.087
64.80000 6.161
64.84000 5.008
64.88000 14.273
64.92000 7.012
64.96000 8.077
65.00000 6.118