File: XRD/11-09-2025/XY Data/01092025_BTO_omega_1_001_23_11-262_-5-424.xy
20.00000 21.250
20.04000 15.160
20.08000 10.124
20.12000 12.276
20.16000 6.101
20.20000 11.058
20.24000 14.180
20.28000 16.304
20.32000 14.227
20.36000 17.452
20.40000 14.428
20.44000 7.083
20.48000 15.167
20.52000 14.184
20.56000 17.199
20.60000 10.256
20.64000 20.253
20.68000 10.189
20.72000 15.062
20.76000 14.286
20.80000 12.111
20.84000 13.100
20.88000 10.046
20.92000 9.045
20.96000 13.140
21.00000 8.194
21.04000 10.035
21.08000 11.152
21.12000 11.121
21.16000 8.115
21.20000 9.996
21.24000 12.185
21.28000 15.447
21.32000 8.016
21.36000 14.093
21.40000 14.098
21.44000 10.154
21.48000 15.138
21.52000 11.114
21.56000 11.155
21.60000 11.223
21.64000 11.192
21.68000 8.151
21.72000 5.057
21.76000 11.086
21.80000 10.128
21.84000 12.203
21.88000 19.238
21.92000 12.237
21.96000 6.036
22.00000 12.250
22.04000 12.163
22.08000 8.114
22.12000 9.171
22.16000 7.174
22.20000 7.131
22.24000 7.033
22.28000 10.197
22.32000 15.264
22.36000 16.105
22.40000 12.250
22.44000 7.003
22.48000 10.092
22.52000 10.139
22.56000 14.034
22.60000 14.394
22.64000 9.201
22.68000 12.093
22.72000 9.121
22.76000 9.099
22.80000 12.202
22.84000 12.188
22.88000 10.192
22.92000 13.402
22.96000 13.359
23.00000 10.160
23.04000 6.130
23.08000 17.157
23.12000 14.089
23.16000 10.139
23.20000 10.146
23.24000 3.965
23.28000 8.091
23.32000 16.213
23.36000 10.157
23.40000 13.152
23.44000 13.182
23.48000 14.146
23.52000 13.308
23.56000 12.067
23.60000 5.011
23.64000 11.061
23.68000 6.998
23.72000 13.198
23.76000 10.137
23.80000 11.174
23.84000 8.046
23.88000 7.165
23.92000 14.321
23.96000 14.261
24.00000 14.217
24.04000 14.277
24.08000 12.215
24.12000 4.033
24.16000 10.158
24.20000 11.035
24.24000 10.040
24.28000 5.083
24.32000 8.032
24.36000 14.153
24.40000 11.140
24.44000 9.070
24.48000 10.054
24.52000 12.008
24.56000 15.200
24.60000 14.225
24.64000 10.197
24.68000 16.113
24.72000 14.103
24.76000 10.179
24.80000 5.017
24.84000 8.037
24.88000 8.170
24.92000 5.035
24.96000 8.117
25.00000 14.189
25.04000 10.097
25.08000 9.125
25.12000 9.002
25.16000 9.148
25.20000 11.300
25.24000 6.077
25.28000 16.278
25.32000 9.117
25.36000 6.060
25.40000 4.050
25.44000 8.075
25.48000 5.096
25.52000 12.136
25.56000 8.117
25.60000 4.971
25.64000 11.237
25.68000 12.142
25.72000 5.053
25.76000 8.061
25.80000 6.133
25.84000 6.034
25.88000 12.204
25.92000 9.054
25.96000 11.996
26.00000 9.209
26.04000 10.059
26.08000 8.078
26.12000 5.121
26.16000 6.099
26.20000 6.160
26.24000 5.162
26.28000 8.175
26.32000 8.128
26.36000 6.138
26.40000 8.106
26.44000 7.082
26.48000 16.372
26.52000 11.160
26.56000 6.101
26.60000 9.083
26.64000 8.073
26.68000 9.036
26.72000 4.038
26.76000 5.136
26.80000 5.089
26.84000 8.122
26.88000 3.025
26.92000 5.139
26.96000 7.136
27.00000 5.042
27.04000 7.078
27.08000 13.274
27.12000 11.211
27.16000 7.136
27.20000 8.005
27.24000 6.138
27.28000 3.982
27.32000 8.199
27.36000 6.033
27.40000 8.152
27.44000 8.242
27.48000 6.014
27.52000 4.084
27.56000 5.098
27.60000 3.018
27.64000 7.120
27.68000 7.075
27.72000 6.053
27.76000 8.036
27.80000 5.049
27.84000 13.021
27.88000 4.070
27.92000 6.132
27.96000 5.127
28.00000 7.015
28.04000 1.000
28.08000 5.061
28.12000 4.106
28.16000 5.086
28.20000 8.994
28.24000 5.090
28.28000 4.077
28.32000 7.173
28.36000 8.131
28.40000 8.143
28.44000 5.091
28.48000 12.153
28.52000 8.217
28.56000 9.141
28.60000 4.044
28.64000 9.213
28.68000 10.063
28.72000 7.066
28.76000 4.117
28.80000 8.090
28.84000 7.134
28.88000 9.213
28.92000 11.258
28.96000 1.024
29.00000 5.105
29.04000 8.080
29.08000 7.002
29.12000 4.013
29.16000 7.108
29.20000 3.111
29.24000 4.042
29.28000 5.165
29.32000 4.036
29.36000 3.037
29.40000 6.103
29.44000 5.987
29.48000 1.062
29.52000 4.102
29.56000 8.011
29.60000 7.149
29.64000 6.123
29.68000 5.039
29.72000 6.021
29.76000 14.309
29.80000 5.078
29.84000 0.987
29.88000 6.033
29.92000 2.004
29.96000 6.211
30.00000 3.052
30.04000 2.009
30.08000 7.046
30.12000 3.982
30.16000 10.249
30.20000 7.106
30.24000 5.030
30.28000 7.077
30.32000 2.051
30.36000 1.999
30.40000 5.036
30.44000 5.035
30.48000 8.172
30.52000 8.144
30.56000 6.035
30.60000 8.036
30.64000 4.093
30.68000 10.167
30.72000 4.121
30.76000 6.065
30.80000 6.004
30.84000 6.095
30.88000 8.143
30.92000 4.013
30.96000 9.096
31.00000 3.011
31.04000 9.172
31.08000 2.044
31.12000 7.196
31.16000 7.165
31.20000 11.086
31.24000 2.054
31.28000 5.026
31.32000 6.072
31.36000 5.048
31.40000 3.984
31.44000 9.116
31.48000 5.023
31.52000 4.006
31.56000 3.077
31.60000 2.027
31.64000 5.072
31.68000 2.016
31.72000 2.056
31.76000 3.047
31.80000 7.083
31.84000 9.200
31.88000 3.991
31.92000 2.974
31.96000 4.100
32.00000 6.033
32.04000 10.161
32.08000 5.109
32.12000 6.154
32.16000 3.041
32.20000 6.045
32.24000 1.993
32.28000 4.065
32.32000 6.167
32.36000 3.140
32.40000 7.020
32.44000 2.017
32.48000 3.986
32.52000 4.123
32.56000 1.059
32.60000 7.086
32.64000 4.041
32.68000 6.089
32.72000 3.148
32.76000 3.050
32.80000 3.042
32.84000 5.078
32.88000 7.955
32.92000 1.989
32.96000 8.045
33.00000 6.139
33.04000 3.027
33.08000 14.227
33.12000 3.073
33.16000 8.138
33.20000 8.035
33.24000 4.027
33.28000 3.024
33.32000 4.045
33.36000 3.000
33.40000 4.059
33.44000 9.094
33.48000 7.034
33.52000 0.980
33.56000 3.153
33.60000 5.103
33.64000 3.977
33.68000 6.076
33.72000 6.070
33.76000 5.047
33.80000 3.068
33.84000 5.963
33.88000 5.098
33.92000 4.033
33.96000 6.091
34.00000 3.059
34.04000 4.054
34.08000 4.008
34.12000 3.116
34.16000 9.093
34.20000 3.047
34.24000 4.055
34.28000 7.988
34.32000 7.036
34.36000 5.065
34.40000 3.076
34.44000 4.979
34.48000 4.039
34.52000 0.000
34.56000 5.176
34.60000 7.129
34.64000 2.074
34.68000 0.997
34.72000 5.122
34.76000 1.998
34.80000 1.014
34.84000 4.067
34.88000 2.101
34.92000 1.032
34.96000 7.127
35.00000 5.966
35.04000 3.077
35.08000 1.029
35.12000 0.000
35.16000 6.164
35.20000 1.063
35.24000 3.064
35.28000 3.099
35.32000 3.017
35.36000 3.071
35.40000 1.064
35.44000 7.039
35.48000 7.021
35.52000 3.033
35.56000 6.082
35.60000 3.022
35.64000 5.083
35.68000 5.126
35.72000 3.028
35.76000 3.035
35.80000 2.033
35.84000 1.013
35.88000 4.124
35.92000 0.982
35.96000 7.115
36.00000 3.081
36.04000 3.008
36.08000 2.006
36.12000 1.029
36.16000 1.041
36.20000 4.989
36.24000 4.132
36.28000 3.973
36.32000 5.126
36.36000 3.018
36.40000 4.005
36.44000 6.159
36.48000 1.984
36.52000 3.036
36.56000 3.054
36.60000 8.029
36.64000 1.988
36.68000 2.098
36.72000 1.997
36.76000 6.035
36.80000 7.118
36.84000 3.028
36.88000 4.989
36.92000 4.101
36.96000 1.983
37.00000 2.002
37.04000 7.108
37.08000 3.044
37.12000 4.975
37.16000 2.982
37.20000 2.042
37.24000 0.000
37.28000 1.967
37.32000 2.965
37.36000 1.048
37.40000 4.099
37.44000 4.997
37.48000 4.098
37.52000 3.105
37.56000 2.013
37.60000 2.066
37.64000 2.034
37.68000 6.043
37.72000 2.061
37.76000 3.094
37.80000 2.032
37.84000 2.027
37.88000 3.118
37.92000 3.100
37.96000 9.258
38.00000 4.008
38.04000 1.993
38.08000 1.024
38.12000 4.092
38.16000 7.111
38.20000 2.030
38.24000 4.081
38.28000 4.019
38.32000 3.040
38.36000 2.988
38.40000 3.013
38.44000 3.031
38.48000 8.056
38.52000 1.025
38.56000 1.005
38.60000 3.052
38.64000 6.046
38.68000 5.125
38.72000 4.024
38.76000 7.089
38.80000 4.117
38.84000 6.151
38.88000 3.018
38.92000 4.073
38.96000 5.042
39.00000 3.104
39.04000 0.000
39.08000 5.102
39.12000 5.024
39.16000 6.145
39.20000 1.036
39.24000 1.003
39.28000 4.058
39.32000 1.053
39.36000 3.988
39.40000 1.026
39.44000 3.061
39.48000 2.055
39.52000 2.014
39.56000 0.986
39.60000 3.930
39.64000 0.997
39.68000 0.995
39.72000 0.000
39.76000 3.002
39.80000 4.027
39.84000 0.000
39.88000 0.000
39.92000 5.095
39.96000 3.003
40.00000 5.054
40.04000 5.085
40.08000 3.023
40.12000 1.005
40.16000 2.004
40.20000 2.985
40.24000 2.079
40.28000 1.064
40.32000 2.057
40.36000 3.985
40.40000 4.997
40.44000 2.987
40.48000 5.035
40.52000 6.029
40.56000 4.088
40.60000 2.015
40.64000 2.060
40.68000 3.041
40.72000 4.056
40.76000 4.024
40.80000 2.033
40.84000 4.064
40.88000 0.995
40.92000 5.090
40.96000 3.001
41.00000 0.991
41.04000 3.063
41.08000 2.043
41.12000 2.027
41.16000 0.000
41.20000 2.001
41.24000 3.035
41.28000 3.048
41.32000 3.120
41.36000 5.109
41.40000 1.055
41.44000 4.006
41.48000 0.992
41.52000 2.981
41.56000 2.046
41.60000 1.976
41.64000 3.057
41.68000 3.116
41.72000 6.175
41.76000 3.085
41.80000 2.018
41.84000 1.961
41.88000 2.043
41.92000 0.995
41.96000 3.078
42.00000 5.042
42.04000 5.125
42.08000 5.016
42.12000 2.005
42.16000 2.047
42.20000 1.026
42.24000 2.051
42.28000 4.953
42.32000 0.000
42.36000 0.000
42.40000 3.034
42.44000 4.045
42.48000 1.999
42.52000 2.025
42.56000 5.116
42.60000 3.010
42.64000 2.030
42.68000 1.956
42.72000 1.048
42.76000 3.076
42.80000 0.997
42.84000 0.000
42.88000 5.087
42.92000 0.000
42.96000 4.070
43.00000 4.058
43.04000 2.011
43.08000 3.062
43.12000 4.114
43.16000 2.057
43.20000 1.035
43.24000 0.990
43.28000 2.050
43.32000 1.013
43.36000 3.005
43.40000 7.028
43.44000 1.004
43.48000 2.011
43.52000 4.027
43.56000 2.053
43.60000 5.095
43.64000 0.000
43.68000 3.098
43.72000 4.042
43.76000 3.016
43.80000 1.980
43.84000 0.993
43.88000 0.996
43.92000 5.028
43.96000 4.073
44.00000 1.002
44.04000 3.046
44.08000 6.055
44.12000 2.059
44.16000 2.054
44.20000 0.000
44.24000 0.986
44.28000 3.060
44.32000 1.993
44.36000 1.006
44.40000 3.032
44.44000 2.029
44.48000 5.027
44.52000 4.120
44.56000 1.017
44.60000 3.042
44.64000 4.061
44.68000 1.013
44.72000 4.042
44.76000 3.074
44.80000 1.014
44.84000 0.993
44.88000 2.031
44.92000 4.048
44.96000 1.005
45.00000 2.076
45.04000 2.001
45.08000 2.043
45.12000 3.027
45.16000 2.052
45.20000 4.105
45.24000 0.000
45.28000 2.009
45.32000 0.000
45.36000 0.988
45.40000 2.055
45.44000 0.000
45.48000 3.997
45.52000 1.016
45.56000 2.008
45.60000 3.093
45.64000 3.037
45.68000 3.102
45.72000 1.013
45.76000 0.990
45.80000 0.000
45.84000 0.000
45.88000 5.028
45.92000 1.947
45.96000 2.030
46.00000 2.050
46.04000 2.038
46.08000 2.013
46.12000 1.022
46.16000 2.040
46.20000 1.996
46.24000 1.005
46.28000 1.056
46.32000 1.994
46.36000 3.050
46.40000 4.134
46.44000 2.058
46.48000 4.170
46.52000 1.000
46.56000 3.082
46.60000 2.065
46.64000 1.014
46.68000 1.014
46.72000 3.001
46.76000 2.972
46.80000 1.007
46.84000 4.035
46.88000 2.060
46.92000 2.044
46.96000 0.997
47.00000 1.040
47.04000 1.996
47.08000 3.020
47.12000 2.029
47.16000 2.029
47.20000 0.995
47.24000 2.073
47.28000 1.038
47.32000 0.000
47.36000 4.020
47.40000 1.036
47.44000 4.034
47.48000 4.072
47.52000 6.005
47.56000 0.000
47.60000 2.021
47.64000 1.986
47.68000 4.093
47.72000 0.000
47.76000 5.088
47.80000 1.003
47.84000 0.000
47.88000 1.042
47.92000 1.982
47.96000 0.992
48.00000 7.051
48.04000 1.021
48.08000 2.052
48.12000 0.000
48.16000 1.022
48.20000 2.032
48.24000 0.000
48.28000 2.015
48.32000 3.036
48.36000 3.009
48.40000 0.000
48.44000 2.062
48.48000 0.994
48.52000 3.007
48.56000 1.045
48.60000 1.015
48.64000 1.006
48.68000 0.990
48.72000 2.037
48.76000 0.000
48.80000 2.047
48.84000 2.020
48.88000 0.998
48.92000 1.976
48.96000 3.957
49.00000 0.971
49.04000 3.075
49.08000 1.025
49.12000 1.020
49.16000 1.996
49.20000 2.028
49.24000 1.038
49.28000 2.014
49.32000 1.037
49.36000 1.045
49.40000 4.045
49.44000 2.004
49.48000 1.036
49.52000 0.998
49.56000 1.000
49.60000 1.991
49.64000 6.040
49.68000 0.000
49.72000 3.036
49.76000 2.059
49.80000 4.009
49.84000 0.981
49.88000 3.104
49.92000 3.038
49.96000 2.039
50.00000 1.011
50.04000 0.000
50.08000 2.080
50.12000 1.013
50.16000 2.094
50.20000 2.037
50.24000 0.000
50.28000 0.000
50.32000 0.000
50.36000 3.063
50.40000 1.999
50.44000 0.000
50.48000 3.003
50.52000 0.000
50.56000 3.040
50.60000 3.093
50.64000 1.006
50.68000 7.000
50.72000 3.997
50.76000 1.991
50.80000 0.000
50.84000 3.038
50.88000 2.993
50.92000 0.000
50.96000 2.037
51.00000 2.992
51.04000 0.000
51.08000 1.991
51.12000 1.006
51.16000 2.048
51.20000 2.020
51.24000 1.020
51.28000 0.981
51.32000 1.037
51.36000 1.989
51.40000 1.023
51.44000 0.000
51.48000 1.039
51.52000 0.987
51.56000 3.054
51.60000 0.974
51.64000 2.032
51.68000 0.000
51.72000 2.000
51.76000 0.000
51.80000 3.028
51.84000 3.059
51.88000 0.000
51.92000 1.036
51.96000 1.054
52.00000 4.050
52.04000 2.041
52.08000 3.025
52.12000 0.978
52.16000 0.000
52.20000 1.020
52.24000 2.065
52.28000 0.000
52.32000 0.000
52.36000 4.098
52.40000 0.000
52.44000 1.982
52.48000 0.000
52.52000 1.015
52.56000 1.994
52.60000 1.023
52.64000 0.000
52.68000 6.034
52.72000 0.000
52.76000 0.000
52.80000 1.027
52.84000 1.057
52.88000 2.004
52.92000 1.006
52.96000 1.017
53.00000 0.000
53.04000 1.001
53.08000 3.003
53.12000 0.000
53.16000 2.041
53.20000 2.056
53.24000 3.021
53.28000 1.033
53.32000 0.000
53.36000 0.985
53.40000 1.047
53.44000 0.000
53.48000 3.027
53.52000 2.060
53.56000 0.000
53.60000 0.000
53.64000 0.000
53.68000 1.021
53.72000 0.000
53.76000 3.094
53.80000 1.026
53.84000 0.000
53.88000 4.071
53.92000 2.999
53.96000 3.053
54.00000 2.034
54.04000 1.023
54.08000 0.000
54.12000 2.017
54.16000 0.000
54.20000 0.000
54.24000 1.018
54.28000 2.035
54.32000 4.072
54.36000 2.114
54.40000 3.017
54.44000 1.008
54.48000 0.000
54.52000 2.030
54.56000 3.007
54.60000 4.156
54.64000 2.092
54.68000 1.054
54.72000 3.039
54.76000 2.032
54.80000 0.000
54.84000 1.997
54.88000 1.032
54.92000 0.000
54.96000 3.130
55.00000 0.000
55.04000 3.022
55.08000 0.000
55.12000 1.981
55.16000 3.085
55.20000 0.988
55.24000 0.000
55.28000 1.051
55.32000 1.974
55.36000 0.984
55.40000 1.055
55.44000 3.014
55.48000 0.996
55.52000 1.024
55.56000 1.017
55.60000 0.000
55.64000 1.000
55.68000 2.003
55.72000 1.977
55.76000 2.996
55.80000 2.072
55.84000 3.984
55.88000 2.036
55.92000 0.000
55.96000 0.000
56.00000 1.042
56.04000 4.063
56.08000 1.024
56.12000 2.024
56.16000 1.039
56.20000 0.000
56.24000 1.975
56.28000 1.002
56.32000 0.986
56.36000 0.974
56.40000 0.000
56.44000 2.034
56.48000 1.006
56.52000 2.058
56.56000 1.040
56.60000 0.000
56.64000 1.021
56.68000 0.982
56.72000 1.045
56.76000 0.000
56.80000 1.011
56.84000 3.040
56.88000 1.045
56.92000 2.009
56.96000 0.000
57.00000 0.982
57.04000 3.031
57.08000 1.011
57.12000 1.017
57.16000 3.021
57.20000 0.999
57.24000 2.071
57.28000 2.019
57.32000 1.007
57.36000 2.019
57.40000 2.004
57.44000 2.045
57.48000 0.000
57.52000 1.008
57.56000 2.986
57.60000 0.000
57.64000 1.057
57.68000 1.030
57.72000 1.000
57.76000 2.038
57.80000 0.000
57.84000 2.022
57.88000 0.000
57.92000 0.000
57.96000 3.010
58.00000 2.073
58.04000 1.992
58.08000 0.000
58.12000 3.018
58.16000 1.001
58.20000 2.976
58.24000 1.985
58.28000 0.976
58.32000 3.028
58.36000 0.000
58.40000 3.060
58.44000 0.000
58.48000 1.996
58.52000 3.057
58.56000 0.000
58.60000 0.991
58.64000 1.996
58.68000 1.988
58.72000 0.990
58.76000 1.017
58.80000 1.024
58.84000 3.042
58.88000 4.069
58.92000 4.061
58.96000 1.033
59.00000 2.980
59.04000 0.000
59.08000 1.991
59.12000 0.000
59.16000 2.025
59.20000 0.984
59.24000 4.029
59.28000 0.000
59.32000 0.000
59.36000 3.099
59.40000 0.000
59.44000 2.978
59.48000 1.048
59.52000 0.000
59.56000 1.987
59.60000 0.000
59.64000 0.000
59.68000 0.990
59.72000 1.017
59.76000 5.059
59.80000 0.000
59.84000 0.999
59.88000 0.000
59.92000 3.030
59.96000 0.999
60.00000 2.016
60.04000 1.012
60.08000 4.074
60.12000 2.040
60.16000 1.012
60.20000 2.040
60.24000 0.999
60.28000 3.052
60.32000 3.090
60.36000 1.994
60.40000 1.969
60.44000 0.000
60.48000 0.000
60.52000 0.977
60.56000 1.000
60.60000 0.000
60.64000 2.066
60.68000 4.028
60.72000 0.000
60.76000 2.025
60.80000 2.011
60.84000 0.000
60.88000 0.000
60.92000 2.057
60.96000 4.035
61.00000 1.014
61.04000 0.000
61.08000 5.020
61.12000 0.000
61.16000 1.015
61.20000 0.000
61.24000 1.022
61.28000 0.971
61.32000 1.992
61.36000 2.010
61.40000 3.016
61.44000 0.000
61.48000 4.023
61.52000 1.024
61.56000 2.032
61.60000 2.037
61.64000 1.004
61.68000 1.035
61.72000 2.969
61.76000 2.077
61.80000 0.989
61.84000 4.094
61.88000 0.000
61.92000 1.016
61.96000 1.007
62.00000 1.993
62.04000 0.000
62.08000 2.024
62.12000 0.991
62.16000 1.989
62.20000 0.000
62.24000 1.988
62.28000 2.057
62.32000 0.000
62.36000 0.000
62.40000 1.986
62.44000 1.028
62.48000 3.095
62.52000 1.027
62.56000 2.009
62.60000 3.039
62.64000 0.000
62.68000 3.055
62.72000 0.000
62.76000 1.020
62.80000 3.054
62.84000 0.000
62.88000 1.014
62.92000 1.985
62.96000 0.995
63.00000 0.000
63.04000 1.038
63.08000 2.092
63.12000 1.002
63.16000 1.040
63.20000 1.003
63.24000 0.974
63.28000 1.039
63.32000 1.041
63.36000 0.000
63.40000 3.058
63.44000 2.045
63.48000 1.004
63.52000 0.000
63.56000 2.085
63.60000 0.000
63.64000 0.986
63.68000 1.034
63.72000 0.000
63.76000 1.989
63.80000 4.030
63.84000 1.994
63.88000 2.022
63.92000 0.973
63.96000 2.023
64.00000 0.000
64.04000 1.018
64.08000 0.000
64.12000 3.034
64.16000 0.973
64.20000 0.000
64.24000 2.021
64.28000 0.000
64.32000 0.000
64.36000 0.000
64.40000 1.048
64.44000 2.051
64.48000 0.996
64.52000 3.036
64.56000 0.000
64.60000 0.000
64.64000 1.002
64.68000 2.020
64.72000 7.037
64.76000 0.000
64.80000 2.051
64.84000 0.000
64.88000 1.012
64.92000 0.000
64.96000 2.060
65.00000 3.078