File: XRD/11-09-2025/XY Data/01092025_BTO_omega_0_5_001_08_7-794_9-773.xy
20.00000 20.239
20.04000 18.251
20.08000 17.269
20.12000 18.502
20.16000 22.369
20.20000 24.498
20.24000 19.118
20.28000 22.230
20.32000 14.279
20.36000 19.268
20.40000 14.186
20.44000 19.326
20.48000 23.361
20.52000 19.480
20.56000 23.249
20.60000 19.109
20.64000 27.585
20.68000 19.259
20.72000 20.289
20.76000 16.103
20.80000 24.418
20.84000 20.127
20.88000 17.319
20.92000 22.385
20.96000 21.189
21.00000 27.332
21.04000 16.138
21.08000 29.206
21.12000 12.977
21.16000 18.134
21.20000 17.049
21.24000 25.475
21.28000 21.240
21.32000 16.144
21.36000 19.330
21.40000 26.346
21.44000 14.182
21.48000 23.178
21.52000 20.238
21.56000 19.425
21.60000 14.111
21.64000 27.422
21.68000 25.271
21.72000 29.624
21.76000 24.267
21.80000 16.204
21.84000 22.345
21.88000 15.304
21.92000 28.448
21.96000 25.523
22.00000 25.445
22.04000 22.135
22.08000 25.354
22.12000 22.371
22.16000 16.163
22.20000 25.242
22.24000 14.069
22.28000 15.207
22.32000 22.257
22.36000 18.339
22.40000 12.357
22.44000 23.163
22.48000 18.301
22.52000 30.316
22.56000 20.163
22.60000 34.508
22.64000 25.196
22.68000 19.247
22.72000 18.431
22.76000 21.437
22.80000 24.410
22.84000 31.428
22.88000 21.360
22.92000 18.163
22.96000 17.300
23.00000 27.398
23.04000 28.478
23.08000 25.188
23.12000 28.380
23.16000 33.148
23.20000 26.209
23.24000 27.351
23.28000 31.356
23.32000 21.267
23.36000 23.213
23.40000 32.622
23.44000 25.464
23.48000 22.307
23.52000 35.346
23.56000 18.186
23.60000 31.216
23.64000 31.372
23.68000 15.141
23.72000 36.744
23.76000 29.269
23.80000 29.551
23.84000 22.233
23.88000 32.506
23.92000 30.492
23.96000 32.390
24.00000 40.562
24.04000 29.269
24.08000 45.662
24.12000 35.574
24.16000 33.577
24.20000 26.324
24.24000 39.561
24.28000 30.202
24.32000 34.793
24.36000 31.496
24.40000 35.457
24.44000 32.412
24.48000 39.577
24.52000 46.557
24.56000 28.465
24.60000 36.357
24.64000 36.386
24.68000 34.389
24.72000 30.489
24.76000 36.445
24.80000 29.365
24.84000 42.447
24.88000 40.417
24.92000 40.553
24.96000 39.662
25.00000 38.940
25.04000 37.290
25.08000 40.412
25.12000 34.535
25.16000 45.506
25.20000 44.696
25.24000 43.752
25.28000 31.479
25.32000 35.405
25.36000 38.548
25.40000 37.657
25.44000 45.620
25.48000 30.485
25.52000 47.518
25.56000 44.735
25.60000 46.640
25.64000 42.592
25.68000 35.750
25.72000 49.478
25.76000 43.517
25.80000 36.500
25.84000 45.623
25.88000 71.994
25.92000 51.777
25.96000 53.649
26.00000 46.674
26.04000 54.373
26.08000 51.562
26.12000 52.715
26.16000 48.495
26.20000 44.406
26.24000 45.586
26.28000 54.973
26.32000 61.912
26.36000 60.566
26.40000 67.033
26.44000 54.871
26.48000 56.684
26.52000 53.596
26.56000 68.219
26.60000 58.778
26.64000 60.110
26.68000 53.550
26.72000 59.483
26.76000 66.498
26.80000 65.062
26.84000 60.768
26.88000 59.886
26.92000 63.917
26.96000 51.949
27.00000 58.876
27.04000 59.641
27.08000 58.984
27.12000 77.292
27.16000 53.910
27.20000 54.590
27.24000 63.673
27.28000 57.680
27.32000 55.861
27.36000 61.730
27.40000 69.091
27.44000 50.940
27.48000 67.986
27.52000 66.735
27.56000 58.664
27.60000 58.647
27.64000 49.528
27.68000 61.833
27.72000 55.877
27.76000 65.902
27.80000 55.867
27.84000 43.620
27.88000 71.784
27.92000 58.098
27.96000 60.869
28.00000 56.621
28.04000 58.870
28.08000 53.904
28.12000 45.945
28.16000 58.694
28.20000 63.713
28.24000 49.693
28.28000 59.518
28.32000 64.736
28.36000 66.987
28.40000 43.535
28.44000 56.724
28.48000 56.984
28.52000 66.285
28.56000 52.721
28.60000 44.696
28.64000 56.813
28.68000 68.141
28.72000 53.932
28.76000 60.618
28.80000 66.990
28.84000 55.032
28.88000 53.989
28.92000 50.602
28.96000 61.663
29.00000 67.945
29.04000 48.775
29.08000 53.833
29.12000 45.533
29.16000 50.827
29.20000 52.607
29.24000 55.469
29.28000 39.689
29.32000 53.208
29.36000 35.363
29.40000 43.583
29.44000 47.429
29.48000 55.784
29.52000 48.814
29.56000 44.353
29.60000 51.583
29.64000 45.558
29.68000 54.664
29.72000 51.538
29.76000 43.576
29.80000 46.747
29.84000 37.694
29.88000 56.874
29.92000 48.484
29.96000 51.542
30.00000 56.745
30.04000 30.628
30.08000 42.568
30.12000 34.522
30.16000 37.518
30.20000 40.456
30.24000 30.262
30.28000 48.905
30.32000 47.647
30.36000 40.392
30.40000 37.518
30.44000 31.576
30.48000 38.448
30.52000 26.329
30.56000 38.580
30.60000 36.763
30.64000 45.606
30.68000 53.710
30.72000 35.651
30.76000 38.321
30.80000 42.005
30.84000 38.472
30.88000 30.322
30.92000 56.656
30.96000 19.368
31.00000 29.506
31.04000 26.314
31.08000 48.345
31.12000 38.588
31.16000 33.341
31.20000 41.048
31.24000 42.595
31.28000 35.373
31.32000 19.350
31.36000 39.648
31.40000 22.382
31.44000 37.306
31.48000 31.536
31.52000 30.401
31.56000 38.643
31.60000 24.377
31.64000 32.353
31.68000 32.457
31.72000 32.490
31.76000 31.244
31.80000 35.340
31.84000 28.295
31.88000 24.359
31.92000 38.600
31.96000 22.284
32.00000 21.541
32.04000 29.464
32.08000 39.852
32.12000 36.791
32.16000 37.404
32.20000 28.594
32.24000 25.184
32.28000 33.440
32.32000 44.683
32.36000 35.785
32.40000 23.469
32.44000 28.261
32.48000 25.209
32.52000 23.454
32.56000 22.197
32.60000 33.511
32.64000 25.320
32.68000 25.405
32.72000 27.365
32.76000 19.112
32.80000 23.242
32.84000 22.280
32.88000 15.080
32.92000 20.271
32.96000 21.439
33.00000 28.317
33.04000 9.127
33.08000 24.328
33.12000 26.201
33.16000 24.325
33.20000 23.317
33.24000 26.067
33.28000 17.150
33.32000 19.368
33.36000 34.588
33.40000 26.297
33.44000 23.311
33.48000 31.569
33.52000 26.430
33.56000 20.361
33.60000 15.333
33.64000 28.509
33.68000 30.462
33.72000 19.048
33.76000 19.175
33.80000 15.064
33.84000 26.367
33.88000 18.191
33.92000 23.389
33.96000 11.242
34.00000 18.298
34.04000 19.310
34.08000 16.246
34.12000 19.370
34.16000 16.170
34.20000 21.111
34.24000 19.517
34.28000 19.300
34.32000 23.292
34.36000 11.073
34.40000 19.061
34.44000 16.151
34.48000 19.193
34.52000 12.179
34.56000 16.246
34.60000 26.352
34.64000 15.164
34.68000 16.155
34.72000 16.226
34.76000 11.182
34.80000 8.136
34.84000 12.212
34.88000 22.279
34.92000 18.323
34.96000 16.143
35.00000 13.246
35.04000 18.349
35.08000 18.377
35.12000 18.298
35.16000 19.147
35.20000 15.126
35.24000 13.070
35.28000 21.532
35.32000 15.109
35.36000 23.284
35.40000 24.556
35.44000 22.292
35.48000 23.399
35.52000 18.350
35.56000 19.391
35.60000 16.273
35.64000 13.220
35.68000 15.395
35.72000 27.429
35.76000 25.408
35.80000 22.338
35.84000 16.156
35.88000 20.519
35.92000 15.044
35.96000 21.525
36.00000 19.254
36.04000 19.331
36.08000 18.202
36.12000 18.245
36.16000 16.045
36.20000 24.303
36.24000 13.126
36.28000 16.195
36.32000 18.343
36.36000 19.367
36.40000 19.440
36.44000 16.073
36.48000 18.058
36.52000 12.133
36.56000 17.165
36.60000 17.197
36.64000 19.168
36.68000 22.217
36.72000 18.272
36.76000 20.231
36.80000 30.403
36.84000 24.325
36.88000 17.427
36.92000 8.013
36.96000 17.157
37.00000 14.146
37.04000 18.158
37.08000 17.214
37.12000 12.116
37.16000 17.254
37.20000 20.374
37.24000 24.300
37.28000 24.230
37.32000 11.370
37.36000 28.401
37.40000 16.095
37.44000 21.092
37.48000 19.156
37.52000 16.122
37.56000 19.189
37.60000 23.968
37.64000 22.294
37.68000 19.224
37.72000 17.325
37.76000 21.237
37.80000 26.638
37.84000 15.185
37.88000 21.255
37.92000 15.185
37.96000 20.360
38.00000 21.155
38.04000 20.160
38.08000 14.261
38.12000 20.354
38.16000 24.401
38.20000 18.341
38.24000 28.324
38.28000 17.277
38.32000 37.259
38.36000 20.284
38.40000 23.528
38.44000 17.255
38.48000 20.120
38.52000 24.535
38.56000 17.231
38.60000 16.327
38.64000 21.178
38.68000 20.329
38.72000 12.113
38.76000 18.232
38.80000 24.158
38.84000 23.150
38.88000 13.100
38.92000 27.498
38.96000 25.418
39.00000 23.380
39.04000 20.384
39.08000 23.244
39.12000 24.415
39.16000 29.350
39.20000 24.165
39.24000 26.532
39.28000 19.312
39.32000 20.336
39.36000 23.290
39.40000 24.381
39.44000 24.314
39.48000 18.349
39.52000 30.203
39.56000 23.201
39.60000 13.112
39.64000 16.265
39.68000 17.182
39.72000 18.194
39.76000 26.405
39.80000 30.345
39.84000 19.175
39.88000 21.139
39.92000 29.320
39.96000 30.373
40.00000 18.244
40.04000 19.196
40.08000 30.421
40.12000 24.206
40.16000 12.237
40.20000 27.372
40.24000 13.128
40.28000 25.299
40.32000 30.294
40.36000 29.287
40.40000 23.434
40.44000 20.406
40.48000 20.263
40.52000 25.512
40.56000 24.270
40.60000 25.338
40.64000 21.171
40.68000 30.375
40.72000 22.215
40.76000 20.330
40.80000 16.314
40.84000 27.237
40.88000 28.318
40.92000 22.266
40.96000 29.244
41.00000 21.142
41.04000 29.372
41.08000 18.125
41.12000 19.330
41.16000 18.382
41.20000 20.200
41.24000 10.257
41.28000 21.273
41.32000 16.197
41.36000 19.158
41.40000 29.366
41.44000 20.190
41.48000 29.470
41.52000 24.316
41.56000 21.280
41.60000 27.373
41.64000 22.295
41.68000 22.421
41.72000 24.206
41.76000 29.416
41.80000 24.234
41.84000 26.307
41.88000 15.858
41.92000 22.205
41.96000 29.481
42.00000 23.364
42.04000 28.380
42.08000 29.589
42.12000 23.288
42.16000 23.399
42.20000 18.160
42.24000 15.245
42.28000 27.256
42.32000 31.380
42.36000 7.139
42.40000 15.290
42.44000 30.372
42.48000 25.367
42.52000 17.138
42.56000 31.458
42.60000 23.107
42.64000 15.125
42.68000 21.346
42.72000 22.067
42.76000 27.414
42.80000 18.305
42.84000 14.308
42.88000 26.237
42.92000 25.459
42.96000 23.335
43.00000 25.167
43.04000 12.087
43.08000 27.270
43.12000 26.350
43.16000 16.289
43.20000 20.357
43.24000 12.104
43.28000 31.441
43.32000 21.175
43.36000 23.246
43.40000 23.338
43.44000 26.293
43.48000 24.331
43.52000 27.510
43.56000 15.137
43.60000 24.436
43.64000 27.242
43.68000 15.164
43.72000 20.230
43.76000 22.084
43.80000 30.324
43.84000 28.518
43.88000 22.474
43.92000 22.180
43.96000 22.312
44.00000 25.463
44.04000 26.451
44.08000 17.161
44.12000 17.208
44.16000 16.043
44.20000 20.363
44.24000 25.403
44.28000 27.383
44.32000 20.287
44.36000 17.153
44.40000 20.319
44.44000 21.103
44.48000 18.208
44.52000 19.230
44.56000 22.409
44.60000 12.026
44.64000 18.974
44.68000 20.204
44.72000 24.404
44.76000 27.370
44.80000 25.285
44.84000 18.170
44.88000 17.171
44.92000 25.459
44.96000 17.253
45.00000 18.316
45.04000 25.495
45.08000 22.183
45.12000 14.184
45.16000 23.376
45.20000 24.110
45.24000 27.307
45.28000 20.416
45.32000 21.245
45.36000 24.503
45.40000 16.220
45.44000 25.134
45.48000 24.251
45.52000 19.298
45.56000 33.399
45.60000 29.412
45.64000 19.222
45.68000 30.450
45.72000 24.413
45.76000 15.135
45.80000 23.201
45.84000 20.141
45.88000 23.463
45.92000 17.341
45.96000 15.102
46.00000 19.350
46.04000 20.267
46.08000 18.119
46.12000 19.207
46.16000 15.258
46.20000 19.224
46.24000 16.072
46.28000 22.131
46.32000 18.180
46.36000 31.668
46.40000 21.395
46.44000 21.413
46.48000 23.331
46.52000 21.362
46.56000 15.302
46.60000 15.141
46.64000 24.352
46.68000 15.366
46.72000 21.422
46.76000 19.281
46.80000 19.300
46.84000 33.477
46.88000 20.179
46.92000 19.151
46.96000 27.395
47.00000 18.049
47.04000 27.380
47.08000 18.191
47.12000 21.413
47.16000 13.237
47.20000 23.189
47.24000 28.414
47.28000 15.143
47.32000 21.290
47.36000 18.264
47.40000 19.230
47.44000 29.255
47.48000 15.266
47.52000 17.172
47.56000 19.130
47.60000 20.160
47.64000 27.262
47.68000 24.341
47.72000 15.162
47.76000 25.298
47.80000 19.071
47.84000 17.196
47.88000 19.474
47.92000 23.338
47.96000 17.355
48.00000 20.487
48.04000 17.283
48.08000 21.418
48.12000 21.383
48.16000 15.017
48.20000 18.085
48.24000 19.190
48.28000 24.357
48.32000 19.344
48.36000 13.222
48.40000 16.437
48.44000 23.398
48.48000 18.195
48.52000 17.349
48.56000 22.193
48.60000 19.364
48.64000 24.254
48.68000 15.331
48.72000 12.046
48.76000 14.082
48.80000 22.332
48.84000 24.185
48.88000 13.205
48.92000 14.277
48.96000 21.309
49.00000 23.446
49.04000 26.286
49.08000 20.187
49.12000 14.057
49.16000 17.333
49.20000 23.397
49.24000 20.204
49.28000 20.417
49.32000 22.171
49.36000 22.200
49.40000 23.258
49.44000 21.162
49.48000 19.161
49.52000 22.240
49.56000 26.273
49.60000 17.247
49.64000 15.303
49.68000 14.214
49.72000 21.410
49.76000 20.253
49.80000 21.158
49.84000 19.253
49.88000 17.145
49.92000 14.268
49.96000 16.262
50.00000 20.158
50.04000 19.196
50.08000 14.126
50.12000 14.161
50.16000 16.005
50.20000 17.423
50.24000 19.314
50.28000 19.400
50.32000 10.088
50.36000 14.371
50.40000 21.302
50.44000 17.214
50.48000 9.088
50.52000 19.089
50.56000 23.544
50.60000 18.187
50.64000 25.258
50.68000 16.232
50.72000 14.019
50.76000 15.245
50.80000 12.039
50.84000 19.318
50.88000 16.137
50.92000 15.069
50.96000 14.054
51.00000 13.069
51.04000 12.161
51.08000 18.152
51.12000 18.269
51.16000 18.219
51.20000 24.279
51.24000 14.185
51.28000 16.181
51.32000 15.185
51.36000 19.423
51.40000 10.143
51.44000 19.099
51.48000 17.096
51.52000 17.386
51.56000 10.167
51.60000 17.123
51.64000 19.094
51.68000 10.020
51.72000 19.335
51.76000 16.336
51.80000 12.213
51.84000 19.308
51.88000 15.335
51.92000 12.074
51.96000 14.206
52.00000 22.017
52.04000 11.248
52.08000 20.496
52.12000 11.062
52.16000 15.465
52.20000 17.166
52.24000 31.558
52.28000 17.118
52.32000 8.991
52.36000 23.440
52.40000 16.211
52.44000 15.218
52.48000 13.173
52.52000 12.040
52.56000 12.133
52.60000 22.298
52.64000 13.159
52.68000 11.139
52.72000 17.100
52.76000 13.117
52.80000 23.336
52.84000 18.173
52.88000 15.194
52.92000 11.029
52.96000 7.138
53.00000 12.048
53.04000 6.122
53.08000 16.105
53.12000 17.283
53.16000 13.072
53.20000 17.482
53.24000 10.266
53.28000 18.255
53.32000 11.076
53.36000 9.126
53.40000 13.249
53.44000 19.360
53.48000 22.460
53.52000 13.183
53.56000 12.123
53.60000 10.072
53.64000 16.126
53.68000 20.423
53.72000 17.270
53.76000 15.193
53.80000 7.123
53.84000 10.112
53.88000 12.102
53.92000 14.124
53.96000 11.077
54.00000 15.145
54.04000 14.005
54.08000 14.191
54.12000 16.244
54.16000 10.150
54.20000 16.307
54.24000 12.225
54.28000 13.267
54.32000 12.220
54.36000 18.190
54.40000 13.179
54.44000 15.226
54.48000 17.355
54.52000 15.121
54.56000 16.164
54.60000 14.120
54.64000 12.399
54.68000 14.237
54.72000 10.197
54.76000 4.994
54.80000 15.066
54.84000 10.036
54.88000 12.311
54.92000 18.351
54.96000 11.042
55.00000 13.230
55.04000 11.159
55.08000 16.191
55.12000 13.125
55.16000 12.206
55.20000 10.124
55.24000 15.172
55.28000 11.249
55.32000 19.221
55.36000 16.239
55.40000 15.093
55.44000 15.240
55.48000 14.194
55.52000 9.166
55.56000 11.039
55.60000 15.210
55.64000 13.116
55.68000 13.066
55.72000 15.191
55.76000 13.352
55.80000 12.114
55.84000 13.185
55.88000 11.087
55.92000 16.200
55.96000 11.136
56.00000 10.087
56.04000 15.234
56.08000 13.129
56.12000 10.039
56.16000 7.062
56.20000 7.084
56.24000 16.314
56.28000 10.115
56.32000 10.234
56.36000 8.126
56.40000 16.080
56.44000 8.146
56.48000 10.195
56.52000 12.050
56.56000 12.118
56.60000 14.270
56.64000 8.156
56.68000 15.147
56.72000 17.145
56.76000 9.102
56.80000 17.301
56.84000 10.090
56.88000 5.099
56.92000 11.113
56.96000 16.084
57.00000 15.291
57.04000 10.219
57.08000 18.119
57.12000 13.178
57.16000 13.169
57.20000 15.209
57.24000 12.124
57.28000 14.329
57.32000 12.150
57.36000 10.105
57.40000 10.034
57.44000 18.362
57.48000 20.241
57.52000 15.075
57.56000 13.247
57.60000 7.932
57.64000 15.140
57.68000 13.248
57.72000 10.069
57.76000 11.286
57.80000 8.208
57.84000 16.166
57.88000 12.074
57.92000 13.216
57.96000 9.115
58.00000 10.116
58.04000 8.073
58.08000 10.038
58.12000 14.325
58.16000 9.148
58.20000 10.061
58.24000 12.362
58.28000 12.117
58.32000 14.056
58.36000 5.111
58.40000 13.096
58.44000 14.284
58.48000 9.045
58.52000 9.103
58.56000 6.059
58.60000 7.112
58.64000 8.095
58.68000 10.120
58.72000 11.050
58.76000 13.220
58.80000 9.107
58.84000 15.350
58.88000 9.010
58.92000 9.154
58.96000 12.042
59.00000 9.026
59.04000 7.996
59.08000 9.227
59.12000 11.273
59.16000 7.093
59.20000 6.121
59.24000 5.043
59.28000 6.083
59.32000 18.263
59.36000 14.164
59.40000 11.153
59.44000 10.126
59.48000 6.128
59.52000 17.254
59.56000 20.206
59.60000 6.030
59.64000 9.065
59.68000 10.145
59.72000 6.136
59.76000 18.214
59.80000 13.224
59.84000 10.216
59.88000 15.056
59.92000 16.143
59.96000 16.331
60.00000 10.089
60.04000 8.111
60.08000 6.082
60.12000 3.042
60.16000 12.069
60.20000 10.196
60.24000 7.084
60.28000 11.069
60.32000 15.277
60.36000 17.071
60.40000 13.236
60.44000 11.186
60.48000 11.035
60.52000 9.123
60.56000 17.397
60.60000 8.136
60.64000 10.229
60.68000 17.289
60.72000 4.009
60.76000 13.210
60.80000 13.127
60.84000 5.065
60.88000 7.094
60.92000 8.099
60.96000 9.132
61.00000 7.068
61.04000 12.224
61.08000 13.084
61.12000 9.209
61.16000 13.136
61.20000 9.123
61.24000 9.162
61.28000 10.071
61.32000 4.071
61.36000 14.145
61.40000 11.192
61.44000 10.104
61.48000 6.037
61.52000 6.160
61.56000 15.336
61.60000 8.189
61.64000 14.196
61.68000 4.082
61.72000 10.232
61.76000 8.162
61.80000 5.244
61.84000 15.088
61.88000 3.990
61.92000 6.106
61.96000 6.982
62.00000 7.067
62.04000 7.012
62.08000 4.991
62.12000 7.072
62.16000 7.070
62.20000 10.199
62.24000 8.030
62.28000 9.053
62.32000 8.114
62.36000 11.078
62.40000 13.198
62.44000 7.142
62.48000 8.079
62.52000 7.070
62.56000 11.105
62.60000 6.142
62.64000 9.149
62.68000 12.048
62.72000 13.097
62.76000 9.978
62.80000 6.110
62.84000 8.102
62.88000 8.074
62.92000 6.052
62.96000 12.168
63.00000 12.059
63.04000 13.156
63.08000 12.204
63.12000 10.133
63.16000 11.232
63.20000 4.117
63.24000 6.124
63.28000 9.254
63.32000 10.161
63.36000 12.382
63.40000 9.138
63.44000 14.115
63.48000 9.082
63.52000 11.180
63.56000 12.228
63.60000 6.016
63.64000 13.094
63.68000 3.084
63.72000 9.221
63.76000 7.101
63.80000 5.077
63.84000 8.114
63.88000 10.117
63.92000 10.051
63.96000 7.086
64.00000 6.018
64.04000 7.057
64.08000 5.089
64.12000 10.088
64.16000 9.088
64.20000 6.103
64.24000 6.028
64.28000 6.141
64.32000 9.136
64.36000 6.080
64.40000 9.236
64.44000 11.179
64.48000 7.981
64.52000 5.092
64.56000 6.152
64.60000 6.103
64.64000 9.124
64.68000 7.064
64.72000 4.010
64.76000 5.086
64.80000 5.046
64.84000 10.235
64.88000 4.008
64.92000 6.149
64.96000 3.030
65.00000 9.129