File: XRD/11-09-2025/XY Data/01092025_BTO_omega_1_001_46_45-048_21-694.xy
20.00000 8.126
20.04000 16.232
20.08000 14.199
20.12000 10.106
20.16000 13.136
20.20000 12.238
20.24000 12.225
20.28000 15.469
20.32000 18.102
20.36000 16.217
20.40000 13.170
20.44000 12.159
20.48000 13.336
20.52000 9.256
20.56000 15.163
20.60000 9.194
20.64000 14.249
20.68000 9.161
20.72000 14.172
20.76000 8.122
20.80000 15.188
20.84000 14.114
20.88000 9.203
20.92000 13.235
20.96000 16.177
21.00000 23.191
21.04000 22.192
21.08000 13.234
21.12000 11.226
21.16000 18.064
21.20000 16.104
21.24000 14.165
21.28000 16.185
21.32000 13.154
21.36000 12.108
21.40000 13.170
21.44000 15.338
21.48000 12.095
21.52000 16.256
21.56000 14.255
21.60000 19.408
21.64000 14.424
21.68000 17.256
21.72000 14.309
21.76000 16.261
21.80000 15.295
21.84000 15.236
21.88000 12.118
21.92000 12.188
21.96000 12.236
22.00000 19.321
22.04000 15.207
22.08000 13.113
22.12000 18.567
22.16000 10.233
22.20000 8.190
22.24000 12.079
22.28000 23.430
22.32000 9.125
22.36000 12.049
22.40000 12.095
22.44000 13.357
22.48000 15.464
22.52000 12.167
22.56000 13.221
22.60000 12.373
22.64000 13.030
22.68000 10.205
22.72000 13.163
22.76000 12.150
22.80000 15.145
22.84000 17.325
22.88000 11.372
22.92000 7.154
22.96000 8.190
23.00000 18.197
23.04000 14.199
23.08000 8.126
23.12000 20.235
23.16000 13.168
23.20000 13.087
23.24000 12.050
23.28000 15.218
23.32000 12.207
23.36000 15.201
23.40000 13.127
23.44000 14.210
23.48000 16.235
23.52000 16.228
23.56000 17.130
23.60000 13.214
23.64000 10.088
23.68000 12.088
23.72000 14.291
23.76000 9.126
23.80000 15.169
23.84000 12.283
23.88000 9.212
23.92000 14.144
23.96000 21.175
24.00000 12.093
24.04000 27.221
24.08000 26.395
24.12000 14.173
24.16000 15.073
24.20000 20.207
24.24000 14.214
24.28000 20.263
24.32000 18.168
24.36000 11.116
24.40000 10.079
24.44000 21.162
24.48000 18.285
24.52000 10.997
24.56000 18.184
24.60000 21.422
24.64000 19.202
24.68000 18.211
24.72000 16.168
24.76000 17.210
24.80000 17.292
24.84000 13.351
24.88000 16.279
24.92000 24.186
24.96000 16.224
25.00000 14.198
25.04000 21.339
25.08000 12.308
25.12000 11.181
25.16000 20.356
25.20000 12.234
25.24000 28.276
25.28000 11.194
25.32000 18.234
25.36000 17.233
25.40000 17.210
25.44000 22.287
25.48000 17.228
25.52000 15.189
25.56000 16.062
25.60000 21.157
25.64000 29.221
25.68000 27.592
25.72000 26.342
25.76000 24.198
25.80000 30.351
25.84000 22.292
25.88000 22.449
25.92000 16.313
25.96000 17.310
26.00000 16.135
26.04000 18.019
26.08000 24.345
26.12000 19.202
26.16000 25.504
26.20000 17.195
26.24000 26.241
26.28000 19.246
26.32000 15.373
26.36000 22.369
26.40000 22.277
26.44000 23.322
26.48000 23.361
26.52000 24.460
26.56000 23.335
26.60000 24.558
26.64000 25.268
26.68000 20.317
26.72000 19.241
26.76000 26.544
26.80000 15.014
26.84000 23.489
26.88000 24.135
26.92000 27.387
26.96000 20.336
27.00000 26.418
27.04000 26.534
27.08000 19.347
27.12000 21.228
27.16000 24.423
27.20000 26.484
27.24000 15.250
27.28000 29.505
27.32000 31.563
27.36000 22.556
27.40000 25.350
27.44000 16.907
27.48000 21.332
27.52000 35.498
27.56000 25.582
27.60000 21.127
27.64000 24.314
27.68000 25.304
27.72000 26.539
27.76000 22.594
27.80000 33.524
27.84000 25.549
27.88000 37.532
27.92000 16.117
27.96000 24.423
28.00000 21.202
28.04000 25.251
28.08000 21.075
28.12000 28.485
28.16000 21.212
28.20000 20.204
28.24000 27.564
28.28000 25.428
28.32000 29.468
28.36000 35.369
28.40000 25.437
28.44000 24.275
28.48000 22.479
28.52000 16.143
28.56000 28.485
28.60000 14.256
28.64000 24.217
28.68000 19.234
28.72000 19.127
28.76000 12.196
28.80000 26.278
28.84000 23.304
28.88000 27.269
28.92000 22.423
28.96000 17.203
29.00000 21.268
29.04000 25.430
29.08000 25.208
29.12000 24.439
29.16000 26.320
29.20000 21.389
29.24000 19.289
29.28000 28.501
29.32000 36.601
29.36000 23.435
29.40000 26.282
29.44000 26.152
29.48000 16.261
29.52000 20.174
29.56000 23.270
29.60000 26.481
29.64000 22.247
29.68000 29.300
29.72000 19.301
29.76000 16.117
29.80000 14.084
29.84000 21.244
29.88000 12.233
29.92000 23.294
29.96000 14.146
30.00000 20.170
30.04000 18.434
30.08000 18.235
30.12000 23.212
30.16000 15.197
30.20000 14.154
30.24000 12.121
30.28000 13.089
30.32000 9.122
30.36000 19.110
30.40000 29.451
30.44000 15.182
30.48000 19.390
30.52000 12.248
30.56000 16.403
30.60000 14.172
30.64000 16.305
30.68000 21.329
30.72000 12.153
30.76000 15.198
30.80000 13.384
30.84000 14.255
30.88000 18.221
30.92000 15.251
30.96000 11.182
31.00000 15.180
31.04000 15.184
31.08000 16.318
31.12000 12.046
31.16000 17.236
31.20000 14.183
31.24000 23.285
31.28000 16.369
31.32000 17.079
31.36000 12.145
31.40000 13.256
31.44000 10.225
31.48000 12.248
31.52000 14.180
31.56000 12.076
31.60000 16.279
31.64000 13.138
31.68000 13.337
31.72000 13.176
31.76000 14.255
31.80000 13.110
31.84000 20.238
31.88000 16.334
31.92000 13.169
31.96000 13.245
32.00000 12.046
32.04000 16.273
32.08000 8.123
32.12000 18.213
32.16000 13.241
32.20000 14.372
32.24000 14.168
32.28000 11.186
32.32000 9.157
32.36000 10.181
32.40000 3.989
32.44000 14.183
32.48000 12.090
32.52000 13.264
32.56000 17.385
32.60000 13.079
32.64000 12.154
32.68000 15.283
32.72000 19.263
32.76000 8.928
32.80000 13.333
32.84000 11.183
32.88000 10.238
32.92000 16.349
32.96000 14.349
33.00000 11.245
33.04000 11.149
33.08000 12.196
33.12000 8.026
33.16000 12.100
33.20000 4.112
33.24000 8.008
33.28000 7.119
33.32000 5.105
33.36000 8.143
33.40000 16.332
33.44000 7.118
33.48000 14.175
33.52000 10.173
33.56000 7.133
33.60000 7.106
33.64000 9.107
33.68000 12.097
33.72000 3.049
33.76000 0.981
33.80000 9.033
33.84000 15.240
33.88000 8.113
33.92000 13.195
33.96000 7.200
34.00000 13.187
34.04000 15.256
34.08000 11.022
34.12000 12.173
34.16000 5.052
34.20000 12.315
34.24000 7.126
34.28000 10.033
34.32000 8.195
34.36000 7.071
34.40000 18.047
34.44000 15.051
34.48000 10.125
34.52000 8.136
34.56000 2.938
34.60000 5.145
34.64000 7.124
34.68000 5.094
34.72000 9.086
34.76000 11.043
34.80000 8.197
34.84000 3.941
34.88000 9.148
34.92000 3.063
34.96000 10.143
35.00000 7.105
35.04000 10.135
35.08000 6.159
35.12000 5.090
35.16000 4.048
35.20000 8.061
35.24000 8.159
35.28000 8.144
35.32000 12.160
35.36000 7.125
35.40000 8.034
35.44000 13.066
35.48000 7.134
35.52000 4.101
35.56000 5.111
35.60000 14.167
35.64000 7.116
35.68000 12.098
35.72000 2.005
35.76000 17.181
35.80000 8.080
35.84000 10.201
35.88000 8.062
35.92000 9.272
35.96000 9.119
36.00000 7.175
36.04000 10.102
36.08000 8.092
36.12000 5.023
36.16000 6.042
36.20000 4.030
36.24000 15.149
36.28000 7.124
36.32000 6.999
36.36000 10.068
36.40000 11.037
36.44000 3.982
36.48000 7.124
36.52000 9.150
36.56000 9.080
36.60000 11.134
36.64000 9.089
36.68000 8.240
36.72000 13.002
36.76000 6.118
36.80000 6.002
36.84000 5.008
36.88000 12.228
36.92000 13.111
36.96000 12.152
37.00000 9.133
37.04000 12.292
37.08000 13.013
37.12000 3.040
37.16000 11.158
37.20000 5.043
37.24000 5.071
37.28000 9.089
37.32000 11.080
37.36000 9.129
37.40000 6.968
37.44000 6.015
37.48000 9.158
37.52000 10.226
37.56000 5.998
37.60000 14.093
37.64000 9.034
37.68000 7.092
37.72000 10.166
37.76000 12.135
37.80000 14.135
37.84000 10.077
37.88000 8.149
37.92000 1.999
37.96000 8.088
38.00000 7.084
38.04000 9.056
38.08000 6.999
38.12000 4.006
38.16000 8.108
38.20000 7.100
38.24000 15.234
38.28000 12.235
38.32000 14.121
38.36000 5.075
38.40000 4.056
38.44000 14.098
38.48000 8.121
38.52000 10.051
38.56000 6.046
38.60000 12.154
38.64000 11.937
38.68000 6.085
38.72000 11.224
38.76000 6.203
38.80000 7.999
38.84000 5.001
38.88000 13.257
38.92000 9.132
38.96000 13.110
39.00000 10.035
39.04000 12.063
39.08000 13.068
39.12000 10.141
39.16000 11.114
39.20000 3.058
39.24000 8.045
39.28000 8.192
39.32000 7.216
39.36000 6.058
39.40000 8.080
39.44000 10.217
39.48000 9.988
39.52000 8.177
39.56000 8.158
39.60000 7.131
39.64000 10.228
39.68000 4.137
39.72000 8.017
39.76000 11.128
39.80000 15.072
39.84000 7.155
39.88000 14.212
39.92000 4.986
39.96000 7.042
40.00000 13.292
40.04000 11.146
40.08000 11.113
40.12000 8.010
40.16000 10.092
40.20000 11.011
40.24000 12.019
40.28000 9.266
40.32000 13.119
40.36000 7.078
40.40000 7.075
40.44000 7.154
40.48000 7.134
40.52000 7.975
40.56000 10.196
40.60000 11.181
40.64000 8.956
40.68000 2.993
40.72000 11.010
40.76000 14.270
40.80000 6.147
40.84000 12.191
40.88000 11.105
40.92000 11.135
40.96000 6.149
41.00000 9.136
41.04000 12.288
41.08000 10.160
41.12000 14.247
41.16000 8.046
41.20000 13.221
41.24000 9.141
41.28000 9.122
41.32000 11.041
41.36000 9.184
41.40000 11.108
41.44000 14.095
41.48000 12.229
41.52000 12.094
41.56000 12.185
41.60000 10.152
41.64000 10.077
41.68000 11.065
41.72000 11.040
41.76000 9.175
41.80000 9.015
41.84000 16.952
41.88000 10.241
41.92000 9.101
41.96000 8.132
42.00000 14.132
42.04000 11.294
42.08000 22.530
42.12000 11.043
42.16000 20.481
42.20000 7.136
42.24000 13.083
42.28000 6.047
42.32000 9.145
42.36000 11.184
42.40000 14.213
42.44000 10.147
42.48000 7.165
42.52000 16.239
42.56000 13.284
42.60000 12.274
42.64000 9.203
42.68000 19.411
42.72000 12.230
42.76000 11.093
42.80000 8.152
42.84000 10.144
42.88000 7.122
42.92000 14.161
42.96000 7.035
43.00000 7.971
43.04000 11.069
43.08000 16.166
43.12000 7.989
43.16000 13.145
43.20000 7.092
43.24000 7.076
43.28000 14.205
43.32000 19.190
43.36000 11.214
43.40000 10.082
43.44000 9.130
43.48000 6.135
43.52000 8.068
43.56000 7.037
43.60000 6.104
43.64000 10.158
43.68000 11.114
43.72000 7.266
43.76000 10.226
43.80000 3.048
43.84000 10.117
43.88000 10.207
43.92000 10.231
43.96000 16.276
44.00000 11.278
44.04000 7.154
44.08000 11.994
44.12000 7.035
44.16000 8.035
44.20000 16.159
44.24000 15.118
44.28000 5.062
44.32000 17.208
44.36000 11.187
44.40000 5.110
44.44000 13.194
44.48000 9.239
44.52000 12.201
44.56000 15.108
44.60000 9.118
44.64000 12.079
44.68000 15.041
44.72000 9.108
44.76000 15.153
44.80000 5.058
44.84000 10.095
44.88000 7.097
44.92000 7.033
44.96000 17.186
45.00000 12.239
45.04000 10.208
45.08000 8.986
45.12000 11.101
45.16000 18.399
45.20000 14.236
45.24000 11.116
45.28000 7.116
45.32000 16.330
45.36000 7.115
45.40000 10.148
45.44000 10.086
45.48000 10.252
45.52000 13.025
45.56000 11.080
45.60000 8.257
45.64000 13.286
45.68000 12.272
45.72000 9.176
45.76000 13.178
45.80000 7.232
45.84000 13.264
45.88000 14.237
45.92000 12.143
45.96000 11.112
46.00000 10.112
46.04000 14.230
46.08000 7.229
46.12000 13.177
46.16000 17.160
46.20000 5.098
46.24000 12.149
46.28000 11.240
46.32000 18.283
46.36000 14.160
46.40000 11.047
46.44000 12.045
46.48000 7.059
46.52000 9.176
46.56000 15.157
46.60000 13.199
46.64000 16.140
46.68000 13.211
46.72000 11.151
46.76000 9.157
46.80000 11.092
46.84000 11.228
46.88000 13.138
46.92000 14.037
46.96000 18.117
47.00000 11.204
47.04000 13.122
47.08000 11.215
47.12000 6.087
47.16000 13.340
47.20000 7.095
47.24000 11.104
47.28000 10.174
47.32000 19.435
47.36000 12.116
47.40000 2.972
47.44000 12.101
47.48000 8.088
47.52000 10.320
47.56000 8.009
47.60000 10.425
47.64000 10.181
47.68000 14.203
47.72000 11.047
47.76000 16.309
47.80000 17.118
47.84000 16.367
47.88000 10.086
47.92000 8.001
47.96000 15.125
48.00000 14.114
48.04000 13.104
48.08000 18.174
48.12000 11.162
48.16000 18.206
48.20000 8.163
48.24000 12.180
48.28000 9.161
48.32000 8.129
48.36000 13.126
48.40000 6.978
48.44000 10.066
48.48000 13.159
48.52000 8.071
48.56000 11.180
48.60000 8.173
48.64000 9.066
48.68000 15.333
48.72000 14.095
48.76000 11.131
48.80000 10.095
48.84000 9.212
48.88000 11.171
48.92000 11.219
48.96000 6.164
49.00000 10.237
49.04000 9.254
49.08000 9.034
49.12000 10.157
49.16000 14.352
49.20000 14.264
49.24000 10.065
49.28000 12.019
49.32000 9.158
49.36000 16.144
49.40000 16.431
49.44000 4.997
49.48000 13.072
49.52000 13.220
49.56000 13.199
49.60000 4.058
49.64000 18.326
49.68000 10.286
49.72000 12.173
49.76000 11.163
49.80000 4.063
49.84000 15.099
49.88000 11.323
49.92000 10.122
49.96000 16.124
50.00000 16.149
50.04000 15.332
50.08000 8.160
50.12000 14.047
50.16000 9.159
50.20000 10.103
50.24000 12.315
50.28000 11.256
50.32000 11.257
50.36000 12.401
50.40000 11.253
50.44000 14.962
50.48000 11.157
50.52000 13.399
50.56000 11.304
50.60000 13.203
50.64000 9.166
50.68000 5.060
50.72000 9.128
50.76000 7.096
50.80000 13.172
50.84000 10.161
50.88000 8.170
50.92000 16.337
50.96000 8.134
51.00000 17.019
51.04000 7.084
51.08000 8.160
51.12000 12.064
51.16000 10.118
51.20000 16.224
51.24000 16.321
51.28000 13.190
51.32000 11.140
51.36000 13.120
51.40000 11.333
51.44000 18.288
51.48000 10.207
51.52000 7.198
51.56000 13.157
51.60000 8.197
51.64000 8.178
51.68000 12.203
51.72000 10.192
51.76000 12.965
51.80000 6.139
51.84000 11.183
51.88000 6.077
51.92000 8.113
51.96000 15.193
52.00000 9.155
52.04000 7.062
52.08000 5.010
52.12000 14.171
52.16000 7.165
52.20000 12.288
52.24000 6.135
52.28000 12.109
52.32000 9.051
52.36000 10.072
52.40000 13.159
52.44000 11.115
52.48000 17.229
52.52000 4.124
52.56000 13.143
52.60000 16.208
52.64000 10.176
52.68000 13.362
52.72000 9.262
52.76000 13.967
52.80000 11.328
52.84000 6.979
52.88000 10.217
52.92000 9.052
52.96000 10.134
53.00000 7.028
53.04000 12.309
53.08000 8.114
53.12000 6.024
53.16000 10.203
53.20000 8.045
53.24000 9.116
53.28000 6.134
53.32000 8.109
53.36000 11.049
53.40000 12.188
53.44000 16.313
53.48000 1.985
53.52000 4.987
53.56000 11.374
53.60000 6.100
53.64000 9.218
53.68000 7.065
53.72000 12.065
53.76000 10.144
53.80000 10.170
53.84000 6.116
53.88000 8.087
53.92000 12.129
53.96000 12.151
54.00000 11.143
54.04000 5.074
54.08000 3.094
54.12000 12.148
54.16000 6.181
54.20000 9.153
54.24000 6.090
54.28000 11.150
54.32000 14.109
54.36000 9.183
54.40000 11.241
54.44000 14.163
54.48000 12.193
54.52000 7.126
54.56000 10.247
54.60000 9.258
54.64000 15.232
54.68000 15.198
54.72000 8.053
54.76000 9.101
54.80000 8.038
54.84000 5.012
54.88000 10.226
54.92000 12.170
54.96000 6.065
55.00000 10.224
55.04000 11.082
55.08000 9.202
55.12000 11.138
55.16000 10.102
55.20000 4.071
55.24000 7.056
55.28000 9.137
55.32000 9.057
55.36000 12.134
55.40000 8.108
55.44000 16.167
55.48000 7.986
55.52000 11.222
55.56000 11.248
55.60000 8.193
55.64000 9.072
55.68000 5.158
55.72000 10.205
55.76000 10.211
55.80000 11.168
55.84000 11.065
55.88000 6.119
55.92000 12.278
55.96000 4.053
56.00000 12.033
56.04000 6.069
56.08000 9.018
56.12000 11.155
56.16000 6.120
56.20000 6.040
56.24000 9.144
56.28000 9.167
56.32000 5.997
56.36000 8.200
56.40000 6.049
56.44000 9.142
56.48000 8.142
56.52000 4.070
56.56000 9.258
56.60000 4.174
56.64000 9.146
56.68000 6.107
56.72000 10.256
56.76000 4.054
56.80000 10.096
56.84000 8.041
56.88000 3.099
56.92000 10.239
56.96000 12.230
57.00000 6.107
57.04000 4.049
57.08000 6.052
57.12000 8.978
57.16000 8.139
57.20000 9.262
57.24000 5.104
57.28000 9.245
57.32000 6.112
57.36000 8.155
57.40000 7.123
57.44000 4.101
57.48000 8.069
57.52000 6.054
57.56000 15.124
57.60000 6.965
57.64000 10.148
57.68000 16.264
57.72000 6.101
57.76000 5.041
57.80000 14.205
57.84000 12.219
57.88000 7.081
57.92000 6.986
57.96000 7.074
58.00000 15.109
58.04000 6.092
58.08000 4.160
58.12000 5.068
58.16000 9.108
58.20000 9.259
58.24000 5.005
58.28000 8.043
58.32000 11.096
58.36000 14.117
58.40000 13.207
58.44000 4.102
58.48000 9.306
58.52000 11.097
58.56000 9.154
58.60000 7.169
58.64000 6.145
58.68000 11.277
58.72000 7.123
58.76000 8.069
58.80000 6.987
58.84000 12.129
58.88000 12.141
58.92000 6.007
58.96000 8.052
59.00000 7.047
59.04000 7.075
59.08000 10.107
59.12000 8.167
59.16000 9.010
59.20000 11.109
59.24000 11.062
59.28000 6.101
59.32000 18.103
59.36000 8.226
59.40000 10.000
59.44000 3.116
59.48000 10.184
59.52000 8.217
59.56000 6.059
59.60000 9.218
59.64000 10.062
59.68000 5.984
59.72000 4.153
59.76000 6.072
59.80000 5.087
59.84000 7.047
59.88000 4.082
59.92000 8.103
59.96000 7.016
60.00000 4.057
60.04000 7.031
60.08000 9.088
60.12000 6.041
60.16000 10.098
60.20000 9.133
60.24000 6.154
60.28000 8.198
60.32000 1.069
60.36000 8.053
60.40000 2.052
60.44000 8.097
60.48000 6.051
60.52000 8.169
60.56000 5.072
60.60000 7.165
60.64000 7.993
60.68000 14.077
60.72000 15.162
60.76000 8.071
60.80000 8.019
60.84000 5.116
60.88000 7.135
60.92000 8.144
60.96000 6.082
61.00000 1.984
61.04000 15.072
61.08000 4.019
61.12000 6.998
61.16000 8.136
61.20000 10.208
61.24000 5.002
61.28000 6.003
61.32000 8.205
61.36000 10.199
61.40000 12.112
61.44000 12.340
61.48000 6.041
61.52000 10.038
61.56000 8.084
61.60000 4.003
61.64000 12.148
61.68000 8.083
61.72000 8.074
61.76000 11.116
61.80000 11.178
61.84000 5.077
61.88000 6.119
61.92000 5.012
61.96000 8.041
62.00000 5.065
62.04000 5.198
62.08000 10.242
62.12000 6.066
62.16000 12.212
62.20000 6.040
62.24000 9.099
62.28000 6.008
62.32000 5.027
62.36000 7.980
62.40000 9.059
62.44000 10.069
62.48000 6.248
62.52000 8.111
62.56000 7.253
62.60000 6.053
62.64000 9.182
62.68000 11.260
62.72000 10.241
62.76000 10.174
62.80000 8.138
62.84000 4.056
62.88000 12.107
62.92000 11.316
62.96000 6.089
63.00000 4.056
63.04000 10.117
63.08000 7.077
63.12000 7.137
63.16000 3.980
63.20000 8.112
63.24000 9.200
63.28000 7.161
63.32000 6.095
63.36000 7.181
63.40000 3.998
63.44000 8.110
63.48000 12.032
63.52000 8.172
63.56000 9.152
63.60000 10.952
63.64000 6.018
63.68000 9.157
63.72000 9.097
63.76000 11.016
63.80000 5.990
63.84000 5.011
63.88000 7.033
63.92000 7.128
63.96000 10.125
64.00000 7.968
64.04000 2.016
64.08000 8.110
64.12000 8.096
64.16000 4.104
64.20000 8.026
64.24000 3.991
64.28000 8.052
64.32000 5.094
64.36000 18.256
64.40000 4.043
64.44000 11.110
64.48000 11.281
64.52000 4.131
64.56000 4.079
64.60000 10.055
64.64000 4.945
64.68000 9.067
64.72000 5.082
64.76000 6.113
64.80000 8.141
64.84000 5.047
64.88000 10.068
64.92000 11.199
64.96000 10.031
65.00000 5.145