File: XRD/11-09-2025/XY Data/01092025_BTO_omega_1_001_15_33-786_-16-271.xy
20.00000 18.316
20.04000 30.468
20.08000 24.194
20.12000 31.312
20.16000 22.365
20.20000 20.368
20.24000 13.259
20.28000 19.150
20.32000 19.293
20.36000 23.279
20.40000 20.219
20.44000 25.425
20.48000 14.241
20.52000 22.951
20.56000 19.353
20.60000 24.170
20.64000 20.262
20.68000 25.365
20.72000 27.491
20.76000 12.115
20.80000 11.059
20.84000 15.191
20.88000 27.359
20.92000 20.271
20.96000 21.272
21.00000 12.074
21.04000 16.256
21.08000 15.273
21.12000 12.142
21.16000 16.217
21.20000 12.208
21.24000 24.216
21.28000 13.268
21.32000 18.217
21.36000 24.603
21.40000 19.300
21.44000 17.199
21.48000 18.164
21.52000 20.262
21.56000 15.198
21.60000 20.174
21.64000 24.592
21.68000 15.162
21.72000 18.305
21.76000 27.286
21.80000 29.364
21.84000 16.294
21.88000 23.443
21.92000 19.160
21.96000 15.475
22.00000 17.403
22.04000 21.334
22.08000 18.013
22.12000 17.372
22.16000 19.338
22.20000 19.434
22.24000 20.455
22.28000 14.180
22.32000 22.372
22.36000 17.422
22.40000 26.247
22.44000 17.113
22.48000 13.320
22.52000 20.214
22.56000 22.396
22.60000 22.267
22.64000 16.192
22.68000 13.202
22.72000 15.212
22.76000 10.197
22.80000 17.133
22.84000 15.109
22.88000 9.068
22.92000 9.102
22.96000 21.407
23.00000 23.312
23.04000 12.138
23.08000 11.187
23.12000 14.173
23.16000 13.162
23.20000 13.260
23.24000 20.383
23.28000 14.096
23.32000 13.086
23.36000 14.120
23.40000 16.137
23.44000 25.427
23.48000 17.242
23.52000 11.252
23.56000 12.094
23.60000 14.339
23.64000 17.233
23.68000 20.485
23.72000 19.122
23.76000 17.232
23.80000 10.134
23.84000 10.229
23.88000 24.331
23.92000 17.141
23.96000 19.316
24.00000 21.181
24.04000 13.153
24.08000 13.114
24.12000 19.318
24.16000 10.072
24.20000 11.100
24.24000 16.362
24.28000 13.120
24.32000 12.250
24.36000 9.052
24.40000 11.131
24.44000 21.106
24.48000 15.201
24.52000 13.161
24.56000 12.040
24.60000 8.068
24.64000 10.126
24.68000 13.030
24.72000 17.351
24.76000 22.248
24.80000 15.214
24.84000 15.158
24.88000 13.133
24.92000 10.198
24.96000 11.999
25.00000 8.120
25.04000 15.312
25.08000 7.227
25.12000 9.124
25.16000 10.066
25.20000 10.056
25.24000 8.099
25.28000 13.171
25.32000 18.368
25.36000 17.345
25.40000 18.367
25.44000 15.063
25.48000 17.268
25.52000 17.302
25.56000 12.133
25.60000 13.176
25.64000 11.244
25.68000 14.081
25.72000 17.371
25.76000 11.048
25.80000 7.040
25.84000 17.313
25.88000 14.259
25.92000 14.085
25.96000 10.085
26.00000 13.093
26.04000 14.189
26.08000 8.052
26.12000 10.123
26.16000 13.144
26.20000 9.177
26.24000 11.091
26.28000 13.094
26.32000 16.186
26.36000 3.998
26.40000 12.183
26.44000 11.125
26.48000 15.170
26.52000 14.122
26.56000 11.154
26.60000 18.463
26.64000 13.181
26.68000 12.209
26.72000 9.059
26.76000 17.197
26.80000 9.006
26.84000 11.108
26.88000 9.155
26.92000 12.150
26.96000 10.137
27.00000 10.288
27.04000 14.161
27.08000 12.238
27.12000 10.234
27.16000 13.068
27.20000 11.194
27.24000 9.109
27.28000 20.255
27.32000 9.093
27.36000 11.203
27.40000 10.109
27.44000 7.194
27.48000 16.180
27.52000 7.057
27.56000 11.222
27.60000 11.073
27.64000 10.127
27.68000 8.207
27.72000 11.130
27.76000 16.345
27.80000 9.195
27.84000 8.086
27.88000 8.161
27.92000 11.245
27.96000 7.951
28.00000 6.078
28.04000 5.039
28.08000 10.990
28.12000 11.183
28.16000 16.116
28.20000 8.247
28.24000 14.319
28.28000 12.125
28.32000 12.193
28.36000 6.020
28.40000 8.231
28.44000 12.258
28.48000 7.134
28.52000 4.020
28.56000 9.109
28.60000 6.090
28.64000 4.975
28.68000 15.242
28.72000 10.073
28.76000 7.207
28.80000 11.079
28.84000 8.176
28.88000 9.056
28.92000 10.146
28.96000 8.168
29.00000 5.007
29.04000 9.161
29.08000 13.098
29.12000 11.163
29.16000 8.112
29.20000 10.143
29.24000 7.126
29.28000 19.090
29.32000 8.036
29.36000 7.964
29.40000 10.149
29.44000 6.047
29.48000 7.140
29.52000 3.026
29.56000 8.045
29.60000 7.094
29.64000 9.103
29.68000 7.120
29.72000 8.156
29.76000 6.070
29.80000 6.051
29.84000 9.023
29.88000 12.069
29.92000 7.044
29.96000 7.179
30.00000 11.222
30.04000 6.032
30.08000 5.079
30.12000 10.187
30.16000 8.194
30.20000 9.159
30.24000 5.059
30.28000 5.996
30.32000 8.150
30.36000 11.171
30.40000 6.105
30.44000 10.315
30.48000 15.303
30.52000 6.055
30.56000 9.099
30.60000 14.161
30.64000 8.057
30.68000 5.990
30.72000 3.068
30.76000 9.041
30.80000 8.079
30.84000 6.061
30.88000 12.095
30.92000 5.958
30.96000 9.153
31.00000 8.111
31.04000 7.159
31.08000 8.092
31.12000 7.172
31.16000 4.027
31.20000 10.230
31.24000 12.086
31.28000 5.124
31.32000 11.180
31.36000 7.116
31.40000 7.170
31.44000 6.185
31.48000 8.024
31.52000 6.060
31.56000 8.265
31.60000 6.087
31.64000 11.215
31.68000 7.087
31.72000 2.088
31.76000 11.117
31.80000 11.106
31.84000 4.109
31.88000 5.183
31.92000 7.101
31.96000 6.047
32.00000 5.998
32.04000 8.109
32.08000 11.119
32.12000 8.008
32.16000 8.089
32.20000 4.108
32.24000 5.057
32.28000 6.089
32.32000 5.023
32.36000 7.984
32.40000 8.324
32.44000 6.075
32.48000 8.078
32.52000 6.960
32.56000 9.172
32.60000 14.079
32.64000 7.157
32.68000 9.281
32.72000 6.987
32.76000 7.255
32.80000 5.074
32.84000 9.035
32.88000 9.150
32.92000 8.086
32.96000 5.100
33.00000 8.180
33.04000 7.068
33.08000 5.025
33.12000 7.079
33.16000 5.099
33.20000 7.108
33.24000 6.090
33.28000 4.055
33.32000 9.159
33.36000 7.083
33.40000 7.151
33.44000 4.140
33.48000 8.267
33.52000 8.052
33.56000 7.122
33.60000 7.220
33.64000 4.091
33.68000 10.145
33.72000 10.121
33.76000 10.171
33.80000 6.941
33.84000 4.003
33.88000 7.002
33.92000 10.144
33.96000 8.103
34.00000 6.208
34.04000 5.102
34.08000 8.095
34.12000 3.026
34.16000 7.140
34.20000 4.036
34.24000 3.025
34.28000 2.045
34.32000 5.040
34.36000 1.041
34.40000 4.009
34.44000 2.088
34.48000 6.108
34.52000 5.060
34.56000 9.109
34.60000 5.052
34.64000 9.113
34.68000 5.119
34.72000 4.090
34.76000 5.092
34.80000 3.176
34.84000 5.980
34.88000 9.113
34.92000 1.974
34.96000 6.106
35.00000 8.039
35.04000 8.093
35.08000 4.984
35.12000 5.115
35.16000 7.090
35.20000 4.153
35.24000 5.115
35.28000 5.132
35.32000 5.121
35.36000 2.061
35.40000 6.933
35.44000 6.078
35.48000 4.014
35.52000 1.026
35.56000 4.081
35.60000 5.057
35.64000 11.118
35.68000 10.305
35.72000 4.972
35.76000 5.048
35.80000 3.012
35.84000 2.062
35.88000 4.122
35.92000 0.000
35.96000 7.029
36.00000 2.081
36.04000 3.010
36.08000 2.022
36.12000 3.991
36.16000 2.996
36.20000 6.117
36.24000 3.026
36.28000 3.059
36.32000 5.042
36.36000 6.112
36.40000 5.087
36.44000 3.043
36.48000 8.054
36.52000 5.144
36.56000 5.092
36.60000 5.071
36.64000 4.055
36.68000 6.017
36.72000 2.056
36.76000 1.997
36.80000 2.066
36.84000 7.157
36.88000 1.981
36.92000 6.093
36.96000 5.077
37.00000 5.097
37.04000 9.090
37.08000 2.998
37.12000 5.091
37.16000 4.004
37.20000 5.172
37.24000 5.054
37.28000 2.969
37.32000 5.102
37.36000 6.053
37.40000 4.105
37.44000 6.145
37.48000 3.037
37.52000 2.006
37.56000 5.015
37.60000 2.005
37.64000 2.056
37.68000 6.060
37.72000 2.989
37.76000 5.067
37.80000 5.056
37.84000 8.037
37.88000 5.075
37.92000 5.128
37.96000 4.063
38.00000 2.065
38.04000 10.142
38.08000 7.076
38.12000 2.060
38.16000 1.050
38.20000 6.019
38.24000 4.083
38.28000 6.069
38.32000 3.984
38.36000 1.029
38.40000 4.166
38.44000 3.076
38.48000 8.028
38.52000 3.001
38.56000 6.014
38.60000 3.009
38.64000 3.009
38.68000 5.103
38.72000 4.070
38.76000 4.971
38.80000 5.009
38.84000 6.193
38.88000 4.078
38.92000 0.998
38.96000 6.044
39.00000 8.099
39.04000 7.208
39.08000 4.032
39.12000 9.095
39.16000 1.026
39.20000 7.027
39.24000 2.096
39.28000 1.032
39.32000 4.043
39.36000 1.020
39.40000 3.145
39.44000 5.091
39.48000 9.242
39.52000 2.003
39.56000 0.992
39.60000 4.117
39.64000 4.065
39.68000 1.005
39.72000 7.118
39.76000 6.119
39.80000 2.030
39.84000 5.126
39.88000 3.002
39.92000 2.013
39.96000 3.982
40.00000 6.087
40.04000 6.098
40.08000 2.017
40.12000 3.009
40.16000 7.147
40.20000 4.048
40.24000 2.001
40.28000 2.955
40.32000 4.108
40.36000 0.959
40.40000 1.985
40.44000 5.089
40.48000 1.022
40.52000 4.979
40.56000 0.972
40.60000 7.072
40.64000 2.987
40.68000 9.213
40.72000 5.060
40.76000 3.133
40.80000 1.991
40.84000 1.989
40.88000 1.031
40.92000 6.127
40.96000 4.028
41.00000 3.048
41.04000 5.036
41.08000 2.118
41.12000 3.017
41.16000 0.000
41.20000 8.048
41.24000 4.049
41.28000 2.014
41.32000 5.914
41.36000 5.015
41.40000 1.995
41.44000 3.070
41.48000 2.088
41.52000 4.036
41.56000 2.032
41.60000 2.978
41.64000 5.102
41.68000 7.166
41.72000 4.042
41.76000 1.023
41.80000 2.970
41.84000 4.045
41.88000 5.999
41.92000 4.094
41.96000 7.067
42.00000 2.046
42.04000 1.999
42.08000 0.993
42.12000 5.049
42.16000 2.026
42.20000 2.102
42.24000 3.991
42.28000 2.013
42.32000 4.022
42.36000 0.000
42.40000 4.051
42.44000 4.090
42.48000 5.045
42.52000 1.151
42.56000 3.029
42.60000 4.986
42.64000 1.012
42.68000 5.079
42.72000 5.153
42.76000 5.997
42.80000 3.020
42.84000 5.077
42.88000 3.096
42.92000 3.029
42.96000 0.985
43.00000 2.002
43.04000 0.000
43.08000 6.138
43.12000 3.124
43.16000 2.030
43.20000 0.000
43.24000 4.977
43.28000 3.011
43.32000 0.993
43.36000 5.033
43.40000 2.063
43.44000 5.972
43.48000 0.989
43.52000 1.000
43.56000 3.060
43.60000 3.051
43.64000 2.001
43.68000 4.036
43.72000 4.172
43.76000 0.982
43.80000 1.988
43.84000 1.061
43.88000 1.994
43.92000 4.121
43.96000 0.000
44.00000 4.000
44.04000 2.025
44.08000 3.065
44.12000 2.028
44.16000 3.962
44.20000 3.044
44.24000 0.990
44.28000 2.053
44.32000 3.049
44.36000 0.000
44.40000 1.017
44.44000 3.071
44.48000 5.182
44.52000 3.155
44.56000 1.981
44.60000 1.000
44.64000 1.022
44.68000 2.034
44.72000 0.000
44.76000 2.049
44.80000 2.085
44.84000 5.063
44.88000 6.152
44.92000 1.058
44.96000 5.064
45.00000 1.013
45.04000 0.000
45.08000 3.150
45.12000 6.119
45.16000 5.036
45.20000 4.078
45.24000 5.132
45.28000 4.073
45.32000 5.221
45.36000 1.973
45.40000 6.093
45.44000 1.025
45.48000 3.073
45.52000 4.103
45.56000 3.068
45.60000 5.064
45.64000 4.035
45.68000 0.000
45.72000 4.123
45.76000 3.078
45.80000 5.125
45.84000 3.024
45.88000 7.123
45.92000 5.053
45.96000 1.979
46.00000 1.042
46.04000 4.003
46.08000 0.000
46.12000 4.024
46.16000 3.011
46.20000 0.987
46.24000 4.076
46.28000 2.081
46.32000 2.998
46.36000 2.066
46.40000 3.058
46.44000 4.097
46.48000 1.012
46.52000 1.010
46.56000 2.073
46.60000 5.084
46.64000 5.103
46.68000 3.040
46.72000 5.146
46.76000 2.013
46.80000 3.005
46.84000 2.003
46.88000 3.080
46.92000 4.081
46.96000 5.062
47.00000 4.069
47.04000 1.979
47.08000 0.994
47.12000 0.000
47.16000 3.064
47.20000 3.011
47.24000 4.050
47.28000 3.029
47.32000 2.009
47.36000 3.081
47.40000 3.092
47.44000 3.030
47.48000 6.174
47.52000 3.083
47.56000 2.052
47.60000 0.000
47.64000 1.999
47.68000 3.058
47.72000 1.031
47.76000 0.985
47.80000 4.104
47.84000 0.000
47.88000 2.001
47.92000 0.000
47.96000 2.078
48.00000 1.003
48.04000 4.041
48.08000 3.019
48.12000 3.995
48.16000 2.041
48.20000 4.019
48.24000 0.990
48.28000 1.026
48.32000 6.167
48.36000 0.000
48.40000 2.049
48.44000 6.122
48.48000 4.003
48.52000 2.060
48.56000 0.000
48.60000 1.002
48.64000 0.978
48.68000 1.007
48.72000 4.007
48.76000 5.070
48.80000 0.000
48.84000 2.011
48.88000 3.009
48.92000 0.000
48.96000 2.006
49.00000 0.985
49.04000 1.048
49.08000 0.996
49.12000 3.014
49.16000 3.068
49.20000 3.037
49.24000 2.041
49.28000 1.022
49.32000 2.032
49.36000 2.010
49.40000 4.116
49.44000 3.052
49.48000 3.040
49.52000 2.000
49.56000 0.992
49.60000 4.058
49.64000 3.008
49.68000 1.998
49.72000 2.970
49.76000 1.993
49.80000 2.004
49.84000 0.000
49.88000 2.067
49.92000 1.033
49.96000 2.009
50.00000 2.008
50.04000 4.978
50.08000 2.011
50.12000 2.048
50.16000 3.020
50.20000 3.975
50.24000 3.027
50.28000 4.077
50.32000 1.007
50.36000 5.119
50.40000 0.975
50.44000 2.014
50.48000 2.975
50.52000 3.012
50.56000 4.076
50.60000 0.000
50.64000 1.057
50.68000 3.050
50.72000 4.083
50.76000 0.993
50.80000 2.022
50.84000 2.050
50.88000 3.115
50.92000 2.029
50.96000 0.991
51.00000 0.987
51.04000 3.081
51.08000 1.025
51.12000 3.105
51.16000 0.986
51.20000 0.000
51.24000 1.048
51.28000 0.982
51.32000 3.055
51.36000 5.079
51.40000 3.056
51.44000 0.000
51.48000 2.032
51.52000 0.000
51.56000 2.043
51.60000 0.000
51.64000 1.025
51.68000 2.076
51.72000 2.993
51.76000 1.974
51.80000 2.017
51.84000 6.005
51.88000 4.062
51.92000 0.000
51.96000 1.016
52.00000 2.015
52.04000 0.000
52.08000 2.951
52.12000 0.000
52.16000 2.116
52.20000 1.006
52.24000 2.071
52.28000 2.960
52.32000 3.026
52.36000 1.038
52.40000 2.009
52.44000 2.022
52.48000 0.000
52.52000 0.996
52.56000 0.992
52.60000 0.992
52.64000 2.003
52.68000 1.998
52.72000 2.023
52.76000 1.003
52.80000 4.023
52.84000 5.076
52.88000 2.005
52.92000 1.000
52.96000 1.969
53.00000 2.052
53.04000 1.072
53.08000 6.137
53.12000 2.048
53.16000 2.977
53.20000 2.099
53.24000 2.066
53.28000 3.031
53.32000 2.019
53.36000 4.163
53.40000 1.000
53.44000 0.000
53.48000 1.003
53.52000 3.008
53.56000 0.000
53.60000 2.034
53.64000 1.033
53.68000 0.000
53.72000 1.052
53.76000 2.020
53.80000 0.000
53.84000 2.044
53.88000 1.954
53.92000 0.974
53.96000 3.077
54.00000 3.975
54.04000 1.985
54.08000 0.000
54.12000 3.074
54.16000 5.040
54.20000 0.000
54.24000 1.970
54.28000 6.013
54.32000 1.040
54.36000 6.102
54.40000 2.991
54.44000 3.018
54.48000 1.990
54.52000 1.003
54.56000 3.004
54.60000 2.993
54.64000 0.000
54.68000 0.000
54.72000 0.000
54.76000 2.000
54.80000 5.172
54.84000 2.042
54.88000 3.939
54.92000 1.066
54.96000 0.000
55.00000 1.971
55.04000 1.972
55.08000 3.016
55.12000 0.988
55.16000 1.987
55.20000 2.034
55.24000 0.991
55.28000 2.020
55.32000 3.042
55.36000 1.013
55.40000 3.004
55.44000 0.000
55.48000 1.007
55.52000 1.041
55.56000 1.041
55.60000 3.024
55.64000 3.006
55.68000 0.000
55.72000 3.072
55.76000 1.029
55.80000 0.000
55.84000 1.017
55.88000 1.011
55.92000 0.000
55.96000 3.130
56.00000 0.000
56.04000 4.179
56.08000 4.075
56.12000 0.987
56.16000 1.027
56.20000 2.030
56.24000 1.033
56.28000 5.130
56.32000 4.119
56.36000 0.000
56.40000 0.995
56.44000 4.035
56.48000 0.000
56.52000 0.000
56.56000 2.030
56.60000 3.024
56.64000 4.047
56.68000 1.020
56.72000 3.042
56.76000 3.019
56.80000 2.016
56.84000 3.051
56.88000 2.030
56.92000 3.087
56.96000 0.000
57.00000 0.997
57.04000 0.977
57.08000 0.000
57.12000 0.998
57.16000 4.072
57.20000 3.057
57.24000 1.038
57.28000 1.021
57.32000 0.000
57.36000 1.021
57.40000 2.026
57.44000 0.000
57.48000 3.045
57.52000 0.984
57.56000 1.012
57.60000 1.014
57.64000 1.024
57.68000 3.040
57.72000 1.027
57.76000 0.987
57.80000 2.990
57.84000 1.014
57.88000 2.098
57.92000 1.013
57.96000 0.000
58.00000 1.022
58.04000 1.008
58.08000 0.998
58.12000 1.006
58.16000 4.107
58.20000 2.002
58.24000 0.000
58.28000 2.030
58.32000 0.975
58.36000 4.085
58.40000 4.031
58.44000 3.016
58.48000 2.076
58.52000 0.982
58.56000 0.968
58.60000 0.000
58.64000 0.000
58.68000 1.019
58.72000 2.036
58.76000 3.029
58.80000 2.997
58.84000 2.012
58.88000 0.973
58.92000 0.970
58.96000 2.008
59.00000 0.000
59.04000 0.000
59.08000 0.997
59.12000 0.000
59.16000 1.029
59.20000 1.014
59.24000 1.992
59.28000 2.070
59.32000 2.080
59.36000 4.079
59.40000 0.000
59.44000 0.000
59.48000 1.016
59.52000 3.000
59.56000 1.026
59.60000 0.992
59.64000 0.000
59.68000 1.003
59.72000 2.037
59.76000 0.000
59.80000 2.974
59.84000 2.058
59.88000 2.036
59.92000 3.026
59.96000 1.064
60.00000 2.007
60.04000 0.000
60.08000 1.987
60.12000 3.045
60.16000 2.012
60.20000 1.048
60.24000 0.000
60.28000 0.000
60.32000 4.066
60.36000 0.000
60.40000 1.009
60.44000 1.033
60.48000 2.979
60.52000 0.993
60.56000 0.989
60.60000 1.994
60.64000 1.013
60.68000 5.040
60.72000 2.023
60.76000 2.010
60.80000 3.057
60.84000 2.066
60.88000 0.000
60.92000 0.000
60.96000 5.119
61.00000 2.078
61.04000 2.069
61.08000 2.017
61.12000 3.053
61.16000 1.003
61.20000 2.038
61.24000 1.027
61.28000 3.008
61.32000 0.000
61.36000 3.031
61.40000 2.066
61.44000 0.000
61.48000 0.000
61.52000 1.003
61.56000 0.000
61.60000 1.048
61.64000 4.008
61.68000 2.022
61.72000 0.000
61.76000 1.999
61.80000 4.011
61.84000 1.010
61.88000 1.014
61.92000 1.008
61.96000 4.023
62.00000 2.039
62.04000 0.000
62.08000 0.000
62.12000 1.025
62.16000 0.981
62.20000 1.066
62.24000 2.007
62.28000 2.034
62.32000 0.982
62.36000 2.050
62.40000 1.035
62.44000 0.989
62.48000 3.062
62.52000 3.084
62.56000 0.000
62.60000 1.040
62.64000 0.996
62.68000 2.004
62.72000 0.994
62.76000 0.000
62.80000 2.036
62.84000 0.000
62.88000 0.000
62.92000 4.057
62.96000 2.010
63.00000 0.000
63.04000 2.089
63.08000 2.029
63.12000 3.048
63.16000 0.000
63.20000 2.037
63.24000 3.029
63.28000 1.021
63.32000 0.984
63.36000 0.000
63.40000 4.033
63.44000 1.004
63.48000 0.000
63.52000 0.984
63.56000 2.030
63.60000 4.074
63.64000 0.999
63.68000 1.040
63.72000 2.977
63.76000 2.011
63.80000 1.046
63.84000 0.000
63.88000 4.041
63.92000 1.006
63.96000 1.058
64.00000 0.985
64.04000 2.007
64.08000 0.000
64.12000 1.015
64.16000 1.029
64.20000 0.000
64.24000 1.006
64.28000 4.027
64.32000 2.021
64.36000 0.000
64.40000 1.996
64.44000 0.000
64.48000 1.991
64.52000 1.027
64.56000 0.000
64.60000 2.057
64.64000 3.061
64.68000 5.211
64.72000 0.991
64.76000 0.995
64.80000 0.989
64.84000 1.042
64.88000 3.064
64.92000 2.027
64.96000 0.000
65.00000 2.083