File: XRD/11-09-2025/XY Data/01092025_BTO_omega_0_5_001_07_-7-794_9-773.xy
20.00000 17.204
20.04000 20.410
20.08000 22.270
20.12000 22.174
20.16000 22.472
20.20000 25.435
20.24000 19.248
20.28000 23.349
20.32000 23.617
20.36000 18.202
20.40000 17.181
20.44000 17.153
20.48000 17.395
20.52000 24.358
20.56000 27.290
20.60000 16.198
20.64000 24.388
20.68000 22.373
20.72000 18.228
20.76000 25.532
20.80000 22.112
20.84000 18.186
20.88000 21.491
20.92000 20.323
20.96000 18.323
21.00000 22.335
21.04000 23.251
21.08000 20.467
21.12000 28.417
21.16000 26.253
21.20000 25.209
21.24000 21.338
21.28000 27.258
21.32000 28.156
21.36000 25.448
21.40000 17.212
21.44000 26.356
21.48000 18.104
21.52000 21.286
21.56000 17.223
21.60000 22.354
21.64000 32.823
21.68000 28.269
21.72000 16.430
21.76000 23.246
21.80000 20.242
21.84000 20.200
21.88000 22.373
21.92000 25.082
21.96000 30.485
22.00000 20.340
22.04000 21.151
22.08000 34.654
22.12000 26.357
22.16000 26.224
22.20000 21.434
22.24000 38.544
22.28000 25.656
22.32000 24.362
22.36000 27.333
22.40000 31.375
22.44000 26.202
22.48000 12.128
22.52000 24.136
22.56000 21.383
22.60000 21.388
22.64000 27.489
22.68000 29.516
22.72000 31.698
22.76000 34.212
22.80000 27.172
22.84000 21.167
22.88000 20.065
22.92000 23.257
22.96000 23.259
23.00000 26.421
23.04000 34.262
23.08000 34.361
23.12000 30.388
23.16000 33.344
23.20000 29.220
23.24000 25.225
23.28000 26.213
23.32000 32.426
23.36000 25.505
23.40000 21.249
23.44000 31.412
23.48000 26.267
23.52000 21.208
23.56000 26.374
23.60000 33.532
23.64000 28.282
23.68000 40.183
23.72000 32.448
23.76000 27.516
23.80000 23.251
23.84000 30.395
23.88000 31.274
23.92000 24.358
23.96000 38.396
24.00000 28.282
24.04000 41.520
24.08000 38.668
24.12000 26.162
24.16000 32.392
24.20000 42.704
24.24000 37.552
24.28000 32.326
24.32000 27.513
24.36000 30.224
24.40000 35.457
24.44000 38.483
24.48000 37.511
24.52000 36.182
24.56000 39.483
24.60000 33.455
24.64000 23.341
24.68000 33.561
24.72000 43.603
24.76000 26.355
24.80000 33.616
24.84000 36.489
24.88000 34.586
24.92000 34.530
24.96000 36.663
25.00000 45.552
25.04000 39.188
25.08000 28.687
25.12000 45.731
25.16000 40.629
25.20000 36.654
25.24000 41.678
25.28000 50.451
25.32000 44.438
25.36000 31.564
25.40000 30.385
25.44000 35.645
25.48000 49.924
25.52000 44.671
25.56000 53.707
25.60000 36.737
25.64000 40.206
25.68000 41.543
25.72000 42.377
25.76000 58.955
25.80000 42.528
25.84000 43.318
25.88000 45.458
25.92000 48.553
25.96000 55.878
26.00000 44.614
26.04000 51.932
26.08000 45.535
26.12000 56.783
26.16000 63.706
26.20000 51.684
26.24000 44.469
26.28000 45.728
26.32000 59.334
26.36000 49.692
26.40000 54.418
26.44000 48.471
26.48000 39.427
26.52000 49.487
26.56000 53.746
26.60000 43.594
26.64000 60.858
26.68000 49.656
26.72000 63.610
26.76000 51.549
26.80000 54.920
26.84000 49.485
26.88000 52.549
26.92000 50.695
26.96000 63.554
27.00000 41.596
27.04000 52.681
27.08000 60.341
27.12000 60.502
27.16000 51.591
27.20000 49.708
27.24000 55.699
27.28000 54.751
27.32000 56.594
27.36000 60.706
27.40000 56.505
27.44000 53.346
27.48000 55.873
27.52000 51.523
27.56000 53.743
27.60000 57.747
27.64000 68.254
27.68000 60.753
27.72000 53.648
27.76000 50.764
27.80000 55.748
27.84000 60.661
27.88000 52.814
27.92000 58.639
27.96000 56.436
28.00000 57.847
28.04000 51.858
28.08000 57.978
28.12000 51.523
28.16000 65.615
28.20000 58.779
28.24000 49.872
28.28000 74.905
28.32000 56.051
28.36000 57.604
28.40000 58.065
28.44000 64.927
28.48000 59.695
28.52000 40.386
28.56000 54.828
28.60000 56.488
28.64000 44.564
28.68000 50.574
28.72000 47.614
28.76000 47.709
28.80000 55.743
28.84000 67.025
28.88000 44.403
28.92000 44.660
28.96000 45.618
29.00000 55.814
29.04000 52.692
29.08000 52.821
29.12000 68.878
29.16000 48.537
29.20000 43.464
29.24000 61.882
29.28000 50.449
29.32000 41.469
29.36000 56.747
29.40000 50.546
29.44000 49.674
29.48000 45.434
29.52000 47.313
29.56000 47.711
29.60000 46.932
29.64000 47.656
29.68000 47.708
29.72000 62.851
29.76000 43.655
29.80000 46.572
29.84000 28.253
29.88000 53.839
29.92000 45.629
29.96000 50.702
30.00000 40.390
30.04000 41.535
30.08000 44.422
30.12000 44.796
30.16000 45.699
30.20000 46.620
30.24000 39.497
30.28000 35.475
30.32000 42.695
30.36000 48.702
30.40000 36.490
30.44000 35.413
30.48000 48.671
30.52000 38.627
30.56000 33.572
30.60000 37.561
30.64000 35.405
30.68000 38.194
30.72000 37.533
30.76000 53.451
30.80000 31.402
30.84000 42.565
30.88000 29.264
30.92000 33.260
30.96000 44.494
31.00000 31.448
31.04000 29.449
31.08000 29.596
31.12000 37.405
31.16000 35.407
31.20000 25.366
31.24000 16.304
31.28000 20.405
31.32000 27.379
31.36000 30.347
31.40000 30.573
31.44000 34.414
31.48000 25.307
31.52000 28.459
31.56000 25.384
31.60000 27.425
31.64000 26.245
31.68000 35.560
31.72000 33.273
31.76000 35.833
31.80000 20.385
31.84000 42.581
31.88000 41.691
31.92000 29.255
31.96000 35.541
32.00000 33.520
32.04000 35.373
32.08000 26.242
32.12000 27.275
32.16000 37.524
32.20000 27.204
32.24000 31.221
32.28000 26.444
32.32000 35.524
32.36000 26.339
32.40000 37.395
32.44000 35.460
32.48000 23.306
32.52000 38.526
32.56000 21.254
32.60000 25.239
32.64000 35.180
32.68000 32.368
32.72000 20.280
32.76000 34.412
32.80000 24.274
32.84000 24.320
32.88000 21.234
32.92000 23.400
32.96000 30.522
33.00000 18.246
33.04000 19.151
33.08000 21.485
33.12000 23.240
33.16000 15.275
33.20000 21.316
33.24000 13.159
33.28000 21.360
33.32000 20.420
33.36000 17.434
33.40000 18.102
33.44000 21.333
33.48000 23.159
33.52000 15.154
33.56000 20.306
33.60000 20.237
33.64000 22.267
33.68000 18.062
33.72000 12.174
33.76000 21.328
33.80000 24.171
33.84000 20.245
33.88000 26.389
33.92000 10.113
33.96000 19.210
34.00000 18.410
34.04000 20.467
34.08000 23.270
34.12000 18.167
34.16000 14.181
34.20000 16.131
34.24000 21.389
34.28000 19.299
34.32000 14.330
34.36000 17.198
34.40000 22.369
34.44000 10.145
34.48000 13.103
34.52000 15.219
34.56000 25.422
34.60000 21.205
34.64000 23.160
34.68000 18.384
34.72000 26.604
34.76000 22.212
34.80000 19.080
34.84000 21.257
34.88000 14.198
34.92000 19.160
34.96000 19.483
35.00000 14.179
35.04000 19.564
35.08000 13.264
35.12000 19.239
35.16000 16.101
35.20000 28.164
35.24000 21.206
35.28000 14.174
35.32000 20.121
35.36000 15.080
35.40000 23.488
35.44000 14.128
35.48000 12.205
35.52000 18.294
35.56000 19.325
35.60000 20.225
35.64000 22.360
35.68000 16.137
35.72000 22.397
35.76000 14.175
35.80000 17.296
35.84000 13.120
35.88000 20.241
35.92000 23.049
35.96000 18.246
36.00000 17.192
36.04000 19.343
36.08000 19.141
36.12000 22.222
36.16000 19.280
36.20000 23.219
36.24000 26.103
36.28000 20.221
36.32000 15.134
36.36000 17.344
36.40000 18.246
36.44000 15.143
36.48000 22.149
36.52000 21.300
36.56000 21.273
36.60000 15.222
36.64000 18.141
36.68000 19.193
36.72000 25.282
36.76000 19.311
36.80000 27.233
36.84000 15.029
36.88000 19.151
36.92000 22.276
36.96000 22.284
37.00000 13.313
37.04000 25.322
37.08000 16.195
37.12000 25.149
37.16000 13.107
37.20000 17.225
37.24000 24.396
37.28000 18.188
37.32000 21.097
37.36000 20.987
37.40000 22.455
37.44000 17.210
37.48000 25.322
37.52000 18.132
37.56000 14.298
37.60000 22.446
37.64000 25.465
37.68000 9.955
37.72000 24.388
37.76000 17.040
37.80000 16.267
37.84000 18.373
37.88000 19.216
37.92000 13.181
37.96000 27.304
38.00000 16.329
38.04000 21.165
38.08000 17.157
38.12000 22.241
38.16000 25.406
38.20000 19.201
38.24000 18.078
38.28000 20.259
38.32000 31.530
38.36000 24.085
38.40000 25.315
38.44000 21.500
38.48000 28.508
38.52000 20.363
38.56000 23.459
38.60000 25.238
38.64000 21.036
38.68000 24.242
38.72000 14.236
38.76000 21.171
38.80000 15.115
38.84000 14.982
38.88000 22.264
38.92000 13.293
38.96000 28.177
39.00000 19.277
39.04000 20.343
39.08000 26.421
39.12000 18.165
39.16000 18.360
39.20000 18.246
39.24000 18.404
39.28000 24.086
39.32000 22.406
39.36000 20.336
39.40000 17.174
39.44000 17.288
39.48000 21.082
39.52000 22.325
39.56000 19.065
39.60000 21.227
39.64000 22.072
39.68000 18.332
39.72000 24.289
39.76000 23.403
39.80000 19.219
39.84000 17.291
39.88000 26.292
39.92000 16.273
39.96000 23.314
40.00000 32.423
40.04000 24.219
40.08000 18.283
40.12000 42.430
40.16000 20.331
40.20000 23.208
40.24000 29.461
40.28000 18.425
40.32000 20.130
40.36000 18.350
40.40000 21.396
40.44000 16.063
40.48000 19.264
40.52000 28.410
40.56000 19.287
40.60000 20.145
40.64000 13.216
40.68000 19.260
40.72000 21.113
40.76000 26.368
40.80000 19.332
40.84000 14.129
40.88000 22.072
40.92000 29.550
40.96000 22.204
41.00000 23.329
41.04000 19.375
41.08000 14.247
41.12000 24.270
41.16000 20.312
41.20000 17.370
41.24000 23.564
41.28000 19.051
41.32000 25.275
41.36000 22.276
41.40000 20.354
41.44000 22.188
41.48000 16.192
41.52000 29.421
41.56000 24.373
41.60000 23.413
41.64000 20.258
41.68000 15.130
41.72000 28.234
41.76000 26.399
41.80000 25.199
41.84000 14.131
41.88000 31.279
41.92000 23.485
41.96000 25.371
42.00000 22.237
42.04000 25.295
42.08000 22.286
42.12000 18.158
42.16000 22.250
42.20000 17.233
42.24000 14.051
42.28000 24.157
42.32000 22.285
42.36000 26.492
42.40000 15.136
42.44000 20.207
42.48000 15.093
42.52000 26.287
42.56000 20.315
42.60000 16.271
42.64000 21.298
42.68000 30.432
42.72000 18.205
42.76000 17.273
42.80000 34.263
42.84000 20.202
42.88000 33.773
42.92000 22.298
42.96000 16.127
43.00000 21.308
43.04000 21.167
43.08000 23.040
43.12000 19.305
43.16000 19.303
43.20000 31.256
43.24000 24.429
43.28000 22.423
43.32000 16.202
43.36000 24.326
43.40000 25.474
43.44000 13.208
43.48000 22.365
43.52000 18.256
43.56000 27.490
43.60000 23.139
43.64000 16.368
43.68000 15.141
43.72000 26.372
43.76000 22.322
43.80000 24.271
43.84000 27.352
43.88000 28.360
43.92000 16.314
43.96000 17.076
44.00000 26.381
44.04000 20.150
44.08000 22.409
44.12000 25.291
44.16000 18.307
44.20000 31.317
44.24000 28.555
44.28000 13.024
44.32000 15.320
44.36000 20.187
44.40000 18.263
44.44000 17.275
44.48000 22.327
44.52000 24.343
44.56000 18.207
44.60000 22.259
44.64000 25.368
44.68000 25.282
44.72000 17.173
44.76000 27.397
44.80000 28.491
44.84000 19.208
44.88000 20.259
44.92000 22.457
44.96000 15.125
45.00000 19.191
45.04000 18.179
45.08000 27.302
45.12000 23.514
45.16000 25.230
45.20000 25.450
45.24000 17.281
45.28000 12.091
45.32000 20.291
45.36000 16.246
45.40000 22.273
45.44000 29.268
45.48000 16.029
45.52000 19.165
45.56000 24.301
45.60000 18.106
45.64000 18.319
45.68000 21.288
45.72000 30.277
45.76000 24.366
45.80000 21.057
45.84000 25.385
45.88000 28.267
45.92000 18.119
45.96000 18.258
46.00000 21.185
46.04000 29.327
46.08000 23.315
46.12000 16.254
46.16000 20.311
46.20000 22.187
46.24000 22.193
46.28000 22.275
46.32000 23.224
46.36000 31.195
46.40000 17.378
46.44000 22.138
46.48000 17.255
46.52000 17.268
46.56000 20.522
46.60000 19.123
46.64000 20.307
46.68000 20.292
46.72000 20.362
46.76000 22.169
46.80000 19.157
46.84000 22.130
46.88000 22.615
46.92000 22.260
46.96000 27.187
47.00000 21.061
47.04000 25.568
47.08000 17.168
47.12000 22.138
47.16000 15.179
47.20000 18.126
47.24000 24.079
47.28000 12.119
47.32000 28.322
47.36000 15.155
47.40000 15.239
47.44000 22.321
47.48000 19.210
47.52000 29.456
47.56000 16.183
47.60000 18.341
47.64000 18.198
47.68000 16.340
47.72000 17.383
47.76000 15.246
47.80000 18.218
47.84000 17.255
47.88000 12.113
47.92000 23.274
47.96000 16.280
48.00000 19.194
48.04000 25.167
48.08000 11.170
48.12000 13.338
48.16000 23.406
48.20000 15.084
48.24000 21.229
48.28000 12.287
48.32000 25.408
48.36000 26.526
48.40000 19.077
48.44000 21.139
48.48000 18.158
48.52000 14.017
48.56000 8.161
48.60000 17.146
48.64000 21.293
48.68000 20.206
48.72000 22.231
48.76000 17.180
48.80000 21.478
48.84000 22.530
48.88000 23.169
48.92000 18.397
48.96000 15.256
49.00000 16.214
49.04000 25.334
49.08000 24.374
49.12000 28.267
49.16000 19.223
49.20000 13.200
49.24000 19.333
49.28000 18.456
49.32000 22.304
49.36000 13.193
49.40000 21.234
49.44000 16.386
49.48000 27.483
49.52000 22.242
49.56000 15.238
49.60000 18.376
49.64000 12.094
49.68000 18.244
49.72000 18.230
49.76000 21.431
49.80000 12.149
49.84000 20.151
49.88000 20.189
49.92000 15.179
49.96000 22.164
50.00000 18.163
50.04000 20.380
50.08000 28.382
50.12000 10.195
50.16000 22.457
50.20000 16.201
50.24000 17.273
50.28000 17.087
50.32000 17.197
50.36000 21.167
50.40000 17.347
50.44000 26.229
50.48000 21.328
50.52000 18.141
50.56000 19.471
50.60000 24.209
50.64000 20.097
50.68000 23.440
50.72000 23.215
50.76000 23.157
50.80000 15.264
50.84000 18.197
50.88000 16.062
50.92000 17.150
50.96000 17.396
51.00000 11.212
51.04000 8.108
51.08000 22.324
51.12000 17.460
51.16000 25.286
51.20000 20.315
51.24000 20.371
51.28000 16.191
51.32000 13.314
51.36000 18.196
51.40000 15.068
51.44000 15.317
51.48000 18.259
51.52000 17.161
51.56000 18.138
51.60000 23.236
51.64000 16.160
51.68000 15.176
51.72000 21.201
51.76000 20.188
51.80000 22.345
51.84000 23.377
51.88000 17.135
51.92000 14.114
51.96000 12.128
52.00000 19.213
52.04000 16.147
52.08000 14.049
52.12000 12.255
52.16000 15.253
52.20000 11.090
52.24000 14.204
52.28000 17.206
52.32000 17.114
52.36000 16.143
52.40000 12.111
52.44000 14.298
52.48000 12.071
52.52000 9.086
52.56000 17.343
52.60000 10.014
52.64000 10.136
52.68000 10.043
52.72000 18.174
52.76000 12.152
52.80000 13.279
52.84000 15.151
52.88000 19.125
52.92000 19.148
52.96000 18.233
53.00000 14.138
53.04000 15.337
53.08000 15.252
53.12000 12.935
53.16000 15.242
53.20000 16.290
53.24000 11.008
53.28000 16.185
53.32000 11.113
53.36000 14.275
53.40000 18.246
53.44000 14.219
53.48000 13.314
53.52000 10.048
53.56000 18.255
53.60000 14.276
53.64000 15.186
53.68000 13.115
53.72000 13.197
53.76000 20.384
53.80000 17.098
53.84000 12.070
53.88000 10.115
53.92000 13.255
53.96000 16.355
54.00000 21.130
54.04000 12.145
54.08000 14.229
54.12000 18.362
54.16000 18.319
54.20000 19.087
54.24000 15.115
54.28000 12.078
54.32000 20.201
54.36000 20.198
54.40000 11.125
54.44000 18.063
54.48000 11.287
54.52000 14.043
54.56000 13.130
54.60000 12.125
54.64000 10.254
54.68000 12.144
54.72000 15.344
54.76000 13.256
54.80000 12.384
54.84000 13.122
54.88000 11.097
54.92000 9.199
54.96000 12.080
55.00000 21.189
55.04000 8.069
55.08000 18.334
55.12000 18.297
55.16000 14.298
55.20000 17.304
55.24000 15.247
55.28000 15.126
55.32000 14.217
55.36000 18.345
55.40000 9.118
55.44000 20.273
55.48000 11.165
55.52000 17.209
55.56000 11.123
55.60000 12.165
55.64000 14.070
55.68000 12.057
55.72000 12.102
55.76000 10.063
55.80000 12.065
55.84000 12.117
55.88000 18.216
55.92000 16.321
55.96000 9.041
56.00000 14.192
56.04000 18.175
56.08000 10.226
56.12000 21.383
56.16000 16.134
56.20000 10.972
56.24000 16.204
56.28000 16.109
56.32000 12.159
56.36000 16.234
56.40000 12.238
56.44000 7.061
56.48000 7.087
56.52000 7.009
56.56000 11.087
56.60000 12.255
56.64000 9.144
56.68000 14.286
56.72000 12.225
56.76000 14.047
56.80000 12.167
56.84000 14.152
56.88000 6.094
56.92000 12.132
56.96000 13.062
57.00000 10.142
57.04000 9.042
57.08000 13.013
57.12000 14.205
57.16000 18.295
57.20000 8.126
57.24000 16.289
57.28000 15.125
57.32000 16.137
57.36000 14.156
57.40000 10.211
57.44000 16.110
57.48000 13.077
57.52000 9.132
57.56000 12.137
57.60000 11.150
57.64000 13.082
57.68000 16.251
57.72000 18.252
57.76000 10.171
57.80000 27.450
57.84000 16.217
57.88000 10.075
57.92000 17.352
57.96000 14.273
58.00000 13.213
58.04000 12.122
58.08000 12.179
58.12000 14.249
58.16000 15.164
58.20000 16.094
58.24000 19.371
58.28000 6.067
58.32000 6.178
58.36000 13.039
58.40000 12.134
58.44000 16.251
58.48000 6.261
58.52000 5.995
58.56000 11.011
58.60000 13.320
58.64000 7.061
58.68000 8.074
58.72000 12.209
58.76000 6.034
58.80000 13.132
58.84000 5.018
58.88000 10.135
58.92000 10.015
58.96000 13.172
59.00000 9.193
59.04000 8.079
59.08000 12.149
59.12000 15.179
59.16000 13.025
59.20000 12.156
59.24000 3.090
59.28000 14.308
59.32000 4.990
59.36000 15.130
59.40000 5.053
59.44000 9.183
59.48000 7.089
59.52000 9.062
59.56000 13.113
59.60000 7.019
59.64000 12.163
59.68000 12.184
59.72000 12.092
59.76000 13.223
59.80000 10.072
59.84000 9.169
59.88000 8.017
59.92000 13.125
59.96000 11.151
60.00000 14.214
60.04000 9.072
60.08000 16.154
60.12000 4.990
60.16000 12.137
60.20000 10.064
60.24000 8.117
60.28000 13.140
60.32000 12.137
60.36000 10.195
60.40000 10.122
60.44000 11.155
60.48000 5.056
60.52000 5.096
60.56000 5.026
60.60000 8.978
60.64000 5.074
60.68000 16.306
60.72000 11.028
60.76000 17.299
60.80000 11.244
60.84000 5.077
60.88000 6.961
60.92000 10.198
60.96000 8.068
61.00000 10.205
61.04000 9.048
61.08000 8.970
61.12000 10.155
61.16000 14.159
61.20000 14.141
61.24000 5.052
61.28000 7.146
61.32000 12.144
61.36000 6.986
61.40000 15.072
61.44000 10.060
61.48000 10.137
61.52000 9.171
61.56000 11.088
61.60000 4.982
61.64000 7.021
61.68000 8.075
61.72000 13.171
61.76000 12.206
61.80000 7.194
61.84000 8.090
61.88000 5.123
61.92000 8.145
61.96000 10.998
62.00000 7.154
62.04000 4.967
62.08000 8.079
62.12000 10.038
62.16000 9.167
62.20000 11.137
62.24000 5.055
62.28000 9.134
62.32000 10.070
62.36000 11.096
62.40000 10.061
62.44000 15.207
62.48000 5.034
62.52000 5.044
62.56000 14.252
62.60000 13.297
62.64000 10.038
62.68000 9.097
62.72000 11.222
62.76000 13.076
62.80000 9.197
62.84000 11.126
62.88000 6.015
62.92000 12.100
62.96000 10.054
63.00000 11.121
63.04000 11.181
63.08000 10.210
63.12000 10.229
63.16000 10.130
63.20000 8.074
63.24000 4.031
63.28000 7.056
63.32000 6.013
63.36000 9.163
63.40000 6.167
63.44000 12.053
63.48000 6.110
63.52000 11.081
63.56000 6.040
63.60000 8.161
63.64000 7.055
63.68000 4.992
63.72000 9.062
63.76000 12.142
63.80000 5.042
63.84000 6.069
63.88000 5.053
63.92000 12.125
63.96000 9.155
64.00000 12.123
64.04000 10.143
64.08000 14.316
64.12000 8.298
64.16000 7.022
64.20000 7.125
64.24000 8.972
64.28000 10.106
64.32000 5.973
64.36000 11.201
64.40000 14.160
64.44000 7.069
64.48000 7.999
64.52000 8.972
64.56000 11.080
64.60000 8.069
64.64000 5.061
64.68000 8.164
64.72000 5.062
64.76000 8.078
64.80000 9.075
64.84000 14.180
64.88000 12.120
64.92000 9.217
64.96000 10.175
65.00000 12.129