File: XRD/11-09-2025/XY Data/01092025_BTO_omega_1_001_13_15-587_-19-546.xy
20.00000 171.658
20.04000 167.860
20.08000 185.268
20.12000 139.316
20.16000 172.277
20.20000 173.754
20.24000 183.488
20.28000 161.397
20.32000 156.673
20.36000 159.192
20.40000 158.218
20.44000 143.665
20.48000 164.708
20.52000 148.470
20.56000 155.669
20.60000 138.357
20.64000 142.504
20.68000 140.836
20.72000 165.700
20.76000 119.165
20.80000 133.650
20.84000 131.558
20.88000 149.946
20.92000 146.223
20.96000 130.550
21.00000 125.262
21.04000 135.587
21.08000 132.212
21.12000 130.496
21.16000 127.208
21.20000 129.680
21.24000 124.506
21.28000 103.162
21.32000 119.881
21.36000 114.697
21.40000 123.029
21.44000 100.164
21.48000 113.294
21.52000 112.794
21.56000 106.082
21.60000 114.230
21.64000 98.864
21.68000 113.997
21.72000 100.963
21.76000 108.199
21.80000 97.912
21.84000 107.336
21.88000 105.058
21.92000 86.967
21.96000 98.199
22.00000 88.087
22.04000 112.261
22.08000 97.209
22.12000 87.668
22.16000 82.662
22.20000 92.034
22.24000 90.912
22.28000 94.078
22.32000 69.717
22.36000 77.621
22.40000 89.652
22.44000 72.643
22.48000 73.592
22.52000 67.968
22.56000 70.707
22.60000 66.651
22.64000 71.705
22.68000 71.517
22.72000 57.627
22.76000 67.510
22.80000 74.659
22.84000 56.450
22.88000 44.382
22.92000 63.349
22.96000 59.558
23.00000 59.012
23.04000 53.360
23.08000 58.569
23.12000 47.494
23.16000 50.393
23.20000 57.663
23.24000 55.619
23.28000 59.653
23.32000 37.469
23.36000 39.454
23.40000 47.341
23.44000 39.396
23.48000 46.278
23.52000 59.636
23.56000 51.158
23.60000 49.637
23.64000 42.530
23.68000 40.526
23.72000 45.366
23.76000 51.652
23.80000 37.459
23.84000 34.478
23.88000 54.906
23.92000 37.343
23.96000 41.434
24.00000 31.615
24.04000 38.354
24.08000 46.816
24.12000 32.257
24.16000 32.208
24.20000 42.594
24.24000 40.244
24.28000 53.257
24.32000 33.307
24.36000 31.195
24.40000 29.354
24.44000 23.241
24.48000 24.330
24.52000 32.394
24.56000 26.231
24.60000 24.239
24.64000 17.383
24.68000 25.410
24.72000 21.132
24.76000 23.263
24.80000 36.345
24.84000 23.322
24.88000 24.256
24.92000 28.464
24.96000 26.219
25.00000 16.236
25.04000 19.382
25.08000 26.163
25.12000 16.118
25.16000 26.366
25.20000 24.293
25.24000 26.455
25.28000 23.339
25.32000 19.232
25.36000 18.262
25.40000 24.190
25.44000 29.376
25.48000 16.279
25.52000 15.238
25.56000 23.223
25.60000 12.052
25.64000 20.205
25.68000 21.376
25.72000 25.295
25.76000 20.319
25.80000 26.293
25.84000 24.367
25.88000 18.180
25.92000 15.163
25.96000 20.212
26.00000 16.146
26.04000 15.271
26.08000 21.182
26.12000 15.121
26.16000 25.269
26.20000 17.212
26.24000 17.066
26.28000 16.220
26.32000 15.988
26.36000 10.033
26.40000 18.152
26.44000 22.285
26.48000 14.140
26.52000 12.344
26.56000 22.049
26.60000 16.112
26.64000 15.114
26.68000 14.157
26.72000 10.055
26.76000 16.119
26.80000 7.139
26.84000 13.022
26.88000 14.124
26.92000 10.107
26.96000 9.117
27.00000 10.007
27.04000 11.033
27.08000 16.102
27.12000 16.167
27.16000 12.100
27.20000 17.316
27.24000 13.196
27.28000 15.133
27.32000 15.073
27.36000 11.164
27.40000 13.131
27.44000 21.031
27.48000 12.070
27.52000 10.101
27.56000 14.158
27.60000 11.152
27.64000 10.168
27.68000 8.111
27.72000 13.201
27.76000 12.207
27.80000 9.069
27.84000 15.107
27.88000 16.235
27.92000 14.184
27.96000 11.138
28.00000 10.126
28.04000 15.141
28.08000 9.126
28.12000 11.989
28.16000 15.137
28.20000 12.211
28.24000 7.161
28.28000 16.333
28.32000 10.004
28.36000 11.185
28.40000 12.125
28.44000 10.081
28.48000 8.164
28.52000 11.264
28.56000 8.034
28.60000 15.153
28.64000 16.342
28.68000 9.035
28.72000 7.135
28.76000 19.347
28.80000 6.066
28.84000 9.145
28.88000 13.197
28.92000 12.102
28.96000 12.165
29.00000 9.014
29.04000 12.095
29.08000 10.989
29.12000 8.209
29.16000 8.139
29.20000 11.101
29.24000 9.135
29.28000 7.089
29.32000 14.212
29.36000 8.070
29.40000 17.345
29.44000 14.098
29.48000 9.035
29.52000 13.089
29.56000 11.161
29.60000 13.194
29.64000 6.114
29.68000 15.208
29.72000 13.180
29.76000 11.056
29.80000 10.025
29.84000 8.165
29.88000 11.095
29.92000 10.171
29.96000 8.088
30.00000 11.304
30.04000 8.150
30.08000 13.238
30.12000 5.053
30.16000 10.083
30.20000 8.106
30.24000 11.098
30.28000 6.093
30.32000 10.190
30.36000 10.105
30.40000 14.224
30.44000 10.123
30.48000 11.139
30.52000 8.255
30.56000 2.986
30.60000 9.155
30.64000 17.202
30.68000 9.156
30.72000 10.066
30.76000 9.089
30.80000 6.185
30.84000 8.144
30.88000 9.144
30.92000 6.015
30.96000 5.010
31.00000 6.092
31.04000 13.067
31.08000 7.133
31.12000 7.082
31.16000 6.073
31.20000 10.158
31.24000 9.095
31.28000 7.174
31.32000 10.119
31.36000 9.154
31.40000 14.194
31.44000 11.146
31.48000 8.208
31.52000 7.052
31.56000 5.122
31.60000 10.197
31.64000 10.160
31.68000 5.019
31.72000 7.048
31.76000 7.184
31.80000 5.144
31.84000 4.957
31.88000 4.075
31.92000 15.264
31.96000 8.124
32.00000 7.147
32.04000 10.144
32.08000 6.064
32.12000 8.103
32.16000 15.076
32.20000 11.233
32.24000 2.975
32.28000 6.167
32.32000 10.250
32.36000 7.003
32.40000 10.148
32.44000 6.111
32.48000 5.114
32.52000 9.220
32.56000 10.099
32.60000 10.216
32.64000 12.064
32.68000 4.039
32.72000 11.055
32.76000 10.296
32.80000 9.145
32.84000 13.152
32.88000 7.993
32.92000 4.077
32.96000 11.243
33.00000 8.138
33.04000 11.122
33.08000 1.014
33.12000 5.036
33.16000 8.090
33.20000 8.162
33.24000 8.992
33.28000 8.090
33.32000 5.146
33.36000 7.108
33.40000 9.098
33.44000 4.083
33.48000 5.058
33.52000 5.111
33.56000 14.140
33.60000 4.968
33.64000 6.030
33.68000 5.022
33.72000 4.960
33.76000 5.951
33.80000 6.041
33.84000 8.146
33.88000 8.127
33.92000 7.026
33.96000 3.074
34.00000 6.067
34.04000 1.989
34.08000 3.003
34.12000 3.082
34.16000 1.001
34.20000 8.152
34.24000 7.180
34.28000 7.108
34.32000 11.192
34.36000 6.058
34.40000 5.071
34.44000 8.062
34.48000 11.228
34.52000 3.049
34.56000 4.062
34.60000 9.204
34.64000 12.199
34.68000 5.966
34.72000 6.162
34.76000 2.089
34.80000 5.025
34.84000 9.057
34.88000 5.951
34.92000 3.041
34.96000 10.153
35.00000 11.159
35.04000 3.034
35.08000 5.124
35.12000 9.079
35.16000 6.070
35.20000 6.061
35.24000 5.038
35.28000 7.139
35.32000 5.090
35.36000 6.120
35.40000 7.012
35.44000 6.083
35.48000 4.039
35.52000 4.018
35.56000 5.034
35.60000 4.060
35.64000 5.973
35.68000 6.009
35.72000 4.969
35.76000 6.210
35.80000 4.100
35.84000 4.123
35.88000 8.132
35.92000 9.172
35.96000 9.088
36.00000 3.003
36.04000 1.012
36.08000 4.072
36.12000 8.041
36.16000 3.066
36.20000 8.008
36.24000 3.003
36.28000 5.030
36.32000 4.007
36.36000 7.097
36.40000 10.263
36.44000 6.035
36.48000 7.220
36.52000 2.098
36.56000 1.988
36.60000 7.115
36.64000 5.005
36.68000 5.051
36.72000 4.082
36.76000 5.021
36.80000 7.113
36.84000 0.983
36.88000 8.059
36.92000 11.153
36.96000 3.008
37.00000 6.080
37.04000 2.025
37.08000 6.119
37.12000 3.001
37.16000 4.000
37.20000 5.152
37.24000 6.075
37.28000 2.990
37.32000 5.081
37.36000 5.038
37.40000 2.969
37.44000 6.035
37.48000 8.066
37.52000 5.104
37.56000 2.081
37.60000 5.004
37.64000 3.027
37.68000 7.093
37.72000 4.131
37.76000 4.057
37.80000 8.196
37.84000 4.087
37.88000 9.085
37.92000 6.123
37.96000 3.053
38.00000 7.109
38.04000 3.970
38.08000 5.061
38.12000 5.034
38.16000 4.058
38.20000 6.070
38.24000 4.039
38.28000 0.996
38.32000 3.001
38.36000 3.000
38.40000 4.993
38.44000 1.963
38.48000 5.087
38.52000 3.039
38.56000 6.106
38.60000 6.048
38.64000 5.042
38.68000 5.063
38.72000 3.090
38.76000 5.988
38.80000 5.037
38.84000 2.057
38.88000 7.156
38.92000 6.020
38.96000 3.031
39.00000 1.024
39.04000 7.147
39.08000 9.143
39.12000 5.960
39.16000 3.045
39.20000 5.108
39.24000 1.974
39.28000 5.096
39.32000 6.066
39.36000 5.006
39.40000 8.026
39.44000 5.032
39.48000 6.110
39.52000 3.994
39.56000 6.066
39.60000 11.317
39.64000 8.125
39.68000 5.125
39.72000 2.033
39.76000 5.956
39.80000 8.087
39.84000 2.026
39.88000 9.127
39.92000 7.094
39.96000 6.057
40.00000 5.035
40.04000 6.102
40.08000 7.066
40.12000 2.014
40.16000 7.197
40.20000 3.032
40.24000 7.138
40.28000 5.042
40.32000 4.040
40.36000 5.022
40.40000 3.051
40.44000 9.196
40.48000 1.048
40.52000 2.067
40.56000 2.034
40.60000 2.989
40.64000 5.069
40.68000 6.140
40.72000 6.140
40.76000 6.162
40.80000 5.113
40.84000 3.992
40.88000 2.031
40.92000 4.996
40.96000 5.087
41.00000 6.040
41.04000 5.014
41.08000 6.020
41.12000 4.000
41.16000 3.998
41.20000 5.146
41.24000 3.080
41.28000 5.095
41.32000 5.091
41.36000 4.058
41.40000 1.035
41.44000 11.013
41.48000 1.007
41.52000 4.932
41.56000 7.131
41.60000 3.093
41.64000 6.165
41.68000 3.059
41.72000 7.201
41.76000 3.034
41.80000 5.075
41.84000 3.070
41.88000 6.054
41.92000 4.003
41.96000 4.025
42.00000 6.239
42.04000 1.069
42.08000 3.044
42.12000 3.024
42.16000 5.028
42.20000 2.023
42.24000 5.061
42.28000 6.119
42.32000 6.024
42.36000 1.049
42.40000 7.153
42.44000 1.016
42.48000 2.024
42.52000 4.040
42.56000 7.040
42.60000 2.027
42.64000 5.147
42.68000 2.020
42.72000 8.190
42.76000 4.027
42.80000 2.998
42.84000 2.014
42.88000 0.987
42.92000 6.121
42.96000 3.026
43.00000 1.029
43.04000 3.059
43.08000 4.108
43.12000 3.161
43.16000 4.037
43.20000 4.060
43.24000 6.064
43.28000 3.099
43.32000 7.030
43.36000 1.989
43.40000 3.111
43.44000 1.988
43.48000 6.020
43.52000 2.038
43.56000 8.952
43.60000 1.987
43.64000 1.002
43.68000 7.163
43.72000 3.023
43.76000 2.986
43.80000 5.029
43.84000 3.091
43.88000 3.984
43.92000 2.014
43.96000 5.077
44.00000 2.003
44.04000 3.026
44.08000 4.077
44.12000 4.046
44.16000 3.031
44.20000 3.005
44.24000 1.984
44.28000 1.977
44.32000 3.987
44.36000 4.155
44.40000 1.026
44.44000 3.019
44.48000 0.000
44.52000 5.203
44.56000 6.024
44.60000 3.023
44.64000 0.000
44.68000 2.998
44.72000 1.995
44.76000 6.063
44.80000 2.000
44.84000 2.988
44.88000 1.999
44.92000 3.041
44.96000 4.017
45.00000 2.104
45.04000 9.041
45.08000 0.999
45.12000 5.051
45.16000 3.060
45.20000 3.980
45.24000 7.154
45.28000 3.010
45.32000 3.059
45.36000 2.033
45.40000 1.025
45.44000 4.094
45.48000 0.989
45.52000 4.098
45.56000 6.012
45.60000 2.041
45.64000 4.116
45.68000 0.990
45.72000 5.109
45.76000 4.013
45.80000 2.012
45.84000 4.093
45.88000 3.013
45.92000 5.108
45.96000 3.062
46.00000 5.085
46.04000 2.016
46.08000 1.006
46.12000 2.101
46.16000 5.034
46.20000 4.092
46.24000 2.092
46.28000 3.036
46.32000 3.073
46.36000 3.076
46.40000 1.021
46.44000 3.072
46.48000 1.024
46.52000 3.008
46.56000 4.104
46.60000 1.991
46.64000 1.002
46.68000 2.025
46.72000 3.099
46.76000 1.024
46.80000 1.990
46.84000 2.049
46.88000 6.091
46.92000 5.011
46.96000 2.058
47.00000 5.076
47.04000 0.000
47.08000 3.070
47.12000 3.122
47.16000 2.013
47.20000 3.042
47.24000 2.977
47.28000 4.049
47.32000 1.973
47.36000 5.001
47.40000 1.003
47.44000 7.101
47.48000 6.087
47.52000 0.000
47.56000 3.089
47.60000 4.958
47.64000 5.076
47.68000 2.046
47.72000 0.991
47.76000 1.030
47.80000 3.002
47.84000 5.092
47.88000 3.044
47.92000 2.035
47.96000 4.036
48.00000 2.029
48.04000 3.021
48.08000 6.965
48.12000 1.016
48.16000 2.019
48.20000 4.098
48.24000 1.001
48.28000 3.046
48.32000 2.041
48.36000 1.019
48.40000 5.020
48.44000 0.000
48.48000 2.067
48.52000 5.042
48.56000 9.037
48.60000 2.015
48.64000 2.073
48.68000 0.977
48.72000 4.072
48.76000 7.072
48.80000 4.111
48.84000 2.050
48.88000 0.988
48.92000 4.022
48.96000 3.076
49.00000 5.032
49.04000 0.995
49.08000 0.994
49.12000 0.991
49.16000 4.085
49.20000 1.992
49.24000 2.038
49.28000 4.059
49.32000 4.091
49.36000 2.034
49.40000 3.083
49.44000 2.037
49.48000 1.005
49.52000 1.010
49.56000 5.177
49.60000 4.991
49.64000 3.025
49.68000 8.213
49.72000 4.086
49.76000 1.996
49.80000 1.015
49.84000 2.069
49.88000 2.026
49.92000 5.094
49.96000 3.038
50.00000 7.078
50.04000 1.985
50.08000 1.007
50.12000 1.002
50.16000 1.032
50.20000 0.000
50.24000 5.116
50.28000 4.039
50.32000 3.063
50.36000 4.131
50.40000 3.021
50.44000 2.000
50.48000 3.022
50.52000 5.045
50.56000 5.034
50.60000 1.989
50.64000 2.071
50.68000 3.041
50.72000 1.024
50.76000 0.000
50.80000 1.029
50.84000 2.992
50.88000 0.996
50.92000 6.155
50.96000 2.038
51.00000 0.986
51.04000 2.068
51.08000 2.977
51.12000 4.100
51.16000 3.025
51.20000 4.042
51.24000 4.049
51.28000 1.003
51.32000 0.000
51.36000 3.971
51.40000 0.969
51.44000 3.940
51.48000 2.004
51.52000 2.963
51.56000 3.072
51.60000 3.131
51.64000 0.000
51.68000 3.056
51.72000 3.036
51.76000 5.029
51.80000 2.079
51.84000 2.006
51.88000 2.050
51.92000 1.033
51.96000 4.054
52.00000 3.044
52.04000 1.040
52.08000 1.036
52.12000 1.992
52.16000 6.074
52.20000 2.022
52.24000 4.122
52.28000 6.045
52.32000 1.993
52.36000 1.995
52.40000 1.969
52.44000 1.041
52.48000 2.015
52.52000 3.022
52.56000 0.997
52.60000 4.100
52.64000 1.064
52.68000 1.019
52.72000 1.998
52.76000 2.057
52.80000 1.000
52.84000 2.040
52.88000 0.999
52.92000 2.937
52.96000 0.000
53.00000 2.010
53.04000 0.982
53.08000 5.032
53.12000 2.014
53.16000 3.082
53.20000 2.966
53.24000 4.134
53.28000 3.004
53.32000 1.044
53.36000 4.058
53.40000 0.000
53.44000 2.032
53.48000 1.001
53.52000 1.002
53.56000 2.010
53.60000 2.992
53.64000 6.107
53.68000 2.073
53.72000 3.075
53.76000 2.055
53.80000 3.097
53.84000 5.952
53.88000 1.001
53.92000 0.993
53.96000 1.042
54.00000 2.030
54.04000 0.987
54.08000 4.050
54.12000 0.996
54.16000 2.021
54.20000 3.068
54.24000 6.146
54.28000 3.036
54.32000 1.016
54.36000 4.120
54.40000 2.002
54.44000 1.031
54.48000 2.028
54.52000 0.986
54.56000 1.009
54.60000 5.061
54.64000 2.958
54.68000 2.005
54.72000 3.077
54.76000 1.014
54.80000 1.030
54.84000 0.990
54.88000 1.021
54.92000 1.009
54.96000 3.055
55.00000 0.000
55.04000 7.106
55.08000 2.994
55.12000 2.978
55.16000 1.993
55.20000 4.074
55.24000 0.999
55.28000 3.037
55.32000 3.054
55.36000 3.033
55.40000 1.969
55.44000 1.047
55.48000 2.981
55.52000 0.000
55.56000 2.056
55.60000 1.986
55.64000 0.000
55.68000 3.031
55.72000 1.011
55.76000 2.065
55.80000 2.994
55.84000 1.012
55.88000 1.027
55.92000 4.003
55.96000 0.000
56.00000 2.973
56.04000 5.054
56.08000 3.036
56.12000 0.000
56.16000 5.116
56.20000 1.017
56.24000 5.116
56.28000 1.030
56.32000 0.987
56.36000 0.000
56.40000 2.102
56.44000 1.991
56.48000 6.027
56.52000 4.980
56.56000 3.019
56.60000 3.044
56.64000 2.034
56.68000 2.986
56.72000 2.001
56.76000 3.029
56.80000 2.031
56.84000 4.037
56.88000 4.028
56.92000 4.912
56.96000 3.106
57.00000 2.004
57.04000 4.079
57.08000 3.097
57.12000 2.026
57.16000 1.017
57.20000 2.001
57.24000 0.000
57.28000 3.058
57.32000 3.013
57.36000 2.020
57.40000 3.118
57.44000 3.097
57.48000 0.990
57.52000 4.052
57.56000 2.008
57.60000 4.024
57.64000 1.044
57.68000 0.990
57.72000 2.027
57.76000 4.024
57.80000 1.958
57.84000 0.000
57.88000 3.052
57.92000 0.000
57.96000 0.995
58.00000 6.066
58.04000 3.033
58.08000 2.038
58.12000 4.021
58.16000 3.045
58.20000 3.015
58.24000 5.038
58.28000 3.112
58.32000 0.000
58.36000 2.023
58.40000 5.081
58.44000 2.052
58.48000 3.035
58.52000 6.109
58.56000 1.999
58.60000 0.000
58.64000 2.009
58.68000 0.000
58.72000 0.000
58.76000 0.991
58.80000 1.029
58.84000 4.005
58.88000 1.965
58.92000 1.016
58.96000 4.014
59.00000 4.192
59.04000 1.997
59.08000 2.043
59.12000 2.059
59.16000 1.045
59.20000 0.999
59.24000 2.036
59.28000 4.062
59.32000 2.050
59.36000 4.045
59.40000 2.028
59.44000 4.006
59.48000 1.051
59.52000 2.004
59.56000 1.014
59.60000 0.000
59.64000 2.032
59.68000 2.075
59.72000 0.000
59.76000 0.988
59.80000 4.967
59.84000 1.970
59.88000 1.030
59.92000 3.099
59.96000 6.033
60.00000 1.003
60.04000 1.047
60.08000 3.047
60.12000 2.021
60.16000 2.037
60.20000 0.000
60.24000 3.029
60.28000 3.969
60.32000 1.983
60.36000 3.057
60.40000 3.003
60.44000 2.059
60.48000 3.009
60.52000 0.000
60.56000 3.013
60.60000 2.052
60.64000 0.000
60.68000 3.082
60.72000 0.987
60.76000 1.017
60.80000 3.007
60.84000 0.995
60.88000 0.000
60.92000 3.057
60.96000 3.004
61.00000 0.977
61.04000 0.981
61.08000 3.058
61.12000 0.969
61.16000 1.018
61.20000 5.052
61.24000 1.030
61.28000 1.999
61.32000 1.994
61.36000 2.050
61.40000 1.016
61.44000 2.056
61.48000 2.073
61.52000 4.083
61.56000 1.005
61.60000 3.013
61.64000 4.994
61.68000 2.071
61.72000 2.051
61.76000 1.082
61.80000 2.039
61.84000 1.998
61.88000 1.056
61.92000 3.051
61.96000 4.026
62.00000 4.063
62.04000 3.041
62.08000 0.000
62.12000 3.067
62.16000 0.000
62.20000 1.020
62.24000 1.052
62.28000 3.053
62.32000 2.046
62.36000 1.038
62.40000 2.032
62.44000 1.028
62.48000 2.015
62.52000 6.078
62.56000 1.041
62.60000 0.000
62.64000 1.011
62.68000 1.984
62.72000 4.019
62.76000 2.037
62.80000 3.053
62.84000 1.017
62.88000 3.034
62.92000 3.060
62.96000 1.015
63.00000 1.033
63.04000 2.007
63.08000 5.053
63.12000 2.007
63.16000 2.988
63.20000 0.000
63.24000 1.026
63.28000 2.082
63.32000 0.000
63.36000 3.011
63.40000 3.020
63.44000 2.038
63.48000 0.998
63.52000 2.982
63.56000 3.023
63.60000 3.038
63.64000 3.034
63.68000 0.000
63.72000 3.986
63.76000 1.047
63.80000 3.035
63.84000 3.077
63.88000 3.029
63.92000 1.009
63.96000 1.998
64.00000 2.958
64.04000 5.029
64.08000 3.015
64.12000 2.027
64.16000 0.976
64.20000 3.013
64.24000 2.008
64.28000 2.026
64.32000 0.000
64.36000 0.000
64.40000 4.042
64.44000 0.000
64.48000 2.040
64.52000 0.000
64.56000 2.043
64.60000 0.981
64.64000 0.000
64.68000 2.030
64.72000 1.989
64.76000 1.011
64.80000 2.060
64.84000 0.000
64.88000 1.004
64.92000 1.019
64.96000 0.000
65.00000 0.998