File: XRD/11-09-2025/XY Data/01092025_BTO_omega_0_5_001_02_25-000_0-000.xy
20.00000 15.133
20.04000 12.067
20.08000 11.115
20.12000 20.269
20.16000 19.316
20.20000 7.011
20.24000 21.134
20.28000 14.253
20.32000 10.145
20.36000 13.150
20.40000 12.053
20.44000 9.125
20.48000 18.216
20.52000 17.202
20.56000 13.074
20.60000 17.178
20.64000 16.396
20.68000 11.096
20.72000 14.378
20.76000 14.907
20.80000 7.067
20.84000 12.085
20.88000 18.333
20.92000 17.278
20.96000 7.059
21.00000 16.168
21.04000 10.151
21.08000 13.212
21.12000 14.266
21.16000 16.252
21.20000 7.131
21.24000 13.092
21.28000 16.214
21.32000 13.052
21.36000 12.115
21.40000 11.187
21.44000 17.396
21.48000 16.190
21.52000 14.247
21.56000 10.059
21.60000 16.163
21.64000 15.196
21.68000 17.032
21.72000 12.168
21.76000 10.133
21.80000 18.011
21.84000 13.186
21.88000 12.193
21.92000 11.153
21.96000 21.377
22.00000 16.106
22.04000 13.281
22.08000 15.227
22.12000 17.216
22.16000 11.070
22.20000 22.253
22.24000 22.209
22.28000 16.226
22.32000 12.990
22.36000 15.176
22.40000 16.194
22.44000 11.142
22.48000 13.078
22.52000 10.310
22.56000 17.263
22.60000 19.365
22.64000 15.346
22.68000 16.171
22.72000 15.424
22.76000 16.237
22.80000 18.261
22.84000 14.172
22.88000 17.176
22.92000 23.373
22.96000 15.149
23.00000 11.220
23.04000 15.399
23.08000 15.253
23.12000 16.120
23.16000 10.157
23.20000 13.129
23.24000 8.166
23.28000 16.293
23.32000 15.171
23.36000 11.041
23.40000 24.413
23.44000 20.268
23.48000 22.234
23.52000 18.251
23.56000 25.442
23.60000 13.075
23.64000 12.143
23.68000 12.197
23.72000 24.083
23.76000 26.567
23.80000 22.403
23.84000 21.292
23.88000 24.375
23.92000 27.366
23.96000 22.339
24.00000 18.167
24.04000 11.062
24.08000 23.215
24.12000 18.150
24.16000 14.271
24.20000 15.340
24.24000 26.284
24.28000 18.272
24.32000 22.114
24.36000 22.056
24.40000 14.134
24.44000 20.231
24.48000 17.366
24.52000 17.228
24.56000 19.272
24.60000 22.297
24.64000 26.980
24.68000 20.153
24.72000 20.214
24.76000 28.273
24.80000 21.199
24.84000 20.208
24.88000 15.258
24.92000 16.193
24.96000 20.281
25.00000 28.375
25.04000 23.443
25.08000 27.495
25.12000 18.211
25.16000 19.215
25.20000 12.149
25.24000 20.157
25.28000 19.099
25.32000 18.317
25.36000 30.354
25.40000 24.204
25.44000 22.434
25.48000 19.233
25.52000 28.380
25.56000 19.323
25.60000 22.277
25.64000 24.191
25.68000 18.195
25.72000 32.370
25.76000 26.391
25.80000 31.203
25.84000 18.253
25.88000 29.336
25.92000 30.506
25.96000 32.544
26.00000 23.280
26.04000 26.335
26.08000 26.534
26.12000 32.582
26.16000 26.400
26.20000 23.371
26.24000 30.691
26.28000 33.537
26.32000 30.388
26.36000 27.149
26.40000 15.229
26.44000 21.307
26.48000 21.324
26.52000 32.419
26.56000 30.609
26.60000 25.503
26.64000 31.465
26.68000 29.419
26.72000 28.222
26.76000 26.443
26.80000 28.568
26.84000 27.192
26.88000 34.337
26.92000 25.334
26.96000 28.356
27.00000 42.251
27.04000 33.268
27.08000 18.146
27.12000 29.519
27.16000 34.356
27.20000 28.253
27.24000 35.398
27.28000 31.579
27.32000 32.454
27.36000 27.448
27.40000 26.263
27.44000 29.424
27.48000 32.354
27.52000 27.628
27.56000 31.573
27.60000 32.478
27.64000 23.437
27.68000 26.641
27.72000 37.469
27.76000 43.603
27.80000 40.657
27.84000 23.232
27.88000 27.490
27.92000 37.788
27.96000 35.683
28.00000 30.565
28.04000 26.424
28.08000 38.640
28.12000 26.607
28.16000 33.505
28.20000 29.292
28.24000 26.188
28.28000 32.118
28.32000 28.401
28.36000 34.725
28.40000 31.265
28.44000 24.347
28.48000 20.046
28.52000 22.352
28.56000 31.305
28.60000 22.203
28.64000 27.504
28.68000 28.337
28.72000 29.301
28.76000 29.489
28.80000 23.256
28.84000 22.303
28.88000 34.453
28.92000 19.127
28.96000 34.561
29.00000 18.147
29.04000 27.550
29.08000 28.548
29.12000 20.273
29.16000 24.240
29.20000 23.361
29.24000 24.229
29.28000 20.204
29.32000 34.486
29.36000 27.122
29.40000 27.613
29.44000 21.374
29.48000 31.235
29.52000 19.162
29.56000 29.722
29.60000 26.345
29.64000 29.454
29.68000 23.334
29.72000 26.553
29.76000 21.352
29.80000 24.504
29.84000 11.171
29.88000 13.276
29.92000 38.601
29.96000 27.304
30.00000 20.298
30.04000 10.122
30.08000 16.190
30.12000 25.350
30.16000 20.419
30.20000 22.294
30.24000 22.247
30.28000 15.180
30.32000 19.458
30.36000 18.164
30.40000 20.336
30.44000 22.431
30.48000 26.210
30.52000 14.188
30.56000 17.278
30.60000 25.166
30.64000 17.142
30.68000 20.353
30.72000 24.447
30.76000 14.124
30.80000 15.244
30.84000 15.009
30.88000 19.323
30.92000 11.235
30.96000 29.403
31.00000 15.120
31.04000 18.216
31.08000 15.396
31.12000 14.180
31.16000 21.343
31.20000 26.418
31.24000 21.309
31.28000 16.227
31.32000 19.121
31.36000 14.191
31.40000 26.468
31.44000 13.263
31.48000 15.215
31.52000 22.140
31.56000 15.146
31.60000 13.990
31.64000 15.295
31.68000 11.177
31.72000 16.270
31.76000 13.248
31.80000 16.088
31.84000 17.109
31.88000 17.145
31.92000 13.056
31.96000 14.077
32.00000 15.249
32.04000 10.106
32.08000 16.258
32.12000 19.103
32.16000 21.498
32.20000 15.224
32.24000 8.004
32.28000 11.155
32.32000 6.104
32.36000 11.254
32.40000 12.140
32.44000 16.123
32.48000 16.016
32.52000 15.182
32.56000 20.408
32.60000 19.294
32.64000 14.200
32.68000 11.207
32.72000 12.152
32.76000 10.096
32.80000 9.003
32.84000 9.091
32.88000 14.138
32.92000 7.080
32.96000 8.199
33.00000 17.314
33.04000 14.104
33.08000 14.037
33.12000 10.074
33.16000 16.095
33.20000 8.087
33.24000 18.271
33.28000 20.437
33.32000 9.081
33.36000 12.313
33.40000 10.165
33.44000 13.050
33.48000 9.220
33.52000 10.150
33.56000 12.137
33.60000 7.112
33.64000 13.192
33.68000 8.207
33.72000 13.272
33.76000 12.292
33.80000 4.033
33.84000 7.128
33.88000 6.090
33.92000 8.267
33.96000 8.158
34.00000 9.122
34.04000 16.366
34.08000 12.150
34.12000 3.022
34.16000 7.986
34.20000 12.270
34.24000 8.065
34.28000 10.114
34.32000 10.209
34.36000 14.238
34.40000 10.142
34.44000 6.098
34.48000 5.986
34.52000 8.123
34.56000 8.121
34.60000 15.128
34.64000 12.288
34.68000 5.007
34.72000 7.924
34.76000 7.109
34.80000 11.161
34.84000 9.188
34.88000 5.097
34.92000 5.037
34.96000 6.957
35.00000 6.159
35.04000 13.227
35.08000 10.105
35.12000 4.133
35.16000 5.086
35.20000 8.168
35.24000 12.216
35.28000 4.029
35.32000 14.271
35.36000 7.045
35.40000 15.254
35.44000 8.992
35.48000 7.994
35.52000 9.115
35.56000 6.083
35.60000 6.142
35.64000 12.053
35.68000 2.034
35.72000 10.206
35.76000 5.230
35.80000 9.147
35.84000 10.074
35.88000 6.120
35.92000 6.080
35.96000 9.079
36.00000 12.022
36.04000 14.133
36.08000 9.043
36.12000 7.128
36.16000 7.132
36.20000 8.035
36.24000 21.306
36.28000 5.054
36.32000 8.037
36.36000 7.039
36.40000 13.132
36.44000 7.100
36.48000 12.232
36.52000 14.163
36.56000 11.148
36.60000 6.180
36.64000 7.022
36.68000 12.160
36.72000 11.181
36.76000 8.160
36.80000 5.086
36.84000 17.045
36.88000 11.090
36.92000 11.239
36.96000 4.117
37.00000 4.006
37.04000 10.092
37.08000 11.033
37.12000 14.224
37.16000 10.170
37.20000 14.238
37.24000 5.102
37.28000 11.187
37.32000 8.013
37.36000 8.086
37.40000 11.130
37.44000 7.986
37.48000 9.963
37.52000 6.088
37.56000 10.078
37.60000 7.057
37.64000 10.090
37.68000 5.012
37.72000 9.909
37.76000 6.150
37.80000 15.282
37.84000 11.034
37.88000 12.204
37.92000 10.993
37.96000 11.216
38.00000 5.037
38.04000 8.090
38.08000 9.122
38.12000 12.060
38.16000 10.079
38.20000 12.147
38.24000 6.072
38.28000 12.276
38.32000 13.263
38.36000 10.170
38.40000 7.120
38.44000 3.019
38.48000 8.087
38.52000 8.990
38.56000 10.101
38.60000 12.048
38.64000 9.254
38.68000 4.080
38.72000 13.395
38.76000 14.331
38.80000 9.216
38.84000 11.071
38.88000 12.162
38.92000 9.220
38.96000 11.281
39.00000 10.029
39.04000 13.095
39.08000 11.172
39.12000 9.208
39.16000 6.050
39.20000 12.060
39.24000 12.248
39.28000 7.098
39.32000 14.178
39.36000 8.179
39.40000 7.162
39.44000 6.129
39.48000 14.179
39.52000 11.251
39.56000 14.019
39.60000 13.091
39.64000 12.148
39.68000 8.959
39.72000 12.212
39.76000 2.023
39.80000 10.975
39.84000 10.150
39.88000 14.154
39.92000 10.187
39.96000 12.234
40.00000 7.082
40.04000 7.971
40.08000 9.065
40.12000 6.020
40.16000 12.138
40.20000 12.080
40.24000 2.995
40.28000 5.957
40.32000 16.033
40.36000 7.063
40.40000 9.056
40.44000 13.078
40.48000 6.040
40.52000 4.987
40.56000 4.085
40.60000 5.994
40.64000 7.965
40.68000 10.165
40.72000 9.170
40.76000 17.120
40.80000 14.315
40.84000 6.983
40.88000 2.977
40.92000 11.131
40.96000 6.118
41.00000 8.126
41.04000 12.218
41.08000 10.063
41.12000 5.062
41.16000 11.143
41.20000 16.407
41.24000 8.128
41.28000 11.105
41.32000 18.311
41.36000 10.206
41.40000 11.147
41.44000 7.038
41.48000 8.106
41.52000 8.100
41.56000 19.345
41.60000 10.036
41.64000 11.172
41.68000 12.257
41.72000 7.982
41.76000 11.214
41.80000 5.008
41.84000 9.215
41.88000 12.322
41.92000 12.171
41.96000 6.098
42.00000 4.998
42.04000 9.152
42.08000 7.019
42.12000 9.047
42.16000 9.112
42.20000 10.128
42.24000 15.043
42.28000 9.131
42.32000 8.121
42.36000 3.098
42.40000 13.155
42.44000 6.131
42.48000 13.150
42.52000 8.166
42.56000 10.052
42.60000 7.103
42.64000 13.244
42.68000 10.077
42.72000 8.104
42.76000 10.135
42.80000 8.165
42.84000 10.149
42.88000 10.161
42.92000 6.155
42.96000 8.114
43.00000 5.114
43.04000 8.174
43.08000 5.147
43.12000 6.041
43.16000 9.195
43.20000 9.111
43.24000 3.084
43.28000 8.044
43.32000 13.192
43.36000 12.162
43.40000 11.170
43.44000 12.043
43.48000 10.075
43.52000 14.122
43.56000 7.145
43.60000 10.109
43.64000 11.050
43.68000 14.250
43.72000 7.071
43.76000 9.969
43.80000 14.328
43.84000 12.372
43.88000 14.365
43.92000 11.059
43.96000 6.134
44.00000 8.078
44.04000 11.158
44.08000 8.080
44.12000 10.071
44.16000 10.107
44.20000 7.082
44.24000 4.077
44.28000 15.298
44.32000 8.043
44.36000 12.151
44.40000 12.162
44.44000 5.041
44.48000 13.243
44.52000 7.171
44.56000 9.038
44.60000 14.288
44.64000 14.215
44.68000 8.041
44.72000 8.064
44.76000 4.995
44.80000 8.207
44.84000 8.186
44.88000 9.109
44.92000 11.301
44.96000 9.094
45.00000 8.053
45.04000 9.125
45.08000 4.077
45.12000 10.088
45.16000 11.224
45.20000 14.085
45.24000 13.162
45.28000 10.077
45.32000 7.023
45.36000 14.212
45.40000 9.140
45.44000 10.090
45.48000 9.075
45.52000 10.103
45.56000 11.112
45.60000 10.146
45.64000 12.268
45.68000 5.083
45.72000 8.069
45.76000 12.163
45.80000 10.160
45.84000 16.251
45.88000 10.173
45.92000 9.262
45.96000 8.203
46.00000 12.147
46.04000 9.043
46.08000 8.212
46.12000 11.113
46.16000 10.092
46.20000 5.058
46.24000 13.197
46.28000 8.136
46.32000 5.220
46.36000 4.118
46.40000 10.062
46.44000 6.111
46.48000 6.083
46.52000 12.271
46.56000 5.046
46.60000 12.219
46.64000 13.094
46.68000 13.439
46.72000 12.119
46.76000 12.461
46.80000 8.008
46.84000 4.042
46.88000 14.065
46.92000 8.056
46.96000 9.086
47.00000 8.106
47.04000 7.130
47.08000 7.076
47.12000 11.203
47.16000 13.080
47.20000 13.274
47.24000 7.110
47.28000 7.062
47.32000 8.125
47.36000 9.030
47.40000 13.101
47.44000 8.033
47.48000 8.039
47.52000 8.153
47.56000 8.090
47.60000 8.100
47.64000 5.008
47.68000 7.170
47.72000 8.088
47.76000 10.141
47.80000 10.068
47.84000 10.060
47.88000 9.029
47.92000 7.062
47.96000 17.251
48.00000 7.115
48.04000 7.037
48.08000 6.024
48.12000 9.127
48.16000 5.915
48.20000 10.029
48.24000 12.200
48.28000 13.108
48.32000 15.088
48.36000 10.330
48.40000 10.175
48.44000 13.174
48.48000 9.255
48.52000 7.114
48.56000 12.155
48.60000 8.102
48.64000 8.103
48.68000 6.100
48.72000 13.216
48.76000 5.096
48.80000 11.102
48.84000 7.040
48.88000 6.087
48.92000 12.116
48.96000 4.029
49.00000 11.993
49.04000 11.159
49.08000 9.121
49.12000 7.174
49.16000 10.205
49.20000 5.038
49.24000 8.093
49.28000 7.097
49.32000 10.121
49.36000 13.169
49.40000 7.101
49.44000 11.049
49.48000 10.992
49.52000 8.001
49.56000 6.036
49.60000 9.202
49.64000 8.174
49.68000 14.162
49.72000 10.099
49.76000 6.024
49.80000 13.193
49.84000 7.064
49.88000 7.152
49.92000 10.154
49.96000 8.144
50.00000 13.263
50.04000 8.137
50.08000 7.197
50.12000 9.135
50.16000 1.973
50.20000 8.095
50.24000 6.021
50.28000 13.084
50.32000 10.212
50.36000 5.009
50.40000 4.114
50.44000 7.060
50.48000 9.129
50.52000 9.146
50.56000 12.289
50.60000 8.132
50.64000 7.990
50.68000 9.143
50.72000 12.127
50.76000 10.202
50.80000 6.048
50.84000 12.036
50.88000 4.054
50.92000 8.172
50.96000 6.059
51.00000 9.284
51.04000 8.093
51.08000 10.224
51.12000 4.110
51.16000 14.143
51.20000 9.052
51.24000 11.185
51.28000 9.026
51.32000 10.284
51.36000 4.060
51.40000 6.948
51.44000 9.134
51.48000 12.103
51.52000 9.025
51.56000 10.058
51.60000 10.158
51.64000 4.078
51.68000 4.005
51.72000 8.240
51.76000 6.091
51.80000 7.014
51.84000 10.125
51.88000 5.050
51.92000 11.170
51.96000 6.184
52.00000 9.163
52.04000 7.105
52.08000 7.136
52.12000 9.275
52.16000 12.049
52.20000 8.089
52.24000 4.131
52.28000 6.181
52.32000 6.123
52.36000 10.138
52.40000 15.180
52.44000 10.125
52.48000 6.039
52.52000 6.105
52.56000 11.156
52.60000 6.064
52.64000 3.002
52.68000 8.227
52.72000 6.136
52.76000 7.002
52.80000 5.133
52.84000 3.069
52.88000 10.074
52.92000 6.095
52.96000 6.094
53.00000 5.070
53.04000 4.069
53.08000 5.053
53.12000 14.130
53.16000 5.064
53.20000 6.022
53.24000 11.237
53.28000 5.115
53.32000 9.036
53.36000 11.160
53.40000 4.078
53.44000 8.052
53.48000 2.048
53.52000 2.047
53.56000 7.081
53.60000 9.029
53.64000 4.034
53.68000 9.077
53.72000 14.082
53.76000 9.074
53.80000 6.055
53.84000 7.022
53.88000 7.139
53.92000 5.072
53.96000 6.084
54.00000 11.098
54.04000 10.995
54.08000 6.118
54.12000 4.010
54.16000 5.041
54.20000 6.180
54.24000 4.063
54.28000 2.989
54.32000 12.192
54.36000 4.080
54.40000 13.214
54.44000 2.982
54.48000 9.223
54.52000 7.171
54.56000 5.957
54.60000 8.040
54.64000 7.030
54.68000 5.952
54.72000 10.031
54.76000 5.177
54.80000 4.147
54.84000 9.014
54.88000 10.161
54.92000 4.059
54.96000 6.136
55.00000 6.093
55.04000 7.085
55.08000 9.179
55.12000 4.088
55.16000 5.114
55.20000 7.082
55.24000 3.976
55.28000 8.052
55.32000 1.983
55.36000 10.168
55.40000 4.040
55.44000 9.116
55.48000 8.018
55.52000 9.090
55.56000 4.020
55.60000 4.105
55.64000 4.089
55.68000 3.053
55.72000 3.999
55.76000 9.080
55.80000 6.138
55.84000 3.069
55.88000 4.017
55.92000 8.356
55.96000 6.019
56.00000 9.052
56.04000 3.967
56.08000 7.119
56.12000 6.025
56.16000 9.029
56.20000 8.130
56.24000 4.997
56.28000 12.196
56.32000 7.206
56.36000 9.141
56.40000 2.045
56.44000 3.051
56.48000 6.075
56.52000 5.054
56.56000 4.095
56.60000 7.134
56.64000 7.026
56.68000 12.253
56.72000 6.047
56.76000 5.067
56.80000 7.068
56.84000 8.090
56.88000 5.111
56.92000 14.023
56.96000 9.125
57.00000 5.043
57.04000 6.060
57.08000 6.117
57.12000 10.072
57.16000 9.165
57.20000 4.062
57.24000 6.043
57.28000 7.263
57.32000 3.016
57.36000 9.093
57.40000 10.106
57.44000 6.080
57.48000 6.053
57.52000 4.032
57.56000 3.066
57.60000 8.157
57.64000 5.095
57.68000 4.087
57.72000 8.096
57.76000 8.230
57.80000 4.098
57.84000 7.027
57.88000 5.097
57.92000 7.072
57.96000 5.034
58.00000 7.100
58.04000 1.995
58.08000 8.162
58.12000 4.014
58.16000 9.192
58.20000 8.002
58.24000 4.922
58.28000 6.991
58.32000 6.078
58.36000 9.153
58.40000 6.124
58.44000 5.000
58.48000 3.995
58.52000 5.091
58.56000 7.055
58.60000 1.036
58.64000 6.103
58.68000 3.998
58.72000 5.121
58.76000 7.166
58.80000 8.098
58.84000 2.016
58.88000 6.074
58.92000 9.137
58.96000 3.073
59.00000 1.987
59.04000 5.020
59.08000 3.025
59.12000 10.201
59.16000 3.015
59.20000 3.053
59.24000 1.982
59.28000 7.999
59.32000 5.014
59.36000 6.058
59.40000 4.964
59.44000 4.063
59.48000 2.992
59.52000 5.973
59.56000 5.030
59.60000 6.064
59.64000 2.017
59.68000 2.956
59.72000 3.059
59.76000 3.998
59.80000 4.994
59.84000 3.079
59.88000 2.029
59.92000 8.007
59.96000 1.037
60.00000 4.957
60.04000 6.089
60.08000 6.095
60.12000 3.034
60.16000 9.140
60.20000 4.003
60.24000 6.004
60.28000 4.064
60.32000 4.117
60.36000 6.013
60.40000 2.033
60.44000 7.041
60.48000 3.019
60.52000 2.052
60.56000 0.984
60.60000 5.095
60.64000 3.117
60.68000 6.045
60.72000 6.980
60.76000 6.117
60.80000 7.071
60.84000 7.036
60.88000 6.974
60.92000 3.998
60.96000 9.054
61.00000 7.127
61.04000 0.990
61.08000 6.084
61.12000 3.051
61.16000 5.090
61.20000 8.035
61.24000 7.155
61.28000 7.952
61.32000 3.062
61.36000 2.068
61.40000 3.040
61.44000 5.077
61.48000 7.058
61.52000 12.338
61.56000 4.124
61.60000 0.000
61.64000 10.152
61.68000 0.988
61.72000 3.015
61.76000 6.077
61.80000 4.071
61.84000 3.044
61.88000 5.032
61.92000 3.028
61.96000 3.025
62.00000 3.096
62.04000 6.047
62.08000 5.085
62.12000 7.045
62.16000 4.036
62.20000 2.046
62.24000 7.003
62.28000 5.049
62.32000 5.061
62.36000 4.056
62.40000 3.042
62.44000 9.004
62.48000 6.005
62.52000 8.115
62.56000 4.074
62.60000 9.236
62.64000 6.079
62.68000 3.071
62.72000 7.105
62.76000 7.001
62.80000 1.044
62.84000 2.996
62.88000 5.091
62.92000 2.062
62.96000 5.052
63.00000 4.115
63.04000 7.133
63.08000 5.052
63.12000 3.024
63.16000 8.089
63.20000 5.084
63.24000 3.972
63.28000 7.158
63.32000 3.066
63.36000 6.043
63.40000 3.047
63.44000 5.056
63.48000 2.990
63.52000 8.017
63.56000 0.986
63.60000 3.021
63.64000 4.130
63.68000 3.030
63.72000 8.214
63.76000 5.015
63.80000 5.098
63.84000 0.993
63.88000 5.048
63.92000 4.004
63.96000 0.996
64.00000 4.007
64.04000 3.024
64.08000 5.985
64.12000 9.217
64.16000 2.971
64.20000 5.043
64.24000 4.125
64.28000 2.017
64.32000 7.188
64.36000 5.992
64.40000 3.038
64.44000 7.060
64.48000 3.078
64.52000 4.066
64.56000 5.061
64.60000 4.060
64.64000 2.060
64.68000 5.149
64.72000 1.986
64.76000 2.009
64.80000 2.044
64.84000 2.946
64.88000 3.028
64.92000 6.039
64.96000 3.017
65.00000 1.008