File: XRD/11-09-2025/XY Data/01092025_BTO_omega_1_001_29_50-000_0-000.xy
20.00000 14.192
20.04000 19.209
20.08000 15.183
20.12000 11.122
20.16000 13.127
20.20000 12.278
20.24000 14.297
20.28000 12.220
20.32000 6.976
20.36000 18.254
20.40000 15.217
20.44000 9.083
20.48000 14.372
20.52000 18.135
20.56000 12.213
20.60000 15.185
20.64000 13.115
20.68000 15.421
20.72000 10.158
20.76000 14.272
20.80000 9.125
20.84000 15.329
20.88000 6.150
20.92000 15.078
20.96000 16.358
21.00000 11.154
21.04000 12.086
21.08000 21.320
21.12000 13.247
21.16000 16.253
21.20000 16.050
21.24000 9.054
21.28000 12.183
21.32000 14.172
21.36000 13.248
21.40000 17.137
21.44000 10.036
21.48000 20.421
21.52000 15.262
21.56000 19.321
21.60000 20.397
21.64000 10.215
21.68000 8.021
21.72000 10.127
21.76000 13.194
21.80000 19.190
21.84000 16.212
21.88000 14.259
21.92000 14.387
21.96000 9.198
22.00000 9.159
22.04000 9.117
22.08000 13.291
22.12000 13.257
22.16000 9.016
22.20000 15.231
22.24000 10.139
22.28000 11.032
22.32000 9.140
22.36000 8.166
22.40000 9.193
22.44000 7.142
22.48000 13.282
22.52000 16.170
22.56000 13.017
22.60000 24.178
22.64000 11.025
22.68000 10.125
22.72000 11.132
22.76000 18.328
22.80000 16.305
22.84000 14.279
22.88000 16.378
22.92000 15.251
22.96000 11.115
23.00000 15.461
23.04000 12.228
23.08000 10.084
23.12000 12.073
23.16000 14.256
23.20000 15.161
23.24000 20.381
23.28000 12.194
23.32000 15.244
23.36000 13.118
23.40000 19.438
23.44000 16.086
23.48000 14.211
23.52000 14.179
23.56000 17.074
23.60000 8.179
23.64000 12.253
23.68000 20.104
23.72000 15.292
23.76000 11.128
23.80000 4.044
23.84000 9.224
23.88000 15.115
23.92000 19.163
23.96000 9.108
24.00000 21.409
24.04000 16.362
24.08000 16.244
24.12000 21.489
24.16000 12.283
24.20000 14.181
24.24000 14.263
24.28000 8.041
24.32000 10.131
24.36000 13.183
24.40000 15.389
24.44000 21.441
24.48000 11.324
24.52000 16.226
24.56000 15.162
24.60000 16.156
24.64000 20.226
24.68000 16.306
24.72000 14.206
24.76000 16.275
24.80000 10.091
24.84000 13.003
24.88000 6.072
24.92000 14.192
24.96000 19.227
25.00000 8.195
25.04000 14.277
25.08000 12.171
25.12000 14.126
25.16000 14.240
25.20000 15.133
25.24000 10.192
25.28000 19.250
25.32000 19.115
25.36000 12.248
25.40000 12.301
25.44000 14.211
25.48000 13.050
25.52000 13.232
25.56000 16.084
25.60000 11.113
25.64000 11.121
25.68000 11.064
25.72000 15.181
25.76000 12.328
25.80000 11.165
25.84000 19.507
25.88000 10.189
25.92000 13.167
25.96000 17.093
26.00000 13.091
26.04000 11.134
26.08000 26.353
26.12000 11.044
26.16000 7.226
26.20000 14.124
26.24000 11.111
26.28000 15.243
26.32000 11.059
26.36000 15.053
26.40000 16.198
26.44000 17.084
26.48000 12.070
26.52000 14.112
26.56000 7.071
26.60000 15.151
26.64000 13.246
26.68000 13.222
26.72000 8.062
26.76000 19.121
26.80000 17.259
26.84000 22.373
26.88000 17.164
26.92000 9.172
26.96000 13.133
27.00000 5.023
27.04000 12.185
27.08000 14.056
27.12000 13.327
27.16000 15.210
27.20000 14.074
27.24000 19.196
27.28000 12.149
27.32000 14.182
27.36000 14.080
27.40000 12.115
27.44000 12.158
27.48000 15.262
27.52000 5.969
27.56000 12.113
27.60000 9.035
27.64000 8.019
27.68000 15.242
27.72000 5.017
27.76000 19.205
27.80000 15.371
27.84000 12.144
27.88000 13.103
27.92000 13.317
27.96000 21.491
28.00000 15.159
28.04000 11.189
28.08000 9.029
28.12000 10.148
28.16000 11.060
28.20000 21.222
28.24000 19.399
28.28000 14.112
28.32000 9.096
28.36000 10.116
28.40000 10.173
28.44000 15.191
28.48000 9.121
28.52000 14.341
28.56000 15.155
28.60000 20.130
28.64000 12.156
28.68000 9.155
28.72000 6.178
28.76000 10.100
28.80000 10.087
28.84000 8.137
28.88000 12.215
28.92000 9.204
28.96000 8.054
29.00000 15.377
29.04000 11.138
29.08000 14.102
29.12000 13.312
29.16000 11.135
29.20000 5.022
29.24000 8.091
29.28000 14.037
29.32000 14.133
29.36000 11.052
29.40000 12.293
29.44000 14.286
29.48000 10.102
29.52000 17.561
29.56000 11.012
29.60000 11.127
29.64000 19.146
29.68000 15.235
29.72000 8.222
29.76000 12.005
29.80000 9.073
29.84000 8.172
29.88000 16.226
29.92000 13.208
29.96000 12.182
30.00000 17.278
30.04000 14.169
30.08000 15.991
30.12000 9.232
30.16000 14.315
30.20000 12.362
30.24000 10.155
30.28000 9.142
30.32000 13.201
30.36000 16.282
30.40000 12.238
30.44000 7.025
30.48000 11.124
30.52000 12.169
30.56000 16.143
30.60000 20.138
30.64000 12.114
30.68000 10.126
30.72000 6.071
30.76000 12.163
30.80000 7.104
30.84000 9.064
30.88000 11.267
30.92000 7.066
30.96000 7.153
31.00000 13.142
31.04000 13.016
31.08000 11.032
31.12000 10.042
31.16000 11.123
31.20000 9.049
31.24000 10.080
31.28000 10.180
31.32000 8.132
31.36000 11.263
31.40000 11.336
31.44000 2.092
31.48000 9.119
31.52000 10.199
31.56000 10.051
31.60000 12.093
31.64000 9.175
31.68000 10.068
31.72000 12.103
31.76000 13.167
31.80000 10.005
31.84000 5.055
31.88000 11.242
31.92000 10.111
31.96000 9.150
32.00000 10.144
32.04000 11.283
32.08000 8.107
32.12000 5.165
32.16000 9.265
32.20000 6.049
32.24000 7.154
32.28000 6.062
32.32000 7.083
32.36000 13.202
32.40000 13.085
32.44000 8.108
32.48000 7.176
32.52000 5.081
32.56000 7.216
32.60000 17.339
32.64000 5.073
32.68000 7.124
32.72000 4.151
32.76000 10.098
32.80000 8.992
32.84000 6.056
32.88000 12.050
32.92000 11.130
32.96000 2.029
33.00000 9.042
33.04000 10.159
33.08000 7.167
33.12000 6.117
33.16000 8.106
33.20000 9.140
33.24000 8.127
33.28000 9.234
33.32000 9.212
33.36000 3.002
33.40000 5.040
33.44000 2.020
33.48000 5.021
33.52000 10.148
33.56000 8.185
33.60000 6.153
33.64000 4.096
33.68000 4.034
33.72000 3.020
33.76000 4.033
33.80000 9.110
33.84000 7.130
33.88000 12.123
33.92000 5.112
33.96000 5.050
34.00000 4.077
34.04000 5.063
34.08000 10.092
34.12000 8.140
34.16000 8.021
34.20000 15.114
34.24000 7.241
34.28000 2.000
34.32000 6.087
34.36000 6.065
34.40000 3.069
34.44000 5.123
34.48000 7.065
34.52000 5.030
34.56000 6.089
34.60000 8.016
34.64000 5.129
34.68000 5.081
34.72000 4.026
34.76000 8.146
34.80000 5.065
34.84000 7.113
34.88000 7.063
34.92000 8.142
34.96000 3.019
35.00000 12.166
35.04000 5.063
35.08000 9.121
35.12000 2.022
35.16000 8.100
35.20000 6.069
35.24000 7.952
35.28000 2.967
35.32000 8.163
35.36000 6.989
35.40000 8.098
35.44000 3.023
35.48000 7.078
35.52000 6.157
35.56000 11.152
35.60000 2.070
35.64000 13.063
35.68000 4.050
35.72000 6.161
35.76000 4.009
35.80000 10.151
35.84000 5.140
35.88000 9.095
35.92000 6.127
35.96000 8.077
36.00000 9.098
36.04000 4.001
36.08000 7.181
36.12000 6.092
36.16000 6.201
36.20000 2.016
36.24000 5.099
36.28000 4.038
36.32000 6.124
36.36000 4.098
36.40000 7.071
36.44000 6.082
36.48000 7.116
36.52000 11.067
36.56000 6.045
36.60000 4.013
36.64000 6.176
36.68000 9.157
36.72000 1.969
36.76000 9.104
36.80000 3.046
36.84000 9.037
36.88000 7.209
36.92000 8.194
36.96000 4.088
37.00000 9.133
37.04000 7.119
37.08000 6.069
37.12000 6.211
37.16000 12.109
37.20000 8.005
37.24000 7.080
37.28000 1.023
37.32000 1.995
37.36000 7.111
37.40000 6.121
37.44000 7.158
37.48000 7.019
37.52000 5.029
37.56000 7.006
37.60000 8.014
37.64000 4.061
37.68000 9.120
37.72000 6.090
37.76000 3.109
37.80000 8.119
37.84000 6.092
37.88000 7.076
37.92000 5.018
37.96000 3.985
38.00000 4.018
38.04000 3.984
38.08000 5.085
38.12000 5.054
38.16000 7.115
38.20000 3.017
38.24000 9.065
38.28000 9.128
38.32000 4.021
38.36000 6.152
38.40000 7.027
38.44000 6.080
38.48000 5.051
38.52000 8.071
38.56000 4.210
38.60000 3.020
38.64000 5.030
38.68000 5.022
38.72000 3.038
38.76000 4.152
38.80000 8.055
38.84000 2.009
38.88000 3.093
38.92000 4.052
38.96000 7.115
39.00000 5.086
39.04000 2.023
39.08000 6.086
39.12000 5.071
39.16000 13.194
39.20000 7.137
39.24000 4.025
39.28000 6.965
39.32000 9.135
39.36000 8.147
39.40000 6.031
39.44000 3.047
39.48000 7.125
39.52000 9.238
39.56000 10.043
39.60000 3.998
39.64000 5.106
39.68000 4.067
39.72000 7.213
39.76000 6.024
39.80000 9.150
39.84000 6.043
39.88000 6.099
39.92000 7.033
39.96000 1.020
40.00000 4.038
40.04000 11.152
40.08000 6.060
40.12000 5.065
40.16000 12.206
40.20000 6.093
40.24000 9.043
40.28000 1.972
40.32000 9.091
40.36000 6.067
40.40000 7.042
40.44000 5.999
40.48000 6.023
40.52000 5.101
40.56000 9.151
40.60000 5.052
40.64000 5.106
40.68000 7.129
40.72000 6.239
40.76000 6.210
40.80000 8.148
40.84000 6.075
40.88000 5.113
40.92000 8.162
40.96000 2.047
41.00000 3.018
41.04000 10.149
41.08000 9.265
41.12000 3.032
41.16000 7.085
41.20000 7.147
41.24000 3.048
41.28000 5.142
41.32000 4.133
41.36000 2.971
41.40000 7.077
41.44000 7.249
41.48000 8.176
41.52000 5.065
41.56000 7.086
41.60000 9.221
41.64000 10.037
41.68000 8.141
41.72000 10.140
41.76000 6.067
41.80000 4.077
41.84000 5.037
41.88000 6.082
41.92000 7.183
41.96000 2.035
42.00000 6.157
42.04000 4.119
42.08000 2.047
42.12000 9.054
42.16000 2.009
42.20000 4.026
42.24000 6.033
42.28000 3.092
42.32000 1.000
42.36000 4.142
42.40000 3.049
42.44000 4.031
42.48000 5.036
42.52000 1.004
42.56000 5.023
42.60000 8.251
42.64000 8.077
42.68000 11.131
42.72000 6.102
42.76000 6.105
42.80000 2.999
42.84000 5.058
42.88000 8.177
42.92000 4.001
42.96000 5.961
43.00000 6.029
43.04000 6.115
43.08000 1.983
43.12000 6.072
43.16000 6.118
43.20000 8.108
43.24000 6.125
43.28000 7.010
43.32000 6.003
43.36000 4.207
43.40000 4.037
43.44000 4.047
43.48000 0.000
43.52000 6.071
43.56000 5.019
43.60000 4.957
43.64000 8.159
43.68000 7.142
43.72000 2.058
43.76000 1.014
43.80000 10.222
43.84000 9.217
43.88000 8.115
43.92000 6.096
43.96000 5.976
44.00000 2.024
44.04000 2.000
44.08000 5.969
44.12000 5.027
44.16000 2.034
44.20000 8.152
44.24000 3.988
44.28000 8.059
44.32000 4.034
44.36000 5.011
44.40000 10.978
44.44000 6.088
44.48000 9.054
44.52000 4.044
44.56000 3.109
44.60000 3.132
44.64000 7.157
44.68000 4.046
44.72000 2.980
44.76000 4.061
44.80000 8.013
44.84000 5.033
44.88000 7.087
44.92000 5.084
44.96000 5.031
45.00000 4.074
45.04000 8.099
45.08000 9.164
45.12000 7.111
45.16000 9.139
45.20000 7.008
45.24000 4.001
45.28000 3.071
45.32000 3.099
45.36000 4.060
45.40000 5.071
45.44000 6.984
45.48000 4.081
45.52000 10.112
45.56000 5.056
45.60000 3.107
45.64000 7.161
45.68000 5.005
45.72000 8.138
45.76000 3.031
45.80000 4.054
45.84000 6.009
45.88000 9.114
45.92000 2.023
45.96000 10.316
46.00000 5.092
46.04000 2.031
46.08000 6.178
46.12000 7.302
46.16000 3.021
46.20000 4.964
46.24000 11.091
46.28000 2.062
46.32000 10.228
46.36000 9.252
46.40000 2.048
46.44000 4.047
46.48000 9.193
46.52000 5.020
46.56000 6.105
46.60000 12.143
46.64000 7.211
46.68000 6.164
46.72000 3.052
46.76000 7.020
46.80000 5.088
46.84000 7.024
46.88000 2.072
46.92000 9.165
46.96000 9.090
47.00000 3.990
47.04000 4.076
47.08000 7.143
47.12000 5.143
47.16000 11.129
47.20000 5.041
47.24000 7.136
47.28000 4.988
47.32000 6.063
47.36000 7.197
47.40000 8.084
47.44000 6.103
47.48000 2.034
47.52000 6.005
47.56000 6.205
47.60000 3.037
47.64000 2.001
47.68000 3.055
47.72000 8.063
47.76000 5.017
47.80000 5.007
47.84000 7.115
47.88000 3.089
47.92000 5.090
47.96000 1.017
48.00000 5.051
48.04000 8.162
48.08000 3.996
48.12000 6.023
48.16000 9.071
48.20000 4.122
48.24000 2.977
48.28000 1.007
48.32000 2.033
48.36000 2.004
48.40000 2.065
48.44000 12.148
48.48000 8.117
48.52000 6.077
48.56000 3.003
48.60000 2.077
48.64000 6.059
48.68000 2.071
48.72000 4.998
48.76000 2.041
48.80000 6.142
48.84000 1.062
48.88000 3.047
48.92000 3.016
48.96000 4.033
49.00000 2.004
49.04000 6.094
49.08000 7.137
49.12000 7.153
49.16000 4.062
49.20000 10.191
49.24000 5.114
49.28000 12.267
49.32000 7.087
49.36000 4.053
49.40000 5.152
49.44000 3.070
49.48000 8.090
49.52000 8.108
49.56000 9.147
49.60000 3.043
49.64000 8.097
49.68000 6.084
49.72000 6.041
49.76000 7.058
49.80000 3.995
49.84000 14.195
49.88000 8.097
49.92000 4.047
49.96000 5.034
50.00000 7.994
50.04000 7.129
50.08000 3.048
50.12000 4.106
50.16000 9.082
50.20000 6.098
50.24000 7.089
50.28000 8.276
50.32000 3.923
50.36000 8.212
50.40000 7.123
50.44000 5.090
50.48000 6.155
50.52000 7.084
50.56000 4.121
50.60000 4.070
50.64000 6.136
50.68000 4.157
50.72000 3.018
50.76000 3.022
50.80000 5.070
50.84000 8.066
50.88000 6.072
50.92000 8.067
50.96000 7.100
51.00000 7.167
51.04000 5.068
51.08000 3.008
51.12000 8.102
51.16000 5.048
51.20000 11.322
51.24000 6.184
51.28000 5.079
51.32000 6.118
51.36000 7.123
51.40000 6.089
51.44000 7.030
51.48000 4.112
51.52000 5.154
51.56000 3.052
51.60000 6.084
51.64000 5.027
51.68000 4.141
51.72000 4.127
51.76000 4.028
51.80000 6.074
51.84000 5.005
51.88000 8.285
51.92000 9.121
51.96000 5.042
52.00000 4.092
52.04000 4.007
52.08000 6.064
52.12000 4.104
52.16000 4.070
52.20000 11.166
52.24000 6.023
52.28000 11.213
52.32000 2.986
52.36000 6.064
52.40000 2.074
52.44000 4.028
52.48000 3.100
52.52000 8.139
52.56000 6.098
52.60000 4.037
52.64000 10.089
52.68000 4.992
52.72000 8.189
52.76000 6.954
52.80000 9.006
52.84000 3.038
52.88000 2.021
52.92000 1.013
52.96000 8.250
53.00000 6.945
53.04000 2.027
53.08000 5.118
53.12000 3.151
53.16000 6.209
53.20000 3.155
53.24000 3.064
53.28000 8.089
53.32000 3.971
53.36000 5.022
53.40000 3.070
53.44000 9.144
53.48000 6.165
53.52000 5.069
53.56000 4.957
53.60000 6.146
53.64000 9.028
53.68000 5.137
53.72000 3.005
53.76000 3.030
53.80000 4.084
53.84000 5.996
53.88000 7.020
53.92000 5.033
53.96000 6.058
54.00000 7.201
54.04000 4.173
54.08000 5.042
54.12000 3.040
54.16000 8.160
54.20000 4.070
54.24000 7.077
54.28000 5.032
54.32000 3.002
54.36000 6.010
54.40000 5.017
54.44000 7.995
54.48000 1.048
54.52000 6.186
54.56000 4.998
54.60000 7.062
54.64000 6.069
54.68000 3.085
54.72000 7.037
54.76000 9.121
54.80000 4.040
54.84000 2.114
54.88000 4.019
54.92000 5.084
54.96000 4.077
55.00000 3.048
55.04000 4.097
55.08000 4.059
55.12000 7.082
55.16000 4.139
55.20000 6.007
55.24000 10.179
55.28000 3.975
55.32000 8.148
55.36000 4.026
55.40000 1.995
55.44000 6.099
55.48000 4.138
55.52000 5.202
55.56000 4.021
55.60000 7.055
55.64000 6.144
55.68000 2.024
55.72000 3.010
55.76000 4.022
55.80000 8.056
55.84000 5.146
55.88000 4.098
55.92000 3.074
55.96000 6.119
56.00000 2.016
56.04000 2.035
56.08000 8.998
56.12000 7.145
56.16000 9.079
56.20000 4.010
56.24000 5.029
56.28000 4.097
56.32000 4.072
56.36000 5.022
56.40000 11.050
56.44000 3.084
56.48000 5.126
56.52000 2.005
56.56000 4.074
56.60000 5.041
56.64000 3.045
56.68000 4.032
56.72000 3.004
56.76000 8.149
56.80000 1.011
56.84000 6.084
56.88000 4.121
56.92000 4.026
56.96000 2.045
57.00000 3.001
57.04000 2.974
57.08000 2.094
57.12000 3.991
57.16000 2.054
57.20000 4.972
57.24000 1.996
57.28000 5.098
57.32000 14.318
57.36000 5.089
57.40000 6.029
57.44000 3.017
57.48000 6.099
57.52000 5.010
57.56000 3.105
57.60000 5.998
57.64000 4.073
57.68000 4.998
57.72000 4.011
57.76000 8.215
57.80000 3.959
57.84000 3.119
57.88000 7.166
57.92000 8.137
57.96000 1.994
58.00000 3.086
58.04000 2.021
58.08000 4.103
58.12000 3.071
58.16000 3.103
58.20000 7.065
58.24000 0.997
58.28000 4.029
58.32000 2.034
58.36000 5.073
58.40000 2.075
58.44000 4.067
58.48000 3.017
58.52000 1.997
58.56000 4.020
58.60000 6.027
58.64000 3.109
58.68000 0.000
58.72000 3.054
58.76000 4.019
58.80000 2.050
58.84000 4.073
58.88000 5.079
58.92000 3.058
58.96000 4.090
59.00000 0.990
59.04000 2.037
59.08000 4.033
59.12000 7.025
59.16000 3.009
59.20000 5.092
59.24000 2.031
59.28000 10.161
59.32000 3.045
59.36000 4.012
59.40000 5.034
59.44000 2.022
59.48000 7.106
59.52000 1.012
59.56000 5.057
59.60000 3.083
59.64000 5.102
59.68000 4.115
59.72000 2.039
59.76000 2.041
59.80000 5.101
59.84000 4.000
59.88000 4.029
59.92000 4.019
59.96000 3.050
60.00000 4.029
60.04000 0.969
60.08000 5.007
60.12000 0.992
60.16000 1.002
60.20000 3.940
60.24000 3.022
60.28000 4.988
60.32000 4.192
60.36000 8.069
60.40000 0.999
60.44000 0.972
60.48000 0.000
60.52000 4.084
60.56000 2.014
60.60000 3.062
60.64000 6.105
60.68000 5.004
60.72000 3.011
60.76000 3.008
60.80000 2.012
60.84000 1.011
60.88000 4.050
60.92000 2.023
60.96000 4.099
61.00000 1.007
61.04000 5.080
61.08000 5.131
61.12000 4.069
61.16000 5.164
61.20000 4.009
61.24000 2.044
61.28000 2.076
61.32000 1.073
61.36000 5.130
61.40000 6.049
61.44000 0.000
61.48000 5.075
61.52000 5.150
61.56000 4.039
61.60000 1.016
61.64000 3.108
61.68000 5.090
61.72000 3.072
61.76000 4.985
61.80000 4.037
61.84000 4.012
61.88000 2.999
61.92000 5.072
61.96000 3.025
62.00000 4.061
62.04000 7.201
62.08000 4.162
62.12000 4.083
62.16000 2.039
62.20000 3.030
62.24000 5.047
62.28000 4.004
62.32000 4.134
62.36000 4.111
62.40000 5.094
62.44000 2.077
62.48000 4.035
62.52000 3.049
62.56000 2.993
62.60000 6.092
62.64000 1.016
62.68000 4.099
62.72000 0.999
62.76000 8.301
62.80000 2.094
62.84000 6.014
62.88000 4.072
62.92000 2.047
62.96000 3.010
63.00000 2.084
63.04000 4.020
63.08000 5.050
63.12000 6.074
63.16000 5.132
63.20000 3.028
63.24000 7.034
63.28000 7.059
63.32000 5.078
63.36000 2.013
63.40000 1.019
63.44000 3.086
63.48000 0.999
63.52000 4.119
63.56000 6.125
63.60000 5.048
63.64000 7.161
63.68000 5.011
63.72000 6.135
63.76000 4.047
63.80000 3.003
63.84000 4.122
63.88000 3.031
63.92000 2.041
63.96000 3.066
64.00000 6.025
64.04000 7.106
64.08000 3.030
64.12000 1.000
64.16000 5.073
64.20000 2.038
64.24000 2.994
64.28000 8.182
64.32000 0.000
64.36000 7.123
64.40000 4.044
64.44000 0.000
64.48000 2.086
64.52000 3.055
64.56000 3.057
64.60000 5.019
64.64000 2.023
64.68000 7.087
64.72000 3.015
64.76000 6.223
64.80000 3.142
64.84000 4.031
64.88000 2.028
64.92000 1.031
64.96000 2.972
65.00000 6.131