File: XRD/11-09-2025/XY Data/01092025_BTO_omega_0_5_001_28_-11-126_48-746.xy
20.00000 8.117
20.04000 17.071
20.08000 24.248
20.12000 8.144
20.16000 10.113
20.20000 10.179
20.24000 14.072
20.28000 7.147
20.32000 17.156
20.36000 9.139
20.40000 7.155
20.44000 12.216
20.48000 6.039
20.52000 13.328
20.56000 15.174
20.60000 7.017
20.64000 13.204
20.68000 16.359
20.72000 15.056
20.76000 16.138
20.80000 15.197
20.84000 9.148
20.88000 10.366
20.92000 14.388
20.96000 12.087
21.00000 12.111
21.04000 11.086
21.08000 17.198
21.12000 10.218
21.16000 10.190
21.20000 14.371
21.24000 10.151
21.28000 14.028
21.32000 10.046
21.36000 6.104
21.40000 12.158
21.44000 9.103
21.48000 13.258
21.52000 15.245
21.56000 7.245
21.60000 16.338
21.64000 7.078
21.68000 10.236
21.72000 12.311
21.76000 6.049
21.80000 16.265
21.84000 13.273
21.88000 10.221
21.92000 19.316
21.96000 14.048
22.00000 18.113
22.04000 16.141
22.08000 16.383
22.12000 10.081
22.16000 8.135
22.20000 8.079
22.24000 9.225
22.28000 10.138
22.32000 8.198
22.36000 10.198
22.40000 12.086
22.44000 12.047
22.48000 13.397
22.52000 14.200
22.56000 11.171
22.60000 13.210
22.64000 13.098
22.68000 7.141
22.72000 9.008
22.76000 15.182
22.80000 9.192
22.84000 15.222
22.88000 9.055
22.92000 8.097
22.96000 13.103
23.00000 7.148
23.04000 14.146
23.08000 8.081
23.12000 12.156
23.16000 8.098
23.20000 7.160
23.24000 12.132
23.28000 13.178
23.32000 17.256
23.36000 9.049
23.40000 16.357
23.44000 7.105
23.48000 9.164
23.52000 11.147
23.56000 6.034
23.60000 13.215
23.64000 17.246
23.68000 7.165
23.72000 8.011
23.76000 10.031
23.80000 8.268
23.84000 9.121
23.88000 7.087
23.92000 10.095
23.96000 9.090
24.00000 8.124
24.04000 8.138
24.08000 14.228
24.12000 14.113
24.16000 20.227
24.20000 15.078
24.24000 13.268
24.28000 6.071
24.32000 8.144
24.36000 12.159
24.40000 7.040
24.44000 13.102
24.48000 12.273
24.52000 6.049
24.56000 6.175
24.60000 8.010
24.64000 11.134
24.68000 5.073
24.72000 14.321
24.76000 9.249
24.80000 10.183
24.84000 9.972
24.88000 5.098
24.92000 9.234
24.96000 16.142
25.00000 13.149
25.04000 12.256
25.08000 10.185
25.12000 9.203
25.16000 15.259
25.20000 12.220
25.24000 10.101
25.28000 5.069
25.32000 8.182
25.36000 6.093
25.40000 8.116
25.44000 12.315
25.48000 4.956
25.52000 9.161
25.56000 10.107
25.60000 7.994
25.64000 8.176
25.68000 12.088
25.72000 16.312
25.76000 10.013
25.80000 11.218
25.84000 6.087
25.88000 10.315
25.92000 11.176
25.96000 8.145
26.00000 9.169
26.04000 5.040
26.08000 6.046
26.12000 12.144
26.16000 18.103
26.20000 6.980
26.24000 8.184
26.28000 13.367
26.32000 10.023
26.36000 6.175
26.40000 11.170
26.44000 7.077
26.48000 20.381
26.52000 6.112
26.56000 12.173
26.60000 12.117
26.64000 8.213
26.68000 9.031
26.72000 13.220
26.76000 12.535
26.80000 7.043
26.84000 6.997
26.88000 10.053
26.92000 6.136
26.96000 9.188
27.00000 7.018
27.04000 9.082
27.08000 5.073
27.12000 10.110
27.16000 12.958
27.20000 6.122
27.24000 6.057
27.28000 8.096
27.32000 9.130
27.36000 6.999
27.40000 9.903
27.44000 8.082
27.48000 11.219
27.52000 10.235
27.56000 10.183
27.60000 15.143
27.64000 10.281
27.68000 7.977
27.72000 8.255
27.76000 10.067
27.80000 8.201
27.84000 6.056
27.88000 14.135
27.92000 5.109
27.96000 7.152
28.00000 7.112
28.04000 9.059
28.08000 5.128
28.12000 9.345
28.16000 8.094
28.20000 10.096
28.24000 11.037
28.28000 15.361
28.32000 5.136
28.36000 7.065
28.40000 9.120
28.44000 8.127
28.48000 10.113
28.52000 11.177
28.56000 13.196
28.60000 8.208
28.64000 8.164
28.68000 6.131
28.72000 7.074
28.76000 12.122
28.80000 8.027
28.84000 7.192
28.88000 8.119
28.92000 9.125
28.96000 10.193
29.00000 8.236
29.04000 11.101
29.08000 6.972
29.12000 11.032
29.16000 15.139
29.20000 10.148
29.24000 9.112
29.28000 8.066
29.32000 7.065
29.36000 10.182
29.40000 6.070
29.44000 9.201
29.48000 4.087
29.52000 9.205
29.56000 7.094
29.60000 5.086
29.64000 14.070
29.68000 15.324
29.72000 9.094
29.76000 13.070
29.80000 9.092
29.84000 10.091
29.88000 6.092
29.92000 7.123
29.96000 6.087
30.00000 7.119
30.04000 13.169
30.08000 7.968
30.12000 4.050
30.16000 2.041
30.20000 15.250
30.24000 6.104
30.28000 6.098
30.32000 7.059
30.36000 8.124
30.40000 6.077
30.44000 5.069
30.48000 8.147
30.52000 7.087
30.56000 8.207
30.60000 8.196
30.64000 6.011
30.68000 1.012
30.72000 7.090
30.76000 8.149
30.80000 3.946
30.84000 11.203
30.88000 6.141
30.92000 4.984
30.96000 5.155
31.00000 3.083
31.04000 10.158
31.08000 6.997
31.12000 3.091
31.16000 3.968
31.20000 9.173
31.24000 5.080
31.28000 2.032
31.32000 10.163
31.36000 8.121
31.40000 5.085
31.44000 6.027
31.48000 2.051
31.52000 7.082
31.56000 5.102
31.60000 7.266
31.64000 7.087
31.68000 8.188
31.72000 7.071
31.76000 5.060
31.80000 4.077
31.84000 6.139
31.88000 9.116
31.92000 7.137
31.96000 8.181
32.00000 9.112
32.04000 6.131
32.08000 2.997
32.12000 6.123
32.16000 3.052
32.20000 5.079
32.24000 9.319
32.28000 5.983
32.32000 3.011
32.36000 11.092
32.40000 8.007
32.44000 8.157
32.48000 4.199
32.52000 8.042
32.56000 5.046
32.60000 7.151
32.64000 7.996
32.68000 4.036
32.72000 11.107
32.76000 8.132
32.80000 4.161
32.84000 6.120
32.88000 7.169
32.92000 7.065
32.96000 8.164
33.00000 7.224
33.04000 4.092
33.08000 6.072
33.12000 5.070
33.16000 4.022
33.20000 6.102
33.24000 7.251
33.28000 3.074
33.32000 8.076
33.36000 4.078
33.40000 7.065
33.44000 4.058
33.48000 8.074
33.52000 3.093
33.56000 9.027
33.60000 6.106
33.64000 3.100
33.68000 4.024
33.72000 6.011
33.76000 7.188
33.80000 10.132
33.84000 3.965
33.88000 7.047
33.92000 8.105
33.96000 6.111
34.00000 7.986
34.04000 1.991
34.08000 7.101
34.12000 4.026
34.16000 4.041
34.20000 5.070
34.24000 6.175
34.28000 5.042
34.32000 3.165
34.36000 8.067
34.40000 5.118
34.44000 11.116
34.48000 6.150
34.52000 4.091
34.56000 2.037
34.60000 4.023
34.64000 6.112
34.68000 7.189
34.72000 7.206
34.76000 7.146
34.80000 3.020
34.84000 1.029
34.88000 1.978
34.92000 7.064
34.96000 6.132
35.00000 3.027
35.04000 5.025
35.08000 5.106
35.12000 1.999
35.16000 5.116
35.20000 3.014
35.24000 3.067
35.28000 6.092
35.32000 5.058
35.36000 8.141
35.40000 4.053
35.44000 6.051
35.48000 7.089
35.52000 5.066
35.56000 4.090
35.60000 6.117
35.64000 6.127
35.68000 5.092
35.72000 5.166
35.76000 3.115
35.80000 3.035
35.84000 2.085
35.88000 2.028
35.92000 7.079
35.96000 7.053
36.00000 7.134
36.04000 8.019
36.08000 4.102
36.12000 4.033
36.16000 3.063
36.20000 4.054
36.24000 7.027
36.28000 1.000
36.32000 2.021
36.36000 6.141
36.40000 3.072
36.44000 4.082
36.48000 3.033
36.52000 4.994
36.56000 6.039
36.60000 1.006
36.64000 4.088
36.68000 8.103
36.72000 2.049
36.76000 3.068
36.80000 1.000
36.84000 6.111
36.88000 9.122
36.92000 5.128
36.96000 2.036
37.00000 1.056
37.04000 7.187
37.08000 2.079
37.12000 8.089
37.16000 3.038
37.20000 5.134
37.24000 7.174
37.28000 8.130
37.32000 2.034
37.36000 3.025
37.40000 7.143
37.44000 6.062
37.48000 1.004
37.52000 2.978
37.56000 2.112
37.60000 5.099
37.64000 10.042
37.68000 5.047
37.72000 7.044
37.76000 6.000
37.80000 5.044
37.84000 5.102
37.88000 1.027
37.92000 4.028
37.96000 5.118
38.00000 4.081
38.04000 4.013
38.08000 3.042
38.12000 3.995
38.16000 8.130
38.20000 2.995
38.24000 1.999
38.28000 2.993
38.32000 8.078
38.36000 7.105
38.40000 4.051
38.44000 5.122
38.48000 4.011
38.52000 1.060
38.56000 3.099
38.60000 6.071
38.64000 5.167
38.68000 2.056
38.72000 5.016
38.76000 7.148
38.80000 3.065
38.84000 6.012
38.88000 9.278
38.92000 2.050
38.96000 0.000
39.00000 4.993
39.04000 5.065
39.08000 3.062
39.12000 1.994
39.16000 10.237
39.20000 4.003
39.24000 2.015
39.28000 2.034
39.32000 8.096
39.36000 1.977
39.40000 3.019
39.44000 4.082
39.48000 4.097
39.52000 3.011
39.56000 3.035
39.60000 5.141
39.64000 3.059
39.68000 8.056
39.72000 4.075
39.76000 3.068
39.80000 7.060
39.84000 5.011
39.88000 6.088
39.92000 3.035
39.96000 4.057
40.00000 9.059
40.04000 5.078
40.08000 3.047
40.12000 4.110
40.16000 5.049
40.20000 0.000
40.24000 7.136
40.28000 3.981
40.32000 5.089
40.36000 5.046
40.40000 5.032
40.44000 1.039
40.48000 4.105
40.52000 0.988
40.56000 2.038
40.60000 3.016
40.64000 6.009
40.68000 3.023
40.72000 2.979
40.76000 5.080
40.80000 7.986
40.84000 5.121
40.88000 5.079
40.92000 6.085
40.96000 2.017
41.00000 4.944
41.04000 6.073
41.08000 9.172
41.12000 4.168
41.16000 4.040
41.20000 3.103
41.24000 6.029
41.28000 2.986
41.32000 3.994
41.36000 9.043
41.40000 7.101
41.44000 3.086
41.48000 4.145
41.52000 11.220
41.56000 1.067
41.60000 1.044
41.64000 7.051
41.68000 8.094
41.72000 6.031
41.76000 4.147
41.80000 5.076
41.84000 4.019
41.88000 5.036
41.92000 7.114
41.96000 6.100
42.00000 4.047
42.04000 7.073
42.08000 8.081
42.12000 6.195
42.16000 4.071
42.20000 7.131
42.24000 6.115
42.28000 5.028
42.32000 3.061
42.36000 1.030
42.40000 3.044
42.44000 11.022
42.48000 5.065
42.52000 5.060
42.56000 3.056
42.60000 2.981
42.64000 0.000
42.68000 1.052
42.72000 5.092
42.76000 3.012
42.80000 7.122
42.84000 3.027
42.88000 1.026
42.92000 6.053
42.96000 4.045
43.00000 4.035
43.04000 3.017
43.08000 2.975
43.12000 3.013
43.16000 0.998
43.20000 7.010
43.24000 0.000
43.28000 3.031
43.32000 7.197
43.36000 4.099
43.40000 3.027
43.44000 1.978
43.48000 8.012
43.52000 5.018
43.56000 5.110
43.60000 3.009
43.64000 4.027
43.68000 4.140
43.72000 5.058
43.76000 5.099
43.80000 2.015
43.84000 4.039
43.88000 5.977
43.92000 7.073
43.96000 3.035
44.00000 7.138
44.04000 6.206
44.08000 0.986
44.12000 3.080
44.16000 6.055
44.20000 10.241
44.24000 2.964
44.28000 3.038
44.32000 7.000
44.36000 7.077
44.40000 6.137
44.44000 3.018
44.48000 3.028
44.52000 1.002
44.56000 3.034
44.60000 6.089
44.64000 5.078
44.68000 6.162
44.72000 4.097
44.76000 3.001
44.80000 0.000
44.84000 2.072
44.88000 5.039
44.92000 4.012
44.96000 4.008
45.00000 7.123
45.04000 7.147
45.08000 6.071
45.12000 3.062
45.16000 5.105
45.20000 5.070
45.24000 1.996
45.28000 5.017
45.32000 4.073
45.36000 7.113
45.40000 6.240
45.44000 5.074
45.48000 6.004
45.52000 4.006
45.56000 4.087
45.60000 6.188
45.64000 6.067
45.68000 3.099
45.72000 5.031
45.76000 2.078
45.80000 2.031
45.84000 2.025
45.88000 4.120
45.92000 6.156
45.96000 5.031
46.00000 5.087
46.04000 0.000
46.08000 5.072
46.12000 4.988
46.16000 5.022
46.20000 1.951
46.24000 1.047
46.28000 5.072
46.32000 3.039
46.36000 4.092
46.40000 3.046
46.44000 3.102
46.48000 0.974
46.52000 2.961
46.56000 0.000
46.60000 4.092
46.64000 5.130
46.68000 8.023
46.72000 2.030
46.76000 8.262
46.80000 6.052
46.84000 5.183
46.88000 6.199
46.92000 4.062
46.96000 5.192
47.00000 5.115
47.04000 2.047
47.08000 7.070
47.12000 2.974
47.16000 5.040
47.20000 1.051
47.24000 3.990
47.28000 2.000
47.32000 4.121
47.36000 5.141
47.40000 2.036
47.44000 2.961
47.48000 5.082
47.52000 4.047
47.56000 3.112
47.60000 1.995
47.64000 2.065
47.68000 9.043
47.72000 8.298
47.76000 5.091
47.80000 7.174
47.84000 3.020
47.88000 4.040
47.92000 6.080
47.96000 0.000
48.00000 10.187
48.04000 6.137
48.08000 4.131
48.12000 4.029
48.16000 4.083
48.20000 3.038
48.24000 12.109
48.28000 4.020
48.32000 2.945
48.36000 8.090
48.40000 4.032
48.44000 7.062
48.48000 3.013
48.52000 8.211
48.56000 5.099
48.60000 1.984
48.64000 6.016
48.68000 5.942
48.72000 0.000
48.76000 4.053
48.80000 5.030
48.84000 2.054
48.88000 4.030
48.92000 1.017
48.96000 6.143
49.00000 3.034
49.04000 3.038
49.08000 2.109
49.12000 4.081
49.16000 3.019
49.20000 3.997
49.24000 0.988
49.28000 5.039
49.32000 8.152
49.36000 2.008
49.40000 10.059
49.44000 9.218
49.48000 3.036
49.52000 2.026
49.56000 5.003
49.60000 7.022
49.64000 4.027
49.68000 3.041
49.72000 3.020
49.76000 2.047
49.80000 4.081
49.84000 4.090
49.88000 5.072
49.92000 5.113
49.96000 4.055
50.00000 6.021
50.04000 4.065
50.08000 6.071
50.12000 3.007
50.16000 5.100
50.20000 5.047
50.24000 6.000
50.28000 4.105
50.32000 1.003
50.36000 2.058
50.40000 5.112
50.44000 4.049
50.48000 7.141
50.52000 5.076
50.56000 9.160
50.60000 6.141
50.64000 5.069
50.68000 10.211
50.72000 5.175
50.76000 4.034
50.80000 4.052
50.84000 4.015
50.88000 2.976
50.92000 4.995
50.96000 4.006
51.00000 8.186
51.04000 3.031
51.08000 10.200
51.12000 4.001
51.16000 3.072
51.20000 6.086
51.24000 7.028
51.28000 3.003
51.32000 8.080
51.36000 6.143
51.40000 4.070
51.44000 5.162
51.48000 8.073
51.52000 3.059
51.56000 6.132
51.60000 6.022
51.64000 3.966
51.68000 5.009
51.72000 7.108
51.76000 3.024
51.80000 0.000
51.84000 8.064
51.88000 5.075
51.92000 5.011
51.96000 6.107
52.00000 4.986
52.04000 3.050
52.08000 0.000
52.12000 6.066
52.16000 8.097
52.20000 5.004
52.24000 7.155
52.28000 3.024
52.32000 2.955
52.36000 4.050
52.40000 5.096
52.44000 5.084
52.48000 6.003
52.52000 5.133
52.56000 2.010
52.60000 3.108
52.64000 6.123
52.68000 0.999
52.72000 8.037
52.76000 4.018
52.80000 3.007
52.84000 4.091
52.88000 5.111
52.92000 3.057
52.96000 0.990
53.00000 6.045
53.04000 2.009
53.08000 4.036
53.12000 5.015
53.16000 10.258
53.20000 0.995
53.24000 3.086
53.28000 4.097
53.32000 3.038
53.36000 8.034
53.40000 7.068
53.44000 10.150
53.48000 5.139
53.52000 3.075
53.56000 6.143
53.60000 6.146
53.64000 3.064
53.68000 7.090
53.72000 3.025
53.76000 2.025
53.80000 10.055
53.84000 5.148
53.88000 3.043
53.92000 1.995
53.96000 5.127
54.00000 3.056
54.04000 5.079
54.08000 3.986
54.12000 6.119
54.16000 6.024
54.20000 2.026
54.24000 4.157
54.28000 3.007
54.32000 2.026
54.36000 1.993
54.40000 3.050
54.44000 4.100
54.48000 4.058
54.52000 11.071
54.56000 5.091
54.60000 1.986
54.64000 7.005
54.68000 5.040
54.72000 5.049
54.76000 6.056
54.80000 0.000
54.84000 1.023
54.88000 2.949
54.92000 6.110
54.96000 8.213
55.00000 9.199
55.04000 0.985
55.08000 1.014
55.12000 2.036
55.16000 4.068
55.20000 8.265
55.24000 2.973
55.28000 3.082
55.32000 4.923
55.36000 2.989
55.40000 5.071
55.44000 4.037
55.48000 5.140
55.52000 2.031
55.56000 3.042
55.60000 6.129
55.64000 2.991
55.68000 3.031
55.72000 1.999
55.76000 3.046
55.80000 7.142
55.84000 5.165
55.88000 3.091
55.92000 3.038
55.96000 6.159
56.00000 4.064
56.04000 2.094
56.08000 4.117
56.12000 5.168
56.16000 4.076
56.20000 6.053
56.24000 3.060
56.28000 2.045
56.32000 5.127
56.36000 2.066
56.40000 4.005
56.44000 5.028
56.48000 5.101
56.52000 3.016
56.56000 3.055
56.60000 4.061
56.64000 3.024
56.68000 3.015
56.72000 2.048
56.76000 2.988
56.80000 4.084
56.84000 4.952
56.88000 6.088
56.92000 5.028
56.96000 4.103
57.00000 2.067
57.04000 4.104
57.08000 4.081
57.12000 9.074
57.16000 2.057
57.20000 1.023
57.24000 4.096
57.28000 5.120
57.32000 5.972
57.36000 7.128
57.40000 2.088
57.44000 6.101
57.48000 1.994
57.52000 1.003
57.56000 3.040
57.60000 2.023
57.64000 6.079
57.68000 3.074
57.72000 2.040
57.76000 6.064
57.80000 4.036
57.84000 2.008
57.88000 6.075
57.92000 2.059
57.96000 5.005
58.00000 3.023
58.04000 2.043
58.08000 4.044
58.12000 3.030
58.16000 5.150
58.20000 7.127
58.24000 5.154
58.28000 5.077
58.32000 0.989
58.36000 2.057
58.40000 0.995
58.44000 4.063
58.48000 5.056
58.52000 6.124
58.56000 4.040
58.60000 4.021
58.64000 2.032
58.68000 1.956
58.72000 0.000
58.76000 3.060
58.80000 1.010
58.84000 3.025
58.88000 2.037
58.92000 4.089
58.96000 5.086
59.00000 3.017
59.04000 6.082
59.08000 4.971
59.12000 0.984
59.16000 2.010
59.20000 1.046
59.24000 4.072
59.28000 3.121
59.32000 0.984
59.36000 1.000
59.40000 5.114
59.44000 3.006
59.48000 3.081
59.52000 2.021
59.56000 3.062
59.60000 2.054
59.64000 5.047
59.68000 3.100
59.72000 3.951
59.76000 6.139
59.80000 4.119
59.84000 4.024
59.88000 5.022
59.92000 1.019
59.96000 4.080
60.00000 2.007
60.04000 5.092
60.08000 0.990
60.12000 1.029
60.16000 0.000
60.20000 5.063
60.24000 2.030
60.28000 4.032
60.32000 5.087
60.36000 4.045
60.40000 1.026
60.44000 2.061
60.48000 6.159
60.52000 2.996
60.56000 7.117
60.60000 8.060
60.64000 4.044
60.68000 2.063
60.72000 7.175
60.76000 7.076
60.80000 3.040
60.84000 2.056
60.88000 2.037
60.92000 3.046
60.96000 0.000
61.00000 2.012
61.04000 1.047
61.08000 2.020
61.12000 6.159
61.16000 2.011
61.20000 4.069
61.24000 2.050
61.28000 1.010
61.32000 4.056
61.36000 1.984
61.40000 3.063
61.44000 5.097
61.48000 0.981
61.52000 5.043
61.56000 1.994
61.60000 2.049
61.64000 4.091
61.68000 5.129
61.72000 5.090
61.76000 3.074
61.80000 2.076
61.84000 3.022
61.88000 2.010
61.92000 0.000
61.96000 4.039
62.00000 4.067
62.04000 8.135
62.08000 3.063
62.12000 5.132
62.16000 3.037
62.20000 1.003
62.24000 1.043
62.28000 3.016
62.32000 5.147
62.36000 1.987
62.40000 1.029
62.44000 4.034
62.48000 2.049
62.52000 0.000
62.56000 0.000
62.60000 1.003
62.64000 0.000
62.68000 2.054
62.72000 5.071
62.76000 1.013
62.80000 0.985
62.84000 2.073
62.88000 0.000
62.92000 3.042
62.96000 1.007
63.00000 0.000
63.04000 1.979
63.08000 2.012
63.12000 3.039
63.16000 2.029
63.20000 6.080
63.24000 2.029
63.28000 3.966
63.32000 4.139
63.36000 2.008
63.40000 5.115
63.44000 3.092
63.48000 6.138
63.52000 4.079
63.56000 2.026
63.60000 4.034
63.64000 2.006
63.68000 3.000
63.72000 0.000
63.76000 4.050
63.80000 1.996
63.84000 8.114
63.88000 1.996
63.92000 3.001
63.96000 4.010
64.00000 4.079
64.04000 4.039
64.08000 2.022
64.12000 5.029
64.16000 3.061
64.20000 1.041
64.24000 3.035
64.28000 4.036
64.32000 2.020
64.36000 1.979
64.40000 4.060
64.44000 3.025
64.48000 2.045
64.52000 2.054
64.56000 0.999
64.60000 3.088
64.64000 0.000
64.68000 1.008
64.72000 1.000
64.76000 5.162
64.80000 4.144
64.84000 1.031
64.88000 2.003
64.92000 2.070
64.96000 1.946
65.00000 4.030