File: XRD/11-09-2025/XY Data/01092025_BTO_omega_0_5_001_11_2-782_12-187.xy
20.00000 20.260
20.04000 18.187
20.08000 15.227
20.12000 12.241
20.16000 14.123
20.20000 14.173
20.24000 11.031
20.28000 23.331
20.32000 17.163
20.36000 24.349
20.40000 20.985
20.44000 23.295
20.48000 14.198
20.52000 24.216
20.56000 12.189
20.60000 20.239
20.64000 27.359
20.68000 24.133
20.72000 14.362
20.76000 17.307
20.80000 22.205
20.84000 24.243
20.88000 18.203
20.92000 21.134
20.96000 19.202
21.00000 21.123
21.04000 21.390
21.08000 12.164
21.12000 21.491
21.16000 29.659
21.20000 21.253
21.24000 31.432
21.28000 25.365
21.32000 30.748
21.36000 17.150
21.40000 19.261
21.44000 21.263
21.48000 18.183
21.52000 17.264
21.56000 27.457
21.60000 24.404
21.64000 25.179
21.68000 29.558
21.72000 19.125
21.76000 26.238
21.80000 21.526
21.84000 19.233
21.88000 22.222
21.92000 24.494
21.96000 29.248
22.00000 20.266
22.04000 24.219
22.08000 23.396
22.12000 22.070
22.16000 25.500
22.20000 28.167
22.24000 16.158
22.28000 23.133
22.32000 19.200
22.36000 25.136
22.40000 17.138
22.44000 24.234
22.48000 30.404
22.52000 29.538
22.56000 21.274
22.60000 24.246
22.64000 26.549
22.68000 23.403
22.72000 26.311
22.76000 25.297
22.80000 26.572
22.84000 33.573
22.88000 24.280
22.92000 30.503
22.96000 23.055
23.00000 22.379
23.04000 23.301
23.08000 27.383
23.12000 21.257
23.16000 20.373
23.20000 29.608
23.24000 14.236
23.28000 29.334
23.32000 30.393
23.36000 26.346
23.40000 26.518
23.44000 32.376
23.48000 30.459
23.52000 28.280
23.56000 28.564
23.60000 37.428
23.64000 31.659
23.68000 26.340
23.72000 28.211
23.76000 19.170
23.80000 30.461
23.84000 31.414
23.88000 34.372
23.92000 29.295
23.96000 44.502
24.00000 34.583
24.04000 25.338
24.08000 19.244
24.12000 29.368
24.16000 22.398
24.20000 31.504
24.24000 26.561
24.28000 27.416
24.32000 30.431
24.36000 27.259
24.40000 22.346
24.44000 27.501
24.48000 25.111
24.52000 28.591
24.56000 25.162
24.60000 44.517
24.64000 55.644
24.68000 41.574
24.72000 36.417
24.76000 36.373
24.80000 32.502
24.84000 36.570
24.88000 37.387
24.92000 40.438
24.96000 51.990
25.00000 50.543
25.04000 42.329
25.08000 35.262
25.12000 38.545
25.16000 42.462
25.20000 36.406
25.24000 43.699
25.28000 36.553
25.32000 46.541
25.36000 50.812
25.40000 33.471
25.44000 33.496
25.48000 38.566
25.52000 32.493
25.56000 37.370
25.60000 56.539
25.64000 51.683
25.68000 53.691
25.72000 40.728
25.76000 50.892
25.80000 48.649
25.84000 41.540
25.88000 36.387
25.92000 49.564
25.96000 57.764
26.00000 59.508
26.04000 40.474
26.08000 47.644
26.12000 47.848
26.16000 50.268
26.20000 53.750
26.24000 48.769
26.28000 59.830
26.32000 49.672
26.36000 47.591
26.40000 54.701
26.44000 54.587
26.48000 39.483
26.52000 50.939
26.56000 39.716
26.60000 69.594
26.64000 67.942
26.68000 56.501
26.72000 60.160
26.76000 66.043
26.80000 59.610
26.84000 57.609
26.88000 56.647
26.92000 68.776
26.96000 51.408
27.00000 62.145
27.04000 58.987
27.08000 66.512
27.12000 61.894
27.16000 62.687
27.20000 63.724
27.24000 57.509
27.28000 72.245
27.32000 70.721
27.36000 51.609
27.40000 50.954
27.44000 66.059
27.48000 67.874
27.52000 71.916
27.56000 63.692
27.60000 72.962
27.64000 56.894
27.68000 66.143
27.72000 58.054
27.76000 55.606
27.80000 58.678
27.84000 63.911
27.88000 60.686
27.92000 66.957
27.96000 40.727
28.00000 66.753
28.04000 75.887
28.08000 60.727
28.12000 46.811
28.16000 64.937
28.20000 47.788
28.24000 67.867
28.28000 56.638
28.32000 62.998
28.36000 54.592
28.40000 63.813
28.44000 37.454
28.48000 55.269
28.52000 51.783
28.56000 60.703
28.60000 59.935
28.64000 66.728
28.68000 48.894
28.72000 64.928
28.76000 52.674
28.80000 56.074
28.84000 45.724
28.88000 53.831
28.92000 46.684
28.96000 45.639
29.00000 43.555
29.04000 56.908
29.08000 51.717
29.12000 40.550
29.16000 56.848
29.20000 53.815
29.24000 44.830
29.28000 45.853
29.32000 55.640
29.36000 50.480
29.40000 35.505
29.44000 50.382
29.48000 54.632
29.52000 38.513
29.56000 52.586
29.60000 47.386
29.64000 43.824
29.68000 49.785
29.72000 35.372
29.76000 48.838
29.80000 54.512
29.84000 41.239
29.88000 43.396
29.92000 41.365
29.96000 48.463
30.00000 41.362
30.04000 40.458
30.08000 47.760
30.12000 57.753
30.16000 46.477
30.20000 47.771
30.24000 33.953
30.28000 51.607
30.32000 44.609
30.36000 36.699
30.40000 30.424
30.44000 47.335
30.48000 34.482
30.52000 33.395
30.56000 32.633
30.60000 49.612
30.64000 42.500
30.68000 37.865
30.72000 35.664
30.76000 40.791
30.80000 37.591
30.84000 27.703
30.88000 33.590
30.92000 36.457
30.96000 33.243
31.00000 43.684
31.04000 36.787
31.08000 41.605
31.12000 41.507
31.16000 26.386
31.20000 22.330
31.24000 26.443
31.28000 26.280
31.32000 31.261
31.36000 40.624
31.40000 30.219
31.44000 27.314
31.48000 29.516
31.52000 37.793
31.56000 33.591
31.60000 32.334
31.64000 30.302
31.68000 35.670
31.72000 27.390
31.76000 35.561
31.80000 25.290
31.84000 33.745
31.88000 20.492
31.92000 29.504
31.96000 30.427
32.00000 27.409
32.04000 20.291
32.08000 31.682
32.12000 34.331
32.16000 24.378
32.20000 27.574
32.24000 43.377
32.28000 32.272
32.32000 24.367
32.36000 25.155
32.40000 28.237
32.44000 27.535
32.48000 29.208
32.52000 18.302
32.56000 31.420
32.60000 36.774
32.64000 32.521
32.68000 33.228
32.72000 32.546
32.76000 26.238
32.80000 24.374
32.84000 24.466
32.88000 18.073
32.92000 27.557
32.96000 26.229
33.00000 27.415
33.04000 30.586
33.08000 18.184
33.12000 25.357
33.16000 18.414
33.20000 24.396
33.24000 21.151
33.28000 18.194
33.32000 9.206
33.36000 27.376
33.40000 18.169
33.44000 33.267
33.48000 17.187
33.52000 18.213
33.56000 20.392
33.60000 16.307
33.64000 23.200
33.68000 20.404
33.72000 16.370
33.76000 20.307
33.80000 25.206
33.84000 20.221
33.88000 16.110
33.92000 15.256
33.96000 22.338
34.00000 20.172
34.04000 16.152
34.08000 22.254
34.12000 24.416
34.16000 17.288
34.20000 33.566
34.24000 19.233
34.28000 29.678
34.32000 29.348
34.36000 23.239
34.40000 21.224
34.44000 10.214
34.48000 11.173
34.52000 25.386
34.56000 17.054
34.60000 19.237
34.64000 18.306
34.68000 18.285
34.72000 11.110
34.76000 17.198
34.80000 21.267
34.84000 24.288
34.88000 13.205
34.92000 22.230
34.96000 16.188
35.00000 13.086
35.04000 12.983
35.08000 18.200
35.12000 18.276
35.16000 21.140
35.20000 15.136
35.24000 20.266
35.28000 31.298
35.32000 15.191
35.36000 11.311
35.40000 9.944
35.44000 18.194
35.48000 17.229
35.52000 16.068
35.56000 15.248
35.60000 24.414
35.64000 15.109
35.68000 15.264
35.72000 14.184
35.76000 20.379
35.80000 16.153
35.84000 22.181
35.88000 15.305
35.92000 12.064
35.96000 24.128
36.00000 20.288
36.04000 19.160
36.08000 27.369
36.12000 17.452
36.16000 18.281
36.20000 17.190
36.24000 27.475
36.28000 12.196
36.32000 17.252
36.36000 17.215
36.40000 20.220
36.44000 15.203
36.48000 24.292
36.52000 19.257
36.56000 28.410
36.60000 29.514
36.64000 14.133
36.68000 14.161
36.72000 21.284
36.76000 18.249
36.80000 13.209
36.84000 17.117
36.88000 23.423
36.92000 25.359
36.96000 15.105
37.00000 19.198
37.04000 13.417
37.08000 16.075
37.12000 18.253
37.16000 13.253
37.20000 18.315
37.24000 17.325
37.28000 22.148
37.32000 16.145
37.36000 29.296
37.40000 19.119
37.44000 23.396
37.48000 21.300
37.52000 19.142
37.56000 13.067
37.60000 19.390
37.64000 15.274
37.68000 18.121
37.72000 24.274
37.76000 16.149
37.80000 22.162
37.84000 27.427
37.88000 17.345
37.92000 20.401
37.96000 12.137
38.00000 20.199
38.04000 15.157
38.08000 17.102
38.12000 22.247
38.16000 19.147
38.20000 30.208
38.24000 15.145
38.28000 23.439
38.32000 21.165
38.36000 21.415
38.40000 22.299
38.44000 19.230
38.48000 19.308
38.52000 18.388
38.56000 13.124
38.60000 23.250
38.64000 21.159
38.68000 24.197
38.72000 17.148
38.76000 28.455
38.80000 24.064
38.84000 17.180
38.88000 23.382
38.92000 21.446
38.96000 14.223
39.00000 20.238
39.04000 25.319
39.08000 20.170
39.12000 20.346
39.16000 17.403
39.20000 27.523
39.24000 25.445
39.28000 17.132
39.32000 27.504
39.36000 21.251
39.40000 22.252
39.44000 14.020
39.48000 22.399
39.52000 29.249
39.56000 25.366
39.60000 26.112
39.64000 18.159
39.68000 21.090
39.72000 15.119
39.76000 29.513
39.80000 27.277
39.84000 21.279
39.88000 13.250
39.92000 23.424
39.96000 27.324
40.00000 19.363
40.04000 17.355
40.08000 21.259
40.12000 21.232
40.16000 26.996
40.20000 17.190
40.24000 22.376
40.28000 20.161
40.32000 19.393
40.36000 30.277
40.40000 24.082
40.44000 20.116
40.48000 25.081
40.52000 15.310
40.56000 21.208
40.60000 21.243
40.64000 24.578
40.68000 18.195
40.72000 21.386
40.76000 23.219
40.80000 19.010
40.84000 23.569
40.88000 20.205
40.92000 26.397
40.96000 19.117
41.00000 30.228
41.04000 28.230
41.08000 20.200
41.12000 24.271
41.16000 23.195
41.20000 21.283
41.24000 21.255
41.28000 21.289
41.32000 20.322
41.36000 31.523
41.40000 26.416
41.44000 22.218
41.48000 28.123
41.52000 26.292
41.56000 24.424
41.60000 18.260
41.64000 21.283
41.68000 18.345
41.72000 18.287
41.76000 17.288
41.80000 22.266
41.84000 18.278
41.88000 21.191
41.92000 25.415
41.96000 24.426
42.00000 27.398
42.04000 22.213
42.08000 23.619
42.12000 21.302
42.16000 25.274
42.20000 22.331
42.24000 20.369
42.28000 31.408
42.32000 28.387
42.36000 23.294
42.40000 21.143
42.44000 12.393
42.48000 25.260
42.52000 21.119
42.56000 17.459
42.60000 28.279
42.64000 26.346
42.68000 17.233
42.72000 21.294
42.76000 23.358
42.80000 23.563
42.84000 24.307
42.88000 16.210
42.92000 24.233
42.96000 28.445
43.00000 23.245
43.04000 26.193
43.08000 22.213
43.12000 15.277
43.16000 24.463
43.20000 17.277
43.24000 26.115
43.28000 26.214
43.32000 17.197
43.36000 26.538
43.40000 9.238
43.44000 23.291
43.48000 20.331
43.52000 29.333
43.56000 28.689
43.60000 28.272
43.64000 19.464
43.68000 21.197
43.72000 22.224
43.76000 21.606
43.80000 26.299
43.84000 13.049
43.88000 25.383
43.92000 27.271
43.96000 17.161
44.00000 16.209
44.04000 20.248
44.08000 22.419
44.12000 11.097
44.16000 14.099
44.20000 18.152
44.24000 18.307
44.28000 26.207
44.32000 26.311
44.36000 20.332
44.40000 32.373
44.44000 21.305
44.48000 15.211
44.52000 30.452
44.56000 21.271
44.60000 31.360
44.64000 18.234
44.68000 21.180
44.72000 22.440
44.76000 15.402
44.80000 19.249
44.84000 18.098
44.88000 19.222
44.92000 23.160
44.96000 19.401
45.00000 20.135
45.04000 30.525
45.08000 15.225
45.12000 23.218
45.16000 23.238
45.20000 34.208
45.24000 18.221
45.28000 25.339
45.32000 16.333
45.36000 19.217
45.40000 20.231
45.44000 17.223
45.48000 13.237
45.52000 18.450
45.56000 13.374
45.60000 18.372
45.64000 15.212
45.68000 24.513
45.72000 19.223
45.76000 25.453
45.80000 23.250
45.84000 19.395
45.88000 18.157
45.92000 22.253
45.96000 25.356
46.00000 21.337
46.04000 18.316
46.08000 21.227
46.12000 23.432
46.16000 13.214
46.20000 14.022
46.24000 21.287
46.28000 17.219
46.32000 22.006
46.36000 24.098
46.40000 21.171
46.44000 19.320
46.48000 20.144
46.52000 25.302
46.56000 21.181
46.60000 22.174
46.64000 12.212
46.68000 19.146
46.72000 16.301
46.76000 17.294
46.80000 25.374
46.84000 18.298
46.88000 30.439
46.92000 25.625
46.96000 19.241
47.00000 24.387
47.04000 25.237
47.08000 21.175
47.12000 9.124
47.16000 24.533
47.20000 23.300
47.24000 23.171
47.28000 20.257
47.32000 25.313
47.36000 29.521
47.40000 26.339
47.44000 20.174
47.48000 23.273
47.52000 20.362
47.56000 19.302
47.60000 14.263
47.64000 27.395
47.68000 23.098
47.72000 22.353
47.76000 19.236
47.80000 17.113
47.84000 22.258
47.88000 15.256
47.92000 16.199
47.96000 30.429
48.00000 16.309
48.04000 15.175
48.08000 20.100
48.12000 21.295
48.16000 18.244
48.20000 24.439
48.24000 21.393
48.28000 17.288
48.32000 18.288
48.36000 21.305
48.40000 23.264
48.44000 18.321
48.48000 19.168
48.52000 7.131
48.56000 9.114
48.60000 17.322
48.64000 15.203
48.68000 11.202
48.72000 22.291
48.76000 21.223
48.80000 14.228
48.84000 14.120
48.88000 12.189
48.92000 22.298
48.96000 12.225
49.00000 24.359
49.04000 20.304
49.08000 25.439
49.12000 17.258
49.16000 19.305
49.20000 18.105
49.24000 24.340
49.28000 22.377
49.32000 15.147
49.36000 22.220
49.40000 32.427
49.44000 15.245
49.48000 18.346
49.52000 11.169
49.56000 26.338
49.60000 15.223
49.64000 18.326
49.68000 13.222
49.72000 19.180
49.76000 16.341
49.80000 22.421
49.84000 10.092
49.88000 19.324
49.92000 14.137
49.96000 13.240
50.00000 22.187
50.04000 13.086
50.08000 15.105
50.12000 9.089
50.16000 20.203
50.20000 20.290
50.24000 12.107
50.28000 25.506
50.32000 20.284
50.36000 17.245
50.40000 16.136
50.44000 19.233
50.48000 13.009
50.52000 14.074
50.56000 14.164
50.60000 20.356
50.64000 14.037
50.68000 9.098
50.72000 15.178
50.76000 12.113
50.80000 31.204
50.84000 14.347
50.88000 16.352
50.92000 13.197
50.96000 21.252
51.00000 18.344
51.04000 17.248
51.08000 18.258
51.12000 11.090
51.16000 20.202
51.20000 15.084
51.24000 12.082
51.28000 16.151
51.32000 10.173
51.36000 19.351
51.40000 21.251
51.44000 5.016
51.48000 15.057
51.52000 17.263
51.56000 16.135
51.60000 22.290
51.64000 19.248
51.68000 17.187
51.72000 18.179
51.76000 13.216
51.80000 16.064
51.84000 17.128
51.88000 12.051
51.92000 14.165
51.96000 18.378
52.00000 19.093
52.04000 7.079
52.08000 23.362
52.12000 10.115
52.16000 15.124
52.20000 15.317
52.24000 17.124
52.28000 18.063
52.32000 12.132
52.36000 14.133
52.40000 12.109
52.44000 13.060
52.48000 15.417
52.52000 17.319
52.56000 14.174
52.60000 27.429
52.64000 17.218
52.68000 15.194
52.72000 12.989
52.76000 15.040
52.80000 12.243
52.84000 18.367
52.88000 10.080
52.92000 9.992
52.96000 13.173
53.00000 13.276
53.04000 19.292
53.08000 21.621
53.12000 20.225
53.16000 15.193
53.20000 15.126
53.24000 23.190
53.28000 13.289
53.32000 10.137
53.36000 14.323
53.40000 13.143
53.44000 6.249
53.48000 17.298
53.52000 16.233
53.56000 21.513
53.60000 18.267
53.64000 15.196
53.68000 12.146
53.72000 12.251
53.76000 11.214
53.80000 17.068
53.84000 15.209
53.88000 8.036
53.92000 13.286
53.96000 15.084
54.00000 14.292
54.04000 20.391
54.08000 13.149
54.12000 11.120
54.16000 9.043
54.20000 13.242
54.24000 16.217
54.28000 9.043
54.32000 15.169
54.36000 21.485
54.40000 20.303
54.44000 12.142
54.48000 13.251
54.52000 8.069
54.56000 17.254
54.60000 13.970
54.64000 19.318
54.68000 8.105
54.72000 13.184
54.76000 17.217
54.80000 15.336
54.84000 12.237
54.88000 9.089
54.92000 21.081
54.96000 10.071
55.00000 15.265
55.04000 12.029
55.08000 9.149
55.12000 14.217
55.16000 15.245
55.20000 15.274
55.24000 18.363
55.28000 10.166
55.32000 12.177
55.36000 9.109
55.40000 17.207
55.44000 23.220
55.48000 14.058
55.52000 5.100
55.56000 11.397
55.60000 20.376
55.64000 13.932
55.68000 15.170
55.72000 7.152
55.76000 13.129
55.80000 9.001
55.84000 11.070
55.88000 7.130
55.92000 7.102
55.96000 10.109
56.00000 20.312
56.04000 13.038
56.08000 14.179
56.12000 11.172
56.16000 7.981
56.20000 15.192
56.24000 19.386
56.28000 14.171
56.32000 11.214
56.36000 13.110
56.40000 12.057
56.44000 13.221
56.48000 3.941
56.52000 8.053
56.56000 13.137
56.60000 11.944
56.64000 6.028
56.68000 9.223
56.72000 13.101
56.76000 12.205
56.80000 7.017
56.84000 9.193
56.88000 17.113
56.92000 9.238
56.96000 18.348
57.00000 17.114
57.04000 11.171
57.08000 16.123
57.12000 4.015
57.16000 14.089
57.20000 8.098
57.24000 13.997
57.28000 16.155
57.32000 5.029
57.36000 5.024
57.40000 11.153
57.44000 11.026
57.48000 11.234
57.52000 13.241
57.56000 14.187
57.60000 14.205
57.64000 8.039
57.68000 14.116
57.72000 10.085
57.76000 18.124
57.80000 11.191
57.84000 11.154
57.88000 13.049
57.92000 5.075
57.96000 13.198
58.00000 15.136
58.04000 10.112
58.08000 13.172
58.12000 13.089
58.16000 13.263
58.20000 15.096
58.24000 7.193
58.28000 9.070
58.32000 5.080
58.36000 14.130
58.40000 13.138
58.44000 10.253
58.48000 13.095
58.52000 9.136
58.56000 15.195
58.60000 11.073
58.64000 8.033
58.68000 5.995
58.72000 10.214
58.76000 14.168
58.80000 12.114
58.84000 5.934
58.88000 10.060
58.92000 12.276
58.96000 11.235
59.00000 10.175
59.04000 16.114
59.08000 14.092
59.12000 10.114
59.16000 11.205
59.20000 14.313
59.24000 7.234
59.28000 8.104
59.32000 8.090
59.36000 10.005
59.40000 13.259
59.44000 5.050
59.48000 12.295
59.52000 11.228
59.56000 6.043
59.60000 8.258
59.64000 13.145
59.68000 10.015
59.72000 12.288
59.76000 12.277
59.80000 13.160
59.84000 10.074
59.88000 8.101
59.92000 10.120
59.96000 15.170
60.00000 8.057
60.04000 11.173
60.08000 11.221
60.12000 8.098
60.16000 5.103
60.20000 6.087
60.24000 16.052
60.28000 6.131
60.32000 8.069
60.36000 6.025
60.40000 7.042
60.44000 8.166
60.48000 18.168
60.52000 13.094
60.56000 12.069
60.60000 14.277
60.64000 10.188
60.68000 15.021
60.72000 5.994
60.76000 10.075
60.80000 10.037
60.84000 9.165
60.88000 4.982
60.92000 6.045
60.96000 9.292
61.00000 12.103
61.04000 6.976
61.08000 2.008
61.12000 1.974
61.16000 10.002
61.20000 14.304
61.24000 9.066
61.28000 6.048
61.32000 9.225
61.36000 14.084
61.40000 7.018
61.44000 16.260
61.48000 7.087
61.52000 14.316
61.56000 9.189
61.60000 11.124
61.64000 6.121
61.68000 10.089
61.72000 9.114
61.76000 6.963
61.80000 15.085
61.84000 9.114
61.88000 9.157
61.92000 7.170
61.96000 10.128
62.00000 6.980
62.04000 6.025
62.08000 5.086
62.12000 8.045
62.16000 12.083
62.20000 7.048
62.24000 9.146
62.28000 9.220
62.32000 2.034
62.36000 10.229
62.40000 19.243
62.44000 12.250
62.48000 4.111
62.52000 7.153
62.56000 13.272
62.60000 8.224
62.64000 7.149
62.68000 6.033
62.72000 13.254
62.76000 11.243
62.80000 6.147
62.84000 10.143
62.88000 13.255
62.92000 10.291
62.96000 5.101
63.00000 7.075
63.04000 11.192
63.08000 14.101
63.12000 3.018
63.16000 8.122
63.20000 8.259
63.24000 11.139
63.28000 6.038
63.32000 10.999
63.36000 6.057
63.40000 8.160
63.44000 6.166
63.48000 4.117
63.52000 7.122
63.56000 11.124
63.60000 5.109
63.64000 4.161
63.68000 7.000
63.72000 5.065
63.76000 6.158
63.80000 7.134
63.84000 7.130
63.88000 11.100
63.92000 6.088
63.96000 10.261
64.00000 8.152
64.04000 6.070
64.08000 14.170
64.12000 6.030
64.16000 10.179
64.20000 8.180
64.24000 7.128
64.28000 5.222
64.32000 10.127
64.36000 6.035
64.40000 6.996
64.44000 9.151
64.48000 13.180
64.52000 3.090
64.56000 7.073
64.60000 11.123
64.64000 7.143
64.68000 6.004
64.72000 7.225
64.76000 10.129
64.80000 7.034
64.84000 7.256
64.88000 8.279
64.92000 6.046
64.96000 6.097
65.00000 5.023