File: XRD/11-09-2025/XY Data/01092025_BTO_omega_1_001_24_-11-262_-5-424.xy
20.00000 11.117
20.04000 10.103
20.08000 8.117
20.12000 12.119
20.16000 13.225
20.20000 8.092
20.24000 14.165
20.28000 8.059
20.32000 10.046
20.36000 10.043
20.40000 15.005
20.44000 6.978
20.48000 4.059
20.52000 11.205
20.56000 17.353
20.60000 11.248
20.64000 14.351
20.68000 13.117
20.72000 13.275
20.76000 5.046
20.80000 12.034
20.84000 10.128
20.88000 14.182
20.92000 12.285
20.96000 11.189
21.00000 15.269
21.04000 9.116
21.08000 14.118
21.12000 10.091
21.16000 9.147
21.20000 8.290
21.24000 11.178
21.28000 9.087
21.32000 13.014
21.36000 8.220
21.40000 17.212
21.44000 11.098
21.48000 8.100
21.52000 12.145
21.56000 13.252
21.60000 17.245
21.64000 11.152
21.68000 14.165
21.72000 11.149
21.76000 11.151
21.80000 19.306
21.84000 5.017
21.88000 9.069
21.92000 15.064
21.96000 14.210
22.00000 10.225
22.04000 13.102
22.08000 11.233
22.12000 12.072
22.16000 9.145
22.20000 7.995
22.24000 14.280
22.28000 11.072
22.32000 8.063
22.36000 7.110
22.40000 8.091
22.44000 3.047
22.48000 7.167
22.52000 17.243
22.56000 13.229
22.60000 14.101
22.64000 7.082
22.68000 9.112
22.72000 11.158
22.76000 13.238
22.80000 13.238
22.84000 7.091
22.88000 10.976
22.92000 10.060
22.96000 8.097
23.00000 14.215
23.04000 14.190
23.08000 8.169
23.12000 13.185
23.16000 10.103
23.20000 13.174
23.24000 9.176
23.28000 10.064
23.32000 9.035
23.36000 9.052
23.40000 8.189
23.44000 8.246
23.48000 16.183
23.52000 5.956
23.56000 9.137
23.60000 7.232
23.64000 12.351
23.68000 11.183
23.72000 12.392
23.76000 9.983
23.80000 10.216
23.84000 8.092
23.88000 8.147
23.92000 4.142
23.96000 7.138
24.00000 7.113
24.04000 13.117
24.08000 15.034
24.12000 8.176
24.16000 4.991
24.20000 12.176
24.24000 12.246
24.28000 9.086
24.32000 10.117
24.36000 8.169
24.40000 10.081
24.44000 7.070
24.48000 10.104
24.52000 7.088
24.56000 7.118
24.60000 7.092
24.64000 5.087
24.68000 9.244
24.72000 10.108
24.76000 12.235
24.80000 8.106
24.84000 10.149
24.88000 6.088
24.92000 10.149
24.96000 10.135
25.00000 8.077
25.04000 10.131
25.08000 11.025
25.12000 5.048
25.16000 4.946
25.20000 7.055
25.24000 8.128
25.28000 11.259
25.32000 4.999
25.36000 9.127
25.40000 5.021
25.44000 9.077
25.48000 6.065
25.52000 7.130
25.56000 7.124
25.60000 7.037
25.64000 4.992
25.68000 5.099
25.72000 5.978
25.76000 12.119
25.80000 5.058
25.84000 4.028
25.88000 7.008
25.92000 12.280
25.96000 4.057
26.00000 4.081
26.04000 7.221
26.08000 9.093
26.12000 11.144
26.16000 7.104
26.20000 11.102
26.24000 9.243
26.28000 6.071
26.32000 8.059
26.36000 1.961
26.40000 1.978
26.44000 7.112
26.48000 6.079
26.52000 6.094
26.56000 3.994
26.60000 5.069
26.64000 6.180
26.68000 7.071
26.72000 13.242
26.76000 4.078
26.80000 9.984
26.84000 5.977
26.88000 8.154
26.92000 9.145
26.96000 7.198
27.00000 8.079
27.04000 7.013
27.08000 5.065
27.12000 6.119
27.16000 7.108
27.20000 5.993
27.24000 4.110
27.28000 11.075
27.32000 5.029
27.36000 5.006
27.40000 7.065
27.44000 7.224
27.48000 4.016
27.52000 7.180
27.56000 8.170
27.60000 7.128
27.64000 4.016
27.68000 8.046
27.72000 12.154
27.76000 5.031
27.80000 4.046
27.84000 8.155
27.88000 7.032
27.92000 4.062
27.96000 5.139
28.00000 8.188
28.04000 10.174
28.08000 9.096
28.12000 8.138
28.16000 8.141
28.20000 3.075
28.24000 9.116
28.28000 8.030
28.32000 4.124
28.36000 9.995
28.40000 12.243
28.44000 7.146
28.48000 1.031
28.52000 2.935
28.56000 2.970
28.60000 10.018
28.64000 1.010
28.68000 7.093
28.72000 6.051
28.76000 7.020
28.80000 11.293
28.84000 4.086
28.88000 5.116
28.92000 8.069
28.96000 3.069
29.00000 5.101
29.04000 4.999
29.08000 7.020
29.12000 3.966
29.16000 10.210
29.20000 5.075
29.24000 2.990
29.28000 2.041
29.32000 7.128
29.36000 8.055
29.40000 5.091
29.44000 6.093
29.48000 4.098
29.52000 11.153
29.56000 2.990
29.60000 9.138
29.64000 7.135
29.68000 9.094
29.72000 7.135
29.76000 4.098
29.80000 7.052
29.84000 2.020
29.88000 5.078
29.92000 6.169
29.96000 5.043
30.00000 8.149
30.04000 6.989
30.08000 6.134
30.12000 9.118
30.16000 6.101
30.20000 2.004
30.24000 5.102
30.28000 4.107
30.32000 8.183
30.36000 6.086
30.40000 13.118
30.44000 5.001
30.48000 3.028
30.52000 8.083
30.56000 4.071
30.60000 8.082
30.64000 6.064
30.68000 4.088
30.72000 1.015
30.76000 7.162
30.80000 8.043
30.84000 2.988
30.88000 2.033
30.92000 4.059
30.96000 3.077
31.00000 6.055
31.04000 6.065
31.08000 6.196
31.12000 2.037
31.16000 3.062
31.20000 0.995
31.24000 8.233
31.28000 7.098
31.32000 10.173
31.36000 4.021
31.40000 6.114
31.44000 5.087
31.48000 5.079
31.52000 3.058
31.56000 9.151
31.60000 4.074
31.64000 3.013
31.68000 7.106
31.72000 4.073
31.76000 10.097
31.80000 6.152
31.84000 8.055
31.88000 7.053
31.92000 4.024
31.96000 2.036
32.00000 5.195
32.04000 6.026
32.08000 5.995
32.12000 2.024
32.16000 7.047
32.20000 2.019
32.24000 5.985
32.28000 3.055
32.32000 6.985
32.36000 3.108
32.40000 4.021
32.44000 4.060
32.48000 4.062
32.52000 4.007
32.56000 4.053
32.60000 5.013
32.64000 4.072
32.68000 3.110
32.72000 8.041
32.76000 4.023
32.80000 4.058
32.84000 3.089
32.88000 11.210
32.92000 4.993
32.96000 1.007
33.00000 6.037
33.04000 3.027
33.08000 4.956
33.12000 2.990
33.16000 7.044
33.20000 2.964
33.24000 5.997
33.28000 1.981
33.32000 3.032
33.36000 5.107
33.40000 1.034
33.44000 11.112
33.48000 5.050
33.52000 4.144
33.56000 5.081
33.60000 2.054
33.64000 1.940
33.68000 3.062
33.72000 4.024
33.76000 3.032
33.80000 8.221
33.84000 1.014
33.88000 2.046
33.92000 3.078
33.96000 4.169
34.00000 6.038
34.04000 4.055
34.08000 2.990
34.12000 3.132
34.16000 2.036
34.20000 4.065
34.24000 0.000
34.28000 5.015
34.32000 12.153
34.36000 3.087
34.40000 1.097
34.44000 2.063
34.48000 0.995
34.52000 3.006
34.56000 3.071
34.60000 5.007
34.64000 2.059
34.68000 3.007
34.72000 2.046
34.76000 2.026
34.80000 1.987
34.84000 5.026
34.88000 3.025
34.92000 4.162
34.96000 1.044
35.00000 3.067
35.04000 7.175
35.08000 4.057
35.12000 3.048
35.16000 6.973
35.20000 4.001
35.24000 4.066
35.28000 3.995
35.32000 0.992
35.36000 1.997
35.40000 4.101
35.44000 4.043
35.48000 4.046
35.52000 4.085
35.56000 3.011
35.60000 1.021
35.64000 6.146
35.68000 5.017
35.72000 5.184
35.76000 4.042
35.80000 3.069
35.84000 4.091
35.88000 1.039
35.92000 3.079
35.96000 2.997
36.00000 2.984
36.04000 3.005
36.08000 2.984
36.12000 0.996
36.16000 4.055
36.20000 2.987
36.24000 5.077
36.28000 6.063
36.32000 0.000
36.36000 4.020
36.40000 0.000
36.44000 4.022
36.48000 5.136
36.52000 2.963
36.56000 3.981
36.60000 1.001
36.64000 4.035
36.68000 3.099
36.72000 2.987
36.76000 2.991
36.80000 0.988
36.84000 0.000
36.88000 2.016
36.92000 3.078
36.96000 3.049
37.00000 3.042
37.04000 0.000
37.08000 3.993
37.12000 6.116
37.16000 5.069
37.20000 1.017
37.24000 1.994
37.28000 1.997
37.32000 2.039
37.36000 3.071
37.40000 3.063
37.44000 1.031
37.48000 7.133
37.52000 2.119
37.56000 4.008
37.60000 3.064
37.64000 2.984
37.68000 0.000
37.72000 2.033
37.76000 3.006
37.80000 1.023
37.84000 4.997
37.88000 4.078
37.92000 3.965
37.96000 3.046
38.00000 4.055
38.04000 6.050
38.08000 3.068
38.12000 6.059
38.16000 2.022
38.20000 5.012
38.24000 2.078
38.28000 1.987
38.32000 4.086
38.36000 2.068
38.40000 7.148
38.44000 3.046
38.48000 4.011
38.52000 0.992
38.56000 5.133
38.60000 5.182
38.64000 4.036
38.68000 1.975
38.72000 2.088
38.76000 2.103
38.80000 3.065
38.84000 1.002
38.88000 0.977
38.92000 4.046
38.96000 4.990
39.00000 6.090
39.04000 3.089
39.08000 4.076
39.12000 2.019
39.16000 1.966
39.20000 3.027
39.24000 2.032
39.28000 1.966
39.32000 0.983
39.36000 3.009
39.40000 5.033
39.44000 2.021
39.48000 3.020
39.52000 1.976
39.56000 0.000
39.60000 6.076
39.64000 4.027
39.68000 1.993
39.72000 4.069
39.76000 3.136
39.80000 2.006
39.84000 8.138
39.88000 6.122
39.92000 1.031
39.96000 1.034
40.00000 3.067
40.04000 2.049
40.08000 4.099
40.12000 3.036
40.16000 0.000
40.20000 0.986
40.24000 2.038
40.28000 3.982
40.32000 1.003
40.36000 3.105
40.40000 2.101
40.44000 3.052
40.48000 3.062
40.52000 1.995
40.56000 0.000
40.60000 3.062
40.64000 3.990
40.68000 3.140
40.72000 4.071
40.76000 2.032
40.80000 1.004
40.84000 2.980
40.88000 2.050
40.92000 1.005
40.96000 3.030
41.00000 2.002
41.04000 7.068
41.08000 4.062
41.12000 3.092
41.16000 2.064
41.20000 0.984
41.24000 1.013
41.28000 2.053
41.32000 2.011
41.36000 0.994
41.40000 2.064
41.44000 1.039
41.48000 0.000
41.52000 1.985
41.56000 0.979
41.60000 7.112
41.64000 5.148
41.68000 4.994
41.72000 3.044
41.76000 2.017
41.80000 3.099
41.84000 2.095
41.88000 4.031
41.92000 3.020
41.96000 1.028
42.00000 1.032
42.04000 1.003
42.08000 2.008
42.12000 2.034
42.16000 2.004
42.20000 4.100
42.24000 3.002
42.28000 0.998
42.32000 4.014
42.36000 0.000
42.40000 2.068
42.44000 0.996
42.48000 1.010
42.52000 5.076
42.56000 1.981
42.60000 4.029
42.64000 1.007
42.68000 3.987
42.72000 0.998
42.76000 1.015
42.80000 0.000
42.84000 3.108
42.88000 6.143
42.92000 4.111
42.96000 3.015
43.00000 2.027
43.04000 0.000
43.08000 1.992
43.12000 1.033
43.16000 0.000
43.20000 1.988
43.24000 0.000
43.28000 3.029
43.32000 3.040
43.36000 4.122
43.40000 1.007
43.44000 1.972
43.48000 3.082
43.52000 1.001
43.56000 2.065
43.60000 2.093
43.64000 5.170
43.68000 4.027
43.72000 0.995
43.76000 1.022
43.80000 4.046
43.84000 2.045
43.88000 4.009
43.92000 5.080
43.96000 0.995
44.00000 1.020
44.04000 1.017
44.08000 3.016
44.12000 3.040
44.16000 3.973
44.20000 0.000
44.24000 0.000
44.28000 0.995
44.32000 1.037
44.36000 3.065
44.40000 2.057
44.44000 5.102
44.48000 4.059
44.52000 5.021
44.56000 1.037
44.60000 3.129
44.64000 1.046
44.68000 3.043
44.72000 4.025
44.76000 0.000
44.80000 1.050
44.84000 0.000
44.88000 1.986
44.92000 0.000
44.96000 2.008
45.00000 5.080
45.04000 2.005
45.08000 1.978
45.12000 3.977
45.16000 1.058
45.20000 1.019
45.24000 2.033
45.28000 3.021
45.32000 2.035
45.36000 2.063
45.40000 0.989
45.44000 1.000
45.48000 1.023
45.52000 2.032
45.56000 3.058
45.60000 4.143
45.64000 0.985
45.68000 2.142
45.72000 1.034
45.76000 4.099
45.80000 3.044
45.84000 0.000
45.88000 2.012
45.92000 3.003
45.96000 0.000
46.00000 0.979
46.04000 2.063
46.08000 0.990
46.12000 3.031
46.16000 3.049
46.20000 1.035
46.24000 2.067
46.28000 2.039
46.32000 5.071
46.36000 4.075
46.40000 1.009
46.44000 2.037
46.48000 2.024
46.52000 0.986
46.56000 2.080
46.60000 3.010
46.64000 3.018
46.68000 0.000
46.72000 0.996
46.76000 0.993
46.80000 6.037
46.84000 5.111
46.88000 1.006
46.92000 0.980
46.96000 1.038
47.00000 2.003
47.04000 1.010
47.08000 3.020
47.12000 1.017
47.16000 2.026
47.20000 2.072
47.24000 0.988
47.28000 0.996
47.32000 1.988
47.36000 4.113
47.40000 1.990
47.44000 1.069
47.48000 0.000
47.52000 0.000
47.56000 2.090
47.60000 4.098
47.64000 1.022
47.68000 2.001
47.72000 3.045
47.76000 2.017
47.80000 0.974
47.84000 2.006
47.88000 2.005
47.92000 0.000
47.96000 0.999
48.00000 1.055
48.04000 0.979
48.08000 6.009
48.12000 1.031
48.16000 1.967
48.20000 5.972
48.24000 0.000
48.28000 2.018
48.32000 1.067
48.36000 0.000
48.40000 4.016
48.44000 2.031
48.48000 1.999
48.52000 2.034
48.56000 0.000
48.60000 1.012
48.64000 0.999
48.68000 2.004
48.72000 0.000
48.76000 0.000
48.80000 3.006
48.84000 3.025
48.88000 0.995
48.92000 3.077
48.96000 1.033
49.00000 1.002
49.04000 1.033
49.08000 1.976
49.12000 0.990
49.16000 2.977
49.20000 0.989
49.24000 1.995
49.28000 0.000
49.32000 3.066
49.36000 3.046
49.40000 3.080
49.44000 3.024
49.48000 2.996
49.52000 1.035
49.56000 1.024
49.60000 3.029
49.64000 4.065
49.68000 3.029
49.72000 3.055
49.76000 2.034
49.80000 2.005
49.84000 1.004
49.88000 0.000
49.92000 3.043
49.96000 2.023
50.00000 0.985
50.04000 0.991
50.08000 3.053
50.12000 2.009
50.16000 1.044
50.20000 0.980
50.24000 3.121
50.28000 1.018
50.32000 3.150
50.36000 3.035
50.40000 2.022
50.44000 1.999
50.48000 5.188
50.52000 3.083
50.56000 1.043
50.60000 1.048
50.64000 1.045
50.68000 1.028
50.72000 1.985
50.76000 2.064
50.80000 4.116
50.84000 2.032
50.88000 0.999
50.92000 1.969
50.96000 4.023
51.00000 2.038
51.04000 0.000
51.08000 2.053
51.12000 0.989
51.16000 3.033
51.20000 4.128
51.24000 3.039
51.28000 0.000
51.32000 0.000
51.36000 0.000
51.40000 2.005
51.44000 3.034
51.48000 2.081
51.52000 0.000
51.56000 1.006
51.60000 1.030
51.64000 1.013
51.68000 0.000
51.72000 0.000
51.76000 1.996
51.80000 2.061
51.84000 1.040
51.88000 2.027
51.92000 3.044
51.96000 0.000
52.00000 1.025
52.04000 4.061
52.08000 3.086
52.12000 1.002
52.16000 2.033
52.20000 2.026
52.24000 3.035
52.28000 0.000
52.32000 3.054
52.36000 0.990
52.40000 3.125
52.44000 4.012
52.48000 3.042
52.52000 2.008
52.56000 1.011
52.60000 3.076
52.64000 2.025
52.68000 0.000
52.72000 4.082
52.76000 0.000
52.80000 0.000
52.84000 0.000
52.88000 0.000
52.92000 5.075
52.96000 2.054
53.00000 1.026
53.04000 1.990
53.08000 2.021
53.12000 2.019
53.16000 0.995
53.20000 0.985
53.24000 2.005
53.28000 2.008
53.32000 1.043
53.36000 1.059
53.40000 5.005
53.44000 3.012
53.48000 3.975
53.52000 3.018
53.56000 1.993
53.60000 2.043
53.64000 3.052
53.68000 1.012
53.72000 3.025
53.76000 0.000
53.80000 2.043
53.84000 0.000
53.88000 0.000
53.92000 2.004
53.96000 0.000
54.00000 5.056
54.04000 1.091
54.08000 0.000
54.12000 2.001
54.16000 1.977
54.20000 1.030
54.24000 0.992
54.28000 3.013
54.32000 3.037
54.36000 0.000
54.40000 0.000
54.44000 1.021
54.48000 0.985
54.52000 3.079
54.56000 4.014
54.60000 0.000
54.64000 2.986
54.68000 1.002
54.72000 0.990
54.76000 0.995
54.80000 2.001
54.84000 1.031
54.88000 0.988
54.92000 1.030
54.96000 1.072
55.00000 2.999
55.04000 0.995
55.08000 1.122
55.12000 3.059
55.16000 0.000
55.20000 0.000
55.24000 0.000
55.28000 0.000
55.32000 0.997
55.36000 2.062
55.40000 0.000
55.44000 2.987
55.48000 0.962
55.52000 3.107
55.56000 1.046
55.60000 1.031
55.64000 2.045
55.68000 2.098
55.72000 0.000
55.76000 0.986
55.80000 1.978
55.84000 1.989
55.88000 2.023
55.92000 4.039
55.96000 2.048
56.00000 0.986
56.04000 0.000
56.08000 1.007
56.12000 2.026
56.16000 3.024
56.20000 0.000
56.24000 2.019
56.28000 3.104
56.32000 2.022
56.36000 1.005
56.40000 2.049
56.44000 3.018
56.48000 0.000
56.52000 2.031
56.56000 0.000
56.60000 3.053
56.64000 2.058
56.68000 0.990
56.72000 4.097
56.76000 2.039
56.80000 0.000
56.84000 2.011
56.88000 0.973
56.92000 0.992
56.96000 0.983
57.00000 2.971
57.04000 2.949
57.08000 1.019
57.12000 0.000
57.16000 0.000
57.20000 1.015
57.24000 3.072
57.28000 0.000
57.32000 1.020
57.36000 4.108
57.40000 3.020
57.44000 1.001
57.48000 3.114
57.52000 1.997
57.56000 2.005
57.60000 2.068
57.64000 3.030
57.68000 2.009
57.72000 0.000
57.76000 6.073
57.80000 2.039
57.84000 1.054
57.88000 3.031
57.92000 1.021
57.96000 0.998
58.00000 0.000
58.04000 5.016
58.08000 0.000
58.12000 1.020
58.16000 0.000
58.20000 2.033
58.24000 1.013
58.28000 4.050
58.32000 1.008
58.36000 0.000
58.40000 1.011
58.44000 3.135
58.48000 0.982
58.52000 3.027
58.56000 0.990
58.60000 0.000
58.64000 1.012
58.68000 1.985
58.72000 3.046
58.76000 1.042
58.80000 1.946
58.84000 0.000
58.88000 2.002
58.92000 1.000
58.96000 1.964
59.00000 0.995
59.04000 2.045
59.08000 1.026
59.12000 0.000
59.16000 0.985
59.20000 1.005
59.24000 2.995
59.28000 1.006
59.32000 4.087
59.36000 0.000
59.40000 5.135
59.44000 1.998
59.48000 0.000
59.52000 4.039
59.56000 4.028
59.60000 1.001
59.64000 0.000
59.68000 1.997
59.72000 1.989
59.76000 0.977
59.80000 1.004
59.84000 2.017
59.88000 1.986
59.92000 1.039
59.96000 0.000
60.00000 2.040
60.04000 1.027
60.08000 4.170
60.12000 2.993
60.16000 1.033
60.20000 2.011
60.24000 4.079
60.28000 1.052
60.32000 2.064
60.36000 0.989
60.40000 1.067
60.44000 0.000
60.48000 2.064
60.52000 1.010
60.56000 0.992
60.60000 1.053
60.64000 3.990
60.68000 0.981
60.72000 0.000
60.76000 3.070
60.80000 2.065
60.84000 0.000
60.88000 1.024
60.92000 1.004
60.96000 1.998
61.00000 3.005
61.04000 0.000
61.08000 4.079
61.12000 3.039
61.16000 0.000
61.20000 0.000
61.24000 3.085
61.28000 1.959
61.32000 1.009
61.36000 3.038
61.40000 1.001
61.44000 1.063
61.48000 0.986
61.52000 0.996
61.56000 1.018
61.60000 1.004
61.64000 0.000
61.68000 2.029
61.72000 1.994
61.76000 2.009
61.80000 0.000
61.84000 2.026
61.88000 0.000
61.92000 0.977
61.96000 1.004
62.00000 2.104
62.04000 1.016
62.08000 2.017
62.12000 1.987
62.16000 0.963
62.20000 0.000
62.24000 0.000
62.28000 0.000
62.32000 0.000
62.36000 1.024
62.40000 0.000
62.44000 2.009
62.48000 0.000
62.52000 0.000
62.56000 1.059
62.60000 4.003
62.64000 1.049
62.68000 0.984
62.72000 0.000
62.76000 2.020
62.80000 3.091
62.84000 3.134
62.88000 0.000
62.92000 1.016
62.96000 1.016
63.00000 2.016
63.04000 1.017
63.08000 1.011
63.12000 1.051
63.16000 1.018
63.20000 0.000
63.24000 0.000
63.28000 1.011
63.32000 0.999
63.36000 1.006
63.40000 4.034
63.44000 2.025
63.48000 1.993
63.52000 0.000
63.56000 0.995
63.60000 2.053
63.64000 1.027
63.68000 1.002
63.72000 0.000
63.76000 0.986
63.80000 0.991
63.84000 0.000
63.88000 0.000
63.92000 2.049
63.96000 1.042
64.00000 1.991
64.04000 0.984
64.08000 3.024
64.12000 0.000
64.16000 0.000
64.20000 3.036
64.24000 4.027
64.28000 2.052
64.32000 3.014
64.36000 3.025
64.40000 0.000
64.44000 3.011
64.48000 1.029
64.52000 3.001
64.56000 0.000
64.60000 0.000
64.64000 0.000
64.68000 2.037
64.72000 0.000
64.76000 5.097
64.80000 5.012
64.84000 0.000
64.88000 0.000
64.92000 0.000
64.96000 2.040
65.00000 2.050