File: XRD/XRD/22-09-2025 Dep 2/XY Data/BTO_Mapping_Theta2Theta_22-09-2025_001_07_9-010_4-339.xy
20.00000 568.525
20.04000 553.585
20.08000 557.027
20.12000 600.597
20.16000 562.839
20.20000 562.646
20.24000 567.945
20.28000 559.096
20.32000 576.279
20.36000 533.767
20.40000 558.292
20.44000 562.743
20.48000 558.438
20.52000 548.917
20.56000 560.835
20.60000 571.590
20.64000 559.925
20.68000 565.704
20.72000 569.654
20.76000 550.099
20.80000 553.866
20.84000 563.896
20.88000 563.995
20.92000 546.753
20.96000 573.834
21.00000 575.540
21.04000 551.692
21.08000 571.396
21.12000 556.113
21.16000 546.014
21.20000 562.403
21.24000 573.329
21.28000 555.759
21.32000 552.892
21.36000 562.503
21.40000 562.026
21.44000 564.867
21.48000 545.299
21.52000 562.130
21.56000 554.667
21.60000 548.975
21.64000 579.445
21.68000 585.584
21.72000 576.151
21.76000 605.867
21.80000 640.066
21.84000 618.940
21.88000 641.882
21.92000 697.980
21.96000 744.009
22.00000 769.542
22.04000 776.557
22.08000 796.845
22.12000 792.102
22.16000 761.655
22.20000 758.048
22.24000 697.978
22.28000 669.325
22.32000 664.016
22.36000 624.311
22.40000 601.762
22.44000 589.162
22.48000 581.731
22.52000 558.661
22.56000 554.844
22.60000 522.479
22.64000 524.443
22.68000 531.454
22.72000 523.163
22.76000 515.587
22.80000 528.174
22.84000 530.445
22.88000 542.384
22.92000 528.387
22.96000 514.954
23.00000 508.085
23.04000 515.813
23.08000 518.663
23.12000 516.619
23.16000 500.862
23.20000 500.178
23.24000 519.176
23.28000 511.759
23.32000 508.931
23.36000 497.058
23.40000 514.256
23.44000 511.454
23.48000 497.986
23.52000 515.905
23.56000 487.779
23.60000 503.862
23.64000 514.832
23.68000 501.092
23.72000 505.879
23.76000 522.395
23.80000 505.013
23.84000 531.144
23.88000 515.261
23.92000 507.063
23.96000 499.450
24.00000 531.517
24.04000 513.826
24.08000 522.097
24.12000 517.850
24.16000 493.057
24.20000 508.452
24.24000 509.885
24.28000 472.144
24.32000 474.151
24.36000 485.394
24.40000 505.141
24.44000 473.098
24.48000 495.556
24.52000 492.040
24.56000 506.187
24.60000 488.949
24.64000 496.958
24.68000 500.781
24.72000 484.472
24.76000 491.545
24.80000 486.543
24.84000 481.519
24.88000 466.831
24.92000 472.257
24.96000 478.532
25.00000 472.555
25.04000 480.953
25.08000 496.579
25.12000 474.934
25.16000 494.015
25.20000 460.755
25.24000 462.316
25.28000 484.953
25.32000 481.316
25.36000 451.973
25.40000 446.690
25.44000 477.704
25.48000 471.119
25.52000 468.572
25.56000 456.482
25.60000 465.813
25.64000 472.753
25.68000 461.372
25.72000 470.552
25.76000 464.267
25.80000 467.614
25.84000 459.731
25.88000 462.500
25.92000 466.009
25.96000 478.556
26.00000 461.141
26.04000 453.792
26.08000 471.596
26.12000 476.234
26.16000 463.925
26.20000 463.807
26.24000 447.579
26.28000 448.624
26.32000 459.021
26.36000 444.525
26.40000 467.506
26.44000 444.679
26.48000 439.728
26.52000 453.709
26.56000 454.854
26.60000 460.869
26.64000 464.231
26.68000 436.297
26.72000 462.854
26.76000 457.999
26.80000 447.728
26.84000 446.183
26.88000 449.217
26.92000 451.978
26.96000 442.475
27.00000 447.413
27.04000 476.627
27.08000 435.714
27.12000 428.068
27.16000 446.015
27.20000 449.210
27.24000 440.112
27.28000 427.950
27.32000 434.529
27.36000 439.873
27.40000 449.698
27.44000 455.374
27.48000 436.314
27.52000 429.444
27.56000 444.482
27.60000 433.696
27.64000 439.756
27.68000 444.703
27.72000 442.767
27.76000 427.567
27.80000 425.467
27.84000 432.106
27.88000 421.189
27.92000 454.816
27.96000 433.484
28.00000 427.441
28.04000 433.391
28.08000 435.281
28.12000 422.331
28.16000 429.717
28.20000 442.260
28.24000 423.553
28.28000 434.937
28.32000 415.318
28.36000 419.409
28.40000 446.587
28.44000 429.175
28.48000 428.494
28.52000 423.675
28.56000 435.588
28.60000 413.231
28.64000 427.785
28.68000 424.363
28.72000 416.854
28.76000 409.468
28.80000 408.403
28.84000 426.257
28.88000 433.545
28.92000 413.059
28.96000 425.653
29.00000 420.326
29.04000 426.750
29.08000 424.715
29.12000 429.683
29.16000 421.067
29.20000 434.212
29.24000 422.134
29.28000 410.607
29.32000 420.660
29.36000 424.142
29.40000 398.902
29.44000 410.083
29.48000 414.116
29.52000 415.733
29.56000 427.970
29.60000 417.930
29.64000 408.013
29.68000 416.510
29.72000 429.948
29.76000 420.092
29.80000 441.640
29.84000 432.727
29.88000 435.610
29.92000 434.661
29.96000 443.009
30.00000 441.733
30.04000 470.112
30.08000 432.850
30.12000 438.429
30.16000 437.586
30.20000 455.743
30.24000 422.373
30.28000 440.393
30.32000 444.373
30.36000 427.572
30.40000 430.887
30.44000 449.206
30.48000 432.238
30.52000 440.607
30.56000 434.275
30.60000 455.403
30.64000 458.627
30.68000 450.194
30.72000 462.963
30.76000 486.384
30.80000 490.035
30.84000 516.264
30.88000 525.348
30.92000 547.274
30.96000 572.488
31.00000 625.931
31.04000 705.717
31.08000 771.997
31.12000 976.716
31.16000 1227.779
31.20000 1568.684
31.24000 2055.317
31.28000 2491.859
31.32000 2923.774
31.36000 3257.239
31.40000 3397.663
31.44000 3279.481
31.48000 2995.316
31.52000 2529.574
31.56000 2056.728
31.60000 1641.434
31.64000 1257.566
31.68000 1017.695
31.72000 857.497
31.76000 728.146
31.80000 640.805
31.84000 574.504
31.88000 553.529
31.92000 489.946
31.96000 480.416
32.00000 463.021
32.04000 467.931
32.08000 449.129
32.12000 448.399
32.16000 417.610
32.20000 429.753
32.24000 415.730
32.28000 404.114
32.32000 410.691
32.36000 408.285
32.40000 394.825
32.44000 398.610
32.48000 405.676
32.52000 393.210
32.56000 394.746
32.60000 394.616
32.64000 371.871
32.68000 399.226
32.72000 381.471
32.76000 368.385
32.80000 375.775
32.84000 402.730
32.88000 389.013
32.92000 412.814
32.96000 399.954
33.00000 387.297
33.04000 389.491
33.08000 383.118
33.12000 354.277
33.16000 350.442
33.20000 365.851
33.24000 377.114
33.28000 350.201
33.32000 340.279
33.36000 342.300
33.40000 360.942
33.44000 350.664
33.48000 335.929
33.52000 347.134
33.56000 333.386
33.60000 341.624
33.64000 346.342
33.68000 352.430
33.72000 339.479
33.76000 347.231
33.80000 331.898
33.84000 346.225
33.88000 336.511
33.92000 346.264
33.96000 338.521
34.00000 333.938
34.04000 353.534
34.08000 333.177
34.12000 348.463
34.16000 339.439
34.20000 335.596
34.24000 328.568
34.28000 325.712
34.32000 338.134
34.36000 346.780
34.40000 334.042
34.44000 338.911
34.48000 340.436
34.52000 335.033
34.56000 349.532
34.60000 324.777
34.64000 326.678
34.68000 326.990
34.72000 331.482
34.76000 328.174
34.80000 320.516
34.84000 322.546
34.88000 327.668
34.92000 305.088
34.96000 312.411
35.00000 318.966
35.04000 321.676
35.08000 314.457
35.12000 318.449
35.16000 297.039
35.20000 318.472
35.24000 322.006
35.28000 316.190
35.32000 307.978
35.36000 320.552
35.40000 317.061
35.44000 314.185
35.48000 305.416
35.52000 319.141
35.56000 325.142
35.60000 304.645
35.64000 323.652
35.68000 311.638
35.72000 303.975
35.76000 312.805
35.80000 304.982
35.84000 311.017
35.88000 303.011
35.92000 306.840
35.96000 309.620
36.00000 310.073
36.04000 294.270
36.08000 310.288
36.12000 308.586
36.16000 303.756
36.20000 292.679
36.24000 307.582
36.28000 308.970
36.32000 288.622
36.36000 293.613
36.40000 300.033
36.44000 300.429
36.48000 298.994
36.52000 295.960
36.56000 300.896
36.60000 293.109
36.64000 293.547
36.68000 288.776
36.72000 287.159
36.76000 296.909
36.80000 286.010
36.84000 299.241
36.88000 303.515
36.92000 316.527
36.96000 313.505
37.00000 303.770
37.04000 312.706
37.08000 296.508
37.12000 316.473
37.16000 302.636
37.20000 289.018
37.24000 316.913
37.28000 297.105
37.32000 302.847
37.36000 302.080
37.40000 297.713
37.44000 305.053
37.48000 290.224
37.52000 305.705
37.56000 292.111
37.60000 296.867
37.64000 287.972
37.68000 297.436
37.72000 279.263
37.76000 301.420
37.80000 306.127
37.84000 284.001
37.88000 291.400
37.92000 291.106
37.96000 297.957
38.00000 286.422
38.04000 298.409
38.08000 295.937
38.12000 298.954
38.16000 315.208
38.20000 306.192
38.24000 312.264
38.28000 327.046
38.32000 338.150
38.36000 335.653
38.40000 366.322
38.44000 410.814
38.48000 463.623
38.52000 552.056
38.56000 633.323
38.60000 754.624
38.64000 896.035
38.68000 986.955
38.72000 1029.886
38.76000 1027.649
38.80000 944.111
38.84000 866.854
38.88000 748.417
38.92000 624.181
38.96000 508.752
39.00000 446.257
39.04000 397.911
39.08000 351.029
39.12000 339.657
39.16000 320.136
39.20000 332.585
39.24000 300.629
39.28000 298.275
39.32000 283.175
39.36000 287.809
39.40000 296.094
39.44000 281.951
39.48000 289.990
39.52000 285.309
39.56000 295.679
39.60000 278.537
39.64000 277.395
39.68000 276.332
39.72000 272.365
39.76000 271.349
39.80000 260.368
39.84000 279.004
39.88000 274.161
39.92000 281.305
39.96000 262.927
40.00000 273.556
40.04000 259.722
40.08000 260.717
40.12000 276.093
40.16000 276.565
40.20000 265.188
40.24000 260.791
40.28000 249.295
40.32000 259.041
40.36000 268.653
40.40000 256.029
40.44000 251.413
40.48000 247.675
40.52000 253.768
40.56000 264.030
40.60000 258.313
40.64000 256.469
40.68000 256.968
40.72000 256.391
40.76000 247.550
40.80000 241.133
40.84000 257.813
40.88000 262.454
40.92000 248.985
40.96000 255.698
41.00000 243.802
41.04000 257.902
41.08000 238.758
41.12000 255.345
41.16000 240.652
41.20000 237.267
41.24000 253.648
41.28000 247.458
41.32000 249.619
41.36000 233.650
41.40000 248.126
41.44000 237.885
41.48000 238.729
41.52000 237.889
41.56000 237.081
41.60000 246.696
41.64000 239.153
41.68000 249.288
41.72000 249.711
41.76000 245.792
41.80000 254.313
41.84000 252.831
41.88000 236.525
41.92000 273.466
41.96000 234.029
42.00000 252.695
42.04000 236.851
42.08000 237.533
42.12000 244.908
42.16000 235.949
42.20000 245.036
42.24000 237.337
42.28000 231.346
42.32000 238.110
42.36000 243.082
42.40000 235.582
42.44000 247.624
42.48000 230.233
42.52000 239.419
42.56000 232.379
42.60000 247.444
42.64000 245.477
42.68000 235.561
42.72000 230.150
42.76000 235.457
42.80000 231.499
42.84000 229.821
42.88000 247.168
42.92000 225.477
42.96000 226.665
43.00000 233.193
43.04000 226.440
43.08000 234.633
43.12000 228.030
43.16000 242.825
43.20000 227.961
43.24000 235.993
43.28000 234.839
43.32000 234.297
43.36000 234.866
43.40000 223.515
43.44000 234.870
43.48000 239.695
43.52000 222.477
43.56000 213.629
43.60000 221.688
43.64000 235.835
43.68000 222.266
43.72000 229.832
43.76000 228.067
43.80000 214.614
43.84000 214.272
43.88000 224.915
43.92000 224.152
43.96000 230.036
44.00000 228.871
44.04000 220.450
44.08000 224.595
44.12000 211.901
44.16000 221.983
44.20000 236.929
44.24000 227.073
44.28000 234.800
44.32000 227.945
44.36000 228.773
44.40000 237.915
44.44000 234.837
44.48000 242.232
44.52000 250.628
44.56000 246.341
44.60000 252.618
44.64000 267.894
44.68000 264.478
44.72000 239.849
44.76000 256.193
44.80000 272.505
44.84000 294.878
44.88000 314.446
44.92000 348.543
44.96000 348.476
45.00000 372.837
45.04000 397.907
45.08000 419.454
45.12000 404.260
45.16000 401.867
45.20000 410.246
45.24000 364.342
45.28000 374.473
45.32000 349.489
45.36000 329.618
45.40000 327.200
45.44000 304.065
45.48000 299.863
45.52000 293.132
45.56000 255.533
45.60000 270.634
45.64000 262.313
45.68000 269.487
45.72000 252.620
45.76000 241.390
45.80000 227.757
45.84000 224.619
45.88000 233.870
45.92000 227.590
45.96000 234.147
46.00000 226.613
46.04000 217.486
46.08000 220.434
46.12000 219.353
46.16000 213.252
46.20000 214.585
46.24000 214.013
46.28000 205.593
46.32000 203.800
46.36000 207.279
46.40000 200.657
46.44000 201.787
46.48000 202.980
46.52000 212.818
46.56000 195.577
46.60000 189.409
46.64000 203.542
46.68000 196.440
46.72000 210.093
46.76000 194.608
46.80000 204.806
46.84000 189.225
46.88000 192.228
46.92000 194.452
46.96000 202.585
47.00000 202.518
47.04000 189.145
47.08000 195.180
47.12000 204.354
47.16000 212.034
47.20000 202.790
47.24000 193.138
47.28000 189.476
47.32000 191.641
47.36000 202.577
47.40000 189.760
47.44000 187.797
47.48000 190.363
47.52000 185.316
47.56000 195.995
47.60000 185.827
47.64000 180.812
47.68000 195.318
47.72000 187.427
47.76000 189.090
47.80000 185.831
47.84000 178.752
47.88000 188.888
47.92000 188.833
47.96000 172.667
48.00000 194.567
48.04000 185.219
48.08000 180.260
48.12000 192.721
48.16000 187.445
48.20000 181.679
48.24000 175.999
48.28000 180.796
48.32000 181.984
48.36000 181.079
48.40000 184.981
48.44000 181.624
48.48000 183.143
48.52000 186.919
48.56000 189.134
48.60000 186.464
48.64000 176.360
48.68000 181.499
48.72000 179.917
48.76000 184.190
48.80000 188.958
48.84000 192.085
48.88000 183.007
48.92000 182.979
48.96000 178.621
49.00000 179.930
49.04000 178.145
49.08000 172.412
49.12000 183.458
49.16000 174.819
49.20000 182.095
49.24000 172.719
49.28000 168.265
49.32000 183.076
49.36000 187.717
49.40000 171.307
49.44000 174.177
49.48000 169.668
49.52000 175.687
49.56000 195.897
49.60000 173.514
49.64000 172.539
49.68000 173.112
49.72000 178.167
49.76000 186.699
49.80000 180.710
49.84000 177.531
49.88000 180.164
49.92000 183.133
49.96000 182.450
50.00000 178.353
50.04000 178.114
50.08000 175.736
50.12000 182.412
50.16000 183.442
50.20000 169.600
50.24000 174.356
50.28000 176.321
50.32000 188.616
50.36000 188.235
50.40000 182.145
50.44000 203.237
50.48000 204.583
50.52000 210.695
50.56000 224.886
50.60000 229.041
50.64000 252.531
50.68000 244.474
50.72000 245.136
50.76000 261.404
50.80000 259.905
50.84000 250.689
50.88000 242.224
50.92000 234.976
50.96000 236.864
51.00000 213.479
51.04000 205.231
51.08000 197.489
51.12000 186.757
51.16000 184.812
51.20000 178.917
51.24000 177.552
51.28000 184.933
51.32000 182.150
51.36000 174.580
51.40000 176.739
51.44000 167.470
51.48000 167.679
51.52000 168.026
51.56000 179.528
51.60000 179.367
51.64000 157.560
51.68000 161.125
51.72000 167.032
51.76000 162.734
51.80000 166.272
51.84000 172.268
51.88000 171.972
51.92000 173.691
51.96000 167.131
52.00000 156.925
52.04000 152.224
52.08000 169.216
52.12000 155.578
52.16000 148.976
52.20000 155.977
52.24000 163.791
52.28000 166.607
52.32000 153.839
52.36000 158.728
52.40000 151.748
52.44000 164.607
52.48000 160.984
52.52000 153.688
52.56000 157.752
52.60000 163.462
52.64000 169.552
52.68000 157.534
52.72000 158.069
52.76000 162.218
52.80000 161.991
52.84000 165.330
52.88000 165.407
52.92000 149.870
52.96000 168.384
53.00000 148.846
53.04000 161.884
53.08000 162.146
53.12000 166.156
53.16000 162.007
53.20000 159.047
53.24000 153.889
53.28000 158.981
53.32000 171.127
53.36000 168.085
53.40000 163.876
53.44000 168.000
53.48000 171.440
53.52000 154.196
53.56000 151.099
53.60000 156.639
53.64000 163.620
53.68000 151.604
53.72000 148.649
53.76000 159.953
53.80000 165.888
53.84000 154.467
53.88000 155.022
53.92000 158.532
53.96000 155.939
54.00000 162.589
54.04000 136.778
54.08000 161.981
54.12000 163.697
54.16000 161.570
54.20000 162.392
54.24000 147.629
54.28000 145.791
54.32000 162.156
54.36000 157.780
54.40000 149.506
54.44000 149.253
54.48000 156.943
54.52000 152.983
54.56000 143.005
54.60000 155.066
54.64000 140.845
54.68000 156.879
54.72000 147.076
54.76000 154.952
54.80000 150.151
54.84000 161.125
54.88000 164.544
54.92000 163.163
54.96000 154.712
55.00000 164.595
55.04000 168.841
55.08000 155.618
55.12000 168.989
55.16000 166.120
55.20000 160.261
55.24000 166.966
55.28000 161.913
55.32000 163.373
55.36000 176.972
55.40000 182.709
55.44000 180.826
55.48000 185.827
55.52000 196.733
55.56000 200.546
55.60000 228.419
55.64000 240.964
55.68000 251.526
55.72000 293.976
55.76000 331.731
55.80000 382.608
55.84000 446.446
55.88000 473.814
55.92000 524.192
55.96000 552.425
56.00000 544.729
56.04000 512.877
56.08000 475.898
56.12000 448.968
56.16000 417.358
56.20000 388.424
56.24000 343.662
56.28000 299.853
56.32000 276.855
56.36000 246.649
56.40000 217.648
56.44000 208.249
56.48000 199.859
56.52000 208.725
56.56000 183.963
56.60000 176.438
56.64000 170.520
56.68000 179.640
56.72000 168.606
56.76000 149.580
56.80000 166.600
56.84000 175.086
56.88000 151.958
56.92000 148.275
56.96000 146.316
57.00000 154.012
57.04000 150.084
57.08000 144.468
57.12000 142.358
57.16000 146.099
57.20000 142.412
57.24000 143.899
57.28000 143.117
57.32000 148.985
57.36000 153.067
57.40000 149.059
57.44000 150.177
57.48000 145.715
57.52000 131.034
57.56000 148.253
57.60000 144.031
57.64000 145.780
57.68000 138.701
57.72000 155.029
57.76000 151.468
57.80000 135.514
57.84000 138.713
57.88000 137.699
57.92000 146.988
57.96000 145.514
58.00000 137.493
58.04000 135.535
58.08000 141.452
58.12000 146.552
58.16000 139.255
58.20000 136.863
58.24000 142.462
58.28000 138.292
58.32000 136.472
58.36000 136.525
58.40000 132.504
58.44000 140.449
58.48000 147.451
58.52000 141.126
58.56000 133.708
58.60000 131.236
58.64000 150.190
58.68000 132.032
58.72000 137.734
58.76000 129.814
58.80000 134.213
58.84000 121.738
58.88000 142.129
58.92000 141.914
58.96000 147.950
59.00000 132.879
59.04000 136.175
59.08000 138.140
59.12000 139.289
59.16000 134.902
59.20000 136.484
59.24000 134.070
59.28000 138.302
59.32000 126.804
59.36000 146.319
59.40000 130.852
59.44000 135.551
59.48000 124.169
59.52000 129.142
59.56000 142.004
59.60000 127.848
59.64000 128.792
59.68000 135.451
59.72000 139.611
59.76000 139.912
59.80000 137.872
59.84000 136.560
59.88000 141.098
59.92000 136.740
59.96000 137.008
60.00000 131.670
60.04000 125.500
60.08000 130.231
60.12000 133.536
60.16000 132.985
60.20000 119.662
60.24000 119.313
60.28000 131.318
60.32000 124.974
60.36000 134.092
60.40000 121.734
60.44000 128.532
60.48000 137.235
60.52000 138.126
60.56000 130.981
60.60000 133.665
60.64000 126.654
60.68000 130.667
60.72000 137.164
60.76000 138.216
60.80000 138.042
60.84000 134.982
60.88000 141.850
60.92000 135.836
60.96000 141.854
61.00000 135.461
61.04000 139.787
61.08000 138.410
61.12000 135.774
61.16000 134.945
61.20000 134.273
61.24000 125.193
61.28000 143.118
61.32000 138.990
61.36000 128.532
61.40000 139.598
61.44000 140.697
61.48000 141.441
61.52000 168.360
61.56000 229.270
61.60000 259.774
61.64000 311.229
61.68000 300.316
61.72000 295.898
61.76000 273.917
61.80000 246.761
61.84000 192.116
61.88000 148.506
61.92000 144.207
61.96000 152.117
62.00000 144.185
62.04000 130.699
62.08000 144.256
62.12000 140.734
62.16000 145.030
62.20000 141.093
62.24000 144.736
62.28000 142.507
62.32000 143.913
62.36000 147.528
62.40000 131.283
62.44000 141.227
62.48000 143.816
62.52000 143.141
62.56000 148.221
62.60000 149.136
62.64000 142.185
62.68000 143.914
62.72000 149.861
62.76000 147.933
62.80000 143.766
62.84000 149.227
62.88000 150.769
62.92000 150.458
62.96000 151.795
63.00000 149.726
63.04000 145.413
63.08000 151.128
63.12000 152.452
63.16000 146.671
63.20000 154.585
63.24000 138.817
63.28000 148.654
63.32000 146.226
63.36000 155.685
63.40000 146.563
63.44000 144.173
63.48000 148.043
63.52000 148.363
63.56000 159.774
63.60000 157.005
63.64000 153.699
63.68000 157.962
63.72000 156.606
63.76000 153.895
63.80000 148.909
63.84000 157.270
63.88000 161.514
63.92000 151.134
63.96000 168.484
64.00000 162.046
64.04000 151.459
64.08000 170.020
64.12000 159.647
64.16000 156.202
64.20000 162.673
64.24000 157.481
64.28000 161.604
64.32000 158.736
64.36000 165.924
64.40000 176.013
64.44000 161.513
64.48000 159.041
64.52000 167.344
64.56000 167.278
64.60000 176.154
64.64000 174.742
64.68000 176.398
64.72000 176.642
64.76000 170.567
64.80000 177.730
64.84000 194.342
64.88000 187.764
64.92000 197.368
64.96000 202.479
65.00000 194.076
65.04000 201.683
65.08000 211.099
65.12000 230.853
65.16000 211.336
65.20000 233.944
65.24000 245.014
65.28000 257.375
65.32000 276.696
65.36000 302.930
65.40000 332.739
65.44000 342.501
65.48000 388.847
65.52000 412.044
65.56000 412.773
65.60000 451.423
65.64000 502.151
65.68000 547.541
65.72000 718.467
65.76000 939.590
65.80000 1121.430
65.84000 1244.196
65.88000 1269.619
65.92000 1221.902
65.96000 1074.519
66.00000 739.419
66.04000 493.719
66.08000 398.089
66.12000 354.650
66.16000 338.392
66.20000 343.258
66.24000 336.421
66.28000 368.124
66.32000 425.070
66.36000 466.357
66.40000 491.009
66.44000 486.449
66.48000 494.859
66.52000 423.513
66.56000 369.144
66.60000 355.271
66.64000 338.840
66.68000 310.428
66.72000 319.545
66.76000 341.763
66.80000 321.406
66.84000 336.585
66.88000 341.729
66.92000 336.936
66.96000 342.132
67.00000 344.837
67.04000 356.367
67.08000 350.433
67.12000 377.556
67.16000 389.283
67.20000 379.070
67.24000 390.667
67.28000 397.468
67.32000 402.287
67.36000 409.754
67.40000 415.065
67.44000 440.121
67.48000 444.295
67.52000 433.786
67.56000 453.285
67.60000 448.477
67.64000 468.991
67.68000 483.602
67.72000 483.870
67.76000 497.554
67.80000 502.386
67.84000 531.570
67.88000 530.248
67.92000 532.081
67.96000 546.807
68.00000 578.193
68.04000 554.039
68.08000 597.347
68.12000 596.431
68.16000 596.674
68.20000 615.361
68.24000 656.833
68.28000 663.119
68.32000 673.072
68.36000 715.177
68.40000 735.573
68.44000 760.728
68.48000 805.512
68.52000 885.491
68.56000 928.295
68.60000 1072.204
68.64000 1258.761
68.68000 1488.678
68.72000 1747.338
68.76000 2026.668
68.80000 2294.306
68.84000 2745.789
68.88000 3745.417
68.92000 6904.494
68.96000 16408.381
69.00000 36103.945
69.04000 56706.535
69.08000 66789.609
69.12000 69567.508
69.16000 72539.164
69.20000 71876.406
69.24000 59727.680
69.28000 45408.512
69.32000 37617.660
69.36000 33852.887
69.40000 27746.559
69.44000 16788.979
69.48000 7691.357
69.52000 3582.611
69.56000 2215.840
69.60000 1698.231
69.64000 1397.590
69.68000 1213.147
69.72000 1118.425
69.76000 1009.156
69.80000 925.230
69.84000 899.195
69.88000 826.515
69.92000 798.418
69.96000 766.338
70.00000 723.526