File: XRD/XRD/22-09-2025 Dep 2/XY Data/BTO_Mapping_Theta2Theta_22-09-2025_001_08_18-019_8-678.xy
20.00000 593.131
20.04000 586.728
20.08000 567.211
20.12000 540.918
20.16000 583.390
20.20000 586.212
20.24000 553.726
20.28000 569.761
20.32000 548.455
20.36000 565.049
20.40000 553.432
20.44000 563.323
20.48000 556.242
20.52000 527.170
20.56000 566.134
20.60000 562.439
20.64000 561.669
20.68000 557.703
20.72000 555.276
20.76000 567.073
20.80000 548.763
20.84000 560.823
20.88000 563.497
20.92000 546.183
20.96000 558.813
21.00000 570.503
21.04000 555.107
21.08000 549.843
21.12000 536.017
21.16000 546.153
21.20000 562.767
21.24000 575.118
21.28000 568.982
21.32000 555.538
21.36000 557.569
21.40000 530.138
21.44000 558.414
21.48000 540.261
21.52000 548.248
21.56000 566.895
21.60000 561.662
21.64000 554.715
21.68000 572.154
21.72000 560.900
21.76000 582.774
21.80000 604.375
21.84000 627.379
21.88000 613.381
21.92000 635.307
21.96000 682.700
22.00000 713.180
22.04000 708.580
22.08000 708.336
22.12000 777.825
22.16000 758.898
22.20000 707.161
22.24000 681.403
22.28000 669.348
22.32000 642.875
22.36000 641.363
22.40000 607.007
22.44000 579.165
22.48000 576.662
22.52000 550.120
22.56000 540.290
22.60000 530.668
22.64000 538.069
22.68000 532.387
22.72000 519.096
22.76000 521.838
22.80000 519.421
22.84000 541.278
22.88000 532.255
22.92000 535.741
22.96000 527.068
23.00000 501.792
23.04000 510.518
23.08000 529.271
23.12000 526.708
23.16000 498.171
23.20000 512.875
23.24000 517.526
23.28000 524.465
23.32000 522.409
23.36000 517.218
23.40000 505.740
23.44000 514.810
23.48000 509.186
23.52000 510.399
23.56000 486.264
23.60000 510.237
23.64000 516.279
23.68000 500.253
23.72000 514.222
23.76000 524.183
23.80000 516.581
23.84000 507.816
23.88000 529.643
23.92000 534.226
23.96000 517.994
24.00000 540.330
24.04000 521.181
24.08000 507.322
24.12000 525.418
24.16000 505.007
24.20000 531.979
24.24000 492.368
24.28000 497.671
24.32000 480.427
24.36000 491.215
24.40000 481.336
24.44000 501.895
24.48000 481.675
24.52000 504.057
24.56000 506.368
24.60000 501.802
24.64000 490.482
24.68000 471.533
24.72000 500.840
24.76000 486.948
24.80000 476.950
24.84000 501.552
24.88000 483.449
24.92000 475.698
24.96000 477.476
25.00000 501.181
25.04000 466.862
25.08000 467.026
25.12000 470.203
25.16000 471.520
25.20000 468.027
25.24000 462.651
25.28000 473.236
25.32000 474.417
25.36000 485.101
25.40000 469.081
25.44000 461.157
25.48000 464.814
25.52000 500.570
25.56000 449.487
25.60000 445.931
25.64000 446.194
25.68000 479.010
25.72000 492.566
25.76000 471.709
25.80000 459.995
25.84000 458.225
25.88000 449.107
25.92000 456.615
25.96000 474.180
26.00000 446.431
26.04000 474.737
26.08000 450.726
26.12000 471.016
26.16000 466.720
26.20000 443.399
26.24000 453.184
26.28000 449.035
26.32000 463.147
26.36000 461.417
26.40000 454.096
26.44000 455.430
26.48000 453.205
26.52000 452.618
26.56000 443.135
26.60000 455.778
26.64000 452.661
26.68000 458.607
26.72000 452.616
26.76000 445.443
26.80000 445.837
26.84000 440.248
26.88000 448.738
26.92000 437.724
26.96000 434.508
27.00000 435.521
27.04000 453.699
27.08000 439.812
27.12000 448.450
27.16000 458.588
27.20000 455.165
27.24000 437.573
27.28000 444.218
27.32000 440.017
27.36000 442.491
27.40000 435.565
27.44000 444.202
27.48000 449.587
27.52000 436.635
27.56000 421.228
27.60000 433.865
27.64000 450.888
27.68000 429.067
27.72000 452.962
27.76000 417.398
27.80000 415.446
27.84000 445.400
27.88000 422.789
27.92000 424.309
27.96000 444.820
28.00000 438.096
28.04000 432.858
28.08000 435.420
28.12000 422.966
28.16000 435.325
28.20000 428.928
28.24000 429.786
28.28000 420.925
28.32000 443.665
28.36000 443.692
28.40000 438.089
28.44000 452.889
28.48000 424.781
28.52000 429.325
28.56000 422.031
28.60000 422.966
28.64000 424.350
28.68000 436.122
28.72000 417.949
28.76000 438.923
28.80000 410.624
28.84000 425.202
28.88000 421.427
28.92000 421.356
28.96000 414.925
29.00000 430.315
29.04000 419.000
29.08000 419.971
29.12000 416.537
29.16000 409.599
29.20000 418.607
29.24000 423.923
29.28000 393.705
29.32000 426.089
29.36000 423.622
29.40000 416.163
29.44000 409.817
29.48000 411.000
29.52000 415.800
29.56000 409.541
29.60000 428.165
29.64000 422.679
29.68000 421.190
29.72000 443.919
29.76000 425.201
29.80000 405.007
29.84000 414.735
29.88000 427.200
29.92000 423.366
29.96000 460.667
30.00000 440.508
30.04000 453.938
30.08000 436.181
30.12000 445.320
30.16000 444.600
30.20000 430.262
30.24000 441.694
30.28000 437.831
30.32000 431.435
30.36000 431.427
30.40000 431.458
30.44000 422.464
30.48000 441.394
30.52000 438.520
30.56000 420.343
30.60000 429.236
30.64000 438.255
30.68000 456.723
30.72000 457.158
30.76000 470.422
30.80000 462.107
30.84000 465.391
30.88000 502.166
30.92000 512.111
30.96000 536.664
31.00000 574.563
31.04000 630.766
31.08000 723.436
31.12000 847.876
31.16000 1075.674
31.20000 1378.869
31.24000 1749.791
31.28000 2176.220
31.32000 2590.985
31.36000 2876.177
31.40000 3036.269
31.44000 2974.064
31.48000 2682.779
31.52000 2277.355
31.56000 1933.189
31.60000 1525.713
31.64000 1225.334
31.68000 1018.104
31.72000 797.864
31.76000 675.688
31.80000 629.303
31.84000 545.444
31.88000 518.449
31.92000 507.853
31.96000 463.224
32.00000 450.404
32.04000 427.722
32.08000 431.464
32.12000 401.185
32.16000 412.671
32.20000 418.419
32.24000 403.247
32.28000 421.720
32.32000 417.967
32.36000 392.236
32.40000 396.175
32.44000 412.795
32.48000 395.351
32.52000 407.846
32.56000 373.783
32.60000 407.465
32.64000 381.030
32.68000 377.124
32.72000 377.394
32.76000 377.082
32.80000 378.551
32.84000 401.637
32.88000 396.373
32.92000 400.703
32.96000 389.825
33.00000 373.396
33.04000 375.324
33.08000 383.159
33.12000 369.526
33.16000 349.544
33.20000 354.462
33.24000 345.590
33.28000 347.607
33.32000 363.024
33.36000 340.261
33.40000 357.590
33.44000 348.014
33.48000 350.099
33.52000 336.107
33.56000 330.194
33.60000 337.294
33.64000 339.872
33.68000 339.348
33.72000 336.575
33.76000 328.616
33.80000 332.570
33.84000 340.773
33.88000 326.794
33.92000 342.924
33.96000 339.941
34.00000 333.549
34.04000 329.619
34.08000 338.106
34.12000 339.111
34.16000 338.816
34.20000 344.603
34.24000 350.752
34.28000 328.666
34.32000 341.000
34.36000 334.436
34.40000 342.360
34.44000 326.042
34.48000 329.452
34.52000 347.362
34.56000 329.488
34.60000 325.469
34.64000 347.261
34.68000 313.813
34.72000 332.130
34.76000 337.037
34.80000 335.597
34.84000 338.561
34.88000 322.041
34.92000 337.427
34.96000 323.089
35.00000 324.538
35.04000 307.045
35.08000 318.299
35.12000 326.318
35.16000 306.906
35.20000 314.431
35.24000 318.183
35.28000 314.240
35.32000 303.906
35.36000 319.765
35.40000 310.369
35.44000 302.280
35.48000 306.821
35.52000 311.275
35.56000 316.694
35.60000 316.370
35.64000 305.773
35.68000 322.566
35.72000 310.006
35.76000 305.342
35.80000 300.977
35.84000 300.653
35.88000 303.746
35.92000 308.193
35.96000 304.670
36.00000 312.350
36.04000 301.528
36.08000 300.947
36.12000 300.798
36.16000 301.146
36.20000 305.788
36.24000 293.791
36.28000 302.561
36.32000 300.026
36.36000 297.937
36.40000 288.056
36.44000 298.384
36.48000 285.112
36.52000 305.656
36.56000 300.433
36.60000 295.860
36.64000 292.244
36.68000 294.584
36.72000 293.510
36.76000 294.738
36.80000 319.177
36.84000 287.168
36.88000 291.436
36.92000 317.034
36.96000 308.758
37.00000 318.135
37.04000 292.175
37.08000 289.771
37.12000 298.417
37.16000 302.729
37.20000 307.089
37.24000 298.211
37.28000 292.169
37.32000 306.058
37.36000 298.865
37.40000 298.904
37.44000 280.523
37.48000 307.949
37.52000 303.299
37.56000 295.807
37.60000 294.998
37.64000 287.658
37.68000 293.094
37.72000 304.065
37.76000 298.345
37.80000 297.336
37.84000 290.944
37.88000 299.976
37.92000 296.869
37.96000 309.907
38.00000 291.548
38.04000 284.957
38.08000 297.921
38.12000 305.562
38.16000 299.000
38.20000 310.259
38.24000 319.681
38.28000 316.922
38.32000 335.977
38.36000 346.353
38.40000 369.627
38.44000 392.800
38.48000 455.978
38.52000 485.207
38.56000 599.921
38.60000 684.914
38.64000 861.960
38.68000 970.391
38.72000 1004.548
38.76000 1045.708
38.80000 1041.080
38.84000 914.449
38.88000 780.209
38.92000 655.144
38.96000 554.612
39.00000 478.505
39.04000 389.399
39.08000 344.715
39.12000 321.981
39.16000 323.430
39.20000 299.654
39.24000 298.840
39.28000 280.836
39.32000 282.269
39.36000 276.683
39.40000 273.810
39.44000 287.949
39.48000 287.408
39.52000 267.956
39.56000 275.547
39.60000 265.702
39.64000 284.460
39.68000 279.918
39.72000 279.803
39.76000 263.553
39.80000 266.949
39.84000 270.389
39.88000 259.108
39.92000 267.045
39.96000 269.493
40.00000 261.781
40.04000 271.552
40.08000 256.267
40.12000 261.016
40.16000 268.953
40.20000 256.288
40.24000 270.421
40.28000 258.296
40.32000 254.806
40.36000 255.980
40.40000 269.924
40.44000 259.969
40.48000 253.709
40.52000 250.309
40.56000 253.139
40.60000 258.466
40.64000 271.788
40.68000 245.511
40.72000 256.268
40.76000 255.970
40.80000 253.711
40.84000 253.398
40.88000 255.418
40.92000 262.151
40.96000 246.720
41.00000 233.351
41.04000 248.249
41.08000 252.706
41.12000 241.327
41.16000 253.780
41.20000 245.770
41.24000 247.650
41.28000 247.070
41.32000 256.165
41.36000 241.696
41.40000 251.682
41.44000 243.308
41.48000 252.568
41.52000 234.551
41.56000 228.534
41.60000 237.915
41.64000 243.377
41.68000 238.248
41.72000 252.986
41.76000 246.871
41.80000 241.714
41.84000 258.855
41.88000 236.479
41.92000 238.617
41.96000 251.383
42.00000 243.562
42.04000 254.146
42.08000 253.133
42.12000 242.542
42.16000 240.300
42.20000 239.151
42.24000 246.316
42.28000 242.891
42.32000 239.391
42.36000 230.381
42.40000 254.108
42.44000 240.107
42.48000 245.279
42.52000 232.375
42.56000 237.968
42.60000 233.959
42.64000 224.752
42.68000 233.702
42.72000 240.040
42.76000 235.636
42.80000 234.654
42.84000 234.846
42.88000 246.604
42.92000 232.602
42.96000 238.671
43.00000 230.930
43.04000 224.204
43.08000 220.212
43.12000 232.039
43.16000 225.167
43.20000 222.702
43.24000 230.036
43.28000 226.168
43.32000 229.854
43.36000 226.139
43.40000 232.003
43.44000 220.194
43.48000 223.518
43.52000 221.023
43.56000 226.263
43.60000 226.777
43.64000 225.866
43.68000 222.815
43.72000 226.050
43.76000 214.260
43.80000 227.459
43.84000 224.845
43.88000 226.373
43.92000 236.309
43.96000 224.176
44.00000 220.176
44.04000 220.609
44.08000 227.534
44.12000 227.078
44.16000 230.496
44.20000 214.539
44.24000 225.843
44.28000 236.523
44.32000 222.002
44.36000 219.963
44.40000 242.162
44.44000 238.408
44.48000 229.216
44.52000 235.036
44.56000 227.269
44.60000 238.443
44.64000 248.239
44.68000 243.945
44.72000 253.842
44.76000 261.219
44.80000 250.404
44.84000 257.342
44.88000 283.209
44.92000 298.070
44.96000 302.307
45.00000 322.467
45.04000 331.505
45.08000 359.997
45.12000 367.639
45.16000 373.403
45.20000 363.945
45.24000 354.828
45.28000 341.815
45.32000 326.229
45.36000 323.741
45.40000 319.836
45.44000 310.812
45.48000 272.045
45.52000 287.865
45.56000 265.496
45.60000 264.933
45.64000 250.044
45.68000 255.158
45.72000 255.868
45.76000 243.481
45.80000 238.543
45.84000 232.858
45.88000 238.466
45.92000 228.233
45.96000 214.829
46.00000 222.605
46.04000 207.184
46.08000 206.486
46.12000 205.399
46.16000 217.970
46.20000 228.553
46.24000 214.500
46.28000 212.910
46.32000 209.983
46.36000 207.239
46.40000 208.206
46.44000 185.251
46.48000 199.999
46.52000 201.151
46.56000 201.990
46.60000 212.831
46.64000 218.060
46.68000 207.392
46.72000 197.606
46.76000 202.106
46.80000 209.424
46.84000 201.581
46.88000 192.899
46.92000 197.969
46.96000 199.208
47.00000 204.792
47.04000 178.957
47.08000 201.745
47.12000 188.077
47.16000 193.362
47.20000 187.641
47.24000 207.538
47.28000 204.648
47.32000 197.997
47.36000 189.695
47.40000 186.682
47.44000 192.045
47.48000 198.508
47.52000 177.829
47.56000 176.452
47.60000 200.885
47.64000 182.727
47.68000 186.691
47.72000 185.378
47.76000 181.814
47.80000 189.968
47.84000 178.964
47.88000 186.237
47.92000 181.663
47.96000 181.835
48.00000 179.946
48.04000 185.069
48.08000 184.857
48.12000 199.654
48.16000 184.620
48.20000 185.969
48.24000 178.457
48.28000 178.959
48.32000 182.158
48.36000 183.115
48.40000 189.947
48.44000 184.414
48.48000 180.504
48.52000 167.236
48.56000 179.769
48.60000 179.067
48.64000 179.516
48.68000 174.979
48.72000 177.818
48.76000 177.897
48.80000 182.875
48.84000 176.752
48.88000 180.363
48.92000 172.970
48.96000 175.454
49.00000 175.784
49.04000 179.207
49.08000 174.378
49.12000 179.145
49.16000 174.059
49.20000 169.652
49.24000 169.941
49.28000 187.174
49.32000 178.608
49.36000 187.636
49.40000 179.470
49.44000 178.938
49.48000 172.613
49.52000 176.736
49.56000 164.325
49.60000 174.966
49.64000 166.129
49.68000 171.570
49.72000 166.487
49.76000 171.998
49.80000 170.245
49.84000 173.051
49.88000 170.880
49.92000 170.926
49.96000 181.673
50.00000 184.325
50.04000 172.016
50.08000 162.149
50.12000 177.466
50.16000 183.052
50.20000 187.715
50.24000 184.029
50.28000 177.311
50.32000 174.827
50.36000 192.286
50.40000 182.982
50.44000 187.018
50.48000 204.484
50.52000 218.564
50.56000 226.641
50.60000 237.650
50.64000 246.161
50.68000 244.856
50.72000 245.606
50.76000 260.949
50.80000 258.930
50.84000 249.427
50.88000 250.583
50.92000 223.044
50.96000 220.578
51.00000 208.431
51.04000 204.973
51.08000 188.388
51.12000 194.802
51.16000 171.698
51.20000 179.244
51.24000 172.957
51.28000 176.357
51.32000 184.231
51.36000 181.981
51.40000 168.955
51.44000 168.067
51.48000 179.462
51.52000 163.129
51.56000 183.205
51.60000 173.028
51.64000 165.043
51.68000 158.170
51.72000 167.773
51.76000 163.751
51.80000 169.009
51.84000 172.640
51.88000 166.594
51.92000 159.619
51.96000 159.973
52.00000 161.639
52.04000 158.458
52.08000 162.817
52.12000 164.728
52.16000 170.416
52.20000 165.979
52.24000 167.596
52.28000 163.534
52.32000 154.183
52.36000 165.127
52.40000 153.619
52.44000 156.880
52.48000 159.332
52.52000 162.355
52.56000 166.641
52.60000 158.089
52.64000 164.250
52.68000 156.000
52.72000 148.149
52.76000 156.953
52.80000 165.982
52.84000 159.957
52.88000 151.796
52.92000 158.276
52.96000 156.903
53.00000 170.922
53.04000 153.250
53.08000 144.852
53.12000 150.502
53.16000 156.671
53.20000 170.359
53.24000 152.842
53.28000 163.315
53.32000 149.269
53.36000 161.274
53.40000 155.602
53.44000 171.862
53.48000 168.183
53.52000 160.930
53.56000 163.516
53.60000 151.687
53.64000 162.982
53.68000 158.691
53.72000 153.409
53.76000 154.470
53.80000 155.621
53.84000 167.954
53.88000 152.107
53.92000 151.376
53.96000 149.054
54.00000 156.443
54.04000 143.133
54.08000 156.649
54.12000 155.150
54.16000 162.880
54.20000 153.321
54.24000 153.536
54.28000 148.055
54.32000 146.809
54.36000 150.092
54.40000 155.411
54.44000 154.297
54.48000 158.967
54.52000 158.698
54.56000 152.189
54.60000 158.020
54.64000 156.803
54.68000 160.413
54.72000 159.233
54.76000 160.973
54.80000 157.576
54.84000 167.752
54.88000 161.601
54.92000 160.306
54.96000 155.693
55.00000 161.914
55.04000 165.551
55.08000 147.751
55.12000 165.502
55.16000 162.667
55.20000 156.450
55.24000 170.869
55.28000 172.930
55.32000 176.741
55.36000 174.479
55.40000 170.674
55.44000 182.338
55.48000 185.910
55.52000 193.001
55.56000 189.079
55.60000 214.812
55.64000 225.101
55.68000 242.095
55.72000 263.065
55.76000 301.674
55.80000 335.957
55.84000 397.795
55.88000 465.089
55.92000 489.488
55.96000 532.035
56.00000 542.912
56.04000 524.680
56.08000 497.401
56.12000 456.750
56.16000 401.102
56.20000 375.240
56.24000 329.956
56.28000 309.803
56.32000 262.682
56.36000 240.126
56.40000 222.361
56.44000 203.973
56.48000 202.085
56.52000 199.266
56.56000 189.279
56.60000 172.233
56.64000 166.176
56.68000 171.247
56.72000 157.705
56.76000 153.328
56.80000 159.024
56.84000 148.641
56.88000 161.932
56.92000 153.992
56.96000 141.671
57.00000 151.761
57.04000 146.960
57.08000 143.035
57.12000 153.313
57.16000 153.728
57.20000 139.359
57.24000 156.315
57.28000 142.151
57.32000 135.926
57.36000 138.636
57.40000 148.278
57.44000 145.580
57.48000 143.700
57.52000 142.795
57.56000 142.882
57.60000 132.021
57.64000 137.208
57.68000 135.948
57.72000 146.003
57.76000 142.144
57.80000 153.697
57.84000 139.227
57.88000 151.306
57.92000 149.574
57.96000 129.881
58.00000 128.717
58.04000 134.510
58.08000 149.355
58.12000 139.426
58.16000 140.365
58.20000 144.914
58.24000 137.541
58.28000 135.908
58.32000 132.573
58.36000 138.237
58.40000 134.107
58.44000 148.831
58.48000 141.907
58.52000 131.492
58.56000 137.595
58.60000 133.456
58.64000 128.939
58.68000 130.608
58.72000 128.928
58.76000 135.293
58.80000 146.470
58.84000 140.712
58.88000 132.529
58.92000 137.274
58.96000 134.494
59.00000 139.622
59.04000 134.848
59.08000 129.864
59.12000 117.020
59.16000 136.636
59.20000 132.820
59.24000 143.078
59.28000 141.882
59.32000 133.916
59.36000 134.323
59.40000 136.992
59.44000 139.600
59.48000 124.706
59.52000 141.370
59.56000 131.150
59.60000 119.539
59.64000 127.137
59.68000 124.829
59.72000 139.513
59.76000 128.747
59.80000 131.343
59.84000 129.259
59.88000 136.499
59.92000 135.798
59.96000 141.586
60.00000 135.153
60.04000 131.147
60.08000 134.311
60.12000 133.530
60.16000 133.214
60.20000 130.344
60.24000 135.581
60.28000 139.524
60.32000 121.889
60.36000 132.397
60.40000 140.189
60.44000 131.812
60.48000 131.702
60.52000 136.997
60.56000 135.970
60.60000 129.897
60.64000 144.816
60.68000 137.218
60.72000 132.622
60.76000 134.034
60.80000 128.448
60.84000 150.875
60.88000 130.975
60.92000 126.804
60.96000 129.341
61.00000 132.096
61.04000 130.498
61.08000 141.076
61.12000 137.170
61.16000 129.852
61.20000 133.423
61.24000 138.663
61.28000 141.255
61.32000 141.625
61.36000 132.491
61.40000 134.846
61.44000 134.016
61.48000 147.961
61.52000 158.755
61.56000 195.152
61.60000 251.028
61.64000 267.099
61.68000 286.573
61.72000 289.947
61.76000 268.646
61.80000 229.133
61.84000 187.855
61.88000 154.142
61.92000 145.668
61.96000 145.723
62.00000 139.902
62.04000 147.347
62.08000 138.203
62.12000 144.824
62.16000 135.934
62.20000 138.685
62.24000 134.387
62.28000 136.331
62.32000 135.018
62.36000 129.850
62.40000 136.345
62.44000 139.390
62.48000 137.594
62.52000 149.048
62.56000 140.219
62.60000 148.224
62.64000 145.510
62.68000 140.096
62.72000 159.750
62.76000 135.944
62.80000 145.840
62.84000 146.230
62.88000 137.313
62.92000 145.071
62.96000 146.041
63.00000 149.800
63.04000 145.334
63.08000 143.059
63.12000 149.042
63.16000 153.033
63.20000 154.078
63.24000 147.766
63.28000 157.358
63.32000 157.117
63.36000 152.549
63.40000 142.747
63.44000 152.894
63.48000 150.950
63.52000 153.436
63.56000 148.658
63.60000 145.099
63.64000 151.976
63.68000 152.984
63.72000 140.094
63.76000 160.119
63.80000 155.779
63.84000 165.154
63.88000 150.100
63.92000 150.197
63.96000 160.541
64.00000 163.776
64.04000 146.980
64.08000 150.661
64.12000 157.909
64.16000 169.802
64.20000 164.371
64.24000 154.188
64.28000 160.549
64.32000 166.668
64.36000 176.150
64.40000 165.233
64.44000 170.401
64.48000 163.241
64.52000 169.157
64.56000 169.927
64.60000 161.506
64.64000 165.760
64.68000 173.077
64.72000 180.642
64.76000 178.726
64.80000 172.159
64.84000 181.882
64.88000 180.230
64.92000 184.145
64.96000 188.554
65.00000 201.413
65.04000 202.655
65.08000 200.334
65.12000 196.476
65.16000 203.517
65.20000 208.802
65.24000 234.153
65.28000 242.833
65.32000 255.301
65.36000 268.070
65.40000 303.250
65.44000 315.039
65.48000 341.061
65.52000 366.627
65.56000 397.865
65.60000 422.821
65.64000 435.514
65.68000 515.740
65.72000 658.175
65.76000 853.644
65.80000 1023.896
65.84000 1122.248
65.88000 1145.932
65.92000 1101.137
65.96000 940.710
66.00000 646.191
66.04000 470.159
66.08000 367.457
66.12000 341.408
66.16000 316.972
66.20000 313.000
66.24000 332.022
66.28000 357.481
66.32000 401.667
66.36000 432.893
66.40000 440.972
66.44000 453.876
66.48000 418.769
66.52000 417.025
66.56000 363.286
66.60000 329.928
66.64000 329.169
66.68000 326.666
66.72000 324.046
66.76000 331.134
66.80000 336.178
66.84000 322.619
66.88000 334.220
66.92000 334.468
66.96000 343.418
67.00000 355.018
67.04000 349.931
67.08000 368.188
67.12000 355.261
67.16000 368.566
67.20000 376.331
67.24000 386.454
67.28000 397.983
67.32000 385.139
67.36000 387.009
67.40000 410.266
67.44000 419.804
67.48000 423.044
67.52000 409.055
67.56000 439.801
67.60000 435.350
67.64000 462.894
67.68000 451.706
67.72000 458.551
67.76000 473.390
67.80000 466.160
67.84000 478.766
67.88000 490.683
67.92000 508.182
67.96000 525.084
68.00000 546.344
68.04000 549.223
68.08000 548.614
68.12000 578.243
68.16000 590.479
68.20000 598.056
68.24000 625.311
68.28000 629.128
68.32000 657.192
68.36000 687.150
68.40000 694.952
68.44000 754.714
68.48000 783.357
68.52000 830.047
68.56000 881.508
68.60000 990.538
68.64000 1166.827
68.68000 1345.281
68.72000 1620.868
68.76000 1797.070
68.80000 2090.289
68.84000 2394.944
68.88000 3132.371
68.92000 5827.190
68.96000 14172.635
69.00000 31957.428
69.04000 50381.840
69.08000 59265.348
69.12000 61723.398
69.16000 64304.602
69.20000 63844.328
69.24000 53240.066
69.28000 40197.223
69.32000 33425.199
69.36000 30143.521
69.40000 24831.143
69.44000 14982.643
69.48000 6749.749
69.52000 3178.238
69.56000 2016.706
69.60000 1560.418
69.64000 1285.422
69.68000 1132.474
69.72000 1026.591
69.76000 936.670
69.80000 865.997
69.84000 819.080
69.88000 764.268
69.92000 714.675
69.96000 719.771
70.00000 699.904