File: XRD/XRD/22-09-2025 Dep 2/XY Data/BTO_Mapping_Theta2Theta_22-09-2025_001_68_18-019_-8-678.xy
20.00000 571.596
20.04000 562.795
20.08000 555.635
20.12000 584.179
20.16000 582.993
20.20000 557.170
20.24000 579.372
20.28000 579.537
20.32000 568.374
20.36000 566.360
20.40000 542.040
20.44000 574.179
20.48000 566.732
20.52000 563.690
20.56000 565.883
20.60000 563.472
20.64000 540.295
20.68000 566.021
20.72000 579.409
20.76000 554.444
20.80000 544.900
20.84000 567.036
20.88000 550.848
20.92000 556.670
20.96000 550.222
21.00000 552.573
21.04000 559.993
21.08000 571.547
21.12000 552.142
21.16000 564.011
21.20000 565.652
21.24000 563.994
21.28000 542.411
21.32000 560.930
21.36000 553.066
21.40000 550.077
21.44000 550.744
21.48000 554.423
21.52000 560.229
21.56000 544.335
21.60000 550.261
21.64000 577.000
21.68000 560.583
21.72000 578.831
21.76000 551.294
21.80000 583.537
21.84000 631.994
21.88000 628.615
21.92000 651.777
21.96000 663.771
22.00000 703.406
22.04000 707.997
22.08000 726.121
22.12000 737.619
22.16000 718.143
22.20000 719.823
22.24000 706.823
22.28000 689.109
22.32000 672.433
22.36000 626.310
22.40000 622.413
22.44000 604.853
22.48000 577.615
22.52000 565.133
22.56000 573.949
22.60000 555.418
22.64000 548.772
22.68000 531.402
22.72000 537.701
22.76000 538.561
22.80000 525.386
22.84000 513.854
22.88000 521.865
22.92000 535.027
22.96000 535.307
23.00000 502.942
23.04000 512.868
23.08000 531.124
23.12000 501.028
23.16000 508.912
23.20000 525.211
23.24000 505.720
23.28000 506.891
23.32000 508.594
23.36000 504.561
23.40000 510.322
23.44000 524.899
23.48000 523.228
23.52000 494.940
23.56000 502.333
23.60000 521.958
23.64000 524.236
23.68000 514.491
23.72000 521.168
23.76000 515.763
23.80000 533.312
23.84000 521.502
23.88000 529.270
23.92000 529.274
23.96000 534.003
24.00000 548.056
24.04000 540.623
24.08000 532.514
24.12000 542.202
24.16000 532.105
24.20000 505.801
24.24000 512.506
24.28000 516.869
24.32000 486.135
24.36000 495.708
24.40000 487.767
24.44000 496.744
24.48000 503.069
24.52000 505.603
24.56000 487.852
24.60000 493.375
24.64000 504.354
24.68000 497.545
24.72000 492.072
24.76000 478.937
24.80000 495.303
24.84000 494.196
24.88000 501.969
24.92000 482.583
24.96000 483.037
25.00000 482.289
25.04000 463.003
25.08000 484.501
25.12000 475.832
25.16000 483.110
25.20000 462.944
25.24000 461.076
25.28000 468.185
25.32000 474.873
25.36000 489.816
25.40000 469.969
25.44000 472.052
25.48000 461.581
25.52000 449.580
25.56000 463.530
25.60000 480.362
25.64000 473.488
25.68000 466.083
25.72000 476.962
25.76000 468.208
25.80000 458.698
25.84000 467.102
25.88000 479.924
25.92000 467.697
25.96000 454.009
26.00000 459.709
26.04000 441.245
26.08000 441.523
26.12000 458.205
26.16000 455.512
26.20000 457.125
26.24000 451.434
26.28000 453.676
26.32000 438.508
26.36000 457.491
26.40000 466.807
26.44000 457.798
26.48000 447.555
26.52000 464.485
26.56000 483.615
26.60000 445.085
26.64000 459.674
26.68000 467.252
26.72000 447.278
26.76000 455.365
26.80000 429.586
26.84000 423.870
26.88000 459.489
26.92000 459.242
26.96000 451.062
27.00000 431.924
27.04000 440.592
27.08000 436.669
27.12000 431.187
27.16000 443.998
27.20000 443.970
27.24000 455.757
27.28000 452.758
27.32000 456.739
27.36000 441.385
27.40000 442.604
27.44000 444.195
27.48000 434.839
27.52000 445.537
27.56000 443.272
27.60000 431.650
27.64000 443.234
27.68000 432.309
27.72000 443.130
27.76000 440.868
27.80000 428.321
27.84000 425.072
27.88000 430.581
27.92000 428.823
27.96000 451.032
28.00000 421.387
28.04000 448.707
28.08000 429.768
28.12000 430.324
28.16000 439.327
28.20000 430.388
28.24000 418.469
28.28000 424.195
28.32000 432.246
28.36000 458.788
28.40000 423.134
28.44000 421.207
28.48000 434.388
28.52000 422.940
28.56000 402.072
28.60000 421.798
28.64000 443.742
28.68000 429.955
28.72000 435.791
28.76000 431.600
28.80000 430.279
28.84000 427.282
28.88000 411.005
28.92000 426.083
28.96000 437.456
29.00000 419.505
29.04000 426.320
29.08000 417.102
29.12000 415.233
29.16000 424.123
29.20000 412.742
29.24000 406.696
29.28000 414.259
29.32000 400.937
29.36000 417.899
29.40000 379.964
29.44000 422.349
29.48000 413.810
29.52000 423.547
29.56000 407.494
29.60000 411.113
29.64000 411.858
29.68000 404.098
29.72000 412.595
29.76000 412.193
29.80000 399.577
29.84000 420.389
29.88000 430.421
29.92000 448.780
29.96000 439.047
30.00000 429.223
30.04000 452.102
30.08000 447.567
30.12000 438.335
30.16000 445.711
30.20000 424.467
30.24000 451.047
30.28000 436.281
30.32000 443.988
30.36000 427.699
30.40000 438.907
30.44000 427.358
30.48000 436.679
30.52000 447.587
30.56000 431.333
30.60000 437.298
30.64000 456.958
30.68000 451.759
30.72000 439.129
30.76000 469.166
30.80000 470.250
30.84000 474.311
30.88000 500.544
30.92000 515.643
30.96000 547.296
31.00000 569.858
31.04000 625.638
31.08000 730.776
31.12000 868.870
31.16000 1035.987
31.20000 1356.116
31.24000 1705.327
31.28000 2151.195
31.32000 2546.577
31.36000 2916.661
31.40000 3086.200
31.44000 3012.570
31.48000 2790.673
31.52000 2418.664
31.56000 1997.119
31.60000 1618.883
31.64000 1252.859
31.68000 1007.996
31.72000 809.293
31.76000 731.766
31.80000 645.336
31.84000 565.334
31.88000 524.235
31.92000 496.228
31.96000 478.345
32.00000 469.238
32.04000 442.067
32.08000 450.239
32.12000 422.710
32.16000 410.328
32.20000 407.837
32.24000 415.852
32.28000 400.159
32.32000 405.432
32.36000 401.018
32.40000 414.751
32.44000 402.874
32.48000 386.997
32.52000 391.834
32.56000 373.152
32.60000 368.832
32.64000 386.541
32.68000 392.946
32.72000 399.814
32.76000 386.971
32.80000 388.098
32.84000 413.882
32.88000 418.892
32.92000 432.306
32.96000 405.214
33.00000 401.943
33.04000 401.170
33.08000 390.042
33.12000 356.243
33.16000 358.443
33.20000 345.907
33.24000 351.232
33.28000 358.669
33.32000 329.933
33.36000 339.906
33.40000 330.931
33.44000 331.159
33.48000 359.023
33.52000 350.169
33.56000 348.234
33.60000 362.132
33.64000 342.408
33.68000 336.040
33.72000 353.029
33.76000 345.106
33.80000 348.946
33.84000 347.120
33.88000 353.402
33.92000 339.814
33.96000 347.693
34.00000 341.083
34.04000 349.288
34.08000 345.045
34.12000 343.855
34.16000 345.254
34.20000 347.485
34.24000 352.118
34.28000 340.461
34.32000 330.291
34.36000 348.881
34.40000 340.116
34.44000 342.473
34.48000 337.704
34.52000 320.025
34.56000 344.377
34.60000 345.525
34.64000 330.788
34.68000 337.234
34.72000 334.100
34.76000 341.169
34.80000 311.976
34.84000 328.727
34.88000 345.026
34.92000 311.673
34.96000 325.277
35.00000 330.339
35.04000 319.863
35.08000 320.379
35.12000 314.547
35.16000 328.242
35.20000 309.634
35.24000 323.851
35.28000 309.177
35.32000 318.876
35.36000 308.282
35.40000 302.491
35.44000 306.074
35.48000 313.991
35.52000 321.296
35.56000 306.810
35.60000 301.754
35.64000 313.966
35.68000 302.255
35.72000 310.123
35.76000 318.187
35.80000 298.012
35.84000 296.950
35.88000 299.471
35.92000 307.072
35.96000 313.582
36.00000 312.630
36.04000 301.739
36.08000 304.207
36.12000 301.747
36.16000 301.648
36.20000 303.285
36.24000 307.806
36.28000 298.519
36.32000 297.835
36.36000 302.279
36.40000 294.153
36.44000 297.644
36.48000 293.156
36.52000 288.078
36.56000 298.438
36.60000 295.140
36.64000 300.171
36.68000 295.721
36.72000 294.411
36.76000 298.632
36.80000 284.621
36.84000 287.643
36.88000 294.790
36.92000 292.600
36.96000 293.270
37.00000 303.246
37.04000 307.114
37.08000 312.429
37.12000 311.541
37.16000 301.270
37.20000 302.674
37.24000 308.274
37.28000 312.938
37.32000 311.950
37.36000 298.413
37.40000 289.548
37.44000 293.957
37.48000 286.279
37.52000 298.697
37.56000 292.206
37.60000 292.481
37.64000 297.492
37.68000 288.229
37.72000 294.526
37.76000 286.436
37.80000 297.513
37.84000 293.895
37.88000 295.527
37.92000 301.767
37.96000 291.444
38.00000 294.164
38.04000 300.483
38.08000 314.826
38.12000 307.021
38.16000 308.140
38.20000 306.363
38.24000 309.853
38.28000 322.266
38.32000 326.598
38.36000 342.525
38.40000 360.406
38.44000 395.174
38.48000 429.513
38.52000 479.650
38.56000 586.329
38.60000 714.226
38.64000 845.715
38.68000 967.652
38.72000 1043.855
38.76000 1054.606
38.80000 1041.617
38.84000 966.101
38.88000 838.635
38.92000 691.975
38.96000 580.839
39.00000 470.230
39.04000 414.647
39.08000 378.372
39.12000 327.097
39.16000 325.833
39.20000 326.915
39.24000 290.826
39.28000 293.916
39.32000 303.623
39.36000 280.534
39.40000 286.299
39.44000 260.283
39.48000 270.409
39.52000 282.191
39.56000 272.818
39.60000 281.443
39.64000 278.856
39.68000 274.037
39.72000 271.853
39.76000 268.343
39.80000 263.525
39.84000 282.428
39.88000 267.977
39.92000 251.627
39.96000 281.213
40.00000 272.252
40.04000 263.977
40.08000 263.046
40.12000 268.599
40.16000 271.885
40.20000 252.653
40.24000 254.144
40.28000 267.386
40.32000 278.933
40.36000 253.676
40.40000 268.989
40.44000 250.662
40.48000 253.041
40.52000 261.679
40.56000 263.921
40.60000 265.759
40.64000 259.417
40.68000 276.118
40.72000 246.968
40.76000 249.242
40.80000 259.229
40.84000 245.856
40.88000 252.943
40.92000 254.463
40.96000 253.590
41.00000 246.586
41.04000 244.835
41.08000 239.495
41.12000 248.681
41.16000 235.276
41.20000 253.618
41.24000 232.481
41.28000 259.871
41.32000 237.056
41.36000 248.416
41.40000 248.781
41.44000 240.012
41.48000 242.841
41.52000 252.595
41.56000 246.580
41.60000 259.223
41.64000 240.671
41.68000 235.165
41.72000 243.760
41.76000 244.518
41.80000 256.207
41.84000 246.007
41.88000 246.418
41.92000 243.893
41.96000 238.551
42.00000 234.417
42.04000 234.538
42.08000 233.013
42.12000 235.370
42.16000 236.522
42.20000 247.289
42.24000 235.680
42.28000 233.229
42.32000 230.554
42.36000 254.573
42.40000 237.390
42.44000 233.374
42.48000 241.063
42.52000 242.309
42.56000 244.084
42.60000 234.338
42.64000 225.420
42.68000 238.800
42.72000 238.601
42.76000 226.057
42.80000 229.620
42.84000 238.750
42.88000 252.579
42.92000 242.585
42.96000 243.078
43.00000 223.648
43.04000 231.686
43.08000 233.204
43.12000 229.079
43.16000 228.491
43.20000 237.221
43.24000 225.373
43.28000 231.496
43.32000 231.742
43.36000 225.199
43.40000 231.354
43.44000 223.404
43.48000 220.886
43.52000 227.559
43.56000 238.841
43.60000 217.780
43.64000 236.255
43.68000 238.496
43.72000 210.763
43.76000 221.054
43.80000 225.864
43.84000 214.182
43.88000 221.704
43.92000 227.253
43.96000 230.356
44.00000 221.219
44.04000 227.874
44.08000 235.437
44.12000 224.953
44.16000 212.443
44.20000 227.955
44.24000 230.009
44.28000 224.167
44.32000 225.485
44.36000 219.819
44.40000 218.072
44.44000 216.676
44.48000 229.851
44.52000 226.761
44.56000 232.310
44.60000 236.645
44.64000 234.504
44.68000 248.833
44.72000 262.095
44.76000 245.062
44.80000 270.656
44.84000 271.105
44.88000 287.764
44.92000 285.118
44.96000 317.855
45.00000 325.671
45.04000 341.794
45.08000 337.317
45.12000 355.287
45.16000 366.776
45.20000 365.871
45.24000 376.773
45.28000 347.043
45.32000 339.741
45.36000 321.107
45.40000 312.793
45.44000 301.665
45.48000 296.900
45.52000 300.116
45.56000 279.261
45.60000 270.449
45.64000 267.074
45.68000 262.587
45.72000 242.075
45.76000 233.301
45.80000 237.822
45.84000 239.319
45.88000 244.938
45.92000 227.392
45.96000 220.351
46.00000 218.314
46.04000 223.656
46.08000 215.342
46.12000 220.715
46.16000 203.714
46.20000 205.116
46.24000 216.020
46.28000 208.756
46.32000 211.398
46.36000 200.102
46.40000 205.316
46.44000 192.801
46.48000 202.086
46.52000 213.802
46.56000 206.666
46.60000 204.949
46.64000 204.525
46.68000 200.477
46.72000 212.170
46.76000 207.149
46.80000 201.525
46.84000 206.339
46.88000 196.968
46.92000 203.566
46.96000 201.355
47.00000 200.481
47.04000 206.116
47.08000 198.585
47.12000 186.743
47.16000 207.187
47.20000 186.440
47.24000 198.908
47.28000 196.959
47.32000 188.317
47.36000 185.858
47.40000 186.950
47.44000 182.789
47.48000 188.080
47.52000 196.092
47.56000 192.636
47.60000 169.939
47.64000 193.426
47.68000 184.273
47.72000 182.882
47.76000 176.219
47.80000 185.936
47.84000 172.556
47.88000 194.958
47.92000 185.336
47.96000 189.324
48.00000 191.143
48.04000 183.521
48.08000 181.706
48.12000 189.462
48.16000 187.113
48.20000 162.839
48.24000 170.074
48.28000 186.588
48.32000 188.174
48.36000 189.677
48.40000 190.360
48.44000 184.185
48.48000 173.037
48.52000 172.046
48.56000 188.947
48.60000 180.192
48.64000 186.207
48.68000 170.615
48.72000 170.696
48.76000 179.312
48.80000 178.055
48.84000 177.237
48.88000 184.785
48.92000 183.624
48.96000 180.523
49.00000 172.488
49.04000 194.341
49.08000 184.112
49.12000 165.988
49.16000 192.100
49.20000 171.971
49.24000 171.124
49.28000 181.895
49.32000 173.770
49.36000 178.203
49.40000 172.408
49.44000 179.716
49.48000 178.862
49.52000 175.289
49.56000 175.561
49.60000 176.873
49.64000 182.305
49.68000 177.909
49.72000 174.628
49.76000 161.280
49.80000 178.059
49.84000 179.142
49.88000 171.104
49.92000 164.168
49.96000 177.457
50.00000 179.557
50.04000 177.127
50.08000 175.804
50.12000 174.480
50.16000 165.862
50.20000 184.089
50.24000 176.233
50.28000 181.293
50.32000 173.331
50.36000 182.635
50.40000 185.539
50.44000 186.328
50.48000 203.099
50.52000 219.854
50.56000 210.452
50.60000 225.359
50.64000 233.206
50.68000 239.482
50.72000 247.462
50.76000 250.890
50.80000 256.359
50.84000 256.718
50.88000 242.503
50.92000 239.610
50.96000 222.162
51.00000 218.725
51.04000 194.449
51.08000 190.964
51.12000 189.982
51.16000 192.794
51.20000 190.842
51.24000 185.100
51.28000 184.442
51.32000 169.576
51.36000 181.186
51.40000 174.506
51.44000 168.690
51.48000 178.201
51.52000 173.208
51.56000 164.536
51.60000 170.353
51.64000 168.789
51.68000 161.865
51.72000 151.932
51.76000 164.473
51.80000 173.563
51.84000 156.749
51.88000 167.654
51.92000 154.383
51.96000 159.706
52.00000 158.057
52.04000 167.933
52.08000 166.543
52.12000 171.662
52.16000 163.047
52.20000 160.340
52.24000 155.217
52.28000 161.343
52.32000 154.647
52.36000 168.502
52.40000 173.713
52.44000 169.175
52.48000 160.781
52.52000 162.056
52.56000 154.306
52.60000 168.118
52.64000 158.142
52.68000 157.221
52.72000 158.580
52.76000 154.143
52.80000 169.829
52.84000 150.633
52.88000 164.078
52.92000 156.971
52.96000 150.301
53.00000 167.080
53.04000 168.168
53.08000 162.878
53.12000 164.328
53.16000 157.003
53.20000 157.794
53.24000 166.415
53.28000 164.009
53.32000 157.748
53.36000 166.647
53.40000 156.285
53.44000 159.681
53.48000 154.817
53.52000 161.806
53.56000 153.062
53.60000 159.339
53.64000 159.544
53.68000 151.230
53.72000 156.875
53.76000 166.614
53.80000 159.150
53.84000 157.343
53.88000 159.227
53.92000 148.385
53.96000 169.318
54.00000 169.843
54.04000 149.348
54.08000 152.727
54.12000 161.480
54.16000 151.268
54.20000 162.325
54.24000 151.201
54.28000 161.199
54.32000 162.080
54.36000 155.966
54.40000 154.745
54.44000 159.063
54.48000 151.675
54.52000 147.495
54.56000 149.981
54.60000 153.632
54.64000 158.830
54.68000 155.920
54.72000 160.822
54.76000 162.175
54.80000 155.927
54.84000 158.515
54.88000 154.578
54.92000 159.567
54.96000 160.525
55.00000 147.938
55.04000 154.245
55.08000 156.100
55.12000 156.330
55.16000 173.373
55.20000 165.530
55.24000 154.210
55.28000 160.581
55.32000 175.999
55.36000 166.512
55.40000 177.906
55.44000 179.182
55.48000 177.180
55.52000 194.675
55.56000 204.460
55.60000 220.770
55.64000 225.733
55.68000 244.056
55.72000 275.101
55.76000 304.341
55.80000 341.152
55.84000 394.003
55.88000 449.815
55.92000 465.429
55.96000 506.355
56.00000 530.852
56.04000 528.066
56.08000 493.125
56.12000 488.274
56.16000 423.511
56.20000 381.041
56.24000 335.648
56.28000 305.532
56.32000 270.324
56.36000 254.752
56.40000 239.838
56.44000 219.273
56.48000 194.402
56.52000 184.568
56.56000 187.758
56.60000 178.193
56.64000 179.392
56.68000 172.719
56.72000 177.649
56.76000 174.119
56.80000 167.354
56.84000 156.616
56.88000 145.542
56.92000 159.285
56.96000 142.452
57.00000 153.048
57.04000 143.183
57.08000 146.029
57.12000 144.887
57.16000 165.022
57.20000 144.921
57.24000 149.436
57.28000 143.419
57.32000 155.906
57.36000 129.770
57.40000 148.603
57.44000 148.064
57.48000 141.331
57.52000 152.405
57.56000 150.875
57.60000 147.219
57.64000 154.980
57.68000 140.973
57.72000 142.451
57.76000 133.678
57.80000 152.528
57.84000 146.104
57.88000 147.992
57.92000 138.782
57.96000 146.275
58.00000 133.438
58.04000 139.662
58.08000 147.767
58.12000 144.596
58.16000 135.414
58.20000 143.268
58.24000 132.006
58.28000 141.995
58.32000 151.808
58.36000 138.825
58.40000 138.526
58.44000 139.630
58.48000 147.801
58.52000 146.417
58.56000 146.450
58.60000 144.388
58.64000 141.067
58.68000 140.191
58.72000 139.223
58.76000 124.929
58.80000 144.914
58.84000 141.978
58.88000 133.323
58.92000 138.481
58.96000 140.909
59.00000 136.389
59.04000 131.178
59.08000 138.106
59.12000 135.064
59.16000 143.673
59.20000 137.094
59.24000 135.637
59.28000 136.868
59.32000 139.416
59.36000 134.369
59.40000 134.907
59.44000 131.638
59.48000 131.156
59.52000 128.136
59.56000 134.015
59.60000 137.416
59.64000 136.043
59.68000 137.518
59.72000 135.661
59.76000 141.277
59.80000 130.178
59.84000 136.489
59.88000 134.334
59.92000 134.599
59.96000 133.684
60.00000 147.108
60.04000 138.878
60.08000 133.035
60.12000 131.473
60.16000 131.802
60.20000 125.300
60.24000 139.623
60.28000 132.893
60.32000 137.715
60.36000 129.969
60.40000 120.844
60.44000 130.523
60.48000 134.712
60.52000 136.764
60.56000 140.879
60.60000 135.851
60.64000 121.590
60.68000 131.438
60.72000 128.013
60.76000 141.501
60.80000 142.796
60.84000 137.802
60.88000 131.896
60.92000 127.226
60.96000 142.172
61.00000 131.138
61.04000 138.194
61.08000 140.776
61.12000 138.457
61.16000 134.586
61.20000 125.717
61.24000 136.296
61.28000 136.615
61.32000 130.631
61.36000 147.954
61.40000 127.799
61.44000 137.579
61.48000 144.267
61.52000 161.188
61.56000 195.540
61.60000 225.090
61.64000 268.640
61.68000 286.437
61.72000 286.006
61.76000 272.949
61.80000 244.394
61.84000 178.171
61.88000 155.075
61.92000 154.698
61.96000 147.169
62.00000 139.495
62.04000 137.520
62.08000 130.867
62.12000 138.562
62.16000 137.646
62.20000 144.222
62.24000 141.715
62.28000 140.342
62.32000 139.042
62.36000 141.797
62.40000 148.567
62.44000 140.787
62.48000 149.973
62.52000 144.982
62.56000 143.980
62.60000 133.847
62.64000 147.332
62.68000 145.469
62.72000 145.131
62.76000 150.484
62.80000 147.619
62.84000 153.769
62.88000 147.176
62.92000 134.865
62.96000 149.460
63.00000 150.040
63.04000 155.739
63.08000 145.783
63.12000 146.060
63.16000 153.362
63.20000 146.902
63.24000 147.335
63.28000 153.295
63.32000 146.655
63.36000 144.893
63.40000 148.410
63.44000 149.834
63.48000 147.855
63.52000 140.481
63.56000 162.022
63.60000 147.225
63.64000 141.055
63.68000 150.378
63.72000 148.821
63.76000 143.730
63.80000 150.532
63.84000 147.908
63.88000 157.166
63.92000 159.981
63.96000 160.231
64.00000 160.953
64.04000 159.609
64.08000 148.663
64.12000 158.576
64.16000 161.851
64.20000 161.439
64.24000 164.982
64.28000 171.304
64.32000 171.050
64.36000 170.103
64.40000 174.511
64.44000 179.516
64.48000 171.943
64.52000 164.842
64.56000 170.240
64.60000 156.823
64.64000 161.194
64.68000 170.551
64.72000 181.042
64.76000 181.606
64.80000 184.472
64.84000 173.429
64.88000 183.275
64.92000 173.632
64.96000 184.093
65.00000 187.169
65.04000 200.659
65.08000 211.981
65.12000 214.686
65.16000 213.352
65.20000 217.910
65.24000 233.776
65.28000 244.000
65.32000 253.979
65.36000 263.652
65.40000 298.494
65.44000 321.454
65.48000 351.288
65.52000 363.327
65.56000 403.676
65.60000 406.413
65.64000 433.200
65.68000 507.648
65.72000 629.290
65.76000 830.952
65.80000 1013.613
65.84000 1110.338
65.88000 1143.898
65.92000 1125.297
65.96000 988.179
66.00000 711.179
66.04000 481.710
66.08000 385.836
66.12000 338.639
66.16000 326.247
66.20000 304.862
66.24000 324.235
66.28000 360.183
66.32000 376.970
66.36000 449.296
66.40000 453.658
66.44000 436.467
66.48000 443.009
66.52000 417.354
66.56000 362.831
66.60000 342.873
66.64000 319.097
66.68000 304.560
66.72000 331.993
66.76000 337.296
66.80000 334.315
66.84000 324.573
66.88000 317.742
66.92000 341.558
66.96000 340.846
67.00000 377.826
67.04000 366.089
67.08000 353.894
67.12000 364.664
67.16000 372.475
67.20000 380.625
67.24000 380.105
67.28000 374.776
67.32000 403.699
67.36000 386.911
67.40000 405.739
67.44000 409.401
67.48000 405.036
67.52000 434.415
67.56000 442.640
67.60000 436.335
67.64000 436.709
67.68000 461.573
67.72000 468.680
67.76000 482.116
67.80000 485.352
67.84000 501.242
67.88000 499.929
67.92000 515.236
67.96000 519.249
68.00000 541.802
68.04000 558.138
68.08000 564.393
68.12000 591.369
68.16000 582.001
68.20000 591.824
68.24000 588.488
68.28000 620.012
68.32000 638.468
68.36000 688.031
68.40000 687.783
68.44000 745.926
68.48000 780.996
68.52000 807.082
68.56000 906.109
68.60000 969.280
68.64000 1117.199
68.68000 1314.226
68.72000 1561.961
68.76000 1758.484
68.80000 1993.236
68.84000 2316.000
68.88000 3030.975
68.92000 5107.432
68.96000 12325.130
69.00000 28509.117
69.04000 47816.922
69.08000 58539.262
69.12000 60764.551
69.16000 63499.438
69.20000 64345.109
69.24000 54958.105
69.28000 41584.523
69.32000 34170.059
69.36000 30601.400
69.40000 25876.475
69.44000 16437.389
69.48000 7627.612
69.52000 3499.701
69.56000 2137.450
69.60000 1587.120
69.64000 1322.580
69.68000 1155.035
69.72000 1044.658
69.76000 941.776
69.80000 892.437
69.84000 832.806
69.88000 775.346
69.92000 729.898
69.96000 732.775
70.00000 696.139