File: XRD/XRD/22-09-2025 Dep 2/XY Data/BTO_Mapping_Theta2Theta_22-09-2025_001_15_24-940_31-273.xy
20.00000 569.261
20.04000 565.914
20.08000 551.737
20.12000 552.642
20.16000 558.508
20.20000 571.242
20.24000 576.985
20.28000 575.582
20.32000 566.892
20.36000 564.679
20.40000 557.860
20.44000 569.192
20.48000 572.103
20.52000 561.455
20.56000 566.057
20.60000 563.931
20.64000 574.076
20.68000 554.697
20.72000 539.982
20.76000 534.797
20.80000 549.146
20.84000 554.801
20.88000 547.700
20.92000 552.489
20.96000 565.762
21.00000 567.017
21.04000 544.945
21.08000 564.661
21.12000 570.882
21.16000 545.729
21.20000 548.089
21.24000 535.779
21.28000 561.745
21.32000 552.232
21.36000 560.445
21.40000 552.795
21.44000 553.281
21.48000 548.519
21.52000 546.470
21.56000 558.633
21.60000 544.096
21.64000 560.896
21.68000 556.211
21.72000 552.704
21.76000 596.109
21.80000 572.581
21.84000 564.988
21.88000 595.607
21.92000 605.623
21.96000 635.972
22.00000 670.423
22.04000 681.573
22.08000 695.504
22.12000 691.269
22.16000 687.086
22.20000 693.040
22.24000 676.383
22.28000 659.728
22.32000 616.707
22.36000 640.383
22.40000 597.841
22.44000 597.349
22.48000 574.905
22.52000 565.175
22.56000 550.086
22.60000 558.932
22.64000 547.963
22.68000 524.898
22.72000 548.313
22.76000 516.957
22.80000 518.491
22.84000 529.305
22.88000 535.684
22.92000 513.163
22.96000 523.275
23.00000 526.285
23.04000 518.025
23.08000 511.323
23.12000 500.494
23.16000 527.514
23.20000 513.945
23.24000 494.333
23.28000 513.746
23.32000 524.372
23.36000 502.241
23.40000 513.327
23.44000 520.930
23.48000 523.386
23.52000 516.049
23.56000 524.072
23.60000 504.453
23.64000 508.404
23.68000 530.558
23.72000 534.708
23.76000 509.780
23.80000 518.882
23.84000 543.650
23.88000 526.989
23.92000 520.153
23.96000 529.784
24.00000 536.248
24.04000 531.956
24.08000 518.331
24.12000 520.508
24.16000 523.527
24.20000 491.962
24.24000 513.677
24.28000 510.941
24.32000 493.542
24.36000 481.828
24.40000 499.787
24.44000 488.605
24.48000 501.326
24.52000 484.467
24.56000 497.708
24.60000 491.607
24.64000 492.921
24.68000 499.163
24.72000 498.085
24.76000 493.473
24.80000 485.220
24.84000 481.482
24.88000 481.990
24.92000 467.558
24.96000 485.575
25.00000 469.459
25.04000 480.657
25.08000 486.353
25.12000 489.186
25.16000 468.049
25.20000 473.579
25.24000 478.125
25.28000 479.759
25.32000 478.252
25.36000 485.607
25.40000 480.555
25.44000 489.593
25.48000 462.266
25.52000 465.017
25.56000 471.526
25.60000 467.369
25.64000 464.447
25.68000 464.916
25.72000 476.948
25.76000 481.297
25.80000 472.438
25.84000 446.752
25.88000 472.046
25.92000 449.618
25.96000 443.229
26.00000 483.937
26.04000 463.376
26.08000 464.582
26.12000 433.822
26.16000 468.986
26.20000 458.803
26.24000 465.702
26.28000 452.811
26.32000 461.937
26.36000 445.699
26.40000 451.948
26.44000 435.808
26.48000 437.372
26.52000 451.620
26.56000 466.569
26.60000 458.117
26.64000 450.476
26.68000 426.286
26.72000 462.508
26.76000 444.212
26.80000 456.866
26.84000 453.978
26.88000 457.227
26.92000 449.094
26.96000 436.641
27.00000 447.733
27.04000 436.879
27.08000 446.778
27.12000 448.317
27.16000 448.761
27.20000 445.046
27.24000 447.479
27.28000 462.545
27.32000 439.882
27.36000 444.731
27.40000 443.615
27.44000 445.226
27.48000 425.205
27.52000 441.470
27.56000 429.154
27.60000 432.073
27.64000 424.003
27.68000 419.439
27.72000 438.238
27.76000 443.827
27.80000 437.373
27.84000 429.656
27.88000 430.913
27.92000 426.812
27.96000 430.647
28.00000 427.141
28.04000 416.256
28.08000 445.715
28.12000 418.952
28.16000 439.940
28.20000 436.335
28.24000 405.521
28.28000 428.101
28.32000 433.560
28.36000 417.377
28.40000 434.978
28.44000 438.215
28.48000 417.303
28.52000 422.234
28.56000 414.570
28.60000 410.624
28.64000 420.729
28.68000 407.017
28.72000 424.892
28.76000 411.804
28.80000 416.436
28.84000 419.404
28.88000 405.446
28.92000 411.601
28.96000 409.929
29.00000 420.967
29.04000 411.956
29.08000 427.241
29.12000 403.729
29.16000 406.974
29.20000 410.081
29.24000 417.401
29.28000 438.785
29.32000 407.967
29.36000 412.859
29.40000 412.359
29.44000 404.224
29.48000 393.791
29.52000 425.469
29.56000 407.955
29.60000 408.294
29.64000 422.715
29.68000 414.698
29.72000 400.402
29.76000 408.751
29.80000 403.900
29.84000 427.566
29.88000 428.183
29.92000 414.195
29.96000 415.315
30.00000 424.058
30.04000 447.320
30.08000 429.728
30.12000 423.190
30.16000 421.667
30.20000 422.004
30.24000 424.289
30.28000 431.008
30.32000 420.797
30.36000 425.335
30.40000 421.352
30.44000 412.211
30.48000 426.431
30.52000 427.510
30.56000 437.785
30.60000 441.443
30.64000 453.393
30.68000 429.797
30.72000 430.081
30.76000 449.215
30.80000 460.813
30.84000 445.513
30.88000 458.415
30.92000 485.273
30.96000 514.988
31.00000 506.969
31.04000 550.823
31.08000 597.566
31.12000 710.924
31.16000 840.370
31.20000 994.903
31.24000 1228.556
31.28000 1568.601
31.32000 1871.360
31.36000 2131.482
31.40000 2301.307
31.44000 2307.300
31.48000 2220.825
31.52000 1959.495
31.56000 1670.344
31.60000 1392.519
31.64000 1140.218
31.68000 917.588
31.72000 792.764
31.76000 663.154
31.80000 584.690
31.84000 557.079
31.88000 507.343
31.92000 475.782
31.96000 469.287
32.00000 453.071
32.04000 461.232
32.08000 421.320
32.12000 412.418
32.16000 424.974
32.20000 397.133
32.24000 420.260
32.28000 404.741
32.32000 390.427
32.36000 395.183
32.40000 397.858
32.44000 374.287
32.48000 383.896
32.52000 381.887
32.56000 385.818
32.60000 387.492
32.64000 371.794
32.68000 382.326
32.72000 386.970
32.76000 382.266
32.80000 388.484
32.84000 393.423
32.88000 378.668
32.92000 376.430
32.96000 375.953
33.00000 378.603
33.04000 371.375
33.08000 349.017
33.12000 354.088
33.16000 357.412
33.20000 352.337
33.24000 351.129
33.28000 345.543
33.32000 352.336
33.36000 355.468
33.40000 343.840
33.44000 345.976
33.48000 346.424
33.52000 350.047
33.56000 345.444
33.60000 345.453
33.64000 335.676
33.68000 348.797
33.72000 331.269
33.76000 341.931
33.80000 334.001
33.84000 340.446
33.88000 336.033
33.92000 340.443
33.96000 337.073
34.00000 359.588
34.04000 331.567
34.08000 318.778
34.12000 337.009
34.16000 341.496
34.20000 358.094
34.24000 345.678
34.28000 334.377
34.32000 347.992
34.36000 345.860
34.40000 332.577
34.44000 337.410
34.48000 346.229
34.52000 342.719
34.56000 332.834
34.60000 338.765
34.64000 331.203
34.68000 322.899
34.72000 323.725
34.76000 328.204
34.80000 313.283
34.84000 327.720
34.88000 325.789
34.92000 315.937
34.96000 316.194
35.00000 321.611
35.04000 310.591
35.08000 319.545
35.12000 323.733
35.16000 309.039
35.20000 324.128
35.24000 316.677
35.28000 302.861
35.32000 308.481
35.36000 320.727
35.40000 304.549
35.44000 296.600
35.48000 304.011
35.52000 310.446
35.56000 310.331
35.60000 299.735
35.64000 321.178
35.68000 303.166
35.72000 311.090
35.76000 317.070
35.80000 306.463
35.84000 308.163
35.88000 299.765
35.92000 309.072
35.96000 296.648
36.00000 306.701
36.04000 293.349
36.08000 290.607
36.12000 312.937
36.16000 310.684
36.20000 299.492
36.24000 288.109
36.28000 298.690
36.32000 311.620
36.36000 302.884
36.40000 296.021
36.44000 294.700
36.48000 284.837
36.52000 284.096
36.56000 300.405
36.60000 320.269
36.64000 292.546
36.68000 285.380
36.72000 294.266
36.76000 294.651
36.80000 298.988
36.84000 297.009
36.88000 306.644
36.92000 289.310
36.96000 295.958
37.00000 310.702
37.04000 314.651
37.08000 309.609
37.12000 287.708
37.16000 306.172
37.20000 300.423
37.24000 290.155
37.28000 309.029
37.32000 288.452
37.36000 298.813
37.40000 294.926
37.44000 292.446
37.48000 305.950
37.52000 312.599
37.56000 290.018
37.60000 286.927
37.64000 292.366
37.68000 292.124
37.72000 291.152
37.76000 298.708
37.80000 290.640
37.84000 288.528
37.88000 289.447
37.92000 295.118
37.96000 276.971
38.00000 296.534
38.04000 276.893
38.08000 291.895
38.12000 293.348
38.16000 297.831
38.20000 303.110
38.24000 313.537
38.28000 310.128
38.32000 314.105
38.36000 327.421
38.40000 350.280
38.44000 366.270
38.48000 398.545
38.52000 448.319
38.56000 514.682
38.60000 646.317
38.64000 773.149
38.68000 877.948
38.72000 984.376
38.76000 1051.300
38.80000 1055.525
38.84000 955.771
38.88000 842.718
38.92000 729.812
38.96000 615.725
39.00000 500.440
39.04000 440.183
39.08000 382.734
39.12000 351.820
39.16000 322.353
39.20000 308.074
39.24000 294.192
39.28000 286.596
39.32000 286.838
39.36000 284.025
39.40000 275.510
39.44000 280.442
39.48000 270.217
39.52000 268.572
39.56000 267.771
39.60000 268.186
39.64000 283.103
39.68000 277.291
39.72000 279.849
39.76000 262.164
39.80000 276.797
39.84000 285.153
39.88000 276.164
39.92000 270.583
39.96000 257.141
40.00000 248.723
40.04000 266.215
40.08000 268.575
40.12000 262.519
40.16000 261.942
40.20000 266.433
40.24000 264.807
40.28000 253.945
40.32000 264.475
40.36000 249.953
40.40000 263.300
40.44000 265.910
40.48000 244.909
40.52000 252.198
40.56000 260.156
40.60000 257.722
40.64000 253.831
40.68000 247.591
40.72000 245.545
40.76000 260.388
40.80000 254.477
40.84000 250.561
40.88000 257.724
40.92000 249.836
40.96000 256.209
41.00000 252.350
41.04000 251.036
41.08000 233.251
41.12000 246.031
41.16000 251.363
41.20000 244.428
41.24000 241.667
41.28000 249.766
41.32000 246.106
41.36000 237.369
41.40000 253.485
41.44000 248.143
41.48000 240.924
41.52000 242.671
41.56000 242.573
41.60000 254.339
41.64000 233.173
41.68000 254.945
41.72000 246.286
41.76000 234.686
41.80000 238.984
41.84000 244.207
41.88000 233.503
41.92000 234.365
41.96000 236.851
42.00000 234.790
42.04000 256.385
42.08000 243.519
42.12000 237.985
42.16000 231.913
42.20000 246.153
42.24000 235.476
42.28000 242.651
42.32000 234.454
42.36000 239.075
42.40000 237.904
42.44000 229.570
42.48000 233.158
42.52000 243.259
42.56000 223.052
42.60000 231.831
42.64000 226.717
42.68000 218.398
42.72000 227.450
42.76000 232.948
42.80000 227.491
42.84000 227.104
42.88000 230.419
42.92000 229.572
42.96000 234.789
43.00000 240.439
43.04000 231.560
43.08000 215.942
43.12000 217.490
43.16000 222.775
43.20000 221.268
43.24000 224.736
43.28000 217.540
43.32000 227.028
43.36000 235.627
43.40000 239.124
43.44000 218.626
43.48000 231.728
43.52000 215.376
43.56000 235.033
43.60000 235.804
43.64000 226.407
43.68000 237.789
43.72000 215.107
43.76000 222.578
43.80000 229.975
43.84000 236.833
43.88000 228.512
43.92000 237.025
43.96000 217.832
44.00000 223.003
44.04000 225.526
44.08000 216.939
44.12000 230.809
44.16000 218.210
44.20000 222.843
44.24000 212.276
44.28000 226.343
44.32000 218.338
44.36000 220.446
44.40000 227.653
44.44000 231.278
44.48000 234.851
44.52000 232.843
44.56000 218.809
44.60000 230.593
44.64000 238.005
44.68000 240.340
44.72000 247.328
44.76000 239.559
44.80000 258.574
44.84000 252.625
44.88000 268.144
44.92000 262.951
44.96000 260.861
45.00000 298.322
45.04000 321.162
45.08000 306.985
45.12000 324.446
45.16000 325.746
45.20000 324.796
45.24000 327.351
45.28000 312.349
45.32000 311.572
45.36000 300.292
45.40000 289.114
45.44000 271.846
45.48000 276.209
45.52000 271.652
45.56000 273.407
45.60000 259.196
45.64000 261.952
45.68000 253.167
45.72000 261.014
45.76000 252.201
45.80000 253.872
45.84000 230.227
45.88000 224.083
45.92000 231.977
45.96000 226.471
46.00000 222.542
46.04000 213.609
46.08000 207.251
46.12000 201.726
46.16000 198.954
46.20000 203.059
46.24000 211.776
46.28000 199.629
46.32000 215.832
46.36000 201.949
46.40000 200.489
46.44000 183.671
46.48000 200.551
46.52000 204.225
46.56000 208.265
46.60000 198.732
46.64000 203.215
46.68000 200.622
46.72000 201.415
46.76000 209.551
46.80000 198.882
46.84000 200.249
46.88000 208.219
46.92000 206.024
46.96000 187.047
47.00000 207.342
47.04000 213.266
47.08000 190.868
47.12000 190.886
47.16000 199.945
47.20000 197.804
47.24000 184.611
47.28000 199.096
47.32000 197.159
47.36000 186.190
47.40000 197.680
47.44000 175.612
47.48000 189.585
47.52000 183.880
47.56000 183.808
47.60000 187.062
47.64000 185.869
47.68000 197.025
47.72000 180.286
47.76000 176.618
47.80000 185.619
47.84000 188.238
47.88000 188.193
47.92000 180.249
47.96000 190.773
48.00000 201.329
48.04000 192.541
48.08000 198.752
48.12000 188.452
48.16000 189.934
48.20000 184.595
48.24000 192.705
48.28000 198.383
48.32000 193.909
48.36000 191.413
48.40000 187.347
48.44000 183.683
48.48000 190.124
48.52000 183.127
48.56000 185.166
48.60000 181.235
48.64000 185.836
48.68000 174.284
48.72000 186.013
48.76000 175.376
48.80000 161.342
48.84000 183.240
48.88000 182.320
48.92000 174.515
48.96000 178.770
49.00000 178.559
49.04000 177.402
49.08000 178.559
49.12000 177.583
49.16000 172.682
49.20000 175.753
49.24000 161.014
49.28000 178.737
49.32000 179.862
49.36000 182.232
49.40000 180.612
49.44000 166.830
49.48000 165.987
49.52000 179.460
49.56000 181.904
49.60000 172.818
49.64000 169.733
49.68000 166.946
49.72000 175.934
49.76000 180.385
49.80000 176.312
49.84000 178.382
49.88000 169.103
49.92000 170.785
49.96000 181.998
50.00000 169.719
50.04000 163.117
50.08000 165.118
50.12000 168.405
50.16000 183.793
50.20000 169.215
50.24000 175.243
50.28000 179.188
50.32000 173.870
50.36000 183.953
50.40000 186.587
50.44000 183.324
50.48000 188.100
50.52000 203.000
50.56000 221.242
50.60000 211.245
50.64000 225.100
50.68000 229.687
50.72000 249.645
50.76000 242.497
50.80000 241.277
50.84000 249.019
50.88000 240.861
50.92000 236.323
50.96000 223.729
51.00000 198.198
51.04000 215.739
51.08000 202.052
51.12000 185.364
51.16000 188.155
51.20000 183.313
51.24000 187.513
51.28000 181.083
51.32000 168.121
51.36000 166.187
51.40000 169.878
51.44000 175.691
51.48000 171.971
51.52000 175.523
51.56000 160.023
51.60000 169.600
51.64000 165.009
51.68000 171.445
51.72000 168.014
51.76000 170.093
51.80000 160.318
51.84000 168.399
51.88000 165.934
51.92000 159.461
51.96000 179.489
52.00000 161.484
52.04000 155.262
52.08000 163.762
52.12000 158.411
52.16000 157.777
52.20000 161.031
52.24000 151.902
52.28000 149.512
52.32000 151.021
52.36000 162.425
52.40000 154.141
52.44000 160.644
52.48000 162.106
52.52000 163.305
52.56000 160.292
52.60000 166.815
52.64000 163.576
52.68000 152.167
52.72000 171.952
52.76000 166.850
52.80000 164.786
52.84000 154.624
52.88000 165.519
52.92000 158.066
52.96000 160.505
53.00000 156.138
53.04000 156.531
53.08000 159.869
53.12000 145.622
53.16000 156.959
53.20000 158.985
53.24000 152.174
53.28000 161.450
53.32000 167.859
53.36000 153.980
53.40000 154.156
53.44000 159.691
53.48000 158.084
53.52000 153.632
53.56000 162.624
53.60000 162.542
53.64000 163.286
53.68000 161.177
53.72000 164.621
53.76000 152.510
53.80000 155.228
53.84000 159.281
53.88000 155.188
53.92000 157.106
53.96000 149.812
54.00000 152.640
54.04000 145.345
54.08000 160.601
54.12000 166.546
54.16000 157.069
54.20000 149.923
54.24000 159.255
54.28000 148.783
54.32000 151.354
54.36000 169.722
54.40000 154.575
54.44000 161.982
54.48000 149.152
54.52000 155.497
54.56000 156.484
54.60000 157.560
54.64000 149.668
54.68000 156.773
54.72000 165.819
54.76000 163.515
54.80000 154.275
54.84000 157.712
54.88000 150.958
54.92000 160.609
54.96000 160.755
55.00000 156.416
55.04000 162.766
55.08000 155.451
55.12000 163.012
55.16000 160.167
55.20000 157.073
55.24000 162.444
55.28000 155.578
55.32000 167.897
55.36000 168.325
55.40000 155.448
55.44000 172.875
55.48000 177.861
55.52000 185.234
55.56000 196.699
55.60000 203.204
55.64000 215.167
55.68000 234.599
55.72000 243.361
55.76000 280.206
55.80000 310.686
55.84000 366.218
55.88000 438.294
55.92000 475.166
55.96000 523.811
56.00000 564.007
56.04000 549.329
56.08000 560.487
56.12000 527.342
56.16000 482.057
56.20000 444.599
56.24000 403.739
56.28000 343.051
56.32000 288.947
56.36000 272.724
56.40000 251.179
56.44000 228.100
56.48000 210.216
56.52000 190.790
56.56000 183.758
56.60000 170.937
56.64000 166.812
56.68000 155.242
56.72000 162.193
56.76000 174.293
56.80000 156.415
56.84000 153.953
56.88000 161.252
56.92000 160.280
56.96000 147.574
57.00000 145.265
57.04000 142.911
57.08000 151.940
57.12000 151.200
57.16000 149.446
57.20000 145.846
57.24000 144.132
57.28000 157.001
57.32000 145.582
57.36000 141.979
57.40000 139.860
57.44000 140.952
57.48000 147.614
57.52000 151.010
57.56000 142.042
57.60000 142.357
57.64000 145.682
57.68000 137.660
57.72000 140.212
57.76000 141.309
57.80000 145.991
57.84000 145.988
57.88000 141.698
57.92000 147.291
57.96000 142.379
58.00000 148.392
58.04000 135.733
58.08000 143.025
58.12000 132.831
58.16000 136.478
58.20000 137.788
58.24000 137.050
58.28000 139.442
58.32000 138.982
58.36000 136.079
58.40000 133.687
58.44000 135.651
58.48000 125.939
58.52000 129.469
58.56000 142.156
58.60000 134.747
58.64000 127.215
58.68000 135.182
58.72000 144.970
58.76000 146.727
58.80000 148.933
58.84000 127.918
58.88000 142.958
58.92000 125.252
58.96000 133.185
59.00000 135.019
59.04000 136.529
59.08000 131.572
59.12000 132.296
59.16000 135.020
59.20000 135.774
59.24000 135.060
59.28000 138.689
59.32000 131.218
59.36000 126.870
59.40000 135.055
59.44000 137.675
59.48000 136.797
59.52000 140.459
59.56000 138.285
59.60000 135.025
59.64000 139.581
59.68000 136.983
59.72000 127.729
59.76000 136.494
59.80000 126.230
59.84000 136.601
59.88000 131.089
59.92000 120.460
59.96000 137.058
60.00000 133.574
60.04000 139.658
60.08000 132.931
60.12000 131.524
60.16000 129.840
60.20000 131.760
60.24000 127.968
60.28000 131.901
60.32000 132.920
60.36000 131.807
60.40000 124.745
60.44000 138.943
60.48000 138.050
60.52000 135.377
60.56000 135.146
60.60000 139.355
60.64000 130.062
60.68000 131.434
60.72000 140.489
60.76000 133.990
60.80000 145.662
60.84000 127.116
60.88000 130.560
60.92000 132.884
60.96000 135.112
61.00000 139.672
61.04000 131.985
61.08000 130.363
61.12000 142.859
61.16000 129.511
61.20000 137.424
61.24000 130.283
61.28000 132.936
61.32000 137.374
61.36000 130.003
61.40000 148.544
61.44000 134.937
61.48000 148.582
61.52000 164.995
61.56000 199.933
61.60000 243.312
61.64000 262.045
61.68000 275.081
61.72000 273.935
61.76000 257.505
61.80000 217.570
61.84000 174.804
61.88000 155.523
61.92000 139.649
61.96000 137.594
62.00000 146.860
62.04000 139.189
62.08000 149.428
62.12000 149.347
62.16000 141.493
62.20000 151.603
62.24000 141.340
62.28000 140.062
62.32000 136.554
62.36000 141.177
62.40000 139.473
62.44000 138.240
62.48000 143.947
62.52000 146.482
62.56000 138.162
62.60000 139.024
62.64000 144.014
62.68000 139.725
62.72000 142.406
62.76000 140.789
62.80000 142.092
62.84000 147.074
62.88000 145.171
62.92000 139.272
62.96000 150.980
63.00000 147.211
63.04000 142.551
63.08000 131.198
63.12000 147.813
63.16000 138.510
63.20000 137.777
63.24000 144.116
63.28000 137.929
63.32000 142.385
63.36000 141.418
63.40000 143.402
63.44000 143.075
63.48000 142.497
63.52000 141.589
63.56000 156.686
63.60000 158.004
63.64000 151.601
63.68000 146.666
63.72000 146.262
63.76000 144.960
63.80000 154.962
63.84000 147.976
63.88000 151.130
63.92000 158.427
63.96000 151.445
64.00000 152.252
64.04000 150.645
64.08000 160.847
64.12000 147.822
64.16000 158.195
64.20000 160.065
64.24000 155.294
64.28000 158.629
64.32000 164.912
64.36000 157.170
64.40000 153.397
64.44000 162.712
64.48000 158.614
64.52000 168.801
64.56000 160.972
64.60000 170.322
64.64000 170.029
64.68000 168.519
64.72000 175.838
64.76000 165.301
64.80000 158.803
64.84000 173.147
64.88000 180.403
64.92000 181.731
64.96000 189.602
65.00000 191.728
65.04000 187.075
65.08000 199.533
65.12000 201.680
65.16000 209.734
65.20000 201.392
65.24000 205.720
65.28000 223.577
65.32000 240.098
65.36000 232.633
65.40000 245.618
65.44000 275.429
65.48000 314.773
65.52000 320.889
65.56000 337.102
65.60000 363.124
65.64000 388.676
65.68000 445.364
65.72000 584.942
65.76000 779.114
65.80000 978.208
65.84000 1062.325
65.88000 1066.134
65.92000 1038.833
65.96000 946.603
66.00000 677.214
66.04000 462.418
66.08000 362.302
66.12000 312.526
66.16000 310.821
66.20000 317.199
66.24000 318.134
66.28000 330.488
66.32000 396.690
66.36000 420.370
66.40000 420.220
66.44000 450.779
66.48000 454.356
66.52000 407.927
66.56000 361.178
66.60000 333.603
66.64000 309.178
66.68000 307.896
66.72000 311.485
66.76000 327.750
66.80000 314.571
66.84000 327.976
66.88000 326.997
66.92000 339.737
66.96000 333.366
67.00000 344.593
67.04000 360.382
67.08000 358.393
67.12000 353.365
67.16000 373.064
67.20000 376.156
67.24000 366.890
67.28000 380.489
67.32000 383.597
67.36000 386.374
67.40000 402.539
67.44000 412.307
67.48000 426.557
67.52000 420.657
67.56000 435.270
67.60000 437.282
67.64000 446.361
67.68000 431.881
67.72000 449.990
67.76000 453.553
67.80000 467.405
67.84000 482.405
67.88000 490.879
67.92000 502.227
67.96000 519.203
68.00000 529.879
68.04000 518.020
68.08000 522.039
68.12000 568.562
68.16000 568.595
68.20000 579.685
68.24000 603.615
68.28000 638.573
68.32000 635.251
68.36000 671.988
68.40000 699.726
68.44000 728.577
68.48000 739.619
68.52000 802.440
68.56000 857.021
68.60000 960.696
68.64000 1138.069
68.68000 1293.107
68.72000 1533.224
68.76000 1726.593
68.80000 1960.140
68.84000 2298.124
68.88000 2910.569
68.92000 5180.733
68.96000 12614.005
69.00000 28809.352
69.04000 46581.281
69.08000 55582.348
69.12000 57636.750
69.16000 60368.371
69.20000 60235.191
69.24000 50668.430
69.28000 38145.402
69.32000 31482.293
69.36000 28556.623
69.40000 23856.148
69.44000 14620.806
69.48000 6684.896
69.52000 3034.409
69.56000 1924.817
69.60000 1492.320
69.64000 1256.732
69.68000 1102.081
69.72000 1035.203
69.76000 939.950
69.80000 852.746
69.84000 800.207
69.88000 738.693
69.92000 745.338
69.96000 686.210
70.00000 662.290