File: XRD/XRD/22-09-2025 Dep 2/XY Data/BTO_Mapping_Theta2Theta_22-09-2025_001_30_-24-940_31-273.xy
20.00000 561.213
20.04000 573.910
20.08000 578.524
20.12000 588.049
20.16000 579.270
20.20000 564.312
20.24000 570.556
20.28000 558.381
20.32000 543.153
20.36000 572.055
20.40000 582.609
20.44000 580.432
20.48000 560.242
20.52000 553.116
20.56000 550.866
20.60000 553.645
20.64000 558.437
20.68000 552.322
20.72000 562.793
20.76000 553.767
20.80000 545.733
20.84000 563.415
20.88000 556.350
20.92000 540.179
20.96000 564.123
21.00000 558.148
21.04000 555.291
21.08000 554.151
21.12000 555.751
21.16000 556.240
21.20000 551.190
21.24000 562.588
21.28000 564.695
21.32000 558.594
21.36000 555.848
21.40000 553.484
21.44000 548.410
21.48000 560.981
21.52000 552.477
21.56000 574.043
21.60000 580.505
21.64000 589.812
21.68000 600.142
21.72000 589.274
21.76000 619.422
21.80000 644.789
21.84000 672.509
21.88000 706.974
21.92000 757.676
21.96000 803.349
22.00000 830.273
22.04000 830.220
22.08000 821.657
22.12000 808.373
22.16000 775.537
22.20000 716.724
22.24000 680.770
22.28000 643.563
22.32000 641.351
22.36000 610.609
22.40000 591.448
22.44000 574.289
22.48000 576.993
22.52000 574.283
22.56000 541.507
22.60000 548.723
22.64000 510.704
22.68000 528.686
22.72000 518.599
22.76000 538.120
22.80000 512.997
22.84000 533.435
22.88000 532.640
22.92000 517.663
22.96000 524.635
23.00000 520.865
23.04000 526.222
23.08000 515.922
23.12000 496.403
23.16000 508.020
23.20000 504.555
23.24000 516.735
23.28000 502.336
23.32000 494.497
23.36000 530.030
23.40000 498.744
23.44000 510.699
23.48000 498.095
23.52000 520.288
23.56000 522.745
23.60000 496.560
23.64000 497.103
23.68000 526.934
23.72000 512.133
23.76000 505.080
23.80000 507.180
23.84000 519.371
23.88000 499.688
23.92000 509.818
23.96000 513.233
24.00000 493.410
24.04000 513.413
24.08000 492.382
24.12000 493.964
24.16000 501.167
24.20000 485.720
24.24000 510.845
24.28000 506.642
24.32000 493.934
24.36000 488.517
24.40000 494.410
24.44000 498.922
24.48000 491.860
24.52000 479.357
24.56000 491.367
24.60000 484.861
24.64000 478.510
24.68000 484.979
24.72000 485.358
24.76000 488.228
24.80000 483.527
24.84000 486.715
24.88000 477.758
24.92000 497.503
24.96000 482.968
25.00000 483.731
25.04000 491.043
25.08000 473.384
25.12000 495.496
25.16000 489.435
25.20000 478.771
25.24000 481.613
25.28000 483.929
25.32000 461.061
25.36000 475.780
25.40000 491.312
25.44000 488.053
25.48000 474.478
25.52000 470.548
25.56000 474.982
25.60000 476.579
25.64000 458.711
25.68000 466.632
25.72000 463.766
25.76000 472.470
25.80000 465.808
25.84000 483.047
25.88000 467.969
25.92000 463.079
25.96000 463.566
26.00000 479.292
26.04000 465.300
26.08000 480.352
26.12000 469.493
26.16000 462.913
26.20000 448.278
26.24000 458.117
26.28000 433.944
26.32000 453.988
26.36000 466.622
26.40000 465.336
26.44000 468.172
26.48000 455.296
26.52000 463.387
26.56000 457.874
26.60000 453.917
26.64000 464.016
26.68000 447.430
26.72000 446.258
26.76000 465.675
26.80000 469.397
26.84000 451.631
26.88000 454.558
26.92000 463.453
26.96000 455.490
27.00000 444.633
27.04000 454.376
27.08000 457.317
27.12000 445.568
27.16000 455.457
27.20000 451.108
27.24000 463.609
27.28000 442.728
27.32000 462.861
27.36000 438.959
27.40000 461.895
27.44000 439.028
27.48000 444.167
27.52000 451.766
27.56000 427.020
27.60000 422.703
27.64000 449.376
27.68000 436.706
27.72000 439.875
27.76000 430.698
27.80000 440.459
27.84000 431.823
27.88000 439.596
27.92000 442.826
27.96000 433.053
28.00000 447.559
28.04000 462.197
28.08000 454.806
28.12000 428.172
28.16000 450.091
28.20000 433.660
28.24000 444.503
28.28000 426.381
28.32000 457.258
28.36000 431.998
28.40000 431.032
28.44000 435.243
28.48000 465.345
28.52000 419.296
28.56000 427.404
28.60000 420.022
28.64000 422.422
28.68000 421.542
28.72000 433.509
28.76000 402.917
28.80000 429.236
28.84000 407.705
28.88000 408.036
28.92000 433.269
28.96000 423.659
29.00000 420.158
29.04000 419.420
29.08000 421.552
29.12000 421.724
29.16000 407.632
29.20000 427.748
29.24000 431.389
29.28000 410.356
29.32000 423.036
29.36000 411.964
29.40000 413.478
29.44000 414.049
29.48000 421.804
29.52000 404.563
29.56000 415.730
29.60000 425.281
29.64000 427.729
29.68000 415.741
29.72000 420.768
29.76000 405.904
29.80000 425.630
29.84000 434.555
29.88000 437.379
29.92000 442.881
29.96000 456.715
30.00000 469.718
30.04000 471.418
30.08000 444.521
30.12000 437.314
30.16000 453.095
30.20000 455.044
30.24000 443.160
30.28000 434.549
30.32000 437.451
30.36000 436.148
30.40000 427.093
30.44000 424.113
30.48000 425.632
30.52000 439.080
30.56000 446.116
30.60000 450.506
30.64000 455.947
30.68000 459.824
30.72000 467.899
30.76000 486.185
30.80000 471.267
30.84000 474.379
30.88000 511.620
30.92000 520.466
30.96000 552.986
31.00000 615.244
31.04000 698.555
31.08000 852.152
31.12000 1143.810
31.16000 1522.164
31.20000 2085.417
31.24000 2784.461
31.28000 3496.493
31.32000 4068.142
31.36000 4457.831
31.40000 4598.229
31.44000 4295.376
31.48000 3821.001
31.52000 3159.812
31.56000 2509.146
31.60000 1916.344
31.64000 1470.961
31.68000 1154.581
31.72000 929.702
31.76000 789.482
31.80000 657.493
31.84000 593.687
31.88000 529.091
31.92000 505.606
31.96000 468.077
32.00000 476.541
32.04000 451.539
32.08000 436.513
32.12000 427.571
32.16000 416.261
32.20000 427.734
32.24000 424.282
32.28000 405.244
32.32000 395.765
32.36000 407.954
32.40000 415.583
32.44000 405.094
32.48000 399.811
32.52000 381.245
32.56000 386.061
32.60000 390.937
32.64000 391.765
32.68000 395.950
32.72000 390.090
32.76000 383.537
32.80000 390.482
32.84000 391.384
32.88000 421.317
32.92000 429.778
32.96000 408.992
33.00000 407.019
33.04000 424.497
33.08000 380.490
33.12000 380.079
33.16000 375.873
33.20000 365.737
33.24000 368.272
33.28000 356.545
33.32000 365.065
33.36000 337.927
33.40000 353.619
33.44000 351.441
33.48000 359.327
33.52000 358.232
33.56000 365.004
33.60000 346.876
33.64000 362.948
33.68000 356.571
33.72000 351.436
33.76000 357.571
33.80000 346.676
33.84000 345.262
33.88000 340.817
33.92000 344.972
33.96000 345.737
34.00000 324.587
34.04000 343.514
34.08000 330.392
34.12000 348.767
34.16000 353.096
34.20000 333.727
34.24000 339.282
34.28000 352.378
34.32000 343.668
34.36000 334.379
34.40000 319.312
34.44000 340.638
34.48000 329.494
34.52000 326.443
34.56000 332.908
34.60000 325.425
34.64000 330.711
34.68000 340.739
34.72000 325.525
34.76000 341.819
34.80000 338.114
34.84000 333.649
34.88000 319.280
34.92000 324.612
34.96000 322.878
35.00000 325.910
35.04000 315.813
35.08000 337.450
35.12000 316.305
35.16000 315.176
35.20000 321.703
35.24000 329.611
35.28000 329.792
35.32000 313.571
35.36000 333.021
35.40000 322.750
35.44000 306.043
35.48000 317.114
35.52000 313.560
35.56000 310.968
35.60000 308.749
35.64000 300.148
35.68000 331.314
35.72000 310.503
35.76000 315.468
35.80000 324.762
35.84000 325.675
35.88000 323.958
35.92000 305.337
35.96000 297.034
36.00000 337.489
36.04000 309.043
36.08000 300.805
36.12000 302.333
36.16000 317.439
36.20000 295.760
36.24000 307.284
36.28000 289.836
36.32000 303.109
36.36000 311.507
36.40000 304.080
36.44000 304.597
36.48000 306.695
36.52000 313.269
36.56000 297.488
36.60000 299.746
36.64000 292.577
36.68000 314.854
36.72000 297.767
36.76000 311.671
36.80000 313.274
36.84000 294.837
36.88000 299.466
36.92000 318.590
36.96000 311.822
37.00000 325.744
37.04000 306.563
37.08000 308.865
37.12000 311.878
37.16000 321.760
37.20000 308.569
37.24000 309.110
37.28000 298.057
37.32000 303.139
37.36000 294.264
37.40000 303.859
37.44000 292.981
37.48000 284.594
37.52000 277.979
37.56000 289.733
37.60000 289.695
37.64000 291.809
37.68000 292.384
37.72000 300.045
37.76000 305.804
37.80000 305.687
37.84000 302.254
37.88000 295.895
37.92000 291.354
37.96000 307.900
38.00000 311.254
38.04000 294.433
38.08000 317.512
38.12000 319.586
38.16000 321.023
38.20000 322.448
38.24000 343.278
38.28000 350.017
38.32000 368.483
38.36000 381.611
38.40000 394.061
38.44000 451.556
38.48000 501.922
38.52000 535.465
38.56000 639.451
38.60000 697.705
38.64000 722.160
38.68000 735.723
38.72000 731.177
38.76000 717.522
38.80000 644.821
38.84000 587.552
38.88000 535.392
38.92000 470.371
38.96000 420.200
39.00000 371.885
39.04000 359.343
39.08000 329.325
39.12000 329.981
39.16000 322.011
39.20000 315.804
39.24000 309.940
39.28000 295.616
39.32000 303.319
39.36000 293.835
39.40000 292.336
39.44000 277.975
39.48000 272.038
39.52000 272.266
39.56000 280.468
39.60000 285.124
39.64000 278.391
39.68000 252.571
39.72000 262.281
39.76000 275.571
39.80000 282.114
39.84000 285.238
39.88000 272.418
39.92000 284.297
39.96000 264.638
40.00000 263.772
40.04000 276.795
40.08000 259.226
40.12000 250.190
40.16000 253.986
40.20000 271.063
40.24000 275.159
40.28000 263.733
40.32000 266.725
40.36000 272.254
40.40000 275.147
40.44000 279.473
40.48000 266.841
40.52000 255.284
40.56000 251.897
40.60000 262.339
40.64000 264.738
40.68000 257.535
40.72000 254.534
40.76000 249.377
40.80000 258.738
40.84000 258.352
40.88000 250.496
40.92000 247.351
40.96000 275.221
41.00000 246.799
41.04000 247.988
41.08000 251.664
41.12000 252.362
41.16000 266.828
41.20000 254.265
41.24000 255.054
41.28000 262.379
41.32000 262.343
41.36000 249.885
41.40000 259.385
41.44000 247.491
41.48000 256.998
41.52000 234.807
41.56000 254.680
41.60000 258.251
41.64000 242.786
41.68000 252.085
41.72000 235.493
41.76000 243.790
41.80000 241.233
41.84000 256.649
41.88000 232.632
41.92000 252.213
41.96000 240.883
42.00000 243.346
42.04000 228.174
42.08000 242.934
42.12000 243.361
42.16000 250.044
42.20000 240.665
42.24000 240.481
42.28000 245.241
42.32000 256.956
42.36000 234.383
42.40000 242.385
42.44000 239.266
42.48000 232.345
42.52000 236.577
42.56000 228.362
42.60000 226.799
42.64000 240.702
42.68000 234.451
42.72000 236.296
42.76000 238.365
42.80000 242.664
42.84000 231.058
42.88000 240.092
42.92000 236.492
42.96000 229.567
43.00000 235.418
43.04000 245.239
43.08000 234.819
43.12000 236.901
43.16000 240.160
43.20000 229.754
43.24000 232.318
43.28000 244.584
43.32000 225.889
43.36000 215.015
43.40000 217.167
43.44000 221.353
43.48000 220.332
43.52000 219.861
43.56000 220.414
43.60000 217.801
43.64000 228.423
43.68000 223.135
43.72000 225.262
43.76000 226.614
43.80000 225.178
43.84000 230.176
43.88000 246.746
43.92000 242.718
43.96000 230.970
44.00000 220.646
44.04000 231.072
44.08000 225.702
44.12000 233.409
44.16000 229.680
44.20000 245.215
44.24000 232.380
44.28000 232.767
44.32000 228.178
44.36000 240.045
44.40000 246.163
44.44000 245.637
44.48000 252.120
44.52000 263.030
44.56000 271.900
44.60000 281.856
44.64000 278.227
44.68000 292.963
44.72000 316.008
44.76000 335.717
44.80000 362.847
44.84000 386.309
44.88000 399.181
44.92000 431.477
44.96000 442.822
45.00000 452.677
45.04000 450.705
45.08000 427.945
45.12000 434.006
45.16000 398.798
45.20000 396.383
45.24000 374.714
45.28000 345.993
45.32000 327.832
45.36000 302.358
45.40000 310.621
45.44000 288.996
45.48000 274.226
45.52000 278.461
45.56000 274.371
45.60000 247.386
45.64000 251.605
45.68000 256.992
45.72000 258.608
45.76000 239.018
45.80000 230.754
45.84000 238.650
45.88000 245.610
45.92000 220.645
45.96000 215.169
46.00000 209.817
46.04000 222.487
46.08000 211.283
46.12000 209.919
46.16000 207.841
46.20000 204.936
46.24000 201.437
46.28000 225.642
46.32000 205.676
46.36000 218.295
46.40000 199.392
46.44000 199.691
46.48000 210.844
46.52000 202.771
46.56000 199.415
46.60000 201.767
46.64000 200.788
46.68000 206.419
46.72000 200.605
46.76000 200.991
46.80000 202.715
46.84000 206.169
46.88000 200.111
46.92000 198.086
46.96000 198.395
47.00000 201.408
47.04000 191.688
47.08000 185.185
47.12000 186.307
47.16000 206.338
47.20000 199.348
47.24000 196.649
47.28000 205.623
47.32000 203.266
47.36000 184.340
47.40000 201.978
47.44000 184.172
47.48000 188.776
47.52000 202.822
47.56000 198.826
47.60000 195.093
47.64000 197.229
47.68000 189.780
47.72000 180.376
47.76000 189.805
47.80000 182.916
47.84000 185.247
47.88000 197.784
47.92000 185.409
47.96000 187.224
48.00000 191.595
48.04000 180.277
48.08000 181.410
48.12000 189.229
48.16000 202.651
48.20000 203.656
48.24000 193.586
48.28000 182.847
48.32000 192.532
48.36000 180.868
48.40000 184.474
48.44000 179.742
48.48000 182.157
48.52000 191.527
48.56000 191.202
48.60000 187.941
48.64000 185.640
48.68000 186.536
48.72000 185.164
48.76000 184.210
48.80000 195.593
48.84000 193.155
48.88000 174.815
48.92000 186.694
48.96000 190.906
49.00000 180.480
49.04000 175.182
49.08000 191.447
49.12000 184.535
49.16000 180.406
49.20000 183.546
49.24000 180.643
49.28000 186.590
49.32000 165.428
49.36000 188.618
49.40000 187.787
49.44000 182.781
49.48000 183.372
49.52000 183.458
49.56000 175.004
49.60000 182.425
49.64000 182.840
49.68000 175.407
49.72000 185.710
49.76000 202.195
49.80000 174.763
49.84000 186.254
49.88000 196.061
49.92000 165.915
49.96000 184.832
50.00000 182.499
50.04000 182.906
50.08000 188.647
50.12000 188.928
50.16000 175.422
50.20000 199.253
50.24000 192.460
50.28000 175.676
50.32000 200.492
50.36000 213.924
50.40000 197.931
50.44000 227.442
50.48000 249.431
50.52000 253.981
50.56000 277.078
50.60000 284.113
50.64000 283.127
50.68000 296.665
50.72000 289.109
50.76000 270.379
50.80000 274.050
50.84000 268.885
50.88000 239.090
50.92000 237.880
50.96000 224.645
51.00000 216.957
51.04000 202.785
51.08000 211.148
51.12000 210.559
51.16000 192.694
51.20000 182.209
51.24000 190.149
51.28000 178.153
51.32000 185.098
51.36000 176.180
51.40000 185.726
51.44000 161.109
51.48000 184.689
51.52000 169.579
51.56000 170.377
51.60000 171.276
51.64000 161.871
51.68000 163.425
51.72000 178.478
51.76000 164.248
51.80000 181.001
51.84000 166.251
51.88000 157.531
51.92000 164.397
51.96000 164.628
52.00000 170.202
52.04000 175.397
52.08000 161.007
52.12000 160.488
52.16000 150.677
52.20000 171.765
52.24000 164.668
52.28000 172.194
52.32000 162.604
52.36000 164.847
52.40000 166.801
52.44000 156.843
52.48000 163.635
52.52000 163.954
52.56000 164.945
52.60000 169.159
52.64000 158.066
52.68000 174.211
52.72000 163.579
52.76000 164.492
52.80000 167.193
52.84000 171.509
52.88000 169.928
52.92000 163.648
52.96000 162.164
53.00000 153.605
53.04000 153.486
53.08000 157.015
53.12000 154.335
53.16000 162.870
53.20000 156.547
53.24000 163.650
53.28000 165.148
53.32000 164.950
53.36000 167.483
53.40000 169.355
53.44000 168.254
53.48000 172.985
53.52000 165.924
53.56000 173.557
53.60000 162.074
53.64000 162.806
53.68000 157.147
53.72000 169.249
53.76000 163.071
53.80000 160.015
53.84000 159.899
53.88000 163.513
53.92000 151.827
53.96000 153.669
54.00000 150.519
54.04000 165.373
54.08000 158.974
54.12000 157.615
54.16000 164.477
54.20000 163.599
54.24000 163.488
54.28000 157.216
54.32000 156.918
54.36000 168.945
54.40000 166.810
54.44000 156.667
54.48000 174.234
54.52000 155.639
54.56000 160.300
54.60000 163.221
54.64000 165.504
54.68000 170.554
54.72000 154.582
54.76000 161.231
54.80000 160.318
54.84000 162.593
54.88000 167.547
54.92000 169.266
54.96000 158.130
55.00000 159.094
55.04000 168.803
55.08000 159.059
55.12000 172.450
55.16000 177.872
55.20000 169.495
55.24000 166.243
55.28000 182.113
55.32000 189.079
55.36000 177.124
55.40000 210.884
55.44000 194.156
55.48000 231.012
55.52000 230.639
55.56000 265.121
55.60000 300.439
55.64000 327.810
55.68000 369.420
55.72000 393.604
55.76000 457.517
55.80000 491.675
55.84000 526.944
55.88000 552.781
55.92000 567.437
55.96000 548.473
56.00000 515.229
56.04000 484.008
56.08000 453.063
56.12000 406.206
56.16000 366.454
56.20000 345.591
56.24000 306.462
56.28000 284.529
56.32000 256.339
56.36000 228.862
56.40000 213.979
56.44000 203.775
56.48000 212.041
56.52000 198.706
56.56000 181.302
56.60000 179.197
56.64000 169.027
56.68000 174.155
56.72000 162.070
56.76000 153.411
56.80000 165.287
56.84000 170.866
56.88000 151.362
56.92000 154.683
56.96000 147.990
57.00000 156.788
57.04000 152.491
57.08000 147.589
57.12000 148.496
57.16000 136.054
57.20000 157.153
57.24000 153.875
57.28000 145.065
57.32000 141.715
57.36000 136.651
57.40000 145.357
57.44000 138.685
57.48000 135.553
57.52000 150.075
57.56000 155.465
57.60000 152.640
57.64000 140.204
57.68000 145.129
57.72000 149.097
57.76000 146.503
57.80000 138.541
57.84000 145.326
57.88000 145.580
57.92000 143.411
57.96000 140.950
58.00000 142.299
58.04000 155.974
58.08000 150.584
58.12000 145.703
58.16000 138.160
58.20000 144.624
58.24000 138.582
58.28000 140.291
58.32000 142.107
58.36000 140.738
58.40000 147.438
58.44000 145.174
58.48000 145.429
58.52000 143.404
58.56000 139.566
58.60000 135.355
58.64000 127.577
58.68000 135.385
58.72000 132.872
58.76000 141.763
58.80000 134.299
58.84000 134.051
58.88000 137.553
58.92000 138.321
58.96000 140.152
59.00000 144.811
59.04000 138.210
59.08000 126.799
59.12000 137.237
59.16000 132.558
59.20000 138.776
59.24000 134.043
59.28000 136.823
59.32000 138.711
59.36000 136.302
59.40000 144.428
59.44000 136.193
59.48000 138.281
59.52000 132.363
59.56000 126.157
59.60000 134.621
59.64000 134.571
59.68000 129.335
59.72000 133.572
59.76000 124.797
59.80000 138.652
59.84000 136.475
59.88000 130.904
59.92000 132.616
59.96000 138.543
60.00000 135.479
60.04000 134.641
60.08000 135.008
60.12000 132.416
60.16000 143.896
60.20000 137.993
60.24000 130.880
60.28000 136.129
60.32000 141.967
60.36000 139.589
60.40000 135.046
60.44000 130.479
60.48000 136.230
60.52000 139.795
60.56000 139.194
60.60000 137.094
60.64000 140.461
60.68000 132.470
60.72000 137.630
60.76000 142.272
60.80000 142.273
60.84000 127.182
60.88000 133.377
60.92000 125.325
60.96000 136.892
61.00000 140.779
61.04000 136.214
61.08000 147.195
61.12000 143.079
61.16000 146.503
61.20000 141.562
61.24000 150.988
61.28000 141.648
61.32000 137.376
61.36000 134.043
61.40000 141.617
61.44000 145.867
61.48000 163.312
61.52000 186.794
61.56000 241.582
61.60000 309.128
61.64000 362.777
61.68000 364.846
61.72000 369.388
61.76000 341.325
61.80000 286.541
61.84000 209.457
61.88000 170.731
61.92000 155.459
61.96000 144.434
62.00000 152.550
62.04000 151.322
62.08000 144.182
62.12000 144.381
62.16000 149.860
62.20000 147.314
62.24000 147.081
62.28000 142.422
62.32000 138.092
62.36000 138.434
62.40000 137.537
62.44000 154.774
62.48000 145.381
62.52000 154.327
62.56000 144.841
62.60000 155.321
62.64000 138.270
62.68000 143.850
62.72000 145.082
62.76000 152.276
62.80000 156.013
62.84000 150.480
62.88000 139.678
62.92000 144.587
62.96000 147.256
63.00000 151.161
63.04000 139.202
63.08000 147.883
63.12000 142.283
63.16000 152.206
63.20000 145.234
63.24000 147.356
63.28000 158.286
63.32000 152.095
63.36000 146.413
63.40000 155.213
63.44000 158.956
63.48000 141.618
63.52000 153.908
63.56000 153.939
63.60000 152.700
63.64000 171.435
63.68000 145.481
63.72000 158.305
63.76000 152.867
63.80000 153.552
63.84000 149.008
63.88000 157.774
63.92000 155.190
63.96000 164.453
64.00000 159.037
64.04000 166.710
64.08000 158.922
64.12000 169.175
64.16000 162.038
64.20000 166.327
64.24000 170.550
64.28000 162.642
64.32000 175.178
64.36000 173.556
64.40000 169.471
64.44000 169.912
64.48000 190.216
64.52000 165.778
64.56000 180.246
64.60000 171.996
64.64000 182.819
64.68000 182.555
64.72000 182.787
64.76000 191.777
64.80000 185.376
64.84000 191.998
64.88000 181.440
64.92000 192.753
64.96000 190.483
65.00000 225.959
65.04000 215.168
65.08000 221.234
65.12000 234.409
65.16000 241.664
65.20000 265.781
65.24000 271.890
65.28000 301.301
65.32000 348.451
65.36000 380.507
65.40000 404.428
65.44000 428.007
65.48000 450.656
65.52000 473.552
65.56000 511.211
65.60000 539.530
65.64000 585.972
65.68000 684.783
65.72000 890.819
65.76000 1182.293
65.80000 1471.550
65.84000 1645.483
65.88000 1687.105
65.92000 1584.699
65.96000 1348.305
66.00000 978.052
66.04000 643.074
66.08000 478.395
66.12000 410.786
66.16000 386.403
66.20000 382.586
66.24000 391.268
66.28000 429.087
66.32000 517.482
66.36000 557.250
66.40000 579.057
66.44000 592.081
66.48000 583.716
66.52000 525.166
66.56000 456.890
66.60000 402.829
66.64000 378.071
66.68000 375.219
66.72000 366.205
66.76000 371.813
66.80000 380.766
66.84000 370.875
66.88000 377.373
66.92000 388.352
66.96000 391.052
67.00000 410.495
67.04000 424.962
67.08000 419.443
67.12000 428.600
67.16000 420.700
67.20000 430.448
67.24000 448.028
67.28000 456.595
67.32000 467.689
67.36000 481.070
67.40000 460.768
67.44000 465.166
67.48000 485.832
67.52000 493.729
67.56000 506.713
67.60000 528.124
67.64000 505.001
67.68000 531.904
67.72000 544.524
67.76000 550.255
67.80000 567.580
67.84000 594.545
67.88000 602.210
67.92000 588.526
67.96000 619.794
68.00000 627.504
68.04000 656.019
68.08000 681.710
68.12000 680.446
68.16000 696.802
68.20000 693.462
68.24000 727.531
68.28000 762.013
68.32000 788.443
68.36000 806.600
68.40000 847.536
68.44000 909.243
68.48000 974.820
68.52000 975.783
68.56000 1125.188
68.60000 1276.791
68.64000 1503.385
68.68000 1911.096
68.72000 2206.143
68.76000 2569.047
68.80000 2989.923
68.84000 3751.105
68.88000 5209.661
68.92000 9731.631
68.96000 22336.676
69.00000 47975.398
69.04000 76278.867
69.08000 91145.273
69.12000 95275.063
69.16000 98616.867
69.20000 96454.758
69.24000 82707.734
69.28000 64003.586
69.32000 52076.309
69.36000 46106.375
69.40000 37372.043
69.44000 23662.412
69.48000 11333.589
69.52000 4962.714
69.56000 2901.288
69.60000 2128.940
69.64000 1751.621
69.68000 1495.368
69.72000 1345.999
69.76000 1180.305
69.80000 1104.486
69.84000 999.307
69.88000 957.070
69.92000 899.335
69.96000 871.037
70.00000 828.693