File: XRD/XRD/22-09-2025 Dep 2/XY Data/BTO_Mapping_Theta2Theta_22-09-2025_001_10_36-039_17-355.xy
20.00000 570.026
20.04000 562.168
20.08000 574.671
20.12000 551.971
20.16000 573.108
20.20000 543.519
20.24000 561.809
20.28000 560.321
20.32000 572.724
20.36000 566.417
20.40000 576.439
20.44000 562.382
20.48000 570.424
20.52000 558.398
20.56000 564.266
20.60000 555.158
20.64000 575.460
20.68000 552.268
20.72000 559.035
20.76000 555.572
20.80000 552.970
20.84000 559.970
20.88000 544.157
20.92000 539.537
20.96000 535.920
21.00000 517.909
21.04000 542.325
21.08000 553.228
21.12000 558.998
21.16000 530.891
21.20000 542.846
21.24000 536.123
21.28000 548.078
21.32000 553.851
21.36000 539.783
21.40000 558.776
21.44000 539.459
21.48000 548.229
21.52000 560.750
21.56000 554.838
21.60000 538.715
21.64000 549.544
21.68000 553.710
21.72000 562.325
21.76000 561.231
21.80000 574.483
21.84000 577.558
21.88000 591.497
21.92000 591.262
21.96000 614.085
22.00000 645.254
22.04000 640.956
22.08000 660.529
22.12000 664.037
22.16000 665.808
22.20000 673.507
22.24000 646.984
22.28000 644.758
22.32000 634.210
22.36000 614.466
22.40000 601.606
22.44000 576.157
22.48000 570.647
22.52000 559.031
22.56000 556.850
22.60000 529.165
22.64000 547.467
22.68000 527.593
22.72000 489.667
22.76000 542.072
22.80000 501.396
22.84000 507.494
22.88000 514.729
22.92000 507.488
22.96000 515.652
23.00000 498.362
23.04000 521.624
23.08000 519.556
23.12000 518.268
23.16000 509.643
23.20000 515.048
23.24000 497.297
23.28000 492.308
23.32000 520.192
23.36000 515.225
23.40000 525.237
23.44000 518.704
23.48000 515.475
23.52000 503.576
23.56000 517.390
23.60000 509.021
23.64000 539.777
23.68000 513.057
23.72000 507.169
23.76000 509.492
23.80000 536.009
23.84000 539.032
23.88000 549.548
23.92000 530.509
23.96000 540.743
24.00000 540.225
24.04000 532.592
24.08000 531.463
24.12000 537.928
24.16000 531.327
24.20000 521.905
24.24000 521.070
24.28000 513.546
24.32000 512.141
24.36000 504.528
24.40000 508.453
24.44000 494.729
24.48000 499.467
24.52000 469.441
24.56000 485.183
24.60000 497.021
24.64000 483.774
24.68000 481.688
24.72000 489.384
24.76000 485.771
24.80000 472.782
24.84000 472.574
24.88000 475.378
24.92000 479.190
24.96000 469.270
25.00000 472.304
25.04000 463.645
25.08000 468.808
25.12000 469.813
25.16000 474.730
25.20000 487.233
25.24000 461.442
25.28000 477.693
25.32000 464.056
25.36000 474.175
25.40000 494.397
25.44000 448.682
25.48000 485.331
25.52000 462.023
25.56000 467.325
25.60000 470.984
25.64000 454.484
25.68000 446.965
25.72000 446.239
25.76000 454.817
25.80000 463.607
25.84000 446.134
25.88000 467.841
25.92000 460.551
25.96000 460.927
26.00000 470.862
26.04000 451.531
26.08000 454.844
26.12000 462.844
26.16000 458.218
26.20000 457.994
26.24000 443.012
26.28000 436.540
26.32000 447.996
26.36000 434.347
26.40000 438.402
26.44000 467.251
26.48000 451.487
26.52000 460.431
26.56000 451.684
26.60000 453.149
26.64000 439.483
26.68000 447.919
26.72000 445.604
26.76000 448.722
26.80000 433.511
26.84000 443.735
26.88000 452.811
26.92000 446.615
26.96000 429.082
27.00000 447.144
27.04000 441.160
27.08000 418.442
27.12000 453.056
27.16000 436.335
27.20000 453.593
27.24000 432.715
27.28000 424.263
27.32000 437.444
27.36000 428.324
27.40000 429.182
27.44000 436.428
27.48000 439.009
27.52000 428.308
27.56000 427.837
27.60000 440.933
27.64000 417.981
27.68000 420.654
27.72000 435.373
27.76000 434.328
27.80000 421.385
27.84000 427.218
27.88000 440.955
27.92000 418.897
27.96000 426.149
28.00000 429.185
28.04000 439.350
28.08000 422.789
28.12000 421.841
28.16000 438.042
28.20000 410.965
28.24000 429.617
28.28000 432.405
28.32000 437.711
28.36000 420.312
28.40000 431.364
28.44000 422.233
28.48000 434.817
28.52000 419.449
28.56000 413.361
28.60000 421.376
28.64000 419.513
28.68000 438.843
28.72000 430.224
28.76000 418.411
28.80000 408.137
28.84000 420.690
28.88000 405.009
28.92000 424.569
28.96000 427.973
29.00000 407.173
29.04000 400.340
29.08000 417.845
29.12000 415.008
29.16000 410.553
29.20000 421.961
29.24000 415.673
29.28000 428.189
29.32000 412.215
29.36000 407.928
29.40000 404.226
29.44000 411.025
29.48000 418.315
29.52000 400.439
29.56000 418.344
29.60000 402.997
29.64000 403.340
29.68000 422.231
29.72000 426.784
29.76000 405.803
29.80000 412.083
29.84000 410.602
29.88000 406.059
29.92000 403.597
29.96000 437.454
30.00000 418.645
30.04000 404.358
30.08000 414.983
30.12000 416.799
30.16000 436.929
30.20000 413.449
30.24000 425.505
30.28000 432.508
30.32000 413.770
30.36000 423.916
30.40000 414.925
30.44000 428.918
30.48000 423.174
30.52000 423.616
30.56000 413.306
30.60000 430.870
30.64000 419.304
30.68000 428.950
30.72000 447.189
30.76000 452.871
30.80000 454.707
30.84000 441.356
30.88000 459.718
30.92000 458.585
30.96000 490.339
31.00000 487.597
31.04000 533.016
31.08000 594.821
31.12000 626.746
31.16000 753.755
31.20000 863.213
31.24000 1066.806
31.28000 1351.115
31.32000 1573.242
31.36000 1804.297
31.40000 1957.082
31.44000 2004.302
31.48000 1898.303
31.52000 1746.469
31.56000 1511.104
31.60000 1293.255
31.64000 1051.628
31.68000 875.415
31.72000 734.326
31.76000 665.226
31.80000 553.750
31.84000 535.971
31.88000 508.821
31.92000 485.787
31.96000 454.121
32.00000 440.081
32.04000 416.607
32.08000 414.610
32.12000 431.737
32.16000 421.404
32.20000 403.392
32.24000 378.387
32.28000 398.669
32.32000 397.525
32.36000 397.406
32.40000 398.902
32.44000 381.657
32.48000 393.270
32.52000 381.410
32.56000 382.357
32.60000 391.978
32.64000 377.226
32.68000 371.798
32.72000 356.359
32.76000 383.451
32.80000 386.220
32.84000 384.097
32.88000 361.163
32.92000 366.956
32.96000 337.488
33.00000 371.910
33.04000 365.553
33.08000 355.410
33.12000 355.712
33.16000 345.478
33.20000 351.191
33.24000 344.285
33.28000 333.971
33.32000 337.713
33.36000 343.722
33.40000 347.628
33.44000 340.058
33.48000 339.309
33.52000 331.380
33.56000 341.580
33.60000 350.369
33.64000 345.933
33.68000 340.836
33.72000 350.148
33.76000 324.702
33.80000 337.524
33.84000 340.067
33.88000 329.860
33.92000 329.555
33.96000 342.418
34.00000 351.621
34.04000 344.257
34.08000 329.658
34.12000 339.651
34.16000 346.903
34.20000 331.911
34.24000 349.572
34.28000 342.800
34.32000 364.966
34.36000 356.554
34.40000 334.747
34.44000 340.762
34.48000 329.710
34.52000 354.167
34.56000 324.639
34.60000 328.777
34.64000 335.397
34.68000 323.731
34.72000 332.840
34.76000 326.785
34.80000 324.491
34.84000 346.742
34.88000 334.751
34.92000 323.376
34.96000 323.739
35.00000 322.041
35.04000 306.417
35.08000 312.029
35.12000 317.894
35.16000 308.516
35.20000 337.449
35.24000 321.170
35.28000 318.587
35.32000 308.386
35.36000 307.832
35.40000 317.002
35.44000 305.182
35.48000 305.775
35.52000 299.469
35.56000 312.408
35.60000 303.921
35.64000 304.958
35.68000 277.504
35.72000 296.041
35.76000 313.361
35.80000 306.236
35.84000 305.867
35.88000 308.858
35.92000 301.146
35.96000 308.753
36.00000 292.503
36.04000 297.923
36.08000 281.330
36.12000 306.936
36.16000 300.829
36.20000 289.839
36.24000 299.752
36.28000 296.738
36.32000 294.036
36.36000 292.976
36.40000 295.525
36.44000 294.020
36.48000 314.080
36.52000 285.257
36.56000 283.878
36.60000 304.012
36.64000 302.888
36.68000 304.314
36.72000 290.856
36.76000 285.208
36.80000 304.440
36.84000 296.592
36.88000 284.239
36.92000 307.761
36.96000 287.790
37.00000 316.894
37.04000 297.286
37.08000 303.067
37.12000 302.198
37.16000 301.606
37.20000 297.131
37.24000 282.488
37.28000 293.171
37.32000 288.900
37.36000 271.584
37.40000 291.739
37.44000 292.080
37.48000 284.842
37.52000 291.568
37.56000 300.069
37.60000 282.492
37.64000 286.727
37.68000 299.639
37.72000 293.150
37.76000 281.448
37.80000 289.819
37.84000 281.973
37.88000 290.210
37.92000 286.840
37.96000 291.967
38.00000 288.899
38.04000 281.469
38.08000 311.812
38.12000 295.402
38.16000 295.799
38.20000 298.516
38.24000 306.969
38.28000 300.758
38.32000 303.825
38.36000 319.231
38.40000 305.984
38.44000 345.506
38.48000 366.303
38.52000 432.085
38.56000 482.304
38.60000 572.249
38.64000 709.931
38.68000 819.508
38.72000 978.926
38.76000 1016.097
38.80000 1002.695
38.84000 949.672
38.88000 864.892
38.92000 762.034
38.96000 623.380
39.00000 509.203
39.04000 435.359
39.08000 368.375
39.12000 332.651
39.16000 323.786
39.20000 303.753
39.24000 293.451
39.28000 283.709
39.32000 285.488
39.36000 280.574
39.40000 285.285
39.44000 257.764
39.48000 281.840
39.52000 268.995
39.56000 272.348
39.60000 284.174
39.64000 269.437
39.68000 262.034
39.72000 272.579
39.76000 270.775
39.80000 272.616
39.84000 256.136
39.88000 269.094
39.92000 265.785
39.96000 264.661
40.00000 262.652
40.04000 257.534
40.08000 256.628
40.12000 247.063
40.16000 255.478
40.20000 255.024
40.24000 257.615
40.28000 259.986
40.32000 255.141
40.36000 243.521
40.40000 246.564
40.44000 239.082
40.48000 255.096
40.52000 256.291
40.56000 250.235
40.60000 255.282
40.64000 240.218
40.68000 237.307
40.72000 246.067
40.76000 245.039
40.80000 256.280
40.84000 252.807
40.88000 239.030
40.92000 251.061
40.96000 252.099
41.00000 247.767
41.04000 246.029
41.08000 261.329
41.12000 245.924
41.16000 237.059
41.20000 238.176
41.24000 249.824
41.28000 238.255
41.32000 249.951
41.36000 244.360
41.40000 245.861
41.44000 237.461
41.48000 241.280
41.52000 252.961
41.56000 245.794
41.60000 243.029
41.64000 237.639
41.68000 246.508
41.72000 248.182
41.76000 228.555
41.80000 236.991
41.84000 244.273
41.88000 239.221
41.92000 238.541
41.96000 240.377
42.00000 244.539
42.04000 237.329
42.08000 243.379
42.12000 237.421
42.16000 242.888
42.20000 240.717
42.24000 243.417
42.28000 229.901
42.32000 230.856
42.36000 229.417
42.40000 232.507
42.44000 239.050
42.48000 230.118
42.52000 228.791
42.56000 227.930
42.60000 235.264
42.64000 224.741
42.68000 253.506
42.72000 243.972
42.76000 242.751
42.80000 233.412
42.84000 241.105
42.88000 228.057
42.92000 222.502
42.96000 234.169
43.00000 226.953
43.04000 228.825
43.08000 229.522
43.12000 225.863
43.16000 215.844
43.20000 232.678
43.24000 225.633
43.28000 225.475
43.32000 234.264
43.36000 230.621
43.40000 219.649
43.44000 221.098
43.48000 229.161
43.52000 222.596
43.56000 223.744
43.60000 231.597
43.64000 221.366
43.68000 227.459
43.72000 223.510
43.76000 221.525
43.80000 230.251
43.84000 217.472
43.88000 231.981
43.92000 227.039
43.96000 229.261
44.00000 212.174
44.04000 233.685
44.08000 227.586
44.12000 235.668
44.16000 226.326
44.20000 224.853
44.24000 226.338
44.28000 213.444
44.32000 221.286
44.36000 220.930
44.40000 214.120
44.44000 242.967
44.48000 225.800
44.52000 229.800
44.56000 245.304
44.60000 238.756
44.64000 245.811
44.68000 225.652
44.72000 242.791
44.76000 248.790
44.80000 252.962
44.84000 256.847
44.88000 247.538
44.92000 267.453
44.96000 267.588
45.00000 279.999
45.04000 280.584
45.08000 272.535
45.12000 301.577
45.16000 314.899
45.20000 294.975
45.24000 311.436
45.28000 291.540
45.32000 282.884
45.36000 285.056
45.40000 295.777
45.44000 282.531
45.48000 250.534
45.52000 279.008
45.56000 268.917
45.60000 243.856
45.64000 249.440
45.68000 250.281
45.72000 252.259
45.76000 242.927
45.80000 250.091
45.84000 224.789
45.88000 227.314
45.92000 226.869
45.96000 234.473
46.00000 225.150
46.04000 219.976
46.08000 199.245
46.12000 217.761
46.16000 211.723
46.20000 206.382
46.24000 214.675
46.28000 207.609
46.32000 216.581
46.36000 210.036
46.40000 202.357
46.44000 201.023
46.48000 196.240
46.52000 196.739
46.56000 206.462
46.60000 209.302
46.64000 201.807
46.68000 208.220
46.72000 213.918
46.76000 198.365
46.80000 201.961
46.84000 190.923
46.88000 210.933
46.92000 196.042
46.96000 196.335
47.00000 199.353
47.04000 192.582
47.08000 203.009
47.12000 198.385
47.16000 196.399
47.20000 196.066
47.24000 196.967
47.28000 185.054
47.32000 201.518
47.36000 197.467
47.40000 185.527
47.44000 176.564
47.48000 182.127
47.52000 185.902
47.56000 181.770
47.60000 186.082
47.64000 188.496
47.68000 194.127
47.72000 186.903
47.76000 186.590
47.80000 189.656
47.84000 183.334
47.88000 178.555
47.92000 184.641
47.96000 189.002
48.00000 172.447
48.04000 187.068
48.08000 183.719
48.12000 182.740
48.16000 175.840
48.20000 175.878
48.24000 183.379
48.28000 194.073
48.32000 176.831
48.36000 192.473
48.40000 192.579
48.44000 193.636
48.48000 180.670
48.52000 178.857
48.56000 177.728
48.60000 189.297
48.64000 183.623
48.68000 177.560
48.72000 184.062
48.76000 174.874
48.80000 180.126
48.84000 181.505
48.88000 184.135
48.92000 171.625
48.96000 184.959
49.00000 177.976
49.04000 179.089
49.08000 186.568
49.12000 187.212
49.16000 170.083
49.20000 178.121
49.24000 180.428
49.28000 180.627
49.32000 170.222
49.36000 176.703
49.40000 173.927
49.44000 187.331
49.48000 167.606
49.52000 172.264
49.56000 165.604
49.60000 184.447
49.64000 184.449
49.68000 178.737
49.72000 165.794
49.76000 187.869
49.80000 184.489
49.84000 176.823
49.88000 180.627
49.92000 175.625
49.96000 181.324
50.00000 180.283
50.04000 178.493
50.08000 176.851
50.12000 176.580
50.16000 174.017
50.20000 166.346
50.24000 170.879
50.28000 182.678
50.32000 180.732
50.36000 175.092
50.40000 179.733
50.44000 186.999
50.48000 185.569
50.52000 182.609
50.56000 195.842
50.60000 206.408
50.64000 215.157
50.68000 215.199
50.72000 217.249
50.76000 218.829
50.80000 223.790
50.84000 230.262
50.88000 244.911
50.92000 210.707
50.96000 211.480
51.00000 194.025
51.04000 208.764
51.08000 189.195
51.12000 183.722
51.16000 185.631
51.20000 163.742
51.24000 167.842
51.28000 172.825
51.32000 181.045
51.36000 167.347
51.40000 170.146
51.44000 174.788
51.48000 165.783
51.52000 172.499
51.56000 165.237
51.60000 157.416
51.64000 168.447
51.68000 163.064
51.72000 153.802
51.76000 161.799
51.80000 173.260
51.84000 157.442
51.88000 174.903
51.92000 164.906
51.96000 158.570
52.00000 155.873
52.04000 162.914
52.08000 150.432
52.12000 149.433
52.16000 154.735
52.20000 162.597
52.24000 155.304
52.28000 153.784
52.32000 164.421
52.36000 169.139
52.40000 155.052
52.44000 156.081
52.48000 155.443
52.52000 154.971
52.56000 168.805
52.60000 157.511
52.64000 163.441
52.68000 143.800
52.72000 156.507
52.76000 152.731
52.80000 158.848
52.84000 162.183
52.88000 156.507
52.92000 155.184
52.96000 153.088
53.00000 156.115
53.04000 149.220
53.08000 147.253
53.12000 162.460
53.16000 157.078
53.20000 157.498
53.24000 156.751
53.28000 162.022
53.32000 164.117
53.36000 160.672
53.40000 156.566
53.44000 164.927
53.48000 164.085
53.52000 156.670
53.56000 152.408
53.60000 152.005
53.64000 158.905
53.68000 154.923
53.72000 153.844
53.76000 158.923
53.80000 160.900
53.84000 151.190
53.88000 148.031
53.92000 153.645
53.96000 159.764
54.00000 168.881
54.04000 152.717
54.08000 150.718
54.12000 157.355
54.16000 153.950
54.20000 143.322
54.24000 157.351
54.28000 148.776
54.32000 152.682
54.36000 149.970
54.40000 136.864
54.44000 153.663
54.48000 162.784
54.52000 155.018
54.56000 155.211
54.60000 157.236
54.64000 143.228
54.68000 161.626
54.72000 150.745
54.76000 147.382
54.80000 155.647
54.84000 154.331
54.88000 159.149
54.92000 164.487
54.96000 160.149
55.00000 160.550
55.04000 153.854
55.08000 162.204
55.12000 163.737
55.16000 159.378
55.20000 158.768
55.24000 163.216
55.28000 155.038
55.32000 164.234
55.36000 168.277
55.40000 163.970
55.44000 174.338
55.48000 185.561
55.52000 183.929
55.56000 200.346
55.60000 206.398
55.64000 207.729
55.68000 228.372
55.72000 250.677
55.76000 262.575
55.80000 303.912
55.84000 365.964
55.88000 422.526
55.92000 481.277
55.96000 525.432
56.00000 591.418
56.04000 602.976
56.08000 601.102
56.12000 570.118
56.16000 534.283
56.20000 505.130
56.24000 434.726
56.28000 385.542
56.32000 339.198
56.36000 282.758
56.40000 257.645
56.44000 236.746
56.48000 217.552
56.52000 209.717
56.56000 182.902
56.60000 181.519
56.64000 181.718
56.68000 179.302
56.72000 165.017
56.76000 151.069
56.80000 165.942
56.84000 152.598
56.88000 153.966
56.92000 148.121
56.96000 139.623
57.00000 147.429
57.04000 151.457
57.08000 147.457
57.12000 149.541
57.16000 134.148
57.20000 146.843
57.24000 141.660
57.28000 147.380
57.32000 144.150
57.36000 148.836
57.40000 140.053
57.44000 138.277
57.48000 136.142
57.52000 136.255
57.56000 137.617
57.60000 140.254
57.64000 137.381
57.68000 144.720
57.72000 144.584
57.76000 138.396
57.80000 138.295
57.84000 139.399
57.88000 148.988
57.92000 140.166
57.96000 138.400
58.00000 130.420
58.04000 143.941
58.08000 135.232
58.12000 140.581
58.16000 138.653
58.20000 148.271
58.24000 143.373
58.28000 135.493
58.32000 139.135
58.36000 144.691
58.40000 138.736
58.44000 138.017
58.48000 134.024
58.52000 140.312
58.56000 135.227
58.60000 134.888
58.64000 134.626
58.68000 129.956
58.72000 124.496
58.76000 148.217
58.80000 138.501
58.84000 146.283
58.88000 130.730
58.92000 122.115
58.96000 121.459
59.00000 133.381
59.04000 128.283
59.08000 135.523
59.12000 136.255
59.16000 136.814
59.20000 131.906
59.24000 126.879
59.28000 122.350
59.32000 127.975
59.36000 139.634
59.40000 131.643
59.44000 141.719
59.48000 131.788
59.52000 131.778
59.56000 139.564
59.60000 132.602
59.64000 135.654
59.68000 144.473
59.72000 135.774
59.76000 130.297
59.80000 139.991
59.84000 142.663
59.88000 137.967
59.92000 139.028
59.96000 124.793
60.00000 125.231
60.04000 130.542
60.08000 135.458
60.12000 128.259
60.16000 119.724
60.20000 132.815
60.24000 128.042
60.28000 136.372
60.32000 130.891
60.36000 137.503
60.40000 132.436
60.44000 128.618
60.48000 135.792
60.52000 139.994
60.56000 141.345
60.60000 130.350
60.64000 129.718
60.68000 136.305
60.72000 141.113
60.76000 130.492
60.80000 127.998
60.84000 135.298
60.88000 136.039
60.92000 137.200
60.96000 132.825
61.00000 130.024
61.04000 133.852
61.08000 138.555
61.12000 139.894
61.16000 132.722
61.20000 128.971
61.24000 142.741
61.28000 133.319
61.32000 134.091
61.36000 139.067
61.40000 142.275
61.44000 153.490
61.48000 143.846
61.52000 155.043
61.56000 172.353
61.60000 226.810
61.64000 257.325
61.68000 271.745
61.72000 283.948
61.76000 264.079
61.80000 228.390
61.84000 185.206
61.88000 151.080
61.92000 145.639
61.96000 136.810
62.00000 137.684
62.04000 148.673
62.08000 151.132
62.12000 137.626
62.16000 136.678
62.20000 135.013
62.24000 137.287
62.28000 130.985
62.32000 149.059
62.36000 140.694
62.40000 138.216
62.44000 148.076
62.48000 140.391
62.52000 141.356
62.56000 143.051
62.60000 141.054
62.64000 146.307
62.68000 145.591
62.72000 138.455
62.76000 148.953
62.80000 135.430
62.84000 140.300
62.88000 140.599
62.92000 145.943
62.96000 141.454
63.00000 151.528
63.04000 144.034
63.08000 140.906
63.12000 148.758
63.16000 147.705
63.20000 139.954
63.24000 140.142
63.28000 141.731
63.32000 144.028
63.36000 156.354
63.40000 159.992
63.44000 160.281
63.48000 145.496
63.52000 143.353
63.56000 148.244
63.60000 144.892
63.64000 152.082
63.68000 146.856
63.72000 143.827
63.76000 148.758
63.80000 149.661
63.84000 149.983
63.88000 155.467
63.92000 145.712
63.96000 150.645
64.00000 159.025
64.04000 151.984
64.08000 150.967
64.12000 158.349
64.16000 167.948
64.20000 162.037
64.24000 156.291
64.28000 156.818
64.32000 163.477
64.36000 161.913
64.40000 165.744
64.44000 162.632
64.48000 179.137
64.52000 166.929
64.56000 170.112
64.60000 171.472
64.64000 180.851
64.68000 168.607
64.72000 169.494
64.76000 171.819
64.80000 191.415
64.84000 181.792
64.88000 183.256
64.92000 180.355
64.96000 190.913
65.00000 186.840
65.04000 188.342
65.08000 192.068
65.12000 196.108
65.16000 204.681
65.20000 204.166
65.24000 213.907
65.28000 217.856
65.32000 236.352
65.36000 232.811
65.40000 247.091
65.44000 264.026
65.48000 279.758
65.52000 302.942
65.56000 303.165
65.60000 345.275
65.64000 373.114
65.68000 416.222
65.72000 542.751
65.76000 714.281
65.80000 886.403
65.84000 978.831
65.88000 1000.504
65.92000 984.502
65.96000 896.274
66.00000 629.818
66.04000 456.431
66.08000 357.218
66.12000 323.260
66.16000 314.874
66.20000 291.117
66.24000 315.258
66.28000 337.349
66.32000 383.071
66.36000 411.845
66.40000 418.281
66.44000 417.361
66.48000 415.915
66.52000 409.278
66.56000 354.599
66.60000 308.844
66.64000 308.862
66.68000 310.333
66.72000 304.688
66.76000 311.152
66.80000 327.753
66.84000 326.416
66.88000 321.522
66.92000 318.074
66.96000 337.006
67.00000 358.025
67.04000 335.008
67.08000 355.917
67.12000 355.096
67.16000 373.021
67.20000 362.687
67.24000 374.418
67.28000 384.090
67.32000 375.659
67.36000 393.923
67.40000 401.762
67.44000 396.992
67.48000 402.536
67.52000 394.501
67.56000 430.338
67.60000 434.847
67.64000 450.993
67.68000 460.911
67.72000 451.508
67.76000 445.985
67.80000 472.979
67.84000 485.381
67.88000 503.990
67.92000 501.766
67.96000 507.907
68.00000 504.309
68.04000 530.648
68.08000 523.826
68.12000 554.087
68.16000 572.144
68.20000 590.099
68.24000 602.289
68.28000 626.873
68.32000 652.816
68.36000 652.727
68.40000 679.334
68.44000 712.590
68.48000 724.974
68.52000 768.706
68.56000 842.025
68.60000 922.503
68.64000 1061.812
68.68000 1259.749
68.72000 1439.173
68.76000 1633.639
68.80000 1825.818
68.84000 2151.870
68.88000 2653.592
68.92000 4544.826
68.96000 10958.873
69.00000 25813.166
69.04000 43054.320
69.08000 52200.949
69.12000 54128.809
69.16000 56696.570
69.20000 57227.785
69.24000 48857.930
69.28000 36478.484
69.32000 30095.256
69.36000 27193.090
69.40000 23146.820
69.44000 14475.215
69.48000 6577.722
69.52000 3043.127
69.56000 1931.500
69.60000 1456.396
69.64000 1250.610
69.68000 1097.995
69.72000 996.095
69.76000 922.369
69.80000 856.631
69.84000 786.284
69.88000 738.379
69.92000 702.763
69.96000 677.856
70.00000 663.874