File: XRD/XRD/22-09-2025 Dep 2/XY Data/BTO_Mapping_Theta2Theta_22-09-2025_001_40_-40-000_0-000.xy
20.00000 581.128
20.04000 579.182
20.08000 574.273
20.12000 565.251
20.16000 564.024
20.20000 594.100
20.24000 565.825
20.28000 583.339
20.32000 571.138
20.36000 584.349
20.40000 570.268
20.44000 574.496
20.48000 577.661
20.52000 564.773
20.56000 558.706
20.60000 584.558
20.64000 583.825
20.68000 571.910
20.72000 560.055
20.76000 580.946
20.80000 561.971
20.84000 564.539
20.88000 580.562
20.92000 587.460
20.96000 574.007
21.00000 581.911
21.04000 549.792
21.08000 568.165
21.12000 583.172
21.16000 570.093
21.20000 577.580
21.24000 565.586
21.28000 579.383
21.32000 592.276
21.36000 609.173
21.40000 599.589
21.44000 588.434
21.48000 569.389
21.52000 593.543
21.56000 632.005
21.60000 627.349
21.64000 675.868
21.68000 718.390
21.72000 759.827
21.76000 855.589
21.80000 961.806
21.84000 1090.878
21.88000 1174.680
21.92000 1232.333
21.96000 1250.658
22.00000 1227.887
22.04000 1138.096
22.08000 1031.645
22.12000 933.366
22.16000 832.347
22.20000 757.018
22.24000 688.462
22.28000 649.928
22.32000 621.693
22.36000 602.980
22.40000 591.189
22.44000 591.206
22.48000 574.186
22.52000 548.705
22.56000 554.859
22.60000 558.833
22.64000 530.810
22.68000 535.123
22.72000 525.267
22.76000 539.045
22.80000 558.330
22.84000 539.492
22.88000 513.209
22.92000 518.116
22.96000 531.426
23.00000 536.219
23.04000 528.031
23.08000 529.421
23.12000 528.499
23.16000 531.315
23.20000 515.773
23.24000 530.285
23.28000 522.489
23.32000 511.601
23.36000 516.819
23.40000 517.969
23.44000 509.628
23.48000 515.615
23.52000 522.703
23.56000 528.143
23.60000 501.184
23.64000 524.143
23.68000 504.522
23.72000 523.367
23.76000 504.624
23.80000 514.835
23.84000 500.247
23.88000 519.739
23.92000 508.943
23.96000 526.209
24.00000 528.299
24.04000 494.785
24.08000 516.584
24.12000 512.767
24.16000 489.983
24.20000 475.118
24.24000 502.453
24.28000 521.747
24.32000 484.395
24.36000 492.027
24.40000 519.593
24.44000 487.147
24.48000 495.258
24.52000 496.157
24.56000 506.407
24.60000 496.456
24.64000 510.035
24.68000 505.757
24.72000 504.955
24.76000 497.356
24.80000 482.552
24.84000 496.419
24.88000 495.596
24.92000 499.291
24.96000 479.420
25.00000 471.963
25.04000 489.919
25.08000 494.811
25.12000 476.978
25.16000 484.596
25.20000 489.350
25.24000 469.381
25.28000 478.576
25.32000 483.056
25.36000 483.104
25.40000 477.385
25.44000 480.370
25.48000 491.778
25.52000 470.736
25.56000 475.640
25.60000 497.223
25.64000 488.208
25.68000 478.339
25.72000 483.254
25.76000 476.583
25.80000 469.365
25.84000 471.198
25.88000 476.353
25.92000 468.025
25.96000 468.116
26.00000 473.479
26.04000 463.583
26.08000 473.187
26.12000 453.402
26.16000 456.192
26.20000 465.673
26.24000 467.175
26.28000 468.888
26.32000 464.411
26.36000 458.547
26.40000 457.065
26.44000 461.722
26.48000 459.514
26.52000 462.098
26.56000 469.633
26.60000 474.675
26.64000 469.485
26.68000 481.181
26.72000 483.935
26.76000 453.939
26.80000 468.023
26.84000 456.595
26.88000 473.848
26.92000 446.358
26.96000 459.396
27.00000 434.922
27.04000 468.760
27.08000 457.987
27.12000 467.472
27.16000 452.970
27.20000 445.496
27.24000 446.687
27.28000 442.001
27.32000 459.604
27.36000 444.037
27.40000 456.437
27.44000 456.836
27.48000 454.758
27.52000 447.101
27.56000 466.737
27.60000 460.138
27.64000 448.122
27.68000 459.526
27.72000 450.099
27.76000 463.271
27.80000 445.351
27.84000 473.743
27.88000 452.232
27.92000 460.272
27.96000 458.521
28.00000 451.898
28.04000 445.963
28.08000 438.609
28.12000 439.232
28.16000 457.387
28.20000 441.232
28.24000 445.221
28.28000 445.863
28.32000 456.582
28.36000 452.105
28.40000 429.659
28.44000 440.538
28.48000 430.587
28.52000 434.119
28.56000 439.371
28.60000 425.385
28.64000 442.350
28.68000 452.246
28.72000 423.500
28.76000 435.643
28.80000 439.465
28.84000 440.429
28.88000 423.032
28.92000 433.830
28.96000 443.872
29.00000 441.066
29.04000 435.181
29.08000 436.566
29.12000 434.976
29.16000 423.896
29.20000 446.134
29.24000 438.497
29.28000 429.283
29.32000 430.589
29.36000 429.811
29.40000 424.085
29.44000 434.300
29.48000 425.322
29.52000 440.786
29.56000 417.277
29.60000 426.571
29.64000 439.328
29.68000 426.430
29.72000 448.846
29.76000 445.719
29.80000 443.527
29.84000 468.789
29.88000 470.111
29.92000 475.039
29.96000 478.907
30.00000 440.834
30.04000 460.198
30.08000 461.873
30.12000 440.042
30.16000 438.021
30.20000 440.711
30.24000 440.113
30.28000 433.906
30.32000 440.225
30.36000 425.474
30.40000 423.566
30.44000 436.025
30.48000 434.684
30.52000 448.647
30.56000 462.121
30.60000 445.152
30.64000 445.743
30.68000 463.750
30.72000 461.725
30.76000 478.725
30.80000 480.444
30.84000 509.131
30.88000 536.603
30.92000 587.228
30.96000 712.424
31.00000 891.849
31.04000 1223.052
31.08000 1717.813
31.12000 2493.238
31.16000 3364.411
31.20000 4028.573
31.24000 4429.155
31.28000 4484.318
31.32000 4095.832
31.36000 3445.756
31.40000 2616.687
31.44000 1935.003
31.48000 1450.255
31.52000 1081.020
31.56000 861.886
31.60000 766.503
31.64000 670.749
31.68000 585.745
31.72000 542.401
31.76000 512.698
31.80000 508.390
31.84000 479.223
31.88000 473.264
31.92000 459.460
31.96000 418.709
32.00000 415.261
32.04000 436.419
32.08000 415.104
32.12000 399.499
32.16000 419.619
32.20000 405.260
32.24000 428.326
32.28000 402.941
32.32000 396.979
32.36000 399.382
32.40000 406.620
32.44000 412.256
32.48000 413.837
32.52000 414.925
32.56000 396.132
32.60000 381.499
32.64000 371.416
32.68000 401.977
32.72000 404.212
32.76000 390.065
32.80000 394.601
32.84000 410.167
32.88000 432.017
32.92000 433.950
32.96000 427.891
33.00000 427.972
33.04000 420.925
33.08000 401.902
33.12000 399.045
33.16000 368.978
33.20000 359.134
33.24000 368.762
33.28000 356.163
33.32000 359.503
33.36000 370.477
33.40000 359.969
33.44000 346.297
33.48000 354.913
33.52000 346.902
33.56000 347.850
33.60000 353.488
33.64000 350.852
33.68000 344.394
33.72000 362.241
33.76000 349.688
33.80000 362.530
33.84000 351.809
33.88000 355.086
33.92000 344.806
33.96000 358.261
34.00000 340.715
34.04000 349.096
34.08000 334.373
34.12000 335.274
34.16000 339.176
34.20000 355.578
34.24000 326.394
34.28000 361.152
34.32000 345.025
34.36000 334.150
34.40000 341.293
34.44000 333.511
34.48000 339.171
34.52000 334.591
34.56000 334.290
34.60000 332.806
34.64000 353.481
34.68000 340.509
34.72000 344.446
34.76000 338.639
34.80000 327.779
34.84000 322.072
34.88000 333.166
34.92000 334.865
34.96000 333.541
35.00000 335.877
35.04000 306.059
35.08000 321.898
35.12000 331.846
35.16000 314.512
35.20000 330.071
35.24000 333.624
35.28000 331.025
35.32000 325.234
35.36000 316.131
35.40000 312.943
35.44000 327.749
35.48000 310.565
35.52000 315.200
35.56000 314.496
35.60000 321.370
35.64000 313.281
35.68000 312.983
35.72000 321.569
35.76000 314.777
35.80000 323.664
35.84000 319.575
35.88000 311.162
35.92000 316.444
35.96000 312.577
36.00000 313.862
36.04000 310.939
36.08000 294.691
36.12000 308.495
36.16000 309.214
36.20000 329.762
36.24000 314.501
36.28000 323.928
36.32000 331.427
36.36000 329.281
36.40000 336.911
36.44000 350.881
36.48000 323.155
36.52000 327.449
36.56000 326.971
36.60000 331.428
36.64000 319.738
36.68000 338.881
36.72000 332.659
36.76000 337.432
36.80000 339.033
36.84000 336.016
36.88000 334.413
36.92000 333.289
36.96000 326.119
37.00000 341.710
37.04000 325.705
37.08000 325.235
37.12000 315.882
37.16000 328.332
37.20000 336.259
37.24000 321.204
37.28000 331.033
37.32000 314.114
37.36000 316.603
37.40000 306.448
37.44000 317.264
37.48000 323.596
37.52000 311.867
37.56000 309.257
37.60000 316.038
37.64000 319.634
37.68000 308.300
37.72000 318.794
37.76000 309.708
37.80000 328.349
37.84000 325.714
37.88000 310.792
37.92000 324.435
37.96000 317.620
38.00000 323.715
38.04000 325.726
38.08000 342.716
38.12000 327.730
38.16000 348.817
38.20000 359.368
38.24000 372.629
38.28000 379.002
38.32000 416.006
38.36000 431.173
38.40000 465.439
38.44000 486.273
38.48000 498.387
38.52000 510.909
38.56000 505.124
38.60000 508.443
38.64000 499.133
38.68000 463.187
38.72000 451.517
38.76000 431.468
38.80000 392.357
38.84000 373.331
38.88000 360.625
38.92000 351.205
38.96000 344.349
39.00000 320.617
39.04000 310.557
39.08000 315.664
39.12000 316.975
39.16000 304.932
39.20000 290.330
39.24000 287.655
39.28000 284.948
39.32000 304.888
39.36000 289.996
39.40000 289.810
39.44000 294.789
39.48000 293.846
39.52000 291.580
39.56000 283.087
39.60000 293.433
39.64000 271.359
39.68000 283.045
39.72000 273.804
39.76000 285.882
39.80000 276.174
39.84000 282.782
39.88000 277.084
39.92000 287.447
39.96000 266.687
40.00000 275.188
40.04000 265.774
40.08000 272.405
40.12000 264.251
40.16000 273.855
40.20000 263.939
40.24000 275.651
40.28000 262.336
40.32000 281.786
40.36000 270.662
40.40000 270.323
40.44000 275.129
40.48000 262.996
40.52000 269.558
40.56000 277.731
40.60000 261.494
40.64000 263.918
40.68000 261.461
40.72000 267.683
40.76000 266.860
40.80000 255.958
40.84000 271.177
40.88000 272.473
40.92000 261.608
40.96000 256.674
41.00000 258.956
41.04000 254.898
41.08000 271.519
41.12000 265.201
41.16000 254.999
41.20000 240.188
41.24000 265.708
41.28000 267.049
41.32000 265.134
41.36000 259.710
41.40000 254.026
41.44000 255.599
41.48000 249.983
41.52000 262.390
41.56000 263.110
41.60000 253.292
41.64000 257.402
41.68000 246.603
41.72000 253.752
41.76000 247.280
41.80000 248.392
41.84000 255.748
41.88000 244.660
41.92000 247.766
41.96000 245.062
42.00000 253.035
42.04000 232.797
42.08000 244.278
42.12000 246.535
42.16000 238.401
42.20000 264.781
42.24000 242.133
42.28000 230.879
42.32000 251.622
42.36000 268.632
42.40000 251.765
42.44000 252.843
42.48000 248.956
42.52000 247.315
42.56000 224.302
42.60000 235.629
42.64000 242.157
42.68000 237.966
42.72000 236.305
42.76000 238.715
42.80000 241.156
42.84000 264.668
42.88000 227.796
42.92000 237.790
42.96000 257.213
43.00000 251.004
43.04000 249.857
43.08000 234.370
43.12000 245.382
43.16000 236.091
43.20000 251.961
43.24000 253.996
43.28000 232.329
43.32000 253.045
43.36000 232.677
43.40000 253.946
43.44000 246.864
43.48000 231.485
43.52000 245.956
43.56000 236.561
43.60000 233.341
43.64000 233.992
43.68000 243.242
43.72000 225.548
43.76000 243.306
43.80000 248.440
43.84000 242.799
43.88000 245.200
43.92000 255.943
43.96000 254.188
44.00000 244.463
44.04000 241.705
44.08000 249.153
44.12000 246.102
44.16000 259.864
44.20000 264.372
44.24000 270.858
44.28000 279.115
44.32000 278.568
44.36000 280.269
44.40000 319.516
44.44000 342.028
44.48000 370.454
44.52000 439.874
44.56000 490.190
44.60000 554.385
44.64000 634.548
44.68000 720.320
44.72000 801.723
44.76000 869.666
44.80000 864.302
44.84000 899.666
44.88000 855.222
44.92000 833.708
44.96000 767.004
45.00000 713.716
45.04000 646.428
45.08000 603.887
45.12000 544.969
45.16000 488.481
45.20000 455.920
45.24000 419.757
45.28000 395.354
45.32000 370.113
45.36000 351.595
45.40000 345.126
45.44000 318.207
45.48000 311.113
45.52000 296.316
45.56000 281.399
45.60000 262.123
45.64000 269.893
45.68000 256.452
45.72000 246.199
45.76000 246.312
45.80000 243.958
45.84000 240.319
45.88000 230.686
45.92000 230.178
45.96000 234.443
46.00000 226.240
46.04000 223.425
46.08000 213.863
46.12000 220.150
46.16000 222.685
46.20000 222.243
46.24000 217.569
46.28000 216.487
46.32000 220.788
46.36000 208.736
46.40000 221.257
46.44000 213.755
46.48000 212.419
46.52000 215.058
46.56000 209.061
46.60000 217.806
46.64000 211.659
46.68000 198.405
46.72000 205.341
46.76000 200.722
46.80000 212.310
46.84000 217.991
46.88000 208.239
46.92000 193.076
46.96000 202.451
47.00000 199.579
47.04000 199.862
47.08000 195.429
47.12000 201.689
47.16000 199.574
47.20000 199.797
47.24000 200.740
47.28000 197.338
47.32000 188.167
47.36000 193.489
47.40000 198.038
47.44000 199.655
47.48000 203.749
47.52000 195.655
47.56000 191.792
47.60000 191.179
47.64000 190.639
47.68000 196.289
47.72000 182.911
47.76000 200.099
47.80000 183.656
47.84000 180.369
47.88000 183.540
47.92000 202.593
47.96000 198.325
48.00000 201.852
48.04000 188.764
48.08000 206.783
48.12000 190.698
48.16000 187.163
48.20000 180.044
48.24000 191.639
48.28000 190.824
48.32000 180.340
48.36000 191.850
48.40000 185.604
48.44000 191.651
48.48000 198.417
48.52000 183.605
48.56000 189.872
48.60000 192.221
48.64000 185.487
48.68000 194.219
48.72000 185.783
48.76000 189.487
48.80000 192.379
48.84000 175.238
48.88000 196.871
48.92000 203.935
48.96000 173.401
49.00000 182.137
49.04000 184.068
49.08000 182.394
49.12000 192.643
49.16000 193.870
49.20000 191.979
49.24000 177.339
49.28000 179.438
49.32000 187.854
49.36000 176.201
49.40000 190.999
49.44000 216.236
49.48000 190.189
49.52000 185.039
49.56000 192.426
49.60000 189.059
49.64000 189.893
49.68000 188.925
49.72000 185.089
49.76000 171.503
49.80000 190.389
49.84000 183.163
49.88000 178.055
49.92000 189.589
49.96000 207.007
50.00000 182.915
50.04000 196.188
50.08000 189.715
50.12000 196.074
50.16000 209.461
50.20000 212.226
50.24000 211.556
50.28000 228.557
50.32000 250.139
50.36000 253.450
50.40000 279.446
50.44000 286.347
50.48000 279.437
50.52000 289.980
50.56000 286.207
50.60000 256.493
50.64000 254.501
50.68000 254.378
50.72000 249.832
50.76000 213.432
50.80000 222.300
50.84000 201.091
50.88000 217.158
50.92000 193.914
50.96000 198.146
51.00000 195.776
51.04000 186.361
51.08000 188.264
51.12000 190.422
51.16000 172.024
51.20000 185.225
51.24000 174.227
51.28000 183.913
51.32000 173.631
51.36000 168.302
51.40000 180.755
51.44000 184.945
51.48000 173.321
51.52000 172.350
51.56000 179.027
51.60000 175.010
51.64000 171.049
51.68000 175.003
51.72000 177.932
51.76000 173.268
51.80000 171.804
51.84000 176.167
51.88000 180.422
51.92000 174.033
51.96000 161.322
52.00000 164.787
52.04000 168.324
52.08000 181.102
52.12000 171.957
52.16000 170.765
52.20000 162.962
52.24000 174.171
52.28000 181.330
52.32000 165.195
52.36000 159.654
52.40000 163.615
52.44000 167.493
52.48000 169.218
52.52000 173.431
52.56000 174.865
52.60000 160.555
52.64000 171.465
52.68000 165.639
52.72000 163.445
52.76000 175.447
52.80000 168.786
52.84000 160.119
52.88000 170.642
52.92000 169.920
52.96000 177.919
53.00000 172.954
53.04000 171.188
53.08000 173.543
53.12000 175.144
53.16000 170.194
53.20000 164.575
53.24000 162.869
53.28000 173.420
53.32000 175.279
53.36000 170.141
53.40000 169.340
53.44000 164.686
53.48000 169.095
53.52000 161.317
53.56000 170.053
53.60000 166.339
53.64000 176.984
53.68000 165.627
53.72000 160.087
53.76000 163.645
53.80000 160.311
53.84000 153.674
53.88000 161.102
53.92000 148.809
53.96000 152.766
54.00000 165.564
54.04000 156.107
54.08000 162.087
54.12000 162.493
54.16000 181.615
54.20000 156.663
54.24000 146.566
54.28000 158.980
54.32000 164.541
54.36000 149.617
54.40000 162.808
54.44000 164.964
54.48000 170.526
54.52000 166.766
54.56000 167.197
54.60000 160.472
54.64000 164.544
54.68000 157.389
54.72000 165.705
54.76000 169.297
54.80000 178.565
54.84000 169.648
54.88000 163.143
54.92000 180.038
54.96000 179.485
55.00000 176.722
55.04000 178.070
55.08000 180.524
55.12000 176.660
55.16000 180.543
55.20000 192.524
55.24000 209.343
55.28000 236.475
55.32000 255.002
55.36000 282.717
55.40000 335.461
55.44000 412.737
55.48000 494.050
55.52000 580.944
55.56000 637.311
55.60000 694.900
55.64000 721.297
55.68000 710.596
55.72000 686.845
55.76000 624.871
55.80000 573.747
55.84000 498.917
55.88000 435.339
55.92000 370.986
55.96000 336.357
56.00000 288.889
56.04000 264.571
56.08000 237.636
56.12000 223.925
56.16000 214.801
56.20000 220.186
56.24000 195.998
56.28000 188.440
56.32000 196.599
56.36000 181.140
56.40000 186.072
56.44000 177.297
56.48000 184.132
56.52000 171.919
56.56000 172.970
56.60000 171.111
56.64000 174.484
56.68000 153.035
56.72000 159.834
56.76000 159.593
56.80000 153.595
56.84000 154.900
56.88000 153.563
56.92000 154.286
56.96000 159.154
57.00000 159.444
57.04000 144.428
57.08000 149.037
57.12000 152.960
57.16000 149.357
57.20000 148.528
57.24000 143.710
57.28000 147.945
57.32000 145.055
57.36000 144.655
57.40000 158.404
57.44000 144.024
57.48000 143.166
57.52000 141.992
57.56000 146.743
57.60000 142.513
57.64000 158.402
57.68000 148.440
57.72000 154.358
57.76000 145.632
57.80000 144.678
57.84000 141.559
57.88000 147.731
57.92000 155.269
57.96000 143.860
58.00000 151.507
58.04000 149.049
58.08000 147.904
58.12000 135.010
58.16000 141.331
58.20000 138.089
58.24000 144.338
58.28000 145.431
58.32000 154.083
58.36000 146.505
58.40000 147.355
58.44000 135.003
58.48000 149.102
58.52000 141.881
58.56000 141.592
58.60000 140.678
58.64000 139.418
58.68000 137.533
58.72000 141.095
58.76000 135.249
58.80000 134.107
58.84000 140.726
58.88000 131.122
58.92000 145.122
58.96000 142.912
59.00000 132.599
59.04000 134.327
59.08000 141.681
59.12000 134.271
59.16000 145.895
59.20000 131.701
59.24000 136.274
59.28000 144.807
59.32000 131.187
59.36000 129.035
59.40000 141.078
59.44000 143.682
59.48000 134.132
59.52000 138.367
59.56000 139.346
59.60000 136.421
59.64000 137.042
59.68000 139.641
59.72000 138.159
59.76000 139.413
59.80000 135.200
59.84000 135.055
59.88000 144.860
59.92000 137.400
59.96000 132.775
60.00000 148.640
60.04000 132.868
60.08000 143.963
60.12000 140.470
60.16000 140.435
60.20000 130.383
60.24000 138.052
60.28000 141.281
60.32000 136.532
60.36000 147.450
60.40000 127.276
60.44000 134.595
60.48000 129.102
60.52000 133.089
60.56000 136.508
60.60000 137.777
60.64000 143.152
60.68000 139.436
60.72000 127.939
60.76000 141.379
60.80000 140.908
60.84000 136.525
60.88000 130.798
60.92000 137.344
60.96000 146.835
61.00000 150.377
61.04000 134.012
61.08000 137.149
61.12000 138.586
61.16000 142.426
61.20000 147.776
61.24000 134.063
61.28000 141.293
61.32000 150.887
61.36000 152.021
61.40000 150.698
61.44000 145.298
61.48000 147.586
61.52000 174.344
61.56000 220.075
61.60000 281.664
61.64000 317.765
61.68000 345.242
61.72000 349.646
61.76000 339.853
61.80000 294.297
61.84000 217.758
61.88000 180.642
61.92000 154.220
61.96000 155.946
62.00000 157.628
62.04000 143.881
62.08000 147.699
62.12000 149.039
62.16000 148.462
62.20000 150.034
62.24000 142.205
62.28000 136.017
62.32000 138.014
62.36000 143.521
62.40000 144.690
62.44000 148.334
62.48000 146.640
62.52000 149.885
62.56000 150.597
62.60000 149.305
62.64000 136.353
62.68000 153.104
62.72000 145.635
62.76000 147.859
62.80000 143.514
62.84000 153.285
62.88000 149.474
62.92000 152.129
62.96000 144.562
63.00000 150.059
63.04000 158.091
63.08000 158.713
63.12000 156.831
63.16000 150.098
63.20000 161.201
63.24000 146.093
63.28000 143.809
63.32000 143.464
63.36000 152.945
63.40000 158.076
63.44000 140.337
63.48000 158.165
63.52000 152.424
63.56000 140.111
63.60000 147.652
63.64000 166.480
63.68000 153.500
63.72000 150.067
63.76000 152.284
63.80000 161.820
63.84000 157.773
63.88000 159.758
63.92000 162.060
63.96000 152.883
64.00000 158.640
64.04000 159.041
64.08000 168.171
64.12000 168.714
64.16000 171.039
64.20000 170.947
64.24000 167.656
64.28000 164.391
64.32000 172.736
64.36000 163.951
64.40000 153.286
64.44000 168.521
64.48000 169.895
64.52000 162.133
64.56000 170.432
64.60000 190.261
64.64000 176.172
64.68000 178.581
64.72000 184.362
64.76000 199.314
64.80000 194.601
64.84000 206.499
64.88000 216.512
64.92000 226.239
64.96000 258.125
65.00000 295.846
65.04000 324.613
65.08000 373.033
65.12000 432.823
65.16000 421.680
65.20000 464.049
65.24000 444.244
65.28000 442.433
65.32000 440.980
65.36000 423.950
65.40000 404.891
65.44000 361.883
65.48000 361.228
65.52000 336.432
65.56000 350.347
65.60000 327.636
65.64000 371.241
65.68000 441.628
65.72000 603.436
65.76000 877.646
65.80000 1215.159
65.84000 1367.830
65.88000 1411.128
65.92000 1394.072
65.96000 1258.883
66.00000 898.600
66.04000 605.321
66.08000 430.159
66.12000 362.035
66.16000 331.300
66.20000 342.139
66.24000 344.687
66.28000 385.099
66.32000 448.254
66.36000 505.074
66.40000 533.763
66.44000 533.083
66.48000 539.580
66.52000 512.987
66.56000 416.888
66.60000 361.865
66.64000 350.408
66.68000 353.523
66.72000 342.062
66.76000 341.434
66.80000 351.688
66.84000 359.423
66.88000 374.294
66.92000 372.076
66.96000 353.863
67.00000 355.931
67.04000 392.199
67.08000 372.321
67.12000 396.191
67.16000 401.317
67.20000 403.899
67.24000 416.639
67.28000 418.820
67.32000 438.212
67.36000 434.700
67.40000 449.845
67.44000 458.055
67.48000 460.469
67.52000 476.344
67.56000 473.068
67.60000 468.657
67.64000 493.273
67.68000 502.061
67.72000 528.531
67.76000 533.104
67.80000 521.282
67.84000 541.836
67.88000 539.330
67.92000 568.041
67.96000 586.928
68.00000 578.623
68.04000 620.712
68.08000 611.485
68.12000 623.108
68.16000 648.522
68.20000 683.774
68.24000 691.294
68.28000 707.316
68.32000 732.619
68.36000 775.868
68.40000 789.258
68.44000 822.159
68.48000 855.840
68.52000 913.070
68.56000 990.191
68.60000 1103.897
68.64000 1316.655
68.68000 1571.001
68.72000 1896.524
68.76000 2157.353
68.80000 2506.355
68.84000 2942.282
68.88000 3739.118
68.92000 6407.766
68.96000 15170.664
69.00000 37020.348
69.04000 64649.609
69.08000 80255.820
69.12000 84247.703
69.16000 87080.523
69.20000 88751.320
69.24000 79321.281
69.28000 59754.605
69.32000 47294.926
69.36000 42175.438
69.40000 36104.270
69.44000 24490.076
69.48000 11580.904
69.52000 4776.108
69.56000 2786.768
69.60000 2014.129
69.64000 1641.706
69.68000 1443.820
69.72000 1259.836
69.76000 1140.234
69.80000 1030.351
69.84000 975.958
69.88000 906.591
69.92000 850.287
69.96000 820.512
70.00000 765.866