File: XRD/XRD/22-09-2025 Dep 2/XY Data/BTO_Mapping_Theta2Theta_22-09-2025_001_26_-11-126_48-746.xy
20.00000 602.921
20.04000 622.651
20.08000 599.752
20.12000 575.367
20.16000 603.361
20.20000 600.545
20.24000 575.826
20.28000 593.091
20.32000 604.374
20.36000 594.834
20.40000 592.386
20.44000 585.162
20.48000 594.418
20.52000 618.880
20.56000 592.458
20.60000 636.810
20.64000 603.214
20.68000 583.259
20.72000 587.898
20.76000 595.158
20.80000 584.956
20.84000 632.813
20.88000 603.998
20.92000 561.764
20.96000 589.997
21.00000 601.945
21.04000 593.019
21.08000 594.321
21.12000 605.040
21.16000 604.901
21.20000 598.966
21.24000 604.828
21.28000 580.091
21.32000 588.280
21.36000 609.492
21.40000 578.644
21.44000 584.053
21.48000 589.220
21.52000 593.645
21.56000 585.091
21.60000 589.279
21.64000 563.212
21.68000 574.325
21.72000 586.294
21.76000 594.367
21.80000 575.392
21.84000 589.451
21.88000 604.460
21.92000 583.953
21.96000 601.830
22.00000 578.836
22.04000 609.219
22.08000 578.258
22.12000 597.622
22.16000 593.593
22.20000 590.480
22.24000 583.434
22.28000 601.084
22.32000 584.823
22.36000 573.779
22.40000 599.511
22.44000 573.080
22.48000 583.538
22.52000 568.604
22.56000 588.031
22.60000 600.617
22.64000 591.414
22.68000 578.392
22.72000 600.065
22.76000 584.597
22.80000 569.522
22.84000 588.247
22.88000 570.191
22.92000 580.924
22.96000 592.630
23.00000 592.895
23.04000 566.169
23.08000 590.951
23.12000 575.434
23.16000 577.622
23.20000 563.714
23.24000 585.043
23.28000 573.094
23.32000 597.512
23.36000 598.323
23.40000 585.496
23.44000 577.018
23.48000 588.912
23.52000 597.233
23.56000 578.006
23.60000 594.171
23.64000 591.310
23.68000 584.770
23.72000 589.147
23.76000 562.096
23.80000 599.173
23.84000 603.394
23.88000 575.609
23.92000 593.870
23.96000 600.340
24.00000 588.834
24.04000 588.992
24.08000 575.243
24.12000 599.758
24.16000 591.336
24.20000 592.008
24.24000 572.663
24.28000 600.848
24.32000 584.261
24.36000 605.205
24.40000 570.079
24.44000 599.823
24.48000 608.861
24.52000 600.782
24.56000 583.195
24.60000 599.751
24.64000 599.254
24.68000 590.328
24.72000 612.514
24.76000 582.355
24.80000 599.270
24.84000 566.635
24.88000 589.761
24.92000 595.320
24.96000 587.036
25.00000 584.247
25.04000 583.771
25.08000 594.513
25.12000 562.683
25.16000 587.811
25.20000 581.406
25.24000 587.048
25.28000 577.899
25.32000 583.381
25.36000 604.348
25.40000 587.520
25.44000 594.413
25.48000 578.604
25.52000 587.753
25.56000 587.231
25.60000 607.388
25.64000 615.079
25.68000 604.642
25.72000 594.817
25.76000 596.438
25.80000 596.079
25.84000 603.783
25.88000 594.963
25.92000 605.646
25.96000 576.926
26.00000 599.727
26.04000 613.941
26.08000 603.595
26.12000 601.401
26.16000 603.825
26.20000 606.828
26.24000 586.239
26.28000 582.533
26.32000 596.579
26.36000 624.626
26.40000 611.523
26.44000 598.987
26.48000 606.186
26.52000 603.006
26.56000 604.805
26.60000 621.497
26.64000 600.282
26.68000 601.170
26.72000 612.808
26.76000 584.449
26.80000 603.016
26.84000 597.288
26.88000 587.589
26.92000 605.273
26.96000 598.324
27.00000 597.505
27.04000 615.021
27.08000 620.515
27.12000 593.498
27.16000 603.928
27.20000 603.064
27.24000 630.143
27.28000 616.807
27.32000 622.307
27.36000 613.873
27.40000 598.579
27.44000 607.251
27.48000 613.949
27.52000 626.815
27.56000 611.049
27.60000 613.075
27.64000 602.616
27.68000 598.633
27.72000 611.583
27.76000 625.552
27.80000 606.988
27.84000 603.346
27.88000 614.130
27.92000 633.526
27.96000 608.526
28.00000 600.881
28.04000 622.126
28.08000 615.881
28.12000 630.250
28.16000 627.372
28.20000 618.305
28.24000 615.424
28.28000 604.971
28.32000 593.824
28.36000 624.128
28.40000 637.374
28.44000 607.355
28.48000 621.099
28.52000 611.009
28.56000 630.678
28.60000 635.811
28.64000 637.707
28.68000 593.553
28.72000 614.762
28.76000 640.731
28.80000 633.083
28.84000 617.128
28.88000 640.503
28.92000 631.909
28.96000 634.854
29.00000 621.793
29.04000 625.665
29.08000 640.477
29.12000 626.118
29.16000 639.950
29.20000 653.256
29.24000 642.197
29.28000 648.532
29.32000 618.716
29.36000 620.400
29.40000 655.330
29.44000 638.642
29.48000 634.584
29.52000 622.374
29.56000 641.883
29.60000 661.743
29.64000 644.071
29.68000 649.967
29.72000 624.710
29.76000 661.772
29.80000 676.575
29.84000 655.382
29.88000 628.341
29.92000 637.146
29.96000 641.046
30.00000 634.814
30.04000 624.280
30.08000 644.428
30.12000 624.976
30.16000 677.226
30.20000 641.124
30.24000 634.719
30.28000 649.149
30.32000 673.812
30.36000 669.129
30.40000 668.878
30.44000 653.319
30.48000 652.921
30.52000 663.417
30.56000 666.581
30.60000 649.215
30.64000 663.890
30.68000 651.508
30.72000 669.896
30.76000 685.941
30.80000 659.702
30.84000 665.437
30.88000 652.249
30.92000 645.988
30.96000 667.810
31.00000 677.268
31.04000 669.050
31.08000 673.728
31.12000 654.335
31.16000 665.001
31.20000 643.031
31.24000 671.407
31.28000 677.903
31.32000 686.981
31.36000 691.454
31.40000 658.708
31.44000 666.275
31.48000 682.872
31.52000 668.951
31.56000 685.302
31.60000 688.466
31.64000 676.027
31.68000 705.724
31.72000 670.320
31.76000 686.319
31.80000 674.562
31.84000 664.326
31.88000 653.735
31.92000 673.829
31.96000 685.509
32.00000 691.483
32.04000 676.200
32.08000 700.516
32.12000 681.150
32.16000 682.604
32.20000 662.940
32.24000 676.466
32.28000 709.218
32.32000 672.000
32.36000 697.154
32.40000 675.226
32.44000 678.815
32.48000 686.312
32.52000 665.051
32.56000 698.110
32.60000 698.378
32.64000 669.488
32.68000 715.958
32.72000 697.007
32.76000 692.334
32.80000 706.844
32.84000 701.395
32.88000 702.419
32.92000 703.871
32.96000 690.247
33.00000 706.432
33.04000 693.766
33.08000 719.365
33.12000 709.447
33.16000 706.929
33.20000 718.073
33.24000 701.472
33.28000 717.604
33.32000 718.060
33.36000 699.355
33.40000 713.260
33.44000 723.742
33.48000 724.625
33.52000 728.237
33.56000 748.448
33.60000 739.105
33.64000 714.150
33.68000 731.013
33.72000 714.397
33.76000 711.652
33.80000 745.810
33.84000 745.160
33.88000 749.780
33.92000 706.676
33.96000 744.218
34.00000 724.426
34.04000 736.086
34.08000 740.133
34.12000 744.326
34.16000 737.762
34.20000 753.414
34.24000 728.074
34.28000 736.036
34.32000 733.608
34.36000 739.120
34.40000 737.542
34.44000 732.840
34.48000 744.017
34.52000 752.683
34.56000 745.854
34.60000 757.623
34.64000 745.010
34.68000 757.170
34.72000 755.321
34.76000 768.089
34.80000 758.765
34.84000 750.745
34.88000 772.110
34.92000 778.419
34.96000 752.215
35.00000 761.753
35.04000 764.686
35.08000 767.405
35.12000 775.130
35.16000 823.404
35.20000 769.828
35.24000 781.408
35.28000 759.793
35.32000 767.177
35.36000 762.537
35.40000 776.541
35.44000 766.790
35.48000 746.109
35.52000 763.834
35.56000 779.490
35.60000 749.606
35.64000 773.238
35.68000 819.507
35.72000 764.179
35.76000 776.578
35.80000 773.239
35.84000 772.031
35.88000 758.062
35.92000 807.754
35.96000 815.201
36.00000 749.751
36.04000 764.732
36.08000 783.330
36.12000 786.614
36.16000 780.217
36.20000 773.474
36.24000 801.899
36.28000 782.148
36.32000 796.092
36.36000 799.439
36.40000 801.432
36.44000 783.148
36.48000 790.053
36.52000 794.977
36.56000 803.316
36.60000 790.644
36.64000 829.802
36.68000 814.148
36.72000 821.903
36.76000 787.568
36.80000 798.174
36.84000 814.857
36.88000 804.781
36.92000 798.549
36.96000 781.717
37.00000 813.455
37.04000 802.818
37.08000 818.693
37.12000 839.760
37.16000 832.308
37.20000 807.927
37.24000 806.985
37.28000 849.285
37.32000 810.881
37.36000 847.328
37.40000 852.797
37.44000 826.351
37.48000 827.746
37.52000 844.069
37.56000 864.055
37.60000 844.299
37.64000 814.043
37.68000 836.179
37.72000 818.054
37.76000 844.037
37.80000 833.119
37.84000 842.218
37.88000 812.743
37.92000 861.228
37.96000 861.582
38.00000 859.311
38.04000 863.131
38.08000 875.585
38.12000 859.397
38.16000 853.375
38.20000 853.906
38.24000 867.376
38.28000 849.215
38.32000 865.185
38.36000 886.348
38.40000 824.922
38.44000 854.014
38.48000 867.395
38.52000 862.579
38.56000 868.618
38.60000 867.273
38.64000 852.895
38.68000 890.985
38.72000 852.236
38.76000 879.549
38.80000 856.019
38.84000 858.650
38.88000 885.960
38.92000 913.111
38.96000 895.684
39.00000 885.407
39.04000 885.037
39.08000 901.225
39.12000 881.231
39.16000 875.792
39.20000 891.667
39.24000 886.883
39.28000 884.634
39.32000 878.437
39.36000 890.151
39.40000 892.465
39.44000 914.426
39.48000 898.448
39.52000 889.912
39.56000 919.775
39.60000 919.535
39.64000 899.914
39.68000 890.832
39.72000 919.152
39.76000 917.271
39.80000 927.880
39.84000 885.324
39.88000 916.393
39.92000 917.111
39.96000 920.458
40.00000 913.091
40.04000 928.384
40.08000 918.243
40.12000 900.477
40.16000 918.704
40.20000 955.107
40.24000 920.697
40.28000 915.377
40.32000 925.431
40.36000 963.555
40.40000 934.367
40.44000 922.842
40.48000 948.513
40.52000 928.102
40.56000 937.815
40.60000 922.784
40.64000 953.194
40.68000 925.914
40.72000 954.348
40.76000 946.949
40.80000 960.531
40.84000 948.324
40.88000 934.071
40.92000 944.157
40.96000 942.504
41.00000 959.452
41.04000 955.371
41.08000 989.094
41.12000 977.058
41.16000 954.042
41.20000 976.636
41.24000 949.483
41.28000 962.083
41.32000 943.070
41.36000 969.783
41.40000 975.337
41.44000 1011.651
41.48000 983.481
41.52000 982.633
41.56000 968.958
41.60000 973.429
41.64000 978.646
41.68000 981.089
41.72000 982.706
41.76000 987.727
41.80000 998.416
41.84000 994.845
41.88000 1015.812
41.92000 1004.778
41.96000 995.659
42.00000 1002.953
42.04000 976.753
42.08000 995.656
42.12000 1019.960
42.16000 1036.268
42.20000 1029.226
42.24000 1018.386
42.28000 1033.168
42.32000 1040.625
42.36000 1012.153
42.40000 1043.019
42.44000 1043.781
42.48000 1044.437
42.52000 1015.083
42.56000 1030.552
42.60000 1067.150
42.64000 1043.328
42.68000 1047.627
42.72000 1007.357
42.76000 1056.981
42.80000 1060.312
42.84000 1040.829
42.88000 1047.320
42.92000 1034.614
42.96000 1042.187
43.00000 1017.382
43.04000 1055.156
43.08000 1042.037
43.12000 1050.233
43.16000 1056.044
43.20000 1061.998
43.24000 1077.175
43.28000 1056.184
43.32000 1069.772
43.36000 1080.828
43.40000 1109.553
43.44000 1088.148
43.48000 1111.638
43.52000 1101.707
43.56000 1127.892
43.60000 1132.530
43.64000 1159.515
43.68000 1189.929
43.72000 1213.375
43.76000 1258.828
43.80000 1284.346
43.84000 1369.322
43.88000 1430.652
43.92000 1519.030
43.96000 1740.303
44.00000 1914.564
44.04000 2166.749
44.08000 2468.974
44.12000 2791.779
44.16000 3099.351
44.20000 3360.375
44.24000 3488.446
44.28000 3458.921
44.32000 3323.222
44.36000 3075.502
44.40000 2842.327
44.44000 2503.307
44.48000 2174.104
44.52000 1922.068
44.56000 1730.727
44.60000 1584.915
44.64000 1455.719
44.68000 1359.611
44.72000 1289.865
44.76000 1225.479
44.80000 1213.421
44.84000 1225.164
44.88000 1203.438
44.92000 1167.611
44.96000 1152.937
45.00000 1179.965
45.04000 1142.204
45.08000 1166.648
45.12000 1134.162
45.16000 1139.968
45.20000 1166.131
45.24000 1125.472
45.28000 1115.417
45.32000 1114.368
45.36000 1140.589
45.40000 1128.362
45.44000 1104.802
45.48000 1117.415
45.52000 1152.668
45.56000 1113.212
45.60000 1165.704
45.64000 1157.726
45.68000 1105.211
45.72000 1106.528
45.76000 1118.383
45.80000 1128.410
45.84000 1123.552
45.88000 1157.812
45.92000 1140.848
45.96000 1116.875
46.00000 1162.400
46.04000 1133.902
46.08000 1141.012
46.12000 1134.137
46.16000 1126.852
46.20000 1120.861
46.24000 1122.245
46.28000 1141.613
46.32000 1144.368
46.36000 1138.926
46.40000 1160.729
46.44000 1140.357
46.48000 1133.500
46.52000 1146.602
46.56000 1154.841
46.60000 1185.110
46.64000 1180.415
46.68000 1169.875
46.72000 1180.716
46.76000 1160.408
46.80000 1154.076
46.84000 1182.702
46.88000 1166.945
46.92000 1182.296
46.96000 1135.031
47.00000 1162.325
47.04000 1150.091
47.08000 1165.349
47.12000 1198.959
47.16000 1181.086
47.20000 1185.276
47.24000 1178.883
47.28000 1176.325
47.32000 1163.048
47.36000 1145.764
47.40000 1189.648
47.44000 1205.944
47.48000 1183.388
47.52000 1191.852
47.56000 1188.344
47.60000 1214.041
47.64000 1203.810
47.68000 1176.691
47.72000 1185.661
47.76000 1181.597
47.80000 1216.258
47.84000 1172.111
47.88000 1176.050
47.92000 1209.054
47.96000 1217.651
48.00000 1186.588
48.04000 1182.192
48.08000 1235.768
48.12000 1184.577
48.16000 1235.882
48.20000 1226.792
48.24000 1211.149
48.28000 1203.977
48.32000 1178.755
48.36000 1225.653
48.40000 1189.174
48.44000 1240.815
48.48000 1258.935
48.52000 1228.354
48.56000 1233.808
48.60000 1208.346
48.64000 1221.582
48.68000 1195.694
48.72000 1220.097
48.76000 1210.449
48.80000 1251.848
48.84000 1256.048
48.88000 1225.647
48.92000 1221.133
48.96000 1267.829
49.00000 1243.919
49.04000 1241.320
49.08000 1243.839
49.12000 1249.255
49.16000 1229.404
49.20000 1213.020
49.24000 1259.295
49.28000 1238.952
49.32000 1242.763
49.36000 1265.632
49.40000 1266.356
49.44000 1282.052
49.48000 1246.438
49.52000 1222.532
49.56000 1230.410
49.60000 1244.532
49.64000 1247.648
49.68000 1260.178
49.72000 1284.424
49.76000 1246.208
49.80000 1264.513
49.84000 1280.615
49.88000 1269.275
49.92000 1256.290
49.96000 1271.646
50.00000 1263.154
50.04000 1263.856
50.08000 1271.101
50.12000 1291.380
50.16000 1294.431
50.20000 1277.769
50.24000 1238.670
50.28000 1247.399
50.32000 1277.641
50.36000 1289.079
50.40000 1285.125
50.44000 1284.231
50.48000 1268.263
50.52000 1251.559
50.56000 1290.760
50.60000 1359.332
50.64000 1294.754
50.68000 1312.934
50.72000 1285.771
50.76000 1289.688
50.80000 1317.919
50.84000 1285.403
50.88000 1290.500
50.92000 1278.621
50.96000 1307.080
51.00000 1321.206
51.04000 1316.244
51.08000 1349.081
51.12000 1332.586
51.16000 1322.722
51.20000 1306.249
51.24000 1306.791
51.28000 1323.850
51.32000 1292.844
51.36000 1334.032
51.40000 1301.208
51.44000 1317.160
51.48000 1334.449
51.52000 1325.864
51.56000 1300.346
51.60000 1328.223
51.64000 1340.224
51.68000 1319.040
51.72000 1319.328
51.76000 1338.562
51.80000 1312.351
51.84000 1326.056
51.88000 1336.117
51.92000 1350.155
51.96000 1316.809
52.00000 1356.645
52.04000 1366.089
52.08000 1328.686
52.12000 1367.580
52.16000 1338.859
52.20000 1373.895
52.24000 1348.781
52.28000 1308.500
52.32000 1358.647
52.36000 1352.468
52.40000 1378.923
52.44000 1371.068
52.48000 1361.308
52.52000 1362.349
52.56000 1363.590
52.60000 1361.507
52.64000 1362.087
52.68000 1330.179
52.72000 1347.547
52.76000 1370.191
52.80000 1351.930
52.84000 1359.742
52.88000 1348.221
52.92000 1365.060
52.96000 1385.003
53.00000 1342.570
53.04000 1374.734
53.08000 1362.957
53.12000 1377.164
53.16000 1393.274
53.20000 1396.245
53.24000 1355.568
53.28000 1380.847
53.32000 1413.245
53.36000 1398.618
53.40000 1387.559
53.44000 1400.106
53.48000 1389.467
53.52000 1341.662
53.56000 1376.745
53.60000 1396.068
53.64000 1363.861
53.68000 1372.544
53.72000 1404.991
53.76000 1410.582
53.80000 1385.849
53.84000 1386.860
53.88000 1405.077
53.92000 1428.553
53.96000 1393.561
54.00000 1388.654
54.04000 1411.661
54.08000 1414.116
54.12000 1404.049
54.16000 1424.870
54.20000 1423.129
54.24000 1408.411
54.28000 1389.479
54.32000 1411.380
54.36000 1433.104
54.40000 1418.151
54.44000 1403.532
54.48000 1387.311
54.52000 1435.951
54.56000 1432.825
54.60000 1423.902
54.64000 1418.924
54.68000 1440.299
54.72000 1426.970
54.76000 1465.901
54.80000 1420.426
54.84000 1434.841
54.88000 1395.854
54.92000 1434.585
54.96000 1415.629
55.00000 1414.956
55.04000 1429.802
55.08000 1476.330
55.12000 1456.457
55.16000 1419.437
55.20000 1431.901
55.24000 1459.949
55.28000 1446.354
55.32000 1427.189
55.36000 1448.854
55.40000 1433.665
55.44000 1463.531
55.48000 1450.103
55.52000 1443.588
55.56000 1463.273
55.60000 1440.256
55.64000 1448.201
55.68000 1460.263
55.72000 1438.689
55.76000 1474.078
55.80000 1461.356
55.84000 1431.524
55.88000 1475.157
55.92000 1477.971
55.96000 1458.435
56.00000 1474.311
56.04000 1479.878
56.08000 1455.947
56.12000 1449.227
56.16000 1456.118
56.20000 1455.765
56.24000 1466.412
56.28000 1490.806
56.32000 1492.791
56.36000 1493.700
56.40000 1487.858
56.44000 1479.586
56.48000 1495.097
56.52000 1469.659
56.56000 1499.603
56.60000 1473.469
56.64000 1483.838
56.68000 1470.171
56.72000 1501.340
56.76000 1526.791
56.80000 1497.006
56.84000 1500.641
56.88000 1491.758
56.92000 1474.240
56.96000 1486.103
57.00000 1501.179
57.04000 1509.478
57.08000 1488.753
57.12000 1510.774
57.16000 1532.770
57.20000 1497.090
57.24000 1467.520
57.28000 1526.003
57.32000 1516.881
57.36000 1507.499
57.40000 1498.648
57.44000 1523.282
57.48000 1489.683
57.52000 1532.740
57.56000 1488.432
57.60000 1483.976
57.64000 1513.166
57.68000 1521.294
57.72000 1528.026
57.76000 1525.918
57.80000 1510.694
57.84000 1502.468
57.88000 1538.918
57.92000 1551.043
57.96000 1539.917
58.00000 1553.637
58.04000 1553.205
58.08000 1546.252
58.12000 1514.346
58.16000 1512.765
58.20000 1548.249
58.24000 1544.320
58.28000 1518.039
58.32000 1533.674
58.36000 1522.329
58.40000 1511.986
58.44000 1520.314
58.48000 1537.427
58.52000 1551.892
58.56000 1560.689
58.60000 1550.746
58.64000 1555.858
58.68000 1528.687
58.72000 1569.110
58.76000 1548.991
58.80000 1543.747
58.84000 1530.887
58.88000 1553.252
58.92000 1540.534
58.96000 1562.458
59.00000 1568.641
59.04000 1558.706
59.08000 1504.438
59.12000 1535.369
59.16000 1583.888
59.20000 1553.358
59.24000 1549.596
59.28000 1569.934
59.32000 1542.176
59.36000 1573.572
59.40000 1577.493
59.44000 1547.567
59.48000 1552.702
59.52000 1610.205
59.56000 1567.458
59.60000 1541.383
59.64000 1553.345
59.68000 1587.641
59.72000 1582.184
59.76000 1554.760
59.80000 1597.136
59.84000 1604.710
59.88000 1554.889
59.92000 1566.063
59.96000 1585.282
60.00000 1619.067
60.04000 1570.172
60.08000 1606.837
60.12000 1575.296
60.16000 1561.535
60.20000 1543.864
60.24000 1594.222
60.28000 1624.609
60.32000 1624.060
60.36000 1588.872
60.40000 1565.952
60.44000 1585.814
60.48000 1581.003
60.52000 1596.490
60.56000 1581.200
60.60000 1600.046
60.64000 1581.044
60.68000 1595.349
60.72000 1580.103
60.76000 1607.112
60.80000 1598.619
60.84000 1589.350
60.88000 1596.278
60.92000 1608.163
60.96000 1626.433
61.00000 1621.332
61.04000 1587.655
61.08000 1600.999
61.12000 1658.519
61.16000 1652.529
61.20000 1618.993
61.24000 1603.719
61.28000 1628.191
61.32000 1607.757
61.36000 1647.479
61.40000 1624.008
61.44000 1644.451
61.48000 1632.634
61.52000 1636.003
61.56000 1615.716
61.60000 1620.507
61.64000 1653.072
61.68000 1629.645
61.72000 1627.210
61.76000 1649.367
61.80000 1649.099
61.84000 1670.591
61.88000 1642.992
61.92000 1638.414
61.96000 1647.508
62.00000 1631.200
62.04000 1616.000
62.08000 1648.555
62.12000 1649.801
62.16000 1633.697
62.20000 1626.002
62.24000 1637.650
62.28000 1662.055
62.32000 1649.987
62.36000 1649.518
62.40000 1659.085
62.44000 1642.944
62.48000 1674.084
62.52000 1642.482
62.56000 1639.184
62.60000 1641.086
62.64000 1650.973
62.68000 1662.735
62.72000 1619.865
62.76000 1646.250
62.80000 1690.166
62.84000 1703.340
62.88000 1691.123
62.92000 1679.583
62.96000 1677.385
63.00000 1720.149
63.04000 1644.250
63.08000 1676.623
63.12000 1692.026
63.16000 1689.918
63.20000 1671.839
63.24000 1666.578
63.28000 1679.219
63.32000 1689.517
63.36000 1643.891
63.40000 1663.043
63.44000 1674.337
63.48000 1657.036
63.52000 1672.385
63.56000 1724.921
63.60000 1680.396
63.64000 1688.286
63.68000 1665.692
63.72000 1699.723
63.76000 1700.873
63.80000 1693.171
63.84000 1713.079
63.88000 1692.500
63.92000 1707.268
63.96000 1690.607
64.00000 1716.249
64.04000 1725.230
64.08000 1754.416
64.12000 1775.739
64.16000 1751.359
64.20000 1774.089
64.24000 1844.426
64.28000 1791.182
64.32000 1858.478
64.36000 1868.001
64.40000 1923.815
64.44000 1929.262
64.48000 1908.435
64.52000 2012.766
64.56000 2005.652
64.60000 2030.579
64.64000 1977.146
64.68000 1975.456
64.72000 1930.403
64.76000 1931.697
64.80000 1918.420
64.84000 1896.321
64.88000 1889.914
64.92000 1863.119
64.96000 1842.140
65.00000 1826.831
65.04000 1786.927
65.08000 1751.039
65.12000 1737.562
65.16000 1774.023
65.20000 1757.645
65.24000 1789.263
65.28000 1745.032
65.32000 1762.041
65.36000 1737.321
65.40000 1705.578
65.44000 1728.514
65.48000 1746.837
65.52000 1739.546
65.56000 1763.654
65.60000 1728.208
65.64000 1738.199
65.68000 1747.312
65.72000 1744.479
65.76000 1777.431
65.80000 1779.963
65.84000 1817.012
65.88000 1780.402
65.92000 1774.398
65.96000 1789.362
66.00000 1748.034
66.04000 1749.229
66.08000 1753.291
66.12000 1776.472
66.16000 1761.731
66.20000 1741.998
66.24000 1755.966
66.28000 1727.249
66.32000 1700.059
66.36000 1790.581
66.40000 1743.596
66.44000 1741.479
66.48000 1754.639
66.52000 1740.844
66.56000 1761.547
66.60000 1769.981
66.64000 1745.509
66.68000 1740.466
66.72000 1776.578
66.76000 1752.543
66.80000 1742.574
66.84000 1756.062
66.88000 1751.241
66.92000 1738.289
66.96000 1751.606
67.00000 1779.519
67.04000 1749.754
67.08000 1787.771
67.12000 1777.094
67.16000 1785.828
67.20000 1776.503
67.24000 1763.243
67.28000 1741.656
67.32000 1793.246
67.36000 1766.146
67.40000 1784.013
67.44000 1773.847
67.48000 1778.159
67.52000 1733.980
67.56000 1804.662
67.60000 1818.860
67.64000 1814.454
67.68000 1792.098
67.72000 1790.983
67.76000 1798.487
67.80000 1791.866
67.84000 1755.095
67.88000 1822.733
67.92000 1799.759
67.96000 1794.211
68.00000 1807.567
68.04000 1787.376
68.08000 1831.863
68.12000 1821.944
68.16000 1777.051
68.20000 1775.875
68.24000 1802.314
68.28000 1812.966
68.32000 1808.018
68.36000 1811.251
68.40000 1815.353
68.44000 1807.064
68.48000 1802.646
68.52000 1818.313
68.56000 1820.791
68.60000 1815.433
68.64000 1824.167
68.68000 1774.659
68.72000 1840.965
68.76000 1860.314
68.80000 1880.774
68.84000 1896.608
68.88000 1976.608
68.92000 2091.186
68.96000 2490.278
69.00000 3128.983
69.04000 3730.047
69.08000 3987.498
69.12000 4053.352
69.16000 4108.288
69.20000 3996.347
69.24000 3581.267
69.28000 3107.357
69.32000 2954.366
69.36000 2848.333
69.40000 2578.281
69.44000 2264.200
69.48000 2009.421
69.52000 1866.686
69.56000 1869.498
69.60000 1858.621
69.64000 1857.803
69.68000 1873.363
69.72000 1854.253
69.76000 1844.351
69.80000 1833.603
69.84000 1828.484
69.88000 1826.699
69.92000 1804.445
69.96000 1819.706
70.00000 1844.970