File: XRD/XRD/22-09-2025 Dep 2/XY Data/BTO_Mapping_Theta2Theta_22-09-2025_001_71_45-048_-21-694.xy
20.00000 1062.700
20.04000 1043.691
20.08000 1060.250
20.12000 1034.096
20.16000 1034.911
20.20000 1046.373
20.24000 1045.232
20.28000 1063.674
20.32000 1045.280
20.36000 1033.115
20.40000 1052.458
20.44000 1021.848
20.48000 1025.190
20.52000 1044.530
20.56000 1032.845
20.60000 998.494
20.64000 1027.159
20.68000 1033.403
20.72000 1007.122
20.76000 992.547
20.80000 970.135
20.84000 988.206
20.88000 983.698
20.92000 979.570
20.96000 993.062
21.00000 988.795
21.04000 997.887
21.08000 959.412
21.12000 961.310
21.16000 956.203
21.20000 963.823
21.24000 971.741
21.28000 994.619
21.32000 979.909
21.36000 984.251
21.40000 984.392
21.44000 948.896
21.48000 973.128
21.52000 964.443
21.56000 949.427
21.60000 967.115
21.64000 955.612
21.68000 938.539
21.72000 958.770
21.76000 941.521
21.80000 920.211
21.84000 929.649
21.88000 928.538
21.92000 943.138
21.96000 936.331
22.00000 939.016
22.04000 924.957
22.08000 929.910
22.12000 934.438
22.16000 919.253
22.20000 900.534
22.24000 892.724
22.28000 923.466
22.32000 901.466
22.36000 890.987
22.40000 909.385
22.44000 911.493
22.48000 913.217
22.52000 866.973
22.56000 861.497
22.60000 900.163
22.64000 868.026
22.68000 861.590
22.72000 861.964
22.76000 901.495
22.80000 910.299
22.84000 854.739
22.88000 852.074
22.92000 880.936
22.96000 857.343
23.00000 874.759
23.04000 880.037
23.08000 866.038
23.12000 870.672
23.16000 861.219
23.20000 862.244
23.24000 863.884
23.28000 861.838
23.32000 820.144
23.36000 846.198
23.40000 848.850
23.44000 863.611
23.48000 829.512
23.52000 833.709
23.56000 818.890
23.60000 846.615
23.64000 833.463
23.68000 831.339
23.72000 848.704
23.76000 839.501
23.80000 831.765
23.84000 827.961
23.88000 832.734
23.92000 840.602
23.96000 834.822
24.00000 801.094
24.04000 820.056
24.08000 836.279
24.12000 815.205
24.16000 809.129
24.20000 793.141
24.24000 785.033
24.28000 763.775
24.32000 815.191
24.36000 788.693
24.40000 807.055
24.44000 790.503
24.48000 791.952
24.52000 782.022
24.56000 800.672
24.60000 780.674
24.64000 783.854
24.68000 807.830
24.72000 779.360
24.76000 753.672
24.80000 776.752
24.84000 747.523
24.88000 772.471
24.92000 796.402
24.96000 767.012
25.00000 773.356
25.04000 740.595
25.08000 772.964
25.12000 751.521
25.16000 747.850
25.20000 760.828
25.24000 750.632
25.28000 759.709
25.32000 748.683
25.36000 750.691
25.40000 747.783
25.44000 731.630
25.48000 750.412
25.52000 742.588
25.56000 757.063
25.60000 723.269
25.64000 748.060
25.68000 737.153
25.72000 740.783
25.76000 724.816
25.80000 722.511
25.84000 770.718
25.88000 705.555
25.92000 725.777
25.96000 719.108
26.00000 721.368
26.04000 729.711
26.08000 695.960
26.12000 731.021
26.16000 688.271
26.20000 696.820
26.24000 694.159
26.28000 724.523
26.32000 697.927
26.36000 704.519
26.40000 714.589
26.44000 716.641
26.48000 696.420
26.52000 692.017
26.56000 709.446
26.60000 687.815
26.64000 709.662
26.68000 691.290
26.72000 670.966
26.76000 671.178
26.80000 682.015
26.84000 686.060
26.88000 674.903
26.92000 692.066
26.96000 673.502
27.00000 697.827
27.04000 674.511
27.08000 646.995
27.12000 658.606
27.16000 680.423
27.20000 669.714
27.24000 669.578
27.28000 669.106
27.32000 663.783
27.36000 651.907
27.40000 647.326
27.44000 667.075
27.48000 656.737
27.52000 638.030
27.56000 636.242
27.60000 641.085
27.64000 657.916
27.68000 636.570
27.72000 657.507
27.76000 648.549
27.80000 633.845
27.84000 649.891
27.88000 628.848
27.92000 638.190
27.96000 654.714
28.00000 650.472
28.04000 633.227
28.08000 638.213
28.12000 634.678
28.16000 641.133
28.20000 622.737
28.24000 632.866
28.28000 596.794
28.32000 607.325
28.36000 646.206
28.40000 628.818
28.44000 614.509
28.48000 632.721
28.52000 636.941
28.56000 628.195
28.60000 627.128
28.64000 633.128
28.68000 598.691
28.72000 620.185
28.76000 590.623
28.80000 597.656
28.84000 606.657
28.88000 602.415
28.92000 614.133
28.96000 583.498
29.00000 605.425
29.04000 600.021
29.08000 619.683
29.12000 596.014
29.16000 599.180
29.20000 596.811
29.24000 589.881
29.28000 600.013
29.32000 593.976
29.36000 572.288
29.40000 589.989
29.44000 578.829
29.48000 585.533
29.52000 577.386
29.56000 578.638
29.60000 577.268
29.64000 569.469
29.68000 575.217
29.72000 575.858
29.76000 563.581
29.80000 568.857
29.84000 574.483
29.88000 565.620
29.92000 539.259
29.96000 552.279
30.00000 569.673
30.04000 602.564
30.08000 575.104
30.12000 574.689
30.16000 569.065
30.20000 563.258
30.24000 572.696
30.28000 554.529
30.32000 550.047
30.36000 559.268
30.40000 562.146
30.44000 539.347
30.48000 556.528
30.52000 558.831
30.56000 552.203
30.60000 549.673
30.64000 537.112
30.68000 536.394
30.72000 520.196
30.76000 544.508
30.80000 552.462
30.84000 556.240
30.88000 527.592
30.92000 525.248
30.96000 527.358
31.00000 555.209
31.04000 529.828
31.08000 541.724
31.12000 536.044
31.16000 529.280
31.20000 525.379
31.24000 550.731
31.28000 523.439
31.32000 520.982
31.36000 539.369
31.40000 519.991
31.44000 543.092
31.48000 518.119
31.52000 510.556
31.56000 508.978
31.60000 506.758
31.64000 524.325
31.68000 526.201
31.72000 513.461
31.76000 517.893
31.80000 511.416
31.84000 510.637
31.88000 504.581
31.92000 505.593
31.96000 498.641
32.00000 518.155
32.04000 507.925
32.08000 505.769
32.12000 493.686
32.16000 500.847
32.20000 509.423
32.24000 498.740
32.28000 514.590
32.32000 509.250
32.36000 488.112
32.40000 501.127
32.44000 500.775
32.48000 503.988
32.52000 471.370
32.56000 505.369
32.60000 509.135
32.64000 482.194
32.68000 485.640
32.72000 490.557
32.76000 484.922
32.80000 486.704
32.84000 501.253
32.88000 510.024
32.92000 480.669
32.96000 501.799
33.00000 489.359
33.04000 498.003
33.08000 499.148
33.12000 472.844
33.16000 463.652
33.20000 479.902
33.24000 477.865
33.28000 475.074
33.32000 478.611
33.36000 476.374
33.40000 460.696
33.44000 463.073
33.48000 449.272
33.52000 466.362
33.56000 478.221
33.60000 457.687
33.64000 463.050
33.68000 469.515
33.72000 451.579
33.76000 476.600
33.80000 459.672
33.84000 453.515
33.88000 431.223
33.92000 454.646
33.96000 450.339
34.00000 457.122
34.04000 439.159
34.08000 437.729
34.12000 445.695
34.16000 462.619
34.20000 448.015
34.24000 455.716
34.28000 467.595
34.32000 432.438
34.36000 449.281
34.40000 452.621
34.44000 438.206
34.48000 438.906
34.52000 445.520
34.56000 441.436
34.60000 445.671
34.64000 430.362
34.68000 437.437
34.72000 423.109
34.76000 437.579
34.80000 441.122
34.84000 429.996
34.88000 419.120
34.92000 425.331
34.96000 424.918
35.00000 435.132
35.04000 437.681
35.08000 427.959
35.12000 423.988
35.16000 427.799
35.20000 440.101
35.24000 430.623
35.28000 429.525
35.32000 437.292
35.36000 417.320
35.40000 420.951
35.44000 428.085
35.48000 414.842
35.52000 415.178
35.56000 403.941
35.60000 414.857
35.64000 407.354
35.68000 408.196
35.72000 417.194
35.76000 409.700
35.80000 431.094
35.84000 414.620
35.88000 431.815
35.92000 422.366
35.96000 412.021
36.00000 397.293
36.04000 410.645
36.08000 401.762
36.12000 409.273
36.16000 427.379
36.20000 426.315
36.24000 415.505
36.28000 390.383
36.32000 396.525
36.36000 401.986
36.40000 383.614
36.44000 391.504
36.48000 386.030
36.52000 416.159
36.56000 394.073
36.60000 387.868
36.64000 408.918
36.68000 388.403
36.72000 383.301
36.76000 378.653
36.80000 400.314
36.84000 388.258
36.88000 395.419
36.92000 386.209
36.96000 379.634
37.00000 417.614
37.04000 389.083
37.08000 375.215
37.12000 381.308
37.16000 378.818
37.20000 384.384
37.24000 370.889
37.28000 381.016
37.32000 371.349
37.36000 361.194
37.40000 362.609
37.44000 371.860
37.48000 366.664
37.52000 357.414
37.56000 387.004
37.60000 385.942
37.64000 362.982
37.68000 373.433
37.72000 369.578
37.76000 364.509
37.80000 371.314
37.84000 370.692
37.88000 354.057
37.92000 366.289
37.96000 357.925
38.00000 362.215
38.04000 358.906
38.08000 371.980
38.12000 365.368
38.16000 365.735
38.20000 361.823
38.24000 349.099
38.28000 346.386
38.32000 357.609
38.36000 362.318
38.40000 363.789
38.44000 376.883
38.48000 346.780
38.52000 349.113
38.56000 341.936
38.60000 363.838
38.64000 348.356
38.68000 377.360
38.72000 359.635
38.76000 371.495
38.80000 366.890
38.84000 349.107
38.88000 338.078
38.92000 345.791
38.96000 333.786
39.00000 352.269
39.04000 339.769
39.08000 339.930
39.12000 342.231
39.16000 339.522
39.20000 342.618
39.24000 344.266
39.28000 340.118
39.32000 334.459
39.36000 343.654
39.40000 347.617
39.44000 328.510
39.48000 344.144
39.52000 341.774
39.56000 332.905
39.60000 340.886
39.64000 339.047
39.68000 325.938
39.72000 347.079
39.76000 338.745
39.80000 336.036
39.84000 330.823
39.88000 329.835
39.92000 328.671
39.96000 327.737
40.00000 339.774
40.04000 330.902
40.08000 324.559
40.12000 337.636
40.16000 347.183
40.20000 333.249
40.24000 317.684
40.28000 322.513
40.32000 317.297
40.36000 327.368
40.40000 330.691
40.44000 318.958
40.48000 310.419
40.52000 299.081
40.56000 320.599
40.60000 310.581
40.64000 296.777
40.68000 321.004
40.72000 319.859
40.76000 333.232
40.80000 327.759
40.84000 318.498
40.88000 331.355
40.92000 332.091
40.96000 316.702
41.00000 305.824
41.04000 330.553
41.08000 323.017
41.12000 318.901
41.16000 310.026
41.20000 310.176
41.24000 310.405
41.28000 324.252
41.32000 296.531
41.36000 305.220
41.40000 315.240
41.44000 300.862
41.48000 304.294
41.52000 298.850
41.56000 305.236
41.60000 304.197
41.64000 298.308
41.68000 318.338
41.72000 316.930
41.76000 309.185
41.80000 294.731
41.84000 304.469
41.88000 308.382
41.92000 301.843
41.96000 300.799
42.00000 312.163
42.04000 300.258
42.08000 300.031
42.12000 295.752
42.16000 294.259
42.20000 292.860
42.24000 284.469
42.28000 286.644
42.32000 285.176
42.36000 291.280
42.40000 302.590
42.44000 305.962
42.48000 282.139
42.52000 279.887
42.56000 293.637
42.60000 300.185
42.64000 286.290
42.68000 300.864
42.72000 291.793
42.76000 288.917
42.80000 288.963
42.84000 291.091
42.88000 285.441
42.92000 285.967
42.96000 275.002
43.00000 285.447
43.04000 284.410
43.08000 286.915
43.12000 292.081
43.16000 275.414
43.20000 284.395
43.24000 291.975
43.28000 284.238
43.32000 289.896
43.36000 286.347
43.40000 271.956
43.44000 274.419
43.48000 279.614
43.52000 284.270
43.56000 276.339
43.60000 282.266
43.64000 268.906
43.68000 269.485
43.72000 282.015
43.76000 289.487
43.80000 275.012
43.84000 273.250
43.88000 286.818
43.92000 280.630
43.96000 272.584
44.00000 285.212
44.04000 273.773
44.08000 274.085
44.12000 269.374
44.16000 259.547
44.20000 270.837
44.24000 282.629
44.28000 264.793
44.32000 278.725
44.36000 271.071
44.40000 265.068
44.44000 269.442
44.48000 266.196
44.52000 276.523
44.56000 264.890
44.60000 260.485
44.64000 263.786
44.68000 263.731
44.72000 270.500
44.76000 267.320
44.80000 258.600
44.84000 273.403
44.88000 251.955
44.92000 250.354
44.96000 257.954
45.00000 257.823
45.04000 263.878
45.08000 274.658
45.12000 273.476
45.16000 255.015
45.20000 254.536
45.24000 263.733
45.28000 261.455
45.32000 262.001
45.36000 257.729
45.40000 251.115
45.44000 267.571
45.48000 245.557
45.52000 245.071
45.56000 247.909
45.60000 258.141
45.64000 251.274
45.68000 246.963
45.72000 246.808
45.76000 251.051
45.80000 250.059
45.84000 247.363
45.88000 262.059
45.92000 245.708
45.96000 239.153
46.00000 245.889
46.04000 248.807
46.08000 246.217
46.12000 256.035
46.16000 240.460
46.20000 243.604
46.24000 244.428
46.28000 230.798
46.32000 239.886
46.36000 245.850
46.40000 249.860
46.44000 241.192
46.48000 247.998
46.52000 236.366
46.56000 240.331
46.60000 244.659
46.64000 249.870
46.68000 239.881
46.72000 242.671
46.76000 234.665
46.80000 232.376
46.84000 243.894
46.88000 234.927
46.92000 226.577
46.96000 244.556
47.00000 235.866
47.04000 238.458
47.08000 237.361
47.12000 238.858
47.16000 234.513
47.20000 237.514
47.24000 238.821
47.28000 234.833
47.32000 229.118
47.36000 229.896
47.40000 228.449
47.44000 238.870
47.48000 243.094
47.52000 236.575
47.56000 236.892
47.60000 235.963
47.64000 226.978
47.68000 239.138
47.72000 234.619
47.76000 228.070
47.80000 239.515
47.84000 240.967
47.88000 221.119
47.92000 236.435
47.96000 242.777
48.00000 228.585
48.04000 224.594
48.08000 236.884
48.12000 220.251
48.16000 222.649
48.20000 242.673
48.24000 226.542
48.28000 227.562
48.32000 236.472
48.36000 230.446
48.40000 230.741
48.44000 222.053
48.48000 217.693
48.52000 226.017
48.56000 225.800
48.60000 230.732
48.64000 223.120
48.68000 224.289
48.72000 211.696
48.76000 216.359
48.80000 220.759
48.84000 225.886
48.88000 214.615
48.92000 212.209
48.96000 205.680
49.00000 215.873
49.04000 233.381
49.08000 222.377
49.12000 218.502
49.16000 214.885
49.20000 207.984
49.24000 217.808
49.28000 222.314
49.32000 223.188
49.36000 199.746
49.40000 214.422
49.44000 229.605
49.48000 206.818
49.52000 215.012
49.56000 210.476
49.60000 208.378
49.64000 205.457
49.68000 211.902
49.72000 212.836
49.76000 225.449
49.80000 223.705
49.84000 221.713
49.88000 202.210
49.92000 209.109
49.96000 212.297
50.00000 217.995
50.04000 213.449
50.08000 208.162
50.12000 208.371
50.16000 205.749
50.20000 220.246
50.24000 208.204
50.28000 204.608
50.32000 216.060
50.36000 199.458
50.40000 210.878
50.44000 204.107
50.48000 205.066
50.52000 201.133
50.56000 200.025
50.60000 208.485
50.64000 213.529
50.68000 208.486
50.72000 205.186
50.76000 202.712
50.80000 198.121
50.84000 201.159
50.88000 198.028
50.92000 213.293
50.96000 199.287
51.00000 207.766
51.04000 208.064
51.08000 208.086
51.12000 194.312
51.16000 211.114
51.20000 204.589
51.24000 204.691
51.28000 201.554
51.32000 198.045
51.36000 188.781
51.40000 192.580
51.44000 197.589
51.48000 195.651
51.52000 199.369
51.56000 198.914
51.60000 198.232
51.64000 201.118
51.68000 201.389
51.72000 195.299
51.76000 201.678
51.80000 191.190
51.84000 196.972
51.88000 191.513
51.92000 202.954
51.96000 190.250
52.00000 198.053
52.04000 200.458
52.08000 180.887
52.12000 193.315
52.16000 202.250
52.20000 193.928
52.24000 192.978
52.28000 198.940
52.32000 196.247
52.36000 194.361
52.40000 180.283
52.44000 196.966
52.48000 181.457
52.52000 187.470
52.56000 196.241
52.60000 189.170
52.64000 195.512
52.68000 199.061
52.72000 203.310
52.76000 178.443
52.80000 199.311
52.84000 189.703
52.88000 200.899
52.92000 183.844
52.96000 194.129
53.00000 192.074
53.04000 188.917
53.08000 195.753
53.12000 199.360
53.16000 184.353
53.20000 174.087
53.24000 189.289
53.28000 191.963
53.32000 187.784
53.36000 191.851
53.40000 182.172
53.44000 181.844
53.48000 179.808
53.52000 177.906
53.56000 178.531
53.60000 183.478
53.64000 205.820
53.68000 186.246
53.72000 183.598
53.76000 171.803
53.80000 179.684
53.84000 178.706
53.88000 192.055
53.92000 182.355
53.96000 182.160
54.00000 182.199
54.04000 181.075
54.08000 173.173
54.12000 183.137
54.16000 184.296
54.20000 193.554
54.24000 183.064
54.28000 182.791
54.32000 175.976
54.36000 171.660
54.40000 181.635
54.44000 191.859
54.48000 171.438
54.52000 181.905
54.56000 192.884
54.60000 170.969
54.64000 175.338
54.68000 173.033
54.72000 184.069
54.76000 176.681
54.80000 186.352
54.84000 189.592
54.88000 178.869
54.92000 169.740
54.96000 175.861
55.00000 176.836
55.04000 170.655
55.08000 164.566
55.12000 173.260
55.16000 165.313
55.20000 165.887
55.24000 176.301
55.28000 175.714
55.32000 172.048
55.36000 176.351
55.40000 166.492
55.44000 185.578
55.48000 182.607
55.52000 170.643
55.56000 184.086
55.60000 174.124
55.64000 173.886
55.68000 179.250
55.72000 176.393
55.76000 166.864
55.80000 163.383
55.84000 175.114
55.88000 166.234
55.92000 177.631
55.96000 166.117
56.00000 183.132
56.04000 169.196
56.08000 170.199
56.12000 173.482
56.16000 161.529
56.20000 166.403
56.24000 165.048
56.28000 175.327
56.32000 184.024
56.36000 174.279
56.40000 164.219
56.44000 170.402
56.48000 165.769
56.52000 171.118
56.56000 173.484
56.60000 173.889
56.64000 175.366
56.68000 158.348
56.72000 162.799
56.76000 173.138
56.80000 160.289
56.84000 155.345
56.88000 161.935
56.92000 167.204
56.96000 163.874
57.00000 170.075
57.04000 161.309
57.08000 181.026
57.12000 167.164
57.16000 169.134
57.20000 167.324
57.24000 161.097
57.28000 171.769
57.32000 166.725
57.36000 173.819
57.40000 176.680
57.44000 166.231
57.48000 165.371
57.52000 162.073
57.56000 162.723
57.60000 156.590
57.64000 162.366
57.68000 149.286
57.72000 165.992
57.76000 149.413
57.80000 161.079
57.84000 164.045
57.88000 162.151
57.92000 163.339
57.96000 158.901
58.00000 166.778
58.04000 170.927
58.08000 155.452
58.12000 161.211
58.16000 164.238
58.20000 161.595
58.24000 166.388
58.28000 158.040
58.32000 172.563
58.36000 165.862
58.40000 168.946
58.44000 152.039
58.48000 158.167
58.52000 148.695
58.56000 167.021
58.60000 162.554
58.64000 171.182
58.68000 164.859
58.72000 163.274
58.76000 150.962
58.80000 158.418
58.84000 160.365
58.88000 148.514
58.92000 162.649
58.96000 166.942
59.00000 158.252
59.04000 153.268
59.08000 165.687
59.12000 159.508
59.16000 164.985
59.20000 169.665
59.24000 166.537
59.28000 162.292
59.32000 159.439
59.36000 161.797
59.40000 158.427
59.44000 152.531
59.48000 163.731
59.52000 154.170
59.56000 156.850
59.60000 149.880
59.64000 157.377
59.68000 162.730
59.72000 161.137
59.76000 154.105
59.80000 139.697
59.84000 158.999
59.88000 160.068
59.92000 151.270
59.96000 159.559
60.00000 150.826
60.04000 163.828
60.08000 155.679
60.12000 153.900
60.16000 152.613
60.20000 162.091
60.24000 169.640
60.28000 153.835
60.32000 151.049
60.36000 162.856
60.40000 162.026
60.44000 168.103
60.48000 160.946
60.52000 158.020
60.56000 167.881
60.60000 160.501
60.64000 162.514
60.68000 157.114
60.72000 159.505
60.76000 149.796
60.80000 164.127
60.84000 150.950
60.88000 152.717
60.92000 167.347
60.96000 170.888
61.00000 164.031
61.04000 147.171
61.08000 152.102
61.12000 162.087
61.16000 156.691
61.20000 161.025
61.24000 168.660
61.28000 157.026
61.32000 154.246
61.36000 151.278
61.40000 169.906
61.44000 164.327
61.48000 156.817
61.52000 172.158
61.56000 213.129
61.60000 246.282
61.64000 257.678
61.68000 248.200
61.72000 268.221
61.76000 258.398
61.80000 215.764
61.84000 185.120
61.88000 171.112
61.92000 168.966
61.96000 167.432
62.00000 159.955
62.04000 163.926
62.08000 156.694
62.12000 167.376
62.16000 171.847
62.20000 173.369
62.24000 167.727
62.28000 155.859
62.32000 158.411
62.36000 155.591
62.40000 164.576
62.44000 163.508
62.48000 163.758
62.52000 166.950
62.56000 175.286
62.60000 165.178
62.64000 170.472
62.68000 157.958
62.72000 169.313
62.76000 161.425
62.80000 156.917
62.84000 169.442
62.88000 157.503
62.92000 149.097
62.96000 166.032
63.00000 170.440
63.04000 161.404
63.08000 175.341
63.12000 174.645
63.16000 162.975
63.20000 169.809
63.24000 171.922
63.28000 170.871
63.32000 167.956
63.36000 163.730
63.40000 164.098
63.44000 171.196
63.48000 162.411
63.52000 162.244
63.56000 161.540
63.60000 169.442
63.64000 173.619
63.68000 177.648
63.72000 170.574
63.76000 162.976
63.80000 175.932
63.84000 172.989
63.88000 184.420
63.92000 174.906
63.96000 161.159
64.00000 177.138
64.04000 186.890
64.08000 163.547
64.12000 166.514
64.16000 178.215
64.20000 173.709
64.24000 188.843
64.28000 173.588
64.32000 183.119
64.36000 180.588
64.40000 184.752
64.44000 179.228
64.48000 182.337
64.52000 184.889
64.56000 189.708
64.60000 184.381
64.64000 190.024
64.68000 191.686
64.72000 204.225
64.76000 198.931
64.80000 195.470
64.84000 198.476
64.88000 192.044
64.92000 182.847
64.96000 201.059
65.00000 185.643
65.04000 202.520
65.08000 199.153
65.12000 192.544
65.16000 205.923
65.20000 201.805
65.24000 206.935
65.28000 217.029
65.32000 224.318
65.36000 206.955
65.40000 222.511
65.44000 217.806
65.48000 221.673
65.52000 219.819
65.56000 237.216
65.60000 246.754
65.64000 271.043
65.68000 314.074
65.72000 408.700
65.76000 589.404
65.80000 757.698
65.84000 807.264
65.88000 847.534
65.92000 819.009
65.96000 726.262
66.00000 515.308
66.04000 360.324
66.08000 296.529
66.12000 289.319
66.16000 281.132
66.20000 276.817
66.24000 282.243
66.28000 326.907
66.32000 348.591
66.36000 384.924
66.40000 389.749
66.44000 402.586
66.48000 405.055
66.52000 367.777
66.56000 347.205
66.60000 308.159
66.64000 308.507
66.68000 309.618
66.72000 320.634
66.76000 304.282
66.80000 320.112
66.84000 322.942
66.88000 320.499
66.92000 320.424
66.96000 327.703
67.00000 343.537
67.04000 338.452
67.08000 343.995
67.12000 351.717
67.16000 348.943
67.20000 368.627
67.24000 369.195
67.28000 371.628
67.32000 373.821
67.36000 393.932
67.40000 405.977
67.44000 405.096
67.48000 412.067
67.52000 393.365
67.56000 408.969
67.60000 410.143
67.64000 421.502
67.68000 424.269
67.72000 429.051
67.76000 435.544
67.80000 452.504
67.84000 475.876
67.88000 480.158
67.92000 459.936
67.96000 481.920
68.00000 497.405
68.04000 513.628
68.08000 518.495
68.12000 546.674
68.16000 541.403
68.20000 552.162
68.24000 550.360
68.28000 592.927
68.32000 587.175
68.36000 616.492
68.40000 627.696
68.44000 648.893
68.48000 689.378
68.52000 717.710
68.56000 745.299
68.60000 841.367
68.64000 966.013
68.68000 1117.793
68.72000 1318.978
68.76000 1512.585
68.80000 1616.511
68.84000 1813.599
68.88000 2224.994
68.92000 3303.677
68.96000 7856.240
69.00000 21212.432
69.04000 39345.406
69.08000 46993.313
69.12000 46139.773
69.16000 47448.816
69.20000 48398.914
69.24000 40443.770
69.28000 28467.867
69.32000 24200.738
69.36000 22853.008
69.40000 19305.719
69.44000 10858.720
69.48000 3863.298
69.52000 1944.189
69.56000 1459.354
69.60000 1276.255
69.64000 1081.760
69.68000 954.559
69.72000 889.662
69.76000 832.672
69.80000 780.854
69.84000 747.524
69.88000 705.592
69.92000 688.511
69.96000 652.374
70.00000 630.782