File: XRD/XRD/22-09-2025 Dep 2/XY Data/BTO_Mapping_Theta2Theta_22-09-2025_001_04_30-000_0-000.xy
20.00000 583.733
20.04000 551.210
20.08000 588.405
20.12000 550.266
20.16000 556.733
20.20000 569.631
20.24000 572.003
20.28000 548.018
20.32000 557.430
20.36000 565.451
20.40000 547.695
20.44000 560.658
20.48000 568.440
20.52000 571.530
20.56000 551.735
20.60000 553.474
20.64000 558.498
20.68000 546.929
20.72000 561.401
20.76000 571.823
20.80000 560.821
20.84000 539.320
20.88000 571.438
20.92000 557.317
20.96000 544.715
21.00000 553.007
21.04000 565.176
21.08000 542.126
21.12000 543.334
21.16000 551.672
21.20000 554.255
21.24000 557.438
21.28000 547.925
21.32000 541.407
21.36000 589.690
21.40000 555.969
21.44000 548.622
21.48000 539.900
21.52000 556.468
21.56000 540.720
21.60000 566.628
21.64000 545.996
21.68000 543.946
21.72000 566.094
21.76000 561.409
21.80000 569.826
21.84000 589.587
21.88000 576.594
21.92000 613.518
21.96000 614.446
22.00000 673.171
22.04000 650.908
22.08000 685.993
22.12000 693.420
22.16000 691.165
22.20000 652.034
22.24000 654.956
22.28000 672.798
22.32000 602.034
22.36000 594.070
22.40000 583.849
22.44000 572.678
22.48000 592.133
22.52000 572.854
22.56000 545.186
22.60000 539.718
22.64000 544.861
22.68000 519.513
22.72000 544.533
22.76000 520.180
22.80000 533.670
22.84000 529.517
22.88000 522.266
22.92000 517.881
22.96000 514.303
23.00000 531.962
23.04000 528.386
23.08000 525.366
23.12000 494.188
23.16000 506.463
23.20000 504.205
23.24000 512.887
23.28000 494.020
23.32000 480.337
23.36000 500.842
23.40000 511.824
23.44000 548.604
23.48000 528.131
23.52000 507.596
23.56000 520.283
23.60000 512.142
23.64000 505.687
23.68000 504.807
23.72000 517.646
23.76000 499.571
23.80000 508.281
23.84000 502.886
23.88000 523.895
23.92000 532.744
23.96000 540.696
24.00000 540.083
24.04000 529.909
24.08000 534.956
24.12000 514.688
24.16000 510.737
24.20000 511.621
24.24000 522.081
24.28000 515.202
24.32000 481.148
24.36000 507.191
24.40000 497.082
24.44000 495.257
24.48000 473.049
24.52000 485.355
24.56000 491.161
24.60000 523.549
24.64000 475.973
24.68000 473.365
24.72000 472.320
24.76000 481.103
24.80000 449.791
24.84000 487.347
24.88000 475.606
24.92000 486.434
24.96000 470.235
25.00000 492.080
25.04000 476.854
25.08000 477.008
25.12000 483.205
25.16000 480.283
25.20000 468.415
25.24000 470.495
25.28000 482.246
25.32000 471.292
25.36000 474.395
25.40000 468.306
25.44000 463.684
25.48000 462.318
25.52000 482.381
25.56000 463.415
25.60000 448.087
25.64000 485.286
25.68000 472.119
25.72000 469.903
25.76000 460.899
25.80000 452.941
25.84000 451.079
25.88000 466.602
25.92000 468.704
25.96000 468.264
26.00000 465.848
26.04000 476.121
26.08000 445.760
26.12000 462.407
26.16000 440.248
26.20000 454.806
26.24000 438.494
26.28000 452.202
26.32000 461.518
26.36000 441.748
26.40000 443.845
26.44000 456.400
26.48000 460.360
26.52000 449.713
26.56000 452.205
26.60000 446.641
26.64000 437.669
26.68000 447.585
26.72000 444.109
26.76000 457.403
26.80000 448.588
26.84000 443.532
26.88000 457.473
26.92000 444.264
26.96000 432.435
27.00000 430.820
27.04000 451.788
27.08000 450.072
27.12000 433.041
27.16000 452.150
27.20000 438.944
27.24000 433.797
27.28000 420.416
27.32000 435.095
27.36000 437.779
27.40000 424.318
27.44000 449.316
27.48000 454.695
27.52000 456.664
27.56000 449.012
27.60000 435.082
27.64000 441.612
27.68000 437.512
27.72000 431.761
27.76000 429.298
27.80000 422.848
27.84000 418.221
27.88000 410.686
27.92000 420.000
27.96000 440.145
28.00000 423.481
28.04000 440.215
28.08000 429.861
28.12000 424.813
28.16000 440.161
28.20000 425.294
28.24000 414.971
28.28000 425.197
28.32000 421.732
28.36000 421.556
28.40000 430.443
28.44000 428.908
28.48000 420.951
28.52000 414.035
28.56000 422.046
28.60000 425.457
28.64000 407.724
28.68000 412.885
28.72000 424.783
28.76000 407.361
28.80000 414.377
28.84000 409.983
28.88000 415.893
28.92000 396.837
28.96000 424.520
29.00000 418.815
29.04000 426.508
29.08000 420.957
29.12000 422.851
29.16000 421.574
29.20000 396.163
29.24000 421.789
29.28000 412.969
29.32000 423.574
29.36000 404.846
29.40000 416.689
29.44000 407.151
29.48000 403.760
29.52000 410.761
29.56000 414.852
29.60000 403.421
29.64000 402.145
29.68000 399.160
29.72000 427.299
29.76000 416.830
29.80000 394.191
29.84000 404.920
29.88000 415.397
29.92000 404.295
29.96000 420.277
30.00000 430.544
30.04000 449.315
30.08000 440.588
30.12000 452.469
30.16000 434.927
30.20000 432.291
30.24000 415.319
30.28000 421.828
30.32000 445.972
30.36000 426.397
30.40000 418.232
30.44000 408.502
30.48000 410.452
30.52000 417.642
30.56000 430.460
30.60000 406.654
30.64000 429.046
30.68000 435.339
30.72000 443.956
30.76000 437.235
30.80000 436.264
30.84000 460.057
30.88000 465.921
30.92000 476.316
30.96000 505.529
31.00000 521.639
31.04000 558.231
31.08000 621.006
31.12000 716.729
31.16000 874.729
31.20000 1041.895
31.24000 1303.828
31.28000 1621.384
31.32000 1947.413
31.36000 2198.849
31.40000 2330.177
31.44000 2336.920
31.48000 2226.734
31.52000 1989.891
31.56000 1639.286
31.60000 1383.747
31.64000 1111.901
31.68000 912.806
31.72000 779.728
31.76000 682.428
31.80000 593.386
31.84000 562.174
31.88000 499.701
31.92000 479.589
31.96000 461.840
32.00000 478.753
32.04000 440.201
32.08000 445.744
32.12000 409.315
32.16000 389.552
32.20000 374.212
32.24000 401.928
32.28000 404.538
32.32000 403.915
32.36000 384.585
32.40000 372.089
32.44000 401.074
32.48000 374.377
32.52000 385.778
32.56000 390.343
32.60000 376.843
32.64000 387.222
32.68000 363.734
32.72000 363.582
32.76000 380.141
32.80000 379.238
32.84000 388.894
32.88000 397.070
32.92000 381.761
32.96000 387.601
33.00000 373.321
33.04000 356.495
33.08000 361.031
33.12000 345.575
33.16000 351.529
33.20000 337.012
33.24000 346.373
33.28000 346.868
33.32000 349.850
33.36000 353.410
33.40000 340.887
33.44000 366.779
33.48000 335.190
33.52000 357.459
33.56000 332.990
33.60000 353.418
33.64000 334.428
33.68000 348.371
33.72000 339.928
33.76000 341.128
33.80000 348.815
33.84000 331.552
33.88000 331.004
33.92000 362.326
33.96000 328.295
34.00000 337.766
34.04000 327.619
34.08000 340.670
34.12000 336.356
34.16000 328.564
34.20000 348.124
34.24000 329.620
34.28000 330.079
34.32000 344.321
34.36000 331.958
34.40000 323.486
34.44000 328.339
34.48000 336.412
34.52000 341.251
34.56000 347.915
34.60000 334.261
34.64000 328.252
34.68000 322.847
34.72000 314.137
34.76000 328.836
34.80000 331.641
34.84000 327.916
34.88000 329.640
34.92000 326.443
34.96000 308.947
35.00000 307.770
35.04000 325.189
35.08000 309.462
35.12000 320.642
35.16000 311.850
35.20000 301.706
35.24000 312.571
35.28000 310.799
35.32000 306.503
35.36000 309.305
35.40000 322.589
35.44000 303.904
35.48000 300.631
35.52000 295.491
35.56000 317.281
35.60000 316.005
35.64000 306.543
35.68000 312.082
35.72000 306.127
35.76000 300.819
35.80000 311.304
35.84000 314.237
35.88000 300.793
35.92000 305.831
35.96000 312.746
36.00000 293.415
36.04000 293.343
36.08000 328.559
36.12000 296.233
36.16000 285.247
36.20000 299.730
36.24000 288.440
36.28000 293.096
36.32000 293.245
36.36000 294.436
36.40000 299.680
36.44000 297.685
36.48000 303.148
36.52000 291.530
36.56000 290.637
36.60000 308.483
36.64000 288.764
36.68000 291.646
36.72000 289.893
36.76000 301.825
36.80000 281.969
36.84000 301.091
36.88000 284.869
36.92000 293.411
36.96000 299.024
37.00000 300.719
37.04000 302.222
37.08000 296.007
37.12000 304.898
37.16000 298.913
37.20000 282.788
37.24000 290.762
37.28000 294.505
37.32000 291.346
37.36000 295.667
37.40000 291.384
37.44000 304.898
37.48000 283.635
37.52000 276.701
37.56000 316.273
37.60000 290.906
37.64000 293.394
37.68000 282.666
37.72000 283.911
37.76000 303.151
37.80000 277.969
37.84000 264.961
37.88000 294.316
37.92000 282.340
37.96000 286.200
38.00000 300.890
38.04000 299.380
38.08000 303.007
38.12000 297.643
38.16000 300.784
38.20000 312.632
38.24000 313.780
38.28000 327.923
38.32000 315.067
38.36000 330.155
38.40000 320.156
38.44000 354.105
38.48000 394.994
38.52000 456.108
38.56000 531.363
38.60000 663.210
38.64000 790.522
38.68000 941.356
38.72000 1037.971
38.76000 1059.662
38.80000 1036.863
38.84000 965.604
38.88000 875.225
38.92000 716.780
38.96000 580.005
39.00000 493.274
39.04000 412.909
39.08000 363.109
39.12000 362.827
39.16000 313.941
39.20000 312.516
39.24000 300.231
39.28000 283.192
39.32000 290.593
39.36000 290.629
39.40000 286.910
39.44000 280.881
39.48000 271.852
39.52000 278.356
39.56000 283.572
39.60000 277.199
39.64000 274.003
39.68000 263.245
39.72000 259.978
39.76000 279.281
39.80000 266.252
39.84000 271.734
39.88000 272.506
39.92000 259.252
39.96000 246.223
40.00000 253.602
40.04000 259.711
40.08000 271.959
40.12000 266.201
40.16000 252.240
40.20000 262.464
40.24000 266.436
40.28000 245.431
40.32000 249.742
40.36000 245.742
40.40000 254.209
40.44000 264.514
40.48000 245.308
40.52000 253.167
40.56000 248.941
40.60000 259.763
40.64000 252.783
40.68000 251.901
40.72000 248.604
40.76000 254.448
40.80000 251.419
40.84000 252.266
40.88000 248.241
40.92000 237.899
40.96000 249.898
41.00000 242.410
41.04000 251.374
41.08000 265.687
41.12000 240.601
41.16000 244.708
41.20000 248.664
41.24000 245.167
41.28000 250.421
41.32000 246.681
41.36000 236.357
41.40000 232.175
41.44000 233.899
41.48000 235.846
41.52000 247.237
41.56000 250.009
41.60000 248.187
41.64000 230.031
41.68000 241.716
41.72000 241.015
41.76000 234.704
41.80000 235.358
41.84000 256.226
41.88000 243.701
41.92000 236.173
41.96000 245.129
42.00000 246.478
42.04000 229.587
42.08000 222.358
42.12000 222.237
42.16000 227.948
42.20000 236.675
42.24000 243.957
42.28000 233.090
42.32000 223.647
42.36000 250.138
42.40000 230.846
42.44000 249.776
42.48000 231.639
42.52000 231.015
42.56000 241.727
42.60000 235.529
42.64000 232.119
42.68000 240.088
42.72000 243.580
42.76000 249.085
42.80000 231.085
42.84000 230.868
42.88000 229.611
42.92000 232.092
42.96000 232.824
43.00000 225.346
43.04000 226.514
43.08000 215.788
43.12000 217.652
43.16000 232.880
43.20000 228.877
43.24000 219.279
43.28000 219.032
43.32000 219.825
43.36000 226.199
43.40000 216.627
43.44000 225.097
43.48000 233.319
43.52000 210.955
43.56000 225.103
43.60000 225.121
43.64000 220.085
43.68000 223.604
43.72000 226.285
43.76000 214.108
43.80000 224.890
43.84000 220.403
43.88000 221.009
43.92000 216.955
43.96000 210.621
44.00000 230.031
44.04000 216.096
44.08000 227.298
44.12000 229.878
44.16000 229.858
44.20000 231.391
44.24000 218.846
44.28000 221.296
44.32000 224.386
44.36000 229.361
44.40000 226.109
44.44000 218.498
44.48000 226.804
44.52000 217.699
44.56000 253.142
44.60000 233.069
44.64000 242.847
44.68000 244.583
44.72000 247.035
44.76000 249.056
44.80000 249.180
44.84000 257.425
44.88000 270.391
44.92000 275.770
44.96000 288.116
45.00000 286.695
45.04000 305.671
45.08000 295.086
45.12000 321.923
45.16000 313.573
45.20000 320.724
45.24000 308.662
45.28000 323.181
45.32000 298.706
45.36000 293.574
45.40000 282.123
45.44000 275.669
45.48000 270.385
45.52000 275.115
45.56000 276.839
45.60000 252.483
45.64000 244.519
45.68000 245.049
45.72000 247.624
45.76000 253.061
45.80000 240.906
45.84000 242.675
45.88000 235.642
45.92000 208.022
45.96000 226.968
46.00000 215.973
46.04000 214.011
46.08000 210.500
46.12000 206.397
46.16000 208.612
46.20000 208.493
46.24000 200.243
46.28000 205.859
46.32000 198.410
46.36000 218.093
46.40000 214.888
46.44000 210.067
46.48000 209.282
46.52000 204.346
46.56000 204.127
46.60000 199.953
46.64000 206.455
46.68000 187.617
46.72000 209.198
46.76000 203.794
46.80000 196.931
46.84000 198.717
46.88000 204.765
46.92000 209.041
46.96000 196.051
47.00000 198.627
47.04000 194.115
47.08000 195.379
47.12000 200.068
47.16000 190.735
47.20000 194.618
47.24000 198.444
47.28000 195.245
47.32000 200.597
47.36000 203.641
47.40000 202.417
47.44000 184.484
47.48000 191.826
47.52000 191.362
47.56000 190.840
47.60000 184.900
47.64000 195.411
47.68000 193.785
47.72000 199.612
47.76000 177.794
47.80000 194.645
47.84000 190.988
47.88000 184.760
47.92000 184.188
47.96000 190.090
48.00000 174.084
48.04000 172.236
48.08000 177.211
48.12000 189.860
48.16000 190.543
48.20000 191.394
48.24000 184.336
48.28000 185.909
48.32000 192.471
48.36000 173.095
48.40000 176.616
48.44000 185.968
48.48000 181.489
48.52000 180.190
48.56000 184.635
48.60000 177.913
48.64000 193.153
48.68000 190.043
48.72000 183.888
48.76000 186.555
48.80000 185.177
48.84000 177.967
48.88000 190.242
48.92000 165.927
48.96000 184.788
49.00000 183.789
49.04000 173.411
49.08000 178.582
49.12000 169.298
49.16000 178.835
49.20000 185.065
49.24000 169.211
49.28000 175.331
49.32000 178.439
49.36000 175.471
49.40000 175.882
49.44000 178.304
49.48000 175.958
49.52000 178.371
49.56000 177.280
49.60000 173.366
49.64000 166.012
49.68000 173.491
49.72000 173.272
49.76000 180.978
49.80000 169.890
49.84000 169.713
49.88000 180.747
49.92000 179.472
49.96000 170.717
50.00000 168.993
50.04000 169.843
50.08000 162.296
50.12000 173.810
50.16000 169.092
50.20000 173.292
50.24000 167.851
50.28000 176.125
50.32000 168.964
50.36000 170.019
50.40000 181.068
50.44000 179.667
50.48000 201.262
50.52000 199.276
50.56000 204.700
50.60000 214.188
50.64000 217.941
50.68000 221.699
50.72000 253.416
50.76000 250.673
50.80000 233.709
50.84000 232.708
50.88000 230.019
50.92000 228.599
50.96000 216.971
51.00000 208.217
51.04000 199.453
51.08000 201.732
51.12000 176.935
51.16000 184.068
51.20000 177.479
51.24000 190.767
51.28000 169.868
51.32000 170.105
51.36000 173.700
51.40000 177.234
51.44000 173.381
51.48000 159.762
51.52000 167.790
51.56000 166.350
51.60000 164.690
51.64000 168.170
51.68000 168.621
51.72000 161.799
51.76000 162.318
51.80000 160.406
51.84000 152.801
51.88000 156.993
51.92000 162.165
51.96000 160.752
52.00000 163.551
52.04000 169.258
52.08000 165.922
52.12000 167.504
52.16000 160.942
52.20000 161.225
52.24000 157.141
52.28000 160.719
52.32000 155.829
52.36000 159.802
52.40000 160.782
52.44000 160.607
52.48000 148.892
52.52000 165.018
52.56000 155.783
52.60000 161.322
52.64000 161.328
52.68000 165.113
52.72000 157.893
52.76000 162.219
52.80000 159.883
52.84000 154.611
52.88000 144.844
52.92000 157.252
52.96000 152.938
53.00000 158.617
53.04000 160.814
53.08000 165.895
53.12000 155.587
53.16000 160.800
53.20000 158.053
53.24000 149.779
53.28000 153.328
53.32000 161.025
53.36000 166.850
53.40000 152.160
53.44000 160.747
53.48000 160.894
53.52000 155.540
53.56000 164.972
53.60000 166.209
53.64000 163.328
53.68000 153.200
53.72000 166.319
53.76000 144.258
53.80000 160.359
53.84000 167.617
53.88000 154.215
53.92000 157.074
53.96000 151.768
54.00000 144.817
54.04000 144.807
54.08000 155.146
54.12000 159.686
54.16000 147.376
54.20000 149.387
54.24000 149.446
54.28000 143.085
54.32000 154.140
54.36000 159.162
54.40000 151.281
54.44000 148.349
54.48000 150.568
54.52000 152.315
54.56000 150.090
54.60000 153.798
54.64000 163.339
54.68000 148.145
54.72000 149.051
54.76000 151.863
54.80000 150.390
54.84000 156.573
54.88000 156.614
54.92000 151.457
54.96000 152.327
55.00000 160.415
55.04000 159.347
55.08000 160.492
55.12000 162.472
55.16000 164.099
55.20000 178.970
55.24000 154.250
55.28000 153.628
55.32000 163.675
55.36000 159.406
55.40000 181.678
55.44000 176.334
55.48000 184.571
55.52000 191.510
55.56000 190.991
55.60000 205.043
55.64000 220.944
55.68000 227.572
55.72000 251.452
55.76000 284.687
55.80000 333.650
55.84000 361.042
55.88000 440.028
55.92000 494.628
55.96000 533.965
56.00000 560.887
56.04000 574.620
56.08000 546.195
56.12000 521.288
56.16000 498.946
56.20000 450.206
56.24000 385.686
56.28000 345.331
56.32000 304.480
56.36000 275.617
56.40000 249.969
56.44000 229.625
56.48000 212.012
56.52000 181.477
56.56000 191.381
56.60000 179.092
56.64000 176.550
56.68000 160.275
56.72000 171.475
56.76000 163.438
56.80000 154.864
56.84000 160.606
56.88000 142.151
56.92000 150.229
56.96000 142.327
57.00000 154.692
57.04000 158.131
57.08000 154.751
57.12000 150.904
57.16000 154.987
57.20000 143.312
57.24000 133.033
57.28000 142.107
57.32000 147.666
57.36000 146.922
57.40000 154.234
57.44000 146.683
57.48000 138.156
57.52000 140.884
57.56000 144.750
57.60000 143.404
57.64000 141.920
57.68000 141.075
57.72000 144.073
57.76000 136.681
57.80000 149.549
57.84000 146.384
57.88000 144.509
57.92000 140.468
57.96000 140.097
58.00000 131.685
58.04000 146.630
58.08000 147.788
58.12000 141.828
58.16000 141.466
58.20000 131.245
58.24000 127.930
58.28000 138.606
58.32000 142.395
58.36000 129.580
58.40000 137.124
58.44000 134.869
58.48000 140.898
58.52000 142.921
58.56000 140.474
58.60000 131.846
58.64000 132.917
58.68000 134.191
58.72000 134.161
58.76000 133.287
58.80000 138.971
58.84000 146.211
58.88000 145.568
58.92000 131.943
58.96000 121.503
59.00000 136.912
59.04000 136.337
59.08000 135.115
59.12000 138.875
59.16000 133.460
59.20000 133.693
59.24000 128.345
59.28000 132.618
59.32000 136.458
59.36000 135.839
59.40000 136.385
59.44000 138.880
59.48000 129.774
59.52000 132.253
59.56000 135.364
59.60000 139.014
59.64000 129.595
59.68000 128.378
59.72000 133.734
59.76000 138.181
59.80000 130.336
59.84000 140.124
59.88000 133.478
59.92000 138.712
59.96000 131.411
60.00000 144.016
60.04000 132.662
60.08000 132.166
60.12000 132.783
60.16000 135.002
60.20000 138.890
60.24000 132.762
60.28000 130.558
60.32000 137.289
60.36000 129.213
60.40000 140.374
60.44000 138.787
60.48000 138.968
60.52000 126.257
60.56000 129.397
60.60000 131.591
60.64000 131.281
60.68000 130.281
60.72000 135.352
60.76000 123.615
60.80000 131.029
60.84000 135.219
60.88000 127.212
60.92000 130.099
60.96000 131.967
61.00000 133.474
61.04000 135.695
61.08000 130.324
61.12000 134.835
61.16000 149.417
61.20000 146.738
61.24000 151.194
61.28000 137.590
61.32000 144.308
61.36000 134.028
61.40000 132.291
61.44000 142.451
61.48000 152.527
61.52000 161.831
61.56000 191.450
61.60000 229.080
61.64000 259.918
61.68000 276.730
61.72000 274.770
61.76000 269.630
61.80000 225.829
61.84000 176.211
61.88000 144.887
61.92000 148.660
61.96000 153.799
62.00000 146.403
62.04000 149.506
62.08000 147.407
62.12000 143.098
62.16000 142.801
62.20000 139.624
62.24000 129.192
62.28000 131.456
62.32000 142.345
62.36000 148.771
62.40000 131.712
62.44000 136.682
62.48000 143.906
62.52000 144.486
62.56000 138.403
62.60000 140.023
62.64000 148.501
62.68000 134.961
62.72000 129.528
62.76000 137.199
62.80000 139.354
62.84000 155.903
62.88000 150.132
62.92000 138.257
62.96000 142.202
63.00000 148.368
63.04000 149.825
63.08000 138.468
63.12000 144.018
63.16000 145.047
63.20000 143.319
63.24000 146.019
63.28000 152.795
63.32000 142.905
63.36000 138.944
63.40000 142.664
63.44000 127.336
63.48000 142.970
63.52000 146.862
63.56000 150.705
63.60000 152.158
63.64000 138.738
63.68000 149.551
63.72000 150.847
63.76000 155.859
63.80000 151.528
63.84000 149.472
63.88000 151.350
63.92000 156.513
63.96000 154.900
64.00000 158.632
64.04000 160.591
64.08000 163.676
64.12000 164.797
64.16000 170.609
64.20000 153.684
64.24000 154.478
64.28000 155.478
64.32000 166.692
64.36000 169.272
64.40000 160.984
64.44000 170.839
64.48000 170.066
64.52000 165.876
64.56000 167.208
64.60000 158.948
64.64000 182.273
64.68000 176.089
64.72000 173.702
64.76000 180.845
64.80000 173.112
64.84000 172.166
64.88000 178.395
64.92000 184.692
64.96000 181.083
65.00000 190.806
65.04000 185.184
65.08000 195.156
65.12000 193.232
65.16000 211.359
65.20000 200.878
65.24000 210.217
65.28000 225.714
65.32000 241.601
65.36000 242.260
65.40000 255.308
65.44000 275.686
65.48000 295.370
65.52000 318.905
65.56000 340.901
65.60000 367.827
65.64000 404.602
65.68000 464.006
65.72000 584.483
65.76000 789.170
65.80000 967.564
65.84000 1033.969
65.88000 1056.827
65.92000 1055.107
65.96000 916.076
66.00000 659.347
66.04000 470.251
66.08000 373.812
66.12000 329.144
66.16000 321.023
66.20000 305.363
66.24000 321.259
66.28000 358.148
66.32000 377.503
66.36000 421.834
66.40000 424.483
66.44000 453.985
66.48000 450.986
66.52000 408.190
66.56000 370.995
66.60000 315.283
66.64000 325.569
66.68000 304.815
66.72000 324.731
66.76000 314.187
66.80000 328.537
66.84000 305.599
66.88000 331.676
66.92000 333.981
66.96000 345.176
67.00000 333.542
67.04000 346.564
67.08000 347.420
67.12000 352.481
67.16000 359.608
67.20000 368.291
67.24000 367.757
67.28000 380.133
67.32000 375.280
67.36000 395.760
67.40000 398.105
67.44000 400.764
67.48000 408.471
67.52000 431.729
67.56000 425.483
67.60000 446.833
67.64000 436.607
67.68000 450.316
67.72000 458.542
67.76000 458.190
67.80000 461.561
67.84000 470.176
67.88000 494.469
67.92000 506.946
67.96000 491.764
68.00000 515.943
68.04000 529.721
68.08000 557.505
68.12000 549.603
68.16000 572.423
68.20000 596.727
68.24000 609.869
68.28000 609.303
68.32000 623.241
68.36000 648.628
68.40000 693.365
68.44000 707.575
68.48000 763.826
68.52000 785.757
68.56000 855.428
68.60000 942.424
68.64000 1088.004
68.68000 1274.770
68.72000 1469.329
68.76000 1641.091
68.80000 1875.043
68.84000 2210.988
68.88000 2788.524
68.92000 4777.745
68.96000 11607.984
69.00000 27395.637
69.04000 44648.660
69.08000 53901.957
69.12000 55964.879
69.16000 58636.184
69.20000 58666.668
69.24000 49785.027
69.28000 37195.129
69.32000 30842.656
69.36000 27876.912
69.40000 23458.182
69.44000 14501.074
69.48000 6566.612
69.52000 3068.498
69.56000 1943.088
69.60000 1497.123
69.64000 1231.073
69.68000 1081.960
69.72000 991.603
69.76000 911.196
69.80000 845.906
69.84000 782.556
69.88000 751.058
69.92000 698.072
69.96000 676.760
70.00000 640.572