File: XRD/XRD/22-09-2025 Dep 2/XY Data/BTO_Mapping_Theta2Theta_22-09-2025_001_44_-27-029_-13-017.xy
20.00000 583.609
20.04000 575.727
20.08000 564.280
20.12000 577.356
20.16000 567.427
20.20000 576.180
20.24000 561.247
20.28000 545.258
20.32000 570.944
20.36000 570.576
20.40000 584.265
20.44000 577.260
20.48000 588.597
20.52000 554.443
20.56000 568.272
20.60000 540.926
20.64000 563.854
20.68000 539.913
20.72000 527.309
20.76000 574.871
20.80000 580.406
20.84000 575.581
20.88000 555.200
20.92000 565.702
20.96000 585.082
21.00000 565.611
21.04000 551.626
21.08000 575.781
21.12000 562.215
21.16000 553.206
21.20000 563.368
21.24000 570.414
21.28000 552.032
21.32000 582.040
21.36000 570.444
21.40000 569.690
21.44000 564.602
21.48000 559.010
21.52000 571.693
21.56000 583.741
21.60000 572.082
21.64000 591.904
21.68000 625.883
21.72000 633.987
21.76000 667.300
21.80000 720.696
21.84000 756.695
21.88000 803.765
21.92000 842.920
21.96000 845.705
22.00000 873.392
22.04000 869.860
22.08000 875.753
22.12000 819.440
22.16000 807.311
22.20000 735.999
22.24000 680.987
22.28000 651.439
22.32000 660.479
22.36000 606.926
22.40000 598.425
22.44000 578.285
22.48000 568.513
22.52000 532.744
22.56000 554.218
22.60000 535.295
22.64000 518.707
22.68000 543.314
22.72000 543.427
22.76000 529.094
22.80000 547.532
22.84000 513.450
22.88000 514.248
22.92000 541.041
22.96000 518.055
23.00000 513.372
23.04000 519.939
23.08000 530.028
23.12000 528.247
23.16000 507.106
23.20000 527.003
23.24000 514.670
23.28000 506.067
23.32000 511.778
23.36000 529.648
23.40000 510.923
23.44000 516.771
23.48000 494.563
23.52000 508.990
23.56000 495.127
23.60000 509.236
23.64000 499.025
23.68000 497.657
23.72000 495.039
23.76000 500.938
23.80000 496.969
23.84000 495.201
23.88000 496.115
23.92000 496.312
23.96000 496.924
24.00000 518.666
24.04000 510.966
24.08000 512.178
24.12000 498.324
24.16000 497.030
24.20000 500.133
24.24000 504.192
24.28000 495.037
24.32000 504.960
24.36000 505.636
24.40000 503.394
24.44000 483.161
24.48000 491.957
24.52000 487.924
24.56000 473.505
24.60000 508.392
24.64000 485.541
24.68000 503.715
24.72000 475.308
24.76000 498.413
24.80000 481.875
24.84000 491.393
24.88000 475.032
24.92000 478.262
24.96000 486.396
25.00000 482.180
25.04000 467.089
25.08000 488.761
25.12000 497.041
25.16000 475.055
25.20000 488.182
25.24000 480.923
25.28000 486.020
25.32000 492.974
25.36000 481.040
25.40000 502.850
25.44000 494.540
25.48000 469.016
25.52000 486.756
25.56000 472.948
25.60000 471.560
25.64000 467.736
25.68000 471.418
25.72000 483.704
25.76000 479.802
25.80000 469.614
25.84000 472.495
25.88000 474.733
25.92000 469.416
25.96000 477.795
26.00000 456.729
26.04000 457.279
26.08000 466.767
26.12000 449.431
26.16000 460.772
26.20000 479.268
26.24000 475.581
26.28000 476.099
26.32000 464.448
26.36000 457.962
26.40000 456.391
26.44000 454.548
26.48000 466.740
26.52000 454.948
26.56000 451.229
26.60000 446.700
26.64000 454.930
26.68000 471.476
26.72000 445.931
26.76000 460.324
26.80000 478.901
26.84000 459.474
26.88000 457.587
26.92000 447.898
26.96000 444.461
27.00000 428.037
27.04000 451.030
27.08000 463.590
27.12000 451.716
27.16000 446.012
27.20000 457.579
27.24000 452.070
27.28000 444.435
27.32000 459.450
27.36000 447.354
27.40000 445.351
27.44000 453.538
27.48000 446.195
27.52000 461.718
27.56000 450.978
27.60000 457.644
27.64000 437.916
27.68000 450.414
27.72000 422.449
27.76000 453.963
27.80000 451.435
27.84000 439.396
27.88000 448.156
27.92000 442.622
27.96000 459.179
28.00000 452.777
28.04000 445.621
28.08000 443.789
28.12000 454.834
28.16000 443.495
28.20000 450.174
28.24000 448.611
28.28000 437.995
28.32000 439.706
28.36000 423.913
28.40000 440.515
28.44000 439.141
28.48000 436.893
28.52000 427.766
28.56000 440.519
28.60000 423.936
28.64000 430.756
28.68000 440.175
28.72000 433.614
28.76000 420.072
28.80000 415.304
28.84000 425.912
28.88000 419.876
28.92000 416.101
28.96000 437.720
29.00000 414.647
29.04000 416.186
29.08000 431.681
29.12000 443.017
29.16000 427.852
29.20000 407.654
29.24000 433.028
29.28000 418.709
29.32000 428.892
29.36000 418.745
29.40000 429.686
29.44000 410.620
29.48000 407.134
29.52000 400.776
29.56000 440.101
29.60000 428.286
29.64000 423.979
29.68000 428.950
29.72000 406.677
29.76000 437.049
29.80000 432.015
29.84000 444.905
29.88000 460.265
29.92000 464.141
29.96000 460.229
30.00000 455.529
30.04000 471.706
30.08000 460.307
30.12000 462.423
30.16000 451.578
30.20000 450.953
30.24000 426.812
30.28000 445.725
30.32000 434.795
30.36000 461.037
30.40000 434.513
30.44000 441.250
30.48000 441.711
30.52000 442.684
30.56000 430.893
30.60000 434.262
30.64000 440.745
30.68000 447.693
30.72000 449.612
30.76000 471.251
30.80000 483.146
30.84000 498.418
30.88000 504.126
30.92000 537.969
30.96000 591.850
31.00000 679.382
31.04000 788.765
31.08000 996.246
31.12000 1400.217
31.16000 1936.290
31.20000 2623.988
31.24000 3378.599
31.28000 4068.311
31.32000 4547.468
31.36000 4727.924
31.40000 4518.216
31.44000 4111.184
31.48000 3383.200
31.52000 2697.660
31.56000 2061.159
31.60000 1560.977
31.64000 1207.270
31.68000 949.313
31.72000 772.516
31.76000 653.840
31.80000 611.310
31.84000 557.502
31.88000 514.964
31.92000 479.003
31.96000 475.809
32.00000 447.107
32.04000 447.992
32.08000 418.938
32.12000 418.761
32.16000 402.937
32.20000 402.672
32.24000 405.170
32.28000 404.886
32.32000 413.708
32.36000 424.891
32.40000 410.554
32.44000 406.718
32.48000 403.074
32.52000 407.956
32.56000 422.450
32.60000 400.278
32.64000 399.776
32.68000 407.838
32.72000 419.986
32.76000 388.601
32.80000 411.153
32.84000 426.791
32.88000 447.222
32.92000 453.912
32.96000 454.141
33.00000 454.778
33.04000 452.386
33.08000 406.566
33.12000 406.588
33.16000 391.160
33.20000 369.712
33.24000 376.739
33.28000 363.875
33.32000 347.345
33.36000 356.372
33.40000 356.962
33.44000 367.663
33.48000 341.462
33.52000 356.624
33.56000 361.386
33.60000 361.571
33.64000 364.277
33.68000 356.141
33.72000 352.853
33.76000 350.109
33.80000 343.281
33.84000 341.959
33.88000 350.436
33.92000 343.511
33.96000 346.177
34.00000 353.651
34.04000 337.534
34.08000 340.797
34.12000 323.688
34.16000 346.650
34.20000 349.094
34.24000 345.239
34.28000 348.277
34.32000 338.882
34.36000 329.058
34.40000 338.652
34.44000 329.805
34.48000 333.388
34.52000 352.538
34.56000 337.094
34.60000 322.305
34.64000 323.133
34.68000 331.146
34.72000 332.005
34.76000 330.370
34.80000 330.867
34.84000 330.528
34.88000 335.826
34.92000 335.338
34.96000 328.746
35.00000 330.323
35.04000 325.642
35.08000 335.650
35.12000 325.479
35.16000 315.886
35.20000 321.534
35.24000 308.308
35.28000 319.871
35.32000 308.790
35.36000 336.721
35.40000 317.961
35.44000 309.397
35.48000 307.945
35.52000 313.873
35.56000 332.377
35.60000 317.094
35.64000 309.912
35.68000 304.597
35.72000 319.123
35.76000 325.129
35.80000 314.544
35.84000 309.412
35.88000 319.672
35.92000 306.353
35.96000 305.285
36.00000 317.671
36.04000 304.927
36.08000 321.346
36.12000 318.867
36.16000 313.641
36.20000 313.393
36.24000 309.869
36.28000 312.176
36.32000 326.053
36.36000 320.013
36.40000 303.552
36.44000 311.926
36.48000 306.860
36.52000 316.837
36.56000 298.351
36.60000 307.803
36.64000 293.892
36.68000 321.485
36.72000 309.076
36.76000 321.335
36.80000 291.730
36.84000 314.326
36.88000 321.788
36.92000 314.654
36.96000 316.738
37.00000 323.648
37.04000 311.529
37.08000 316.517
37.12000 307.737
37.16000 307.799
37.20000 301.801
37.24000 305.592
37.28000 299.615
37.32000 310.329
37.36000 291.777
37.40000 302.331
37.44000 301.686
37.48000 305.678
37.52000 304.447
37.56000 300.566
37.60000 297.978
37.64000 304.251
37.68000 309.375
37.72000 306.090
37.76000 304.781
37.80000 309.061
37.84000 314.610
37.88000 300.470
37.92000 311.137
37.96000 310.675
38.00000 320.921
38.04000 315.139
38.08000 337.952
38.12000 328.044
38.16000 319.221
38.20000 332.771
38.24000 358.904
38.28000 367.474
38.32000 382.749
38.36000 416.407
38.40000 442.544
38.44000 490.831
38.48000 541.447
38.52000 587.345
38.56000 635.396
38.60000 699.303
38.64000 675.877
38.68000 693.072
38.72000 647.663
38.76000 596.434
38.80000 556.134
38.84000 509.409
38.88000 468.046
38.92000 422.049
38.96000 391.987
39.00000 369.686
39.04000 355.184
39.08000 331.441
39.12000 310.473
39.16000 306.838
39.20000 319.192
39.24000 294.239
39.28000 287.229
39.32000 280.522
39.36000 294.684
39.40000 299.619
39.44000 277.286
39.48000 278.900
39.52000 289.843
39.56000 279.333
39.60000 277.994
39.64000 291.879
39.68000 281.986
39.72000 275.256
39.76000 274.561
39.80000 287.351
39.84000 288.110
39.88000 274.136
39.92000 274.579
39.96000 276.273
40.00000 268.752
40.04000 276.897
40.08000 267.376
40.12000 264.811
40.16000 269.779
40.20000 265.376
40.24000 277.647
40.28000 277.366
40.32000 280.593
40.36000 263.542
40.40000 264.591
40.44000 269.044
40.48000 293.713
40.52000 262.125
40.56000 288.099
40.60000 272.794
40.64000 259.116
40.68000 259.306
40.72000 264.456
40.76000 268.029
40.80000 248.630
40.84000 257.200
40.88000 258.927
40.92000 268.479
40.96000 261.925
41.00000 268.843
41.04000 258.903
41.08000 254.192
41.12000 258.003
41.16000 270.067
41.20000 280.037
41.24000 252.390
41.28000 254.606
41.32000 244.066
41.36000 258.020
41.40000 249.772
41.44000 245.467
41.48000 264.463
41.52000 245.981
41.56000 248.124
41.60000 236.202
41.64000 249.957
41.68000 243.514
41.72000 236.329
41.76000 248.373
41.80000 249.810
41.84000 245.553
41.88000 239.904
41.92000 253.991
41.96000 248.903
42.00000 246.873
42.04000 241.622
42.08000 234.840
42.12000 244.547
42.16000 251.640
42.20000 243.717
42.24000 258.184
42.28000 249.051
42.32000 232.401
42.36000 248.460
42.40000 230.854
42.44000 235.922
42.48000 229.491
42.52000 230.685
42.56000 234.600
42.60000 244.786
42.64000 233.139
42.68000 242.459
42.72000 241.683
42.76000 242.152
42.80000 250.805
42.84000 238.698
42.88000 249.941
42.92000 228.801
42.96000 243.750
43.00000 249.167
43.04000 238.303
43.08000 241.037
43.12000 244.043
43.16000 237.236
43.20000 240.341
43.24000 236.412
43.28000 226.090
43.32000 236.699
43.36000 242.521
43.40000 236.448
43.44000 243.450
43.48000 230.063
43.52000 221.820
43.56000 239.082
43.60000 237.117
43.64000 236.772
43.68000 231.567
43.72000 254.085
43.76000 235.599
43.80000 228.619
43.84000 241.060
43.88000 229.748
43.92000 226.695
43.96000 239.225
44.00000 226.743
44.04000 233.628
44.08000 249.256
44.12000 233.544
44.16000 247.412
44.20000 253.939
44.24000 235.739
44.28000 253.171
44.32000 238.749
44.36000 255.246
44.40000 262.759
44.44000 259.932
44.48000 264.678
44.52000 287.952
44.56000 284.889
44.60000 304.411
44.64000 331.250
44.68000 359.164
44.72000 391.661
44.76000 413.358
44.80000 456.565
44.84000 455.694
44.88000 512.553
44.92000 501.828
44.96000 512.326
45.00000 513.015
45.04000 506.638
45.08000 464.304
45.12000 461.075
45.16000 426.433
45.20000 412.615
45.24000 371.979
45.28000 341.874
45.32000 339.023
45.36000 318.884
45.40000 298.511
45.44000 297.889
45.48000 281.332
45.52000 283.768
45.56000 287.946
45.60000 266.690
45.64000 241.316
45.68000 252.102
45.72000 240.045
45.76000 249.419
45.80000 246.900
45.84000 249.526
45.88000 246.471
45.92000 228.857
45.96000 223.196
46.00000 217.245
46.04000 212.724
46.08000 213.167
46.12000 221.893
46.16000 217.799
46.20000 212.345
46.24000 216.920
46.28000 219.050
46.32000 227.591
46.36000 208.539
46.40000 201.410
46.44000 213.791
46.48000 220.277
46.52000 218.661
46.56000 212.746
46.60000 210.265
46.64000 211.351
46.68000 210.822
46.72000 197.720
46.76000 201.325
46.80000 204.447
46.84000 209.898
46.88000 200.088
46.92000 197.117
46.96000 205.327
47.00000 207.064
47.04000 212.208
47.08000 193.348
47.12000 186.704
47.16000 184.462
47.20000 198.705
47.24000 196.733
47.28000 203.663
47.32000 200.297
47.36000 215.412
47.40000 185.269
47.44000 188.443
47.48000 193.206
47.52000 191.212
47.56000 187.291
47.60000 193.093
47.64000 193.345
47.68000 185.698
47.72000 178.240
47.76000 192.048
47.80000 190.931
47.84000 188.525
47.88000 186.427
47.92000 183.017
47.96000 188.490
48.00000 190.174
48.04000 192.824
48.08000 198.873
48.12000 179.531
48.16000 187.235
48.20000 182.730
48.24000 191.329
48.28000 184.781
48.32000 195.012
48.36000 191.226
48.40000 186.754
48.44000 200.102
48.48000 187.516
48.52000 197.734
48.56000 193.068
48.60000 183.488
48.64000 193.193
48.68000 178.949
48.72000 192.502
48.76000 188.771
48.80000 182.549
48.84000 192.692
48.88000 186.942
48.92000 181.904
48.96000 182.563
49.00000 190.430
49.04000 183.424
49.08000 191.731
49.12000 188.458
49.16000 179.627
49.20000 172.129
49.24000 179.801
49.28000 183.019
49.32000 181.238
49.36000 187.362
49.40000 192.085
49.44000 182.396
49.48000 183.487
49.52000 176.141
49.56000 169.591
49.60000 181.111
49.64000 184.896
49.68000 193.088
49.72000 187.473
49.76000 182.044
49.80000 189.014
49.84000 179.511
49.88000 186.897
49.92000 180.952
49.96000 183.369
50.00000 178.625
50.04000 189.044
50.08000 184.468
50.12000 194.889
50.16000 185.644
50.20000 211.746
50.24000 209.044
50.28000 205.816
50.32000 220.318
50.36000 227.163
50.40000 235.216
50.44000 256.288
50.48000 268.226
50.52000 279.725
50.56000 279.044
50.60000 271.805
50.64000 279.406
50.68000 287.284
50.72000 262.752
50.76000 280.274
50.80000 267.434
50.84000 248.447
50.88000 229.177
50.92000 238.905
50.96000 214.197
51.00000 211.802
51.04000 207.383
51.08000 202.332
51.12000 199.193
51.16000 190.252
51.20000 184.772
51.24000 186.814
51.28000 175.239
51.32000 192.497
51.36000 179.475
51.40000 175.255
51.44000 171.426
51.48000 182.427
51.52000 176.319
51.56000 187.349
51.60000 182.512
51.64000 176.289
51.68000 175.025
51.72000 172.760
51.76000 176.031
51.80000 168.120
51.84000 167.033
51.88000 176.127
51.92000 166.358
51.96000 176.931
52.00000 161.996
52.04000 163.124
52.08000 170.637
52.12000 173.857
52.16000 158.633
52.20000 164.609
52.24000 173.486
52.28000 163.333
52.32000 165.677
52.36000 160.504
52.40000 161.613
52.44000 157.183
52.48000 172.503
52.52000 155.834
52.56000 156.831
52.60000 168.143
52.64000 166.982
52.68000 155.441
52.72000 171.535
52.76000 156.533
52.80000 164.517
52.84000 162.053
52.88000 174.885
52.92000 166.415
52.96000 167.357
53.00000 164.682
53.04000 158.003
53.08000 162.128
53.12000 159.829
53.16000 162.699
53.20000 162.928
53.24000 179.364
53.28000 169.816
53.32000 177.115
53.36000 170.496
53.40000 158.696
53.44000 169.733
53.48000 162.381
53.52000 162.163
53.56000 167.732
53.60000 172.531
53.64000 170.607
53.68000 156.157
53.72000 157.456
53.76000 162.221
53.80000 162.169
53.84000 175.878
53.88000 166.435
53.92000 160.842
53.96000 158.651
54.00000 161.369
54.04000 163.203
54.08000 165.693
54.12000 159.402
54.16000 172.592
54.20000 163.690
54.24000 158.838
54.28000 162.244
54.32000 163.741
54.36000 159.513
54.40000 167.467
54.44000 154.954
54.48000 161.788
54.52000 163.087
54.56000 162.097
54.60000 168.901
54.64000 166.734
54.68000 157.482
54.72000 168.534
54.76000 164.171
54.80000 169.770
54.84000 174.804
54.88000 169.315
54.92000 157.899
54.96000 151.981
55.00000 168.362
55.04000 171.076
55.08000 177.448
55.12000 174.569
55.16000 175.758
55.20000 173.716
55.24000 190.293
55.28000 195.210
55.32000 210.295
55.36000 198.974
55.40000 219.732
55.44000 241.318
55.48000 255.001
55.52000 290.694
55.56000 320.211
55.60000 370.326
55.64000 421.377
55.68000 457.688
55.72000 498.499
55.76000 533.058
55.80000 526.732
55.84000 548.864
55.88000 534.120
55.92000 508.922
55.96000 479.131
56.00000 440.367
56.04000 411.799
56.08000 367.980
56.12000 322.562
56.16000 303.124
56.20000 269.210
56.24000 261.813
56.28000 235.594
56.32000 229.227
56.36000 214.360
56.40000 213.635
56.44000 197.811
56.48000 197.680
56.52000 181.248
56.56000 185.932
56.60000 173.109
56.64000 163.991
56.68000 177.233
56.72000 157.507
56.76000 159.831
56.80000 168.076
56.84000 162.230
56.88000 156.850
56.92000 149.484
56.96000 159.930
57.00000 149.141
57.04000 156.871
57.08000 147.503
57.12000 142.505
57.16000 145.386
57.20000 158.801
57.24000 143.661
57.28000 145.931
57.32000 147.054
57.36000 149.395
57.40000 149.852
57.44000 153.500
57.48000 156.130
57.52000 140.865
57.56000 148.283
57.60000 142.235
57.64000 148.700
57.68000 154.290
57.72000 151.495
57.76000 151.960
57.80000 148.985
57.84000 142.639
57.88000 137.642
57.92000 142.669
57.96000 139.400
58.00000 145.727
58.04000 149.650
58.08000 138.892
58.12000 128.807
58.16000 134.059
58.20000 131.172
58.24000 142.709
58.28000 140.306
58.32000 145.989
58.36000 136.073
58.40000 143.966
58.44000 136.023
58.48000 138.831
58.52000 146.285
58.56000 140.434
58.60000 143.990
58.64000 138.389
58.68000 144.885
58.72000 141.607
58.76000 134.009
58.80000 150.488
58.84000 129.831
58.88000 151.420
58.92000 139.540
58.96000 131.338
59.00000 135.928
59.04000 139.212
59.08000 139.549
59.12000 145.825
59.16000 146.215
59.20000 137.734
59.24000 134.679
59.28000 128.846
59.32000 136.708
59.36000 133.533
59.40000 137.772
59.44000 134.759
59.48000 134.029
59.52000 137.762
59.56000 135.147
59.60000 132.288
59.64000 127.246
59.68000 126.168
59.72000 142.118
59.76000 132.051
59.80000 130.008
59.84000 133.768
59.88000 134.754
59.92000 131.612
59.96000 127.795
60.00000 134.993
60.04000 129.367
60.08000 133.096
60.12000 137.170
60.16000 137.094
60.20000 130.968
60.24000 139.048
60.28000 136.165
60.32000 119.114
60.36000 127.468
60.40000 147.528
60.44000 135.993
60.48000 131.665
60.52000 136.285
60.56000 128.308
60.60000 135.624
60.64000 142.532
60.68000 132.466
60.72000 139.281
60.76000 136.207
60.80000 133.296
60.84000 139.030
60.88000 123.452
60.92000 140.706
60.96000 136.772
61.00000 140.772
61.04000 133.204
61.08000 143.209
61.12000 142.769
61.16000 147.219
61.20000 142.234
61.24000 139.244
61.28000 137.705
61.32000 139.756
61.36000 137.041
61.40000 152.336
61.44000 142.351
61.48000 160.355
61.52000 174.760
61.56000 234.919
61.60000 305.485
61.64000 342.867
61.68000 368.920
61.72000 391.663
61.76000 359.211
61.80000 281.218
61.84000 210.932
61.88000 171.844
61.92000 167.179
61.96000 160.815
62.00000 146.645
62.04000 141.363
62.08000 134.338
62.12000 153.739
62.16000 150.378
62.20000 154.107
62.24000 145.704
62.28000 160.906
62.32000 140.824
62.36000 139.824
62.40000 147.887
62.44000 145.529
62.48000 163.911
62.52000 151.386
62.56000 143.354
62.60000 142.957
62.64000 151.406
62.68000 149.440
62.72000 142.849
62.76000 143.484
62.80000 147.290
62.84000 151.158
62.88000 154.904
62.92000 147.000
62.96000 156.418
63.00000 153.141
63.04000 153.134
63.08000 149.231
63.12000 143.931
63.16000 156.447
63.20000 151.190
63.24000 148.949
63.28000 151.855
63.32000 153.999
63.36000 148.375
63.40000 155.031
63.44000 158.452
63.48000 156.069
63.52000 146.515
63.56000 162.006
63.60000 155.643
63.64000 157.629
63.68000 157.480
63.72000 158.374
63.76000 153.723
63.80000 151.930
63.84000 159.163
63.88000 146.895
63.92000 158.815
63.96000 155.145
64.00000 157.894
64.04000 162.976
64.08000 169.431
64.12000 154.223
64.16000 145.107
64.20000 165.645
64.24000 167.948
64.28000 169.670
64.32000 167.484
64.36000 169.431
64.40000 171.217
64.44000 184.220
64.48000 178.554
64.52000 182.419
64.56000 182.707
64.60000 189.895
64.64000 177.074
64.68000 192.698
64.72000 190.682
64.76000 185.707
64.80000 193.448
64.84000 197.819
64.88000 195.195
64.92000 188.885
64.96000 207.577
65.00000 216.116
65.04000 234.322
65.08000 249.011
65.12000 269.989
65.16000 274.102
65.20000 317.796
65.24000 331.950
65.28000 376.293
65.32000 404.042
65.36000 433.007
65.40000 447.284
65.44000 483.545
65.48000 480.617
65.52000 506.904
65.56000 499.100
65.60000 522.585
65.64000 546.788
65.68000 598.472
65.72000 804.957
65.76000 1074.351
65.80000 1402.655
65.84000 1559.560
65.88000 1594.206
65.92000 1562.967
65.96000 1371.101
66.00000 987.782
66.04000 651.532
66.08000 468.857
66.12000 394.440
66.16000 353.432
66.20000 354.156
66.24000 375.530
66.28000 415.744
66.32000 494.654
66.36000 555.387
66.40000 586.529
66.44000 579.867
66.48000 576.081
66.52000 533.442
66.56000 446.856
66.60000 409.737
66.64000 381.781
66.68000 369.353
66.72000 361.857
66.76000 370.762
66.80000 368.313
66.84000 375.799
66.88000 376.803
66.92000 371.387
66.96000 394.470
67.00000 395.307
67.04000 384.113
67.08000 399.562
67.12000 418.741
67.16000 421.081
67.20000 441.000
67.24000 436.507
67.28000 431.353
67.32000 448.188
67.36000 446.275
67.40000 459.288
67.44000 495.882
67.48000 487.766
67.52000 512.059
67.56000 529.687
67.60000 530.331
67.64000 524.863
67.68000 540.193
67.72000 524.052
67.76000 555.636
67.80000 591.368
67.84000 589.200
67.88000 590.168
67.92000 593.486
67.96000 618.248
68.00000 615.740
68.04000 658.489
68.08000 651.011
68.12000 677.226
68.16000 702.632
68.20000 719.208
68.24000 717.980
68.28000 748.171
68.32000 796.371
68.36000 804.221
68.40000 842.344
68.44000 875.875
68.48000 916.290
68.52000 1006.447
68.56000 1082.604
68.60000 1227.255
68.64000 1457.526
68.68000 1740.938
68.72000 2144.052
68.76000 2436.750
68.80000 2861.558
68.84000 3488.835
68.88000 4511.256
68.92000 8018.797
68.96000 18693.270
69.00000 43047.172
69.04000 72877.078
69.08000 90137.266
69.12000 94669.266
69.16000 98214.313
69.20000 97866.688
69.24000 85846.672
69.28000 66693.367
69.32000 52999.156
69.36000 47248.086
69.40000 39500.027
69.44000 25863.955
69.48000 12553.703
69.52000 5346.489
69.56000 3007.231
69.60000 2185.120
69.64000 1778.310
69.68000 1549.328
69.72000 1349.398
69.76000 1198.606
69.80000 1103.046
69.84000 1036.400
69.88000 967.321
69.92000 918.626
69.96000 884.999
70.00000 813.421