File: XRD/XRD/22-09-2025 Dep 2/XY Data/BTO_Mapping_Theta2Theta_22-09-2025_001_45_-36-039_-17-355.xy
20.00000 569.791
20.04000 582.849
20.08000 565.319
20.12000 564.518
20.16000 581.473
20.20000 575.533
20.24000 584.223
20.28000 572.711
20.32000 561.688
20.36000 578.287
20.40000 558.256
20.44000 564.246
20.48000 585.507
20.52000 565.625
20.56000 565.172
20.60000 551.435
20.64000 560.366
20.68000 563.535
20.72000 565.592
20.76000 568.652
20.80000 566.723
20.84000 570.074
20.88000 577.428
20.92000 569.001
20.96000 570.968
21.00000 561.304
21.04000 565.854
21.08000 564.780
21.12000 557.206
21.16000 558.595
21.20000 579.260
21.24000 564.401
21.28000 569.578
21.32000 577.578
21.36000 575.651
21.40000 562.312
21.44000 563.164
21.48000 569.088
21.52000 554.631
21.56000 567.492
21.60000 580.213
21.64000 616.893
21.68000 644.040
21.72000 659.949
21.76000 682.736
21.80000 744.754
21.84000 778.396
21.88000 805.549
21.92000 843.210
21.96000 883.310
22.00000 882.536
22.04000 870.411
22.08000 833.853
22.12000 811.544
22.16000 782.543
22.20000 696.139
22.24000 680.216
22.28000 640.494
22.32000 621.314
22.36000 611.936
22.40000 576.644
22.44000 596.893
22.48000 563.045
22.52000 547.152
22.56000 571.530
22.60000 544.544
22.64000 559.540
22.68000 549.877
22.72000 529.627
22.76000 527.468
22.80000 518.569
22.84000 534.697
22.88000 531.833
22.92000 506.243
22.96000 526.313
23.00000 547.172
23.04000 533.963
23.08000 515.762
23.12000 534.683
23.16000 498.630
23.20000 499.333
23.24000 502.169
23.28000 533.683
23.32000 527.349
23.36000 536.833
23.40000 532.369
23.44000 516.971
23.48000 520.449
23.52000 499.512
23.56000 521.725
23.60000 519.052
23.64000 495.929
23.68000 510.522
23.72000 504.054
23.76000 512.210
23.80000 519.938
23.84000 507.799
23.88000 529.238
23.92000 507.775
23.96000 507.994
24.00000 508.647
24.04000 514.545
24.08000 480.604
24.12000 491.727
24.16000 497.514
24.20000 492.069
24.24000 482.678
24.28000 477.912
24.32000 486.475
24.36000 496.030
24.40000 489.906
24.44000 490.792
24.48000 489.026
24.52000 492.073
24.56000 484.163
24.60000 507.827
24.64000 491.711
24.68000 478.024
24.72000 485.729
24.76000 488.793
24.80000 477.037
24.84000 490.349
24.88000 496.271
24.92000 472.771
24.96000 482.074
25.00000 482.157
25.04000 500.577
25.08000 487.418
25.12000 466.083
25.16000 493.883
25.20000 491.129
25.24000 482.090
25.28000 479.142
25.32000 478.417
25.36000 484.570
25.40000 484.549
25.44000 476.820
25.48000 469.989
25.52000 497.710
25.56000 492.273
25.60000 476.660
25.64000 469.520
25.68000 467.158
25.72000 473.099
25.76000 465.104
25.80000 451.415
25.84000 453.938
25.88000 468.282
25.92000 472.502
25.96000 494.747
26.00000 479.871
26.04000 469.851
26.08000 489.735
26.12000 457.253
26.16000 468.337
26.20000 458.938
26.24000 472.462
26.28000 483.600
26.32000 470.218
26.36000 464.968
26.40000 476.730
26.44000 469.759
26.48000 450.730
26.52000 462.707
26.56000 442.453
26.60000 465.526
26.64000 456.835
26.68000 455.565
26.72000 458.931
26.76000 437.375
26.80000 483.292
26.84000 473.504
26.88000 456.199
26.92000 443.022
26.96000 459.156
27.00000 471.374
27.04000 457.202
27.08000 447.571
27.12000 449.930
27.16000 449.175
27.20000 460.751
27.24000 447.938
27.28000 469.758
27.32000 453.063
27.36000 458.967
27.40000 440.969
27.44000 450.492
27.48000 451.327
27.52000 440.361
27.56000 442.395
27.60000 456.549
27.64000 440.362
27.68000 439.490
27.72000 447.910
27.76000 440.193
27.80000 427.706
27.84000 423.065
27.88000 450.496
27.92000 456.159
27.96000 451.746
28.00000 445.646
28.04000 444.811
28.08000 454.303
28.12000 446.784
28.16000 439.200
28.20000 459.819
28.24000 455.559
28.28000 440.151
28.32000 437.412
28.36000 433.606
28.40000 441.860
28.44000 432.676
28.48000 420.594
28.52000 451.207
28.56000 457.170
28.60000 429.772
28.64000 434.374
28.68000 418.032
28.72000 437.445
28.76000 442.562
28.80000 431.590
28.84000 437.492
28.88000 461.784
28.92000 429.628
28.96000 433.247
29.00000 431.966
29.04000 437.378
29.08000 411.009
29.12000 433.795
29.16000 435.909
29.20000 430.177
29.24000 432.120
29.28000 439.283
29.32000 441.145
29.36000 426.296
29.40000 418.144
29.44000 430.230
29.48000 432.935
29.52000 438.327
29.56000 423.944
29.60000 424.831
29.64000 431.182
29.68000 432.992
29.72000 441.003
29.76000 439.937
29.80000 488.699
29.84000 506.366
29.88000 483.906
29.92000 514.888
29.96000 525.812
30.00000 506.888
30.04000 485.893
30.08000 497.259
30.12000 485.970
30.16000 473.151
30.20000 462.170
30.24000 462.995
30.28000 460.686
30.32000 476.222
30.36000 454.457
30.40000 452.709
30.44000 453.835
30.48000 464.351
30.52000 491.000
30.56000 466.078
30.60000 469.549
30.64000 459.286
30.68000 469.653
30.72000 482.814
30.76000 498.656
30.80000 514.120
30.84000 534.911
30.88000 548.295
30.92000 620.505
30.96000 712.392
31.00000 847.662
31.04000 1168.625
31.08000 1635.538
31.12000 2607.083
31.16000 3757.195
31.20000 5109.823
31.24000 6175.250
31.28000 6962.095
31.32000 7047.365
31.36000 6589.603
31.40000 5654.552
31.44000 4528.182
31.48000 3329.581
31.52000 2408.841
31.56000 1700.245
31.60000 1304.513
31.64000 1037.914
31.68000 819.688
31.72000 736.019
31.76000 659.538
31.80000 615.461
31.84000 557.181
31.88000 516.491
31.92000 471.875
31.96000 475.995
32.00000 447.078
32.04000 428.487
32.08000 425.379
32.12000 423.705
32.16000 418.994
32.20000 424.617
32.24000 407.403
32.28000 415.959
32.32000 407.560
32.36000 407.845
32.40000 407.273
32.44000 395.201
32.48000 393.930
32.52000 399.694
32.56000 417.838
32.60000 407.959
32.64000 429.569
32.68000 400.400
32.72000 406.514
32.76000 410.109
32.80000 412.144
32.84000 429.415
32.88000 455.816
32.92000 476.114
32.96000 455.235
33.00000 454.967
33.04000 444.765
33.08000 421.404
33.12000 398.070
33.16000 390.856
33.20000 375.705
33.24000 377.894
33.28000 370.568
33.32000 353.750
33.36000 369.420
33.40000 367.697
33.44000 358.104
33.48000 375.450
33.52000 374.943
33.56000 350.173
33.60000 371.018
33.64000 360.651
33.68000 346.655
33.72000 356.694
33.76000 358.640
33.80000 348.345
33.84000 356.605
33.88000 359.028
33.92000 353.383
33.96000 341.113
34.00000 350.169
34.04000 360.083
34.08000 341.498
34.12000 349.646
34.16000 341.939
34.20000 341.870
34.24000 333.612
34.28000 340.778
34.32000 341.954
34.36000 340.680
34.40000 352.168
34.44000 341.851
34.48000 336.582
34.52000 327.792
34.56000 324.546
34.60000 344.015
34.64000 339.540
34.68000 337.509
34.72000 346.875
34.76000 327.170
34.80000 334.798
34.84000 338.878
34.88000 326.780
34.92000 317.465
34.96000 338.191
35.00000 326.638
35.04000 335.779
35.08000 320.307
35.12000 317.791
35.16000 336.963
35.20000 326.426
35.24000 316.172
35.28000 340.516
35.32000 314.564
35.36000 324.085
35.40000 326.252
35.44000 303.888
35.48000 309.516
35.52000 310.543
35.56000 306.858
35.60000 314.567
35.64000 319.997
35.68000 333.842
35.72000 304.411
35.76000 319.501
35.80000 306.875
35.84000 321.427
35.88000 321.827
35.92000 307.907
35.96000 303.402
36.00000 319.622
36.04000 305.004
36.08000 304.878
36.12000 308.734
36.16000 318.405
36.20000 295.561
36.24000 302.153
36.28000 317.471
36.32000 314.852
36.36000 312.563
36.40000 311.825
36.44000 312.384
36.48000 304.880
36.52000 319.368
36.56000 313.206
36.60000 329.889
36.64000 319.207
36.68000 320.431
36.72000 320.879
36.76000 332.266
36.80000 308.779
36.84000 309.156
36.88000 313.010
36.92000 322.652
36.96000 332.703
37.00000 317.304
37.04000 332.348
37.08000 329.385
37.12000 323.385
37.16000 313.337
37.20000 327.780
37.24000 298.255
37.28000 311.122
37.32000 304.054
37.36000 312.105
37.40000 302.959
37.44000 309.021
37.48000 296.651
37.52000 311.365
37.56000 311.196
37.60000 296.960
37.64000 298.581
37.68000 308.988
37.72000 319.438
37.76000 309.812
37.80000 299.285
37.84000 313.421
37.88000 305.174
37.92000 309.231
37.96000 319.728
38.00000 306.513
38.04000 327.968
38.08000 330.416
38.12000 327.951
38.16000 347.313
38.20000 345.138
38.24000 359.659
38.28000 388.156
38.32000 393.964
38.36000 411.603
38.40000 456.468
38.44000 482.210
38.48000 526.133
38.52000 546.003
38.56000 558.908
38.60000 555.796
38.64000 565.573
38.68000 525.798
38.72000 508.123
38.76000 477.088
38.80000 422.661
38.84000 396.745
38.88000 383.992
38.92000 381.589
38.96000 356.119
39.00000 346.942
39.04000 313.112
39.08000 327.718
39.12000 301.394
39.16000 310.646
39.20000 321.479
39.24000 304.277
39.28000 277.540
39.32000 283.483
39.36000 295.941
39.40000 280.383
39.44000 279.540
39.48000 277.949
39.52000 281.906
39.56000 273.938
39.60000 278.684
39.64000 273.280
39.68000 267.020
39.72000 273.281
39.76000 278.354
39.80000 275.931
39.84000 266.672
39.88000 282.958
39.92000 277.570
39.96000 279.082
40.00000 272.217
40.04000 272.573
40.08000 269.264
40.12000 275.498
40.16000 273.035
40.20000 260.588
40.24000 269.959
40.28000 282.514
40.32000 282.904
40.36000 275.944
40.40000 267.211
40.44000 272.128
40.48000 264.682
40.52000 267.375
40.56000 272.001
40.60000 261.936
40.64000 255.432
40.68000 267.081
40.72000 267.145
40.76000 268.922
40.80000 262.180
40.84000 277.946
40.88000 268.544
40.92000 251.183
40.96000 259.166
41.00000 269.914
41.04000 263.420
41.08000 256.245
41.12000 256.480
41.16000 241.152
41.20000 272.593
41.24000 264.869
41.28000 258.544
41.32000 261.176
41.36000 256.533
41.40000 257.924
41.44000 259.393
41.48000 253.519
41.52000 249.204
41.56000 248.703
41.60000 249.889
41.64000 263.207
41.68000 258.473
41.72000 247.544
41.76000 241.994
41.80000 254.780
41.84000 249.711
41.88000 245.385
41.92000 259.398
41.96000 246.900
42.00000 256.072
42.04000 244.040
42.08000 239.629
42.12000 228.746
42.16000 250.327
42.20000 242.105
42.24000 248.912
42.28000 238.156
42.32000 239.788
42.36000 242.779
42.40000 251.133
42.44000 231.388
42.48000 240.458
42.52000 238.313
42.56000 247.192
42.60000 243.381
42.64000 262.561
42.68000 242.759
42.72000 247.235
42.76000 236.533
42.80000 248.821
42.84000 226.668
42.88000 248.971
42.92000 242.765
42.96000 235.522
43.00000 240.392
43.04000 231.472
43.08000 250.256
43.12000 235.667
43.16000 229.545
43.20000 238.825
43.24000 238.912
43.28000 250.007
43.32000 236.404
43.36000 248.462
43.40000 239.360
43.44000 231.666
43.48000 222.943
43.52000 232.619
43.56000 230.415
43.60000 240.910
43.64000 241.151
43.68000 237.494
43.72000 228.077
43.76000 235.255
43.80000 236.581
43.84000 237.346
43.88000 237.167
43.92000 238.810
43.96000 225.741
44.00000 226.212
44.04000 242.339
44.08000 238.000
44.12000 235.528
44.16000 245.422
44.20000 247.769
44.24000 242.100
44.28000 255.471
44.32000 247.192
44.36000 263.284
44.40000 270.997
44.44000 260.513
44.48000 281.328
44.52000 298.446
44.56000 316.488
44.60000 354.487
44.64000 397.259
44.68000 412.101
44.72000 421.337
44.76000 470.794
44.80000 507.680
44.84000 509.204
44.88000 498.264
44.92000 516.498
44.96000 495.556
45.00000 492.564
45.04000 467.347
45.08000 444.234
45.12000 429.389
45.16000 394.926
45.20000 392.388
45.24000 356.612
45.28000 336.285
45.32000 335.169
45.36000 311.855
45.40000 298.716
45.44000 289.163
45.48000 280.089
45.52000 285.228
45.56000 268.434
45.60000 267.806
45.64000 268.179
45.68000 256.216
45.72000 247.630
45.76000 245.766
45.80000 249.663
45.84000 231.946
45.88000 241.263
45.92000 228.001
45.96000 225.431
46.00000 214.472
46.04000 218.514
46.08000 222.468
46.12000 201.143
46.16000 210.728
46.20000 211.640
46.24000 203.857
46.28000 212.055
46.32000 212.736
46.36000 212.618
46.40000 207.235
46.44000 209.704
46.48000 219.051
46.52000 212.446
46.56000 201.945
46.60000 202.305
46.64000 193.429
46.68000 202.831
46.72000 215.353
46.76000 210.992
46.80000 200.281
46.84000 211.032
46.88000 191.198
46.92000 208.047
46.96000 197.454
47.00000 207.686
47.04000 194.874
47.08000 196.778
47.12000 202.207
47.16000 202.793
47.20000 204.197
47.24000 207.946
47.28000 194.132
47.32000 192.080
47.36000 199.246
47.40000 204.916
47.44000 206.027
47.48000 190.160
47.52000 198.002
47.56000 199.307
47.60000 204.685
47.64000 191.153
47.68000 188.468
47.72000 204.303
47.76000 188.560
47.80000 194.020
47.84000 193.442
47.88000 190.244
47.92000 190.587
47.96000 192.748
48.00000 182.812
48.04000 195.618
48.08000 195.273
48.12000 178.080
48.16000 185.635
48.20000 192.743
48.24000 184.341
48.28000 184.359
48.32000 183.720
48.36000 182.080
48.40000 197.740
48.44000 194.925
48.48000 182.771
48.52000 182.885
48.56000 182.773
48.60000 192.686
48.64000 176.479
48.68000 193.446
48.72000 186.078
48.76000 188.706
48.80000 174.935
48.84000 201.672
48.88000 192.866
48.92000 185.710
48.96000 186.425
49.00000 191.657
49.04000 175.327
49.08000 182.428
49.12000 182.946
49.16000 185.819
49.20000 177.229
49.24000 188.189
49.28000 172.953
49.32000 177.006
49.36000 185.628
49.40000 185.297
49.44000 191.766
49.48000 182.063
49.52000 175.457
49.56000 182.527
49.60000 184.044
49.64000 178.948
49.68000 182.672
49.72000 190.655
49.76000 194.118
49.80000 182.344
49.84000 193.324
49.88000 184.666
49.92000 187.277
49.96000 189.639
50.00000 188.453
50.04000 200.179
50.08000 195.588
50.12000 198.006
50.16000 207.222
50.20000 204.993
50.24000 222.746
50.28000 214.439
50.32000 240.752
50.36000 258.922
50.40000 263.804
50.44000 285.975
50.48000 261.873
50.52000 301.045
50.56000 289.904
50.60000 298.870
50.64000 287.380
50.68000 268.673
50.72000 267.949
50.76000 255.611
50.80000 223.771
50.84000 217.996
50.88000 220.269
50.92000 201.787
50.96000 204.342
51.00000 208.115
51.04000 195.546
51.08000 192.855
51.12000 175.779
51.16000 187.405
51.20000 186.993
51.24000 176.245
51.28000 181.549
51.32000 187.674
51.36000 170.945
51.40000 180.031
51.44000 178.900
51.48000 184.931
51.52000 182.523
51.56000 165.570
51.60000 173.360
51.64000 200.122
51.68000 163.481
51.72000 169.612
51.76000 174.787
51.80000 172.825
51.84000 157.508
51.88000 168.015
51.92000 169.228
51.96000 161.081
52.00000 178.670
52.04000 168.036
52.08000 176.335
52.12000 171.561
52.16000 162.326
52.20000 177.156
52.24000 164.696
52.28000 172.491
52.32000 167.974
52.36000 177.519
52.40000 164.785
52.44000 166.971
52.48000 160.906
52.52000 165.156
52.56000 157.679
52.60000 171.866
52.64000 170.181
52.68000 166.577
52.72000 162.580
52.76000 158.521
52.80000 173.585
52.84000 160.194
52.88000 160.207
52.92000 170.071
52.96000 165.322
53.00000 163.522
53.04000 168.297
53.08000 158.761
53.12000 175.310
53.16000 173.528
53.20000 164.214
53.24000 164.165
53.28000 169.435
53.32000 162.821
53.36000 166.645
53.40000 158.769
53.44000 162.248
53.48000 165.167
53.52000 162.420
53.56000 164.331
53.60000 163.830
53.64000 153.263
53.68000 162.619
53.72000 166.233
53.76000 163.634
53.80000 166.538
53.84000 164.134
53.88000 164.421
53.92000 157.325
53.96000 151.066
54.00000 163.552
54.04000 148.910
54.08000 159.241
54.12000 163.183
54.16000 165.822
54.20000 163.733
54.24000 147.763
54.28000 160.566
54.32000 157.334
54.36000 164.999
54.40000 150.193
54.44000 162.190
54.48000 169.760
54.52000 164.270
54.56000 161.931
54.60000 166.948
54.64000 162.609
54.68000 153.222
54.72000 161.187
54.76000 154.598
54.80000 162.217
54.84000 169.832
54.88000 156.629
54.92000 168.231
54.96000 178.423
55.00000 174.737
55.04000 168.021
55.08000 167.834
55.12000 171.569
55.16000 194.517
55.20000 183.801
55.24000 187.105
55.28000 206.157
55.32000 214.349
55.36000 240.348
55.40000 253.532
55.44000 294.603
55.48000 317.295
55.52000 381.714
55.56000 430.265
55.60000 492.508
55.64000 533.589
55.68000 546.734
55.72000 556.181
55.76000 545.111
55.80000 526.860
55.84000 501.984
55.88000 454.705
55.92000 408.432
55.96000 368.550
56.00000 339.517
56.04000 320.465
56.08000 272.338
56.12000 256.269
56.16000 239.232
56.20000 227.816
56.24000 221.936
56.28000 207.809
56.32000 208.899
56.36000 192.692
56.40000 190.128
56.44000 191.390
56.48000 186.757
56.52000 173.985
56.56000 169.946
56.60000 165.756
56.64000 164.599
56.68000 163.389
56.72000 166.540
56.76000 155.555
56.80000 159.446
56.84000 166.490
56.88000 159.751
56.92000 152.877
56.96000 139.943
57.00000 146.640
57.04000 149.493
57.08000 147.596
57.12000 152.513
57.16000 138.164
57.20000 143.535
57.24000 145.462
57.28000 159.287
57.32000 146.550
57.36000 149.896
57.40000 152.762
57.44000 149.063
57.48000 144.425
57.52000 151.394
57.56000 147.384
57.60000 147.672
57.64000 148.049
57.68000 146.972
57.72000 142.005
57.76000 153.205
57.80000 157.576
57.84000 145.469
57.88000 141.832
57.92000 149.823
57.96000 146.722
58.00000 151.219
58.04000 150.691
58.08000 148.094
58.12000 150.115
58.16000 140.783
58.20000 143.693
58.24000 135.657
58.28000 144.910
58.32000 162.679
58.36000 140.629
58.40000 149.888
58.44000 142.936
58.48000 137.183
58.52000 123.707
58.56000 139.280
58.60000 139.168
58.64000 140.356
58.68000 141.031
58.72000 145.581
58.76000 142.323
58.80000 138.570
58.84000 137.929
58.88000 146.068
58.92000 127.750
58.96000 116.401
59.00000 133.312
59.04000 146.464
59.08000 135.840
59.12000 138.472
59.16000 143.771
59.20000 138.124
59.24000 137.799
59.28000 141.794
59.32000 132.705
59.36000 132.525
59.40000 135.017
59.44000 130.925
59.48000 139.611
59.52000 141.766
59.56000 134.304
59.60000 144.242
59.64000 134.255
59.68000 133.499
59.72000 138.054
59.76000 138.935
59.80000 138.646
59.84000 131.871
59.88000 136.929
59.92000 131.874
59.96000 146.365
60.00000 127.482
60.04000 135.069
60.08000 135.742
60.12000 134.806
60.16000 139.275
60.20000 137.889
60.24000 129.286
60.28000 142.761
60.32000 126.709
60.36000 132.549
60.40000 136.147
60.44000 132.981
60.48000 124.942
60.52000 142.782
60.56000 135.090
60.60000 130.907
60.64000 124.521
60.68000 137.974
60.72000 139.725
60.76000 132.186
60.80000 140.049
60.84000 120.024
60.88000 135.576
60.92000 135.626
60.96000 139.505
61.00000 135.002
61.04000 148.690
61.08000 139.722
61.12000 139.381
61.16000 148.646
61.20000 143.243
61.24000 140.923
61.28000 151.521
61.32000 145.055
61.36000 151.237
61.40000 141.845
61.44000 139.750
61.48000 155.794
61.52000 180.888
61.56000 224.335
61.60000 288.119
61.64000 349.981
61.68000 372.358
61.72000 380.636
61.76000 388.762
61.80000 319.114
61.84000 236.190
61.88000 183.853
61.92000 160.618
61.96000 154.233
62.00000 147.618
62.04000 142.497
62.08000 146.328
62.12000 142.908
62.16000 156.196
62.20000 148.237
62.24000 147.797
62.28000 140.992
62.32000 153.654
62.36000 151.826
62.40000 150.302
62.44000 151.435
62.48000 152.022
62.52000 153.402
62.56000 149.340
62.60000 149.129
62.64000 153.793
62.68000 132.980
62.72000 154.562
62.76000 145.694
62.80000 143.081
62.84000 160.960
62.88000 153.616
62.92000 149.493
62.96000 153.851
63.00000 148.630
63.04000 143.757
63.08000 155.720
63.12000 148.673
63.16000 154.910
63.20000 151.097
63.24000 157.697
63.28000 143.673
63.32000 150.174
63.36000 152.318
63.40000 149.563
63.44000 153.217
63.48000 141.855
63.52000 162.569
63.56000 158.503
63.60000 152.222
63.64000 149.893
63.68000 156.744
63.72000 147.994
63.76000 150.402
63.80000 166.204
63.84000 163.612
63.88000 170.063
63.92000 173.752
63.96000 166.167
64.00000 172.472
64.04000 163.277
64.08000 156.515
64.12000 159.557
64.16000 160.369
64.20000 164.031
64.24000 172.577
64.28000 162.578
64.32000 166.029
64.36000 173.437
64.40000 173.318
64.44000 176.053
64.48000 197.607
64.52000 173.650
64.56000 183.261
64.60000 189.645
64.64000 178.717
64.68000 184.334
64.72000 192.787
64.76000 200.058
64.80000 194.048
64.84000 203.543
64.88000 220.477
64.92000 228.509
64.96000 236.209
65.00000 273.687
65.04000 307.001
65.08000 356.307
65.12000 389.717
65.16000 485.345
65.20000 534.841
65.24000 563.304
65.28000 595.538
65.32000 640.275
65.36000 623.121
65.40000 631.970
65.44000 600.077
65.48000 566.819
65.52000 542.160
65.56000 520.338
65.60000 494.827
65.64000 501.929
65.68000 548.594
65.72000 722.349
65.76000 983.464
65.80000 1316.097
65.84000 1555.321
65.88000 1629.354
65.92000 1588.653
65.96000 1431.649
66.00000 1059.948
66.04000 728.155
66.08000 484.855
66.12000 405.826
66.16000 358.561
66.20000 372.829
66.24000 377.921
66.28000 408.398
66.32000 480.285
66.36000 521.249
66.40000 578.286
66.44000 585.517
66.48000 567.056
66.52000 544.741
66.56000 470.736
66.60000 411.007
66.64000 388.323
66.68000 371.327
66.72000 369.277
66.76000 374.465
66.80000 356.896
66.84000 367.119
66.88000 357.319
66.92000 376.533
66.96000 380.678
67.00000 394.999
67.04000 406.221
67.08000 391.460
67.12000 412.718
67.16000 422.213
67.20000 429.034
67.24000 441.875
67.28000 460.935
67.32000 453.663
67.36000 448.675
67.40000 461.799
67.44000 466.576
67.48000 491.951
67.52000 491.423
67.56000 499.595
67.60000 512.538
67.64000 497.731
67.68000 551.656
67.72000 547.952
67.76000 550.229
67.80000 573.365
67.84000 583.263
67.88000 585.231
67.92000 589.826
67.96000 607.573
68.00000 637.536
68.04000 650.693
68.08000 657.542
68.12000 657.923
68.16000 686.364
68.20000 711.647
68.24000 729.019
68.28000 760.017
68.32000 758.082
68.36000 782.394
68.40000 823.699
68.44000 863.928
68.48000 922.614
68.52000 965.277
68.56000 1047.412
68.60000 1180.001
68.64000 1395.673
68.68000 1700.307
68.72000 2035.586
68.76000 2430.387
68.80000 2747.937
68.84000 3270.846
68.88000 4147.799
68.92000 6823.424
68.96000 15289.162
69.00000 37256.316
69.04000 67891.398
69.08000 88312.375
69.12000 93975.148
69.16000 97066.000
69.20000 98438.117
69.24000 90174.977
69.28000 70503.617
69.32000 54696.289
69.36000 47917.238
69.40000 41270.809
69.44000 29061.533
69.48000 14863.973
69.52000 6181.429
69.56000 3276.159
69.60000 2271.219
69.64000 1845.909
69.68000 1572.547
69.72000 1329.625
69.76000 1212.182
69.80000 1143.085
69.84000 1040.724
69.88000 973.111
69.92000 910.247
69.96000 867.322
70.00000 819.548