File: XRD/XRD/22-09-2025 Dep 2/XY Data/BTO_Mapping_Theta2Theta_22-09-2025_001_42_-9-010_-4-339.xy
20.00000 574.010
20.04000 564.333
20.08000 582.820
20.12000 573.256
20.16000 567.059
20.20000 576.014
20.24000 568.221
20.28000 550.939
20.32000 572.419
20.36000 585.553
20.40000 564.074
20.44000 568.258
20.48000 580.152
20.52000 558.055
20.56000 561.095
20.60000 568.815
20.64000 555.455
20.68000 578.887
20.72000 561.707
20.76000 557.645
20.80000 558.120
20.84000 578.954
20.88000 563.300
20.92000 569.659
20.96000 557.506
21.00000 570.373
21.04000 570.218
21.08000 559.171
21.12000 565.984
21.16000 553.572
21.20000 576.077
21.24000 590.166
21.28000 561.522
21.32000 561.818
21.36000 550.312
21.40000 570.459
21.44000 579.053
21.48000 570.507
21.52000 569.595
21.56000 570.677
21.60000 578.796
21.64000 584.744
21.68000 604.479
21.72000 593.982
21.76000 616.667
21.80000 650.993
21.84000 694.203
21.88000 718.990
21.92000 772.246
21.96000 796.481
22.00000 854.583
22.04000 852.834
22.08000 884.497
22.12000 850.281
22.16000 807.119
22.20000 787.587
22.24000 710.948
22.28000 698.287
22.32000 665.585
22.36000 644.939
22.40000 594.684
22.44000 591.703
22.48000 583.028
22.52000 562.648
22.56000 550.282
22.60000 539.493
22.64000 543.355
22.68000 548.488
22.72000 560.135
22.76000 543.351
22.80000 543.260
22.84000 517.832
22.88000 511.499
22.92000 503.318
22.96000 515.130
23.00000 526.466
23.04000 525.089
23.08000 511.247
23.12000 525.835
23.16000 526.951
23.20000 510.334
23.24000 517.521
23.28000 511.036
23.32000 503.714
23.36000 514.479
23.40000 524.769
23.44000 528.098
23.48000 516.355
23.52000 524.087
23.56000 498.631
23.60000 513.782
23.64000 519.006
23.68000 514.453
23.72000 493.517
23.76000 489.971
23.80000 509.637
23.84000 513.208
23.88000 509.420
23.92000 494.138
23.96000 499.364
24.00000 487.491
24.04000 497.404
24.08000 486.302
24.12000 494.369
24.16000 504.161
24.20000 501.780
24.24000 499.828
24.28000 491.247
24.32000 499.173
24.36000 509.224
24.40000 489.390
24.44000 488.473
24.48000 490.623
24.52000 495.624
24.56000 497.685
24.60000 480.357
24.64000 481.224
24.68000 481.454
24.72000 499.637
24.76000 485.879
24.80000 473.858
24.84000 487.933
24.88000 482.792
24.92000 472.682
24.96000 489.666
25.00000 475.466
25.04000 502.940
25.08000 478.892
25.12000 501.456
25.16000 492.919
25.20000 479.963
25.24000 479.867
25.28000 491.993
25.32000 463.881
25.36000 482.754
25.40000 491.890
25.44000 484.013
25.48000 469.919
25.52000 461.092
25.56000 472.870
25.60000 471.923
25.64000 474.320
25.68000 472.773
25.72000 471.015
25.76000 484.911
25.80000 484.762
25.84000 460.546
25.88000 462.452
25.92000 456.507
25.96000 490.314
26.00000 473.650
26.04000 459.601
26.08000 464.393
26.12000 469.560
26.16000 455.453
26.20000 478.644
26.24000 464.475
26.28000 478.985
26.32000 460.338
26.36000 463.837
26.40000 465.639
26.44000 466.880
26.48000 450.319
26.52000 458.571
26.56000 469.215
26.60000 454.885
26.64000 451.331
26.68000 450.079
26.72000 459.089
26.76000 454.843
26.80000 444.907
26.84000 432.655
26.88000 446.095
26.92000 449.429
26.96000 452.849
27.00000 445.440
27.04000 451.026
27.08000 440.618
27.12000 446.189
27.16000 445.451
27.20000 444.827
27.24000 442.598
27.28000 448.087
27.32000 457.350
27.36000 449.813
27.40000 422.874
27.44000 445.756
27.48000 462.011
27.52000 444.032
27.56000 432.450
27.60000 437.890
27.64000 443.962
27.68000 438.592
27.72000 434.661
27.76000 444.442
27.80000 429.641
27.84000 441.451
27.88000 447.755
27.92000 471.948
27.96000 446.616
28.00000 444.823
28.04000 464.025
28.08000 434.220
28.12000 428.438
28.16000 437.700
28.20000 419.575
28.24000 431.232
28.28000 444.476
28.32000 434.388
28.36000 427.894
28.40000 444.056
28.44000 436.234
28.48000 441.075
28.52000 426.225
28.56000 405.212
28.60000 436.737
28.64000 416.167
28.68000 418.673
28.72000 417.483
28.76000 420.931
28.80000 422.107
28.84000 432.790
28.88000 428.268
28.92000 421.321
28.96000 419.299
29.00000 411.974
29.04000 417.607
29.08000 420.299
29.12000 430.979
29.16000 414.511
29.20000 424.661
29.24000 418.869
29.28000 416.769
29.32000 434.729
29.36000 414.684
29.40000 402.591
29.44000 428.703
29.48000 420.286
29.52000 427.785
29.56000 414.906
29.60000 416.756
29.64000 427.717
29.68000 433.652
29.72000 422.753
29.76000 423.321
29.80000 419.796
29.84000 413.379
29.88000 452.347
29.92000 436.433
29.96000 452.421
30.00000 453.811
30.04000 440.194
30.08000 443.709
30.12000 450.454
30.16000 464.551
30.20000 447.923
30.24000 428.550
30.28000 429.864
30.32000 437.218
30.36000 440.447
30.40000 449.976
30.44000 443.595
30.48000 453.412
30.52000 442.687
30.56000 437.087
30.60000 438.670
30.64000 450.264
30.68000 444.264
30.72000 469.878
30.76000 473.614
30.80000 490.350
30.84000 497.740
30.88000 514.628
30.92000 536.802
30.96000 576.469
31.00000 645.907
31.04000 714.222
31.08000 846.813
31.12000 1044.748
31.16000 1315.990
31.20000 1660.119
31.24000 2106.409
31.28000 2613.042
31.32000 3022.208
31.36000 3302.230
31.40000 3389.400
31.44000 3214.874
31.48000 2886.927
31.52000 2449.756
31.56000 2008.238
31.60000 1611.183
31.64000 1281.185
31.68000 1023.435
31.72000 867.038
31.76000 735.958
31.80000 640.676
31.84000 586.477
31.88000 541.103
31.92000 507.048
31.96000 477.257
32.00000 453.447
32.04000 454.634
32.08000 419.564
32.12000 442.612
32.16000 418.120
32.20000 425.490
32.24000 429.482
32.28000 423.002
32.32000 406.091
32.36000 404.962
32.40000 394.985
32.44000 414.323
32.48000 417.619
32.52000 408.865
32.56000 388.898
32.60000 405.398
32.64000 424.917
32.68000 409.776
32.72000 403.143
32.76000 413.183
32.80000 424.914
32.84000 441.445
32.88000 458.962
32.92000 467.046
32.96000 492.798
33.00000 466.644
33.04000 434.056
33.08000 413.464
33.12000 379.058
33.16000 355.080
33.20000 360.675
33.24000 374.595
33.28000 364.147
33.32000 350.443
33.36000 368.836
33.40000 360.083
33.44000 368.389
33.48000 345.573
33.52000 347.063
33.56000 342.863
33.60000 350.309
33.64000 352.125
33.68000 321.949
33.72000 345.567
33.76000 359.405
33.80000 348.456
33.84000 354.157
33.88000 327.141
33.92000 335.130
33.96000 337.941
34.00000 360.026
34.04000 341.836
34.08000 342.677
34.12000 334.125
34.16000 337.039
34.20000 339.655
34.24000 331.990
34.28000 348.764
34.32000 334.598
34.36000 316.681
34.40000 328.252
34.44000 334.745
34.48000 344.916
34.52000 332.764
34.56000 314.082
34.60000 337.082
34.64000 318.363
34.68000 333.114
34.72000 322.996
34.76000 322.343
34.80000 327.386
34.84000 316.401
34.88000 331.571
34.92000 315.829
34.96000 326.165
35.00000 318.334
35.04000 306.621
35.08000 322.777
35.12000 322.375
35.16000 328.380
35.20000 317.214
35.24000 309.424
35.28000 322.407
35.32000 313.344
35.36000 313.180
35.40000 314.571
35.44000 327.810
35.48000 303.410
35.52000 297.620
35.56000 309.823
35.60000 316.747
35.64000 319.135
35.68000 329.723
35.72000 302.537
35.76000 306.595
35.80000 313.022
35.84000 318.017
35.88000 315.336
35.92000 314.469
35.96000 315.311
36.00000 310.746
36.04000 320.211
36.08000 291.649
36.12000 301.215
36.16000 307.352
36.20000 304.706
36.24000 313.101
36.28000 294.893
36.32000 300.830
36.36000 305.226
36.40000 313.447
36.44000 301.461
36.48000 302.634
36.52000 292.419
36.56000 301.072
36.60000 315.620
36.64000 306.648
36.68000 322.198
36.72000 287.844
36.76000 317.930
36.80000 311.508
36.84000 307.710
36.88000 316.829
36.92000 309.696
36.96000 309.539
37.00000 303.801
37.04000 301.539
37.08000 300.088
37.12000 301.919
37.16000 309.555
37.20000 295.933
37.24000 308.736
37.28000 309.490
37.32000 291.463
37.36000 317.164
37.40000 296.755
37.44000 298.163
37.48000 297.305
37.52000 300.218
37.56000 285.615
37.60000 296.999
37.64000 296.558
37.68000 303.493
37.72000 304.278
37.76000 279.819
37.80000 300.734
37.84000 308.542
37.88000 306.555
37.92000 301.542
37.96000 309.332
38.00000 306.627
38.04000 309.255
38.08000 305.340
38.12000 323.922
38.16000 324.297
38.20000 318.650
38.24000 342.113
38.28000 348.763
38.32000 365.778
38.36000 370.690
38.40000 428.860
38.44000 455.945
38.48000 510.942
38.52000 570.617
38.56000 687.914
38.60000 762.727
38.64000 858.558
38.68000 871.116
38.72000 923.468
38.76000 878.464
38.80000 798.922
38.84000 711.832
38.88000 615.992
38.92000 550.862
38.96000 459.252
39.00000 428.924
39.04000 383.144
39.08000 349.104
39.12000 358.430
39.16000 314.491
39.20000 323.228
39.24000 304.993
39.28000 294.308
39.32000 285.139
39.36000 291.033
39.40000 294.653
39.44000 304.277
39.48000 289.648
39.52000 275.662
39.56000 275.285
39.60000 278.751
39.64000 290.597
39.68000 280.666
39.72000 269.217
39.76000 258.248
39.80000 273.404
39.84000 265.777
39.88000 281.216
39.92000 278.970
39.96000 278.807
40.00000 275.903
40.04000 259.032
40.08000 271.247
40.12000 280.552
40.16000 269.855
40.20000 265.262
40.24000 279.196
40.28000 267.774
40.32000 272.564
40.36000 272.925
40.40000 246.908
40.44000 255.784
40.48000 256.460
40.52000 257.611
40.56000 272.937
40.60000 258.240
40.64000 261.543
40.68000 255.563
40.72000 256.028
40.76000 263.008
40.80000 271.334
40.84000 249.462
40.88000 255.167
40.92000 263.860
40.96000 257.389
41.00000 261.999
41.04000 248.518
41.08000 249.294
41.12000 255.945
41.16000 250.651
41.20000 267.033
41.24000 245.516
41.28000 256.667
41.32000 257.966
41.36000 254.743
41.40000 256.261
41.44000 250.243
41.48000 249.863
41.52000 250.007
41.56000 244.950
41.60000 237.045
41.64000 258.298
41.68000 232.403
41.72000 247.197
41.76000 247.025
41.80000 248.454
41.84000 225.782
41.88000 238.783
41.92000 241.179
41.96000 243.065
42.00000 233.708
42.04000 274.108
42.08000 245.578
42.12000 232.498
42.16000 239.518
42.20000 233.577
42.24000 237.279
42.28000 239.441
42.32000 247.858
42.36000 240.114
42.40000 244.298
42.44000 242.959
42.48000 245.363
42.52000 236.127
42.56000 225.928
42.60000 235.501
42.64000 241.868
42.68000 236.518
42.72000 232.234
42.76000 229.613
42.80000 237.440
42.84000 233.840
42.88000 243.708
42.92000 243.196
42.96000 247.672
43.00000 250.721
43.04000 239.817
43.08000 240.384
43.12000 224.617
43.16000 234.382
43.20000 239.837
43.24000 240.903
43.28000 227.228
43.32000 234.015
43.36000 236.531
43.40000 225.171
43.44000 241.258
43.48000 232.334
43.52000 235.925
43.56000 237.139
43.60000 224.840
43.64000 231.940
43.68000 219.948
43.72000 233.194
43.76000 233.201
43.80000 217.294
43.84000 217.432
43.88000 227.310
43.92000 219.866
43.96000 244.473
44.00000 228.807
44.04000 230.385
44.08000 241.223
44.12000 238.969
44.16000 241.927
44.20000 231.898
44.24000 233.226
44.28000 243.620
44.32000 241.885
44.36000 239.846
44.40000 248.764
44.44000 250.471
44.48000 248.800
44.52000 240.384
44.56000 253.607
44.60000 267.415
44.64000 280.340
44.68000 299.637
44.72000 308.774
44.76000 332.188
44.80000 352.188
44.84000 376.128
44.88000 413.758
44.92000 431.224
44.96000 477.697
45.00000 502.007
45.04000 477.235
45.08000 468.128
45.12000 476.169
45.16000 434.730
45.20000 438.336
45.24000 411.069
45.28000 389.983
45.32000 364.063
45.36000 334.094
45.40000 328.898
45.44000 305.109
45.48000 295.909
45.52000 288.235
45.56000 280.510
45.60000 279.863
45.64000 265.144
45.68000 250.637
45.72000 258.766
45.76000 253.274
45.80000 249.487
45.84000 235.937
45.88000 228.567
45.92000 236.237
45.96000 218.157
46.00000 215.982
46.04000 222.239
46.08000 206.857
46.12000 217.225
46.16000 204.906
46.20000 196.321
46.24000 224.994
46.28000 216.946
46.32000 214.196
46.36000 206.749
46.40000 203.241
46.44000 197.576
46.48000 196.897
46.52000 214.466
46.56000 209.709
46.60000 206.008
46.64000 193.198
46.68000 213.950
46.72000 200.222
46.76000 213.903
46.80000 203.117
46.84000 205.637
46.88000 213.426
46.92000 204.369
46.96000 202.177
47.00000 202.642
47.04000 202.914
47.08000 204.513
47.12000 193.776
47.16000 202.739
47.20000 196.659
47.24000 186.060
47.28000 199.651
47.32000 196.699
47.36000 196.429
47.40000 197.479
47.44000 189.320
47.48000 194.372
47.52000 193.308
47.56000 187.166
47.60000 191.544
47.64000 184.828
47.68000 178.629
47.72000 184.446
47.76000 185.318
47.80000 186.119
47.84000 196.445
47.88000 188.400
47.92000 181.571
47.96000 184.317
48.00000 187.920
48.04000 190.987
48.08000 185.694
48.12000 188.464
48.16000 191.236
48.20000 186.896
48.24000 181.458
48.28000 178.081
48.32000 183.177
48.36000 188.074
48.40000 184.085
48.44000 197.142
48.48000 183.095
48.52000 182.993
48.56000 194.242
48.60000 182.403
48.64000 192.765
48.68000 185.637
48.72000 183.660
48.76000 191.961
48.80000 177.534
48.84000 178.673
48.88000 183.336
48.92000 177.961
48.96000 179.911
49.00000 192.214
49.04000 184.401
49.08000 179.758
49.12000 173.537
49.16000 177.596
49.20000 187.609
49.24000 174.017
49.28000 189.984
49.32000 188.094
49.36000 185.256
49.40000 189.783
49.44000 190.694
49.48000 182.150
49.52000 171.362
49.56000 185.544
49.60000 180.754
49.64000 175.495
49.68000 164.281
49.72000 172.958
49.76000 154.125
49.80000 179.458
49.84000 180.934
49.88000 190.671
49.92000 181.988
49.96000 185.725
50.00000 177.421
50.04000 188.394
50.08000 175.765
50.12000 182.266
50.16000 185.175
50.20000 181.289
50.24000 182.679
50.28000 205.994
50.32000 189.945
50.36000 199.108
50.40000 199.326
50.44000 201.498
50.48000 226.985
50.52000 239.725
50.56000 240.913
50.60000 270.689
50.64000 271.775
50.68000 266.241
50.72000 280.086
50.76000 268.637
50.80000 252.152
50.84000 258.330
50.88000 252.358
50.92000 233.988
50.96000 217.004
51.00000 217.347
51.04000 215.861
51.08000 198.089
51.12000 196.169
51.16000 181.736
51.20000 191.138
51.24000 192.877
51.28000 187.785
51.32000 178.860
51.36000 171.542
51.40000 183.124
51.44000 169.897
51.48000 181.636
51.52000 174.845
51.56000 188.262
51.60000 171.915
51.64000 155.706
51.68000 159.963
51.72000 171.191
51.76000 164.921
51.80000 159.244
51.84000 159.635
51.88000 164.764
51.92000 155.100
51.96000 173.261
52.00000 170.034
52.04000 155.816
52.08000 173.438
52.12000 177.097
52.16000 168.777
52.20000 169.587
52.24000 168.649
52.28000 177.292
52.32000 163.224
52.36000 171.498
52.40000 166.091
52.44000 165.199
52.48000 164.973
52.52000 160.975
52.56000 160.229
52.60000 157.967
52.64000 162.190
52.68000 156.495
52.72000 159.748
52.76000 165.406
52.80000 161.886
52.84000 158.859
52.88000 164.054
52.92000 161.874
52.96000 160.464
53.00000 161.271
53.04000 160.362
53.08000 163.741
53.12000 164.518
53.16000 162.064
53.20000 169.465
53.24000 154.417
53.28000 156.378
53.32000 160.130
53.36000 171.430
53.40000 167.170
53.44000 169.657
53.48000 171.794
53.52000 156.044
53.56000 163.599
53.60000 166.222
53.64000 159.830
53.68000 156.938
53.72000 158.613
53.76000 161.155
53.80000 163.724
53.84000 155.617
53.88000 159.812
53.92000 158.901
53.96000 163.945
54.00000 154.805
54.04000 168.623
54.08000 156.903
54.12000 156.257
54.16000 158.727
54.20000 158.025
54.24000 159.466
54.28000 149.384
54.32000 158.679
54.36000 163.167
54.40000 156.017
54.44000 156.084
54.48000 162.924
54.52000 164.964
54.56000 166.445
54.60000 163.157
54.64000 164.208
54.68000 146.061
54.72000 161.273
54.76000 166.537
54.80000 162.431
54.84000 170.799
54.88000 165.838
54.92000 164.410
54.96000 154.428
55.00000 167.609
55.04000 165.049
55.08000 156.384
55.12000 159.240
55.16000 166.949
55.20000 173.864
55.24000 181.445
55.28000 176.222
55.32000 190.482
55.36000 187.833
55.40000 193.366
55.44000 203.052
55.48000 221.992
55.52000 218.181
55.56000 236.348
55.60000 259.748
55.64000 288.725
55.68000 334.131
55.72000 376.275
55.76000 416.325
55.80000 476.766
55.84000 518.546
55.88000 551.883
55.92000 571.608
55.96000 573.633
56.00000 564.056
56.04000 539.083
56.08000 500.138
56.12000 458.965
56.16000 404.679
56.20000 369.782
56.24000 340.222
56.28000 302.277
56.32000 278.261
56.36000 231.153
56.40000 229.812
56.44000 236.856
56.48000 193.043
56.52000 191.526
56.56000 193.531
56.60000 184.442
56.64000 184.542
56.68000 167.535
56.72000 164.422
56.76000 170.383
56.80000 160.488
56.84000 163.560
56.88000 155.566
56.92000 150.212
56.96000 159.040
57.00000 155.075
57.04000 147.970
57.08000 155.314
57.12000 147.285
57.16000 150.357
57.20000 140.600
57.24000 145.583
57.28000 144.876
57.32000 144.482
57.36000 154.571
57.40000 138.969
57.44000 157.784
57.48000 153.864
57.52000 147.510
57.56000 140.859
57.60000 156.090
57.64000 148.163
57.68000 154.989
57.72000 141.745
57.76000 150.957
57.80000 147.779
57.84000 145.239
57.88000 142.151
57.92000 147.431
57.96000 145.354
58.00000 143.719
58.04000 147.537
58.08000 148.634
58.12000 148.954
58.16000 143.657
58.20000 146.280
58.24000 138.529
58.28000 140.798
58.32000 150.610
58.36000 139.278
58.40000 138.403
58.44000 144.171
58.48000 140.734
58.52000 135.611
58.56000 138.919
58.60000 135.759
58.64000 126.381
58.68000 138.547
58.72000 150.322
58.76000 134.148
58.80000 132.007
58.84000 137.458
58.88000 138.553
58.92000 144.172
58.96000 140.213
59.00000 142.459
59.04000 133.368
59.08000 136.446
59.12000 130.932
59.16000 132.919
59.20000 138.747
59.24000 139.154
59.28000 135.271
59.32000 142.717
59.36000 132.389
59.40000 134.188
59.44000 147.024
59.48000 143.653
59.52000 132.334
59.56000 126.700
59.60000 140.584
59.64000 128.362
59.68000 135.606
59.72000 137.087
59.76000 133.751
59.80000 132.677
59.84000 133.083
59.88000 137.004
59.92000 138.683
59.96000 131.751
60.00000 139.856
60.04000 138.794
60.08000 138.301
60.12000 132.829
60.16000 130.440
60.20000 129.001
60.24000 130.006
60.28000 131.708
60.32000 129.686
60.36000 133.588
60.40000 132.407
60.44000 127.425
60.48000 130.578
60.52000 122.617
60.56000 129.683
60.60000 136.293
60.64000 128.343
60.68000 127.234
60.72000 127.604
60.76000 130.821
60.80000 137.859
60.84000 124.705
60.88000 140.133
60.92000 130.470
60.96000 138.681
61.00000 135.910
61.04000 153.273
61.08000 135.491
61.12000 140.418
61.16000 140.811
61.20000 129.725
61.24000 145.169
61.28000 147.699
61.32000 142.281
61.36000 147.810
61.40000 144.328
61.44000 146.044
61.48000 157.176
61.52000 193.051
61.56000 245.488
61.60000 316.423
61.64000 347.322
61.68000 374.150
61.72000 354.389
61.76000 321.366
61.80000 263.459
61.84000 208.124
61.88000 169.171
61.92000 151.350
61.96000 153.399
62.00000 145.073
62.04000 138.154
62.08000 156.245
62.12000 145.601
62.16000 149.807
62.20000 141.513
62.24000 150.158
62.28000 132.976
62.32000 156.542
62.36000 145.007
62.40000 143.235
62.44000 143.854
62.48000 140.745
62.52000 154.523
62.56000 143.124
62.60000 153.683
62.64000 148.806
62.68000 143.029
62.72000 146.561
62.76000 153.324
62.80000 145.693
62.84000 145.757
62.88000 156.236
62.92000 147.032
62.96000 139.624
63.00000 145.390
63.04000 147.538
63.08000 140.849
63.12000 162.645
63.16000 152.313
63.20000 161.039
63.24000 157.423
63.28000 150.389
63.32000 151.996
63.36000 148.295
63.40000 156.536
63.44000 146.221
63.48000 152.997
63.52000 152.053
63.56000 158.508
63.60000 156.694
63.64000 146.242
63.68000 157.809
63.72000 158.809
63.76000 144.530
63.80000 150.126
63.84000 146.830
63.88000 160.030
63.92000 167.547
63.96000 151.739
64.00000 158.753
64.04000 164.880
64.08000 170.643
64.12000 160.142
64.16000 163.680
64.20000 175.279
64.24000 171.526
64.28000 165.300
64.32000 159.437
64.36000 170.863
64.40000 164.837
64.44000 177.780
64.48000 181.055
64.52000 178.925
64.56000 161.582
64.60000 172.298
64.64000 183.291
64.68000 180.489
64.72000 179.209
64.76000 185.730
64.80000 173.996
64.84000 190.033
64.88000 195.580
64.92000 193.684
64.96000 203.021
65.00000 201.144
65.04000 208.157
65.08000 213.087
65.12000 216.926
65.16000 233.019
65.20000 246.454
65.24000 264.826
65.28000 282.969
65.32000 288.055
65.36000 310.859
65.40000 352.599
65.44000 372.784
65.48000 387.667
65.52000 391.076
65.56000 444.740
65.60000 488.563
65.64000 537.804
65.68000 630.700
65.72000 831.381
65.76000 1116.698
65.80000 1400.033
65.84000 1533.027
65.88000 1606.965
65.92000 1535.019
65.96000 1309.227
66.00000 913.866
66.04000 612.301
66.08000 446.780
66.12000 396.688
66.16000 378.413
66.20000 373.838
66.24000 392.399
66.28000 446.670
66.32000 481.939
66.36000 537.812
66.40000 577.215
66.44000 574.086
66.48000 586.141
66.52000 506.375
66.56000 441.315
66.60000 393.763
66.64000 374.922
66.68000 374.366
66.72000 351.034
66.76000 365.142
66.80000 362.656
66.84000 366.873
66.88000 362.098
66.92000 377.202
66.96000 385.882
67.00000 386.368
67.04000 410.775
67.08000 433.273
67.12000 427.108
67.16000 429.725
67.20000 423.593
67.24000 446.422
67.28000 450.030
67.32000 469.852
67.36000 473.620
67.40000 463.023
67.44000 472.592
67.48000 490.146
67.52000 501.774
67.56000 509.546
67.60000 509.831
67.64000 530.986
67.68000 533.440
67.72000 547.974
67.76000 546.273
67.80000 570.080
67.84000 596.198
67.88000 578.476
67.92000 600.290
67.96000 628.818
68.00000 635.003
68.04000 631.923
68.08000 648.934
68.12000 670.950
68.16000 671.423
68.20000 699.634
68.24000 746.285
68.28000 733.704
68.32000 760.944
68.36000 824.611
68.40000 843.378
68.44000 889.480
68.48000 939.537
68.52000 1013.958
68.56000 1099.008
68.60000 1273.060
68.64000 1502.215
68.68000 1807.643
68.72000 2166.890
68.76000 2544.148
68.80000 3011.241
68.84000 3784.094
68.88000 5164.246
68.92000 9647.634
68.96000 21950.455
69.00000 47037.754
69.04000 73551.820
69.08000 87591.789
69.12000 91508.898
69.16000 95166.719
69.20000 93684.758
69.24000 78570.586
69.28000 60873.082
69.32000 50132.262
69.36000 44730.543
69.40000 36389.199
69.44000 22210.139
69.48000 10757.094
69.52000 4804.155
69.56000 2866.913
69.60000 2044.329
69.64000 1695.714
69.68000 1472.223
69.72000 1315.610
69.76000 1175.494
69.80000 1060.730
69.84000 1008.918
69.88000 958.035
69.92000 901.351
69.96000 862.556
70.00000 802.540