File: XRD/XRD/22-09-2025 Dep 2/XY Data/BTO_Mapping_Theta2Theta_22-09-2025_001_69_27-029_-13-017.xy
20.00000 568.564
20.04000 581.083
20.08000 556.490
20.12000 563.150
20.16000 562.132
20.20000 562.237
20.24000 562.535
20.28000 557.679
20.32000 557.887
20.36000 574.184
20.40000 569.505
20.44000 592.096
20.48000 561.754
20.52000 563.620
20.56000 578.812
20.60000 577.365
20.64000 560.391
20.68000 560.405
20.72000 558.376
20.76000 555.817
20.80000 539.900
20.84000 543.503
20.88000 552.864
20.92000 556.543
20.96000 543.366
21.00000 573.166
21.04000 560.937
21.08000 553.218
21.12000 546.365
21.16000 548.473
21.20000 553.903
21.24000 537.562
21.28000 546.787
21.32000 559.779
21.36000 566.312
21.40000 551.578
21.44000 555.833
21.48000 539.380
21.52000 556.593
21.56000 542.468
21.60000 546.776
21.64000 566.767
21.68000 552.388
21.72000 563.741
21.76000 562.934
21.80000 552.777
21.84000 573.561
21.88000 617.560
21.92000 629.211
21.96000 641.492
22.00000 666.891
22.04000 686.884
22.08000 703.769
22.12000 705.921
22.16000 699.977
22.20000 692.929
22.24000 687.446
22.28000 674.020
22.32000 640.605
22.36000 637.104
22.40000 599.028
22.44000 591.159
22.48000 576.205
22.52000 542.014
22.56000 572.183
22.60000 527.722
22.64000 532.592
22.68000 529.723
22.72000 540.302
22.76000 526.932
22.80000 546.248
22.84000 540.859
22.88000 535.050
22.92000 510.574
22.96000 516.378
23.00000 517.880
23.04000 534.305
23.08000 523.255
23.12000 520.099
23.16000 535.449
23.20000 516.711
23.24000 521.718
23.28000 503.495
23.32000 521.423
23.36000 507.262
23.40000 516.376
23.44000 501.146
23.48000 500.096
23.52000 522.484
23.56000 510.350
23.60000 517.227
23.64000 522.357
23.68000 520.986
23.72000 508.582
23.76000 553.386
23.80000 540.540
23.84000 528.707
23.88000 537.744
23.92000 539.957
23.96000 539.353
24.00000 526.715
24.04000 543.572
24.08000 538.781
24.12000 534.206
24.16000 523.900
24.20000 530.557
24.24000 510.575
24.28000 514.865
24.32000 500.826
24.36000 507.636
24.40000 485.728
24.44000 488.497
24.48000 485.935
24.52000 481.986
24.56000 493.667
24.60000 515.707
24.64000 489.755
24.68000 489.382
24.72000 486.215
24.76000 483.795
24.80000 489.576
24.84000 487.852
24.88000 486.688
24.92000 502.546
24.96000 489.144
25.00000 481.666
25.04000 499.591
25.08000 479.357
25.12000 466.647
25.16000 475.505
25.20000 476.516
25.24000 484.419
25.28000 465.353
25.32000 467.102
25.36000 468.102
25.40000 466.792
25.44000 476.537
25.48000 459.912
25.52000 455.800
25.56000 468.404
25.60000 472.987
25.64000 483.060
25.68000 472.474
25.72000 492.014
25.76000 469.431
25.80000 453.044
25.84000 438.192
25.88000 471.519
25.92000 467.164
25.96000 477.200
26.00000 456.087
26.04000 455.041
26.08000 452.721
26.12000 469.514
26.16000 431.185
26.20000 460.057
26.24000 456.355
26.28000 472.709
26.32000 466.540
26.36000 461.606
26.40000 445.253
26.44000 432.512
26.48000 457.203
26.52000 460.931
26.56000 450.117
26.60000 451.606
26.64000 444.079
26.68000 428.835
26.72000 466.905
26.76000 449.880
26.80000 442.964
26.84000 455.904
26.88000 422.773
26.92000 430.924
26.96000 437.458
27.00000 444.198
27.04000 442.995
27.08000 441.270
27.12000 433.031
27.16000 447.330
27.20000 444.918
27.24000 445.298
27.28000 437.356
27.32000 440.352
27.36000 431.583
27.40000 450.695
27.44000 444.023
27.48000 435.861
27.52000 440.934
27.56000 445.160
27.60000 434.195
27.64000 419.740
27.68000 445.506
27.72000 445.288
27.76000 434.605
27.80000 432.943
27.84000 429.531
27.88000 438.803
27.92000 413.724
27.96000 443.595
28.00000 439.550
28.04000 456.896
28.08000 433.746
28.12000 437.456
28.16000 436.632
28.20000 441.094
28.24000 414.303
28.28000 433.330
28.32000 432.714
28.36000 437.369
28.40000 427.773
28.44000 413.001
28.48000 415.210
28.52000 417.531
28.56000 427.901
28.60000 426.644
28.64000 431.385
28.68000 415.314
28.72000 413.948
28.76000 419.911
28.80000 411.553
28.84000 413.878
28.88000 419.370
28.92000 422.376
28.96000 427.651
29.00000 422.480
29.04000 424.392
29.08000 400.246
29.12000 408.683
29.16000 432.167
29.20000 424.437
29.24000 426.125
29.28000 409.381
29.32000 426.255
29.36000 404.667
29.40000 405.409
29.44000 414.971
29.48000 412.408
29.52000 421.597
29.56000 412.934
29.60000 387.916
29.64000 419.049
29.68000 422.932
29.72000 405.767
29.76000 402.894
29.80000 401.184
29.84000 431.314
29.88000 428.109
29.92000 417.575
29.96000 433.795
30.00000 445.334
30.04000 441.083
30.08000 441.309
30.12000 441.151
30.16000 429.310
30.20000 426.084
30.24000 431.851
30.28000 434.011
30.32000 406.554
30.36000 420.300
30.40000 414.899
30.44000 422.843
30.48000 432.802
30.52000 410.032
30.56000 444.100
30.60000 440.327
30.64000 436.374
30.68000 434.691
30.72000 437.099
30.76000 448.723
30.80000 443.882
30.84000 451.252
30.88000 480.320
30.92000 479.636
30.96000 496.879
31.00000 538.484
31.04000 573.392
31.08000 631.042
31.12000 719.736
31.16000 890.940
31.20000 1105.168
31.24000 1403.206
31.28000 1679.299
31.32000 2045.395
31.36000 2356.303
31.40000 2438.121
31.44000 2522.506
31.48000 2416.069
31.52000 2125.886
31.56000 1800.254
31.60000 1482.787
31.64000 1187.037
31.68000 978.018
31.72000 804.655
31.76000 703.655
31.80000 636.713
31.84000 572.445
31.88000 527.696
31.92000 498.690
31.96000 471.830
32.00000 469.803
32.04000 439.316
32.08000 432.976
32.12000 421.232
32.16000 421.307
32.20000 406.335
32.24000 407.398
32.28000 400.105
32.32000 403.169
32.36000 393.575
32.40000 397.062
32.44000 392.786
32.48000 394.714
32.52000 384.736
32.56000 390.986
32.60000 392.887
32.64000 382.736
32.68000 380.705
32.72000 358.701
32.76000 381.407
32.80000 385.917
32.84000 395.825
32.88000 390.520
32.92000 403.896
32.96000 389.013
33.00000 403.010
33.04000 407.986
33.08000 373.355
33.12000 366.922
33.16000 358.524
33.20000 338.907
33.24000 349.692
33.28000 346.740
33.32000 336.137
33.36000 351.049
33.40000 367.363
33.44000 351.221
33.48000 335.315
33.52000 340.538
33.56000 341.982
33.60000 335.108
33.64000 332.739
33.68000 335.830
33.72000 330.186
33.76000 343.588
33.80000 324.600
33.84000 338.508
33.88000 306.015
33.92000 345.827
33.96000 337.107
34.00000 347.703
34.04000 354.109
34.08000 336.179
34.12000 340.286
34.16000 347.025
34.20000 336.108
34.24000 333.307
34.28000 353.462
34.32000 335.521
34.36000 336.495
34.40000 345.286
34.44000 340.820
34.48000 322.359
34.52000 343.488
34.56000 326.616
34.60000 336.718
34.64000 335.883
34.68000 333.379
34.72000 328.060
34.76000 333.284
34.80000 321.335
34.84000 316.046
34.88000 330.859
34.92000 322.471
34.96000 324.098
35.00000 326.197
35.04000 314.616
35.08000 319.403
35.12000 316.174
35.16000 320.971
35.20000 325.277
35.24000 313.518
35.28000 321.505
35.32000 320.527
35.36000 318.245
35.40000 314.297
35.44000 307.759
35.48000 307.363
35.52000 312.128
35.56000 308.217
35.60000 311.046
35.64000 312.009
35.68000 310.094
35.72000 299.721
35.76000 308.111
35.80000 314.003
35.84000 331.668
35.88000 309.377
35.92000 308.379
35.96000 316.692
36.00000 309.739
36.04000 308.931
36.08000 296.288
36.12000 300.548
36.16000 313.614
36.20000 302.590
36.24000 310.741
36.28000 296.762
36.32000 322.861
36.36000 308.842
36.40000 288.896
36.44000 301.089
36.48000 292.340
36.52000 294.040
36.56000 320.766
36.60000 312.456
36.64000 305.996
36.68000 318.267
36.72000 301.070
36.76000 290.186
36.80000 281.462
36.84000 284.511
36.88000 291.137
36.92000 302.291
36.96000 296.237
37.00000 310.967
37.04000 308.738
37.08000 309.074
37.12000 311.873
37.16000 306.290
37.20000 301.270
37.24000 299.988
37.28000 304.283
37.32000 285.318
37.36000 291.947
37.40000 291.207
37.44000 286.860
37.48000 276.868
37.52000 289.605
37.56000 294.015
37.60000 289.497
37.64000 286.111
37.68000 290.143
37.72000 289.359
37.76000 306.835
37.80000 286.054
37.84000 295.874
37.88000 299.058
37.92000 311.579
37.96000 300.632
38.00000 291.197
38.04000 294.720
38.08000 295.277
38.12000 293.689
38.16000 299.902
38.20000 302.385
38.24000 310.205
38.28000 298.852
38.32000 322.624
38.36000 330.274
38.40000 340.849
38.44000 363.743
38.48000 396.662
38.52000 474.488
38.56000 555.570
38.60000 664.121
38.64000 807.838
38.68000 903.413
38.72000 1024.727
38.76000 1065.979
38.80000 1087.694
38.84000 975.423
38.88000 868.319
38.92000 751.277
38.96000 617.414
39.00000 493.289
39.04000 421.107
39.08000 370.566
39.12000 348.378
39.16000 322.589
39.20000 295.365
39.24000 312.213
39.28000 284.433
39.32000 300.674
39.36000 288.883
39.40000 289.075
39.44000 275.578
39.48000 273.978
39.52000 265.803
39.56000 268.248
39.60000 269.795
39.64000 273.644
39.68000 260.831
39.72000 265.484
39.76000 272.173
39.80000 274.759
39.84000 274.164
39.88000 271.812
39.92000 263.582
39.96000 270.909
40.00000 251.716
40.04000 271.670
40.08000 276.300
40.12000 273.056
40.16000 266.022
40.20000 261.038
40.24000 240.570
40.28000 255.916
40.32000 254.564
40.36000 268.476
40.40000 260.438
40.44000 265.224
40.48000 270.207
40.52000 260.046
40.56000 253.814
40.60000 253.972
40.64000 252.832
40.68000 258.845
40.72000 251.812
40.76000 266.174
40.80000 250.816
40.84000 246.132
40.88000 237.422
40.92000 254.285
40.96000 248.592
41.00000 248.442
41.04000 247.724
41.08000 261.031
41.12000 262.363
41.16000 244.101
41.20000 249.333
41.24000 246.402
41.28000 264.223
41.32000 244.012
41.36000 244.366
41.40000 245.888
41.44000 238.143
41.48000 245.781
41.52000 240.849
41.56000 244.955
41.60000 236.761
41.64000 244.451
41.68000 245.686
41.72000 253.074
41.76000 238.846
41.80000 244.088
41.84000 253.019
41.88000 243.808
41.92000 247.529
41.96000 248.537
42.00000 245.927
42.04000 236.859
42.08000 236.553
42.12000 245.896
42.16000 245.166
42.20000 240.115
42.24000 238.861
42.28000 228.799
42.32000 249.881
42.36000 236.951
42.40000 226.372
42.44000 236.829
42.48000 227.430
42.52000 240.556
42.56000 234.833
42.60000 240.597
42.64000 229.942
42.68000 225.790
42.72000 228.122
42.76000 236.453
42.80000 231.756
42.84000 231.307
42.88000 212.976
42.92000 237.165
42.96000 227.054
43.00000 234.977
43.04000 234.587
43.08000 226.372
43.12000 232.673
43.16000 231.994
43.20000 237.887
43.24000 235.268
43.28000 235.544
43.32000 227.332
43.36000 222.699
43.40000 231.305
43.44000 232.287
43.48000 232.177
43.52000 229.346
43.56000 215.880
43.60000 226.040
43.64000 233.719
43.68000 226.646
43.72000 227.718
43.76000 229.667
43.80000 223.379
43.84000 221.642
43.88000 217.306
43.92000 225.763
43.96000 230.196
44.00000 226.942
44.04000 221.961
44.08000 212.892
44.12000 219.934
44.16000 223.058
44.20000 215.314
44.24000 228.069
44.28000 221.724
44.32000 218.303
44.36000 225.185
44.40000 227.602
44.44000 222.710
44.48000 223.920
44.52000 247.779
44.56000 229.683
44.60000 231.958
44.64000 230.834
44.68000 243.613
44.72000 245.559
44.76000 247.694
44.80000 266.042
44.84000 257.203
44.88000 264.399
44.92000 284.157
44.96000 284.948
45.00000 298.396
45.04000 308.971
45.08000 319.707
45.12000 319.139
45.16000 322.560
45.20000 315.722
45.24000 309.173
45.28000 317.407
45.32000 298.550
45.36000 302.106
45.40000 281.202
45.44000 287.320
45.48000 277.390
45.52000 280.239
45.56000 292.402
45.60000 267.884
45.64000 263.204
45.68000 240.978
45.72000 257.548
45.76000 247.670
45.80000 242.416
45.84000 240.385
45.88000 247.850
45.92000 232.993
45.96000 237.018
46.00000 216.723
46.04000 222.821
46.08000 215.842
46.12000 224.643
46.16000 211.085
46.20000 209.664
46.24000 213.216
46.28000 210.740
46.32000 210.667
46.36000 205.482
46.40000 211.226
46.44000 221.592
46.48000 207.924
46.52000 198.397
46.56000 211.409
46.60000 197.375
46.64000 209.154
46.68000 197.198
46.72000 194.596
46.76000 210.068
46.80000 212.395
46.84000 205.879
46.88000 202.426
46.92000 188.653
46.96000 192.093
47.00000 206.251
47.04000 207.801
47.08000 209.066
47.12000 187.409
47.16000 188.812
47.20000 195.480
47.24000 186.097
47.28000 198.402
47.32000 185.295
47.36000 185.230
47.40000 196.775
47.44000 195.123
47.48000 187.160
47.52000 194.502
47.56000 183.349
47.60000 194.008
47.64000 188.592
47.68000 189.700
47.72000 185.719
47.76000 190.718
47.80000 182.999
47.84000 174.323
47.88000 200.573
47.92000 176.887
47.96000 187.071
48.00000 184.146
48.04000 186.374
48.08000 190.377
48.12000 186.207
48.16000 185.041
48.20000 189.525
48.24000 181.838
48.28000 182.363
48.32000 182.704
48.36000 184.492
48.40000 182.352
48.44000 185.706
48.48000 188.583
48.52000 189.296
48.56000 182.917
48.60000 184.678
48.64000 180.523
48.68000 176.270
48.72000 179.854
48.76000 174.994
48.80000 174.704
48.84000 173.363
48.88000 172.132
48.92000 181.188
48.96000 178.321
49.00000 193.355
49.04000 173.126
49.08000 183.026
49.12000 175.812
49.16000 184.161
49.20000 174.174
49.24000 176.725
49.28000 174.235
49.32000 173.474
49.36000 174.795
49.40000 187.984
49.44000 182.726
49.48000 183.825
49.52000 188.857
49.56000 185.431
49.60000 175.434
49.64000 181.832
49.68000 172.858
49.72000 176.303
49.76000 184.444
49.80000 176.727
49.84000 179.456
49.88000 168.386
49.92000 171.400
49.96000 179.609
50.00000 181.832
50.04000 183.081
50.08000 185.554
50.12000 171.241
50.16000 166.535
50.20000 181.037
50.24000 179.851
50.28000 196.255
50.32000 194.275
50.36000 182.517
50.40000 197.235
50.44000 181.815
50.48000 185.755
50.52000 199.241
50.56000 204.729
50.60000 231.111
50.64000 228.169
50.68000 232.541
50.72000 241.120
50.76000 250.312
50.80000 250.040
50.84000 242.305
50.88000 256.010
50.92000 228.047
50.96000 223.163
51.00000 200.268
51.04000 207.906
51.08000 192.728
51.12000 179.344
51.16000 189.841
51.20000 174.922
51.24000 170.482
51.28000 179.302
51.32000 176.231
51.36000 179.264
51.40000 177.474
51.44000 184.004
51.48000 169.883
51.52000 170.107
51.56000 168.856
51.60000 159.590
51.64000 177.499
51.68000 165.483
51.72000 164.404
51.76000 157.668
51.80000 169.505
51.84000 165.773
51.88000 164.146
51.92000 166.289
51.96000 159.258
52.00000 163.912
52.04000 158.232
52.08000 166.613
52.12000 170.070
52.16000 165.383
52.20000 155.725
52.24000 162.104
52.28000 153.540
52.32000 158.574
52.36000 155.093
52.40000 161.904
52.44000 164.126
52.48000 167.629
52.52000 162.048
52.56000 162.141
52.60000 164.700
52.64000 152.126
52.68000 161.440
52.72000 170.195
52.76000 162.910
52.80000 171.564
52.84000 160.876
52.88000 156.810
52.92000 163.154
52.96000 165.042
53.00000 159.797
53.04000 155.766
53.08000 159.818
53.12000 160.041
53.16000 154.300
53.20000 151.809
53.24000 150.174
53.28000 160.287
53.32000 163.734
53.36000 156.400
53.40000 160.791
53.44000 165.200
53.48000 163.192
53.52000 162.074
53.56000 162.203
53.60000 151.039
53.64000 153.736
53.68000 152.056
53.72000 170.243
53.76000 153.395
53.80000 160.859
53.84000 160.649
53.88000 166.084
53.92000 162.482
53.96000 159.960
54.00000 153.611
54.04000 151.214
54.08000 161.762
54.12000 150.080
54.16000 165.003
54.20000 153.013
54.24000 155.404
54.28000 149.770
54.32000 162.894
54.36000 147.351
54.40000 153.014
54.44000 148.195
54.48000 166.366
54.52000 153.046
54.56000 150.276
54.60000 159.990
54.64000 168.196
54.68000 158.431
54.72000 147.241
54.76000 149.827
54.80000 152.267
54.84000 157.844
54.88000 157.043
54.92000 155.105
54.96000 159.583
55.00000 153.240
55.04000 152.592
55.08000 154.784
55.12000 163.045
55.16000 158.183
55.20000 152.358
55.24000 162.309
55.28000 165.248
55.32000 162.720
55.36000 173.908
55.40000 177.549
55.44000 182.475
55.48000 167.934
55.52000 182.356
55.56000 179.928
55.60000 204.775
55.64000 228.323
55.68000 234.357
55.72000 266.037
55.76000 295.536
55.80000 327.898
55.84000 371.072
55.88000 434.201
55.92000 491.010
55.96000 526.881
56.00000 535.597
56.04000 543.381
56.08000 549.394
56.12000 508.247
56.16000 457.201
56.20000 423.374
56.24000 382.299
56.28000 343.544
56.32000 302.978
56.36000 276.893
56.40000 230.079
56.44000 216.695
56.48000 206.161
56.52000 200.828
56.56000 184.641
56.60000 182.636
56.64000 194.477
56.68000 190.679
56.72000 171.267
56.76000 157.581
56.80000 161.354
56.84000 148.301
56.88000 172.884
56.92000 145.728
56.96000 145.070
57.00000 144.563
57.04000 140.434
57.08000 156.030
57.12000 150.348
57.16000 136.703
57.20000 148.824
57.24000 148.451
57.28000 138.131
57.32000 137.346
57.36000 146.714
57.40000 139.298
57.44000 139.173
57.48000 148.000
57.52000 139.120
57.56000 136.895
57.60000 136.899
57.64000 152.069
57.68000 137.670
57.72000 149.052
57.76000 147.731
57.80000 135.148
57.84000 137.963
57.88000 135.258
57.92000 141.971
57.96000 140.193
58.00000 131.722
58.04000 142.037
58.08000 132.460
58.12000 137.844
58.16000 142.974
58.20000 139.604
58.24000 141.739
58.28000 135.937
58.32000 144.367
58.36000 140.282
58.40000 137.912
58.44000 144.280
58.48000 137.368
58.52000 140.947
58.56000 142.600
58.60000 128.312
58.64000 132.428
58.68000 132.524
58.72000 128.582
58.76000 137.260
58.80000 134.927
58.84000 133.823
58.88000 138.186
58.92000 146.840
58.96000 125.605
59.00000 143.019
59.04000 133.944
59.08000 139.492
59.12000 136.470
59.16000 143.768
59.20000 126.097
59.24000 137.520
59.28000 128.037
59.32000 140.963
59.36000 121.409
59.40000 129.543
59.44000 131.686
59.48000 136.647
59.52000 135.205
59.56000 133.470
59.60000 129.794
59.64000 131.892
59.68000 115.278
59.72000 134.580
59.76000 141.664
59.80000 132.577
59.84000 129.370
59.88000 128.225
59.92000 130.593
59.96000 130.851
60.00000 137.236
60.04000 133.031
60.08000 126.446
60.12000 133.109
60.16000 136.691
60.20000 145.583
60.24000 142.848
60.28000 136.884
60.32000 139.182
60.36000 133.253
60.40000 129.203
60.44000 132.495
60.48000 135.383
60.52000 121.015
60.56000 125.732
60.60000 140.989
60.64000 134.510
60.68000 136.098
60.72000 130.463
60.76000 130.048
60.80000 122.940
60.84000 130.169
60.88000 132.753
60.92000 135.519
60.96000 125.842
61.00000 129.682
61.04000 135.013
61.08000 142.093
61.12000 130.446
61.16000 133.300
61.20000 148.532
61.24000 138.888
61.28000 137.372
61.32000 140.895
61.36000 138.173
61.40000 140.009
61.44000 140.468
61.48000 152.891
61.52000 163.238
61.56000 200.320
61.60000 231.929
61.64000 250.537
61.68000 269.002
61.72000 275.502
61.76000 268.543
61.80000 221.090
61.84000 191.227
61.88000 170.199
61.92000 152.551
61.96000 144.331
62.00000 147.835
62.04000 137.268
62.08000 148.287
62.12000 146.855
62.16000 143.672
62.20000 140.919
62.24000 146.241
62.28000 144.876
62.32000 150.586
62.36000 151.735
62.40000 153.634
62.44000 135.240
62.48000 140.712
62.52000 139.564
62.56000 147.650
62.60000 152.136
62.64000 142.046
62.68000 140.350
62.72000 141.236
62.76000 139.165
62.80000 146.387
62.84000 151.050
62.88000 143.215
62.92000 143.242
62.96000 148.214
63.00000 148.529
63.04000 141.883
63.08000 141.186
63.12000 148.302
63.16000 147.718
63.20000 159.316
63.24000 142.194
63.28000 147.947
63.32000 144.115
63.36000 154.590
63.40000 138.655
63.44000 138.380
63.48000 135.853
63.52000 142.010
63.56000 155.076
63.60000 146.594
63.64000 149.416
63.68000 155.506
63.72000 145.701
63.76000 145.696
63.80000 152.887
63.84000 154.408
63.88000 167.887
63.92000 155.810
63.96000 159.908
64.00000 152.549
64.04000 163.037
64.08000 145.163
64.12000 160.689
64.16000 152.365
64.20000 151.344
64.24000 158.878
64.28000 158.736
64.32000 155.817
64.36000 167.767
64.40000 158.063
64.44000 159.195
64.48000 164.991
64.52000 166.695
64.56000 167.975
64.60000 168.394
64.64000 173.369
64.68000 183.438
64.72000 172.635
64.76000 173.011
64.80000 166.949
64.84000 183.189
64.88000 180.766
64.92000 170.829
64.96000 178.012
65.00000 190.861
65.04000 182.493
65.08000 193.224
65.12000 210.087
65.16000 203.518
65.20000 200.487
65.24000 209.063
65.28000 230.907
65.32000 230.672
65.36000 251.083
65.40000 276.703
65.44000 283.309
65.48000 301.172
65.52000 309.816
65.56000 365.333
65.60000 364.761
65.64000 385.497
65.68000 453.154
65.72000 582.264
65.76000 756.078
65.80000 942.662
65.84000 1058.979
65.88000 1070.379
65.92000 1065.204
65.96000 994.396
66.00000 686.199
66.04000 479.676
66.08000 377.340
66.12000 352.646
66.16000 328.097
66.20000 318.371
66.24000 303.928
66.28000 359.607
66.32000 369.429
66.36000 439.396
66.40000 428.617
66.44000 437.212
66.48000 438.015
66.52000 396.830
66.56000 366.602
66.60000 311.701
66.64000 315.804
66.68000 294.662
66.72000 304.738
66.76000 313.548
66.80000 307.628
66.84000 322.112
66.88000 325.055
66.92000 322.945
66.96000 333.088
67.00000 327.910
67.04000 348.647
67.08000 347.991
67.12000 359.339
67.16000 362.372
67.20000 377.982
67.24000 365.554
67.28000 382.715
67.32000 382.634
67.36000 413.042
67.40000 378.013
67.44000 416.256
67.48000 415.406
67.52000 415.627
67.56000 425.735
67.60000 433.180
67.64000 427.128
67.68000 461.321
67.72000 457.491
67.76000 455.397
67.80000 474.975
67.84000 484.334
67.88000 496.593
67.92000 491.543
67.96000 489.180
68.00000 507.341
68.04000 521.655
68.08000 554.788
68.12000 565.789
68.16000 567.305
68.20000 595.595
68.24000 612.204
68.28000 609.632
68.32000 603.330
68.36000 647.127
68.40000 697.602
68.44000 697.458
68.48000 741.606
68.52000 796.792
68.56000 858.753
68.60000 961.441
68.64000 1066.995
68.68000 1290.494
68.72000 1521.897
68.76000 1680.919
68.80000 1865.541
68.84000 2165.546
68.88000 2743.958
68.92000 4459.043
68.96000 10365.845
69.00000 25126.676
69.04000 43465.816
69.08000 54217.523
69.12000 56711.559
69.16000 59009.152
69.20000 60064.336
69.24000 52020.285
69.28000 39317.164
69.32000 31862.379
69.36000 28830.738
69.40000 24711.168
69.44000 15941.301
69.48000 7503.015
69.52000 3342.791
69.56000 2024.140
69.60000 1535.202
69.64000 1319.961
69.68000 1110.184
69.72000 1000.939
69.76000 912.321
69.80000 860.581
69.84000 798.528
69.88000 769.097
69.92000 731.728
69.96000 700.502
70.00000 683.243