File: XRD/XRD/22-09-2025 Dep 2/XY Data/BTO_Mapping_Theta2Theta_22-09-2025_001_66_31-174_-39-092.xy
20.00000 983.623
20.04000 974.645
20.08000 977.360
20.12000 989.016
20.16000 969.398
20.20000 960.603
20.24000 961.854
20.28000 936.682
20.32000 963.859
20.36000 953.331
20.40000 950.031
20.44000 932.880
20.48000 929.233
20.52000 924.690
20.56000 916.607
20.60000 928.942
20.64000 938.234
20.68000 931.765
20.72000 945.666
20.76000 937.750
20.80000 966.484
20.84000 936.365
20.88000 910.124
20.92000 900.345
20.96000 910.876
21.00000 921.373
21.04000 915.471
21.08000 900.277
21.12000 924.131
21.16000 912.876
21.20000 894.117
21.24000 886.469
21.28000 900.490
21.32000 865.912
21.36000 880.884
21.40000 907.720
21.44000 860.666
21.48000 897.386
21.52000 881.684
21.56000 879.650
21.60000 862.714
21.64000 857.856
21.68000 897.594
21.72000 859.560
21.76000 850.086
21.80000 874.335
21.84000 849.440
21.88000 872.930
21.92000 878.738
21.96000 826.349
22.00000 866.171
22.04000 852.141
22.08000 841.747
22.12000 825.674
22.16000 845.425
22.20000 832.576
22.24000 824.859
22.28000 818.393
22.32000 826.508
22.36000 845.082
22.40000 829.171
22.44000 809.998
22.48000 801.133
22.52000 814.015
22.56000 817.517
22.60000 796.218
22.64000 831.011
22.68000 810.654
22.72000 828.432
22.76000 806.216
22.80000 797.896
22.84000 816.444
22.88000 816.877
22.92000 804.854
22.96000 788.339
23.00000 795.855
23.04000 793.654
23.08000 801.861
23.12000 778.368
23.16000 816.656
23.20000 784.074
23.24000 813.420
23.28000 786.455
23.32000 798.587
23.36000 774.306
23.40000 770.269
23.44000 779.532
23.48000 788.766
23.52000 793.712
23.56000 755.609
23.60000 767.596
23.64000 797.275
23.68000 762.788
23.72000 759.153
23.76000 748.919
23.80000 760.069
23.84000 760.472
23.88000 760.872
23.92000 761.353
23.96000 745.842
24.00000 750.368
24.04000 740.816
24.08000 742.187
24.12000 738.733
24.16000 729.294
24.20000 739.746
24.24000 738.737
24.28000 722.035
24.32000 713.687
24.36000 711.488
24.40000 700.615
24.44000 734.490
24.48000 735.859
24.52000 738.147
24.56000 714.411
24.60000 712.149
24.64000 706.373
24.68000 709.031
24.72000 710.200
24.76000 727.356
24.80000 748.929
24.84000 697.966
24.88000 717.525
24.92000 727.328
24.96000 697.706
25.00000 700.529
25.04000 729.418
25.08000 703.990
25.12000 724.489
25.16000 713.089
25.20000 717.769
25.24000 684.745
25.28000 682.019
25.32000 682.434
25.36000 684.309
25.40000 688.151
25.44000 706.684
25.48000 669.908
25.52000 679.706
25.56000 677.339
25.60000 677.088
25.64000 672.251
25.68000 668.007
25.72000 654.071
25.76000 671.900
25.80000 660.254
25.84000 664.628
25.88000 666.801
25.92000 660.990
25.96000 648.880
26.00000 657.399
26.04000 667.217
26.08000 649.814
26.12000 664.447
26.16000 633.540
26.20000 665.133
26.24000 659.784
26.28000 655.847
26.32000 641.644
26.36000 670.042
26.40000 641.445
26.44000 647.245
26.48000 666.010
26.52000 640.951
26.56000 643.725
26.60000 641.626
26.64000 635.974
26.68000 642.902
26.72000 649.846
26.76000 630.013
26.80000 618.657
26.84000 640.092
26.88000 616.394
26.92000 635.989
26.96000 627.144
27.00000 629.540
27.04000 623.344
27.08000 622.604
27.12000 613.309
27.16000 626.092
27.20000 619.231
27.24000 611.249
27.28000 618.037
27.32000 620.277
27.36000 624.841
27.40000 602.186
27.44000 606.681
27.48000 610.062
27.52000 594.264
27.56000 596.057
27.60000 609.876
27.64000 611.788
27.68000 618.039
27.72000 601.570
27.76000 587.838
27.80000 584.590
27.84000 574.685
27.88000 579.256
27.92000 569.815
27.96000 565.622
28.00000 570.597
28.04000 579.586
28.08000 572.233
28.12000 583.357
28.16000 600.644
28.20000 597.962
28.24000 597.583
28.28000 577.406
28.32000 577.977
28.36000 570.421
28.40000 576.567
28.44000 580.810
28.48000 587.225
28.52000 580.702
28.56000 577.479
28.60000 558.916
28.64000 586.873
28.68000 563.978
28.72000 563.257
28.76000 559.164
28.80000 535.813
28.84000 569.143
28.88000 567.274
28.92000 549.694
28.96000 539.613
29.00000 546.988
29.04000 544.637
29.08000 528.667
29.12000 550.836
29.16000 551.781
29.20000 554.327
29.24000 526.014
29.28000 501.298
29.32000 566.610
29.36000 552.792
29.40000 552.438
29.44000 551.302
29.48000 546.229
29.52000 547.801
29.56000 520.700
29.60000 532.405
29.64000 510.811
29.68000 526.246
29.72000 530.789
29.76000 520.058
29.80000 510.829
29.84000 519.491
29.88000 516.012
29.92000 520.184
29.96000 518.868
30.00000 537.566
30.04000 512.605
30.08000 526.165
30.12000 516.650
30.16000 524.849
30.20000 517.627
30.24000 522.598
30.28000 521.504
30.32000 526.064
30.36000 476.639
30.40000 507.484
30.44000 506.295
30.48000 507.474
30.52000 504.079
30.56000 487.331
30.60000 502.347
30.64000 489.859
30.68000 507.622
30.72000 494.656
30.76000 485.661
30.80000 508.137
30.84000 498.678
30.88000 494.174
30.92000 512.352
30.96000 501.072
31.00000 478.605
31.04000 466.229
31.08000 484.747
31.12000 489.209
31.16000 490.164
31.20000 469.090
31.24000 500.814
31.28000 483.309
31.32000 473.461
31.36000 477.058
31.40000 478.575
31.44000 487.229
31.48000 475.049
31.52000 476.069
31.56000 465.214
31.60000 463.971
31.64000 474.498
31.68000 480.694
31.72000 472.623
31.76000 463.766
31.80000 465.427
31.84000 469.457
31.88000 474.264
31.92000 484.511
31.96000 462.300
32.00000 462.551
32.04000 482.292
32.08000 471.253
32.12000 465.431
32.16000 464.346
32.20000 471.546
32.24000 444.039
32.28000 441.927
32.32000 461.376
32.36000 456.694
32.40000 474.956
32.44000 451.983
32.48000 440.753
32.52000 461.901
32.56000 445.956
32.60000 453.842
32.64000 467.345
32.68000 437.153
32.72000 445.646
32.76000 455.746
32.80000 456.611
32.84000 451.743
32.88000 466.896
32.92000 463.746
32.96000 460.005
33.00000 459.746
33.04000 444.727
33.08000 455.113
33.12000 441.191
33.16000 439.665
33.20000 411.613
33.24000 429.570
33.28000 438.218
33.32000 440.280
33.36000 434.913
33.40000 453.069
33.44000 437.091
33.48000 418.943
33.52000 426.513
33.56000 442.633
33.60000 419.790
33.64000 420.136
33.68000 429.780
33.72000 423.154
33.76000 421.455
33.80000 426.632
33.84000 428.232
33.88000 417.698
33.92000 418.680
33.96000 420.367
34.00000 410.920
34.04000 420.710
34.08000 431.615
34.12000 420.953
34.16000 428.351
34.20000 401.358
34.24000 404.961
34.28000 411.822
34.32000 407.574
34.36000 413.461
34.40000 413.320
34.44000 411.812
34.48000 402.872
34.52000 402.397
34.56000 393.126
34.60000 410.938
34.64000 430.387
34.68000 398.321
34.72000 407.208
34.76000 402.122
34.80000 397.585
34.84000 411.886
34.88000 405.362
34.92000 410.199
34.96000 370.333
35.00000 377.238
35.04000 394.173
35.08000 392.407
35.12000 383.044
35.16000 375.553
35.20000 376.446
35.24000 397.305
35.28000 388.797
35.32000 406.172
35.36000 402.742
35.40000 378.137
35.44000 392.832
35.48000 399.282
35.52000 386.684
35.56000 379.820
35.60000 382.270
35.64000 373.640
35.68000 385.798
35.72000 378.570
35.76000 369.232
35.80000 377.892
35.84000 386.422
35.88000 382.202
35.92000 382.673
35.96000 382.925
36.00000 363.197
36.04000 377.521
36.08000 378.207
36.12000 374.349
36.16000 361.155
36.20000 386.211
36.24000 375.159
36.28000 365.658
36.32000 362.078
36.36000 362.630
36.40000 367.987
36.44000 365.731
36.48000 371.723
36.52000 358.186
36.56000 368.591
36.60000 371.517
36.64000 365.534
36.68000 362.157
36.72000 385.061
36.76000 354.426
36.80000 353.247
36.84000 348.488
36.88000 363.236
36.92000 360.940
36.96000 356.381
37.00000 361.516
37.04000 366.043
37.08000 347.485
37.12000 353.319
37.16000 340.132
37.20000 348.156
37.24000 378.190
37.28000 359.916
37.32000 354.842
37.36000 353.051
37.40000 343.233
37.44000 349.096
37.48000 361.391
37.52000 346.348
37.56000 337.898
37.60000 345.515
37.64000 334.148
37.68000 362.708
37.72000 340.257
37.76000 332.409
37.80000 348.727
37.84000 331.211
37.88000 339.830
37.92000 336.465
37.96000 335.899
38.00000 322.819
38.04000 326.539
38.08000 337.710
38.12000 341.919
38.16000 317.688
38.20000 346.318
38.24000 340.475
38.28000 317.037
38.32000 316.421
38.36000 331.983
38.40000 337.426
38.44000 332.818
38.48000 341.606
38.52000 329.996
38.56000 319.974
38.60000 331.364
38.64000 315.571
38.68000 330.352
38.72000 327.002
38.76000 329.708
38.80000 336.281
38.84000 326.951
38.88000 332.819
38.92000 308.649
38.96000 324.975
39.00000 328.826
39.04000 324.301
39.08000 326.183
39.12000 305.013
39.16000 307.764
39.20000 312.766
39.24000 301.892
39.28000 319.276
39.32000 349.557
39.36000 313.097
39.40000 310.799
39.44000 316.427
39.48000 307.376
39.52000 318.308
39.56000 304.028
39.60000 304.005
39.64000 313.516
39.68000 310.026
39.72000 322.456
39.76000 300.641
39.80000 317.206
39.84000 301.815
39.88000 315.410
39.92000 304.783
39.96000 318.410
40.00000 293.336
40.04000 295.649
40.08000 293.785
40.12000 292.346
40.16000 318.964
40.20000 302.555
40.24000 294.960
40.28000 299.529
40.32000 301.338
40.36000 292.688
40.40000 287.770
40.44000 300.917
40.48000 298.667
40.52000 296.682
40.56000 290.031
40.60000 278.730
40.64000 279.066
40.68000 296.746
40.72000 290.352
40.76000 292.760
40.80000 284.179
40.84000 283.267
40.88000 297.974
40.92000 291.989
40.96000 282.219
41.00000 301.468
41.04000 292.936
41.08000 289.598
41.12000 283.256
41.16000 290.817
41.20000 301.822
41.24000 294.075
41.28000 289.955
41.32000 273.234
41.36000 277.958
41.40000 277.950
41.44000 272.173
41.48000 280.072
41.52000 293.876
41.56000 282.690
41.60000 275.976
41.64000 274.152
41.68000 280.197
41.72000 271.983
41.76000 273.920
41.80000 260.343
41.84000 258.832
41.88000 279.890
41.92000 277.862
41.96000 278.446
42.00000 284.605
42.04000 258.186
42.08000 272.582
42.12000 272.974
42.16000 268.907
42.20000 270.248
42.24000 279.149
42.28000 259.232
42.32000 264.905
42.36000 288.820
42.40000 276.435
42.44000 272.371
42.48000 276.370
42.52000 283.251
42.56000 254.633
42.60000 265.382
42.64000 259.082
42.68000 274.125
42.72000 266.126
42.76000 251.758
42.80000 262.052
42.84000 272.443
42.88000 247.991
42.92000 267.588
42.96000 260.903
43.00000 259.642
43.04000 256.956
43.08000 264.639
43.12000 266.023
43.16000 260.514
43.20000 269.506
43.24000 255.292
43.28000 242.953
43.32000 258.416
43.36000 260.170
43.40000 270.796
43.44000 252.508
43.48000 253.722
43.52000 260.682
43.56000 264.951
43.60000 255.378
43.64000 263.838
43.68000 247.350
43.72000 261.570
43.76000 255.649
43.80000 250.939
43.84000 251.190
43.88000 246.743
43.92000 263.346
43.96000 260.705
44.00000 250.717
44.04000 243.224
44.08000 250.409
44.12000 266.757
44.16000 257.395
44.20000 246.644
44.24000 255.744
44.28000 249.465
44.32000 243.597
44.36000 248.562
44.40000 257.869
44.44000 250.415
44.48000 247.025
44.52000 238.980
44.56000 246.061
44.60000 239.461
44.64000 246.256
44.68000 246.288
44.72000 246.998
44.76000 243.077
44.80000 250.325
44.84000 241.343
44.88000 245.820
44.92000 247.360
44.96000 246.513
45.00000 250.292
45.04000 239.101
45.08000 230.448
45.12000 235.820
45.16000 242.603
45.20000 232.895
45.24000 237.543
45.28000 232.529
45.32000 233.758
45.36000 233.536
45.40000 236.108
45.44000 231.049
45.48000 229.602
45.52000 240.349
45.56000 242.893
45.60000 228.339
45.64000 223.962
45.68000 236.685
45.72000 225.717
45.76000 233.577
45.80000 235.699
45.84000 238.011
45.88000 234.832
45.92000 237.063
45.96000 233.301
46.00000 236.920
46.04000 222.130
46.08000 215.815
46.12000 224.384
46.16000 226.771
46.20000 224.696
46.24000 223.409
46.28000 230.170
46.32000 229.396
46.36000 231.856
46.40000 225.415
46.44000 218.809
46.48000 221.578
46.52000 228.882
46.56000 225.701
46.60000 230.569
46.64000 220.071
46.68000 220.911
46.72000 222.980
46.76000 218.423
46.80000 218.242
46.84000 226.576
46.88000 220.243
46.92000 233.353
46.96000 226.471
47.00000 218.643
47.04000 220.010
47.08000 219.223
47.12000 214.477
47.16000 221.727
47.20000 232.162
47.24000 227.372
47.28000 221.420
47.32000 224.328
47.36000 230.620
47.40000 217.375
47.44000 207.783
47.48000 195.660
47.52000 232.805
47.56000 220.031
47.60000 225.665
47.64000 216.934
47.68000 207.328
47.72000 211.396
47.76000 202.547
47.80000 214.303
47.84000 213.841
47.88000 231.205
47.92000 219.559
47.96000 205.584
48.00000 210.888
48.04000 205.971
48.08000 202.192
48.12000 225.636
48.16000 205.674
48.20000 200.520
48.24000 213.090
48.28000 214.176
48.32000 210.986
48.36000 209.606
48.40000 193.318
48.44000 206.934
48.48000 204.176
48.52000 199.193
48.56000 216.466
48.60000 213.292
48.64000 203.123
48.68000 200.310
48.72000 199.059
48.76000 201.286
48.80000 201.719
48.84000 216.501
48.88000 204.988
48.92000 211.580
48.96000 200.192
49.00000 203.021
49.04000 194.563
49.08000 212.256
49.12000 198.687
49.16000 206.666
49.20000 205.387
49.24000 198.783
49.28000 204.301
49.32000 204.473
49.36000 197.577
49.40000 201.406
49.44000 213.038
49.48000 208.161
49.52000 193.079
49.56000 198.907
49.60000 193.292
49.64000 193.670
49.68000 193.690
49.72000 195.833
49.76000 207.388
49.80000 197.619
49.84000 196.552
49.88000 183.451
49.92000 196.457
49.96000 191.205
50.00000 188.596
50.04000 191.454
50.08000 180.244
50.12000 183.977
50.16000 185.221
50.20000 188.988
50.24000 191.774
50.28000 195.677
50.32000 187.196
50.36000 189.184
50.40000 198.240
50.44000 197.337
50.48000 185.783
50.52000 190.702
50.56000 194.107
50.60000 195.263
50.64000 192.845
50.68000 199.387
50.72000 184.627
50.76000 187.316
50.80000 188.854
50.84000 191.167
50.88000 195.477
50.92000 192.635
50.96000 192.239
51.00000 187.944
51.04000 182.535
51.08000 193.033
51.12000 194.714
51.16000 185.070
51.20000 188.077
51.24000 179.896
51.28000 186.153
51.32000 169.416
51.36000 181.831
51.40000 178.250
51.44000 183.222
51.48000 185.326
51.52000 175.270
51.56000 184.799
51.60000 183.447
51.64000 191.639
51.68000 182.205
51.72000 183.243
51.76000 179.469
51.80000 177.604
51.84000 179.782
51.88000 185.102
51.92000 174.815
51.96000 179.509
52.00000 184.008
52.04000 174.364
52.08000 195.381
52.12000 181.732
52.16000 179.685
52.20000 190.098
52.24000 182.752
52.28000 178.118
52.32000 186.184
52.36000 177.109
52.40000 188.185
52.44000 178.147
52.48000 175.362
52.52000 181.902
52.56000 181.757
52.60000 180.050
52.64000 180.771
52.68000 170.736
52.72000 185.523
52.76000 174.538
52.80000 175.099
52.84000 180.903
52.88000 165.970
52.92000 171.396
52.96000 165.610
53.00000 165.395
53.04000 180.150
53.08000 173.328
53.12000 170.139
53.16000 180.269
53.20000 165.054
53.24000 162.583
53.28000 168.151
53.32000 177.855
53.36000 176.220
53.40000 173.087
53.44000 170.541
53.48000 171.216
53.52000 164.850
53.56000 165.998
53.60000 156.269
53.64000 172.354
53.68000 174.561
53.72000 159.686
53.76000 165.671
53.80000 169.165
53.84000 176.774
53.88000 173.412
53.92000 170.718
53.96000 171.669
54.00000 178.289
54.04000 157.934
54.08000 166.460
54.12000 164.148
54.16000 179.318
54.20000 160.298
54.24000 165.703
54.28000 171.848
54.32000 171.609
54.36000 163.491
54.40000 164.330
54.44000 164.654
54.48000 162.083
54.52000 161.088
54.56000 168.502
54.60000 169.148
54.64000 169.526
54.68000 158.287
54.72000 165.787
54.76000 153.248
54.80000 163.667
54.84000 160.977
54.88000 175.735
54.92000 159.685
54.96000 153.231
55.00000 156.280
55.04000 157.427
55.08000 170.677
55.12000 167.004
55.16000 159.344
55.20000 160.654
55.24000 158.309
55.28000 166.283
55.32000 166.579
55.36000 156.942
55.40000 166.341
55.44000 163.609
55.48000 160.997
55.52000 163.241
55.56000 161.608
55.60000 171.055
55.64000 167.331
55.68000 170.833
55.72000 164.095
55.76000 154.967
55.80000 150.034
55.84000 164.746
55.88000 167.742
55.92000 152.304
55.96000 157.897
56.00000 151.591
56.04000 160.234
56.08000 153.327
56.12000 162.642
56.16000 163.779
56.20000 150.738
56.24000 162.754
56.28000 156.437
56.32000 158.970
56.36000 166.676
56.40000 160.602
56.44000 155.898
56.48000 149.449
56.52000 162.583
56.56000 150.745
56.60000 154.624
56.64000 148.646
56.68000 168.499
56.72000 152.275
56.76000 154.846
56.80000 150.856
56.84000 148.156
56.88000 147.191
56.92000 150.277
56.96000 146.727
57.00000 161.916
57.04000 158.821
57.08000 147.311
57.12000 160.922
57.16000 153.621
57.20000 150.898
57.24000 153.910
57.28000 145.470
57.32000 152.721
57.36000 155.581
57.40000 149.110
57.44000 155.795
57.48000 159.797
57.52000 149.296
57.56000 141.731
57.60000 146.801
57.64000 152.665
57.68000 147.446
57.72000 148.566
57.76000 145.080
57.80000 152.584
57.84000 142.592
57.88000 156.343
57.92000 150.573
57.96000 142.834
58.00000 149.164
58.04000 155.835
58.08000 159.652
58.12000 146.814
58.16000 148.253
58.20000 154.707
58.24000 157.159
58.28000 147.538
58.32000 153.874
58.36000 155.313
58.40000 145.917
58.44000 156.474
58.48000 154.908
58.52000 141.659
58.56000 146.866
58.60000 142.876
58.64000 145.062
58.68000 146.081
58.72000 152.061
58.76000 150.342
58.80000 144.813
58.84000 145.831
58.88000 150.409
58.92000 146.022
58.96000 148.653
59.00000 147.250
59.04000 147.975
59.08000 150.864
59.12000 143.873
59.16000 152.451
59.20000 144.431
59.24000 146.998
59.28000 146.250
59.32000 150.745
59.36000 153.846
59.40000 135.192
59.44000 150.254
59.48000 155.508
59.52000 149.759
59.56000 155.004
59.60000 144.952
59.64000 142.988
59.68000 148.464
59.72000 146.052
59.76000 149.331
59.80000 148.852
59.84000 147.716
59.88000 159.383
59.92000 148.648
59.96000 157.433
60.00000 144.194
60.04000 139.288
60.08000 142.779
60.12000 150.037
60.16000 153.480
60.20000 150.684
60.24000 149.676
60.28000 155.816
60.32000 146.109
60.36000 140.028
60.40000 147.114
60.44000 142.943
60.48000 150.255
60.52000 157.794
60.56000 148.543
60.60000 148.899
60.64000 143.929
60.68000 153.455
60.72000 146.269
60.76000 142.051
60.80000 142.032
60.84000 150.882
60.88000 143.913
60.92000 145.937
60.96000 147.433
61.00000 142.641
61.04000 140.486
61.08000 151.844
61.12000 145.710
61.16000 144.247
61.20000 145.245
61.24000 154.282
61.28000 152.953
61.32000 155.076
61.36000 161.719
61.40000 145.258
61.44000 150.065
61.48000 157.098
61.52000 172.366
61.56000 177.879
61.60000 221.173
61.64000 252.874
61.68000 259.941
61.72000 275.871
61.76000 257.597
61.80000 237.887
61.84000 195.688
61.88000 159.167
61.92000 166.855
61.96000 151.556
62.00000 157.941
62.04000 144.613
62.08000 157.834
62.12000 148.356
62.16000 153.877
62.20000 147.165
62.24000 149.750
62.28000 147.811
62.32000 148.789
62.36000 147.437
62.40000 143.147
62.44000 155.436
62.48000 165.034
62.52000 157.781
62.56000 147.504
62.60000 143.859
62.64000 158.130
62.68000 159.631
62.72000 155.292
62.76000 156.308
62.80000 166.129
62.84000 154.963
62.88000 153.221
62.92000 164.937
62.96000 161.666
63.00000 153.299
63.04000 152.156
63.08000 163.643
63.12000 159.408
63.16000 156.086
63.20000 155.093
63.24000 155.526
63.28000 162.009
63.32000 145.387
63.36000 162.618
63.40000 165.786
63.44000 175.924
63.48000 172.551
63.52000 162.583
63.56000 157.736
63.60000 152.580
63.64000 164.903
63.68000 166.526
63.72000 167.156
63.76000 164.371
63.80000 167.284
63.84000 169.162
63.88000 169.629
63.92000 172.611
63.96000 162.534
64.00000 168.154
64.04000 171.565
64.08000 172.554
64.12000 168.031
64.16000 164.472
64.20000 165.033
64.24000 180.533
64.28000 165.773
64.32000 166.329
64.36000 171.177
64.40000 176.312
64.44000 170.147
64.48000 179.520
64.52000 186.870
64.56000 173.903
64.60000 178.183
64.64000 179.322
64.68000 178.128
64.72000 183.022
64.76000 171.888
64.80000 194.368
64.84000 184.741
64.88000 191.382
64.92000 189.259
64.96000 193.966
65.00000 200.584
65.04000 197.182
65.08000 184.837
65.12000 197.192
65.16000 187.603
65.20000 185.950
65.24000 188.160
65.28000 194.714
65.32000 203.865
65.36000 201.154
65.40000 219.781
65.44000 221.603
65.48000 225.651
65.52000 222.982
65.56000 226.516
65.60000 243.420
65.64000 259.538
65.68000 302.471
65.72000 386.849
65.76000 563.081
65.80000 762.462
65.84000 874.142
65.88000 919.614
65.92000 917.213
65.96000 842.842
66.00000 631.061
66.04000 424.203
66.08000 367.259
66.12000 319.785
66.16000 302.606
66.20000 296.781
66.24000 305.346
66.28000 315.468
66.32000 359.254
66.36000 394.082
66.40000 425.400
66.44000 422.131
66.48000 429.955
66.52000 410.460
66.56000 364.134
66.60000 326.922
66.64000 324.895
66.68000 321.026
66.72000 323.750
66.76000 316.936
66.80000 314.240
66.84000 313.331
66.88000 331.212
66.92000 339.824
66.96000 350.527
67.00000 344.328
67.04000 350.107
67.08000 358.307
67.12000 352.435
67.16000 369.918
67.20000 388.119
67.24000 395.648
67.28000 413.209
67.32000 386.748
67.36000 406.452
67.40000 411.500
67.44000 405.908
67.48000 419.011
67.52000 436.192
67.56000 437.277
67.60000 426.009
67.64000 445.119
67.68000 439.933
67.72000 482.283
67.76000 473.469
67.80000 473.618
67.84000 476.058
67.88000 499.324
67.92000 507.982
67.96000 524.443
68.00000 546.339
68.04000 560.371
68.08000 560.440
68.12000 559.553
68.16000 578.446
68.20000 588.869
68.24000 606.953
68.28000 632.332
68.32000 663.331
68.36000 660.856
68.40000 686.986
68.44000 708.917
68.48000 737.940
68.52000 752.542
68.56000 807.527
68.60000 898.013
68.64000 1025.012
68.68000 1169.647
68.72000 1393.006
68.76000 1567.625
68.80000 1748.512
68.84000 2033.119
68.88000 2361.446
68.92000 3269.588
68.96000 7000.457
69.00000 19180.262
69.04000 38067.770
69.08000 50572.773
69.12000 52062.176
69.16000 53343.641
69.20000 55494.625
69.24000 49927.230
69.28000 36853.742
69.32000 28753.203
69.36000 26389.465
69.40000 23870.352
69.44000 16134.373
69.48000 6977.209
69.52000 2818.493
69.56000 1852.331
69.60000 1457.104
69.64000 1249.848
69.68000 1111.947
69.72000 1012.114
69.76000 929.758
69.80000 850.714
69.84000 789.096
69.88000 749.573
69.92000 705.524
69.96000 688.392
70.00000 656.843