File: XRD/XRD/22-09-2025 Dep 2/XY Data/BTO_Mapping_Theta2Theta_22-09-2025_001_09_27-029_13-017.xy
20.00000 563.224
20.04000 567.337
20.08000 562.928
20.12000 564.028
20.16000 539.936
20.20000 559.284
20.24000 580.713
20.28000 570.520
20.32000 557.413
20.36000 543.753
20.40000 538.458
20.44000 556.235
20.48000 554.857
20.52000 543.272
20.56000 556.761
20.60000 549.052
20.64000 563.179
20.68000 546.031
20.72000 559.331
20.76000 555.216
20.80000 550.160
20.84000 550.040
20.88000 547.989
20.92000 552.223
20.96000 560.902
21.00000 554.255
21.04000 554.703
21.08000 559.268
21.12000 550.452
21.16000 538.914
21.20000 559.049
21.24000 541.109
21.28000 575.624
21.32000 561.806
21.36000 559.932
21.40000 542.144
21.44000 548.810
21.48000 542.909
21.52000 561.464
21.56000 535.308
21.60000 547.680
21.64000 563.108
21.68000 569.082
21.72000 560.174
21.76000 560.850
21.80000 585.480
21.84000 596.368
21.88000 597.839
21.92000 635.072
21.96000 649.349
22.00000 637.896
22.04000 695.235
22.08000 685.548
22.12000 692.803
22.16000 705.261
22.20000 680.959
22.24000 658.004
22.28000 619.334
22.32000 628.022
22.36000 630.609
22.40000 602.528
22.44000 581.248
22.48000 553.166
22.52000 553.435
22.56000 527.871
22.60000 557.173
22.64000 540.681
22.68000 519.912
22.72000 539.331
22.76000 549.780
22.80000 524.245
22.84000 529.587
22.88000 523.193
22.92000 525.385
22.96000 508.930
23.00000 514.688
23.04000 511.478
23.08000 509.956
23.12000 502.250
23.16000 499.133
23.20000 534.161
23.24000 507.588
23.28000 513.236
23.32000 515.755
23.36000 507.088
23.40000 504.725
23.44000 502.206
23.48000 508.688
23.52000 509.997
23.56000 526.954
23.60000 508.149
23.64000 481.290
23.68000 532.652
23.72000 536.051
23.76000 529.656
23.80000 535.320
23.84000 529.075
23.88000 514.659
23.92000 531.950
23.96000 534.460
24.00000 522.686
24.04000 510.948
24.08000 517.982
24.12000 537.748
24.16000 521.458
24.20000 521.430
24.24000 502.686
24.28000 490.973
24.32000 503.315
24.36000 512.446
24.40000 494.691
24.44000 494.288
24.48000 507.733
24.52000 499.126
24.56000 499.202
24.60000 498.697
24.64000 467.408
24.68000 467.866
24.72000 486.228
24.76000 484.625
24.80000 475.349
24.84000 491.077
24.88000 471.224
24.92000 489.646
24.96000 487.709
25.00000 479.027
25.04000 486.224
25.08000 471.896
25.12000 478.148
25.16000 484.963
25.20000 481.460
25.24000 472.067
25.28000 472.899
25.32000 462.541
25.36000 479.812
25.40000 478.015
25.44000 468.873
25.48000 469.419
25.52000 482.657
25.56000 475.284
25.60000 461.653
25.64000 444.151
25.68000 476.427
25.72000 473.485
25.76000 447.580
25.80000 468.181
25.84000 482.224
25.88000 450.784
25.92000 465.097
25.96000 467.134
26.00000 448.785
26.04000 462.607
26.08000 444.874
26.12000 450.891
26.16000 448.375
26.20000 468.982
26.24000 457.065
26.28000 450.655
26.32000 462.938
26.36000 455.261
26.40000 460.595
26.44000 448.918
26.48000 464.199
26.52000 460.235
26.56000 452.312
26.60000 452.650
26.64000 452.840
26.68000 447.313
26.72000 441.761
26.76000 439.368
26.80000 461.471
26.84000 446.875
26.88000 445.897
26.92000 450.233
26.96000 467.199
27.00000 428.931
27.04000 438.536
27.08000 454.499
27.12000 424.805
27.16000 440.524
27.20000 432.145
27.24000 445.795
27.28000 439.785
27.32000 441.868
27.36000 455.613
27.40000 434.062
27.44000 430.052
27.48000 423.863
27.52000 442.308
27.56000 433.649
27.60000 455.356
27.64000 430.266
27.68000 417.732
27.72000 441.985
27.76000 431.467
27.80000 420.694
27.84000 413.021
27.88000 440.108
27.92000 440.473
27.96000 409.999
28.00000 419.407
28.04000 427.466
28.08000 423.049
28.12000 434.611
28.16000 412.547
28.20000 411.435
28.24000 421.680
28.28000 428.958
28.32000 424.817
28.36000 441.871
28.40000 427.544
28.44000 420.460
28.48000 426.116
28.52000 431.855
28.56000 445.425
28.60000 426.839
28.64000 420.700
28.68000 413.088
28.72000 406.373
28.76000 402.197
28.80000 411.543
28.84000 423.230
28.88000 439.627
28.92000 414.611
28.96000 416.070
29.00000 413.353
29.04000 403.932
29.08000 442.094
29.12000 418.514
29.16000 426.579
29.20000 424.962
29.24000 419.810
29.28000 414.994
29.32000 408.701
29.36000 404.179
29.40000 389.364
29.44000 400.636
29.48000 413.978
29.52000 427.492
29.56000 410.791
29.60000 420.584
29.64000 411.735
29.68000 413.420
29.72000 405.412
29.76000 421.626
29.80000 423.545
29.84000 410.784
29.88000 412.773
29.92000 425.208
29.96000 432.619
30.00000 427.643
30.04000 418.725
30.08000 431.605
30.12000 430.960
30.16000 439.864
30.20000 423.304
30.24000 405.824
30.28000 434.219
30.32000 423.574
30.36000 431.562
30.40000 430.007
30.44000 415.621
30.48000 423.968
30.52000 420.274
30.56000 406.636
30.60000 414.863
30.64000 435.247
30.68000 428.727
30.72000 447.914
30.76000 444.813
30.80000 443.672
30.84000 459.286
30.88000 462.840
30.92000 486.677
30.96000 504.626
31.00000 533.297
31.04000 578.267
31.08000 625.989
31.12000 733.736
31.16000 866.061
31.20000 1084.621
31.24000 1393.617
31.28000 1708.978
31.32000 2054.247
31.36000 2277.608
31.40000 2418.933
31.44000 2409.949
31.48000 2297.974
31.52000 2039.630
31.56000 1695.986
31.60000 1393.508
31.64000 1120.322
31.68000 910.540
31.72000 771.847
31.76000 672.860
31.80000 592.532
31.84000 531.410
31.88000 532.051
31.92000 490.543
31.96000 469.940
32.00000 441.005
32.04000 434.060
32.08000 427.146
32.12000 439.005
32.16000 415.767
32.20000 394.240
32.24000 415.772
32.28000 409.090
32.32000 386.766
32.36000 396.863
32.40000 391.981
32.44000 387.843
32.48000 383.298
32.52000 386.181
32.56000 386.825
32.60000 384.411
32.64000 375.443
32.68000 370.485
32.72000 387.528
32.76000 372.405
32.80000 373.312
32.84000 376.569
32.88000 392.992
32.92000 382.896
32.96000 379.486
33.00000 369.615
33.04000 382.882
33.08000 358.654
33.12000 353.632
33.16000 355.524
33.20000 351.373
33.24000 345.978
33.28000 343.369
33.32000 345.481
33.36000 354.235
33.40000 355.801
33.44000 354.122
33.48000 344.517
33.52000 356.601
33.56000 333.825
33.60000 332.178
33.64000 347.026
33.68000 325.961
33.72000 355.436
33.76000 337.700
33.80000 354.032
33.84000 332.716
33.88000 337.446
33.92000 334.857
33.96000 354.971
34.00000 322.811
34.04000 332.951
34.08000 335.078
34.12000 336.313
34.16000 349.005
34.20000 341.312
34.24000 338.336
34.28000 338.872
34.32000 331.219
34.36000 318.420
34.40000 339.107
34.44000 344.638
34.48000 322.370
34.52000 365.214
34.56000 337.069
34.60000 340.803
34.64000 337.286
34.68000 315.941
34.72000 313.533
34.76000 319.697
34.80000 329.787
34.84000 324.601
34.88000 322.147
34.92000 317.829
34.96000 327.910
35.00000 328.895
35.04000 322.554
35.08000 314.507
35.12000 310.294
35.16000 336.005
35.20000 308.291
35.24000 308.669
35.28000 322.737
35.32000 310.492
35.36000 306.756
35.40000 307.381
35.44000 302.197
35.48000 319.261
35.52000 313.586
35.56000 315.384
35.60000 303.359
35.64000 308.228
35.68000 320.338
35.72000 315.903
35.76000 315.016
35.80000 308.434
35.84000 304.744
35.88000 307.484
35.92000 308.108
35.96000 310.419
36.00000 297.303
36.04000 312.102
36.08000 307.239
36.12000 314.661
36.16000 294.340
36.20000 301.624
36.24000 298.811
36.28000 301.057
36.32000 309.022
36.36000 291.757
36.40000 300.818
36.44000 299.998
36.48000 281.101
36.52000 300.528
36.56000 306.948
36.60000 294.813
36.64000 309.530
36.68000 294.995
36.72000 276.934
36.76000 295.591
36.80000 294.636
36.84000 310.495
36.88000 292.852
36.92000 285.607
36.96000 300.382
37.00000 294.631
37.04000 296.415
37.08000 297.855
37.12000 303.319
37.16000 299.445
37.20000 295.892
37.24000 291.640
37.28000 280.324
37.32000 281.305
37.36000 286.936
37.40000 295.399
37.44000 301.942
37.48000 298.405
37.52000 279.398
37.56000 294.519
37.60000 288.252
37.64000 265.828
37.68000 280.745
37.72000 300.853
37.76000 300.934
37.80000 300.467
37.84000 304.596
37.88000 289.962
37.92000 290.320
37.96000 279.996
38.00000 292.259
38.04000 299.547
38.08000 298.410
38.12000 303.495
38.16000 305.004
38.20000 295.200
38.24000 299.030
38.28000 303.227
38.32000 309.217
38.36000 322.628
38.40000 322.133
38.44000 366.010
38.48000 415.834
38.52000 460.842
38.56000 542.734
38.60000 667.265
38.64000 810.896
38.68000 910.046
38.72000 1015.727
38.76000 1075.344
38.80000 1054.072
38.84000 959.701
38.88000 851.386
38.92000 700.128
38.96000 601.410
39.00000 487.257
39.04000 401.742
39.08000 367.546
39.12000 335.837
39.16000 308.315
39.20000 309.819
39.24000 281.903
39.28000 280.033
39.32000 288.359
39.36000 276.694
39.40000 286.203
39.44000 285.448
39.48000 282.049
39.52000 268.314
39.56000 288.913
39.60000 292.153
39.64000 273.412
39.68000 262.843
39.72000 296.509
39.76000 280.332
39.80000 270.961
39.84000 256.913
39.88000 254.162
39.92000 264.716
39.96000 250.447
40.00000 262.413
40.04000 261.605
40.08000 274.954
40.12000 250.282
40.16000 252.086
40.20000 248.519
40.24000 259.133
40.28000 258.365
40.32000 264.260
40.36000 242.883
40.40000 254.835
40.44000 246.447
40.48000 245.633
40.52000 253.699
40.56000 239.582
40.60000 234.233
40.64000 250.768
40.68000 255.422
40.72000 250.093
40.76000 246.838
40.80000 251.442
40.84000 246.703
40.88000 245.115
40.92000 249.107
40.96000 244.708
41.00000 250.297
41.04000 261.471
41.08000 246.724
41.12000 250.969
41.16000 247.405
41.20000 238.235
41.24000 245.208
41.28000 244.027
41.32000 242.123
41.36000 245.084
41.40000 248.739
41.44000 241.538
41.48000 245.956
41.52000 237.939
41.56000 232.919
41.60000 221.440
41.64000 242.234
41.68000 240.671
41.72000 244.798
41.76000 234.550
41.80000 243.956
41.84000 238.204
41.88000 239.555
41.92000 238.872
41.96000 229.849
42.00000 241.391
42.04000 238.456
42.08000 244.692
42.12000 227.746
42.16000 241.318
42.20000 244.783
42.24000 235.664
42.28000 235.825
42.32000 237.060
42.36000 240.824
42.40000 247.937
42.44000 243.579
42.48000 231.716
42.52000 250.476
42.56000 235.584
42.60000 240.709
42.64000 238.737
42.68000 231.829
42.72000 229.953
42.76000 222.732
42.80000 240.008
42.84000 229.497
42.88000 221.205
42.92000 231.188
42.96000 220.426
43.00000 235.687
43.04000 225.105
43.08000 223.770
43.12000 220.958
43.16000 218.565
43.20000 237.137
43.24000 234.180
43.28000 215.477
43.32000 232.951
43.36000 231.344
43.40000 229.147
43.44000 221.392
43.48000 222.396
43.52000 223.061
43.56000 226.544
43.60000 227.387
43.64000 232.779
43.68000 226.332
43.72000 226.284
43.76000 217.770
43.80000 212.797
43.84000 225.890
43.88000 210.097
43.92000 213.677
43.96000 224.892
44.00000 215.547
44.04000 219.828
44.08000 207.882
44.12000 214.218
44.16000 222.002
44.20000 223.818
44.24000 222.935
44.28000 221.789
44.32000 224.454
44.36000 229.157
44.40000 230.554
44.44000 212.396
44.48000 228.375
44.52000 229.249
44.56000 220.622
44.60000 231.977
44.64000 231.665
44.68000 235.394
44.72000 241.275
44.76000 240.416
44.80000 256.807
44.84000 270.902
44.88000 267.228
44.92000 274.974
44.96000 276.609
45.00000 297.268
45.04000 308.567
45.08000 317.538
45.12000 311.340
45.16000 321.593
45.20000 326.858
45.24000 328.292
45.28000 317.417
45.32000 311.515
45.36000 309.317
45.40000 293.094
45.44000 298.357
45.48000 277.001
45.52000 272.858
45.56000 274.929
45.60000 250.372
45.64000 254.080
45.68000 249.418
45.72000 245.140
45.76000 233.289
45.80000 237.435
45.84000 240.637
45.88000 228.554
45.92000 226.129
45.96000 218.227
46.00000 210.243
46.04000 214.887
46.08000 217.341
46.12000 203.416
46.16000 214.142
46.20000 224.062
46.24000 206.691
46.28000 204.069
46.32000 208.000
46.36000 203.133
46.40000 216.062
46.44000 198.818
46.48000 215.807
46.52000 211.305
46.56000 203.289
46.60000 205.215
46.64000 200.377
46.68000 200.438
46.72000 198.047
46.76000 196.487
46.80000 206.820
46.84000 210.654
46.88000 199.638
46.92000 202.141
46.96000 196.381
47.00000 192.113
47.04000 215.759
47.08000 195.631
47.12000 201.179
47.16000 199.901
47.20000 195.271
47.24000 190.699
47.28000 196.502
47.32000 190.941
47.36000 198.051
47.40000 183.973
47.44000 196.707
47.48000 185.901
47.52000 178.330
47.56000 184.102
47.60000 190.150
47.64000 181.721
47.68000 190.587
47.72000 189.644
47.76000 184.631
47.80000 186.693
47.84000 180.422
47.88000 183.843
47.92000 178.597
47.96000 193.226
48.00000 184.371
48.04000 185.843
48.08000 191.568
48.12000 180.266
48.16000 184.706
48.20000 182.855
48.24000 180.598
48.28000 183.481
48.32000 174.438
48.36000 173.724
48.40000 171.099
48.44000 189.224
48.48000 171.444
48.52000 184.643
48.56000 181.441
48.60000 189.917
48.64000 181.433
48.68000 184.517
48.72000 183.369
48.76000 176.610
48.80000 184.964
48.84000 178.890
48.88000 180.938
48.92000 177.480
48.96000 185.298
49.00000 181.164
49.04000 180.457
49.08000 185.644
49.12000 178.439
49.16000 173.914
49.20000 173.844
49.24000 185.242
49.28000 185.994
49.32000 185.128
49.36000 181.796
49.40000 178.910
49.44000 177.302
49.48000 177.982
49.52000 169.831
49.56000 181.820
49.60000 175.827
49.64000 168.549
49.68000 193.307
49.72000 176.194
49.76000 166.583
49.80000 177.877
49.84000 175.204
49.88000 176.964
49.92000 168.960
49.96000 166.530
50.00000 178.976
50.04000 183.708
50.08000 176.362
50.12000 178.341
50.16000 175.885
50.20000 172.260
50.24000 171.391
50.28000 180.247
50.32000 185.415
50.36000 180.446
50.40000 176.378
50.44000 183.748
50.48000 188.821
50.52000 193.291
50.56000 205.601
50.60000 220.509
50.64000 226.558
50.68000 237.753
50.72000 252.839
50.76000 246.445
50.80000 257.061
50.84000 248.417
50.88000 237.046
50.92000 225.054
50.96000 221.138
51.00000 207.880
51.04000 205.674
51.08000 196.762
51.12000 206.319
51.16000 194.585
51.20000 186.645
51.24000 175.597
51.28000 178.868
51.32000 169.929
51.36000 179.618
51.40000 169.517
51.44000 176.990
51.48000 172.577
51.52000 168.114
51.56000 165.987
51.60000 161.040
51.64000 168.840
51.68000 167.168
51.72000 162.320
51.76000 178.128
51.80000 168.453
51.84000 165.208
51.88000 161.015
51.92000 150.710
51.96000 163.116
52.00000 153.537
52.04000 161.909
52.08000 157.236
52.12000 167.767
52.16000 166.337
52.20000 153.234
52.24000 160.366
52.28000 176.355
52.32000 164.905
52.36000 155.153
52.40000 164.901
52.44000 165.695
52.48000 164.959
52.52000 166.296
52.56000 169.385
52.60000 160.318
52.64000 163.160
52.68000 151.587
52.72000 158.886
52.76000 160.483
52.80000 143.296
52.84000 156.544
52.88000 157.659
52.92000 153.651
52.96000 158.765
53.00000 166.996
53.04000 159.115
53.08000 163.175
53.12000 158.399
53.16000 156.227
53.20000 170.752
53.24000 159.001
53.28000 157.498
53.32000 150.597
53.36000 167.122
53.40000 159.567
53.44000 167.041
53.48000 168.870
53.52000 163.559
53.56000 156.780
53.60000 151.831
53.64000 161.863
53.68000 153.444
53.72000 168.979
53.76000 156.914
53.80000 158.738
53.84000 153.455
53.88000 157.910
53.92000 159.481
53.96000 159.544
54.00000 159.239
54.04000 153.551
54.08000 148.032
54.12000 157.882
54.16000 160.119
54.20000 155.298
54.24000 156.515
54.28000 149.805
54.32000 151.753
54.36000 148.154
54.40000 156.565
54.44000 152.770
54.48000 161.750
54.52000 169.983
54.56000 157.552
54.60000 161.239
54.64000 154.129
54.68000 151.217
54.72000 161.844
54.76000 157.375
54.80000 154.052
54.84000 159.408
54.88000 153.359
54.92000 164.744
54.96000 146.845
55.00000 158.788
55.04000 153.717
55.08000 155.080
55.12000 166.685
55.16000 166.741
55.20000 154.392
55.24000 166.740
55.28000 170.285
55.32000 160.892
55.36000 155.355
55.40000 181.946
55.44000 173.164
55.48000 180.165
55.52000 183.146
55.56000 188.175
55.60000 199.529
55.64000 215.457
55.68000 225.480
55.72000 242.980
55.76000 286.442
55.80000 321.106
55.84000 379.343
55.88000 450.602
55.92000 471.599
55.96000 529.057
56.00000 546.551
56.04000 558.911
56.08000 515.913
56.12000 502.471
56.16000 467.373
56.20000 410.798
56.24000 380.416
56.28000 323.124
56.32000 293.048
56.36000 266.169
56.40000 250.717
56.44000 225.613
56.48000 198.199
56.52000 201.820
56.56000 177.868
56.60000 180.830
56.64000 177.124
56.68000 159.687
56.72000 164.172
56.76000 148.135
56.80000 157.802
56.84000 152.163
56.88000 151.523
56.92000 148.678
56.96000 147.795
57.00000 154.636
57.04000 142.252
57.08000 144.354
57.12000 149.379
57.16000 135.059
57.20000 148.090
57.24000 137.559
57.28000 141.811
57.32000 135.234
57.36000 137.087
57.40000 135.997
57.44000 143.713
57.48000 138.910
57.52000 139.104
57.56000 141.671
57.60000 139.920
57.64000 144.732
57.68000 141.829
57.72000 143.018
57.76000 137.468
57.80000 135.190
57.84000 146.290
57.88000 141.245
57.92000 148.821
57.96000 144.656
58.00000 148.932
58.04000 142.314
58.08000 138.936
58.12000 140.363
58.16000 137.014
58.20000 137.802
58.24000 128.270
58.28000 142.039
58.32000 131.127
58.36000 141.481
58.40000 133.150
58.44000 130.083
58.48000 141.083
58.52000 127.968
58.56000 129.164
58.60000 137.019
58.64000 139.672
58.68000 135.080
58.72000 132.214
58.76000 136.145
58.80000 134.787
58.84000 128.305
58.88000 129.613
58.92000 134.728
58.96000 131.829
59.00000 133.497
59.04000 138.443
59.08000 137.083
59.12000 135.842
59.16000 131.545
59.20000 130.279
59.24000 136.379
59.28000 116.618
59.32000 127.148
59.36000 137.055
59.40000 132.819
59.44000 128.906
59.48000 127.358
59.52000 140.357
59.56000 134.725
59.60000 132.799
59.64000 136.239
59.68000 133.228
59.72000 128.462
59.76000 136.795
59.80000 126.907
59.84000 123.775
59.88000 125.715
59.92000 140.855
59.96000 136.300
60.00000 127.374
60.04000 125.026
60.08000 132.654
60.12000 131.160
60.16000 130.880
60.20000 129.891
60.24000 139.228
60.28000 128.581
60.32000 127.134
60.36000 126.669
60.40000 129.845
60.44000 124.501
60.48000 128.057
60.52000 129.696
60.56000 143.574
60.60000 131.062
60.64000 135.655
60.68000 138.296
60.72000 144.426
60.76000 140.090
60.80000 132.188
60.84000 133.191
60.88000 134.128
60.92000 137.494
60.96000 131.656
61.00000 142.458
61.04000 129.467
61.08000 136.754
61.12000 136.850
61.16000 140.807
61.20000 137.999
61.24000 135.732
61.28000 135.695
61.32000 136.412
61.36000 147.685
61.40000 138.070
61.44000 137.204
61.48000 147.912
61.52000 164.806
61.56000 198.223
61.60000 240.191
61.64000 267.637
61.68000 267.100
61.72000 273.416
61.76000 255.139
61.80000 217.187
61.84000 174.159
61.88000 157.487
61.92000 152.924
61.96000 146.267
62.00000 141.896
62.04000 150.976
62.08000 136.049
62.12000 138.700
62.16000 144.232
62.20000 145.511
62.24000 141.717
62.28000 143.721
62.32000 135.733
62.36000 132.059
62.40000 133.210
62.44000 132.622
62.48000 136.807
62.52000 134.350
62.56000 138.318
62.60000 146.339
62.64000 145.517
62.68000 145.796
62.72000 135.882
62.76000 143.240
62.80000 139.279
62.84000 153.343
62.88000 133.008
62.92000 149.663
62.96000 140.170
63.00000 150.823
63.04000 157.990
63.08000 152.401
63.12000 141.843
63.16000 144.761
63.20000 146.880
63.24000 146.857
63.28000 149.557
63.32000 141.356
63.36000 142.699
63.40000 141.800
63.44000 149.216
63.48000 150.828
63.52000 155.640
63.56000 142.556
63.60000 149.531
63.64000 152.690
63.68000 149.598
63.72000 146.471
63.76000 152.151
63.80000 149.572
63.84000 145.738
63.88000 146.076
63.92000 147.729
63.96000 152.390
64.00000 153.946
64.04000 158.359
64.08000 156.755
64.12000 161.008
64.16000 162.967
64.20000 155.082
64.24000 159.264
64.28000 163.323
64.32000 160.816
64.36000 162.049
64.40000 167.762
64.44000 178.439
64.48000 176.920
64.52000 169.622
64.56000 166.506
64.60000 189.089
64.64000 176.067
64.68000 172.155
64.72000 174.526
64.76000 177.258
64.80000 171.543
64.84000 166.175
64.88000 174.976
64.92000 175.778
64.96000 180.514
65.00000 181.710
65.04000 181.503
65.08000 183.213
65.12000 205.997
65.16000 203.203
65.20000 204.203
65.24000 218.470
65.28000 230.106
65.32000 218.149
65.36000 256.165
65.40000 268.355
65.44000 278.288
65.48000 315.717
65.52000 328.778
65.56000 355.515
65.60000 371.391
65.64000 398.271
65.68000 457.642
65.72000 606.471
65.76000 784.846
65.80000 974.371
65.84000 1058.484
65.88000 1101.529
65.92000 1047.252
65.96000 927.944
66.00000 636.248
66.04000 445.447
66.08000 371.191
66.12000 327.000
66.16000 317.327
66.20000 313.916
66.24000 312.457
66.28000 345.819
66.32000 411.731
66.36000 426.153
66.40000 454.090
66.44000 431.158
66.48000 450.127
66.52000 408.510
66.56000 358.860
66.60000 336.066
66.64000 314.546
66.68000 306.929
66.72000 305.783
66.76000 323.033
66.80000 304.473
66.84000 324.165
66.88000 343.630
66.92000 337.630
66.96000 320.639
67.00000 330.044
67.04000 335.407
67.08000 356.383
67.12000 362.308
67.16000 359.792
67.20000 370.006
67.24000 368.081
67.28000 396.913
67.32000 378.077
67.36000 383.925
67.40000 401.589
67.44000 396.783
67.48000 406.497
67.52000 413.477
67.56000 424.498
67.60000 451.836
67.64000 462.967
67.68000 446.741
67.72000 443.693
67.76000 458.859
67.80000 471.373
67.84000 495.838
67.88000 499.696
67.92000 488.895
67.96000 524.853
68.00000 531.794
68.04000 519.733
68.08000 552.134
68.12000 552.474
68.16000 579.415
68.20000 581.817
68.24000 600.196
68.28000 635.059
68.32000 620.124
68.36000 661.547
68.40000 673.240
68.44000 700.017
68.48000 743.666
68.52000 800.699
68.56000 857.899
68.60000 933.117
68.64000 1100.052
68.68000 1314.370
68.72000 1497.958
68.76000 1710.984
68.80000 1963.632
68.84000 2249.875
68.88000 2902.111
68.92000 5161.673
68.96000 12607.496
69.00000 28913.438
69.04000 46542.223
69.08000 55263.316
69.12000 57179.887
69.16000 59722.691
69.20000 59813.879
69.24000 50170.469
69.28000 37615.844
69.32000 31201.301
69.36000 28277.635
69.40000 23415.713
69.44000 14347.886
69.48000 6499.107
69.52000 2969.224
69.56000 1929.981
69.60000 1510.719
69.64000 1260.551
69.68000 1138.953
69.72000 994.612
69.76000 918.642
69.80000 855.217
69.84000 774.739
69.88000 737.763
69.92000 736.602
69.96000 687.336
70.00000 667.216