File: XRD/XRD/22-09-2025 Dep 2/XY Data/BTO_Mapping_Theta2Theta_22-09-2025_001_59_6-676_-29-248.xy
20.00000 559.365
20.04000 576.505
20.08000 556.053
20.12000 557.634
20.16000 582.116
20.20000 561.056
20.24000 576.159
20.28000 563.979
20.32000 567.878
20.36000 576.385
20.40000 565.323
20.44000 559.873
20.48000 564.206
20.52000 570.601
20.56000 564.261
20.60000 586.176
20.64000 566.926
20.68000 569.730
20.72000 571.390
20.76000 547.819
20.80000 546.292
20.84000 541.303
20.88000 548.290
20.92000 575.077
20.96000 565.536
21.00000 560.238
21.04000 557.751
21.08000 563.746
21.12000 560.111
21.16000 562.166
21.20000 555.719
21.24000 545.056
21.28000 556.265
21.32000 538.557
21.36000 550.371
21.40000 576.084
21.44000 544.413
21.48000 558.398
21.52000 570.532
21.56000 540.787
21.60000 572.586
21.64000 555.095
21.68000 559.975
21.72000 582.424
21.76000 621.986
21.80000 571.893
21.84000 597.180
21.88000 644.782
21.92000 666.249
21.96000 702.160
22.00000 724.906
22.04000 772.685
22.08000 765.995
22.12000 766.835
22.16000 759.542
22.20000 738.495
22.24000 712.596
22.28000 692.400
22.32000 674.477
22.36000 655.520
22.40000 602.178
22.44000 605.056
22.48000 579.979
22.52000 593.449
22.56000 553.503
22.60000 576.750
22.64000 554.253
22.68000 530.496
22.72000 540.820
22.76000 521.932
22.80000 522.722
22.84000 529.252
22.88000 531.321
22.92000 530.523
22.96000 511.545
23.00000 529.683
23.04000 526.399
23.08000 527.473
23.12000 523.426
23.16000 508.569
23.20000 523.501
23.24000 494.106
23.28000 503.110
23.32000 504.195
23.36000 510.058
23.40000 513.093
23.44000 529.721
23.48000 506.832
23.52000 504.583
23.56000 502.982
23.60000 521.558
23.64000 495.458
23.68000 525.456
23.72000 503.291
23.76000 517.206
23.80000 510.855
23.84000 526.826
23.88000 495.285
23.92000 505.635
23.96000 499.654
24.00000 529.083
24.04000 529.016
24.08000 508.944
24.12000 490.965
24.16000 505.410
24.20000 515.348
24.24000 500.563
24.28000 498.572
24.32000 505.793
24.36000 504.363
24.40000 485.548
24.44000 499.343
24.48000 496.686
24.52000 475.552
24.56000 473.436
24.60000 508.870
24.64000 494.156
24.68000 488.186
24.72000 502.277
24.76000 461.275
24.80000 498.308
24.84000 488.587
24.88000 485.336
24.92000 493.854
24.96000 489.368
25.00000 481.807
25.04000 478.764
25.08000 490.439
25.12000 484.817
25.16000 466.558
25.20000 478.737
25.24000 475.257
25.28000 482.406
25.32000 481.693
25.36000 473.642
25.40000 464.158
25.44000 447.702
25.48000 472.777
25.52000 461.242
25.56000 468.887
25.60000 473.667
25.64000 487.784
25.68000 476.320
25.72000 461.035
25.76000 473.044
25.80000 459.072
25.84000 471.863
25.88000 463.671
25.92000 453.560
25.96000 461.078
26.00000 468.217
26.04000 448.379
26.08000 468.018
26.12000 467.415
26.16000 468.063
26.20000 464.039
26.24000 449.447
26.28000 433.108
26.32000 467.344
26.36000 491.150
26.40000 445.716
26.44000 441.093
26.48000 458.663
26.52000 463.960
26.56000 443.867
26.60000 447.101
26.64000 446.664
26.68000 454.620
26.72000 462.047
26.76000 452.894
26.80000 449.314
26.84000 448.539
26.88000 440.067
26.92000 441.743
26.96000 451.995
27.00000 434.436
27.04000 460.967
27.08000 457.812
27.12000 450.445
27.16000 448.236
27.20000 448.430
27.24000 436.149
27.28000 438.077
27.32000 422.991
27.36000 445.783
27.40000 463.936
27.44000 442.669
27.48000 441.457
27.52000 428.299
27.56000 431.729
27.60000 428.116
27.64000 446.895
27.68000 444.182
27.72000 426.636
27.76000 437.307
27.80000 430.711
27.84000 433.795
27.88000 424.241
27.92000 437.767
27.96000 437.237
28.00000 427.941
28.04000 438.452
28.08000 458.736
28.12000 444.124
28.16000 439.074
28.20000 415.912
28.24000 428.605
28.28000 428.082
28.32000 424.510
28.36000 428.327
28.40000 441.639
28.44000 416.395
28.48000 429.799
28.52000 450.681
28.56000 419.669
28.60000 422.725
28.64000 428.299
28.68000 439.573
28.72000 426.874
28.76000 418.195
28.80000 424.724
28.84000 430.177
28.88000 423.439
28.92000 408.576
28.96000 437.254
29.00000 409.412
29.04000 412.733
29.08000 415.698
29.12000 410.030
29.16000 401.040
29.20000 423.571
29.24000 417.068
29.28000 428.471
29.32000 418.206
29.36000 407.927
29.40000 416.570
29.44000 421.344
29.48000 419.077
29.52000 395.286
29.56000 414.457
29.60000 430.314
29.64000 414.955
29.68000 411.372
29.72000 428.382
29.76000 423.726
29.80000 421.739
29.84000 417.468
29.88000 418.567
29.92000 440.907
29.96000 445.836
30.00000 440.444
30.04000 445.951
30.08000 458.795
30.12000 471.766
30.16000 443.486
30.20000 453.391
30.24000 442.061
30.28000 420.719
30.32000 433.274
30.36000 428.773
30.40000 430.538
30.44000 435.435
30.48000 420.748
30.52000 444.804
30.56000 453.834
30.60000 441.618
30.64000 446.471
30.68000 452.670
30.72000 467.390
30.76000 466.516
30.80000 472.815
30.84000 483.328
30.88000 500.286
30.92000 517.879
30.96000 553.443
31.00000 598.863
31.04000 650.487
31.08000 688.784
31.12000 873.107
31.16000 1071.238
31.20000 1289.102
31.24000 1720.699
31.28000 2149.428
31.32000 2645.887
31.36000 3034.370
31.40000 3284.674
31.44000 3303.911
31.48000 3123.046
31.52000 2767.474
31.56000 2325.539
31.60000 1919.321
31.64000 1499.879
31.68000 1191.649
31.72000 983.751
31.76000 834.103
31.80000 706.140
31.84000 652.928
31.88000 572.044
31.92000 523.423
31.96000 495.758
32.00000 487.481
32.04000 462.792
32.08000 440.867
32.12000 445.962
32.16000 420.179
32.20000 400.721
32.24000 406.471
32.28000 399.372
32.32000 393.696
32.36000 403.144
32.40000 406.716
32.44000 383.941
32.48000 384.035
32.52000 405.933
32.56000 392.836
32.60000 379.003
32.64000 385.186
32.68000 393.911
32.72000 388.880
32.76000 379.917
32.80000 393.467
32.84000 413.655
32.88000 414.451
32.92000 431.072
32.96000 423.491
33.00000 418.166
33.04000 413.323
33.08000 399.087
33.12000 369.822
33.16000 369.920
33.20000 350.276
33.24000 355.037
33.28000 362.045
33.32000 362.735
33.36000 353.762
33.40000 349.549
33.44000 339.586
33.48000 339.777
33.52000 342.295
33.56000 344.602
33.60000 332.357
33.64000 345.667
33.68000 345.404
33.72000 349.978
33.76000 354.548
33.80000 348.390
33.84000 351.261
33.88000 354.832
33.92000 331.740
33.96000 334.157
34.00000 346.516
34.04000 351.833
34.08000 354.225
34.12000 345.489
34.16000 335.012
34.20000 313.353
34.24000 349.059
34.28000 341.932
34.32000 318.636
34.36000 322.432
34.40000 336.864
34.44000 328.934
34.48000 344.413
34.52000 329.572
34.56000 330.744
34.60000 342.306
34.64000 331.446
34.68000 330.880
34.72000 313.059
34.76000 320.319
34.80000 327.872
34.84000 327.936
34.88000 318.376
34.92000 313.501
34.96000 313.090
35.00000 329.700
35.04000 307.737
35.08000 329.010
35.12000 332.379
35.16000 309.777
35.20000 320.165
35.24000 340.596
35.28000 320.689
35.32000 328.326
35.36000 313.389
35.40000 316.000
35.44000 331.875
35.48000 313.673
35.52000 313.459
35.56000 316.138
35.60000 311.136
35.64000 310.048
35.68000 312.624
35.72000 314.635
35.76000 312.148
35.80000 307.876
35.84000 316.586
35.88000 313.428
35.92000 301.666
35.96000 292.325
36.00000 311.257
36.04000 305.431
36.08000 302.264
36.12000 296.988
36.16000 290.465
36.20000 295.229
36.24000 293.598
36.28000 292.316
36.32000 302.432
36.36000 315.074
36.40000 306.531
36.44000 307.296
36.48000 305.800
36.52000 298.221
36.56000 296.486
36.60000 317.294
36.64000 313.293
36.68000 292.503
36.72000 304.781
36.76000 299.873
36.80000 309.447
36.84000 314.259
36.88000 309.089
36.92000 312.388
36.96000 305.322
37.00000 307.850
37.04000 288.752
37.08000 313.415
37.12000 307.763
37.16000 294.840
37.20000 305.281
37.24000 283.864
37.28000 290.522
37.32000 298.937
37.36000 278.592
37.40000 293.627
37.44000 290.742
37.48000 295.865
37.52000 298.870
37.56000 297.029
37.60000 293.937
37.64000 305.382
37.68000 293.060
37.72000 295.546
37.76000 296.079
37.80000 303.945
37.84000 311.899
37.88000 290.258
37.92000 286.187
37.96000 296.274
38.00000 285.367
38.04000 288.447
38.08000 301.916
38.12000 307.451
38.16000 309.050
38.20000 305.116
38.24000 307.320
38.28000 319.850
38.32000 315.682
38.36000 329.229
38.40000 344.793
38.44000 384.301
38.48000 408.680
38.52000 481.514
38.56000 567.033
38.60000 662.353
38.64000 799.649
38.68000 914.865
38.72000 991.624
38.76000 1026.398
38.80000 1012.257
38.84000 936.088
38.88000 803.327
38.92000 702.229
38.96000 574.229
39.00000 478.973
39.04000 411.979
39.08000 363.103
39.12000 324.719
39.16000 315.495
39.20000 326.484
39.24000 316.120
39.28000 301.975
39.32000 280.229
39.36000 287.662
39.40000 295.640
39.44000 293.618
39.48000 285.990
39.52000 259.607
39.56000 284.935
39.60000 272.628
39.64000 281.311
39.68000 274.010
39.72000 262.174
39.76000 297.750
39.80000 272.168
39.84000 266.961
39.88000 270.324
39.92000 269.117
39.96000 260.227
40.00000 256.016
40.04000 270.006
40.08000 263.964
40.12000 263.542
40.16000 283.809
40.20000 276.315
40.24000 275.044
40.28000 268.474
40.32000 259.137
40.36000 268.635
40.40000 256.315
40.44000 249.264
40.48000 266.328
40.52000 263.275
40.56000 249.816
40.60000 248.290
40.64000 245.504
40.68000 269.926
40.72000 263.538
40.76000 263.558
40.80000 252.670
40.84000 255.537
40.88000 249.292
40.92000 243.746
40.96000 264.122
41.00000 248.289
41.04000 256.693
41.08000 241.017
41.12000 243.701
41.16000 256.643
41.20000 240.052
41.24000 240.509
41.28000 256.689
41.32000 247.851
41.36000 243.117
41.40000 261.937
41.44000 249.510
41.48000 251.525
41.52000 234.090
41.56000 243.203
41.60000 238.767
41.64000 236.920
41.68000 236.760
41.72000 235.521
41.76000 243.205
41.80000 248.727
41.84000 242.868
41.88000 239.762
41.92000 229.660
41.96000 245.285
42.00000 236.648
42.04000 229.429
42.08000 241.748
42.12000 228.471
42.16000 251.510
42.20000 249.263
42.24000 231.238
42.28000 234.778
42.32000 224.439
42.36000 238.924
42.40000 238.973
42.44000 247.818
42.48000 251.423
42.52000 235.727
42.56000 249.435
42.60000 228.683
42.64000 244.934
42.68000 236.911
42.72000 232.532
42.76000 211.969
42.80000 230.925
42.84000 238.399
42.88000 243.186
42.92000 240.184
42.96000 234.158
43.00000 239.108
43.04000 230.892
43.08000 219.442
43.12000 241.873
43.16000 246.382
43.20000 245.115
43.24000 230.106
43.28000 232.734
43.32000 220.198
43.36000 218.773
43.40000 224.343
43.44000 224.097
43.48000 229.708
43.52000 237.596
43.56000 234.831
43.60000 220.546
43.64000 237.677
43.68000 221.857
43.72000 226.078
43.76000 223.592
43.80000 234.209
43.84000 224.467
43.88000 216.163
43.92000 224.384
43.96000 226.800
44.00000 228.709
44.04000 220.930
44.08000 223.041
44.12000 219.590
44.16000 233.317
44.20000 222.845
44.24000 227.624
44.28000 224.537
44.32000 236.433
44.36000 226.440
44.40000 240.407
44.44000 243.097
44.48000 235.569
44.52000 229.413
44.56000 246.404
44.60000 236.719
44.64000 240.641
44.68000 241.280
44.72000 260.652
44.76000 273.319
44.80000 270.080
44.84000 283.769
44.88000 295.780
44.92000 309.471
44.96000 349.297
45.00000 351.485
45.04000 372.917
45.08000 379.393
45.12000 394.532
45.16000 398.823
45.20000 392.731
45.24000 391.627
45.28000 388.369
45.32000 359.912
45.36000 364.829
45.40000 323.448
45.44000 311.183
45.48000 303.034
45.52000 300.132
45.56000 286.695
45.60000 272.572
45.64000 270.613
45.68000 249.290
45.72000 262.718
45.76000 246.977
45.80000 250.596
45.84000 239.784
45.88000 240.649
45.92000 230.560
45.96000 226.444
46.00000 230.337
46.04000 234.582
46.08000 223.809
46.12000 219.332
46.16000 225.308
46.20000 205.819
46.24000 213.250
46.28000 208.171
46.32000 206.232
46.36000 216.610
46.40000 195.639
46.44000 211.550
46.48000 201.864
46.52000 199.180
46.56000 201.258
46.60000 192.989
46.64000 210.609
46.68000 202.147
46.72000 194.653
46.76000 192.123
46.80000 203.733
46.84000 205.384
46.88000 184.738
46.92000 184.394
46.96000 206.070
47.00000 185.815
47.04000 206.228
47.08000 199.173
47.12000 185.185
47.16000 195.409
47.20000 192.393
47.24000 201.173
47.28000 202.833
47.32000 193.001
47.36000 202.533
47.40000 195.020
47.44000 195.525
47.48000 188.957
47.52000 178.235
47.56000 189.649
47.60000 201.162
47.64000 184.347
47.68000 180.227
47.72000 191.768
47.76000 186.569
47.80000 200.670
47.84000 198.605
47.88000 170.613
47.92000 184.578
47.96000 194.118
48.00000 180.963
48.04000 194.207
48.08000 195.681
48.12000 190.735
48.16000 180.157
48.20000 176.242
48.24000 182.682
48.28000 179.068
48.32000 180.057
48.36000 183.261
48.40000 183.894
48.44000 184.029
48.48000 177.651
48.52000 185.495
48.56000 189.671
48.60000 180.760
48.64000 183.687
48.68000 180.654
48.72000 179.874
48.76000 182.746
48.80000 182.824
48.84000 175.230
48.88000 171.551
48.92000 180.314
48.96000 182.887
49.00000 167.027
49.04000 183.088
49.08000 181.330
49.12000 179.412
49.16000 183.358
49.20000 201.598
49.24000 183.989
49.28000 180.278
49.32000 177.982
49.36000 167.393
49.40000 166.746
49.44000 186.623
49.48000 186.176
49.52000 179.126
49.56000 159.810
49.60000 176.538
49.64000 189.696
49.68000 170.850
49.72000 171.310
49.76000 179.326
49.80000 184.098
49.84000 189.840
49.88000 180.052
49.92000 186.470
49.96000 166.086
50.00000 174.916
50.04000 180.046
50.08000 178.413
50.12000 184.617
50.16000 186.058
50.20000 184.888
50.24000 173.971
50.28000 184.151
50.32000 184.331
50.36000 181.816
50.40000 187.849
50.44000 197.263
50.48000 194.751
50.52000 214.699
50.56000 226.927
50.60000 222.554
50.64000 245.999
50.68000 253.623
50.72000 259.762
50.76000 264.329
50.80000 266.755
50.84000 260.393
50.88000 245.963
50.92000 239.545
50.96000 223.137
51.00000 221.052
51.04000 203.757
51.08000 210.301
51.12000 181.092
51.16000 184.365
51.20000 193.400
51.24000 190.798
51.28000 189.708
51.32000 183.268
51.36000 177.720
51.40000 177.664
51.44000 180.097
51.48000 187.127
51.52000 180.281
51.56000 161.319
51.60000 162.971
51.64000 166.692
51.68000 164.084
51.72000 176.246
51.76000 171.452
51.80000 153.051
51.84000 156.995
51.88000 165.538
51.92000 169.223
51.96000 181.691
52.00000 167.493
52.04000 163.799
52.08000 165.612
52.12000 156.933
52.16000 160.795
52.20000 164.347
52.24000 164.813
52.28000 151.083
52.32000 166.131
52.36000 152.824
52.40000 179.077
52.44000 159.429
52.48000 150.093
52.52000 149.587
52.56000 163.451
52.60000 169.772
52.64000 161.855
52.68000 165.685
52.72000 156.332
52.76000 146.821
52.80000 159.970
52.84000 156.075
52.88000 159.727
52.92000 153.488
52.96000 164.097
53.00000 155.100
53.04000 155.965
53.08000 163.083
53.12000 167.032
53.16000 160.002
53.20000 164.796
53.24000 154.882
53.28000 162.363
53.32000 166.646
53.36000 166.816
53.40000 166.550
53.44000 163.127
53.48000 160.422
53.52000 163.867
53.56000 166.415
53.60000 159.828
53.64000 159.999
53.68000 164.650
53.72000 166.310
53.76000 152.570
53.80000 160.323
53.84000 157.327
53.88000 158.565
53.92000 161.965
53.96000 163.105
54.00000 156.850
54.04000 154.532
54.08000 152.052
54.12000 151.918
54.16000 148.489
54.20000 148.346
54.24000 159.761
54.28000 156.872
54.32000 160.745
54.36000 148.911
54.40000 162.903
54.44000 167.931
54.48000 165.493
54.52000 160.222
54.56000 157.213
54.60000 156.639
54.64000 166.570
54.68000 155.152
54.72000 154.953
54.76000 152.027
54.80000 157.385
54.84000 157.716
54.88000 167.382
54.92000 162.845
54.96000 161.086
55.00000 160.328
55.04000 165.478
55.08000 159.105
55.12000 162.095
55.16000 166.795
55.20000 168.074
55.24000 170.241
55.28000 170.505
55.32000 171.501
55.36000 173.800
55.40000 165.741
55.44000 180.003
55.48000 187.104
55.52000 199.785
55.56000 212.931
55.60000 213.468
55.64000 231.636
55.68000 245.840
55.72000 250.347
55.76000 308.031
55.80000 368.019
55.84000 400.270
55.88000 451.518
55.92000 498.571
55.96000 546.921
56.00000 548.823
56.04000 549.089
56.08000 513.955
56.12000 489.904
56.16000 450.363
56.20000 412.303
56.24000 369.470
56.28000 326.554
56.32000 284.323
56.36000 262.445
56.40000 244.731
56.44000 227.167
56.48000 217.503
56.52000 198.990
56.56000 190.681
56.60000 198.853
56.64000 188.474
56.68000 181.429
56.72000 162.726
56.76000 162.783
56.80000 165.016
56.84000 161.008
56.88000 152.906
56.92000 154.841
56.96000 154.902
57.00000 143.084
57.04000 143.889
57.08000 141.967
57.12000 147.341
57.16000 145.067
57.20000 149.681
57.24000 150.787
57.28000 143.696
57.32000 150.676
57.36000 150.940
57.40000 139.500
57.44000 151.918
57.48000 134.916
57.52000 143.043
57.56000 147.438
57.60000 133.914
57.64000 142.857
57.68000 150.892
57.72000 129.253
57.76000 146.108
57.80000 156.095
57.84000 140.457
57.88000 141.108
57.92000 144.034
57.96000 144.852
58.00000 134.255
58.04000 128.349
58.08000 142.639
58.12000 140.881
58.16000 141.558
58.20000 137.949
58.24000 140.860
58.28000 133.019
58.32000 149.327
58.36000 134.895
58.40000 133.230
58.44000 150.260
58.48000 137.747
58.52000 134.685
58.56000 132.286
58.60000 138.136
58.64000 147.271
58.68000 141.902
58.72000 138.556
58.76000 149.658
58.80000 138.143
58.84000 133.964
58.88000 127.379
58.92000 139.224
58.96000 123.647
59.00000 142.864
59.04000 141.242
59.08000 138.146
59.12000 146.990
59.16000 135.117
59.20000 148.774
59.24000 150.280
59.28000 135.537
59.32000 138.803
59.36000 125.634
59.40000 138.484
59.44000 139.349
59.48000 122.424
59.52000 131.452
59.56000 139.520
59.60000 141.452
59.64000 132.551
59.68000 127.503
59.72000 133.047
59.76000 132.595
59.80000 138.704
59.84000 123.913
59.88000 131.027
59.92000 128.000
59.96000 140.158
60.00000 136.512
60.04000 138.277
60.08000 140.407
60.12000 145.156
60.16000 129.662
60.20000 138.622
60.24000 138.720
60.28000 126.848
60.32000 140.767
60.36000 134.678
60.40000 140.240
60.44000 133.105
60.48000 134.152
60.52000 125.580
60.56000 134.584
60.60000 132.725
60.64000 134.401
60.68000 156.855
60.72000 131.387
60.76000 146.503
60.80000 133.406
60.84000 129.312
60.88000 128.071
60.92000 141.848
60.96000 138.580
61.00000 132.616
61.04000 128.102
61.08000 133.997
61.12000 137.177
61.16000 137.524
61.20000 140.382
61.24000 143.873
61.28000 148.335
61.32000 142.474
61.36000 142.261
61.40000 134.149
61.44000 142.308
61.48000 145.167
61.52000 166.266
61.56000 212.652
61.60000 249.697
61.64000 287.625
61.68000 289.662
61.72000 298.532
61.76000 281.418
61.80000 261.629
61.84000 209.477
61.88000 155.885
61.92000 151.662
61.96000 143.865
62.00000 143.870
62.04000 143.118
62.08000 157.667
62.12000 146.446
62.16000 147.215
62.20000 151.143
62.24000 137.518
62.28000 150.182
62.32000 146.492
62.36000 145.531
62.40000 141.712
62.44000 139.840
62.48000 140.015
62.52000 151.866
62.56000 146.850
62.60000 127.487
62.64000 156.547
62.68000 141.845
62.72000 139.089
62.76000 144.029
62.80000 131.141
62.84000 146.037
62.88000 147.270
62.92000 144.567
62.96000 144.531
63.00000 154.405
63.04000 147.723
63.08000 149.124
63.12000 147.351
63.16000 153.957
63.20000 146.254
63.24000 141.955
63.28000 151.188
63.32000 149.890
63.36000 140.597
63.40000 147.507
63.44000 157.028
63.48000 150.557
63.52000 151.070
63.56000 163.849
63.60000 152.179
63.64000 155.862
63.68000 159.258
63.72000 147.564
63.76000 165.663
63.80000 162.174
63.84000 150.812
63.88000 150.921
63.92000 157.310
63.96000 150.654
64.00000 159.308
64.04000 150.404
64.08000 145.654
64.12000 161.303
64.16000 165.087
64.20000 168.462
64.24000 160.105
64.28000 166.050
64.32000 162.366
64.36000 155.924
64.40000 166.705
64.44000 166.954
64.48000 174.507
64.52000 173.968
64.56000 170.919
64.60000 172.411
64.64000 167.401
64.68000 185.411
64.72000 172.659
64.76000 179.017
64.80000 189.438
64.84000 175.128
64.88000 184.030
64.92000 177.650
64.96000 184.132
65.00000 190.447
65.04000 202.057
65.08000 203.930
65.12000 216.532
65.16000 209.341
65.20000 221.249
65.24000 235.905
65.28000 244.808
65.32000 257.304
65.36000 279.163
65.40000 294.847
65.44000 339.659
65.48000 362.535
65.52000 393.177
65.56000 392.378
65.60000 441.540
65.64000 472.648
65.68000 514.080
65.72000 625.954
65.76000 870.388
65.80000 1084.033
65.84000 1195.979
65.88000 1237.980
65.92000 1240.982
65.96000 1125.209
66.00000 827.345
66.04000 589.008
66.08000 431.252
66.12000 381.763
66.16000 335.581
66.20000 339.839
66.24000 342.470
66.28000 346.727
66.32000 393.331
66.36000 445.604
66.40000 486.358
66.44000 474.707
66.48000 491.591
66.52000 455.917
66.56000 395.913
66.60000 355.523
66.64000 346.710
66.68000 343.088
66.72000 322.674
66.76000 349.109
66.80000 331.821
66.84000 333.835
66.88000 348.680
66.92000 345.845
66.96000 350.694
67.00000 348.874
67.04000 360.688
67.08000 390.513
67.12000 387.298
67.16000 399.619
67.20000 387.589
67.24000 377.283
67.28000 390.595
67.32000 420.821
67.36000 418.048
67.40000 433.229
67.44000 426.053
67.48000 421.093
67.52000 433.212
67.56000 450.196
67.60000 458.041
67.64000 474.292
67.68000 468.307
67.72000 498.857
67.76000 498.737
67.80000 520.227
67.84000 500.435
67.88000 523.521
67.92000 515.996
67.96000 556.154
68.00000 563.061
68.04000 532.587
68.08000 563.274
68.12000 592.168
68.16000 597.294
68.20000 619.461
68.24000 617.403
68.28000 667.664
68.32000 685.592
68.36000 705.772
68.40000 750.386
68.44000 741.767
68.48000 800.516
68.52000 833.608
68.56000 902.039
68.60000 1018.811
68.64000 1186.702
68.68000 1416.203
68.72000 1648.500
68.76000 1880.242
68.80000 2204.550
68.84000 2612.349
68.88000 3265.131
68.92000 5260.941
68.96000 11637.005
69.00000 27803.455
69.04000 49481.070
69.08000 64110.230
69.12000 67986.219
69.16000 70596.438
69.20000 72407.875
69.24000 64257.406
69.28000 49661.047
69.32000 39775.113
69.36000 35021.645
69.40000 30293.135
69.44000 20579.633
69.48000 10308.197
69.52000 4656.940
69.56000 2566.599
69.60000 1860.739
69.64000 1490.647
69.68000 1313.942
69.72000 1134.013
69.76000 1055.152
69.80000 921.390
69.84000 861.561
69.88000 859.673
69.92000 781.582
69.96000 785.260
70.00000 758.290