File: XRD/XRD/22-09-2025 Dep 2/XY Data/BTO_Mapping_Theta2Theta_22-09-2025_001_61_11-126_-48-746.xy
20.00000 821.257
20.04000 832.723
20.08000 832.650
20.12000 827.600
20.16000 819.185
20.20000 803.943
20.24000 804.497
20.28000 794.975
20.32000 804.498
20.36000 816.066
20.40000 843.032
20.44000 810.987
20.48000 819.843
20.52000 803.605
20.56000 805.691
20.60000 803.003
20.64000 777.704
20.68000 801.640
20.72000 792.081
20.76000 795.771
20.80000 779.457
20.84000 764.112
20.88000 775.533
20.92000 764.692
20.96000 779.278
21.00000 756.528
21.04000 744.079
21.08000 765.290
21.12000 752.161
21.16000 760.994
21.20000 764.414
21.24000 765.331
21.28000 759.089
21.32000 763.480
21.36000 739.615
21.40000 759.012
21.44000 725.805
21.48000 737.113
21.52000 731.999
21.56000 738.873
21.60000 748.797
21.64000 739.275
21.68000 730.673
21.72000 723.475
21.76000 723.104
21.80000 732.474
21.84000 740.041
21.88000 718.703
21.92000 726.137
21.96000 727.112
22.00000 758.709
22.04000 712.461
22.08000 729.402
22.12000 711.219
22.16000 716.303
22.20000 747.818
22.24000 727.237
22.28000 725.359
22.32000 708.519
22.36000 705.950
22.40000 700.436
22.44000 692.532
22.48000 706.697
22.52000 725.220
22.56000 711.934
22.60000 677.164
22.64000 678.304
22.68000 707.658
22.72000 694.825
22.76000 689.751
22.80000 698.800
22.84000 691.367
22.88000 681.795
22.92000 694.456
22.96000 688.767
23.00000 681.611
23.04000 686.422
23.08000 680.710
23.12000 682.066
23.16000 670.561
23.20000 662.616
23.24000 654.774
23.28000 662.697
23.32000 657.784
23.36000 677.547
23.40000 649.139
23.44000 661.824
23.48000 650.724
23.52000 643.424
23.56000 655.163
23.60000 649.669
23.64000 658.507
23.68000 631.658
23.72000 643.742
23.76000 651.104
23.80000 649.508
23.84000 650.250
23.88000 631.352
23.92000 646.967
23.96000 647.107
24.00000 642.826
24.04000 639.777
24.08000 648.319
24.12000 629.447
24.16000 623.664
24.20000 621.742
24.24000 615.422
24.28000 652.167
24.32000 619.822
24.36000 624.648
24.40000 614.181
24.44000 622.800
24.48000 616.446
24.52000 627.380
24.56000 608.691
24.60000 624.586
24.64000 630.105
24.68000 614.305
24.72000 622.630
24.76000 611.372
24.80000 599.865
24.84000 624.448
24.88000 615.606
24.92000 637.275
24.96000 595.438
25.00000 601.652
25.04000 596.439
25.08000 597.205
25.12000 597.184
25.16000 604.307
25.20000 616.553
25.24000 582.945
25.28000 595.456
25.32000 573.397
25.36000 584.907
25.40000 574.005
25.44000 588.359
25.48000 575.283
25.52000 590.600
25.56000 595.871
25.60000 586.781
25.64000 571.410
25.68000 561.286
25.72000 571.610
25.76000 574.567
25.80000 548.864
25.84000 584.295
25.88000 572.825
25.92000 580.238
25.96000 597.777
26.00000 560.083
26.04000 569.659
26.08000 595.878
26.12000 565.260
26.16000 554.189
26.20000 561.068
26.24000 542.714
26.28000 551.951
26.32000 575.326
26.36000 543.857
26.40000 559.431
26.44000 555.240
26.48000 572.228
26.52000 558.537
26.56000 565.227
26.60000 550.748
26.64000 536.378
26.68000 547.772
26.72000 534.246
26.76000 553.210
26.80000 540.073
26.84000 556.998
26.88000 560.603
26.92000 546.591
26.96000 524.426
27.00000 560.321
27.04000 527.021
27.08000 547.384
27.12000 538.183
27.16000 532.452
27.20000 515.775
27.24000 538.746
27.28000 509.046
27.32000 513.047
27.36000 518.167
27.40000 513.108
27.44000 524.630
27.48000 518.118
27.52000 523.299
27.56000 509.901
27.60000 529.128
27.64000 523.061
27.68000 510.877
27.72000 511.913
27.76000 514.596
27.80000 524.489
27.84000 525.465
27.88000 522.340
27.92000 490.658
27.96000 517.052
28.00000 497.146
28.04000 520.267
28.08000 499.974
28.12000 511.624
28.16000 491.659
28.20000 493.671
28.24000 487.800
28.28000 501.880
28.32000 503.536
28.36000 513.222
28.40000 495.542
28.44000 506.511
28.48000 498.158
28.52000 485.161
28.56000 491.231
28.60000 482.377
28.64000 487.546
28.68000 492.506
28.72000 475.977
28.76000 481.804
28.80000 477.918
28.84000 487.097
28.88000 478.956
28.92000 493.580
28.96000 482.082
29.00000 463.781
29.04000 482.485
29.08000 487.625
29.12000 489.947
29.16000 479.138
29.20000 489.498
29.24000 474.126
29.28000 482.526
29.32000 471.521
29.36000 478.776
29.40000 491.939
29.44000 465.678
29.48000 475.807
29.52000 469.156
29.56000 460.567
29.60000 466.106
29.64000 470.752
29.68000 456.198
29.72000 456.628
29.76000 454.872
29.80000 471.313
29.84000 454.284
29.88000 448.483
29.92000 463.081
29.96000 450.515
30.00000 457.166
30.04000 456.285
30.08000 451.444
30.12000 440.512
30.16000 472.511
30.20000 453.116
30.24000 448.089
30.28000 457.478
30.32000 460.514
30.36000 445.932
30.40000 458.578
30.44000 447.260
30.48000 438.890
30.52000 431.852
30.56000 438.227
30.60000 431.529
30.64000 440.721
30.68000 446.230
30.72000 451.042
30.76000 433.951
30.80000 429.303
30.84000 449.827
30.88000 429.086
30.92000 426.169
30.96000 432.359
31.00000 435.448
31.04000 442.110
31.08000 440.365
31.12000 416.954
31.16000 427.449
31.20000 408.224
31.24000 424.090
31.28000 424.921
31.32000 408.475
31.36000 422.779
31.40000 414.609
31.44000 415.832
31.48000 427.855
31.52000 411.902
31.56000 428.100
31.60000 411.866
31.64000 414.571
31.68000 416.814
31.72000 414.972
31.76000 418.698
31.80000 425.048
31.84000 411.184
31.88000 401.379
31.92000 403.905
31.96000 416.340
32.00000 421.682
32.04000 406.682
32.08000 399.320
32.12000 390.316
32.16000 412.927
32.20000 394.161
32.24000 407.082
32.28000 411.885
32.32000 397.101
32.36000 417.155
32.40000 403.981
32.44000 401.289
32.48000 402.514
32.52000 390.245
32.56000 403.483
32.60000 415.812
32.64000 396.528
32.68000 415.620
32.72000 388.211
32.76000 399.690
32.80000 428.373
32.84000 411.031
32.88000 414.044
32.92000 415.160
32.96000 401.589
33.00000 412.055
33.04000 406.179
33.08000 413.707
33.12000 413.017
33.16000 417.668
33.20000 394.000
33.24000 375.443
33.28000 370.603
33.32000 377.320
33.36000 378.802
33.40000 388.482
33.44000 387.875
33.48000 377.939
33.52000 372.228
33.56000 385.543
33.60000 370.464
33.64000 374.976
33.68000 372.715
33.72000 368.596
33.76000 373.471
33.80000 365.330
33.84000 373.869
33.88000 390.972
33.92000 364.180
33.96000 356.401
34.00000 366.882
34.04000 369.001
34.08000 352.562
34.12000 364.225
34.16000 365.837
34.20000 370.961
34.24000 373.584
34.28000 363.042
34.32000 355.224
34.36000 369.370
34.40000 375.736
34.44000 367.233
34.48000 354.424
34.52000 368.248
34.56000 359.920
34.60000 347.961
34.64000 363.678
34.68000 354.298
34.72000 352.089
34.76000 337.324
34.80000 353.526
34.84000 353.693
34.88000 354.186
34.92000 357.425
34.96000 348.510
35.00000 350.122
35.04000 348.406
35.08000 343.721
35.12000 357.798
35.16000 347.531
35.20000 361.889
35.24000 334.259
35.28000 336.474
35.32000 351.572
35.36000 353.974
35.40000 332.983
35.44000 352.230
35.48000 340.113
35.52000 343.468
35.56000 334.539
35.60000 348.203
35.64000 340.105
35.68000 338.142
35.72000 339.983
35.76000 345.407
35.80000 330.048
35.84000 319.723
35.88000 332.810
35.92000 334.789
35.96000 341.571
36.00000 324.579
36.04000 324.943
36.08000 315.465
36.12000 333.648
36.16000 317.968
36.20000 336.917
36.24000 316.348
36.28000 321.445
36.32000 328.425
36.36000 328.391
36.40000 323.790
36.44000 340.890
36.48000 334.161
36.52000 328.532
36.56000 311.590
36.60000 319.032
36.64000 326.522
36.68000 326.730
36.72000 321.979
36.76000 318.727
36.80000 318.581
36.84000 311.202
36.88000 315.147
36.92000 324.979
36.96000 314.796
37.00000 336.050
37.04000 307.565
37.08000 314.831
37.12000 317.722
37.16000 315.598
37.20000 311.180
37.24000 311.354
37.28000 316.052
37.32000 306.112
37.36000 318.202
37.40000 312.539
37.44000 310.311
37.48000 321.121
37.52000 303.333
37.56000 320.630
37.60000 305.049
37.64000 284.296
37.68000 303.400
37.72000 295.963
37.76000 299.743
37.80000 314.778
37.84000 306.509
37.88000 295.051
37.92000 307.171
37.96000 298.128
38.00000 310.530
38.04000 303.792
38.08000 307.190
38.12000 293.363
38.16000 322.210
38.20000 288.654
38.24000 288.203
38.28000 286.960
38.32000 292.081
38.36000 292.612
38.40000 317.734
38.44000 315.866
38.48000 305.658
38.52000 303.291
38.56000 285.146
38.60000 290.093
38.64000 280.598
38.68000 283.208
38.72000 293.686
38.76000 282.452
38.80000 287.542
38.84000 271.372
38.88000 291.982
38.92000 283.594
38.96000 289.501
39.00000 289.091
39.04000 274.867
39.08000 271.140
39.12000 271.277
39.16000 293.533
39.20000 280.530
39.24000 274.107
39.28000 276.052
39.32000 270.765
39.36000 287.445
39.40000 288.655
39.44000 301.212
39.48000 271.690
39.52000 256.938
39.56000 284.342
39.60000 282.806
39.64000 275.526
39.68000 282.256
39.72000 283.413
39.76000 292.139
39.80000 286.864
39.84000 274.880
39.88000 266.312
39.92000 269.512
39.96000 282.098
40.00000 270.731
40.04000 280.961
40.08000 270.813
40.12000 279.659
40.16000 266.370
40.20000 278.414
40.24000 267.626
40.28000 275.365
40.32000 271.183
40.36000 254.744
40.40000 264.473
40.44000 261.378
40.48000 272.430
40.52000 275.095
40.56000 256.756
40.60000 271.485
40.64000 266.775
40.68000 282.371
40.72000 269.811
40.76000 261.649
40.80000 271.944
40.84000 262.560
40.88000 268.961
40.92000 265.276
40.96000 269.831
41.00000 259.219
41.04000 251.064
41.08000 252.938
41.12000 254.962
41.16000 241.944
41.20000 257.226
41.24000 252.325
41.28000 261.095
41.32000 259.783
41.36000 257.745
41.40000 261.248
41.44000 258.501
41.48000 266.629
41.52000 257.022
41.56000 252.538
41.60000 265.591
41.64000 265.112
41.68000 248.256
41.72000 241.618
41.76000 263.678
41.80000 252.010
41.84000 243.870
41.88000 243.662
41.92000 241.149
41.96000 262.875
42.00000 243.295
42.04000 235.487
42.08000 257.022
42.12000 249.545
42.16000 244.362
42.20000 249.766
42.24000 249.918
42.28000 246.577
42.32000 253.607
42.36000 254.803
42.40000 235.765
42.44000 243.117
42.48000 254.961
42.52000 254.706
42.56000 231.062
42.60000 240.088
42.64000 239.566
42.68000 251.362
42.72000 252.364
42.76000 237.089
42.80000 262.579
42.84000 240.581
42.88000 238.950
42.92000 248.448
42.96000 230.517
43.00000 250.255
43.04000 248.129
43.08000 238.903
43.12000 237.063
43.16000 232.982
43.20000 238.239
43.24000 237.945
43.28000 240.847
43.32000 243.007
43.36000 246.710
43.40000 226.526
43.44000 239.909
43.48000 239.680
43.52000 230.960
43.56000 227.294
43.60000 229.031
43.64000 238.591
43.68000 238.919
43.72000 240.093
43.76000 237.975
43.80000 245.759
43.84000 235.939
43.88000 225.920
43.92000 231.815
43.96000 225.389
44.00000 222.414
44.04000 235.410
44.08000 218.468
44.12000 223.423
44.16000 230.871
44.20000 213.865
44.24000 217.707
44.28000 229.923
44.32000 220.305
44.36000 238.732
44.40000 230.441
44.44000 238.591
44.48000 222.351
44.52000 227.540
44.56000 217.173
44.60000 226.701
44.64000 237.725
44.68000 219.992
44.72000 232.125
44.76000 221.090
44.80000 217.935
44.84000 219.234
44.88000 212.568
44.92000 208.874
44.96000 229.966
45.00000 221.065
45.04000 225.826
45.08000 221.460
45.12000 217.821
45.16000 219.413
45.20000 223.610
45.24000 218.731
45.28000 229.819
45.32000 216.306
45.36000 225.050
45.40000 223.858
45.44000 219.849
45.48000 216.277
45.52000 217.724
45.56000 219.159
45.60000 226.674
45.64000 212.499
45.68000 219.864
45.72000 212.112
45.76000 212.152
45.80000 210.939
45.84000 220.277
45.88000 207.436
45.92000 211.183
45.96000 213.114
46.00000 206.106
46.04000 217.845
46.08000 202.898
46.12000 209.535
46.16000 214.011
46.20000 203.224
46.24000 219.183
46.28000 202.536
46.32000 200.178
46.36000 210.109
46.40000 209.607
46.44000 192.003
46.48000 200.406
46.52000 202.355
46.56000 196.041
46.60000 187.794
46.64000 198.137
46.68000 209.361
46.72000 212.843
46.76000 205.592
46.80000 206.940
46.84000 202.768
46.88000 202.070
46.92000 200.071
46.96000 190.264
47.00000 208.248
47.04000 208.178
47.08000 195.211
47.12000 209.379
47.16000 192.761
47.20000 198.010
47.24000 196.362
47.28000 190.406
47.32000 202.638
47.36000 203.176
47.40000 204.603
47.44000 207.120
47.48000 185.538
47.52000 191.124
47.56000 207.776
47.60000 199.455
47.64000 194.690
47.68000 201.291
47.72000 203.362
47.76000 200.444
47.80000 189.998
47.84000 205.783
47.88000 186.265
47.92000 193.483
47.96000 194.548
48.00000 206.583
48.04000 208.210
48.08000 203.510
48.12000 192.810
48.16000 188.546
48.20000 190.893
48.24000 189.617
48.28000 186.858
48.32000 187.855
48.36000 192.631
48.40000 182.437
48.44000 200.717
48.48000 189.918
48.52000 195.927
48.56000 190.718
48.60000 184.842
48.64000 196.119
48.68000 199.187
48.72000 197.556
48.76000 189.532
48.80000 199.960
48.84000 191.961
48.88000 193.151
48.92000 178.364
48.96000 183.117
49.00000 185.649
49.04000 204.767
49.08000 195.383
49.12000 185.586
49.16000 184.109
49.20000 185.606
49.24000 186.044
49.28000 183.828
49.32000 183.284
49.36000 184.842
49.40000 181.658
49.44000 182.346
49.48000 186.253
49.52000 179.862
49.56000 166.031
49.60000 185.300
49.64000 183.040
49.68000 182.877
49.72000 179.704
49.76000 186.106
49.80000 173.553
49.84000 175.083
49.88000 172.809
49.92000 185.509
49.96000 188.307
50.00000 178.263
50.04000 185.683
50.08000 170.976
50.12000 178.047
50.16000 175.606
50.20000 173.140
50.24000 188.979
50.28000 175.536
50.32000 180.132
50.36000 183.029
50.40000 183.675
50.44000 177.283
50.48000 172.545
50.52000 178.737
50.56000 182.268
50.60000 177.074
50.64000 183.784
50.68000 179.060
50.72000 168.156
50.76000 183.186
50.80000 167.627
50.84000 175.316
50.88000 171.447
50.92000 171.328
50.96000 172.669
51.00000 172.813
51.04000 179.038
51.08000 176.973
51.12000 172.247
51.16000 172.984
51.20000 180.176
51.24000 177.289
51.28000 179.013
51.32000 182.534
51.36000 173.525
51.40000 181.771
51.44000 164.884
51.48000 177.470
51.52000 167.099
51.56000 177.024
51.60000 175.376
51.64000 179.963
51.68000 169.769
51.72000 160.954
51.76000 160.167
51.80000 165.726
51.84000 170.233
51.88000 176.623
51.92000 165.871
51.96000 177.382
52.00000 164.668
52.04000 165.975
52.08000 158.799
52.12000 166.984
52.16000 178.331
52.20000 159.612
52.24000 161.993
52.28000 159.297
52.32000 173.633
52.36000 180.180
52.40000 165.189
52.44000 160.960
52.48000 162.697
52.52000 162.855
52.56000 161.052
52.60000 165.756
52.64000 171.924
52.68000 158.150
52.72000 158.963
52.76000 156.449
52.80000 167.750
52.84000 158.069
52.88000 162.222
52.92000 162.146
52.96000 160.929
53.00000 161.876
53.04000 161.922
53.08000 159.644
53.12000 170.357
53.16000 160.577
53.20000 156.159
53.24000 163.492
53.28000 173.527
53.32000 166.016
53.36000 161.235
53.40000 170.198
53.44000 165.649
53.48000 163.333
53.52000 157.617
53.56000 168.048
53.60000 159.297
53.64000 162.977
53.68000 158.218
53.72000 168.907
53.76000 164.727
53.80000 161.234
53.84000 163.382
53.88000 164.600
53.92000 154.098
53.96000 159.191
54.00000 156.180
54.04000 152.887
54.08000 157.728
54.12000 152.147
54.16000 161.341
54.20000 153.682
54.24000 152.902
54.28000 165.092
54.32000 158.869
54.36000 155.103
54.40000 163.223
54.44000 158.537
54.48000 165.401
54.52000 159.979
54.56000 153.382
54.60000 146.475
54.64000 166.395
54.68000 162.249
54.72000 154.959
54.76000 148.041
54.80000 153.165
54.84000 157.853
54.88000 164.448
54.92000 143.073
54.96000 140.790
55.00000 154.324
55.04000 154.737
55.08000 150.513
55.12000 143.972
55.16000 161.820
55.20000 149.671
55.24000 156.735
55.28000 159.368
55.32000 146.239
55.36000 149.236
55.40000 150.185
55.44000 155.440
55.48000 154.361
55.52000 142.802
55.56000 149.564
55.60000 149.080
55.64000 158.562
55.68000 148.919
55.72000 146.269
55.76000 143.899
55.80000 151.526
55.84000 142.391
55.88000 152.352
55.92000 151.868
55.96000 143.921
56.00000 137.311
56.04000 141.592
56.08000 141.349
56.12000 145.045
56.16000 146.847
56.20000 151.966
56.24000 151.727
56.28000 154.000
56.32000 153.136
56.36000 146.662
56.40000 155.031
56.44000 155.595
56.48000 157.080
56.52000 149.632
56.56000 142.179
56.60000 147.245
56.64000 152.526
56.68000 141.005
56.72000 145.507
56.76000 140.318
56.80000 150.738
56.84000 156.744
56.88000 163.683
56.92000 147.767
56.96000 146.700
57.00000 148.103
57.04000 138.056
57.08000 148.919
57.12000 150.042
57.16000 137.529
57.20000 141.514
57.24000 149.903
57.28000 154.441
57.32000 147.013
57.36000 148.759
57.40000 142.438
57.44000 153.089
57.48000 147.116
57.52000 146.866
57.56000 147.932
57.60000 137.305
57.64000 140.247
57.68000 146.166
57.72000 142.866
57.76000 149.326
57.80000 132.600
57.84000 141.037
57.88000 144.640
57.92000 140.802
57.96000 131.068
58.00000 144.209
58.04000 139.726
58.08000 137.425
58.12000 141.834
58.16000 143.870
58.20000 141.503
58.24000 137.447
58.28000 145.444
58.32000 137.316
58.36000 137.741
58.40000 137.299
58.44000 152.125
58.48000 143.391
58.52000 130.860
58.56000 147.869
58.60000 144.039
58.64000 144.645
58.68000 142.794
58.72000 130.447
58.76000 149.953
58.80000 146.216
58.84000 140.022
58.88000 136.045
58.92000 140.969
58.96000 130.791
59.00000 136.570
59.04000 146.240
59.08000 137.345
59.12000 143.470
59.16000 149.405
59.20000 140.062
59.24000 148.521
59.28000 144.445
59.32000 138.505
59.36000 140.127
59.40000 139.529
59.44000 137.518
59.48000 137.874
59.52000 137.520
59.56000 139.982
59.60000 140.975
59.64000 136.622
59.68000 133.654
59.72000 140.131
59.76000 138.440
59.80000 137.483
59.84000 140.048
59.88000 137.184
59.92000 140.526
59.96000 133.853
60.00000 146.463
60.04000 142.657
60.08000 144.605
60.12000 140.139
60.16000 141.648
60.20000 144.407
60.24000 143.739
60.28000 149.128
60.32000 139.219
60.36000 145.271
60.40000 142.817
60.44000 142.461
60.48000 142.844
60.52000 141.074
60.56000 134.408
60.60000 144.418
60.64000 128.786
60.68000 143.281
60.72000 145.650
60.76000 131.497
60.80000 139.841
60.84000 144.485
60.88000 143.397
60.92000 132.705
60.96000 155.275
61.00000 139.007
61.04000 151.414
61.08000 139.776
61.12000 136.584
61.16000 140.512
61.20000 144.076
61.24000 154.459
61.28000 145.175
61.32000 143.016
61.36000 139.302
61.40000 152.047
61.44000 159.371
61.48000 145.239
61.52000 149.916
61.56000 190.657
61.60000 217.929
61.64000 255.892
61.68000 288.189
61.72000 272.271
61.76000 290.830
61.80000 255.245
61.84000 211.398
61.88000 173.534
61.92000 167.412
61.96000 156.976
62.00000 143.440
62.04000 151.898
62.08000 153.760
62.12000 147.543
62.16000 145.752
62.20000 142.857
62.24000 144.539
62.28000 162.355
62.32000 147.584
62.36000 141.568
62.40000 149.842
62.44000 148.995
62.48000 153.558
62.52000 140.292
62.56000 143.973
62.60000 157.163
62.64000 145.512
62.68000 148.589
62.72000 161.684
62.76000 160.078
62.80000 145.048
62.84000 142.781
62.88000 156.481
62.92000 156.242
62.96000 160.198
63.00000 143.763
63.04000 164.792
63.08000 170.992
63.12000 156.310
63.16000 156.726
63.20000 152.822
63.24000 151.257
63.28000 153.389
63.32000 158.107
63.36000 160.841
63.40000 166.708
63.44000 159.349
63.48000 153.666
63.52000 176.710
63.56000 167.750
63.60000 160.525
63.64000 163.593
63.68000 169.605
63.72000 160.574
63.76000 176.900
63.80000 177.609
63.84000 174.657
63.88000 169.043
63.92000 164.623
63.96000 161.406
64.00000 161.844
64.04000 175.823
64.08000 169.264
64.12000 171.651
64.16000 175.336
64.20000 167.329
64.24000 170.537
64.28000 176.872
64.32000 172.959
64.36000 173.447
64.40000 181.947
64.44000 184.007
64.48000 183.312
64.52000 179.649
64.56000 187.413
64.60000 191.433
64.64000 200.620
64.68000 181.190
64.72000 197.264
64.76000 193.865
64.80000 187.497
64.84000 187.694
64.88000 191.232
64.92000 198.347
64.96000 203.417
65.00000 202.810
65.04000 190.896
65.08000 202.926
65.12000 204.252
65.16000 202.761
65.20000 212.402
65.24000 222.640
65.28000 216.317
65.32000 226.848
65.36000 226.498
65.40000 227.891
65.44000 214.263
65.48000 229.235
65.52000 229.356
65.56000 249.041
65.60000 262.294
65.64000 288.112
65.68000 319.248
65.72000 396.281
65.76000 562.321
65.80000 778.478
65.84000 925.593
65.88000 989.311
65.92000 996.412
65.96000 933.556
66.00000 739.550
66.04000 518.971
66.08000 372.718
66.12000 321.457
66.16000 320.872
66.20000 326.743
66.24000 329.671
66.28000 322.090
66.32000 368.748
66.36000 416.336
66.40000 449.490
66.44000 458.086
66.48000 456.957
66.52000 425.643
66.56000 405.397
66.60000 364.300
66.64000 344.836
66.68000 352.554
66.72000 329.815
66.76000 345.678
66.80000 351.797
66.84000 355.111
66.88000 369.894
66.92000 371.196
66.96000 366.943
67.00000 386.816
67.04000 364.264
67.08000 378.290
67.12000 382.493
67.16000 383.442
67.20000 384.175
67.24000 406.496
67.28000 414.721
67.32000 408.129
67.36000 426.915
67.40000 424.027
67.44000 454.943
67.48000 457.222
67.52000 459.000
67.56000 466.087
67.60000 483.375
67.64000 471.592
67.68000 489.134
67.72000 497.113
67.76000 501.151
67.80000 499.615
67.84000 537.090
67.88000 543.855
67.92000 556.814
67.96000 551.853
68.00000 553.896
68.04000 562.879
68.08000 590.366
68.12000 614.674
68.16000 624.530
68.20000 637.967
68.24000 674.135
68.28000 665.404
68.32000 700.016
68.36000 708.838
68.40000 735.326
68.44000 741.735
68.48000 788.472
68.52000 831.902
68.56000 878.817
68.60000 970.535
68.64000 1059.037
68.68000 1232.067
68.72000 1453.170
68.76000 1675.670
68.80000 1882.063
68.84000 2117.531
68.88000 2488.920
68.92000 3496.075
68.96000 6997.746
69.00000 18420.799
69.04000 36837.703
69.08000 51064.148
69.12000 55077.949
69.16000 56745.707
69.20000 58716.309
69.24000 54482.988
69.28000 42321.762
69.32000 32784.344
69.36000 28776.061
69.40000 25971.021
69.44000 18772.598
69.48000 9407.361
69.52000 4088.770
69.56000 2229.992
69.60000 1625.769
69.64000 1411.228
69.68000 1219.957
69.72000 1075.010
69.76000 994.030
69.80000 933.695
69.84000 906.055
69.88000 837.401
69.92000 803.194
69.96000 756.391
70.00000 720.791