File: XRD/XRD/22-09-2025 Dep 2/XY Data/BTO_Mapping_Theta2Theta_22-09-2025_001_29_-18-705_23-455.xy
20.00000 565.790
20.04000 574.052
20.08000 549.055
20.12000 555.110
20.16000 554.695
20.20000 567.634
20.24000 565.179
20.28000 564.441
20.32000 554.918
20.36000 558.108
20.40000 588.236
20.44000 567.656
20.48000 570.972
20.52000 571.029
20.56000 580.908
20.60000 561.093
20.64000 577.725
20.68000 558.095
20.72000 570.039
20.76000 571.554
20.80000 572.613
20.84000 540.450
20.88000 548.975
20.92000 564.613
20.96000 544.354
21.00000 568.763
21.04000 556.233
21.08000 556.735
21.12000 557.035
21.16000 545.945
21.20000 577.553
21.24000 556.718
21.28000 567.704
21.32000 556.329
21.36000 554.030
21.40000 555.078
21.44000 549.835
21.48000 565.256
21.52000 556.899
21.56000 573.355
21.60000 571.384
21.64000 591.700
21.68000 616.827
21.72000 634.911
21.76000 632.854
21.80000 668.698
21.84000 709.111
21.88000 750.483
21.92000 788.681
21.96000 820.819
22.00000 876.821
22.04000 890.041
22.08000 842.993
22.12000 837.762
22.16000 780.731
22.20000 731.460
22.24000 710.058
22.28000 645.296
22.32000 628.851
22.36000 612.012
22.40000 594.276
22.44000 583.051
22.48000 558.494
22.52000 569.701
22.56000 565.882
22.60000 548.359
22.64000 547.332
22.68000 534.123
22.72000 527.436
22.76000 535.346
22.80000 525.743
22.84000 547.016
22.88000 533.846
22.92000 507.771
22.96000 534.112
23.00000 537.213
23.04000 520.880
23.08000 518.240
23.12000 519.657
23.16000 520.696
23.20000 533.858
23.24000 485.481
23.28000 518.196
23.32000 510.589
23.36000 505.660
23.40000 514.928
23.44000 522.459
23.48000 512.335
23.52000 502.786
23.56000 504.968
23.60000 505.609
23.64000 515.642
23.68000 500.678
23.72000 495.878
23.76000 497.119
23.80000 522.342
23.84000 497.721
23.88000 495.611
23.92000 514.976
23.96000 495.033
24.00000 507.929
24.04000 509.776
24.08000 517.795
24.12000 506.491
24.16000 504.483
24.20000 489.778
24.24000 506.386
24.28000 488.022
24.32000 501.205
24.36000 505.194
24.40000 460.975
24.44000 492.491
24.48000 482.440
24.52000 508.958
24.56000 495.354
24.60000 472.591
24.64000 493.744
24.68000 476.213
24.72000 473.426
24.76000 477.858
24.80000 491.484
24.84000 498.081
24.88000 487.205
24.92000 471.857
24.96000 489.317
25.00000 484.334
25.04000 467.005
25.08000 479.692
25.12000 469.140
25.16000 485.281
25.20000 476.320
25.24000 490.334
25.28000 472.665
25.32000 493.423
25.36000 485.402
25.40000 485.487
25.44000 474.925
25.48000 466.677
25.52000 441.671
25.56000 473.711
25.60000 468.147
25.64000 478.812
25.68000 472.428
25.72000 479.910
25.76000 489.608
25.80000 475.029
25.84000 441.435
25.88000 461.146
25.92000 442.452
25.96000 455.563
26.00000 472.831
26.04000 446.740
26.08000 484.639
26.12000 468.511
26.16000 464.784
26.20000 460.331
26.24000 442.596
26.28000 463.218
26.32000 466.554
26.36000 459.491
26.40000 454.558
26.44000 445.906
26.48000 467.797
26.52000 446.750
26.56000 461.586
26.60000 461.311
26.64000 473.240
26.68000 439.990
26.72000 451.913
26.76000 447.617
26.80000 458.733
26.84000 458.408
26.88000 457.725
26.92000 438.919
26.96000 461.389
27.00000 451.351
27.04000 439.376
27.08000 461.650
27.12000 480.867
27.16000 437.874
27.20000 438.097
27.24000 445.294
27.28000 436.416
27.32000 431.241
27.36000 460.691
27.40000 476.392
27.44000 451.386
27.48000 453.339
27.52000 461.871
27.56000 444.351
27.60000 440.456
27.64000 460.651
27.68000 445.921
27.72000 441.147
27.76000 445.006
27.80000 439.158
27.84000 426.435
27.88000 438.731
27.92000 431.148
27.96000 443.283
28.00000 424.698
28.04000 418.634
28.08000 441.948
28.12000 427.657
28.16000 440.507
28.20000 442.194
28.24000 451.080
28.28000 434.270
28.32000 430.418
28.36000 435.087
28.40000 431.493
28.44000 410.229
28.48000 422.996
28.52000 414.910
28.56000 422.774
28.60000 437.979
28.64000 430.745
28.68000 422.026
28.72000 425.225
28.76000 432.277
28.80000 428.380
28.84000 423.394
28.88000 434.100
28.92000 430.218
28.96000 406.790
29.00000 401.363
29.04000 414.898
29.08000 428.626
29.12000 419.846
29.16000 425.890
29.20000 408.302
29.24000 434.918
29.28000 416.236
29.32000 408.096
29.36000 415.663
29.40000 411.001
29.44000 425.867
29.48000 432.055
29.52000 408.069
29.56000 412.884
29.60000 410.925
29.64000 412.891
29.68000 418.058
29.72000 442.351
29.76000 441.076
29.80000 425.216
29.84000 436.645
29.88000 439.809
29.92000 434.247
29.96000 457.520
30.00000 452.161
30.04000 460.161
30.08000 452.013
30.12000 453.838
30.16000 451.490
30.20000 452.581
30.24000 435.561
30.28000 443.014
30.32000 453.916
30.36000 438.731
30.40000 439.998
30.44000 442.162
30.48000 437.924
30.52000 453.421
30.56000 418.616
30.60000 430.099
30.64000 454.324
30.68000 445.895
30.72000 468.245
30.76000 463.629
30.80000 487.896
30.84000 464.619
30.88000 488.423
30.92000 525.240
30.96000 548.429
31.00000 587.614
31.04000 681.262
31.08000 821.902
31.12000 1038.347
31.16000 1352.261
31.20000 1734.232
31.24000 2274.406
31.28000 2768.472
31.32000 3285.119
31.36000 3567.454
31.40000 3572.720
31.44000 3422.136
31.48000 3067.174
31.52000 2550.122
31.56000 2039.105
31.60000 1606.454
31.64000 1272.306
31.68000 992.260
31.72000 840.115
31.76000 735.013
31.80000 637.339
31.84000 574.079
31.88000 524.901
31.92000 473.394
31.96000 456.954
32.00000 466.513
32.04000 429.445
32.08000 435.000
32.12000 436.253
32.16000 419.958
32.20000 403.018
32.24000 416.654
32.28000 408.401
32.32000 391.264
32.36000 413.553
32.40000 413.200
32.44000 382.440
32.48000 383.753
32.52000 411.616
32.56000 387.842
32.60000 392.982
32.64000 411.673
32.68000 396.952
32.72000 385.345
32.76000 402.565
32.80000 396.589
32.84000 409.582
32.88000 447.175
32.92000 431.003
32.96000 426.815
33.00000 405.389
33.04000 397.481
33.08000 404.984
33.12000 366.048
33.16000 381.196
33.20000 361.539
33.24000 353.684
33.28000 358.036
33.32000 348.812
33.36000 348.752
33.40000 356.583
33.44000 352.604
33.48000 348.271
33.52000 333.381
33.56000 354.166
33.60000 347.020
33.64000 345.817
33.68000 346.201
33.72000 350.378
33.76000 345.345
33.80000 348.858
33.84000 349.556
33.88000 351.114
33.92000 342.257
33.96000 343.972
34.00000 357.711
34.04000 343.682
34.08000 351.835
34.12000 332.996
34.16000 333.571
34.20000 353.323
34.24000 337.366
34.28000 344.296
34.32000 339.420
34.36000 339.738
34.40000 318.454
34.44000 336.707
34.48000 342.073
34.52000 327.054
34.56000 330.734
34.60000 327.289
34.64000 325.880
34.68000 322.324
34.72000 321.732
34.76000 314.833
34.80000 321.334
34.84000 314.329
34.88000 321.941
34.92000 333.979
34.96000 332.731
35.00000 327.058
35.04000 339.921
35.08000 315.796
35.12000 314.935
35.16000 315.704
35.20000 324.682
35.24000 321.497
35.28000 325.396
35.32000 317.118
35.36000 322.272
35.40000 319.829
35.44000 325.666
35.48000 311.221
35.52000 323.196
35.56000 317.288
35.60000 316.711
35.64000 323.282
35.68000 316.293
35.72000 316.480
35.76000 307.089
35.80000 317.462
35.84000 303.680
35.88000 301.615
35.92000 321.006
35.96000 304.515
36.00000 312.229
36.04000 309.719
36.08000 292.268
36.12000 308.704
36.16000 313.763
36.20000 298.228
36.24000 297.303
36.28000 310.996
36.32000 302.590
36.36000 307.913
36.40000 311.191
36.44000 304.141
36.48000 311.520
36.52000 309.340
36.56000 310.097
36.60000 295.781
36.64000 304.510
36.68000 301.408
36.72000 335.978
36.76000 304.759
36.80000 302.763
36.84000 302.399
36.88000 312.790
36.92000 302.245
36.96000 302.152
37.00000 303.974
37.04000 316.135
37.08000 304.518
37.12000 311.946
37.16000 321.250
37.20000 309.412
37.24000 310.119
37.28000 297.437
37.32000 313.443
37.36000 293.733
37.40000 291.053
37.44000 303.342
37.48000 304.815
37.52000 304.522
37.56000 304.725
37.60000 299.741
37.64000 307.781
37.68000 308.111
37.72000 314.610
37.76000 303.142
37.80000 304.858
37.84000 300.211
37.88000 302.408
37.92000 321.145
37.96000 296.916
38.00000 301.092
38.04000 304.573
38.08000 292.890
38.12000 320.014
38.16000 335.894
38.20000 331.676
38.24000 341.264
38.28000 345.416
38.32000 360.975
38.36000 376.748
38.40000 421.457
38.44000 442.320
38.48000 525.470
38.52000 573.611
38.56000 650.468
38.60000 702.631
38.64000 790.887
38.68000 834.205
38.72000 805.362
38.76000 757.085
38.80000 723.549
38.84000 619.106
38.88000 547.789
38.92000 495.052
38.96000 429.825
39.00000 413.272
39.04000 369.023
39.08000 356.252
39.12000 315.360
39.16000 319.955
39.20000 305.587
39.24000 313.267
39.28000 304.482
39.32000 309.441
39.36000 295.002
39.40000 289.907
39.44000 290.423
39.48000 289.903
39.52000 275.700
39.56000 286.030
39.60000 270.945
39.64000 287.476
39.68000 289.635
39.72000 278.895
39.76000 290.770
39.80000 278.108
39.84000 274.404
39.88000 269.161
39.92000 277.481
39.96000 257.100
40.00000 258.839
40.04000 269.413
40.08000 277.040
40.12000 271.477
40.16000 263.490
40.20000 266.271
40.24000 262.286
40.28000 257.073
40.32000 262.623
40.36000 266.430
40.40000 275.538
40.44000 275.452
40.48000 269.577
40.52000 261.283
40.56000 257.645
40.60000 258.304
40.64000 261.382
40.68000 259.682
40.72000 258.707
40.76000 266.651
40.80000 244.913
40.84000 256.196
40.88000 250.094
40.92000 249.831
40.96000 251.249
41.00000 249.017
41.04000 257.467
41.08000 267.736
41.12000 254.555
41.16000 254.942
41.20000 254.225
41.24000 246.318
41.28000 245.255
41.32000 252.441
41.36000 248.552
41.40000 250.300
41.44000 253.154
41.48000 242.871
41.52000 251.608
41.56000 249.809
41.60000 244.174
41.64000 250.795
41.68000 243.602
41.72000 259.867
41.76000 236.236
41.80000 243.624
41.84000 242.536
41.88000 249.438
41.92000 263.572
41.96000 251.654
42.00000 243.291
42.04000 238.584
42.08000 236.324
42.12000 244.441
42.16000 242.484
42.20000 245.721
42.24000 252.451
42.28000 243.097
42.32000 242.419
42.36000 255.624
42.40000 254.410
42.44000 236.971
42.48000 232.884
42.52000 231.314
42.56000 231.937
42.60000 240.153
42.64000 246.884
42.68000 239.357
42.72000 250.361
42.76000 239.982
42.80000 227.588
42.84000 244.270
42.88000 248.955
42.92000 225.625
42.96000 243.590
43.00000 240.327
43.04000 238.993
43.08000 241.975
43.12000 240.388
43.16000 228.589
43.20000 227.613
43.24000 234.843
43.28000 226.279
43.32000 244.080
43.36000 228.766
43.40000 240.521
43.44000 231.692
43.48000 224.234
43.52000 238.380
43.56000 230.649
43.60000 226.392
43.64000 237.312
43.68000 235.039
43.72000 234.000
43.76000 239.383
43.80000 233.875
43.84000 230.305
43.88000 230.506
43.92000 225.772
43.96000 228.458
44.00000 243.077
44.04000 237.427
44.08000 235.660
44.12000 214.515
44.16000 224.811
44.20000 233.658
44.24000 245.884
44.28000 239.396
44.32000 241.651
44.36000 238.886
44.40000 248.291
44.44000 254.660
44.48000 251.984
44.52000 269.014
44.56000 263.399
44.60000 278.747
44.64000 292.063
44.68000 283.617
44.72000 314.823
44.76000 353.160
44.80000 367.195
44.84000 405.050
44.88000 427.721
44.92000 458.497
44.96000 493.313
45.00000 516.528
45.04000 495.337
45.08000 500.799
45.12000 465.637
45.16000 465.537
45.20000 415.477
45.24000 395.990
45.28000 368.888
45.32000 347.328
45.36000 346.157
45.40000 322.127
45.44000 301.859
45.48000 297.784
45.52000 282.995
45.56000 275.830
45.60000 263.890
45.64000 251.219
45.68000 265.907
45.72000 248.656
45.76000 240.455
45.80000 240.387
45.84000 246.226
45.88000 222.634
45.92000 226.789
45.96000 222.900
46.00000 226.498
46.04000 218.152
46.08000 217.595
46.12000 220.488
46.16000 210.280
46.20000 213.046
46.24000 222.068
46.28000 210.974
46.32000 207.025
46.36000 199.957
46.40000 204.944
46.44000 196.070
46.48000 201.494
46.52000 213.777
46.56000 196.209
46.60000 193.895
46.64000 204.536
46.68000 199.508
46.72000 196.914
46.76000 209.548
46.80000 205.348
46.84000 207.613
46.88000 206.508
46.92000 196.062
46.96000 200.545
47.00000 190.224
47.04000 185.585
47.08000 198.306
47.12000 187.695
47.16000 193.234
47.20000 190.550
47.24000 202.144
47.28000 198.689
47.32000 197.020
47.36000 194.408
47.40000 186.549
47.44000 188.146
47.48000 185.016
47.52000 186.383
47.56000 197.376
47.60000 193.329
47.64000 194.448
47.68000 199.666
47.72000 195.479
47.76000 191.280
47.80000 182.289
47.84000 189.605
47.88000 200.739
47.92000 187.635
47.96000 186.081
48.00000 198.474
48.04000 193.255
48.08000 187.478
48.12000 197.838
48.16000 185.679
48.20000 187.554
48.24000 177.625
48.28000 182.627
48.32000 176.557
48.36000 184.721
48.40000 182.522
48.44000 180.349
48.48000 183.219
48.52000 183.688
48.56000 183.961
48.60000 179.553
48.64000 197.402
48.68000 184.559
48.72000 182.708
48.76000 173.203
48.80000 185.334
48.84000 190.570
48.88000 187.451
48.92000 174.690
48.96000 175.601
49.00000 180.343
49.04000 191.594
49.08000 184.911
49.12000 170.978
49.16000 178.979
49.20000 183.569
49.24000 168.721
49.28000 173.262
49.32000 167.937
49.36000 189.099
49.40000 182.670
49.44000 178.696
49.48000 189.870
49.52000 183.825
49.56000 194.749
49.60000 175.630
49.64000 193.087
49.68000 184.499
49.72000 195.520
49.76000 194.557
49.80000 175.072
49.84000 167.340
49.88000 184.164
49.92000 178.496
49.96000 178.702
50.00000 180.090
50.04000 183.967
50.08000 178.141
50.12000 194.327
50.16000 206.767
50.20000 186.052
50.24000 195.147
50.28000 186.671
50.32000 190.558
50.36000 200.827
50.40000 206.338
50.44000 235.939
50.48000 239.898
50.52000 253.273
50.56000 251.961
50.60000 276.638
50.64000 260.475
50.68000 278.453
50.72000 266.160
50.76000 272.120
50.80000 257.840
50.84000 268.023
50.88000 250.548
50.92000 256.820
50.96000 232.454
51.00000 223.244
51.04000 208.974
51.08000 200.815
51.12000 217.014
51.16000 198.999
51.20000 191.137
51.24000 188.993
51.28000 180.493
51.32000 175.716
51.36000 189.100
51.40000 176.846
51.44000 169.602
51.48000 181.824
51.52000 177.400
51.56000 166.744
51.60000 176.388
51.64000 164.533
51.68000 183.310
51.72000 179.353
51.76000 171.179
51.80000 169.726
51.84000 169.328
51.88000 163.480
51.92000 177.714
51.96000 168.221
52.00000 177.228
52.04000 170.107
52.08000 169.777
52.12000 168.982
52.16000 174.843
52.20000 157.519
52.24000 163.883
52.28000 171.594
52.32000 162.502
52.36000 163.350
52.40000 160.283
52.44000 168.434
52.48000 154.230
52.52000 164.331
52.56000 174.529
52.60000 161.229
52.64000 158.123
52.68000 156.820
52.72000 166.611
52.76000 156.130
52.80000 162.868
52.84000 162.848
52.88000 159.555
52.92000 165.342
52.96000 161.310
53.00000 159.597
53.04000 162.930
53.08000 160.262
53.12000 163.744
53.16000 162.504
53.20000 160.328
53.24000 159.904
53.28000 156.838
53.32000 165.784
53.36000 171.649
53.40000 168.758
53.44000 160.240
53.48000 160.860
53.52000 167.846
53.56000 163.472
53.60000 173.603
53.64000 161.180
53.68000 159.960
53.72000 166.613
53.76000 160.228
53.80000 158.344
53.84000 173.176
53.88000 154.520
53.92000 163.063
53.96000 169.391
54.00000 162.794
54.04000 170.997
54.08000 160.472
54.12000 146.835
54.16000 171.668
54.20000 154.358
54.24000 170.733
54.28000 166.639
54.32000 155.940
54.36000 155.613
54.40000 149.437
54.44000 151.033
54.48000 156.852
54.52000 161.295
54.56000 152.666
54.60000 155.991
54.64000 159.403
54.68000 147.724
54.72000 163.579
54.76000 169.925
54.80000 163.653
54.84000 159.441
54.88000 160.731
54.92000 156.859
54.96000 155.973
55.00000 166.156
55.04000 167.082
55.08000 160.407
55.12000 174.367
55.16000 177.072
55.20000 177.775
55.24000 173.704
55.28000 178.730
55.32000 196.823
55.36000 195.752
55.40000 193.701
55.44000 203.775
55.48000 215.210
55.52000 219.093
55.56000 256.409
55.60000 280.670
55.64000 305.264
55.68000 357.340
55.72000 377.350
55.76000 452.386
55.80000 510.605
55.84000 556.678
55.88000 568.238
55.92000 556.727
55.96000 574.177
56.00000 565.894
56.04000 529.396
56.08000 481.175
56.12000 431.378
56.16000 377.576
56.20000 338.987
56.24000 325.699
56.28000 301.544
56.32000 261.173
56.36000 237.433
56.40000 234.684
56.44000 214.214
56.48000 221.378
56.52000 196.555
56.56000 200.961
56.60000 182.844
56.64000 183.957
56.68000 161.299
56.72000 166.114
56.76000 175.871
56.80000 162.434
56.84000 160.812
56.88000 161.007
56.92000 161.357
56.96000 147.259
57.00000 144.138
57.04000 149.441
57.08000 143.166
57.12000 155.523
57.16000 153.105
57.20000 161.193
57.24000 154.580
57.28000 148.114
57.32000 140.887
57.36000 144.628
57.40000 156.539
57.44000 154.038
57.48000 143.669
57.52000 143.542
57.56000 145.398
57.60000 161.489
57.64000 151.380
57.68000 140.567
57.72000 144.067
57.76000 148.439
57.80000 143.906
57.84000 151.793
57.88000 141.253
57.92000 138.041
57.96000 146.772
58.00000 147.569
58.04000 158.144
58.08000 136.974
58.12000 131.498
58.16000 140.247
58.20000 133.821
58.24000 148.688
58.28000 147.464
58.32000 148.383
58.36000 144.838
58.40000 135.380
58.44000 143.847
58.48000 145.213
58.52000 140.086
58.56000 149.315
58.60000 141.356
58.64000 127.873
58.68000 135.916
58.72000 137.324
58.76000 139.133
58.80000 126.696
58.84000 135.874
58.88000 139.645
58.92000 129.968
58.96000 135.001
59.00000 135.698
59.04000 145.421
59.08000 141.113
59.12000 134.111
59.16000 130.057
59.20000 131.039
59.24000 134.446
59.28000 140.312
59.32000 145.795
59.36000 149.132
59.40000 143.314
59.44000 146.159
59.48000 131.882
59.52000 134.572
59.56000 135.144
59.60000 139.510
59.64000 132.329
59.68000 134.171
59.72000 132.396
59.76000 136.313
59.80000 130.475
59.84000 127.530
59.88000 142.313
59.92000 138.251
59.96000 141.718
60.00000 135.187
60.04000 136.132
60.08000 122.946
60.12000 140.950
60.16000 128.315
60.20000 139.771
60.24000 135.115
60.28000 135.789
60.32000 139.386
60.36000 141.767
60.40000 129.210
60.44000 127.766
60.48000 136.097
60.52000 137.337
60.56000 134.992
60.60000 127.935
60.64000 144.858
60.68000 140.187
60.72000 136.638
60.76000 139.838
60.80000 139.548
60.84000 130.117
60.88000 130.846
60.92000 127.005
60.96000 131.859
61.00000 132.310
61.04000 142.901
61.08000 134.488
61.12000 138.149
61.16000 129.808
61.20000 136.164
61.24000 131.257
61.28000 139.163
61.32000 141.391
61.36000 143.694
61.40000 140.137
61.44000 136.632
61.48000 154.751
61.52000 196.579
61.56000 267.810
61.60000 326.404
61.64000 359.957
61.68000 376.878
61.72000 382.366
61.76000 332.670
61.80000 275.175
61.84000 201.513
61.88000 170.060
61.92000 159.234
61.96000 157.546
62.00000 146.474
62.04000 153.947
62.08000 151.581
62.12000 155.666
62.16000 152.643
62.20000 152.895
62.24000 146.239
62.28000 150.044
62.32000 142.009
62.36000 140.069
62.40000 136.177
62.44000 147.268
62.48000 145.514
62.52000 135.312
62.56000 148.094
62.60000 144.860
62.64000 142.763
62.68000 159.049
62.72000 143.330
62.76000 157.548
62.80000 137.124
62.84000 155.017
62.88000 145.709
62.92000 150.170
62.96000 144.178
63.00000 144.291
63.04000 152.895
63.08000 146.353
63.12000 142.337
63.16000 157.814
63.20000 155.695
63.24000 158.709
63.28000 160.457
63.32000 159.143
63.36000 148.710
63.40000 143.777
63.44000 138.065
63.48000 143.103
63.52000 143.481
63.56000 157.866
63.60000 153.154
63.64000 152.590
63.68000 165.989
63.72000 151.055
63.76000 155.456
63.80000 163.237
63.84000 150.192
63.88000 151.818
63.92000 157.102
63.96000 147.270
64.00000 157.904
64.04000 161.627
64.08000 156.253
64.12000 162.873
64.16000 167.864
64.20000 166.313
64.24000 177.454
64.28000 156.559
64.32000 173.750
64.36000 172.478
64.40000 172.889
64.44000 170.138
64.48000 183.378
64.52000 178.048
64.56000 171.914
64.60000 170.673
64.64000 182.776
64.68000 169.946
64.72000 180.679
64.76000 184.313
64.80000 181.673
64.84000 185.936
64.88000 184.227
64.92000 200.624
64.96000 205.727
65.00000 206.484
65.04000 218.149
65.08000 221.875
65.12000 239.056
65.16000 234.824
65.20000 237.774
65.24000 282.360
65.28000 287.321
65.32000 294.756
65.36000 342.952
65.40000 364.235
65.44000 374.735
65.48000 414.354
65.52000 425.596
65.56000 467.615
65.60000 495.239
65.64000 544.022
65.68000 670.050
65.72000 898.693
65.76000 1223.507
65.80000 1466.010
65.84000 1623.407
65.88000 1652.192
65.92000 1545.948
65.96000 1313.087
66.00000 904.831
66.04000 592.226
66.08000 461.230
66.12000 399.620
66.16000 386.224
66.20000 379.188
66.24000 386.893
66.28000 451.441
66.32000 525.655
66.36000 567.947
66.40000 584.480
66.44000 577.336
66.48000 588.555
66.52000 516.038
66.56000 436.784
66.60000 393.251
66.64000 384.436
66.68000 364.401
66.72000 369.646
66.76000 374.343
66.80000 364.646
66.84000 370.574
66.88000 388.463
66.92000 389.348
66.96000 406.062
67.00000 397.423
67.04000 399.474
67.08000 418.681
67.12000 428.709
67.16000 424.677
67.20000 432.550
67.24000 426.916
67.28000 466.855
67.32000 456.679
67.36000 463.061
67.40000 465.136
67.44000 491.333
67.48000 485.652
67.52000 491.516
67.56000 517.489
67.60000 500.175
67.64000 536.614
67.68000 537.866
67.72000 558.472
67.76000 576.059
67.80000 585.790
67.84000 576.392
67.88000 592.562
67.92000 617.685
67.96000 627.954
68.00000 628.797
68.04000 675.443
68.08000 692.986
68.12000 702.195
68.16000 699.867
68.20000 731.215
68.24000 758.165
68.28000 773.499
68.32000 811.882
68.36000 803.388
68.40000 875.148
68.44000 899.572
68.48000 977.200
68.52000 1045.562
68.56000 1186.658
68.60000 1314.416
68.64000 1597.687
68.68000 1866.159
68.72000 2244.369
68.76000 2648.635
68.80000 3142.726
68.84000 3944.894
68.88000 5567.982
68.92000 10732.864
68.96000 25063.270
69.00000 52320.918
69.04000 79626.398
69.08000 92654.422
69.12000 96274.883
69.16000 99983.844
69.20000 96728.820
69.24000 80233.258
69.28000 61995.789
69.32000 51490.430
69.36000 45846.297
69.40000 36030.488
69.44000 21591.125
69.48000 10102.244
69.52000 4555.115
69.56000 2788.430
69.60000 2068.874
69.64000 1719.779
69.68000 1477.217
69.72000 1314.752
69.76000 1204.978
69.80000 1080.670
69.84000 1009.427
69.88000 962.384
69.92000 882.591
69.96000 849.634
70.00000 836.731