File: XRD/XRD/22-09-2025 Dep 2/XY Data/BTO_Mapping_Theta2Theta_22-09-2025_001_60_8-901_-38-997.xy
20.00000 582.558
20.04000 567.930
20.08000 550.210
20.12000 545.244
20.16000 558.256
20.20000 557.645
20.24000 567.378
20.28000 571.573
20.32000 556.608
20.36000 568.761
20.40000 566.793
20.44000 571.339
20.48000 559.246
20.52000 547.987
20.56000 570.490
20.60000 561.867
20.64000 570.333
20.68000 544.039
20.72000 563.392
20.76000 567.938
20.80000 544.127
20.84000 560.565
20.88000 545.115
20.92000 565.406
20.96000 557.772
21.00000 562.932
21.04000 554.935
21.08000 565.418
21.12000 543.760
21.16000 542.357
21.20000 567.358
21.24000 572.869
21.28000 549.871
21.32000 543.908
21.36000 562.518
21.40000 560.495
21.44000 554.327
21.48000 557.383
21.52000 555.195
21.56000 545.784
21.60000 537.326
21.64000 563.499
21.68000 564.372
21.72000 578.786
21.76000 595.267
21.80000 598.049
21.84000 599.353
21.88000 620.535
21.92000 656.268
21.96000 669.283
22.00000 701.014
22.04000 749.437
22.08000 743.933
22.12000 774.374
22.16000 764.037
22.20000 754.691
22.24000 739.114
22.28000 694.380
22.32000 707.693
22.36000 668.017
22.40000 611.302
22.44000 618.849
22.48000 571.926
22.52000 590.848
22.56000 565.881
22.60000 548.429
22.64000 562.211
22.68000 526.836
22.72000 523.030
22.76000 533.418
22.80000 533.021
22.84000 514.551
22.88000 529.893
22.92000 535.430
22.96000 527.953
23.00000 533.632
23.04000 519.090
23.08000 501.822
23.12000 489.469
23.16000 507.741
23.20000 516.691
23.24000 505.619
23.28000 521.542
23.32000 493.523
23.36000 531.087
23.40000 519.108
23.44000 515.877
23.48000 517.492
23.52000 529.107
23.56000 499.576
23.60000 514.394
23.64000 521.438
23.68000 514.886
23.72000 484.772
23.76000 510.120
23.80000 510.530
23.84000 519.929
23.88000 515.218
23.92000 524.904
23.96000 516.167
24.00000 511.794
24.04000 511.098
24.08000 515.391
24.12000 494.758
24.16000 521.030
24.20000 515.930
24.24000 508.177
24.28000 500.694
24.32000 501.296
24.36000 509.502
24.40000 474.525
24.44000 489.276
24.48000 476.104
24.52000 503.684
24.56000 496.272
24.60000 481.462
24.64000 490.492
24.68000 496.602
24.72000 493.733
24.76000 480.580
24.80000 487.639
24.84000 479.814
24.88000 489.149
24.92000 468.211
24.96000 464.076
25.00000 493.678
25.04000 471.275
25.08000 474.767
25.12000 486.536
25.16000 466.095
25.20000 471.480
25.24000 453.851
25.28000 486.134
25.32000 480.445
25.36000 458.880
25.40000 464.185
25.44000 488.744
25.48000 468.588
25.52000 476.298
25.56000 462.210
25.60000 483.552
25.64000 477.048
25.68000 458.105
25.72000 474.821
25.76000 455.864
25.80000 448.557
25.84000 487.291
25.88000 448.612
25.92000 463.011
25.96000 468.239
26.00000 478.666
26.04000 455.567
26.08000 476.857
26.12000 458.302
26.16000 475.833
26.20000 460.571
26.24000 445.478
26.28000 445.335
26.32000 451.865
26.36000 456.144
26.40000 483.817
26.44000 460.571
26.48000 462.922
26.52000 442.560
26.56000 445.920
26.60000 463.911
26.64000 451.635
26.68000 450.363
26.72000 439.356
26.76000 446.990
26.80000 435.435
26.84000 452.717
26.88000 438.648
26.92000 459.457
26.96000 448.892
27.00000 451.707
27.04000 431.976
27.08000 457.321
27.12000 463.349
27.16000 450.046
27.20000 450.419
27.24000 437.124
27.28000 452.821
27.32000 447.204
27.36000 446.265
27.40000 441.381
27.44000 425.876
27.48000 427.131
27.52000 449.829
27.56000 435.010
27.60000 441.681
27.64000 442.336
27.68000 451.392
27.72000 453.202
27.76000 427.411
27.80000 452.477
27.84000 431.834
27.88000 436.059
27.92000 428.353
27.96000 417.904
28.00000 414.808
28.04000 407.787
28.08000 437.203
28.12000 427.116
28.16000 437.718
28.20000 440.023
28.24000 452.077
28.28000 441.144
28.32000 428.026
28.36000 417.626
28.40000 420.753
28.44000 425.156
28.48000 418.911
28.52000 422.344
28.56000 418.648
28.60000 426.705
28.64000 437.294
28.68000 429.631
28.72000 414.238
28.76000 410.158
28.80000 414.730
28.84000 420.569
28.88000 423.484
28.92000 407.474
28.96000 419.202
29.00000 412.986
29.04000 411.289
29.08000 441.569
29.12000 417.032
29.16000 401.371
29.20000 423.501
29.24000 429.936
29.28000 412.348
29.32000 399.679
29.36000 409.596
29.40000 430.722
29.44000 413.581
29.48000 421.028
29.52000 397.610
29.56000 414.457
29.60000 415.016
29.64000 414.726
29.68000 413.126
29.72000 422.941
29.76000 396.582
29.80000 428.658
29.84000 418.146
29.88000 425.170
29.92000 437.206
29.96000 445.680
30.00000 419.835
30.04000 447.223
30.08000 435.558
30.12000 468.344
30.16000 442.696
30.20000 449.939
30.24000 436.180
30.28000 434.336
30.32000 445.835
30.36000 436.029
30.40000 439.004
30.44000 430.869
30.48000 446.621
30.52000 447.848
30.56000 435.666
30.60000 427.403
30.64000 423.485
30.68000 452.096
30.72000 448.142
30.76000 448.378
30.80000 462.737
30.84000 471.174
30.88000 501.929
30.92000 514.300
30.96000 527.625
31.00000 578.347
31.04000 597.764
31.08000 644.916
31.12000 747.707
31.16000 917.408
31.20000 1158.020
31.24000 1484.314
31.28000 1841.194
31.32000 2355.615
31.36000 2800.048
31.40000 3096.803
31.44000 3207.833
31.48000 3154.033
31.52000 2866.964
31.56000 2473.314
31.60000 2055.823
31.64000 1611.192
31.68000 1251.080
31.72000 1034.038
31.76000 878.155
31.80000 730.287
31.84000 657.273
31.88000 602.938
31.92000 526.717
31.96000 525.763
32.00000 480.766
32.04000 450.465
32.08000 444.434
32.12000 446.212
32.16000 446.991
32.20000 423.429
32.24000 396.708
32.28000 398.450
32.32000 427.801
32.36000 393.716
32.40000 387.436
32.44000 409.524
32.48000 402.607
32.52000 390.174
32.56000 405.753
32.60000 388.290
32.64000 375.950
32.68000 384.735
32.72000 386.045
32.76000 387.401
32.80000 379.201
32.84000 393.413
32.88000 413.660
32.92000 409.979
32.96000 400.635
33.00000 417.398
33.04000 408.255
33.08000 394.513
33.12000 380.636
33.16000 374.938
33.20000 370.929
33.24000 346.347
33.28000 353.481
33.32000 357.005
33.36000 359.052
33.40000 338.254
33.44000 346.823
33.48000 354.843
33.52000 336.046
33.56000 338.899
33.60000 349.582
33.64000 317.755
33.68000 340.474
33.72000 349.862
33.76000 334.042
33.80000 354.042
33.84000 346.284
33.88000 349.251
33.92000 319.968
33.96000 348.158
34.00000 329.450
34.04000 332.757
34.08000 349.388
34.12000 340.893
34.16000 343.950
34.20000 342.648
34.24000 334.732
34.28000 358.068
34.32000 329.922
34.36000 335.394
34.40000 339.526
34.44000 338.111
34.48000 344.316
34.52000 318.067
34.56000 336.797
34.60000 337.742
34.64000 345.582
34.68000 334.462
34.72000 340.569
34.76000 318.308
34.80000 325.006
34.84000 316.627
34.88000 314.428
34.92000 316.337
34.96000 329.436
35.00000 326.810
35.04000 335.872
35.08000 323.952
35.12000 312.569
35.16000 331.401
35.20000 320.851
35.24000 318.657
35.28000 330.142
35.32000 312.933
35.36000 321.249
35.40000 322.695
35.44000 322.126
35.48000 314.413
35.52000 304.933
35.56000 317.579
35.60000 311.640
35.64000 312.029
35.68000 318.445
35.72000 318.586
35.76000 312.899
35.80000 308.585
35.84000 300.850
35.88000 302.760
35.92000 301.677
35.96000 311.225
36.00000 311.869
36.04000 310.719
36.08000 309.289
36.12000 308.194
36.16000 318.619
36.20000 307.978
36.24000 305.318
36.28000 303.439
36.32000 296.996
36.36000 298.275
36.40000 284.066
36.44000 302.887
36.48000 318.592
36.52000 302.674
36.56000 311.184
36.60000 294.694
36.64000 311.925
36.68000 306.095
36.72000 303.682
36.76000 290.169
36.80000 310.510
36.84000 287.997
36.88000 296.625
36.92000 300.176
36.96000 299.055
37.00000 297.800
37.04000 307.773
37.08000 289.328
37.12000 301.843
37.16000 297.308
37.20000 306.325
37.24000 294.721
37.28000 293.861
37.32000 295.554
37.36000 312.092
37.40000 298.098
37.44000 295.067
37.48000 295.994
37.52000 299.145
37.56000 311.587
37.60000 291.988
37.64000 277.957
37.68000 286.503
37.72000 286.004
37.76000 284.788
37.80000 299.744
37.84000 293.902
37.88000 302.962
37.92000 295.767
37.96000 296.395
38.00000 303.073
38.04000 293.749
38.08000 275.605
38.12000 300.925
38.16000 302.911
38.20000 295.720
38.24000 307.722
38.28000 318.852
38.32000 324.808
38.36000 348.391
38.40000 346.173
38.44000 365.000
38.48000 412.022
38.52000 443.642
38.56000 517.986
38.60000 605.067
38.64000 706.769
38.68000 824.294
38.72000 925.443
38.76000 1006.520
38.80000 1019.549
38.84000 948.939
38.88000 840.328
38.92000 760.291
38.96000 617.110
39.00000 515.824
39.04000 440.014
39.08000 372.112
39.12000 340.178
39.16000 323.626
39.20000 315.416
39.24000 325.039
39.28000 299.277
39.32000 277.750
39.36000 292.083
39.40000 279.072
39.44000 283.267
39.48000 283.354
39.52000 278.767
39.56000 272.648
39.60000 274.821
39.64000 284.864
39.68000 274.728
39.72000 283.068
39.76000 279.399
39.80000 271.849
39.84000 263.849
39.88000 266.642
39.92000 279.615
39.96000 270.873
40.00000 266.744
40.04000 259.566
40.08000 255.397
40.12000 252.333
40.16000 268.367
40.20000 263.695
40.24000 257.720
40.28000 268.380
40.32000 255.352
40.36000 262.617
40.40000 262.162
40.44000 252.101
40.48000 254.840
40.52000 252.490
40.56000 262.660
40.60000 240.180
40.64000 262.981
40.68000 264.317
40.72000 251.172
40.76000 241.941
40.80000 257.673
40.84000 251.960
40.88000 245.406
40.92000 242.379
40.96000 242.149
41.00000 246.993
41.04000 247.016
41.08000 249.382
41.12000 243.720
41.16000 247.068
41.20000 242.978
41.24000 240.890
41.28000 248.153
41.32000 241.878
41.36000 239.026
41.40000 243.030
41.44000 252.373
41.48000 257.135
41.52000 249.806
41.56000 243.689
41.60000 238.920
41.64000 250.426
41.68000 237.658
41.72000 235.581
41.76000 247.206
41.80000 239.893
41.84000 253.383
41.88000 242.852
41.92000 247.773
41.96000 232.470
42.00000 220.793
42.04000 243.465
42.08000 230.322
42.12000 230.915
42.16000 235.037
42.20000 238.600
42.24000 237.933
42.28000 240.064
42.32000 229.933
42.36000 254.009
42.40000 230.427
42.44000 246.349
42.48000 238.874
42.52000 226.768
42.56000 237.606
42.60000 233.711
42.64000 227.578
42.68000 231.522
42.72000 228.048
42.76000 232.023
42.80000 223.920
42.84000 235.596
42.88000 248.683
42.92000 233.059
42.96000 222.201
43.00000 231.950
43.04000 231.049
43.08000 228.659
43.12000 232.480
43.16000 223.288
43.20000 230.056
43.24000 235.633
43.28000 232.584
43.32000 210.968
43.36000 211.404
43.40000 225.027
43.44000 228.099
43.48000 227.471
43.52000 226.604
43.56000 240.406
43.60000 209.185
43.64000 222.196
43.68000 219.575
43.72000 223.149
43.76000 217.290
43.80000 227.529
43.84000 237.797
43.88000 229.834
43.92000 217.515
43.96000 232.295
44.00000 224.668
44.04000 224.409
44.08000 223.797
44.12000 218.438
44.16000 232.249
44.20000 230.758
44.24000 229.870
44.28000 228.835
44.32000 226.505
44.36000 233.787
44.40000 220.415
44.44000 225.804
44.48000 230.179
44.52000 233.851
44.56000 244.506
44.60000 239.459
44.64000 232.502
44.68000 252.309
44.72000 255.389
44.76000 238.812
44.80000 257.561
44.84000 254.904
44.88000 288.856
44.92000 292.123
44.96000 310.650
45.00000 334.595
45.04000 347.073
45.08000 384.000
45.12000 386.889
45.16000 381.082
45.20000 382.828
45.24000 386.357
45.28000 362.412
45.32000 362.807
45.36000 364.044
45.40000 331.671
45.44000 328.530
45.48000 313.189
45.52000 294.244
45.56000 303.182
45.60000 276.567
45.64000 275.777
45.68000 264.831
45.72000 258.872
45.76000 260.582
45.80000 247.983
45.84000 248.527
45.88000 240.861
45.92000 240.216
45.96000 222.555
46.00000 211.776
46.04000 223.059
46.08000 220.332
46.12000 218.718
46.16000 208.392
46.20000 218.235
46.24000 216.339
46.28000 203.537
46.32000 201.804
46.36000 216.038
46.40000 213.043
46.44000 208.281
46.48000 200.041
46.52000 202.771
46.56000 208.844
46.60000 204.702
46.64000 199.784
46.68000 207.975
46.72000 196.350
46.76000 197.399
46.80000 202.621
46.84000 198.156
46.88000 196.555
46.92000 212.460
46.96000 189.726
47.00000 191.244
47.04000 188.628
47.08000 191.256
47.12000 197.010
47.16000 204.354
47.20000 195.723
47.24000 179.768
47.28000 193.489
47.32000 202.343
47.36000 190.343
47.40000 182.304
47.44000 186.816
47.48000 193.061
47.52000 197.694
47.56000 186.831
47.60000 184.993
47.64000 201.153
47.68000 200.250
47.72000 190.339
47.76000 186.931
47.80000 194.044
47.84000 188.120
47.88000 185.620
47.92000 183.333
47.96000 196.581
48.00000 184.974
48.04000 176.465
48.08000 178.822
48.12000 187.511
48.16000 192.729
48.20000 185.893
48.24000 192.158
48.28000 197.841
48.32000 182.509
48.36000 181.424
48.40000 187.559
48.44000 180.381
48.48000 192.921
48.52000 184.661
48.56000 188.695
48.60000 188.864
48.64000 184.490
48.68000 182.225
48.72000 185.225
48.76000 181.991
48.80000 180.124
48.84000 179.733
48.88000 184.595
48.92000 179.816
48.96000 176.758
49.00000 175.091
49.04000 172.111
49.08000 185.210
49.12000 178.610
49.16000 175.966
49.20000 180.747
49.24000 167.358
49.28000 167.981
49.32000 180.735
49.36000 177.523
49.40000 178.125
49.44000 162.057
49.48000 174.345
49.52000 181.634
49.56000 181.430
49.60000 177.847
49.64000 181.133
49.68000 176.018
49.72000 170.889
49.76000 183.586
49.80000 187.310
49.84000 178.684
49.88000 168.240
49.92000 171.026
49.96000 175.062
50.00000 177.909
50.04000 179.782
50.08000 191.201
50.12000 182.388
50.16000 173.771
50.20000 178.801
50.24000 186.275
50.28000 177.065
50.32000 185.521
50.36000 180.449
50.40000 192.524
50.44000 188.988
50.48000 207.528
50.52000 196.275
50.56000 223.300
50.60000 231.958
50.64000 237.352
50.68000 249.596
50.72000 272.337
50.76000 275.285
50.80000 268.619
50.84000 268.565
50.88000 252.036
50.92000 241.068
50.96000 243.804
51.00000 234.469
51.04000 216.408
51.08000 209.913
51.12000 202.447
51.16000 199.895
51.20000 194.812
51.24000 183.789
51.28000 172.600
51.32000 177.324
51.36000 179.008
51.40000 167.904
51.44000 176.800
51.48000 179.227
51.52000 168.136
51.56000 166.692
51.60000 170.703
51.64000 170.727
51.68000 161.939
51.72000 162.190
51.76000 171.811
51.80000 168.510
51.84000 182.987
51.88000 166.258
51.92000 166.492
51.96000 157.805
52.00000 170.514
52.04000 173.184
52.08000 163.706
52.12000 164.839
52.16000 155.642
52.20000 165.932
52.24000 157.529
52.28000 165.682
52.32000 170.809
52.36000 148.062
52.40000 168.746
52.44000 160.953
52.48000 164.521
52.52000 164.707
52.56000 168.380
52.60000 158.278
52.64000 158.017
52.68000 163.922
52.72000 162.875
52.76000 160.403
52.80000 152.520
52.84000 158.057
52.88000 155.429
52.92000 155.592
52.96000 157.038
53.00000 158.975
53.04000 158.228
53.08000 154.583
53.12000 162.951
53.16000 158.854
53.20000 149.340
53.24000 163.294
53.28000 159.413
53.32000 162.573
53.36000 157.629
53.40000 168.105
53.44000 155.481
53.48000 159.695
53.52000 167.190
53.56000 159.927
53.60000 162.813
53.64000 146.292
53.68000 156.235
53.72000 147.874
53.76000 160.712
53.80000 167.219
53.84000 162.662
53.88000 164.142
53.92000 158.605
53.96000 165.762
54.00000 162.611
54.04000 151.871
54.08000 158.694
54.12000 161.052
54.16000 145.758
54.20000 157.262
54.24000 152.668
54.28000 155.995
54.32000 152.018
54.36000 143.692
54.40000 153.164
54.44000 167.742
54.48000 150.666
54.52000 157.149
54.56000 151.932
54.60000 158.610
54.64000 157.860
54.68000 154.272
54.72000 153.716
54.76000 164.010
54.80000 162.182
54.84000 160.216
54.88000 159.971
54.92000 162.355
54.96000 150.324
55.00000 158.284
55.04000 162.017
55.08000 159.087
55.12000 160.522
55.16000 170.430
55.20000 153.648
55.24000 162.981
55.28000 172.065
55.32000 167.111
55.36000 170.845
55.40000 164.031
55.44000 179.552
55.48000 163.196
55.52000 185.229
55.56000 190.680
55.60000 196.410
55.64000 225.407
55.68000 223.665
55.72000 253.953
55.76000 282.633
55.80000 341.357
55.84000 345.598
55.88000 393.798
55.92000 447.912
55.96000 503.460
56.00000 511.712
56.04000 541.230
56.08000 520.527
56.12000 497.249
56.16000 458.795
56.20000 410.788
56.24000 371.997
56.28000 333.917
56.32000 288.849
56.36000 274.479
56.40000 257.783
56.44000 228.759
56.48000 221.794
56.52000 214.280
56.56000 202.726
56.60000 185.230
56.64000 193.310
56.68000 176.871
56.72000 171.598
56.76000 144.557
56.80000 171.131
56.84000 162.880
56.88000 158.353
56.92000 154.324
56.96000 172.063
57.00000 162.246
57.04000 163.893
57.08000 145.783
57.12000 142.402
57.16000 147.364
57.20000 140.232
57.24000 144.580
57.28000 146.331
57.32000 139.384
57.36000 151.152
57.40000 144.940
57.44000 151.043
57.48000 137.334
57.52000 142.414
57.56000 144.781
57.60000 132.178
57.64000 140.272
57.68000 137.954
57.72000 148.500
57.76000 146.751
57.80000 156.317
57.84000 145.181
57.88000 141.038
57.92000 140.742
57.96000 148.095
58.00000 139.879
58.04000 140.556
58.08000 146.052
58.12000 148.714
58.16000 136.812
58.20000 134.945
58.24000 127.800
58.28000 138.181
58.32000 125.554
58.36000 140.673
58.40000 144.865
58.44000 135.297
58.48000 142.612
58.52000 145.238
58.56000 132.742
58.60000 123.942
58.64000 135.595
58.68000 129.602
58.72000 139.078
58.76000 135.110
58.80000 132.827
58.84000 134.338
58.88000 145.411
58.92000 143.352
58.96000 128.140
59.00000 138.076
59.04000 135.082
59.08000 135.012
59.12000 134.925
59.16000 146.763
59.20000 142.032
59.24000 145.197
59.28000 135.079
59.32000 129.161
59.36000 136.244
59.40000 139.103
59.44000 131.162
59.48000 124.479
59.52000 142.834
59.56000 131.167
59.60000 134.306
59.64000 132.987
59.68000 127.616
59.72000 134.467
59.76000 131.498
59.80000 145.004
59.84000 132.945
59.88000 132.379
59.92000 129.716
59.96000 137.450
60.00000 135.163
60.04000 135.838
60.08000 135.344
60.12000 140.371
60.16000 129.001
60.20000 124.728
60.24000 139.841
60.28000 136.783
60.32000 128.957
60.36000 129.131
60.40000 139.036
60.44000 124.323
60.48000 136.547
60.52000 130.160
60.56000 135.610
60.60000 129.784
60.64000 130.345
60.68000 132.547
60.72000 136.525
60.76000 133.602
60.80000 133.002
60.84000 131.751
60.88000 135.600
60.92000 128.858
60.96000 142.063
61.00000 139.419
61.04000 129.245
61.08000 130.246
61.12000 130.839
61.16000 131.956
61.20000 139.932
61.24000 136.658
61.28000 139.785
61.32000 133.202
61.36000 141.276
61.40000 137.405
61.44000 146.413
61.48000 154.931
61.52000 160.019
61.56000 177.784
61.60000 223.260
61.64000 266.816
61.68000 307.941
61.72000 307.242
61.76000 310.111
61.80000 259.417
61.84000 206.061
61.88000 173.765
61.92000 157.419
61.96000 159.083
62.00000 147.434
62.04000 150.506
62.08000 150.011
62.12000 147.372
62.16000 148.148
62.20000 145.264
62.24000 149.571
62.28000 150.145
62.32000 138.719
62.36000 138.348
62.40000 139.830
62.44000 142.657
62.48000 154.403
62.52000 141.977
62.56000 142.778
62.60000 139.142
62.64000 142.967
62.68000 139.068
62.72000 148.133
62.76000 146.437
62.80000 141.923
62.84000 135.596
62.88000 142.743
62.92000 151.434
62.96000 140.289
63.00000 150.474
63.04000 147.666
63.08000 140.244
63.12000 148.985
63.16000 150.240
63.20000 146.229
63.24000 153.844
63.28000 146.822
63.32000 152.210
63.36000 149.226
63.40000 144.036
63.44000 153.220
63.48000 150.295
63.52000 149.899
63.56000 150.119
63.60000 152.370
63.64000 145.151
63.68000 153.723
63.72000 156.492
63.76000 163.034
63.80000 151.304
63.84000 149.695
63.88000 149.687
63.92000 164.093
63.96000 162.574
64.00000 169.017
64.04000 158.865
64.08000 165.973
64.12000 157.341
64.16000 156.221
64.20000 163.000
64.24000 165.229
64.28000 159.737
64.32000 165.817
64.36000 171.778
64.40000 164.677
64.44000 165.394
64.48000 175.534
64.52000 162.131
64.56000 171.940
64.60000 169.770
64.64000 175.179
64.68000 171.036
64.72000 166.797
64.76000 182.112
64.80000 190.275
64.84000 179.673
64.88000 181.567
64.92000 182.821
64.96000 196.135
65.00000 191.509
65.04000 187.983
65.08000 193.864
65.12000 200.026
65.16000 209.447
65.20000 208.782
65.24000 227.366
65.28000 230.215
65.32000 245.588
65.36000 251.484
65.40000 275.842
65.44000 286.418
65.48000 329.239
65.52000 377.057
65.56000 393.225
65.60000 406.079
65.64000 440.405
65.68000 494.985
65.72000 595.836
65.76000 816.131
65.80000 1036.651
65.84000 1134.535
65.88000 1191.136
65.92000 1195.711
65.96000 1127.011
66.00000 852.368
66.04000 608.249
66.08000 437.576
66.12000 364.890
66.16000 335.958
66.20000 316.742
66.24000 340.473
66.28000 345.535
66.32000 390.844
66.36000 441.961
66.40000 456.991
66.44000 472.963
66.48000 482.536
66.52000 440.490
66.56000 388.932
66.60000 370.887
66.64000 343.294
66.68000 314.514
66.72000 330.333
66.76000 328.659
66.80000 317.925
66.84000 344.006
66.88000 335.862
66.92000 342.243
66.96000 352.325
67.00000 354.066
67.04000 354.373
67.08000 358.574
67.12000 357.410
67.16000 373.353
67.20000 372.525
67.24000 391.525
67.28000 390.254
67.32000 405.198
67.36000 410.118
67.40000 395.046
67.44000 404.388
67.48000 429.468
67.52000 446.816
67.56000 454.591
67.60000 441.059
67.64000 459.246
67.68000 459.247
67.72000 466.640
67.76000 476.352
67.80000 479.507
67.84000 517.692
67.88000 518.200
67.92000 526.508
67.96000 531.042
68.00000 551.454
68.04000 564.295
68.08000 582.672
68.12000 574.874
68.16000 592.949
68.20000 610.707
68.24000 596.986
68.28000 632.135
68.32000 674.284
68.36000 687.624
68.40000 719.114
68.44000 744.427
68.48000 769.664
68.52000 818.727
68.56000 873.467
68.60000 987.200
68.64000 1119.520
68.68000 1317.694
68.72000 1576.984
68.76000 1784.176
68.80000 2065.544
68.84000 2415.461
68.88000 2991.679
68.92000 4521.836
68.96000 9322.092
69.00000 23053.697
69.04000 43985.266
69.08000 60138.566
69.12000 65164.395
69.16000 67541.719
69.20000 69724.008
69.24000 64061.402
69.28000 50208.555
69.32000 39508.680
69.36000 34301.816
69.40000 30290.561
69.44000 21867.986
69.48000 11351.021
69.52000 5171.523
69.56000 2707.878
69.60000 1821.156
69.64000 1491.148
69.68000 1275.878
69.72000 1141.060
69.76000 1029.769
69.80000 942.146
69.84000 860.989
69.88000 830.662
69.92000 755.349
69.96000 740.870
70.00000 714.794