File: XRD/XRD/22-09-2025 Dep 2/XY Data/BTO_Mapping_Theta2Theta_22-09-2025_001_35_-36-039_17-355.xy
20.00000 572.748
20.04000 568.784
20.08000 575.442
20.12000 577.664
20.16000 575.326
20.20000 576.559
20.24000 567.589
20.28000 564.563
20.32000 546.812
20.36000 581.891
20.40000 552.264
20.44000 583.787
20.48000 561.987
20.52000 582.521
20.56000 551.648
20.60000 559.422
20.64000 566.322
20.68000 577.352
20.72000 564.170
20.76000 554.671
20.80000 536.570
20.84000 577.058
20.88000 556.673
20.92000 553.962
20.96000 564.348
21.00000 565.855
21.04000 562.152
21.08000 574.714
21.12000 549.726
21.16000 559.839
21.20000 548.845
21.24000 557.208
21.28000 571.566
21.32000 567.051
21.36000 570.558
21.40000 561.089
21.44000 574.872
21.48000 585.959
21.52000 583.732
21.56000 589.189
21.60000 600.107
21.64000 603.307
21.68000 605.449
21.72000 656.380
21.76000 690.702
21.80000 751.546
21.84000 797.001
21.88000 803.253
21.92000 837.449
21.96000 873.584
22.00000 868.931
22.04000 844.799
22.08000 815.778
22.12000 776.007
22.16000 751.288
22.20000 676.953
22.24000 672.986
22.28000 640.085
22.32000 607.877
22.36000 595.804
22.40000 585.187
22.44000 579.720
22.48000 563.847
22.52000 565.736
22.56000 553.622
22.60000 558.426
22.64000 558.899
22.68000 531.063
22.72000 522.977
22.76000 534.788
22.80000 527.293
22.84000 518.438
22.88000 524.239
22.92000 519.197
22.96000 513.586
23.00000 526.378
23.04000 514.823
23.08000 510.635
23.12000 518.973
23.16000 530.945
23.20000 521.349
23.24000 510.390
23.28000 503.381
23.32000 523.688
23.36000 502.182
23.40000 493.153
23.44000 516.346
23.48000 518.595
23.52000 525.033
23.56000 522.113
23.60000 513.355
23.64000 504.082
23.68000 499.423
23.72000 512.191
23.76000 520.114
23.80000 496.968
23.84000 505.311
23.88000 502.965
23.92000 502.551
23.96000 497.780
24.00000 505.980
24.04000 500.141
24.08000 514.747
24.12000 493.971
24.16000 497.683
24.20000 496.966
24.24000 502.521
24.28000 507.577
24.32000 499.855
24.36000 504.699
24.40000 484.785
24.44000 485.499
24.48000 493.990
24.52000 493.562
24.56000 505.966
24.60000 483.562
24.64000 476.018
24.68000 495.813
24.72000 494.253
24.76000 478.584
24.80000 498.624
24.84000 482.730
24.88000 508.795
24.92000 481.435
24.96000 484.738
25.00000 479.397
25.04000 488.250
25.08000 499.518
25.12000 479.984
25.16000 479.754
25.20000 480.197
25.24000 487.828
25.28000 489.135
25.32000 497.094
25.36000 477.526
25.40000 475.785
25.44000 477.451
25.48000 490.075
25.52000 473.681
25.56000 494.947
25.60000 468.135
25.64000 473.081
25.68000 475.991
25.72000 500.236
25.76000 464.860
25.80000 466.365
25.84000 475.855
25.88000 478.308
25.92000 486.212
25.96000 462.233
26.00000 471.186
26.04000 471.593
26.08000 476.727
26.12000 466.636
26.16000 453.091
26.20000 471.262
26.24000 470.900
26.28000 472.360
26.32000 448.581
26.36000 478.375
26.40000 474.176
26.44000 469.443
26.48000 497.611
26.52000 474.129
26.56000 461.018
26.60000 465.975
26.64000 450.004
26.68000 448.634
26.72000 465.142
26.76000 443.737
26.80000 472.824
26.84000 456.044
26.88000 446.952
26.92000 459.255
26.96000 447.828
27.00000 467.092
27.04000 442.951
27.08000 474.173
27.12000 486.624
27.16000 459.664
27.20000 454.137
27.24000 455.659
27.28000 471.596
27.32000 451.249
27.36000 465.495
27.40000 447.787
27.44000 428.508
27.48000 455.610
27.52000 445.295
27.56000 455.505
27.60000 436.645
27.64000 454.235
27.68000 450.311
27.72000 450.119
27.76000 432.887
27.80000 445.424
27.84000 444.009
27.88000 436.400
27.92000 442.996
27.96000 450.665
28.00000 449.206
28.04000 437.953
28.08000 440.735
28.12000 458.636
28.16000 441.546
28.20000 456.057
28.24000 450.403
28.28000 451.599
28.32000 432.122
28.36000 434.166
28.40000 430.330
28.44000 435.778
28.48000 433.146
28.52000 430.281
28.56000 422.307
28.60000 437.181
28.64000 435.443
28.68000 435.158
28.72000 417.560
28.76000 431.846
28.80000 424.412
28.84000 431.712
28.88000 425.812
28.92000 423.491
28.96000 419.396
29.00000 433.252
29.04000 420.140
29.08000 410.346
29.12000 430.965
29.16000 425.373
29.20000 439.369
29.24000 421.997
29.28000 448.878
29.32000 440.578
29.36000 441.948
29.40000 446.319
29.44000 427.007
29.48000 414.829
29.52000 410.698
29.56000 428.299
29.60000 440.726
29.64000 429.391
29.68000 439.221
29.72000 456.096
29.76000 457.478
29.80000 451.795
29.84000 485.317
29.88000 477.388
29.92000 486.303
29.96000 501.621
30.00000 507.448
30.04000 498.122
30.08000 471.822
30.12000 474.878
30.16000 468.354
30.20000 450.397
30.24000 448.231
30.28000 445.857
30.32000 470.914
30.36000 442.753
30.40000 461.960
30.44000 472.033
30.48000 450.893
30.52000 484.003
30.56000 449.062
30.60000 470.591
30.64000 462.499
30.68000 465.806
30.72000 483.861
30.76000 506.182
30.80000 515.340
30.84000 522.899
30.88000 583.182
30.92000 616.501
30.96000 717.732
31.00000 898.169
31.04000 1275.131
31.08000 1811.992
31.12000 2747.417
31.16000 3835.389
31.20000 4945.916
31.24000 5843.385
31.28000 6294.767
31.32000 6298.053
31.36000 5742.483
31.40000 4790.213
31.44000 3742.216
31.48000 2782.697
31.52000 2011.052
31.56000 1455.204
31.60000 1158.810
31.64000 923.923
31.68000 772.992
31.72000 660.957
31.76000 621.023
31.80000 549.895
31.84000 515.321
31.88000 493.566
31.92000 474.058
31.96000 459.428
32.00000 429.910
32.04000 436.417
32.08000 436.660
32.12000 429.879
32.16000 414.558
32.20000 420.883
32.24000 421.270
32.28000 422.615
32.32000 412.448
32.36000 401.520
32.40000 424.386
32.44000 413.867
32.48000 413.117
32.52000 405.147
32.56000 391.411
32.60000 402.615
32.64000 399.934
32.68000 396.832
32.72000 421.792
32.76000 395.366
32.80000 394.623
32.84000 410.109
32.88000 423.476
32.92000 435.856
32.96000 436.512
33.00000 419.096
33.04000 396.350
33.08000 387.869
33.12000 374.176
33.16000 387.468
33.20000 371.012
33.24000 368.715
33.28000 387.443
33.32000 376.512
33.36000 363.783
33.40000 355.410
33.44000 362.170
33.48000 367.525
33.52000 347.707
33.56000 342.461
33.60000 368.976
33.64000 361.483
33.68000 368.339
33.72000 352.659
33.76000 355.000
33.80000 349.737
33.84000 349.164
33.88000 351.171
33.92000 358.022
33.96000 338.874
34.00000 346.782
34.04000 341.443
34.08000 352.678
34.12000 347.450
34.16000 347.548
34.20000 327.944
34.24000 349.974
34.28000 348.885
34.32000 337.869
34.36000 331.384
34.40000 347.685
34.44000 338.324
34.48000 342.787
34.52000 340.460
34.56000 349.225
34.60000 331.615
34.64000 335.853
34.68000 335.752
34.72000 333.040
34.76000 334.723
34.80000 340.422
34.84000 322.913
34.88000 337.801
34.92000 332.886
34.96000 335.814
35.00000 329.305
35.04000 316.688
35.08000 329.766
35.12000 331.546
35.16000 335.343
35.20000 330.517
35.24000 350.062
35.28000 336.298
35.32000 332.791
35.36000 304.394
35.40000 324.983
35.44000 317.436
35.48000 321.685
35.52000 331.968
35.56000 316.960
35.60000 295.509
35.64000 314.586
35.68000 333.621
35.72000 311.427
35.76000 307.150
35.80000 328.233
35.84000 306.227
35.88000 329.000
35.92000 316.637
35.96000 326.206
36.00000 305.806
36.04000 305.132
36.08000 328.339
36.12000 321.110
36.16000 311.890
36.20000 314.267
36.24000 327.452
36.28000 317.758
36.32000 300.121
36.36000 317.785
36.40000 310.132
36.44000 312.009
36.48000 333.231
36.52000 314.273
36.56000 326.545
36.60000 315.577
36.64000 324.896
36.68000 316.837
36.72000 334.347
36.76000 324.441
36.80000 301.134
36.84000 328.336
36.88000 331.853
36.92000 323.247
36.96000 310.848
37.00000 316.987
37.04000 327.992
37.08000 314.178
37.12000 300.848
37.16000 316.574
37.20000 320.442
37.24000 309.377
37.28000 305.165
37.32000 316.567
37.36000 313.068
37.40000 316.781
37.44000 305.706
37.48000 305.793
37.52000 310.881
37.56000 313.519
37.60000 311.750
37.64000 303.850
37.68000 312.978
37.72000 316.984
37.76000 314.546
37.80000 310.344
37.84000 311.771
37.88000 317.063
37.92000 327.534
37.96000 317.651
38.00000 319.236
38.04000 333.626
38.08000 327.320
38.12000 327.417
38.16000 341.381
38.20000 359.788
38.24000 363.095
38.28000 379.197
38.32000 400.799
38.36000 433.357
38.40000 458.682
38.44000 499.247
38.48000 524.600
38.52000 551.202
38.56000 583.605
38.60000 578.104
38.64000 541.753
38.68000 529.869
38.72000 487.627
38.76000 454.303
38.80000 429.719
38.84000 403.200
38.88000 380.332
38.92000 365.790
38.96000 346.809
39.00000 330.856
39.04000 317.400
39.08000 322.929
39.12000 310.679
39.16000 297.960
39.20000 305.635
39.24000 305.741
39.28000 305.511
39.32000 307.360
39.36000 284.086
39.40000 291.211
39.44000 298.261
39.48000 298.815
39.52000 279.990
39.56000 286.818
39.60000 276.943
39.64000 276.401
39.68000 284.444
39.72000 271.010
39.76000 278.511
39.80000 277.787
39.84000 268.441
39.88000 270.503
39.92000 272.008
39.96000 279.125
40.00000 272.330
40.04000 273.875
40.08000 280.649
40.12000 259.081
40.16000 262.021
40.20000 257.050
40.24000 267.016
40.28000 271.728
40.32000 262.502
40.36000 272.938
40.40000 270.182
40.44000 273.133
40.48000 264.529
40.52000 252.898
40.56000 267.143
40.60000 269.885
40.64000 250.415
40.68000 259.648
40.72000 262.375
40.76000 263.302
40.80000 265.753
40.84000 263.689
40.88000 262.913
40.92000 259.249
40.96000 264.757
41.00000 249.445
41.04000 260.002
41.08000 263.874
41.12000 237.520
41.16000 260.410
41.20000 260.750
41.24000 258.596
41.28000 258.551
41.32000 250.043
41.36000 262.751
41.40000 247.859
41.44000 252.326
41.48000 249.928
41.52000 253.832
41.56000 256.739
41.60000 246.537
41.64000 238.796
41.68000 261.463
41.72000 253.372
41.76000 250.221
41.80000 242.244
41.84000 259.925
41.88000 255.356
41.92000 236.378
41.96000 255.569
42.00000 250.351
42.04000 234.859
42.08000 242.287
42.12000 254.435
42.16000 241.368
42.20000 237.218
42.24000 240.455
42.28000 221.285
42.32000 235.951
42.36000 230.893
42.40000 243.155
42.44000 228.856
42.48000 235.180
42.52000 237.847
42.56000 237.289
42.60000 243.682
42.64000 242.837
42.68000 237.777
42.72000 229.643
42.76000 240.084
42.80000 237.576
42.84000 246.981
42.88000 249.496
42.92000 235.615
42.96000 244.497
43.00000 239.850
43.04000 254.547
43.08000 247.212
43.12000 242.906
43.16000 239.499
43.20000 241.661
43.24000 229.862
43.28000 235.604
43.32000 230.069
43.36000 234.931
43.40000 229.883
43.44000 235.982
43.48000 239.355
43.52000 237.925
43.56000 245.145
43.60000 245.217
43.64000 230.061
43.68000 247.470
43.72000 231.957
43.76000 226.337
43.80000 240.963
43.84000 249.594
43.88000 237.325
43.92000 239.578
43.96000 245.424
44.00000 241.573
44.04000 223.721
44.08000 235.725
44.12000 237.629
44.16000 235.520
44.20000 252.568
44.24000 252.023
44.28000 261.926
44.32000 241.613
44.36000 262.533
44.40000 260.500
44.44000 279.211
44.48000 298.634
44.52000 301.239
44.56000 312.992
44.60000 357.189
44.64000 376.816
44.68000 418.904
44.72000 453.689
44.76000 473.527
44.80000 492.301
44.84000 506.924
44.88000 505.124
44.92000 505.581
44.96000 505.487
45.00000 483.629
45.04000 452.075
45.08000 439.985
45.12000 401.977
45.16000 389.670
45.20000 371.489
45.24000 367.927
45.28000 339.066
45.32000 311.533
45.36000 305.894
45.40000 291.884
45.44000 285.654
45.48000 284.512
45.52000 266.409
45.56000 267.968
45.60000 262.446
45.64000 264.664
45.68000 265.399
45.72000 254.196
45.76000 233.550
45.80000 241.834
45.84000 238.436
45.88000 221.936
45.92000 234.367
45.96000 220.968
46.00000 207.539
46.04000 221.535
46.08000 216.243
46.12000 221.944
46.16000 207.146
46.20000 223.382
46.24000 217.953
46.28000 208.869
46.32000 228.719
46.36000 209.113
46.40000 203.985
46.44000 223.477
46.48000 212.655
46.52000 206.793
46.56000 216.163
46.60000 202.834
46.64000 210.233
46.68000 207.177
46.72000 210.568
46.76000 192.324
46.80000 200.326
46.84000 196.862
46.88000 197.142
46.92000 206.916
46.96000 195.463
47.00000 202.171
47.04000 213.699
47.08000 204.876
47.12000 202.570
47.16000 195.159
47.20000 196.976
47.24000 194.054
47.28000 186.727
47.32000 188.644
47.36000 211.801
47.40000 204.587
47.44000 202.530
47.48000 183.709
47.52000 183.766
47.56000 203.660
47.60000 195.459
47.64000 191.440
47.68000 192.797
47.72000 195.330
47.76000 197.195
47.80000 198.335
47.84000 195.045
47.88000 189.481
47.92000 196.787
47.96000 194.021
48.00000 194.880
48.04000 185.262
48.08000 186.503
48.12000 199.470
48.16000 195.144
48.20000 192.975
48.24000 183.002
48.28000 186.915
48.32000 191.158
48.36000 189.127
48.40000 193.838
48.44000 176.655
48.48000 197.580
48.52000 195.881
48.56000 194.949
48.60000 186.618
48.64000 184.680
48.68000 199.000
48.72000 203.206
48.76000 192.594
48.80000 187.244
48.84000 202.981
48.88000 182.499
48.92000 180.141
48.96000 192.722
49.00000 193.553
49.04000 168.229
49.08000 183.900
49.12000 190.272
49.16000 182.448
49.20000 187.951
49.24000 178.994
49.28000 189.667
49.32000 193.231
49.36000 185.233
49.40000 184.874
49.44000 198.348
49.48000 189.708
49.52000 192.041
49.56000 199.758
49.60000 183.523
49.64000 176.737
49.68000 181.345
49.72000 185.843
49.76000 198.915
49.80000 183.164
49.84000 190.031
49.88000 180.920
49.92000 189.873
49.96000 179.619
50.00000 187.721
50.04000 193.337
50.08000 195.887
50.12000 187.425
50.16000 192.105
50.20000 221.568
50.24000 222.910
50.28000 237.085
50.32000 236.745
50.36000 247.726
50.40000 258.342
50.44000 286.503
50.48000 280.303
50.52000 301.269
50.56000 300.920
50.60000 283.031
50.64000 279.789
50.68000 260.613
50.72000 254.812
50.76000 236.858
50.80000 230.060
50.84000 219.898
50.88000 214.936
50.92000 192.979
50.96000 205.106
51.00000 206.069
51.04000 194.942
51.08000 199.343
51.12000 192.743
51.16000 178.938
51.20000 185.616
51.24000 182.683
51.28000 185.849
51.32000 176.014
51.36000 181.150
51.40000 179.402
51.44000 191.487
51.48000 180.134
51.52000 167.808
51.56000 169.730
51.60000 173.887
51.64000 164.708
51.68000 166.404
51.72000 167.198
51.76000 177.274
51.80000 166.831
51.84000 171.557
51.88000 179.958
51.92000 175.397
51.96000 161.917
52.00000 168.447
52.04000 179.936
52.08000 170.697
52.12000 158.039
52.16000 164.474
52.20000 175.383
52.24000 172.298
52.28000 165.740
52.32000 164.018
52.36000 161.635
52.40000 164.471
52.44000 172.800
52.48000 174.815
52.52000 170.917
52.56000 159.550
52.60000 172.814
52.64000 163.544
52.68000 163.657
52.72000 171.523
52.76000 158.852
52.80000 168.851
52.84000 180.292
52.88000 163.228
52.92000 176.795
52.96000 162.059
53.00000 171.515
53.04000 167.613
53.08000 176.098
53.12000 167.908
53.16000 160.948
53.20000 176.147
53.24000 161.010
53.28000 169.079
53.32000 163.946
53.36000 168.956
53.40000 164.412
53.44000 165.171
53.48000 170.070
53.52000 162.575
53.56000 161.531
53.60000 162.540
53.64000 165.190
53.68000 156.048
53.72000 149.534
53.76000 154.960
53.80000 162.013
53.84000 154.532
53.88000 147.821
53.92000 150.403
53.96000 149.535
54.00000 155.039
54.04000 159.477
54.08000 156.737
54.12000 153.043
54.16000 165.078
54.20000 155.040
54.24000 159.837
54.28000 161.260
54.32000 159.904
54.36000 157.539
54.40000 157.403
54.44000 160.364
54.48000 166.033
54.52000 155.437
54.56000 166.570
54.60000 170.112
54.64000 164.583
54.68000 162.660
54.72000 165.716
54.76000 162.520
54.80000 155.638
54.84000 165.895
54.88000 171.686
54.92000 164.690
54.96000 158.350
55.00000 180.619
55.04000 185.119
55.08000 175.199
55.12000 181.246
55.16000 183.698
55.20000 191.151
55.24000 206.249
55.28000 205.365
55.32000 229.679
55.36000 236.020
55.40000 275.980
55.44000 304.262
55.48000 346.346
55.52000 403.854
55.56000 474.491
55.60000 515.280
55.64000 558.620
55.68000 577.345
55.72000 580.966
55.76000 571.002
55.80000 539.567
55.84000 507.186
55.88000 457.125
55.92000 428.518
55.96000 367.949
56.00000 343.889
56.04000 312.100
56.08000 288.609
56.12000 252.944
56.16000 232.279
56.20000 230.752
56.24000 225.556
56.28000 196.908
56.32000 198.730
56.36000 186.196
56.40000 184.736
56.44000 172.071
56.48000 171.752
56.52000 169.807
56.56000 172.953
56.60000 170.718
56.64000 150.997
56.68000 164.919
56.72000 151.267
56.76000 143.086
56.80000 158.676
56.84000 145.696
56.88000 156.923
56.92000 148.691
56.96000 163.740
57.00000 153.660
57.04000 139.294
57.08000 154.486
57.12000 154.591
57.16000 152.839
57.20000 141.288
57.24000 144.683
57.28000 147.739
57.32000 142.266
57.36000 149.618
57.40000 154.078
57.44000 145.236
57.48000 137.928
57.52000 140.185
57.56000 148.674
57.60000 154.519
57.64000 145.078
57.68000 137.720
57.72000 155.044
57.76000 139.738
57.80000 149.561
57.84000 133.559
57.88000 142.007
57.92000 137.356
57.96000 142.456
58.00000 135.621
58.04000 149.254
58.08000 149.877
58.12000 139.838
58.16000 141.697
58.20000 148.297
58.24000 142.689
58.28000 146.378
58.32000 142.656
58.36000 142.809
58.40000 138.049
58.44000 145.381
58.48000 136.445
58.52000 137.888
58.56000 143.939
58.60000 149.464
58.64000 142.128
58.68000 142.506
58.72000 144.342
58.76000 140.406
58.80000 146.401
58.84000 136.527
58.88000 152.466
58.92000 140.617
58.96000 138.469
59.00000 137.137
59.04000 134.686
59.08000 144.757
59.12000 133.097
59.16000 143.926
59.20000 133.516
59.24000 130.612
59.28000 130.640
59.32000 135.031
59.36000 131.131
59.40000 140.957
59.44000 137.507
59.48000 135.304
59.52000 139.783
59.56000 137.110
59.60000 131.187
59.64000 123.522
59.68000 129.206
59.72000 139.179
59.76000 140.126
59.80000 133.973
59.84000 140.274
59.88000 135.834
59.92000 134.744
59.96000 132.110
60.00000 127.919
60.04000 135.840
60.08000 135.247
60.12000 130.429
60.16000 142.303
60.20000 130.403
60.24000 136.467
60.28000 130.715
60.32000 137.827
60.36000 140.772
60.40000 136.039
60.44000 131.667
60.48000 126.110
60.52000 136.080
60.56000 139.237
60.60000 136.388
60.64000 132.227
60.68000 135.323
60.72000 138.555
60.76000 136.269
60.80000 141.257
60.84000 145.371
60.88000 141.426
60.92000 143.904
60.96000 133.856
61.00000 146.635
61.04000 132.719
61.08000 136.707
61.12000 144.285
61.16000 146.687
61.20000 140.972
61.24000 133.058
61.28000 135.489
61.32000 132.494
61.36000 140.915
61.40000 148.375
61.44000 141.819
61.48000 159.971
61.52000 186.431
61.56000 247.448
61.60000 298.751
61.64000 356.558
61.68000 369.166
61.72000 388.938
61.76000 359.519
61.80000 292.675
61.84000 216.990
61.88000 174.567
61.92000 163.378
61.96000 154.307
62.00000 145.899
62.04000 150.148
62.08000 151.958
62.12000 151.384
62.16000 152.967
62.20000 145.868
62.24000 152.600
62.28000 143.694
62.32000 151.881
62.36000 150.633
62.40000 157.612
62.44000 148.340
62.48000 140.729
62.52000 153.038
62.56000 158.288
62.60000 145.725
62.64000 145.022
62.68000 144.528
62.72000 148.750
62.76000 155.357
62.80000 158.890
62.84000 156.130
62.88000 155.343
62.92000 155.512
62.96000 157.300
63.00000 145.149
63.04000 139.037
63.08000 154.000
63.12000 156.753
63.16000 141.099
63.20000 154.953
63.24000 149.895
63.28000 147.399
63.32000 147.143
63.36000 152.923
63.40000 148.412
63.44000 150.671
63.48000 149.952
63.52000 158.138
63.56000 154.183
63.60000 156.253
63.64000 151.578
63.68000 164.516
63.72000 155.280
63.76000 153.986
63.80000 160.096
63.84000 161.505
63.88000 147.286
63.92000 164.325
63.96000 160.453
64.00000 166.650
64.04000 177.684
64.08000 151.434
64.12000 158.847
64.16000 165.842
64.20000 163.157
64.24000 169.738
64.28000 174.632
64.32000 170.624
64.36000 174.067
64.40000 183.808
64.44000 169.794
64.48000 168.640
64.52000 178.724
64.56000 188.226
64.60000 194.052
64.64000 192.532
64.68000 180.841
64.72000 192.962
64.76000 190.168
64.80000 195.664
64.84000 218.196
64.88000 212.830
64.92000 225.624
64.96000 244.905
65.00000 267.225
65.04000 322.106
65.08000 340.473
65.12000 387.465
65.16000 447.290
65.20000 485.022
65.24000 544.915
65.28000 577.746
65.32000 582.755
65.36000 578.768
65.40000 562.159
65.44000 578.526
65.48000 531.103
65.52000 508.504
65.56000 485.452
65.60000 479.976
65.64000 492.791
65.68000 563.068
65.72000 763.887
65.76000 1059.692
65.80000 1364.099
65.84000 1553.794
65.88000 1556.867
65.92000 1496.897
65.96000 1393.869
66.00000 959.806
66.04000 633.181
66.08000 469.362
66.12000 398.097
66.16000 364.809
66.20000 357.937
66.24000 372.481
66.28000 401.895
66.32000 469.185
66.36000 514.341
66.40000 548.954
66.44000 564.464
66.48000 558.321
66.52000 534.402
66.56000 450.615
66.60000 395.867
66.64000 379.738
66.68000 357.421
66.72000 365.702
66.76000 357.996
66.80000 355.944
66.84000 355.189
66.88000 382.780
66.92000 378.428
66.96000 372.647
67.00000 379.164
67.04000 409.769
67.08000 413.929
67.12000 409.126
67.16000 423.242
67.20000 420.469
67.24000 431.440
67.28000 442.105
67.32000 441.477
67.36000 443.806
67.40000 455.664
67.44000 461.566
67.48000 471.983
67.52000 482.744
67.56000 493.070
67.60000 527.931
67.64000 517.297
67.68000 515.903
67.72000 551.057
67.76000 556.820
67.80000 557.195
67.84000 577.813
67.88000 581.080
67.92000 566.616
67.96000 588.335
68.00000 622.061
68.04000 628.635
68.08000 645.916
68.12000 672.375
68.16000 678.100
68.20000 692.452
68.24000 724.507
68.28000 747.171
68.32000 768.884
68.36000 814.512
68.40000 824.834
68.44000 881.880
68.48000 907.934
68.52000 997.030
68.56000 1066.765
68.60000 1199.446
68.64000 1414.856
68.68000 1764.071
68.72000 2094.049
68.76000 2404.961
68.80000 2747.085
68.84000 3315.922
68.88000 4404.341
68.92000 7828.889
68.96000 18748.074
69.00000 43953.492
69.04000 73321.453
69.08000 89021.469
69.12000 92483.352
69.16000 95968.633
69.20000 96029.984
69.24000 83915.102
69.28000 63555.480
69.32000 50985.758
69.36000 45525.410
69.40000 38118.637
69.44000 24778.998
69.48000 11513.842
69.52000 4779.950
69.56000 2775.744
69.60000 2085.512
69.64000 1742.231
69.68000 1467.860
69.72000 1339.212
69.76000 1213.632
69.80000 1101.465
69.84000 1002.954
69.88000 927.985
69.92000 898.341
69.96000 858.730
70.00000 821.707