File: XRD/XRD/22-09-2025 Dep 2/XY Data/BTO_Mapping_Theta2Theta_22-09-2025_001_64_18-705_-23-455.xy
20.00000 566.301
20.04000 566.855
20.08000 562.792
20.12000 564.531
20.16000 580.716
20.20000 575.648
20.24000 577.897
20.28000 561.686
20.32000 562.282
20.36000 583.168
20.40000 562.934
20.44000 560.610
20.48000 566.626
20.52000 564.651
20.56000 544.826
20.60000 573.719
20.64000 570.597
20.68000 560.696
20.72000 565.596
20.76000 551.411
20.80000 540.613
20.84000 548.550
20.88000 548.144
20.92000 573.419
20.96000 528.822
21.00000 575.141
21.04000 555.791
21.08000 535.081
21.12000 552.256
21.16000 560.655
21.20000 553.715
21.24000 572.946
21.28000 555.226
21.32000 563.827
21.36000 549.407
21.40000 554.836
21.44000 531.409
21.48000 561.020
21.52000 547.891
21.56000 511.465
21.60000 558.891
21.64000 549.477
21.68000 527.018
21.72000 581.325
21.76000 558.418
21.80000 582.555
21.84000 598.065
21.88000 628.972
21.92000 627.154
21.96000 658.844
22.00000 687.594
22.04000 701.948
22.08000 728.893
22.12000 726.511
22.16000 726.819
22.20000 697.938
22.24000 680.739
22.28000 674.642
22.32000 660.694
22.36000 640.664
22.40000 632.765
22.44000 590.143
22.48000 577.029
22.52000 564.711
22.56000 548.889
22.60000 547.819
22.64000 547.971
22.68000 546.101
22.72000 533.284
22.76000 533.875
22.80000 529.959
22.84000 531.163
22.88000 524.442
22.92000 543.666
22.96000 498.864
23.00000 501.879
23.04000 511.773
23.08000 525.034
23.12000 502.642
23.16000 522.152
23.20000 527.313
23.24000 518.765
23.28000 517.741
23.32000 503.882
23.36000 524.799
23.40000 524.400
23.44000 528.542
23.48000 518.649
23.52000 508.532
23.56000 542.353
23.60000 505.322
23.64000 507.475
23.68000 532.447
23.72000 539.522
23.76000 549.261
23.80000 522.439
23.84000 523.288
23.88000 526.146
23.92000 503.680
23.96000 527.994
24.00000 534.470
24.04000 532.220
24.08000 523.287
24.12000 522.142
24.16000 526.934
24.20000 522.401
24.24000 536.960
24.28000 497.903
24.32000 499.605
24.36000 495.815
24.40000 508.796
24.44000 489.111
24.48000 487.113
24.52000 506.611
24.56000 485.076
24.60000 506.807
24.64000 485.060
24.68000 479.339
24.72000 479.952
24.76000 482.209
24.80000 457.924
24.84000 478.440
24.88000 477.603
24.92000 471.640
24.96000 467.737
25.00000 485.960
25.04000 471.991
25.08000 468.831
25.12000 461.910
25.16000 486.706
25.20000 469.142
25.24000 490.318
25.28000 469.005
25.32000 462.259
25.36000 470.226
25.40000 463.278
25.44000 462.485
25.48000 467.534
25.52000 482.232
25.56000 475.750
25.60000 475.000
25.64000 498.577
25.68000 500.995
25.72000 475.411
25.76000 457.179
25.80000 468.536
25.84000 474.744
25.88000 461.154
25.92000 477.995
25.96000 453.850
26.00000 458.242
26.04000 476.011
26.08000 457.494
26.12000 447.993
26.16000 461.062
26.20000 473.094
26.24000 463.305
26.28000 453.730
26.32000 455.355
26.36000 466.648
26.40000 450.888
26.44000 453.903
26.48000 457.630
26.52000 459.814
26.56000 454.692
26.60000 447.557
26.64000 439.521
26.68000 457.042
26.72000 457.225
26.76000 457.116
26.80000 452.278
26.84000 459.604
26.88000 457.331
26.92000 442.435
26.96000 447.578
27.00000 447.773
27.04000 441.721
27.08000 451.403
27.12000 445.768
27.16000 453.867
27.20000 443.247
27.24000 446.688
27.28000 452.027
27.32000 431.130
27.36000 435.460
27.40000 429.265
27.44000 439.075
27.48000 440.406
27.52000 439.938
27.56000 434.392
27.60000 436.175
27.64000 421.204
27.68000 434.500
27.72000 448.651
27.76000 454.423
27.80000 443.983
27.84000 444.064
27.88000 429.158
27.92000 442.058
27.96000 424.270
28.00000 415.375
28.04000 426.970
28.08000 426.551
28.12000 433.943
28.16000 434.947
28.20000 426.795
28.24000 445.289
28.28000 434.345
28.32000 427.268
28.36000 421.405
28.40000 425.855
28.44000 410.473
28.48000 419.338
28.52000 423.096
28.56000 407.689
28.60000 432.120
28.64000 431.796
28.68000 412.179
28.72000 420.244
28.76000 431.854
28.80000 426.980
28.84000 417.598
28.88000 425.455
28.92000 414.353
28.96000 411.802
29.00000 416.374
29.04000 413.505
29.08000 403.885
29.12000 403.497
29.16000 409.574
29.20000 410.600
29.24000 408.829
29.28000 400.494
29.32000 418.410
29.36000 408.867
29.40000 416.214
29.44000 409.583
29.48000 403.197
29.52000 414.065
29.56000 404.076
29.60000 405.462
29.64000 412.225
29.68000 411.661
29.72000 415.420
29.76000 417.122
29.80000 417.540
29.84000 419.818
29.88000 426.295
29.92000 450.610
29.96000 439.687
30.00000 434.464
30.04000 442.727
30.08000 452.439
30.12000 447.501
30.16000 447.029
30.20000 447.909
30.24000 423.578
30.28000 415.519
30.32000 434.073
30.36000 438.601
30.40000 423.648
30.44000 426.720
30.48000 423.848
30.52000 426.240
30.56000 423.542
30.60000 424.908
30.64000 429.896
30.68000 430.829
30.72000 436.441
30.76000 433.509
30.80000 480.033
30.84000 480.101
30.88000 483.962
30.92000 494.437
30.96000 535.821
31.00000 555.235
31.04000 614.187
31.08000 673.855
31.12000 772.848
31.16000 959.981
31.20000 1171.924
31.24000 1503.450
31.28000 1862.968
31.32000 2279.254
31.36000 2705.204
31.40000 2890.320
31.44000 2928.346
31.48000 2766.689
31.52000 2470.043
31.56000 2052.222
31.60000 1698.935
31.64000 1348.486
31.68000 1072.724
31.72000 875.515
31.76000 726.767
31.80000 648.905
31.84000 597.763
31.88000 536.664
31.92000 513.523
31.96000 482.215
32.00000 465.546
32.04000 448.736
32.08000 444.207
32.12000 389.108
32.16000 416.614
32.20000 408.827
32.24000 415.423
32.28000 420.439
32.32000 417.542
32.36000 402.228
32.40000 388.831
32.44000 387.735
32.48000 395.164
32.52000 390.317
32.56000 384.880
32.60000 377.439
32.64000 417.304
32.68000 379.730
32.72000 382.196
32.76000 387.423
32.80000 390.445
32.84000 385.656
32.88000 390.903
32.92000 417.217
32.96000 399.190
33.00000 409.342
33.04000 386.167
33.08000 379.971
33.12000 365.185
33.16000 347.665
33.20000 352.327
33.24000 345.910
33.28000 355.562
33.32000 340.646
33.36000 352.896
33.40000 357.874
33.44000 344.840
33.48000 348.517
33.52000 342.919
33.56000 331.591
33.60000 332.984
33.64000 337.212
33.68000 351.557
33.72000 347.778
33.76000 326.364
33.80000 338.603
33.84000 331.440
33.88000 351.915
33.92000 327.110
33.96000 329.812
34.00000 352.912
34.04000 326.613
34.08000 329.532
34.12000 336.309
34.16000 342.975
34.20000 340.690
34.24000 350.182
34.28000 343.764
34.32000 338.458
34.36000 334.863
34.40000 332.320
34.44000 334.126
34.48000 328.191
34.52000 331.829
34.56000 326.755
34.60000 330.459
34.64000 342.300
34.68000 325.101
34.72000 308.828
34.76000 317.833
34.80000 313.618
34.84000 326.181
34.88000 324.239
34.92000 327.033
34.96000 319.969
35.00000 338.255
35.04000 316.237
35.08000 325.682
35.12000 301.901
35.16000 336.925
35.20000 323.159
35.24000 338.843
35.28000 306.696
35.32000 310.539
35.36000 324.889
35.40000 319.880
35.44000 322.024
35.48000 314.388
35.52000 320.221
35.56000 306.214
35.60000 312.226
35.64000 305.374
35.68000 318.499
35.72000 317.188
35.76000 312.129
35.80000 315.753
35.84000 317.917
35.88000 304.783
35.92000 319.483
35.96000 302.126
36.00000 299.748
36.04000 306.696
36.08000 309.968
36.12000 303.824
36.16000 306.960
36.20000 297.932
36.24000 306.840
36.28000 290.235
36.32000 298.286
36.36000 310.635
36.40000 296.358
36.44000 313.461
36.48000 300.427
36.52000 298.643
36.56000 300.277
36.60000 307.059
36.64000 301.320
36.68000 289.015
36.72000 282.554
36.76000 299.157
36.80000 303.582
36.84000 294.158
36.88000 297.595
36.92000 305.869
36.96000 306.090
37.00000 297.660
37.04000 294.464
37.08000 307.431
37.12000 295.450
37.16000 312.473
37.20000 306.890
37.24000 305.254
37.28000 293.089
37.32000 289.077
37.36000 308.203
37.40000 298.385
37.44000 300.457
37.48000 305.715
37.52000 286.226
37.56000 288.002
37.60000 291.343
37.64000 296.021
37.68000 281.733
37.72000 290.680
37.76000 300.762
37.80000 291.068
37.84000 304.351
37.88000 277.441
37.92000 282.763
37.96000 291.214
38.00000 305.021
38.04000 302.610
38.08000 286.837
38.12000 304.679
38.16000 290.040
38.20000 332.002
38.24000 301.976
38.28000 297.185
38.32000 319.515
38.36000 324.202
38.40000 376.514
38.44000 360.595
38.48000 423.980
38.52000 452.834
38.56000 541.620
38.60000 654.055
38.64000 796.402
38.68000 915.590
38.72000 1020.532
38.76000 1069.511
38.80000 1069.823
38.84000 994.868
38.88000 875.659
38.92000 742.498
38.96000 592.801
39.00000 491.579
39.04000 436.465
39.08000 377.302
39.12000 353.046
39.16000 337.838
39.20000 309.613
39.24000 311.277
39.28000 296.196
39.32000 283.830
39.36000 289.447
39.40000 288.967
39.44000 279.589
39.48000 283.665
39.52000 279.105
39.56000 261.443
39.60000 261.414
39.64000 261.466
39.68000 282.628
39.72000 272.737
39.76000 256.463
39.80000 272.442
39.84000 261.289
39.88000 272.268
39.92000 265.843
39.96000 271.249
40.00000 257.644
40.04000 255.487
40.08000 275.275
40.12000 265.506
40.16000 249.369
40.20000 265.955
40.24000 263.345
40.28000 268.983
40.32000 261.395
40.36000 266.460
40.40000 255.500
40.44000 253.979
40.48000 240.564
40.52000 260.990
40.56000 263.743
40.60000 254.893
40.64000 243.591
40.68000 266.165
40.72000 250.305
40.76000 254.625
40.80000 251.443
40.84000 244.875
40.88000 247.166
40.92000 259.243
40.96000 262.958
41.00000 247.590
41.04000 242.372
41.08000 247.930
41.12000 256.594
41.16000 264.141
41.20000 248.211
41.24000 243.473
41.28000 249.811
41.32000 253.807
41.36000 234.757
41.40000 258.464
41.44000 250.156
41.48000 244.486
41.52000 250.195
41.56000 244.183
41.60000 253.477
41.64000 252.142
41.68000 245.352
41.72000 243.573
41.76000 256.747
41.80000 237.433
41.84000 261.931
41.88000 247.087
41.92000 235.691
41.96000 247.448
42.00000 246.414
42.04000 250.774
42.08000 253.840
42.12000 235.199
42.16000 236.429
42.20000 240.860
42.24000 228.368
42.28000 239.850
42.32000 241.085
42.36000 239.902
42.40000 242.350
42.44000 234.343
42.48000 229.495
42.52000 229.165
42.56000 237.539
42.60000 245.881
42.64000 245.731
42.68000 247.580
42.72000 249.361
42.76000 244.287
42.80000 233.398
42.84000 231.742
42.88000 232.486
42.92000 237.016
42.96000 236.182
43.00000 234.073
43.04000 225.966
43.08000 235.960
43.12000 226.058
43.16000 239.375
43.20000 239.598
43.24000 222.255
43.28000 241.779
43.32000 221.067
43.36000 229.626
43.40000 205.210
43.44000 226.402
43.48000 219.388
43.52000 218.108
43.56000 228.004
43.60000 216.691
43.64000 233.342
43.68000 229.735
43.72000 233.711
43.76000 219.935
43.80000 213.366
43.84000 227.990
43.88000 218.893
43.92000 231.531
43.96000 215.779
44.00000 232.112
44.04000 215.111
44.08000 237.919
44.12000 221.567
44.16000 225.355
44.20000 222.919
44.24000 225.425
44.28000 224.669
44.32000 212.177
44.36000 231.788
44.40000 221.919
44.44000 221.030
44.48000 232.037
44.52000 233.950
44.56000 229.587
44.60000 234.556
44.64000 240.240
44.68000 246.289
44.72000 257.819
44.76000 254.027
44.80000 261.867
44.84000 268.681
44.88000 280.026
44.92000 286.042
44.96000 297.401
45.00000 321.050
45.04000 335.608
45.08000 329.179
45.12000 347.303
45.16000 365.919
45.20000 352.258
45.24000 359.203
45.28000 343.380
45.32000 338.818
45.36000 330.306
45.40000 308.122
45.44000 302.528
45.48000 313.840
45.52000 273.198
45.56000 266.386
45.60000 282.003
45.64000 263.298
45.68000 250.165
45.72000 262.043
45.76000 246.214
45.80000 241.811
45.84000 232.298
45.88000 238.129
45.92000 228.874
45.96000 228.684
46.00000 216.511
46.04000 209.753
46.08000 210.539
46.12000 219.556
46.16000 211.764
46.20000 199.312
46.24000 216.452
46.28000 219.221
46.32000 199.197
46.36000 209.397
46.40000 197.385
46.44000 201.069
46.48000 203.890
46.52000 199.628
46.56000 204.319
46.60000 197.611
46.64000 203.178
46.68000 200.054
46.72000 207.133
46.76000 201.842
46.80000 204.596
46.84000 197.629
46.88000 206.800
46.92000 191.951
46.96000 194.780
47.00000 204.736
47.04000 198.048
47.08000 183.777
47.12000 191.483
47.16000 215.672
47.20000 198.663
47.24000 188.176
47.28000 191.636
47.32000 191.991
47.36000 192.682
47.40000 187.387
47.44000 186.613
47.48000 189.074
47.52000 189.189
47.56000 185.563
47.60000 193.440
47.64000 185.164
47.68000 178.083
47.72000 194.558
47.76000 188.894
47.80000 180.237
47.84000 189.661
47.88000 165.728
47.92000 186.224
47.96000 181.066
48.00000 208.500
48.04000 192.181
48.08000 183.760
48.12000 189.981
48.16000 185.173
48.20000 193.296
48.24000 184.055
48.28000 187.186
48.32000 184.286
48.36000 171.598
48.40000 185.798
48.44000 181.444
48.48000 181.232
48.52000 189.441
48.56000 183.535
48.60000 190.062
48.64000 180.145
48.68000 183.454
48.72000 182.214
48.76000 185.641
48.80000 181.510
48.84000 185.882
48.88000 185.800
48.92000 177.260
48.96000 178.492
49.00000 178.699
49.04000 180.401
49.08000 180.527
49.12000 187.344
49.16000 181.494
49.20000 178.446
49.24000 185.718
49.28000 185.438
49.32000 168.190
49.36000 170.104
49.40000 171.712
49.44000 172.899
49.48000 176.708
49.52000 182.304
49.56000 187.556
49.60000 180.871
49.64000 187.207
49.68000 180.993
49.72000 172.200
49.76000 167.792
49.80000 167.601
49.84000 181.267
49.88000 180.626
49.92000 178.744
49.96000 174.182
50.00000 189.334
50.04000 186.057
50.08000 169.554
50.12000 174.737
50.16000 173.482
50.20000 186.273
50.24000 178.062
50.28000 181.934
50.32000 178.751
50.36000 183.059
50.40000 177.627
50.44000 187.041
50.48000 203.308
50.52000 207.703
50.56000 209.061
50.60000 226.014
50.64000 230.628
50.68000 235.312
50.72000 249.448
50.76000 257.469
50.80000 250.340
50.84000 251.881
50.88000 253.081
50.92000 237.695
50.96000 231.201
51.00000 223.413
51.04000 214.614
51.08000 206.278
51.12000 194.820
51.16000 202.073
51.20000 193.102
51.24000 183.846
51.28000 182.762
51.32000 170.699
51.36000 175.232
51.40000 186.439
51.44000 171.053
51.48000 170.314
51.52000 173.699
51.56000 179.002
51.60000 177.852
51.64000 175.737
51.68000 168.430
51.72000 160.835
51.76000 170.254
51.80000 160.823
51.84000 166.383
51.88000 164.377
51.92000 172.342
51.96000 165.519
52.00000 162.350
52.04000 163.556
52.08000 160.927
52.12000 156.772
52.16000 155.802
52.20000 158.817
52.24000 151.234
52.28000 147.762
52.32000 148.137
52.36000 161.125
52.40000 159.986
52.44000 160.906
52.48000 145.330
52.52000 158.524
52.56000 154.705
52.60000 152.697
52.64000 167.807
52.68000 163.238
52.72000 157.378
52.76000 168.856
52.80000 164.420
52.84000 158.639
52.88000 163.585
52.92000 168.013
52.96000 159.873
53.00000 156.231
53.04000 159.699
53.08000 164.725
53.12000 163.339
53.16000 162.142
53.20000 160.912
53.24000 160.204
53.28000 156.818
53.32000 161.236
53.36000 165.227
53.40000 165.915
53.44000 152.397
53.48000 149.277
53.52000 170.046
53.56000 161.413
53.60000 167.270
53.64000 155.875
53.68000 159.411
53.72000 160.405
53.76000 156.354
53.80000 147.243
53.84000 162.538
53.88000 160.652
53.92000 160.363
53.96000 171.023
54.00000 159.543
54.04000 151.332
54.08000 148.674
54.12000 164.027
54.16000 148.323
54.20000 157.420
54.24000 152.686
54.28000 155.200
54.32000 155.760
54.36000 153.539
54.40000 155.807
54.44000 166.960
54.48000 153.602
54.52000 157.537
54.56000 159.743
54.60000 154.206
54.64000 167.600
54.68000 158.241
54.72000 157.784
54.76000 145.422
54.80000 162.614
54.84000 156.056
54.88000 158.087
54.92000 147.316
54.96000 158.937
55.00000 172.291
55.04000 158.019
55.08000 159.733
55.12000 158.875
55.16000 157.701
55.20000 170.137
55.24000 161.888
55.28000 162.078
55.32000 168.331
55.36000 164.031
55.40000 170.881
55.44000 173.330
55.48000 179.882
55.52000 193.190
55.56000 190.677
55.60000 204.350
55.64000 213.551
55.68000 234.571
55.72000 242.895
55.76000 294.537
55.80000 324.856
55.84000 390.292
55.88000 413.637
55.92000 454.815
55.96000 481.116
56.00000 529.793
56.04000 542.439
56.08000 503.052
56.12000 466.822
56.16000 443.460
56.20000 399.176
56.24000 366.021
56.28000 333.747
56.32000 305.056
56.36000 253.503
56.40000 239.299
56.44000 213.390
56.48000 207.421
56.52000 198.221
56.56000 183.343
56.60000 176.892
56.64000 177.894
56.68000 176.714
56.72000 159.955
56.76000 163.235
56.80000 148.540
56.84000 157.218
56.88000 155.372
56.92000 162.423
56.96000 151.922
57.00000 140.435
57.04000 152.099
57.08000 154.873
57.12000 141.881
57.16000 145.931
57.20000 144.134
57.24000 151.739
57.28000 139.396
57.32000 137.252
57.36000 156.941
57.40000 151.800
57.44000 141.492
57.48000 151.991
57.52000 145.027
57.56000 143.503
57.60000 147.141
57.64000 142.781
57.68000 130.343
57.72000 148.002
57.76000 152.749
57.80000 144.689
57.84000 136.286
57.88000 143.205
57.92000 134.202
57.96000 136.929
58.00000 145.946
58.04000 138.991
58.08000 141.657
58.12000 137.123
58.16000 137.988
58.20000 135.686
58.24000 144.351
58.28000 137.506
58.32000 138.612
58.36000 138.660
58.40000 145.755
58.44000 134.561
58.48000 145.782
58.52000 144.154
58.56000 137.835
58.60000 132.682
58.64000 132.384
58.68000 123.402
58.72000 131.712
58.76000 141.810
58.80000 139.269
58.84000 128.862
58.88000 126.773
58.92000 133.616
58.96000 136.365
59.00000 134.011
59.04000 136.202
59.08000 118.120
59.12000 129.463
59.16000 141.610
59.20000 138.858
59.24000 144.532
59.28000 140.941
59.32000 135.432
59.36000 134.170
59.40000 138.493
59.44000 133.011
59.48000 140.305
59.52000 143.630
59.56000 128.210
59.60000 132.854
59.64000 129.286
59.68000 123.415
59.72000 131.610
59.76000 138.584
59.80000 126.212
59.84000 137.386
59.88000 151.400
59.92000 138.527
59.96000 130.144
60.00000 131.757
60.04000 126.717
60.08000 137.398
60.12000 126.286
60.16000 135.554
60.20000 138.947
60.24000 128.262
60.28000 136.820
60.32000 123.538
60.36000 135.186
60.40000 131.221
60.44000 134.705
60.48000 126.107
60.52000 135.165
60.56000 129.421
60.60000 125.272
60.64000 132.563
60.68000 144.460
60.72000 136.553
60.76000 134.923
60.80000 140.544
60.84000 123.084
60.88000 138.916
60.92000 134.989
60.96000 127.693
61.00000 126.856
61.04000 138.607
61.08000 139.359
61.12000 128.793
61.16000 137.580
61.20000 132.280
61.24000 136.677
61.28000 132.825
61.32000 139.077
61.36000 129.649
61.40000 138.927
61.44000 134.127
61.48000 152.746
61.52000 160.911
61.56000 196.362
61.60000 239.369
61.64000 267.399
61.68000 271.686
61.72000 280.814
61.76000 286.738
61.80000 244.228
61.84000 193.185
61.88000 162.591
61.92000 146.043
61.96000 148.568
62.00000 141.455
62.04000 140.369
62.08000 130.789
62.12000 146.588
62.16000 141.094
62.20000 154.788
62.24000 138.835
62.28000 148.877
62.32000 138.427
62.36000 133.153
62.40000 145.051
62.44000 135.108
62.48000 138.411
62.52000 140.357
62.56000 134.868
62.60000 137.519
62.64000 141.376
62.68000 137.379
62.72000 143.098
62.76000 147.317
62.80000 148.984
62.84000 145.059
62.88000 144.831
62.92000 145.670
62.96000 140.900
63.00000 143.933
63.04000 148.514
63.08000 144.873
63.12000 148.882
63.16000 135.793
63.20000 137.710
63.24000 143.647
63.28000 149.771
63.32000 145.496
63.36000 154.060
63.40000 153.861
63.44000 153.669
63.48000 145.225
63.52000 144.298
63.56000 151.267
63.60000 156.536
63.64000 144.539
63.68000 149.073
63.72000 143.929
63.76000 153.906
63.80000 159.886
63.84000 153.689
63.88000 153.089
63.92000 154.199
63.96000 153.336
64.00000 156.030
64.04000 161.456
64.08000 151.184
64.12000 155.096
64.16000 145.785
64.20000 159.803
64.24000 164.805
64.28000 173.022
64.32000 156.247
64.36000 167.270
64.40000 168.370
64.44000 172.761
64.48000 166.572
64.52000 175.878
64.56000 165.019
64.60000 168.157
64.64000 166.789
64.68000 161.500
64.72000 183.526
64.76000 170.396
64.80000 172.871
64.84000 182.407
64.88000 191.228
64.92000 178.275
64.96000 181.997
65.00000 192.609
65.04000 189.674
65.08000 194.193
65.12000 182.875
65.16000 215.415
65.20000 222.111
65.24000 219.186
65.28000 223.714
65.32000 250.527
65.36000 256.517
65.40000 280.361
65.44000 307.979
65.48000 328.379
65.52000 346.712
65.56000 366.886
65.60000 401.907
65.64000 413.863
65.68000 474.703
65.72000 599.560
65.76000 774.573
65.80000 1006.997
65.84000 1084.339
65.88000 1133.244
65.92000 1091.904
65.96000 1006.881
66.00000 738.638
66.04000 490.342
66.08000 392.386
66.12000 336.502
66.16000 317.332
66.20000 312.829
66.24000 298.969
66.28000 338.456
66.32000 376.225
66.36000 413.645
66.40000 440.868
66.44000 431.410
66.48000 467.790
66.52000 418.997
66.56000 375.883
66.60000 344.978
66.64000 345.897
66.68000 323.754
66.72000 323.351
66.76000 327.089
66.80000 322.981
66.84000 327.811
66.88000 342.992
66.92000 332.738
66.96000 333.059
67.00000 328.725
67.04000 350.721
67.08000 350.133
67.12000 366.468
67.16000 360.704
67.20000 377.031
67.24000 384.064
67.28000 382.996
67.32000 401.741
67.36000 394.379
67.40000 419.784
67.44000 414.243
67.48000 419.608
67.52000 420.153
67.56000 438.977
67.60000 437.976
67.64000 426.776
67.68000 446.450
67.72000 459.294
67.76000 456.835
67.80000 484.504
67.84000 517.066
67.88000 490.037
67.92000 504.768
67.96000 525.148
68.00000 541.665
68.04000 540.071
68.08000 551.347
68.12000 555.235
68.16000 591.777
68.20000 614.594
68.24000 611.780
68.28000 640.990
68.32000 637.153
68.36000 679.717
68.40000 698.645
68.44000 728.997
68.48000 755.339
68.52000 790.414
68.56000 842.375
68.60000 971.143
68.64000 1091.938
68.68000 1290.940
68.72000 1532.107
68.76000 1726.311
68.80000 1968.994
68.84000 2290.221
68.88000 2836.050
68.92000 4586.651
68.96000 10282.783
69.00000 25015.691
69.04000 44593.723
69.08000 57011.809
69.12000 60102.848
69.16000 62517.043
69.20000 63720.945
69.24000 56523.023
69.28000 42866.586
69.32000 34489.824
69.36000 30709.307
69.40000 26708.363
69.44000 18026.820
69.48000 8651.128
69.52000 3918.333
69.56000 2226.254
69.60000 1688.042
69.64000 1351.885
69.68000 1172.445
69.72000 1067.377
69.76000 967.177
69.80000 873.038
69.84000 825.439
69.88000 797.835
69.92000 770.211
69.96000 713.238
70.00000 688.949