File: XRD/XRD/22-09-2025 Dep 2/XY Data/BTO_Mapping_Theta2Theta_22-09-2025_001_22_-2-225_9-749.xy
20.00000 593.985
20.04000 584.617
20.08000 566.329
20.12000 554.253
20.16000 577.031
20.20000 563.466
20.24000 579.603
20.28000 577.275
20.32000 558.588
20.36000 565.424
20.40000 555.060
20.44000 598.159
20.48000 553.535
20.52000 562.953
20.56000 575.824
20.60000 567.920
20.64000 573.064
20.68000 559.670
20.72000 551.997
20.76000 557.275
20.80000 568.275
20.84000 566.003
20.88000 569.999
20.92000 566.289
20.96000 547.108
21.00000 549.117
21.04000 552.876
21.08000 542.698
21.12000 556.716
21.16000 574.996
21.20000 541.278
21.24000 553.317
21.28000 557.951
21.32000 569.490
21.36000 587.481
21.40000 555.365
21.44000 563.374
21.48000 569.879
21.52000 552.599
21.56000 575.845
21.60000 570.198
21.64000 560.880
21.68000 602.062
21.72000 612.795
21.76000 614.730
21.80000 637.803
21.84000 664.926
21.88000 701.844
21.92000 743.755
21.96000 811.330
22.00000 786.263
22.04000 854.570
22.08000 843.628
22.12000 847.213
22.16000 820.501
22.20000 765.986
22.24000 711.652
22.28000 691.175
22.32000 643.078
22.36000 646.386
22.40000 638.068
22.44000 575.179
22.48000 588.829
22.52000 566.292
22.56000 553.130
22.60000 541.044
22.64000 542.203
22.68000 531.887
22.72000 520.297
22.76000 559.653
22.80000 533.691
22.84000 514.133
22.88000 518.202
22.92000 505.630
22.96000 534.301
23.00000 523.377
23.04000 509.142
23.08000 505.048
23.12000 500.311
23.16000 525.034
23.20000 529.360
23.24000 510.738
23.28000 512.847
23.32000 514.084
23.36000 509.400
23.40000 501.071
23.44000 523.338
23.48000 513.205
23.52000 505.314
23.56000 531.871
23.60000 505.027
23.64000 517.260
23.68000 498.708
23.72000 503.822
23.76000 475.294
23.80000 515.171
23.84000 502.434
23.88000 513.299
23.92000 500.988
23.96000 512.527
24.00000 504.560
24.04000 515.683
24.08000 506.002
24.12000 502.075
24.16000 489.955
24.20000 498.461
24.24000 493.736
24.28000 504.568
24.32000 502.882
24.36000 499.513
24.40000 491.490
24.44000 480.348
24.48000 519.425
24.52000 470.758
24.56000 489.327
24.60000 469.506
24.64000 479.984
24.68000 481.238
24.72000 497.260
24.76000 472.070
24.80000 473.802
24.84000 474.118
24.88000 479.729
24.92000 476.986
24.96000 491.598
25.00000 477.894
25.04000 475.573
25.08000 465.773
25.12000 478.676
25.16000 454.738
25.20000 472.913
25.24000 480.264
25.28000 484.346
25.32000 465.673
25.36000 479.771
25.40000 484.817
25.44000 468.588
25.48000 480.225
25.52000 482.785
25.56000 470.960
25.60000 467.068
25.64000 458.790
25.68000 475.986
25.72000 473.605
25.76000 462.465
25.80000 461.623
25.84000 474.464
25.88000 470.044
25.92000 475.025
25.96000 459.611
26.00000 481.543
26.04000 457.696
26.08000 464.310
26.12000 457.614
26.16000 466.448
26.20000 447.943
26.24000 464.874
26.28000 462.614
26.32000 458.449
26.36000 474.380
26.40000 458.336
26.44000 463.187
26.48000 457.360
26.52000 451.913
26.56000 452.157
26.60000 466.961
26.64000 465.089
26.68000 466.490
26.72000 455.081
26.76000 448.591
26.80000 446.965
26.84000 443.472
26.88000 459.297
26.92000 441.188
26.96000 458.051
27.00000 445.573
27.04000 446.502
27.08000 447.271
27.12000 458.166
27.16000 447.998
27.20000 454.851
27.24000 442.166
27.28000 430.708
27.32000 445.491
27.36000 438.114
27.40000 462.046
27.44000 442.534
27.48000 432.714
27.52000 457.570
27.56000 446.108
27.60000 471.875
27.64000 445.484
27.68000 434.798
27.72000 430.040
27.76000 431.441
27.80000 429.202
27.84000 439.202
27.88000 440.351
27.92000 426.974
27.96000 436.812
28.00000 435.304
28.04000 433.075
28.08000 451.258
28.12000 448.994
28.16000 453.378
28.20000 444.490
28.24000 429.834
28.28000 429.460
28.32000 437.261
28.36000 441.473
28.40000 409.624
28.44000 424.157
28.48000 426.936
28.52000 419.184
28.56000 407.500
28.60000 431.107
28.64000 416.688
28.68000 413.147
28.72000 423.865
28.76000 428.763
28.80000 420.491
28.84000 431.006
28.88000 418.729
28.92000 427.264
28.96000 438.272
29.00000 433.140
29.04000 428.314
29.08000 417.892
29.12000 420.879
29.16000 421.773
29.20000 427.731
29.24000 413.218
29.28000 421.595
29.32000 413.660
29.36000 418.457
29.40000 429.593
29.44000 418.550
29.48000 414.036
29.52000 419.417
29.56000 407.189
29.60000 405.423
29.64000 423.689
29.68000 417.095
29.72000 410.637
29.76000 426.563
29.80000 427.887
29.84000 429.271
29.88000 423.321
29.92000 427.216
29.96000 428.473
30.00000 438.251
30.04000 473.783
30.08000 449.994
30.12000 456.904
30.16000 473.999
30.20000 458.518
30.24000 459.738
30.28000 455.440
30.32000 428.105
30.36000 440.769
30.40000 444.553
30.44000 455.239
30.48000 444.388
30.52000 455.697
30.56000 421.389
30.60000 458.751
30.64000 463.515
30.68000 475.084
30.72000 467.974
30.76000 463.268
30.80000 498.422
30.84000 492.175
30.88000 522.389
30.92000 553.106
30.96000 593.736
31.00000 627.489
31.04000 731.323
31.08000 840.030
31.12000 1057.064
31.16000 1336.587
31.20000 1683.030
31.24000 2142.990
31.28000 2593.858
31.32000 3084.708
31.36000 3368.698
31.40000 3484.784
31.44000 3330.624
31.48000 3002.846
31.52000 2534.972
31.56000 2035.548
31.60000 1673.955
31.64000 1295.704
31.68000 1046.190
31.72000 864.352
31.76000 748.626
31.80000 670.255
31.84000 587.488
31.88000 559.968
31.92000 503.639
31.96000 492.000
32.00000 469.364
32.04000 449.580
32.08000 429.902
32.12000 442.299
32.16000 423.703
32.20000 451.274
32.24000 430.985
32.28000 408.233
32.32000 425.388
32.36000 419.239
32.40000 397.391
32.44000 418.261
32.48000 399.611
32.52000 400.050
32.56000 397.765
32.60000 412.998
32.64000 400.138
32.68000 395.306
32.72000 400.610
32.76000 399.506
32.80000 399.940
32.84000 415.988
32.88000 441.677
32.92000 430.037
32.96000 399.443
33.00000 402.678
33.04000 380.687
33.08000 384.874
33.12000 362.972
33.16000 381.660
33.20000 366.036
33.24000 360.242
33.28000 362.329
33.32000 370.547
33.36000 346.329
33.40000 352.401
33.44000 354.274
33.48000 346.019
33.52000 348.992
33.56000 335.293
33.60000 340.019
33.64000 338.994
33.68000 355.695
33.72000 333.204
33.76000 334.881
33.80000 337.241
33.84000 349.044
33.88000 330.171
33.92000 332.425
33.96000 343.805
34.00000 309.880
34.04000 340.554
34.08000 360.106
34.12000 336.186
34.16000 331.462
34.20000 336.304
34.24000 343.845
34.28000 343.382
34.32000 320.586
34.36000 324.715
34.40000 348.118
34.44000 333.017
34.48000 331.355
34.52000 325.869
34.56000 331.487
34.60000 327.647
34.64000 330.228
34.68000 318.670
34.72000 335.656
34.76000 322.297
34.80000 325.988
34.84000 336.946
34.88000 336.382
34.92000 318.700
34.96000 328.022
35.00000 335.830
35.04000 315.310
35.08000 324.145
35.12000 320.702
35.16000 320.648
35.20000 329.958
35.24000 322.165
35.28000 309.902
35.32000 312.838
35.36000 294.048
35.40000 316.494
35.44000 304.162
35.48000 315.027
35.52000 330.188
35.56000 322.678
35.60000 316.876
35.64000 311.559
35.68000 316.637
35.72000 309.416
35.76000 308.978
35.80000 312.788
35.84000 304.149
35.88000 296.413
35.92000 301.031
35.96000 310.819
36.00000 314.002
36.04000 306.182
36.08000 313.225
36.12000 308.916
36.16000 307.947
36.20000 292.743
36.24000 316.764
36.28000 301.432
36.32000 306.288
36.36000 313.123
36.40000 306.809
36.44000 291.951
36.48000 294.810
36.52000 299.042
36.56000 300.936
36.60000 290.318
36.64000 302.459
36.68000 302.949
36.72000 292.638
36.76000 318.531
36.80000 322.493
36.84000 291.261
36.88000 286.532
36.92000 317.263
36.96000 310.531
37.00000 301.398
37.04000 305.411
37.08000 319.435
37.12000 312.429
37.16000 298.897
37.20000 299.545
37.24000 300.391
37.28000 298.255
37.32000 293.757
37.36000 293.873
37.40000 303.812
37.44000 294.048
37.48000 288.694
37.52000 287.694
37.56000 283.986
37.60000 301.717
37.64000 287.228
37.68000 301.621
37.72000 279.832
37.76000 296.206
37.80000 302.820
37.84000 295.458
37.88000 297.495
37.92000 296.981
37.96000 293.502
38.00000 305.937
38.04000 300.528
38.08000 308.040
38.12000 311.537
38.16000 308.047
38.20000 321.275
38.24000 333.331
38.28000 333.927
38.32000 355.452
38.36000 370.427
38.40000 395.312
38.44000 439.767
38.48000 517.040
38.52000 559.864
38.56000 645.869
38.60000 794.408
38.64000 844.194
38.68000 924.302
38.72000 946.230
38.76000 928.985
38.80000 860.899
38.84000 767.840
38.88000 682.190
38.92000 568.355
38.96000 475.876
39.00000 419.944
39.04000 377.235
39.08000 364.602
39.12000 328.262
39.16000 321.373
39.20000 297.654
39.24000 306.793
39.28000 299.240
39.32000 292.473
39.36000 292.813
39.40000 283.776
39.44000 279.224
39.48000 283.150
39.52000 284.520
39.56000 267.917
39.60000 288.250
39.64000 266.372
39.68000 264.603
39.72000 269.747
39.76000 269.608
39.80000 261.869
39.84000 278.469
39.88000 268.749
39.92000 264.871
39.96000 251.661
40.00000 268.818
40.04000 262.331
40.08000 271.643
40.12000 275.610
40.16000 255.516
40.20000 260.110
40.24000 265.678
40.28000 252.617
40.32000 255.266
40.36000 260.049
40.40000 269.956
40.44000 262.219
40.48000 274.505
40.52000 281.737
40.56000 264.718
40.60000 263.964
40.64000 265.949
40.68000 241.849
40.72000 259.837
40.76000 244.734
40.80000 244.160
40.84000 242.104
40.88000 252.083
40.92000 257.469
40.96000 259.631
41.00000 244.844
41.04000 258.546
41.08000 255.374
41.12000 264.692
41.16000 257.792
41.20000 259.276
41.24000 235.100
41.28000 248.453
41.32000 228.944
41.36000 240.175
41.40000 240.263
41.44000 255.544
41.48000 250.435
41.52000 251.934
41.56000 252.414
41.60000 257.843
41.64000 250.570
41.68000 238.610
41.72000 261.467
41.76000 243.493
41.80000 239.482
41.84000 222.401
41.88000 259.451
41.92000 243.218
41.96000 249.373
42.00000 241.447
42.04000 235.177
42.08000 245.505
42.12000 246.887
42.16000 244.353
42.20000 235.623
42.24000 233.272
42.28000 238.859
42.32000 235.001
42.36000 236.860
42.40000 229.938
42.44000 229.755
42.48000 238.580
42.52000 225.211
42.56000 234.605
42.60000 230.684
42.64000 243.697
42.68000 238.125
42.72000 236.299
42.76000 229.415
42.80000 236.153
42.84000 240.417
42.88000 220.271
42.92000 239.208
42.96000 229.442
43.00000 235.464
43.04000 237.812
43.08000 239.417
43.12000 221.471
43.16000 238.489
43.20000 233.285
43.24000 234.982
43.28000 229.706
43.32000 233.898
43.36000 222.966
43.40000 227.435
43.44000 226.638
43.48000 233.007
43.52000 224.406
43.56000 237.940
43.60000 233.358
43.64000 226.818
43.68000 229.545
43.72000 221.858
43.76000 221.831
43.80000 224.038
43.84000 219.700
43.88000 228.235
43.92000 204.246
43.96000 219.937
44.00000 225.850
44.04000 230.467
44.08000 241.341
44.12000 236.143
44.16000 242.951
44.20000 231.667
44.24000 239.751
44.28000 226.275
44.32000 230.518
44.36000 230.268
44.40000 245.851
44.44000 240.386
44.48000 253.429
44.52000 248.094
44.56000 245.832
44.60000 250.654
44.64000 277.167
44.68000 266.363
44.72000 277.754
44.76000 306.280
44.80000 323.488
44.84000 346.222
44.88000 381.957
44.92000 402.801
44.96000 403.384
45.00000 465.492
45.04000 462.315
45.08000 488.932
45.12000 468.056
45.16000 427.511
45.20000 454.566
45.24000 403.185
45.28000 382.113
45.32000 355.968
45.36000 349.726
45.40000 350.382
45.44000 317.535
45.48000 307.004
45.52000 293.135
45.56000 268.545
45.60000 273.922
45.64000 262.721
45.68000 270.125
45.72000 259.401
45.76000 237.802
45.80000 238.712
45.84000 235.512
45.88000 217.729
45.92000 218.607
45.96000 229.645
46.00000 225.064
46.04000 221.906
46.08000 217.976
46.12000 230.424
46.16000 213.127
46.20000 217.409
46.24000 210.477
46.28000 208.445
46.32000 210.008
46.36000 200.604
46.40000 218.011
46.44000 210.150
46.48000 203.594
46.52000 207.366
46.56000 196.984
46.60000 207.980
46.64000 218.507
46.68000 199.104
46.72000 197.492
46.76000 197.574
46.80000 193.460
46.84000 194.351
46.88000 208.865
46.92000 200.789
46.96000 209.050
47.00000 199.812
47.04000 197.199
47.08000 186.428
47.12000 195.102
47.16000 194.384
47.20000 195.278
47.24000 194.477
47.28000 183.522
47.32000 202.053
47.36000 189.981
47.40000 200.268
47.44000 201.088
47.48000 191.116
47.52000 185.094
47.56000 180.037
47.60000 190.583
47.64000 195.443
47.68000 189.984
47.72000 187.489
47.76000 176.506
47.80000 187.528
47.84000 193.073
47.88000 193.759
47.92000 188.904
47.96000 186.992
48.00000 181.018
48.04000 192.240
48.08000 189.311
48.12000 196.600
48.16000 187.260
48.20000 186.119
48.24000 188.204
48.28000 181.509
48.32000 184.392
48.36000 184.691
48.40000 183.973
48.44000 181.009
48.48000 189.999
48.52000 186.665
48.56000 178.339
48.60000 170.890
48.64000 183.948
48.68000 180.895
48.72000 161.678
48.76000 186.902
48.80000 183.713
48.84000 198.625
48.88000 184.357
48.92000 177.027
48.96000 180.977
49.00000 181.425
49.04000 168.811
49.08000 183.223
49.12000 176.966
49.16000 187.684
49.20000 178.030
49.24000 180.583
49.28000 184.527
49.32000 182.702
49.36000 174.041
49.40000 178.383
49.44000 172.470
49.48000 170.922
49.52000 179.090
49.56000 177.176
49.60000 179.566
49.64000 188.337
49.68000 178.712
49.72000 180.586
49.76000 164.331
49.80000 168.535
49.84000 180.247
49.88000 170.947
49.92000 180.973
49.96000 187.556
50.00000 175.142
50.04000 193.575
50.08000 178.063
50.12000 183.405
50.16000 176.122
50.20000 183.944
50.24000 179.461
50.28000 185.575
50.32000 180.800
50.36000 202.428
50.40000 191.884
50.44000 202.441
50.48000 233.605
50.52000 226.026
50.56000 226.770
50.60000 237.567
50.64000 248.746
50.68000 253.540
50.72000 247.704
50.76000 257.032
50.80000 255.422
50.84000 264.283
50.88000 250.406
50.92000 227.292
50.96000 219.710
51.00000 201.492
51.04000 206.461
51.08000 205.519
51.12000 210.268
51.16000 189.693
51.20000 190.525
51.24000 185.055
51.28000 183.528
51.32000 182.015
51.36000 176.691
51.40000 170.432
51.44000 184.865
51.48000 183.382
51.52000 173.720
51.56000 175.093
51.60000 174.152
51.64000 150.665
51.68000 172.960
51.72000 173.880
51.76000 169.053
51.80000 171.603
51.84000 161.794
51.88000 159.504
51.92000 162.141
51.96000 173.295
52.00000 172.479
52.04000 162.661
52.08000 165.104
52.12000 161.011
52.16000 159.796
52.20000 166.389
52.24000 161.585
52.28000 162.218
52.32000 160.223
52.36000 156.279
52.40000 165.577
52.44000 165.032
52.48000 155.393
52.52000 164.016
52.56000 166.762
52.60000 156.894
52.64000 152.009
52.68000 169.233
52.72000 163.534
52.76000 160.885
52.80000 157.674
52.84000 155.412
52.88000 154.816
52.92000 161.167
52.96000 159.829
53.00000 155.133
53.04000 154.986
53.08000 148.631
53.12000 159.933
53.16000 158.861
53.20000 165.544
53.24000 162.239
53.28000 172.910
53.32000 164.312
53.36000 165.285
53.40000 170.966
53.44000 160.010
53.48000 168.464
53.52000 162.183
53.56000 164.814
53.60000 150.145
53.64000 160.378
53.68000 167.343
53.72000 156.328
53.76000 153.864
53.80000 149.467
53.84000 152.351
53.88000 156.994
53.92000 144.262
53.96000 160.650
54.00000 160.200
54.04000 168.319
54.08000 152.674
54.12000 154.446
54.16000 161.453
54.20000 157.172
54.24000 151.271
54.28000 160.077
54.32000 154.393
54.36000 145.372
54.40000 154.740
54.44000 162.756
54.48000 158.250
54.52000 161.842
54.56000 166.562
54.60000 152.368
54.64000 148.561
54.68000 160.914
54.72000 155.125
54.76000 157.088
54.80000 156.395
54.84000 156.523
54.88000 155.601
54.92000 163.939
54.96000 161.235
55.00000 163.606
55.04000 162.865
55.08000 168.307
55.12000 170.949
55.16000 171.233
55.20000 167.066
55.24000 170.072
55.28000 187.246
55.32000 165.361
55.36000 180.637
55.40000 175.215
55.44000 191.653
55.48000 199.322
55.52000 219.925
55.56000 222.545
55.60000 248.923
55.64000 267.855
55.68000 310.473
55.72000 342.485
55.76000 388.389
55.80000 420.003
55.84000 501.217
55.88000 532.987
55.92000 570.327
55.96000 573.117
56.00000 565.229
56.04000 540.295
56.08000 510.036
56.12000 460.214
56.16000 423.715
56.20000 385.592
56.24000 345.340
56.28000 303.474
56.32000 280.371
56.36000 256.001
56.40000 244.392
56.44000 224.239
56.48000 214.555
56.52000 198.022
56.56000 203.820
56.60000 193.342
56.64000 169.415
56.68000 177.139
56.72000 173.255
56.76000 161.723
56.80000 170.603
56.84000 164.953
56.88000 159.380
56.92000 155.799
56.96000 156.423
57.00000 154.349
57.04000 149.739
57.08000 147.214
57.12000 150.384
57.16000 139.566
57.20000 150.166
57.24000 148.860
57.28000 145.076
57.32000 158.379
57.36000 142.997
57.40000 144.463
57.44000 134.781
57.48000 137.910
57.52000 148.574
57.56000 144.427
57.60000 139.941
57.64000 143.142
57.68000 146.727
57.72000 146.222
57.76000 137.214
57.80000 144.393
57.84000 144.605
57.88000 139.789
57.92000 143.903
57.96000 150.164
58.00000 140.388
58.04000 142.678
58.08000 152.873
58.12000 144.228
58.16000 139.475
58.20000 141.529
58.24000 142.771
58.28000 137.020
58.32000 139.049
58.36000 142.555
58.40000 139.110
58.44000 133.781
58.48000 141.039
58.52000 142.527
58.56000 137.898
58.60000 138.469
58.64000 133.244
58.68000 138.235
58.72000 133.822
58.76000 138.411
58.80000 134.630
58.84000 131.329
58.88000 129.142
58.92000 138.600
58.96000 144.088
59.00000 137.607
59.04000 134.323
59.08000 135.286
59.12000 138.258
59.16000 137.790
59.20000 135.025
59.24000 131.031
59.28000 126.129
59.32000 129.017
59.36000 121.701
59.40000 148.112
59.44000 140.310
59.48000 145.723
59.52000 141.018
59.56000 134.167
59.60000 129.442
59.64000 128.823
59.68000 133.383
59.72000 141.249
59.76000 130.924
59.80000 138.398
59.84000 138.683
59.88000 126.633
59.92000 136.513
59.96000 133.094
60.00000 138.954
60.04000 136.566
60.08000 133.423
60.12000 141.219
60.16000 141.256
60.20000 130.292
60.24000 122.857
60.28000 125.180
60.32000 142.847
60.36000 135.997
60.40000 132.202
60.44000 145.779
60.48000 133.683
60.52000 125.227
60.56000 138.381
60.60000 144.424
60.64000 129.408
60.68000 139.781
60.72000 128.646
60.76000 140.965
60.80000 140.405
60.84000 125.135
60.88000 134.417
60.92000 127.146
60.96000 130.570
61.00000 137.200
61.04000 146.293
61.08000 136.598
61.12000 135.562
61.16000 139.858
61.20000 140.650
61.24000 142.058
61.28000 135.838
61.32000 131.958
61.36000 155.927
61.40000 153.902
61.44000 149.330
61.48000 149.405
61.52000 175.227
61.56000 239.820
61.60000 291.864
61.64000 321.884
61.68000 329.342
61.72000 339.108
61.76000 318.052
61.80000 242.659
61.84000 193.411
61.88000 177.490
61.92000 158.533
61.96000 148.241
62.00000 147.106
62.04000 147.352
62.08000 138.786
62.12000 147.727
62.16000 146.801
62.20000 147.911
62.24000 144.560
62.28000 145.310
62.32000 143.130
62.36000 146.011
62.40000 137.241
62.44000 144.441
62.48000 146.079
62.52000 142.888
62.56000 148.653
62.60000 157.530
62.64000 137.005
62.68000 141.176
62.72000 148.496
62.76000 144.163
62.80000 141.227
62.84000 145.247
62.88000 145.647
62.92000 144.478
62.96000 148.528
63.00000 152.307
63.04000 142.776
63.08000 146.715
63.12000 156.262
63.16000 147.455
63.20000 147.233
63.24000 153.938
63.28000 146.303
63.32000 140.675
63.36000 149.410
63.40000 160.603
63.44000 151.976
63.48000 155.350
63.52000 145.801
63.56000 158.583
63.60000 152.249
63.64000 147.480
63.68000 145.380
63.72000 154.051
63.76000 160.561
63.80000 162.037
63.84000 155.789
63.88000 148.117
63.92000 156.849
63.96000 164.434
64.00000 155.790
64.04000 159.044
64.08000 167.260
64.12000 165.298
64.16000 162.472
64.20000 159.299
64.24000 161.082
64.28000 160.715
64.32000 164.812
64.36000 156.910
64.40000 155.663
64.44000 156.598
64.48000 180.980
64.52000 171.822
64.56000 173.761
64.60000 176.356
64.64000 175.120
64.68000 177.629
64.72000 182.454
64.76000 184.420
64.80000 188.037
64.84000 190.081
64.88000 192.117
64.92000 197.897
64.96000 194.732
65.00000 196.477
65.04000 198.736
65.08000 210.927
65.12000 233.546
65.16000 244.908
65.20000 249.484
65.24000 260.787
65.28000 266.369
65.32000 287.121
65.36000 321.028
65.40000 344.072
65.44000 374.756
65.48000 388.747
65.52000 424.576
65.56000 445.265
65.60000 477.391
65.64000 524.016
65.68000 613.036
65.72000 795.688
65.76000 1073.289
65.80000 1324.996
65.84000 1426.180
65.88000 1422.576
65.92000 1373.073
65.96000 1151.912
66.00000 824.763
66.04000 557.471
66.08000 425.203
66.12000 376.961
66.16000 364.342
66.20000 353.521
66.24000 383.858
66.28000 414.851
66.32000 464.442
66.36000 496.360
66.40000 523.565
66.44000 533.410
66.48000 541.876
66.52000 471.783
66.56000 412.348
66.60000 374.975
66.64000 362.277
66.68000 337.041
66.72000 358.858
66.76000 363.397
66.80000 349.879
66.84000 358.905
66.88000 376.822
66.92000 367.857
66.96000 375.791
67.00000 389.726
67.04000 393.777
67.08000 409.705
67.12000 412.616
67.16000 408.239
67.20000 414.977
67.24000 432.929
67.28000 416.769
67.32000 430.053
67.36000 429.172
67.40000 455.535
67.44000 441.978
67.48000 457.361
67.52000 487.361
67.56000 486.809
67.60000 487.580
67.64000 505.392
67.68000 493.615
67.72000 513.970
67.76000 523.677
67.80000 544.529
67.84000 561.630
67.88000 587.284
67.92000 578.722
67.96000 579.627
68.00000 585.488
68.04000 602.130
68.08000 612.986
68.12000 657.200
68.16000 673.654
68.20000 690.343
68.24000 702.464
68.28000 725.953
68.32000 748.123
68.36000 817.441
68.40000 807.878
68.44000 822.884
68.48000 875.007
68.52000 960.069
68.56000 1025.582
68.60000 1187.324
68.64000 1439.193
68.68000 1698.679
68.72000 1987.764
68.76000 2336.526
68.80000 2770.916
68.84000 3461.916
68.88000 4813.709
68.92000 9035.260
68.96000 21001.389
69.00000 44170.887
69.04000 67395.773
69.08000 78769.906
69.12000 82237.984
69.16000 85498.586
69.20000 83609.477
69.24000 69098.727
69.28000 53238.793
69.32000 44272.625
69.36000 39539.406
69.40000 31603.338
69.44000 18940.469
69.48000 8849.141
69.52000 4088.252
69.56000 2519.147
69.60000 1891.257
69.64000 1554.931
69.68000 1363.955
69.72000 1241.558
69.76000 1073.267
69.80000 1022.900
69.84000 984.163
69.88000 903.222
69.92000 857.831
69.96000 822.567
70.00000 788.555