File: XRD/XRD/22-09-2025 Dep 2/XY Data/BTO_Mapping_Theta2Theta_22-09-2025_001_70_36-039_-17-355.xy
20.00000 563.775
20.04000 587.319
20.08000 569.040
20.12000 577.404
20.16000 559.566
20.20000 539.719
20.24000 575.215
20.28000 560.387
20.32000 568.645
20.36000 562.107
20.40000 555.588
20.44000 559.401
20.48000 555.709
20.52000 572.597
20.56000 543.056
20.60000 541.796
20.64000 573.060
20.68000 577.622
20.72000 568.422
20.76000 550.410
20.80000 566.048
20.84000 546.420
20.88000 562.810
20.92000 545.756
20.96000 549.866
21.00000 555.442
21.04000 558.279
21.08000 554.735
21.12000 550.553
21.16000 534.974
21.20000 554.851
21.24000 533.267
21.28000 555.327
21.32000 549.082
21.36000 562.154
21.40000 553.503
21.44000 547.132
21.48000 551.700
21.52000 556.483
21.56000 570.135
21.60000 561.099
21.64000 568.187
21.68000 540.561
21.72000 557.179
21.76000 569.283
21.80000 572.823
21.84000 557.297
21.88000 595.272
21.92000 633.518
21.96000 620.841
22.00000 647.986
22.04000 662.371
22.08000 655.714
22.12000 665.118
22.16000 643.810
22.20000 659.039
22.24000 664.462
22.28000 647.339
22.32000 648.860
22.36000 595.990
22.40000 615.807
22.44000 569.078
22.48000 560.456
22.52000 550.569
22.56000 550.994
22.60000 555.611
22.64000 560.152
22.68000 540.871
22.72000 532.611
22.76000 525.284
22.80000 520.688
22.84000 540.046
22.88000 522.109
22.92000 514.444
22.96000 535.016
23.00000 514.800
23.04000 512.789
23.08000 515.750
23.12000 503.820
23.16000 522.277
23.20000 529.041
23.24000 487.175
23.28000 518.851
23.32000 506.360
23.36000 506.328
23.40000 512.258
23.44000 493.794
23.48000 529.893
23.52000 507.864
23.56000 517.538
23.60000 520.215
23.64000 530.209
23.68000 506.303
23.72000 527.213
23.76000 513.795
23.80000 513.199
23.84000 525.955
23.88000 526.601
23.92000 549.540
23.96000 521.768
24.00000 528.779
24.04000 542.469
24.08000 552.059
24.12000 544.650
24.16000 514.824
24.20000 524.616
24.24000 512.193
24.28000 501.008
24.32000 500.604
24.36000 510.883
24.40000 501.385
24.44000 481.184
24.48000 485.322
24.52000 485.547
24.56000 502.841
24.60000 494.892
24.64000 491.894
24.68000 491.611
24.72000 485.182
24.76000 482.805
24.80000 489.723
24.84000 487.231
24.88000 473.478
24.92000 473.259
24.96000 472.415
25.00000 486.536
25.04000 474.448
25.08000 481.785
25.12000 491.179
25.16000 500.263
25.20000 473.519
25.24000 475.035
25.28000 463.772
25.32000 467.221
25.36000 472.799
25.40000 454.139
25.44000 460.936
25.48000 454.953
25.52000 475.737
25.56000 475.320
25.60000 454.842
25.64000 478.044
25.68000 472.565
25.72000 468.072
25.76000 442.215
25.80000 475.139
25.84000 471.518
25.88000 468.783
25.92000 458.329
25.96000 455.963
26.00000 453.127
26.04000 462.291
26.08000 461.023
26.12000 452.116
26.16000 448.385
26.20000 455.960
26.24000 465.575
26.28000 451.770
26.32000 457.358
26.36000 449.264
26.40000 443.871
26.44000 442.498
26.48000 445.916
26.52000 444.077
26.56000 446.268
26.60000 449.429
26.64000 463.424
26.68000 456.315
26.72000 450.400
26.76000 452.230
26.80000 431.926
26.84000 457.161
26.88000 444.124
26.92000 431.426
26.96000 454.954
27.00000 456.697
27.04000 442.431
27.08000 451.972
27.12000 445.515
27.16000 433.103
27.20000 424.413
27.24000 423.538
27.28000 442.019
27.32000 442.824
27.36000 441.349
27.40000 437.555
27.44000 433.378
27.48000 441.690
27.52000 440.765
27.56000 446.496
27.60000 446.542
27.64000 447.616
27.68000 437.165
27.72000 426.941
27.76000 412.037
27.80000 416.382
27.84000 432.571
27.88000 445.720
27.92000 439.283
27.96000 424.903
28.00000 417.443
28.04000 448.249
28.08000 413.456
28.12000 423.579
28.16000 418.319
28.20000 440.121
28.24000 403.932
28.28000 452.816
28.32000 429.785
28.36000 419.585
28.40000 420.731
28.44000 431.293
28.48000 430.494
28.52000 430.998
28.56000 428.795
28.60000 420.221
28.64000 431.704
28.68000 432.105
28.72000 407.768
28.76000 408.868
28.80000 416.656
28.84000 423.694
28.88000 434.846
28.92000 418.076
28.96000 410.432
29.00000 409.962
29.04000 424.134
29.08000 425.779
29.12000 416.333
29.16000 414.186
29.20000 436.255
29.24000 432.228
29.28000 420.948
29.32000 408.670
29.36000 408.095
29.40000 405.214
29.44000 411.602
29.48000 394.748
29.52000 425.965
29.56000 409.839
29.60000 422.857
29.64000 399.807
29.68000 420.449
29.72000 408.393
29.76000 411.296
29.80000 415.415
29.84000 420.249
29.88000 423.319
29.92000 407.202
29.96000 434.914
30.00000 423.083
30.04000 427.838
30.08000 437.891
30.12000 433.585
30.16000 427.219
30.20000 438.294
30.24000 445.844
30.28000 417.766
30.32000 409.247
30.36000 424.814
30.40000 416.131
30.44000 426.225
30.48000 422.345
30.52000 401.645
30.56000 433.652
30.60000 426.623
30.64000 441.295
30.68000 442.921
30.72000 424.385
30.76000 457.932
30.80000 435.059
30.84000 432.098
30.88000 462.903
30.92000 484.903
30.96000 491.922
31.00000 498.511
31.04000 523.035
31.08000 578.050
31.12000 639.839
31.16000 780.192
31.20000 926.649
31.24000 1132.762
31.28000 1369.965
31.32000 1664.484
31.36000 1912.268
31.40000 2078.436
31.44000 2134.297
31.48000 2054.446
31.52000 1867.738
31.56000 1646.037
31.60000 1424.740
31.64000 1131.836
31.68000 952.136
31.72000 796.469
31.76000 699.383
31.80000 618.443
31.84000 558.701
31.88000 515.256
31.92000 487.278
31.96000 476.600
32.00000 460.974
32.04000 447.970
32.08000 419.527
32.12000 420.920
32.16000 426.737
32.20000 408.947
32.24000 398.204
32.28000 412.599
32.32000 400.866
32.36000 405.078
32.40000 414.338
32.44000 399.416
32.48000 395.066
32.52000 361.626
32.56000 372.712
32.60000 374.938
32.64000 391.849
32.68000 391.885
32.72000 372.410
32.76000 392.720
32.80000 382.566
32.84000 390.303
32.88000 380.109
32.92000 384.145
32.96000 403.961
33.00000 383.522
33.04000 374.857
33.08000 371.463
33.12000 367.503
33.16000 349.328
33.20000 345.147
33.24000 348.251
33.28000 348.292
33.32000 348.535
33.36000 357.522
33.40000 344.974
33.44000 333.469
33.48000 344.349
33.52000 349.675
33.56000 339.465
33.60000 354.045
33.64000 343.775
33.68000 340.941
33.72000 332.529
33.76000 335.732
33.80000 337.841
33.84000 341.131
33.88000 349.501
33.92000 335.653
33.96000 345.038
34.00000 332.173
34.04000 335.885
34.08000 345.003
34.12000 344.465
34.16000 353.322
34.20000 338.706
34.24000 332.403
34.28000 354.032
34.32000 347.326
34.36000 345.222
34.40000 341.281
34.44000 348.588
34.48000 334.917
34.52000 331.619
34.56000 340.119
34.60000 345.365
34.64000 329.038
34.68000 323.042
34.72000 332.288
34.76000 331.672
34.80000 317.304
34.84000 326.360
34.88000 323.550
34.92000 321.636
34.96000 319.845
35.00000 318.401
35.04000 323.504
35.08000 339.979
35.12000 329.924
35.16000 330.571
35.20000 330.111
35.24000 318.736
35.28000 311.333
35.32000 299.392
35.36000 317.953
35.40000 309.447
35.44000 317.419
35.48000 300.730
35.52000 319.687
35.56000 299.213
35.60000 316.714
35.64000 316.330
35.68000 321.857
35.72000 304.214
35.76000 319.983
35.80000 292.430
35.84000 299.095
35.88000 311.773
35.92000 311.158
35.96000 298.768
36.00000 307.617
36.04000 307.227
36.08000 302.784
36.12000 303.801
36.16000 287.631
36.20000 309.088
36.24000 304.756
36.28000 287.773
36.32000 298.818
36.36000 313.381
36.40000 281.676
36.44000 292.629
36.48000 318.895
36.52000 289.102
36.56000 299.312
36.60000 288.940
36.64000 289.689
36.68000 298.261
36.72000 286.058
36.76000 287.490
36.80000 308.567
36.84000 298.054
36.88000 289.184
36.92000 311.458
36.96000 293.666
37.00000 290.901
37.04000 320.996
37.08000 308.567
37.12000 291.009
37.16000 304.321
37.20000 306.802
37.24000 295.290
37.28000 299.519
37.32000 293.331
37.36000 309.137
37.40000 301.438
37.44000 290.498
37.48000 296.824
37.52000 292.212
37.56000 289.407
37.60000 287.268
37.64000 316.699
37.68000 301.597
37.72000 309.192
37.76000 267.738
37.80000 291.068
37.84000 293.896
37.88000 291.310
37.92000 293.615
37.96000 277.075
38.00000 284.429
38.04000 293.699
38.08000 301.939
38.12000 306.993
38.16000 312.950
38.20000 294.598
38.24000 299.266
38.28000 313.975
38.32000 318.283
38.36000 325.729
38.40000 328.419
38.44000 348.209
38.48000 370.639
38.52000 417.545
38.56000 498.905
38.60000 572.483
38.64000 701.000
38.68000 849.831
38.72000 945.103
38.76000 1017.253
38.80000 1040.615
38.84000 982.427
38.88000 873.150
38.92000 764.950
38.96000 633.449
39.00000 529.791
39.04000 430.935
39.08000 389.462
39.12000 350.470
39.16000 327.549
39.20000 304.993
39.24000 300.519
39.28000 277.595
39.32000 300.754
39.36000 298.722
39.40000 282.578
39.44000 278.466
39.48000 276.365
39.52000 283.380
39.56000 283.023
39.60000 269.812
39.64000 275.499
39.68000 278.732
39.72000 260.545
39.76000 265.504
39.80000 269.468
39.84000 255.818
39.88000 263.087
39.92000 265.036
39.96000 256.550
40.00000 262.851
40.04000 263.275
40.08000 251.163
40.12000 252.608
40.16000 261.672
40.20000 255.549
40.24000 265.476
40.28000 275.806
40.32000 262.613
40.36000 244.992
40.40000 249.585
40.44000 253.529
40.48000 243.896
40.52000 251.678
40.56000 252.093
40.60000 252.196
40.64000 265.285
40.68000 256.815
40.72000 250.513
40.76000 259.053
40.80000 235.388
40.84000 251.997
40.88000 249.231
40.92000 254.577
40.96000 253.455
41.00000 256.445
41.04000 251.236
41.08000 243.586
41.12000 242.859
41.16000 238.635
41.20000 242.969
41.24000 251.750
41.28000 259.239
41.32000 234.833
41.36000 235.776
41.40000 246.077
41.44000 245.738
41.48000 236.592
41.52000 247.925
41.56000 248.843
41.60000 249.238
41.64000 242.705
41.68000 233.631
41.72000 248.522
41.76000 231.946
41.80000 242.071
41.84000 238.497
41.88000 235.043
41.92000 227.358
41.96000 238.595
42.00000 239.424
42.04000 248.690
42.08000 240.811
42.12000 238.500
42.16000 238.472
42.20000 228.064
42.24000 237.349
42.28000 238.392
42.32000 237.960
42.36000 231.839
42.40000 228.611
42.44000 232.393
42.48000 228.035
42.52000 232.390
42.56000 251.203
42.60000 245.967
42.64000 236.167
42.68000 248.785
42.72000 245.405
42.76000 251.838
42.80000 225.519
42.84000 231.897
42.88000 224.388
42.92000 222.064
42.96000 223.310
43.00000 227.974
43.04000 233.708
43.08000 240.385
43.12000 230.106
43.16000 241.994
43.20000 235.124
43.24000 233.048
43.28000 223.192
43.32000 216.111
43.36000 234.175
43.40000 228.228
43.44000 227.303
43.48000 219.369
43.52000 224.061
43.56000 228.523
43.60000 229.812
43.64000 231.707
43.68000 234.470
43.72000 216.456
43.76000 223.635
43.80000 232.193
43.84000 225.708
43.88000 227.340
43.92000 226.647
43.96000 222.092
44.00000 203.591
44.04000 211.021
44.08000 231.178
44.12000 235.937
44.16000 235.659
44.20000 238.756
44.24000 221.824
44.28000 234.248
44.32000 231.517
44.36000 220.357
44.40000 231.405
44.44000 230.820
44.48000 237.574
44.52000 237.758
44.56000 227.974
44.60000 230.829
44.64000 241.767
44.68000 242.493
44.72000 252.344
44.76000 256.936
44.80000 239.232
44.84000 241.062
44.88000 259.828
44.92000 264.797
44.96000 264.133
45.00000 276.192
45.04000 304.681
45.08000 295.788
45.12000 295.287
45.16000 298.359
45.20000 301.010
45.24000 296.151
45.28000 307.034
45.32000 304.791
45.36000 295.492
45.40000 268.063
45.44000 271.497
45.48000 260.756
45.52000 264.319
45.56000 252.666
45.60000 253.084
45.64000 258.601
45.68000 252.199
45.72000 229.991
45.76000 244.527
45.80000 235.060
45.84000 220.897
45.88000 224.141
45.92000 220.361
45.96000 219.776
46.00000 217.634
46.04000 228.596
46.08000 213.782
46.12000 210.109
46.16000 209.489
46.20000 205.468
46.24000 213.598
46.28000 213.526
46.32000 214.009
46.36000 216.192
46.40000 210.573
46.44000 195.148
46.48000 200.395
46.52000 200.545
46.56000 223.690
46.60000 218.271
46.64000 200.839
46.68000 213.795
46.72000 201.840
46.76000 201.955
46.80000 214.505
46.84000 215.763
46.88000 210.682
46.92000 200.629
46.96000 197.614
47.00000 215.124
47.04000 205.931
47.08000 196.913
47.12000 201.321
47.16000 199.412
47.20000 191.957
47.24000 203.144
47.28000 186.819
47.32000 190.532
47.36000 190.052
47.40000 181.699
47.44000 199.473
47.48000 200.431
47.52000 180.477
47.56000 197.210
47.60000 197.253
47.64000 186.734
47.68000 190.962
47.72000 190.233
47.76000 184.321
47.80000 185.500
47.84000 191.836
47.88000 184.583
47.92000 195.034
47.96000 186.647
48.00000 192.584
48.04000 180.191
48.08000 178.467
48.12000 187.627
48.16000 181.441
48.20000 192.229
48.24000 184.154
48.28000 194.454
48.32000 193.147
48.36000 182.474
48.40000 184.385
48.44000 183.542
48.48000 179.845
48.52000 179.987
48.56000 173.582
48.60000 171.201
48.64000 176.627
48.68000 186.205
48.72000 180.546
48.76000 180.061
48.80000 164.900
48.84000 187.972
48.88000 181.113
48.92000 189.375
48.96000 175.843
49.00000 174.316
49.04000 171.690
49.08000 179.748
49.12000 178.802
49.16000 179.404
49.20000 175.644
49.24000 169.624
49.28000 181.720
49.32000 184.479
49.36000 174.405
49.40000 174.430
49.44000 169.136
49.48000 175.589
49.52000 174.457
49.56000 180.725
49.60000 176.502
49.64000 180.101
49.68000 178.472
49.72000 178.942
49.76000 163.476
49.80000 177.501
49.84000 158.689
49.88000 182.237
49.92000 173.067
49.96000 184.278
50.00000 182.657
50.04000 167.687
50.08000 173.028
50.12000 172.839
50.16000 176.618
50.20000 176.477
50.24000 176.047
50.28000 166.302
50.32000 180.660
50.36000 177.257
50.40000 184.644
50.44000 187.907
50.48000 182.853
50.52000 180.592
50.56000 192.187
50.60000 203.408
50.64000 209.215
50.68000 226.564
50.72000 227.397
50.76000 228.194
50.80000 227.872
50.84000 239.181
50.88000 226.875
50.92000 221.697
50.96000 207.968
51.00000 209.602
51.04000 203.300
51.08000 186.597
51.12000 193.450
51.16000 187.836
51.20000 182.094
51.24000 177.369
51.28000 179.697
51.32000 179.374
51.36000 164.379
51.40000 164.983
51.44000 175.686
51.48000 169.949
51.52000 158.507
51.56000 158.529
51.60000 169.917
51.64000 174.997
51.68000 157.729
51.72000 158.600
51.76000 168.566
51.80000 167.548
51.84000 153.774
51.88000 165.980
51.92000 162.637
51.96000 164.690
52.00000 172.833
52.04000 167.281
52.08000 159.715
52.12000 169.865
52.16000 162.703
52.20000 165.598
52.24000 160.077
52.28000 157.514
52.32000 164.310
52.36000 161.433
52.40000 159.718
52.44000 161.670
52.48000 152.676
52.52000 155.025
52.56000 149.251
52.60000 166.998
52.64000 160.925
52.68000 173.281
52.72000 155.043
52.76000 165.120
52.80000 154.277
52.84000 156.755
52.88000 157.659
52.92000 161.103
52.96000 151.971
53.00000 160.764
53.04000 148.937
53.08000 168.692
53.12000 166.057
53.16000 154.678
53.20000 154.097
53.24000 150.958
53.28000 158.953
53.32000 156.230
53.36000 157.922
53.40000 154.270
53.44000 156.630
53.48000 160.615
53.52000 155.296
53.56000 167.869
53.60000 166.911
53.64000 152.396
53.68000 148.604
53.72000 155.370
53.76000 153.907
53.80000 151.654
53.84000 156.460
53.88000 160.232
53.92000 154.206
53.96000 150.198
54.00000 149.938
54.04000 163.155
54.08000 150.916
54.12000 157.798
54.16000 157.072
54.20000 153.292
54.24000 162.095
54.28000 151.873
54.32000 151.833
54.36000 160.263
54.40000 156.698
54.44000 150.121
54.48000 150.292
54.52000 157.383
54.56000 159.215
54.60000 149.350
54.64000 160.771
54.68000 163.141
54.72000 152.952
54.76000 151.728
54.80000 159.120
54.84000 150.818
54.88000 145.490
54.92000 161.394
54.96000 155.304
55.00000 156.705
55.04000 152.891
55.08000 149.908
55.12000 159.256
55.16000 159.580
55.20000 160.983
55.24000 150.628
55.28000 167.748
55.32000 177.020
55.36000 173.659
55.40000 170.024
55.44000 183.153
55.48000 175.879
55.52000 176.801
55.56000 185.889
55.60000 203.383
55.64000 209.028
55.68000 217.167
55.72000 230.342
55.76000 273.602
55.80000 293.843
55.84000 364.439
55.88000 423.042
55.92000 490.428
55.96000 526.121
56.00000 584.900
56.04000 598.545
56.08000 615.446
56.12000 592.827
56.16000 539.227
56.20000 470.113
56.24000 425.514
56.28000 363.937
56.32000 329.951
56.36000 281.752
56.40000 253.781
56.44000 242.049
56.48000 235.042
56.52000 199.673
56.56000 194.907
56.60000 188.594
56.64000 188.556
56.68000 177.343
56.72000 169.808
56.76000 166.994
56.80000 155.124
56.84000 166.830
56.88000 150.291
56.92000 139.355
56.96000 151.831
57.00000 150.357
57.04000 153.568
57.08000 146.645
57.12000 144.225
57.16000 140.879
57.20000 143.461
57.24000 154.229
57.28000 156.425
57.32000 146.225
57.36000 143.603
57.40000 136.593
57.44000 148.978
57.48000 145.181
57.52000 142.924
57.56000 136.293
57.60000 129.765
57.64000 149.065
57.68000 136.222
57.72000 142.191
57.76000 162.047
57.80000 140.874
57.84000 144.121
57.88000 138.570
57.92000 125.164
57.96000 139.655
58.00000 139.132
58.04000 146.412
58.08000 142.274
58.12000 152.725
58.16000 136.675
58.20000 143.419
58.24000 144.949
58.28000 142.363
58.32000 144.950
58.36000 138.035
58.40000 134.733
58.44000 144.916
58.48000 135.420
58.52000 126.786
58.56000 136.030
58.60000 142.700
58.64000 144.250
58.68000 140.158
58.72000 141.469
58.76000 126.954
58.80000 140.162
58.84000 136.908
58.88000 134.086
58.92000 135.392
58.96000 136.660
59.00000 142.750
59.04000 127.191
59.08000 137.493
59.12000 145.269
59.16000 139.655
59.20000 138.452
59.24000 135.773
59.28000 153.187
59.32000 137.873
59.36000 140.764
59.40000 140.063
59.44000 144.212
59.48000 143.939
59.52000 139.236
59.56000 136.290
59.60000 130.278
59.64000 132.831
59.68000 138.674
59.72000 135.219
59.76000 133.532
59.80000 132.389
59.84000 125.666
59.88000 135.300
59.92000 139.610
59.96000 139.410
60.00000 132.794
60.04000 126.986
60.08000 139.517
60.12000 142.232
60.16000 136.685
60.20000 132.447
60.24000 128.083
60.28000 134.359
60.32000 132.507
60.36000 133.259
60.40000 145.016
60.44000 128.626
60.48000 138.645
60.52000 135.252
60.56000 131.094
60.60000 134.416
60.64000 143.477
60.68000 133.714
60.72000 141.735
60.76000 140.673
60.80000 134.340
60.84000 133.432
60.88000 128.457
60.92000 140.669
60.96000 138.362
61.00000 127.508
61.04000 126.456
61.08000 139.144
61.12000 133.804
61.16000 142.093
61.20000 134.113
61.24000 143.156
61.28000 135.099
61.32000 136.262
61.36000 146.978
61.40000 135.756
61.44000 136.195
61.48000 152.197
61.52000 145.174
61.56000 192.743
61.60000 219.497
61.64000 254.105
61.68000 267.421
61.72000 269.117
61.76000 266.555
61.80000 233.103
61.84000 181.841
61.88000 156.456
61.92000 142.637
61.96000 150.430
62.00000 142.140
62.04000 141.818
62.08000 141.639
62.12000 140.065
62.16000 146.797
62.20000 130.534
62.24000 144.467
62.28000 142.329
62.32000 144.560
62.36000 139.461
62.40000 135.293
62.44000 142.102
62.48000 143.209
62.52000 133.290
62.56000 143.685
62.60000 141.726
62.64000 140.736
62.68000 151.817
62.72000 137.396
62.76000 141.182
62.80000 154.182
62.84000 131.963
62.88000 136.763
62.92000 144.326
62.96000 145.183
63.00000 149.620
63.04000 147.201
63.08000 140.428
63.12000 148.485
63.16000 139.584
63.20000 135.233
63.24000 143.111
63.28000 143.942
63.32000 149.715
63.36000 156.099
63.40000 141.745
63.44000 143.836
63.48000 156.377
63.52000 148.565
63.56000 154.013
63.60000 147.122
63.64000 151.943
63.68000 150.529
63.72000 150.277
63.76000 153.383
63.80000 155.062
63.84000 151.641
63.88000 163.698
63.92000 153.468
63.96000 145.544
64.00000 159.856
64.04000 150.724
64.08000 173.648
64.12000 160.059
64.16000 168.069
64.20000 154.977
64.24000 168.380
64.28000 157.193
64.32000 162.758
64.36000 163.230
64.40000 148.870
64.44000 158.480
64.48000 174.888
64.52000 167.300
64.56000 169.915
64.60000 166.872
64.64000 164.769
64.68000 162.991
64.72000 166.261
64.76000 174.179
64.80000 180.123
64.84000 179.844
64.88000 181.808
64.92000 180.381
64.96000 190.707
65.00000 183.774
65.04000 183.322
65.08000 197.055
65.12000 213.836
65.16000 199.403
65.20000 199.849
65.24000 216.049
65.28000 211.879
65.32000 225.934
65.36000 237.122
65.40000 244.073
65.44000 267.174
65.48000 286.932
65.52000 288.425
65.56000 297.304
65.60000 329.980
65.64000 370.274
65.68000 419.286
65.72000 545.417
65.76000 684.508
65.80000 885.251
65.84000 1015.227
65.88000 1013.687
65.92000 988.397
65.96000 917.704
66.00000 683.289
66.04000 486.022
66.08000 371.984
66.12000 328.506
66.16000 319.274
66.20000 299.816
66.24000 302.991
66.28000 312.182
66.32000 364.150
66.36000 425.785
66.40000 423.474
66.44000 419.518
66.48000 409.704
66.52000 409.494
66.56000 372.909
66.60000 336.412
66.64000 313.981
66.68000 320.119
66.72000 316.443
66.76000 325.511
66.80000 319.338
66.84000 312.130
66.88000 340.907
66.92000 332.112
66.96000 327.072
67.00000 337.687
67.04000 340.641
67.08000 335.644
67.12000 347.848
67.16000 350.798
67.20000 362.042
67.24000 374.860
67.28000 371.352
67.32000 361.127
67.36000 367.469
67.40000 385.929
67.44000 390.487
67.48000 402.755
67.52000 407.358
67.56000 416.398
67.60000 433.552
67.64000 430.053
67.68000 454.631
67.72000 434.877
67.76000 454.721
67.80000 452.496
67.84000 468.831
67.88000 481.745
67.92000 511.529
67.96000 512.725
68.00000 502.947
68.04000 530.465
68.08000 547.514
68.12000 550.323
68.16000 556.815
68.20000 564.047
68.24000 592.588
68.28000 603.577
68.32000 620.470
68.36000 632.065
68.40000 666.462
68.44000 693.210
68.48000 730.872
68.52000 767.268
68.56000 814.623
68.60000 904.214
68.64000 1042.228
68.68000 1229.816
68.72000 1421.087
68.76000 1573.236
68.80000 1811.130
68.84000 2075.807
68.88000 2551.440
68.92000 4025.574
68.96000 9099.066
69.00000 22297.805
69.04000 40228.816
69.08000 51519.309
69.12000 53884.988
69.16000 55771.031
69.20000 57564.215
69.24000 50797.289
69.28000 38482.297
69.32000 30654.158
69.36000 27723.129
69.40000 24010.350
69.44000 16190.422
69.48000 7697.824
69.52000 3402.050
69.56000 1991.106
69.60000 1521.181
69.64000 1280.445
69.68000 1111.258
69.72000 985.291
69.76000 892.911
69.80000 847.991
69.84000 813.433
69.88000 756.480
69.92000 715.651
69.96000 673.271
70.00000 672.581