File: XRD/XRD/22-09-2025 Dep 2/XY Data/BTO_Mapping_Theta2Theta_22-09-2025_001_39_-30-000_0-000.xy
20.00000 587.214
20.04000 562.509
20.08000 553.104
20.12000 577.402
20.16000 574.545
20.20000 560.597
20.24000 579.233
20.28000 572.664
20.32000 566.351
20.36000 579.942
20.40000 559.432
20.44000 566.967
20.48000 566.241
20.52000 550.234
20.56000 570.436
20.60000 560.206
20.64000 560.554
20.68000 557.624
20.72000 589.478
20.76000 551.962
20.80000 560.745
20.84000 552.552
20.88000 557.685
20.92000 553.079
20.96000 577.509
21.00000 585.652
21.04000 558.291
21.08000 556.722
21.12000 565.618
21.16000 576.788
21.20000 565.875
21.24000 571.992
21.28000 555.219
21.32000 558.054
21.36000 560.832
21.40000 570.483
21.44000 572.245
21.48000 583.431
21.52000 586.971
21.56000 570.396
21.60000 594.705
21.64000 628.921
21.68000 628.482
21.72000 657.466
21.76000 684.451
21.80000 730.292
21.84000 778.755
21.88000 836.156
21.92000 878.812
21.96000 917.655
22.00000 927.087
22.04000 875.785
22.08000 857.730
22.12000 827.273
22.16000 755.275
22.20000 711.573
22.24000 671.273
22.28000 650.988
22.32000 619.655
22.36000 606.102
22.40000 574.420
22.44000 582.572
22.48000 563.417
22.52000 574.750
22.56000 556.445
22.60000 558.582
22.64000 552.942
22.68000 542.390
22.72000 544.600
22.76000 554.214
22.80000 521.602
22.84000 530.899
22.88000 523.790
22.92000 511.482
22.96000 516.425
23.00000 516.597
23.04000 510.898
23.08000 526.722
23.12000 499.039
23.16000 507.450
23.20000 523.485
23.24000 518.866
23.28000 511.241
23.32000 504.228
23.36000 526.791
23.40000 515.180
23.44000 513.342
23.48000 502.399
23.52000 507.869
23.56000 488.675
23.60000 509.230
23.64000 511.807
23.68000 534.855
23.72000 516.433
23.76000 502.529
23.80000 509.690
23.84000 504.267
23.88000 516.424
23.92000 506.414
23.96000 504.812
24.00000 506.009
24.04000 499.999
24.08000 520.586
24.12000 497.171
24.16000 510.199
24.20000 485.259
24.24000 498.741
24.28000 482.129
24.32000 501.143
24.36000 491.889
24.40000 483.061
24.44000 508.522
24.48000 485.870
24.52000 498.251
24.56000 512.162
24.60000 502.675
24.64000 495.393
24.68000 483.700
24.72000 493.065
24.76000 480.356
24.80000 495.680
24.84000 491.485
24.88000 499.011
24.92000 523.291
24.96000 484.293
25.00000 477.049
25.04000 479.286
25.08000 486.019
25.12000 492.663
25.16000 493.225
25.20000 476.493
25.24000 484.814
25.28000 495.667
25.32000 486.147
25.36000 472.334
25.40000 490.934
25.44000 476.011
25.48000 468.532
25.52000 466.145
25.56000 469.761
25.60000 465.741
25.64000 499.689
25.68000 472.884
25.72000 458.764
25.76000 471.808
25.80000 471.054
25.84000 465.405
25.88000 475.052
25.92000 466.411
25.96000 450.140
26.00000 484.282
26.04000 469.106
26.08000 482.833
26.12000 456.738
26.16000 457.576
26.20000 473.566
26.24000 468.512
26.28000 455.788
26.32000 466.805
26.36000 446.150
26.40000 449.686
26.44000 455.429
26.48000 459.034
26.52000 468.484
26.56000 492.649
26.60000 459.319
26.64000 461.811
26.68000 455.185
26.72000 451.168
26.76000 481.960
26.80000 458.593
26.84000 464.687
26.88000 453.234
26.92000 455.402
26.96000 453.379
27.00000 467.388
27.04000 452.405
27.08000 434.259
27.12000 476.104
27.16000 453.057
27.20000 444.405
27.24000 450.060
27.28000 473.007
27.32000 451.543
27.36000 444.790
27.40000 467.425
27.44000 464.055
27.48000 446.104
27.52000 458.679
27.56000 435.260
27.60000 441.201
27.64000 428.236
27.68000 454.341
27.72000 441.103
27.76000 428.695
27.80000 439.383
27.84000 439.731
27.88000 448.369
27.92000 446.288
27.96000 446.911
28.00000 450.679
28.04000 441.272
28.08000 428.788
28.12000 443.684
28.16000 449.487
28.20000 443.326
28.24000 447.607
28.28000 432.991
28.32000 429.210
28.36000 447.031
28.40000 437.519
28.44000 427.860
28.48000 445.104
28.52000 432.653
28.56000 410.727
28.60000 435.850
28.64000 431.042
28.68000 436.514
28.72000 416.609
28.76000 434.609
28.80000 445.693
28.84000 434.224
28.88000 433.679
28.92000 430.397
28.96000 438.573
29.00000 429.569
29.04000 425.265
29.08000 423.996
29.12000 445.840
29.16000 427.650
29.20000 441.552
29.24000 422.839
29.28000 398.369
29.32000 414.011
29.36000 426.670
29.40000 413.549
29.44000 426.752
29.48000 407.789
29.52000 424.262
29.56000 427.356
29.60000 435.894
29.64000 426.131
29.68000 415.688
29.72000 424.392
29.76000 444.221
29.80000 446.915
29.84000 464.757
29.88000 479.693
29.92000 456.879
29.96000 463.870
30.00000 473.632
30.04000 468.091
30.08000 469.816
30.12000 476.222
30.16000 462.811
30.20000 472.699
30.24000 427.590
30.28000 444.698
30.32000 438.294
30.36000 447.141
30.40000 445.844
30.44000 435.523
30.48000 446.732
30.52000 448.256
30.56000 453.003
30.60000 472.170
30.64000 489.615
30.68000 449.701
30.72000 457.275
30.76000 495.109
30.80000 493.818
30.84000 497.887
30.88000 523.737
30.92000 570.082
30.96000 645.699
31.00000 746.356
31.04000 971.504
31.08000 1288.114
31.12000 1898.935
31.16000 2629.260
31.20000 3442.635
31.24000 4221.313
31.28000 4783.250
31.32000 5023.833
31.36000 4850.820
31.40000 4415.774
31.44000 3625.866
31.48000 2836.407
31.52000 2179.206
31.56000 1639.412
31.60000 1302.630
31.64000 995.341
31.68000 798.535
31.72000 687.291
31.76000 615.185
31.80000 556.867
31.84000 516.724
31.88000 491.182
31.92000 451.132
31.96000 446.285
32.00000 446.337
32.04000 426.121
32.08000 429.106
32.12000 425.893
32.16000 423.939
32.20000 423.937
32.24000 414.143
32.28000 400.737
32.32000 392.751
32.36000 405.670
32.40000 411.325
32.44000 393.847
32.48000 396.267
32.52000 401.201
32.56000 401.317
32.60000 411.375
32.64000 415.546
32.68000 409.417
32.72000 397.377
32.76000 402.355
32.80000 398.640
32.84000 416.392
32.88000 448.251
32.92000 437.926
32.96000 418.477
33.00000 428.919
33.04000 423.554
33.08000 392.988
33.12000 400.485
33.16000 385.623
33.20000 367.325
33.24000 372.269
33.28000 368.523
33.32000 358.908
33.36000 347.420
33.40000 350.270
33.44000 351.145
33.48000 367.351
33.52000 368.496
33.56000 349.567
33.60000 355.290
33.64000 339.192
33.68000 351.504
33.72000 356.434
33.76000 354.604
33.80000 357.451
33.84000 354.432
33.88000 342.376
33.92000 346.571
33.96000 356.467
34.00000 326.830
34.04000 344.150
34.08000 345.379
34.12000 345.896
34.16000 349.001
34.20000 339.962
34.24000 334.585
34.28000 337.440
34.32000 332.703
34.36000 334.259
34.40000 333.529
34.44000 344.325
34.48000 336.262
34.52000 333.670
34.56000 336.505
34.60000 337.596
34.64000 336.471
34.68000 331.161
34.72000 328.036
34.76000 324.853
34.80000 335.969
34.84000 341.342
34.88000 347.988
34.92000 315.238
34.96000 325.534
35.00000 329.019
35.04000 316.669
35.08000 317.938
35.12000 306.915
35.16000 311.288
35.20000 329.629
35.24000 324.794
35.28000 334.764
35.32000 335.143
35.36000 336.233
35.40000 327.477
35.44000 329.187
35.48000 317.905
35.52000 316.990
35.56000 334.681
35.60000 315.995
35.64000 313.564
35.68000 316.301
35.72000 312.316
35.76000 308.695
35.80000 306.592
35.84000 309.241
35.88000 323.326
35.92000 316.882
35.96000 313.908
36.00000 304.033
36.04000 304.113
36.08000 298.548
36.12000 303.472
36.16000 308.069
36.20000 312.329
36.24000 312.151
36.28000 295.686
36.32000 316.971
36.36000 307.315
36.40000 291.917
36.44000 303.306
36.48000 303.919
36.52000 300.724
36.56000 305.808
36.60000 310.543
36.64000 311.917
36.68000 309.251
36.72000 308.380
36.76000 319.343
36.80000 321.815
36.84000 311.272
36.88000 332.464
36.92000 317.441
36.96000 311.010
37.00000 315.317
37.04000 314.301
37.08000 308.637
37.12000 326.047
37.16000 312.239
37.20000 311.491
37.24000 321.044
37.28000 310.002
37.32000 317.220
37.36000 325.813
37.40000 314.544
37.44000 320.376
37.48000 307.219
37.52000 302.294
37.56000 312.380
37.60000 304.332
37.64000 298.734
37.68000 305.077
37.72000 314.450
37.76000 302.455
37.80000 318.804
37.84000 299.258
37.88000 317.949
37.92000 320.563
37.96000 321.194
38.00000 315.624
38.04000 329.100
38.08000 330.405
38.12000 346.108
38.16000 362.465
38.20000 344.028
38.24000 355.048
38.28000 388.478
38.32000 400.241
38.36000 442.209
38.40000 461.210
38.44000 514.629
38.48000 531.491
38.52000 590.719
38.56000 626.730
38.60000 636.573
38.64000 621.442
38.68000 627.413
38.72000 583.604
38.76000 545.547
38.80000 495.769
38.84000 461.162
38.88000 422.668
38.92000 403.960
38.96000 355.932
39.00000 328.692
39.04000 349.173
39.08000 325.664
39.12000 306.243
39.16000 321.822
39.20000 310.466
39.24000 305.952
39.28000 295.008
39.32000 313.801
39.36000 291.904
39.40000 295.962
39.44000 286.027
39.48000 285.667
39.52000 295.653
39.56000 278.220
39.60000 278.787
39.64000 276.517
39.68000 270.796
39.72000 259.360
39.76000 284.242
39.80000 276.917
39.84000 265.136
39.88000 282.658
39.92000 280.558
39.96000 287.988
40.00000 276.828
40.04000 272.067
40.08000 274.374
40.12000 263.834
40.16000 276.133
40.20000 279.854
40.24000 273.025
40.28000 271.654
40.32000 270.709
40.36000 258.615
40.40000 264.083
40.44000 263.916
40.48000 269.869
40.52000 263.195
40.56000 266.468
40.60000 249.139
40.64000 252.056
40.68000 261.304
40.72000 264.494
40.76000 265.571
40.80000 257.224
40.84000 273.518
40.88000 248.055
40.92000 265.677
40.96000 263.595
41.00000 277.188
41.04000 269.878
41.08000 241.509
41.12000 256.432
41.16000 248.241
41.20000 242.402
41.24000 259.222
41.28000 252.768
41.32000 261.134
41.36000 263.237
41.40000 268.830
41.44000 262.739
41.48000 246.747
41.52000 252.807
41.56000 247.711
41.60000 238.481
41.64000 254.579
41.68000 258.921
41.72000 261.204
41.76000 254.338
41.80000 246.100
41.84000 240.124
41.88000 247.046
41.92000 249.052
41.96000 248.235
42.00000 242.938
42.04000 246.119
42.08000 244.778
42.12000 259.378
42.16000 241.571
42.20000 240.612
42.24000 246.330
42.28000 240.985
42.32000 238.871
42.36000 268.906
42.40000 239.635
42.44000 228.072
42.48000 241.314
42.52000 248.328
42.56000 236.354
42.60000 247.151
42.64000 237.769
42.68000 239.502
42.72000 256.784
42.76000 236.086
42.80000 234.355
42.84000 240.224
42.88000 245.541
42.92000 237.908
42.96000 234.257
43.00000 245.857
43.04000 252.866
43.08000 239.063
43.12000 245.435
43.16000 233.603
43.20000 230.598
43.24000 237.779
43.28000 233.684
43.32000 232.423
43.36000 240.948
43.40000 229.641
43.44000 235.019
43.48000 242.216
43.52000 222.399
43.56000 234.198
43.60000 224.127
43.64000 233.646
43.68000 223.755
43.72000 236.461
43.76000 232.603
43.80000 231.487
43.84000 226.547
43.88000 239.275
43.92000 230.161
43.96000 234.583
44.00000 236.413
44.04000 248.698
44.08000 238.249
44.12000 241.910
44.16000 244.617
44.20000 253.030
44.24000 246.099
44.28000 245.970
44.32000 268.174
44.36000 260.889
44.40000 274.040
44.44000 294.132
44.48000 286.700
44.52000 298.152
44.56000 323.240
44.60000 346.921
44.64000 387.339
44.68000 404.058
44.72000 444.877
44.76000 463.056
44.80000 497.927
44.84000 523.975
44.88000 535.776
44.92000 537.133
44.96000 508.963
45.00000 502.899
45.04000 489.446
45.08000 458.670
45.12000 429.131
45.16000 424.258
45.20000 396.120
45.24000 382.664
45.28000 348.881
45.32000 322.168
45.36000 337.419
45.40000 309.337
45.44000 286.180
45.48000 283.376
45.52000 272.683
45.56000 266.044
45.60000 248.260
45.64000 257.035
45.68000 260.549
45.72000 255.530
45.76000 239.691
45.80000 245.251
45.84000 240.450
45.88000 228.752
45.92000 221.149
45.96000 230.457
46.00000 230.778
46.04000 219.134
46.08000 206.338
46.12000 211.230
46.16000 209.679
46.20000 202.278
46.24000 205.975
46.28000 213.554
46.32000 216.557
46.36000 210.890
46.40000 218.105
46.44000 218.729
46.48000 199.378
46.52000 208.309
46.56000 207.290
46.60000 212.059
46.64000 207.129
46.68000 207.855
46.72000 206.604
46.76000 207.194
46.80000 207.128
46.84000 202.757
46.88000 201.083
46.92000 200.361
46.96000 202.924
47.00000 199.298
47.04000 199.950
47.08000 190.225
47.12000 203.648
47.16000 208.579
47.20000 191.712
47.24000 198.320
47.28000 198.119
47.32000 187.142
47.36000 212.862
47.40000 181.081
47.44000 186.389
47.48000 206.018
47.52000 212.174
47.56000 204.010
47.60000 193.333
47.64000 181.572
47.68000 194.595
47.72000 200.273
47.76000 177.366
47.80000 191.430
47.84000 188.866
47.88000 189.087
47.92000 190.100
47.96000 195.842
48.00000 200.317
48.04000 198.528
48.08000 187.453
48.12000 191.867
48.16000 192.230
48.20000 190.174
48.24000 192.756
48.28000 176.967
48.32000 200.542
48.36000 177.918
48.40000 175.633
48.44000 195.328
48.48000 194.291
48.52000 184.097
48.56000 181.582
48.60000 190.619
48.64000 193.575
48.68000 198.104
48.72000 190.034
48.76000 180.392
48.80000 190.333
48.84000 189.950
48.88000 189.434
48.92000 189.743
48.96000 182.334
49.00000 178.048
49.04000 182.120
49.08000 183.720
49.12000 190.488
49.16000 184.481
49.20000 177.749
49.24000 195.677
49.28000 186.389
49.32000 192.834
49.36000 169.881
49.40000 183.456
49.44000 178.588
49.48000 183.341
49.52000 183.865
49.56000 182.638
49.60000 182.285
49.64000 187.665
49.68000 173.429
49.72000 178.818
49.76000 187.591
49.80000 184.783
49.84000 199.132
49.88000 190.895
49.92000 178.818
49.96000 189.110
50.00000 190.711
50.04000 186.309
50.08000 199.175
50.12000 193.374
50.16000 192.240
50.20000 199.289
50.24000 211.869
50.28000 220.142
50.32000 222.126
50.36000 233.356
50.40000 256.572
50.44000 279.101
50.48000 277.560
50.52000 295.538
50.56000 295.988
50.60000 264.019
50.64000 285.691
50.68000 281.333
50.72000 265.654
50.76000 261.291
50.80000 233.910
50.84000 223.161
50.88000 215.404
50.92000 208.172
50.96000 209.915
51.00000 197.811
51.04000 200.739
51.08000 191.846
51.12000 200.207
51.16000 197.688
51.20000 189.843
51.24000 183.653
51.28000 184.311
51.32000 182.206
51.36000 169.683
51.40000 191.183
51.44000 179.702
51.48000 175.511
51.52000 169.024
51.56000 172.304
51.60000 170.315
51.64000 178.869
51.68000 174.853
51.72000 163.890
51.76000 172.311
51.80000 170.273
51.84000 181.068
51.88000 177.196
51.92000 170.322
51.96000 176.957
52.00000 158.359
52.04000 163.467
52.08000 161.382
52.12000 167.966
52.16000 167.654
52.20000 178.703
52.24000 167.058
52.28000 156.783
52.32000 163.647
52.36000 169.584
52.40000 173.746
52.44000 166.589
52.48000 180.583
52.52000 171.038
52.56000 163.934
52.60000 170.286
52.64000 174.120
52.68000 173.904
52.72000 161.421
52.76000 168.625
52.80000 169.911
52.84000 166.187
52.88000 169.117
52.92000 162.076
52.96000 169.830
53.00000 160.611
53.04000 170.810
53.08000 175.626
53.12000 151.774
53.16000 165.645
53.20000 163.244
53.24000 175.019
53.28000 170.973
53.32000 168.912
53.36000 163.638
53.40000 185.826
53.44000 171.898
53.48000 174.036
53.52000 168.620
53.56000 171.014
53.60000 158.897
53.64000 154.959
53.68000 165.852
53.72000 173.055
53.76000 160.656
53.80000 164.283
53.84000 155.364
53.88000 154.213
53.92000 156.068
53.96000 160.210
54.00000 173.736
54.04000 165.233
54.08000 158.781
54.12000 154.326
54.16000 168.645
54.20000 167.257
54.24000 163.103
54.28000 156.404
54.32000 156.112
54.36000 164.374
54.40000 163.592
54.44000 166.309
54.48000 154.895
54.52000 166.864
54.56000 156.068
54.60000 158.043
54.64000 157.150
54.68000 161.005
54.72000 151.312
54.76000 169.493
54.80000 160.235
54.84000 170.341
54.88000 163.637
54.92000 168.755
54.96000 173.745
55.00000 168.426
55.04000 171.932
55.08000 177.592
55.12000 180.149
55.16000 183.608
55.20000 173.369
55.24000 186.415
55.28000 190.358
55.32000 211.027
55.36000 239.834
55.40000 261.460
55.44000 276.855
55.48000 312.519
55.52000 340.705
55.56000 402.039
55.60000 434.910
55.64000 481.492
55.68000 527.550
55.72000 537.281
55.76000 560.768
55.80000 548.893
55.84000 534.334
55.88000 499.032
55.92000 458.934
55.96000 443.443
56.00000 382.545
56.04000 347.122
56.08000 317.118
56.12000 304.941
56.16000 264.217
56.20000 242.960
56.24000 233.224
56.28000 228.626
56.32000 212.496
56.36000 203.332
56.40000 193.850
56.44000 178.263
56.48000 178.299
56.52000 174.231
56.56000 168.685
56.60000 177.724
56.64000 171.757
56.68000 164.360
56.72000 164.707
56.76000 180.078
56.80000 167.853
56.84000 170.144
56.88000 146.756
56.92000 152.689
56.96000 151.551
57.00000 157.376
57.04000 155.018
57.08000 164.059
57.12000 146.641
57.16000 147.931
57.20000 155.393
57.24000 159.037
57.28000 155.269
57.32000 143.130
57.36000 147.435
57.40000 153.314
57.44000 144.792
57.48000 153.316
57.52000 144.018
57.56000 148.882
57.60000 144.952
57.64000 141.525
57.68000 145.881
57.72000 126.777
57.76000 141.452
57.80000 131.435
57.84000 150.838
57.88000 143.338
57.92000 144.459
57.96000 139.052
58.00000 144.583
58.04000 141.142
58.08000 141.409
58.12000 151.650
58.16000 144.336
58.20000 140.140
58.24000 143.281
58.28000 145.501
58.32000 150.399
58.36000 144.269
58.40000 139.567
58.44000 137.941
58.48000 144.097
58.52000 132.454
58.56000 138.813
58.60000 143.659
58.64000 141.824
58.68000 143.090
58.72000 137.703
58.76000 156.408
58.80000 139.294
58.84000 139.688
58.88000 140.721
58.92000 145.773
58.96000 126.490
59.00000 138.597
59.04000 140.020
59.08000 129.973
59.12000 136.230
59.16000 143.472
59.20000 137.775
59.24000 137.769
59.28000 136.232
59.32000 147.226
59.36000 133.221
59.40000 131.893
59.44000 141.089
59.48000 138.379
59.52000 141.075
59.56000 141.175
59.60000 141.631
59.64000 134.842
59.68000 125.587
59.72000 142.882
59.76000 137.910
59.80000 127.036
59.84000 136.512
59.88000 134.198
59.92000 130.300
59.96000 125.495
60.00000 134.145
60.04000 125.849
60.08000 147.073
60.12000 148.434
60.16000 132.672
60.20000 136.495
60.24000 138.082
60.28000 130.476
60.32000 126.053
60.36000 135.654
60.40000 138.234
60.44000 129.243
60.48000 130.795
60.52000 144.669
60.56000 137.941
60.60000 137.671
60.64000 136.724
60.68000 137.445
60.72000 143.175
60.76000 133.408
60.80000 139.653
60.84000 129.350
60.88000 134.031
60.92000 160.340
60.96000 139.630
61.00000 127.762
61.04000 145.204
61.08000 139.607
61.12000 154.007
61.16000 144.724
61.20000 138.910
61.24000 134.880
61.28000 135.351
61.32000 140.282
61.36000 145.606
61.40000 155.134
61.44000 151.166
61.48000 153.258
61.52000 189.007
61.56000 245.761
61.60000 292.190
61.64000 345.609
61.68000 366.439
61.72000 370.624
61.76000 319.535
61.80000 278.717
61.84000 209.221
61.88000 164.914
61.92000 157.678
61.96000 161.701
62.00000 147.576
62.04000 143.466
62.08000 158.870
62.12000 146.011
62.16000 148.140
62.20000 155.337
62.24000 143.201
62.28000 158.818
62.32000 148.317
62.36000 150.980
62.40000 153.292
62.44000 152.232
62.48000 143.818
62.52000 135.862
62.56000 151.406
62.60000 157.356
62.64000 157.510
62.68000 147.118
62.72000 141.772
62.76000 152.496
62.80000 145.471
62.84000 150.297
62.88000 142.499
62.92000 151.490
62.96000 150.516
63.00000 154.177
63.04000 156.650
63.08000 154.065
63.12000 151.789
63.16000 152.825
63.20000 146.538
63.24000 144.016
63.28000 147.911
63.32000 153.321
63.36000 155.331
63.40000 150.943
63.44000 160.804
63.48000 144.533
63.52000 158.130
63.56000 155.137
63.60000 155.271
63.64000 163.190
63.68000 158.801
63.72000 161.157
63.76000 158.096
63.80000 161.619
63.84000 151.009
63.88000 159.264
63.92000 161.138
63.96000 167.580
64.00000 165.044
64.04000 167.850
64.08000 160.857
64.12000 157.053
64.16000 163.018
64.20000 176.903
64.24000 175.624
64.28000 168.164
64.32000 169.268
64.36000 160.669
64.40000 171.798
64.44000 161.353
64.48000 176.780
64.52000 179.351
64.56000 165.951
64.60000 188.400
64.64000 184.257
64.68000 184.464
64.72000 185.006
64.76000 191.593
64.80000 198.223
64.84000 198.813
64.88000 208.215
64.92000 191.599
64.96000 218.177
65.00000 234.180
65.04000 247.639
65.08000 267.579
65.12000 315.012
65.16000 348.001
65.20000 360.825
65.24000 401.197
65.28000 443.715
65.32000 475.996
65.36000 471.359
65.40000 492.267
65.44000 493.712
65.48000 505.846
65.52000 519.687
65.56000 499.631
65.60000 473.858
65.64000 521.763
65.68000 584.695
65.72000 758.222
65.76000 1084.942
65.80000 1365.806
65.84000 1510.914
65.88000 1572.600
65.92000 1522.021
65.96000 1345.793
66.00000 884.240
66.04000 586.577
66.08000 464.849
66.12000 386.067
66.16000 353.470
66.20000 354.455
66.24000 374.112
66.28000 400.709
66.32000 478.645
66.36000 541.630
66.40000 574.214
66.44000 605.541
66.48000 583.524
66.52000 512.274
66.56000 436.242
66.60000 407.870
66.64000 391.369
66.68000 362.544
66.72000 369.105
66.76000 373.788
66.80000 362.375
66.84000 372.863
66.88000 357.014
66.92000 391.394
66.96000 387.784
67.00000 424.660
67.04000 398.443
67.08000 397.793
67.12000 421.855
67.16000 413.413
67.20000 420.047
67.24000 429.147
67.28000 439.178
67.32000 447.556
67.36000 447.807
67.40000 472.809
67.44000 456.060
67.48000 475.579
67.52000 463.424
67.56000 492.775
67.60000 502.990
67.64000 517.147
67.68000 535.702
67.72000 525.865
67.76000 547.983
67.80000 557.549
67.84000 576.775
67.88000 566.271
67.92000 589.183
67.96000 595.988
68.00000 625.427
68.04000 646.346
68.08000 638.352
68.12000 654.836
68.16000 680.064
68.20000 699.235
68.24000 704.686
68.28000 746.618
68.32000 762.060
68.36000 795.809
68.40000 840.927
68.44000 907.881
68.48000 926.454
68.52000 1001.775
68.56000 1031.107
68.60000 1235.568
68.64000 1458.216
68.68000 1758.913
68.72000 2096.192
68.76000 2445.666
68.80000 2795.751
68.84000 3318.113
68.88000 4458.810
68.92000 8101.012
68.96000 19536.184
69.00000 44858.426
69.04000 73463.977
69.08000 88122.266
69.12000 92035.516
69.16000 95442.297
69.20000 94149.523
69.24000 81421.266
69.28000 61872.250
69.32000 50265.699
69.36000 44955.988
69.40000 36910.188
69.44000 23500.201
69.48000 10949.421
69.52000 4650.884
69.56000 2735.961
69.60000 2049.292
69.64000 1688.320
69.68000 1491.291
69.72000 1308.627
69.76000 1174.852
69.80000 1123.373
69.84000 1028.848
69.88000 950.620
69.92000 889.081
69.96000 855.180
70.00000 799.472