File: XRD/XRD/22-09-2025 Dep 2/XY Data/BTO_Mapping_Theta2Theta_22-09-2025_001_51_-31-174_-39-092.xy
20.00000 581.694
20.04000 574.519
20.08000 560.555
20.12000 552.708
20.16000 559.387
20.20000 538.764
20.24000 545.531
20.28000 549.949
20.32000 552.701
20.36000 574.757
20.40000 570.246
20.44000 548.927
20.48000 540.149
20.52000 549.968
20.56000 556.149
20.60000 562.208
20.64000 566.520
20.68000 542.686
20.72000 553.095
20.76000 557.936
20.80000 555.302
20.84000 533.721
20.88000 523.033
20.92000 533.015
20.96000 517.426
21.00000 543.941
21.04000 542.060
21.08000 530.219
21.12000 552.926
21.16000 527.965
21.20000 538.388
21.24000 536.747
21.28000 540.815
21.32000 552.180
21.36000 528.966
21.40000 539.023
21.44000 525.786
21.48000 539.382
21.52000 518.474
21.56000 519.088
21.60000 519.276
21.64000 540.283
21.68000 525.929
21.72000 538.611
21.76000 517.649
21.80000 531.169
21.84000 525.477
21.88000 509.876
21.92000 527.100
21.96000 543.939
22.00000 504.935
22.04000 527.954
22.08000 527.397
22.12000 515.354
22.16000 520.587
22.20000 521.303
22.24000 520.838
22.28000 521.176
22.32000 510.353
22.36000 536.752
22.40000 518.819
22.44000 513.469
22.48000 506.017
22.52000 513.611
22.56000 515.198
22.60000 521.761
22.64000 498.252
22.68000 507.593
22.72000 507.681
22.76000 512.934
22.80000 523.115
22.84000 516.512
22.88000 499.069
22.92000 499.224
22.96000 503.998
23.00000 501.742
23.04000 529.346
23.08000 500.268
23.12000 484.838
23.16000 499.707
23.20000 502.814
23.24000 508.959
23.28000 508.597
23.32000 495.404
23.36000 489.316
23.40000 482.575
23.44000 494.920
23.48000 504.142
23.52000 474.510
23.56000 476.880
23.60000 483.604
23.64000 501.577
23.68000 487.644
23.72000 490.521
23.76000 487.153
23.80000 487.880
23.84000 489.505
23.88000 484.108
23.92000 471.897
23.96000 490.831
24.00000 497.217
24.04000 495.527
24.08000 482.360
24.12000 468.316
24.16000 490.124
24.20000 493.117
24.24000 469.546
24.28000 491.107
24.32000 477.429
24.36000 471.876
24.40000 488.637
24.44000 484.532
24.48000 470.208
24.52000 471.651
24.56000 495.867
24.60000 473.222
24.64000 470.170
24.68000 476.664
24.72000 442.657
24.76000 472.264
24.80000 464.151
24.84000 467.530
24.88000 467.747
24.92000 445.407
24.96000 460.499
25.00000 456.713
25.04000 465.654
25.08000 455.811
25.12000 472.633
25.16000 476.537
25.20000 462.176
25.24000 460.109
25.28000 460.883
25.32000 458.617
25.36000 466.684
25.40000 460.793
25.44000 457.186
25.48000 431.313
25.52000 456.923
25.56000 451.082
25.60000 470.305
25.64000 468.305
25.68000 436.661
25.72000 464.923
25.76000 451.622
25.80000 452.575
25.84000 462.660
25.88000 464.615
25.92000 447.216
25.96000 438.078
26.00000 445.973
26.04000 448.787
26.08000 452.848
26.12000 442.146
26.16000 451.297
26.20000 445.281
26.24000 447.793
26.28000 450.854
26.32000 431.060
26.36000 436.722
26.40000 438.968
26.44000 440.098
26.48000 441.897
26.52000 423.890
26.56000 430.613
26.60000 445.389
26.64000 428.596
26.68000 420.341
26.72000 444.534
26.76000 432.831
26.80000 440.767
26.84000 444.955
26.88000 437.821
26.92000 421.142
26.96000 435.676
27.00000 440.898
27.04000 446.127
27.08000 430.350
27.12000 431.004
27.16000 448.009
27.20000 427.311
27.24000 441.747
27.28000 424.186
27.32000 423.736
27.36000 436.753
27.40000 421.823
27.44000 427.714
27.48000 410.607
27.52000 431.085
27.56000 417.877
27.60000 425.740
27.64000 401.783
27.68000 409.810
27.72000 412.098
27.76000 433.754
27.80000 423.243
27.84000 428.454
27.88000 403.904
27.92000 403.207
27.96000 395.158
28.00000 417.987
28.04000 404.055
28.08000 405.100
28.12000 412.763
28.16000 426.892
28.20000 416.501
28.24000 408.147
28.28000 408.175
28.32000 411.902
28.36000 420.450
28.40000 400.660
28.44000 409.959
28.48000 406.817
28.52000 397.919
28.56000 402.888
28.60000 402.285
28.64000 397.914
28.68000 405.349
28.72000 403.264
28.76000 410.571
28.80000 395.400
28.84000 389.122
28.88000 394.935
28.92000 397.125
28.96000 398.217
29.00000 389.213
29.04000 398.667
29.08000 400.286
29.12000 394.647
29.16000 402.730
29.20000 370.650
29.24000 392.804
29.28000 405.308
29.32000 378.900
29.36000 398.771
29.40000 395.833
29.44000 394.601
29.48000 382.926
29.52000 397.297
29.56000 386.841
29.60000 371.870
29.64000 379.221
29.68000 380.519
29.72000 384.507
29.76000 388.713
29.80000 393.293
29.84000 395.718
29.88000 366.140
29.92000 374.872
29.96000 370.491
30.00000 374.588
30.04000 374.909
30.08000 370.853
30.12000 380.814
30.16000 379.486
30.20000 375.482
30.24000 364.960
30.28000 378.036
30.32000 378.829
30.36000 375.462
30.40000 369.113
30.44000 369.071
30.48000 375.696
30.52000 359.153
30.56000 391.009
30.60000 378.560
30.64000 369.881
30.68000 381.583
30.72000 370.399
30.76000 366.647
30.80000 371.804
30.84000 369.477
30.88000 372.969
30.92000 387.698
30.96000 373.092
31.00000 364.933
31.04000 367.671
31.08000 357.303
31.12000 366.054
31.16000 353.738
31.20000 375.136
31.24000 371.861
31.28000 367.623
31.32000 352.463
31.36000 349.445
31.40000 355.952
31.44000 364.704
31.48000 351.377
31.52000 364.395
31.56000 365.520
31.60000 357.275
31.64000 342.276
31.68000 346.972
31.72000 342.985
31.76000 344.769
31.80000 346.939
31.84000 351.661
31.88000 360.931
31.92000 354.037
31.96000 343.425
32.00000 345.400
32.04000 349.373
32.08000 349.496
32.12000 346.546
32.16000 354.216
32.20000 348.755
32.24000 349.185
32.28000 347.750
32.32000 346.170
32.36000 341.967
32.40000 333.098
32.44000 352.432
32.48000 339.121
32.52000 350.556
32.56000 357.990
32.60000 356.761
32.64000 349.432
32.68000 352.486
32.72000 342.935
32.76000 328.336
32.80000 330.712
32.84000 346.753
32.88000 341.225
32.92000 349.266
32.96000 342.686
33.00000 354.347
33.04000 347.573
33.08000 344.898
33.12000 347.561
33.16000 343.500
33.20000 333.964
33.24000 334.095
33.28000 331.193
33.32000 337.145
33.36000 328.612
33.40000 331.170
33.44000 323.092
33.48000 339.535
33.52000 328.979
33.56000 322.808
33.60000 312.915
33.64000 323.259
33.68000 336.136
33.72000 319.985
33.76000 322.698
33.80000 333.087
33.84000 322.087
33.88000 328.452
33.92000 325.008
33.96000 330.172
34.00000 318.430
34.04000 315.583
34.08000 300.681
34.12000 322.705
34.16000 319.635
34.20000 315.755
34.24000 316.799
34.28000 320.782
34.32000 305.355
34.36000 307.968
34.40000 305.379
34.44000 316.927
34.48000 332.789
34.52000 294.181
34.56000 319.203
34.60000 319.140
34.64000 319.310
34.68000 302.599
34.72000 313.829
34.76000 313.524
34.80000 301.440
34.84000 312.443
34.88000 299.606
34.92000 311.319
34.96000 306.633
35.00000 305.357
35.04000 311.641
35.08000 299.391
35.12000 306.560
35.16000 306.956
35.20000 298.000
35.24000 303.610
35.28000 306.883
35.32000 304.519
35.36000 288.344
35.40000 314.906
35.44000 296.911
35.48000 311.286
35.52000 304.370
35.56000 299.719
35.60000 295.651
35.64000 284.386
35.68000 292.837
35.72000 293.715
35.76000 309.057
35.80000 313.970
35.84000 286.471
35.88000 302.151
35.92000 292.296
35.96000 286.156
36.00000 286.105
36.04000 283.146
36.08000 290.689
36.12000 300.791
36.16000 291.266
36.20000 297.743
36.24000 292.434
36.28000 279.515
36.32000 287.682
36.36000 293.664
36.40000 266.642
36.44000 293.631
36.48000 287.124
36.52000 272.828
36.56000 281.791
36.60000 280.187
36.64000 266.172
36.68000 285.648
36.72000 277.295
36.76000 287.028
36.80000 291.008
36.84000 288.611
36.88000 274.884
36.92000 273.784
36.96000 273.264
37.00000 282.702
37.04000 273.714
37.08000 268.516
37.12000 271.600
37.16000 275.977
37.20000 278.020
37.24000 289.766
37.28000 272.557
37.32000 270.180
37.36000 282.449
37.40000 277.624
37.44000 290.533
37.48000 272.770
37.52000 266.925
37.56000 271.809
37.60000 280.784
37.64000 273.459
37.68000 283.861
37.72000 269.059
37.76000 278.821
37.80000 272.191
37.84000 241.324
37.88000 282.204
37.92000 283.413
37.96000 263.754
38.00000 276.732
38.04000 264.139
38.08000 256.526
38.12000 278.330
38.16000 271.688
38.20000 252.950
38.24000 258.353
38.28000 274.041
38.32000 262.283
38.36000 250.100
38.40000 253.242
38.44000 249.957
38.48000 274.689
38.52000 263.183
38.56000 252.407
38.60000 272.035
38.64000 262.831
38.68000 267.325
38.72000 262.764
38.76000 260.814
38.80000 254.716
38.84000 252.720
38.88000 256.346
38.92000 262.951
38.96000 255.263
39.00000 250.990
39.04000 254.753
39.08000 248.764
39.12000 243.414
39.16000 265.493
39.20000 275.220
39.24000 257.930
39.28000 262.916
39.32000 246.859
39.36000 257.999
39.40000 252.684
39.44000 253.845
39.48000 241.535
39.52000 254.330
39.56000 252.372
39.60000 246.793
39.64000 250.730
39.68000 233.770
39.72000 258.589
39.76000 220.900
39.80000 250.593
39.84000 246.632
39.88000 246.914
39.92000 242.589
39.96000 240.872
40.00000 252.582
40.04000 231.386
40.08000 245.867
40.12000 247.939
40.16000 241.260
40.20000 235.932
40.24000 239.736
40.28000 229.652
40.32000 241.426
40.36000 257.659
40.40000 241.037
40.44000 243.643
40.48000 251.619
40.52000 236.192
40.56000 239.172
40.60000 244.930
40.64000 235.373
40.68000 240.583
40.72000 239.120
40.76000 229.735
40.80000 238.705
40.84000 231.969
40.88000 240.439
40.92000 242.441
40.96000 235.259
41.00000 229.536
41.04000 236.038
41.08000 228.402
41.12000 227.491
41.16000 237.079
41.20000 224.868
41.24000 238.444
41.28000 233.904
41.32000 239.002
41.36000 230.280
41.40000 239.425
41.44000 230.855
41.48000 239.570
41.52000 228.024
41.56000 227.686
41.60000 226.067
41.64000 229.113
41.68000 222.088
41.72000 221.672
41.76000 215.726
41.80000 217.219
41.84000 239.632
41.88000 232.310
41.92000 232.459
41.96000 222.875
42.00000 218.559
42.04000 226.022
42.08000 221.505
42.12000 224.114
42.16000 224.562
42.20000 217.026
42.24000 211.331
42.28000 230.965
42.32000 220.908
42.36000 218.151
42.40000 206.653
42.44000 221.467
42.48000 209.635
42.52000 221.009
42.56000 215.359
42.60000 227.779
42.64000 226.252
42.68000 213.458
42.72000 220.040
42.76000 235.942
42.80000 209.102
42.84000 213.899
42.88000 228.439
42.92000 205.127
42.96000 203.583
43.00000 227.395
43.04000 200.040
43.08000 217.681
43.12000 215.582
43.16000 206.937
43.20000 213.181
43.24000 211.501
43.28000 220.780
43.32000 214.516
43.36000 204.930
43.40000 215.587
43.44000 210.863
43.48000 217.110
43.52000 201.345
43.56000 211.979
43.60000 204.384
43.64000 203.214
43.68000 195.124
43.72000 214.762
43.76000 202.913
43.80000 199.747
43.84000 209.605
43.88000 204.898
43.92000 196.880
43.96000 212.766
44.00000 203.522
44.04000 207.373
44.08000 199.903
44.12000 195.869
44.16000 206.669
44.20000 194.477
44.24000 194.955
44.28000 200.229
44.32000 213.134
44.36000 193.015
44.40000 201.466
44.44000 190.864
44.48000 198.952
44.52000 197.649
44.56000 199.969
44.60000 200.640
44.64000 190.330
44.68000 193.982
44.72000 199.914
44.76000 201.455
44.80000 185.536
44.84000 198.531
44.88000 202.287
44.92000 202.577
44.96000 198.273
45.00000 196.277
45.04000 197.777
45.08000 190.686
45.12000 191.417
45.16000 194.239
45.20000 199.243
45.24000 204.336
45.28000 171.819
45.32000 191.482
45.36000 192.156
45.40000 186.248
45.44000 203.777
45.48000 196.051
45.52000 187.627
45.56000 189.471
45.60000 180.238
45.64000 194.095
45.68000 183.365
45.72000 179.304
45.76000 182.356
45.80000 183.337
45.84000 191.666
45.88000 178.797
45.92000 199.454
45.96000 199.205
46.00000 175.848
46.04000 193.404
46.08000 189.074
46.12000 190.759
46.16000 187.493
46.20000 177.265
46.24000 183.393
46.28000 172.616
46.32000 185.422
46.36000 191.071
46.40000 192.890
46.44000 186.001
46.48000 192.361
46.52000 184.956
46.56000 176.655
46.60000 175.829
46.64000 179.379
46.68000 195.248
46.72000 169.387
46.76000 179.985
46.80000 184.212
46.84000 168.484
46.88000 183.909
46.92000 174.260
46.96000 188.529
47.00000 178.340
47.04000 177.804
47.08000 173.376
47.12000 184.590
47.16000 177.176
47.20000 171.540
47.24000 174.634
47.28000 169.468
47.32000 176.620
47.36000 171.112
47.40000 179.806
47.44000 185.163
47.48000 178.831
47.52000 170.893
47.56000 166.754
47.60000 177.138
47.64000 172.699
47.68000 167.374
47.72000 174.819
47.76000 164.844
47.80000 174.626
47.84000 179.032
47.88000 168.415
47.92000 175.301
47.96000 173.483
48.00000 180.618
48.04000 174.569
48.08000 162.062
48.12000 174.450
48.16000 174.908
48.20000 178.347
48.24000 178.178
48.28000 167.414
48.32000 170.083
48.36000 169.460
48.40000 172.019
48.44000 170.537
48.48000 168.422
48.52000 173.806
48.56000 166.836
48.60000 166.969
48.64000 171.432
48.68000 166.755
48.72000 157.674
48.76000 167.139
48.80000 160.241
48.84000 165.823
48.88000 170.845
48.92000 164.115
48.96000 162.672
49.00000 161.231
49.04000 161.682
49.08000 161.721
49.12000 157.807
49.16000 166.089
49.20000 165.901
49.24000 162.307
49.28000 161.521
49.32000 168.732
49.36000 169.043
49.40000 163.678
49.44000 155.853
49.48000 165.210
49.52000 159.560
49.56000 159.241
49.60000 165.478
49.64000 156.736
49.68000 156.520
49.72000 164.143
49.76000 168.748
49.80000 156.859
49.84000 166.914
49.88000 155.950
49.92000 157.426
49.96000 160.329
50.00000 164.816
50.04000 154.201
50.08000 147.478
50.12000 159.598
50.16000 158.997
50.20000 162.906
50.24000 159.220
50.28000 168.372
50.32000 158.174
50.36000 147.074
50.40000 165.449
50.44000 151.879
50.48000 151.676
50.52000 146.630
50.56000 159.775
50.60000 149.229
50.64000 159.676
50.68000 155.585
50.72000 160.208
50.76000 142.685
50.80000 148.117
50.84000 161.991
50.88000 145.646
50.92000 150.295
50.96000 149.458
51.00000 147.332
51.04000 156.339
51.08000 160.418
51.12000 148.296
51.16000 147.043
51.20000 144.708
51.24000 161.059
51.28000 149.401
51.32000 145.122
51.36000 141.027
51.40000 155.025
51.44000 154.350
51.48000 148.207
51.52000 155.705
51.56000 154.049
51.60000 147.819
51.64000 159.806
51.68000 163.513
51.72000 157.217
51.76000 165.073
51.80000 154.994
51.84000 159.696
51.88000 159.384
51.92000 158.366
51.96000 161.746
52.00000 152.971
52.04000 155.719
52.08000 149.815
52.12000 153.850
52.16000 153.684
52.20000 146.042
52.24000 153.256
52.28000 146.220
52.32000 151.501
52.36000 152.261
52.40000 145.831
52.44000 144.734
52.48000 144.886
52.52000 142.107
52.56000 144.217
52.60000 146.985
52.64000 144.803
52.68000 140.655
52.72000 145.042
52.76000 149.915
52.80000 139.168
52.84000 146.559
52.88000 145.016
52.92000 138.269
52.96000 138.054
53.00000 138.207
53.04000 139.793
53.08000 146.587
53.12000 144.007
53.16000 142.177
53.20000 131.942
53.24000 145.183
53.28000 142.474
53.32000 141.824
53.36000 139.002
53.40000 138.579
53.44000 133.855
53.48000 142.469
53.52000 138.878
53.56000 143.540
53.60000 145.923
53.64000 147.167
53.68000 132.934
53.72000 140.054
53.76000 138.913
53.80000 141.637
53.84000 144.652
53.88000 135.869
53.92000 130.060
53.96000 141.064
54.00000 142.064
54.04000 139.042
54.08000 138.035
54.12000 137.877
54.16000 130.512
54.20000 137.192
54.24000 150.029
54.28000 149.297
54.32000 144.620
54.36000 141.689
54.40000 130.340
54.44000 132.366
54.48000 131.029
54.52000 134.443
54.56000 137.144
54.60000 139.079
54.64000 124.168
54.68000 130.321
54.72000 138.756
54.76000 134.245
54.80000 128.390
54.84000 128.833
54.88000 126.168
54.92000 137.469
54.96000 139.561
55.00000 120.992
55.04000 127.031
55.08000 139.594
55.12000 128.695
55.16000 133.251
55.20000 141.622
55.24000 129.628
55.28000 125.825
55.32000 134.329
55.36000 122.205
55.40000 134.275
55.44000 139.142
55.48000 138.877
55.52000 125.969
55.56000 127.632
55.60000 130.815
55.64000 134.842
55.68000 132.776
55.72000 137.665
55.76000 133.187
55.80000 129.544
55.84000 122.393
55.88000 128.249
55.92000 128.637
55.96000 126.602
56.00000 125.913
56.04000 130.348
56.08000 132.433
56.12000 124.527
56.16000 122.137
56.20000 127.840
56.24000 126.985
56.28000 124.996
56.32000 126.923
56.36000 131.676
56.40000 130.001
56.44000 133.117
56.48000 125.043
56.52000 125.227
56.56000 127.744
56.60000 130.015
56.64000 122.793
56.68000 121.321
56.72000 136.256
56.76000 130.732
56.80000 127.799
56.84000 123.734
56.88000 135.191
56.92000 126.200
56.96000 122.406
57.00000 125.900
57.04000 119.994
57.08000 113.922
57.12000 126.580
57.16000 124.896
57.20000 123.550
57.24000 127.759
57.28000 128.275
57.32000 134.410
57.36000 121.700
57.40000 124.266
57.44000 125.802
57.48000 123.775
57.52000 123.861
57.56000 123.586
57.60000 126.879
57.64000 115.839
57.68000 124.535
57.72000 126.165
57.76000 128.089
57.80000 130.275
57.84000 130.522
57.88000 131.775
57.92000 123.315
57.96000 122.354
58.00000 128.542
58.04000 117.799
58.08000 129.559
58.12000 119.631
58.16000 125.790
58.20000 120.263
58.24000 121.074
58.28000 129.621
58.32000 120.286
58.36000 117.797
58.40000 116.340
58.44000 123.605
58.48000 129.010
58.52000 126.612
58.56000 123.805
58.60000 128.066
58.64000 122.974
58.68000 116.487
58.72000 116.057
58.76000 113.924
58.80000 117.293
58.84000 115.160
58.88000 125.504
58.92000 118.143
58.96000 117.501
59.00000 116.135
59.04000 116.592
59.08000 117.429
59.12000 115.427
59.16000 110.492
59.20000 119.533
59.24000 112.758
59.28000 118.482
59.32000 114.828
59.36000 108.858
59.40000 114.455
59.44000 122.433
59.48000 108.815
59.52000 111.610
59.56000 122.788
59.60000 133.523
59.64000 111.105
59.68000 119.292
59.72000 120.433
59.76000 118.901
59.80000 122.751
59.84000 120.844
59.88000 110.937
59.92000 118.947
59.96000 116.241
60.00000 114.096
60.04000 126.032
60.08000 118.841
60.12000 120.318
60.16000 114.672
60.20000 123.437
60.24000 118.805
60.28000 111.366
60.32000 106.748
60.36000 125.372
60.40000 133.740
60.44000 112.219
60.48000 118.558
60.52000 118.409
60.56000 117.931
60.60000 115.672
60.64000 113.077
60.68000 121.137
60.72000 108.955
60.76000 107.685
60.80000 112.278
60.84000 115.727
60.88000 115.337
60.92000 114.479
60.96000 110.947
61.00000 117.726
61.04000 107.199
61.08000 115.643
61.12000 118.368
61.16000 107.619
61.20000 109.998
61.24000 118.595
61.28000 121.906
61.32000 117.136
61.36000 115.735
61.40000 109.910
61.44000 103.374
61.48000 118.800
61.52000 125.237
61.56000 127.423
61.60000 138.587
61.64000 152.170
61.68000 165.658
61.72000 166.088
61.76000 174.080
61.80000 154.692
61.84000 158.527
61.88000 135.206
61.92000 120.556
61.96000 126.281
62.00000 114.951
62.04000 119.982
62.08000 110.122
62.12000 112.198
62.16000 115.726
62.20000 114.930
62.24000 113.648
62.28000 113.027
62.32000 126.359
62.36000 122.471
62.40000 121.800
62.44000 117.069
62.48000 113.428
62.52000 127.909
62.56000 114.879
62.60000 112.701
62.64000 110.641
62.68000 109.478
62.72000 115.668
62.76000 110.713
62.80000 113.440
62.84000 107.370
62.88000 114.287
62.92000 106.663
62.96000 126.218
63.00000 134.009
63.04000 123.501
63.08000 119.440
63.12000 111.042
63.16000 120.264
63.20000 109.037
63.24000 121.021
63.28000 113.203
63.32000 117.435
63.36000 120.199
63.40000 123.574
63.44000 123.705
63.48000 121.609
63.52000 118.623
63.56000 117.339
63.60000 117.613
63.64000 114.564
63.68000 121.952
63.72000 121.945
63.76000 123.878
63.80000 125.523
63.84000 130.321
63.88000 124.018
63.92000 120.740
63.96000 128.978
64.00000 118.712
64.04000 127.791
64.08000 120.366
64.12000 117.297
64.16000 118.459
64.20000 120.564
64.24000 122.817
64.28000 123.110
64.32000 134.016
64.36000 131.077
64.40000 125.128
64.44000 116.482
64.48000 118.846
64.52000 128.407
64.56000 130.671
64.60000 129.193
64.64000 122.805
64.68000 132.907
64.72000 127.917
64.76000 126.087
64.80000 122.848
64.84000 133.106
64.88000 138.496
64.92000 126.197
64.96000 138.432
65.00000 131.177
65.04000 134.474
65.08000 138.701
65.12000 142.332
65.16000 135.245
65.20000 133.251
65.24000 133.726
65.28000 142.471
65.32000 140.363
65.36000 129.955
65.40000 141.802
65.44000 135.371
65.48000 142.681
65.52000 147.841
65.56000 154.672
65.60000 158.183
65.64000 161.238
65.68000 176.795
65.72000 183.562
65.76000 265.555
65.80000 332.039
65.84000 409.245
65.88000 460.918
65.92000 477.913
65.96000 484.562
66.00000 423.974
66.04000 332.062
66.08000 229.361
66.12000 198.741
66.16000 198.792
66.20000 181.596
66.24000 187.941
66.28000 196.272
66.32000 197.658
66.36000 207.853
66.40000 230.975
66.44000 244.423
66.48000 227.503
66.52000 233.716
66.56000 229.723
66.60000 218.252
66.64000 183.779
66.68000 201.850
66.72000 187.542
66.76000 197.542
66.80000 189.033
66.84000 198.138
66.88000 190.296
66.92000 205.486
66.96000 195.895
67.00000 205.883
67.04000 206.121
67.08000 212.331
67.12000 223.796
67.16000 213.782
67.20000 219.578
67.24000 222.419
67.28000 213.420
67.32000 237.354
67.36000 221.695
67.40000 228.123
67.44000 226.832
67.48000 232.046
67.52000 252.907
67.56000 241.753
67.60000 244.414
67.64000 251.330
67.68000 245.963
67.72000 267.274
67.76000 263.660
67.80000 279.951
67.84000 282.542
67.88000 280.566
67.92000 287.539
67.96000 293.335
68.00000 284.038
68.04000 298.857
68.08000 296.562
68.12000 290.946
68.16000 289.595
68.20000 312.680
68.24000 310.291
68.28000 330.749
68.32000 331.639
68.36000 338.346
68.40000 360.716
68.44000 362.336
68.48000 378.001
68.52000 404.536
68.56000 412.027
68.60000 448.473
68.64000 500.639
68.68000 527.272
68.72000 637.341
68.76000 699.103
68.80000 809.289
68.84000 979.488
68.88000 1180.235
68.92000 1667.825
68.96000 2642.428
69.00000 5292.307
69.04000 11302.825
69.08000 19048.971
69.12000 23315.348
69.16000 24700.982
69.20000 25668.896
69.24000 25998.619
69.28000 23130.822
69.32000 16957.656
69.36000 13530.255
69.40000 12394.571
69.44000 10697.718
69.48000 7136.928
69.52000 3235.044
69.56000 1391.884
69.60000 893.313
69.64000 718.115
69.68000 613.707
69.72000 570.550
69.76000 513.168
69.80000 461.390
69.84000 448.629
69.88000 422.301
69.92000 407.022
69.96000 370.493
70.00000 359.272