File: XRD/XRD/22-09-2025 Dep 2/XY Data/BTO_Mapping_Theta2Theta_22-09-2025_001_48_-12-470_-15-637.xy
20.00000 593.045
20.04000 572.573
20.08000 584.832
20.12000 573.830
20.16000 554.888
20.20000 576.122
20.24000 564.465
20.28000 583.461
20.32000 576.568
20.36000 590.054
20.40000 579.263
20.44000 563.818
20.48000 556.202
20.52000 576.212
20.56000 541.713
20.60000 571.357
20.64000 567.695
20.68000 566.755
20.72000 572.016
20.76000 560.186
20.80000 558.193
20.84000 559.888
20.88000 568.290
20.92000 553.330
20.96000 550.977
21.00000 559.363
21.04000 553.841
21.08000 563.035
21.12000 549.008
21.16000 578.774
21.20000 563.747
21.24000 559.584
21.28000 572.303
21.32000 565.703
21.36000 572.227
21.40000 561.640
21.44000 561.701
21.48000 562.008
21.52000 560.180
21.56000 579.708
21.60000 589.570
21.64000 590.557
21.68000 595.881
21.72000 601.267
21.76000 626.374
21.80000 675.456
21.84000 699.306
21.88000 712.868
21.92000 760.805
21.96000 836.085
22.00000 843.853
22.04000 881.109
22.08000 847.233
22.12000 834.421
22.16000 818.002
22.20000 746.173
22.24000 726.441
22.28000 664.008
22.32000 661.361
22.36000 641.028
22.40000 614.025
22.44000 592.461
22.48000 575.113
22.52000 572.036
22.56000 542.739
22.60000 542.378
22.64000 538.666
22.68000 522.341
22.72000 545.708
22.76000 526.072
22.80000 548.377
22.84000 513.643
22.88000 520.484
22.92000 524.256
22.96000 522.557
23.00000 524.539
23.04000 519.930
23.08000 529.471
23.12000 535.898
23.16000 547.058
23.20000 513.394
23.24000 499.181
23.28000 519.759
23.32000 514.121
23.36000 512.737
23.40000 507.162
23.44000 520.430
23.48000 509.522
23.52000 500.741
23.56000 510.549
23.60000 516.273
23.64000 497.575
23.68000 512.983
23.72000 523.494
23.76000 512.492
23.80000 502.450
23.84000 520.646
23.88000 510.554
23.92000 503.165
23.96000 506.048
24.00000 495.552
24.04000 503.846
24.08000 498.358
24.12000 483.545
24.16000 492.835
24.20000 497.973
24.24000 490.819
24.28000 503.065
24.32000 490.212
24.36000 494.839
24.40000 505.453
24.44000 497.865
24.48000 484.783
24.52000 499.839
24.56000 491.210
24.60000 483.612
24.64000 489.719
24.68000 477.731
24.72000 494.123
24.76000 489.686
24.80000 476.524
24.84000 481.056
24.88000 487.852
24.92000 472.183
24.96000 502.568
25.00000 487.635
25.04000 477.878
25.08000 486.626
25.12000 488.304
25.16000 483.408
25.20000 491.085
25.24000 503.441
25.28000 475.226
25.32000 462.095
25.36000 481.494
25.40000 492.288
25.44000 491.666
25.48000 479.832
25.52000 460.136
25.56000 466.133
25.60000 478.926
25.64000 469.966
25.68000 472.174
25.72000 469.545
25.76000 460.061
25.80000 471.962
25.84000 463.315
25.88000 487.368
25.92000 478.002
25.96000 474.234
26.00000 478.056
26.04000 482.941
26.08000 450.536
26.12000 475.421
26.16000 462.723
26.20000 462.658
26.24000 470.956
26.28000 461.167
26.32000 469.776
26.36000 444.421
26.40000 472.445
26.44000 472.718
26.48000 432.114
26.52000 469.813
26.56000 476.072
26.60000 472.135
26.64000 450.592
26.68000 451.637
26.72000 452.947
26.76000 453.124
26.80000 457.834
26.84000 445.604
26.88000 455.830
26.92000 455.004
26.96000 448.484
27.00000 443.284
27.04000 454.744
27.08000 441.029
27.12000 446.533
27.16000 444.823
27.20000 435.191
27.24000 449.808
27.28000 447.511
27.32000 439.434
27.36000 443.601
27.40000 448.293
27.44000 434.208
27.48000 434.308
27.52000 448.615
27.56000 428.777
27.60000 441.008
27.64000 448.450
27.68000 457.355
27.72000 443.616
27.76000 431.710
27.80000 432.039
27.84000 431.569
27.88000 440.013
27.92000 418.972
27.96000 438.217
28.00000 431.531
28.04000 430.923
28.08000 422.090
28.12000 433.108
28.16000 447.869
28.20000 443.134
28.24000 460.830
28.28000 464.692
28.32000 439.386
28.36000 429.996
28.40000 429.658
28.44000 448.232
28.48000 443.540
28.52000 454.642
28.56000 432.764
28.60000 430.335
28.64000 434.244
28.68000 421.682
28.72000 421.993
28.76000 426.983
28.80000 428.289
28.84000 423.317
28.88000 420.013
28.92000 419.319
28.96000 419.414
29.00000 410.691
29.04000 432.038
29.08000 424.481
29.12000 415.757
29.16000 420.230
29.20000 420.548
29.24000 422.226
29.28000 444.829
29.32000 405.208
29.36000 418.534
29.40000 407.595
29.44000 405.656
29.48000 419.472
29.52000 416.727
29.56000 432.942
29.60000 414.374
29.64000 426.221
29.68000 413.186
29.72000 430.873
29.76000 425.780
29.80000 425.615
29.84000 428.089
29.88000 435.106
29.92000 441.464
29.96000 441.557
30.00000 445.285
30.04000 443.626
30.08000 463.969
30.12000 440.514
30.16000 467.138
30.20000 468.165
30.24000 459.524
30.28000 424.087
30.32000 425.028
30.36000 428.113
30.40000 428.433
30.44000 417.552
30.48000 428.635
30.52000 424.839
30.56000 438.624
30.60000 430.286
30.64000 447.799
30.68000 438.371
30.72000 451.760
30.76000 459.945
30.80000 483.198
30.84000 473.508
30.88000 500.878
30.92000 529.697
30.96000 561.469
31.00000 593.724
31.04000 672.568
31.08000 755.423
31.12000 982.042
31.16000 1246.081
31.20000 1555.691
31.24000 2039.866
31.28000 2457.796
31.32000 2923.801
31.36000 3213.298
31.40000 3405.150
31.44000 3265.987
31.48000 2972.592
31.52000 2559.372
31.56000 2073.178
31.60000 1647.016
31.64000 1366.920
31.68000 1089.541
31.72000 885.663
31.76000 768.227
31.80000 652.878
31.84000 602.280
31.88000 536.665
31.92000 501.772
31.96000 477.175
32.00000 458.981
32.04000 448.855
32.08000 446.791
32.12000 407.871
32.16000 434.375
32.20000 416.444
32.24000 427.411
32.28000 412.033
32.32000 418.042
32.36000 404.882
32.40000 398.426
32.44000 422.014
32.48000 402.115
32.52000 404.997
32.56000 393.556
32.60000 389.749
32.64000 379.462
32.68000 414.943
32.72000 404.144
32.76000 394.242
32.80000 409.845
32.84000 429.589
32.88000 451.806
32.92000 454.893
32.96000 477.340
33.00000 463.696
33.04000 463.138
33.08000 417.203
33.12000 375.121
33.16000 361.077
33.20000 367.132
33.24000 364.833
33.28000 346.315
33.32000 357.467
33.36000 352.046
33.40000 355.704
33.44000 329.762
33.48000 364.886
33.52000 353.995
33.56000 337.846
33.60000 344.319
33.64000 343.356
33.68000 354.031
33.72000 345.822
33.76000 345.174
33.80000 358.640
33.84000 348.097
33.88000 358.160
33.92000 340.576
33.96000 345.695
34.00000 340.422
34.04000 358.255
34.08000 339.656
34.12000 350.105
34.16000 326.525
34.20000 334.104
34.24000 348.375
34.28000 355.761
34.32000 350.418
34.36000 315.222
34.40000 332.370
34.44000 332.322
34.48000 337.420
34.52000 323.080
34.56000 330.116
34.60000 331.921
34.64000 334.155
34.68000 323.641
34.72000 336.723
34.76000 340.780
34.80000 330.567
34.84000 327.984
34.88000 318.689
34.92000 334.096
34.96000 348.866
35.00000 326.436
35.04000 329.473
35.08000 322.406
35.12000 315.022
35.16000 324.150
35.20000 328.293
35.24000 323.460
35.28000 325.442
35.32000 322.037
35.36000 310.551
35.40000 303.309
35.44000 301.550
35.48000 315.011
35.52000 320.844
35.56000 310.982
35.60000 323.873
35.64000 329.923
35.68000 306.986
35.72000 310.906
35.76000 305.468
35.80000 320.455
35.84000 312.200
35.88000 313.629
35.92000 302.140
35.96000 310.104
36.00000 309.711
36.04000 317.944
36.08000 309.694
36.12000 308.600
36.16000 309.586
36.20000 312.735
36.24000 314.372
36.28000 314.863
36.32000 302.934
36.36000 289.564
36.40000 309.139
36.44000 304.780
36.48000 309.066
36.52000 306.613
36.56000 306.574
36.60000 326.641
36.64000 302.969
36.68000 303.751
36.72000 295.645
36.76000 315.452
36.80000 319.614
36.84000 309.111
36.88000 308.253
36.92000 320.675
36.96000 309.662
37.00000 312.731
37.04000 296.449
37.08000 297.360
37.12000 309.989
37.16000 304.675
37.20000 307.081
37.24000 305.715
37.28000 292.998
37.32000 314.782
37.36000 293.515
37.40000 308.559
37.44000 299.844
37.48000 297.831
37.52000 309.323
37.56000 291.032
37.60000 306.185
37.64000 292.062
37.68000 293.606
37.72000 294.737
37.76000 284.635
37.80000 300.135
37.84000 297.363
37.88000 294.650
37.92000 290.739
37.96000 290.906
38.00000 313.828
38.04000 316.835
38.08000 312.272
38.12000 311.492
38.16000 305.349
38.20000 324.574
38.24000 330.111
38.28000 328.980
38.32000 342.237
38.36000 355.380
38.40000 414.094
38.44000 452.660
38.48000 502.570
38.52000 567.677
38.56000 669.913
38.60000 723.758
38.64000 816.455
38.68000 849.313
38.72000 872.489
38.76000 837.465
38.80000 777.328
38.84000 705.216
38.88000 611.356
38.92000 552.043
38.96000 478.454
39.00000 427.811
39.04000 406.531
39.08000 348.495
39.12000 347.050
39.16000 340.358
39.20000 327.697
39.24000 303.251
39.28000 295.337
39.32000 299.777
39.36000 284.570
39.40000 298.876
39.44000 295.448
39.48000 290.198
39.52000 277.401
39.56000 283.043
39.60000 284.457
39.64000 277.536
39.68000 281.496
39.72000 274.818
39.76000 259.951
39.80000 264.114
39.84000 264.552
39.88000 263.579
39.92000 278.991
39.96000 274.497
40.00000 287.345
40.04000 267.421
40.08000 261.330
40.12000 273.563
40.16000 265.820
40.20000 269.427
40.24000 260.961
40.28000 272.185
40.32000 269.528
40.36000 260.194
40.40000 249.403
40.44000 263.093
40.48000 278.654
40.52000 269.723
40.56000 264.572
40.60000 273.407
40.64000 270.484
40.68000 268.281
40.72000 261.170
40.76000 259.289
40.80000 261.773
40.84000 261.527
40.88000 256.338
40.92000 263.265
40.96000 255.907
41.00000 256.429
41.04000 258.884
41.08000 236.132
41.12000 253.455
41.16000 255.452
41.20000 260.108
41.24000 242.052
41.28000 238.646
41.32000 226.449
41.36000 260.435
41.40000 250.847
41.44000 239.761
41.48000 244.326
41.52000 240.844
41.56000 255.450
41.60000 244.205
41.64000 247.986
41.68000 251.750
41.72000 238.322
41.76000 244.332
41.80000 241.166
41.84000 253.857
41.88000 240.882
41.92000 243.452
41.96000 232.785
42.00000 232.663
42.04000 232.307
42.08000 247.353
42.12000 242.226
42.16000 236.029
42.20000 238.721
42.24000 245.436
42.28000 242.429
42.32000 249.432
42.36000 247.107
42.40000 230.440
42.44000 227.395
42.48000 250.983
42.52000 247.689
42.56000 231.383
42.60000 223.734
42.64000 232.059
42.68000 252.249
42.72000 249.630
42.76000 236.111
42.80000 233.530
42.84000 242.296
42.88000 230.826
42.92000 232.921
42.96000 236.882
43.00000 241.743
43.04000 238.807
43.08000 234.521
43.12000 242.061
43.16000 246.901
43.20000 223.301
43.24000 231.909
43.28000 231.655
43.32000 232.482
43.36000 231.335
43.40000 235.399
43.44000 225.463
43.48000 223.783
43.52000 225.104
43.56000 247.418
43.60000 224.520
43.64000 230.163
43.68000 218.677
43.72000 217.684
43.76000 217.750
43.80000 247.526
43.84000 222.879
43.88000 234.969
43.92000 220.349
43.96000 235.661
44.00000 229.966
44.04000 241.892
44.08000 225.160
44.12000 236.956
44.16000 240.811
44.20000 253.026
44.24000 235.669
44.28000 247.991
44.32000 242.753
44.36000 235.391
44.40000 231.873
44.44000 256.491
44.48000 251.014
44.52000 257.086
44.56000 258.103
44.60000 256.777
44.64000 276.229
44.68000 281.043
44.72000 302.123
44.76000 337.771
44.80000 346.738
44.84000 403.412
44.88000 410.489
44.92000 450.380
44.96000 482.458
45.00000 468.715
45.04000 466.439
45.08000 504.508
45.12000 481.228
45.16000 455.358
45.20000 447.270
45.24000 427.404
45.28000 373.572
45.32000 355.604
45.36000 347.138
45.40000 322.658
45.44000 309.592
45.48000 293.459
45.52000 292.567
45.56000 290.261
45.60000 270.408
45.64000 263.599
45.68000 265.788
45.72000 243.896
45.76000 251.527
45.80000 261.619
45.84000 246.816
45.88000 226.745
45.92000 234.788
45.96000 223.034
46.00000 228.304
46.04000 216.473
46.08000 214.504
46.12000 217.430
46.16000 205.234
46.20000 218.023
46.24000 216.755
46.28000 200.740
46.32000 204.390
46.36000 208.506
46.40000 214.514
46.44000 205.152
46.48000 215.781
46.52000 206.462
46.56000 208.864
46.60000 212.126
46.64000 205.039
46.68000 202.724
46.72000 205.237
46.76000 203.777
46.80000 203.696
46.84000 213.902
46.88000 210.334
46.92000 216.049
46.96000 197.635
47.00000 196.323
47.04000 207.123
47.08000 201.334
47.12000 204.588
47.16000 191.905
47.20000 186.896
47.24000 198.640
47.28000 185.332
47.32000 186.924
47.36000 188.619
47.40000 187.951
47.44000 193.136
47.48000 184.329
47.52000 189.357
47.56000 188.525
47.60000 186.953
47.64000 197.650
47.68000 192.538
47.72000 195.331
47.76000 192.774
47.80000 191.802
47.84000 186.537
47.88000 177.814
47.92000 183.641
47.96000 194.369
48.00000 195.161
48.04000 192.881
48.08000 189.369
48.12000 188.064
48.16000 173.869
48.20000 188.680
48.24000 194.039
48.28000 185.165
48.32000 180.603
48.36000 183.965
48.40000 178.044
48.44000 180.497
48.48000 191.329
48.52000 176.918
48.56000 184.383
48.60000 189.480
48.64000 189.968
48.68000 183.639
48.72000 174.941
48.76000 181.641
48.80000 171.206
48.84000 167.387
48.88000 189.690
48.92000 185.562
48.96000 186.389
49.00000 176.818
49.04000 178.406
49.08000 182.283
49.12000 189.115
49.16000 187.351
49.20000 178.867
49.24000 183.676
49.28000 183.260
49.32000 184.350
49.36000 188.190
49.40000 194.123
49.44000 169.398
49.48000 171.471
49.52000 182.149
49.56000 176.743
49.60000 184.443
49.64000 172.734
49.68000 175.983
49.72000 180.482
49.76000 183.132
49.80000 182.694
49.84000 175.014
49.88000 177.270
49.92000 162.130
49.96000 180.428
50.00000 167.834
50.04000 183.648
50.08000 194.977
50.12000 175.658
50.16000 190.910
50.20000 178.177
50.24000 187.475
50.28000 182.564
50.32000 209.064
50.36000 202.424
50.40000 209.573
50.44000 213.385
50.48000 223.373
50.52000 225.492
50.56000 251.784
50.60000 250.146
50.64000 258.061
50.68000 267.141
50.72000 284.716
50.76000 281.317
50.80000 286.769
50.84000 264.631
50.88000 252.680
50.92000 241.660
50.96000 232.517
51.00000 225.647
51.04000 204.037
51.08000 202.797
51.12000 192.726
51.16000 190.051
51.20000 188.337
51.24000 196.536
51.28000 188.262
51.32000 179.306
51.36000 177.609
51.40000 176.739
51.44000 169.305
51.48000 172.233
51.52000 174.373
51.56000 182.461
51.60000 171.492
51.64000 164.073
51.68000 172.588
51.72000 169.721
51.76000 176.040
51.80000 160.008
51.84000 161.518
51.88000 175.076
51.92000 168.144
51.96000 155.068
52.00000 165.691
52.04000 164.314
52.08000 174.430
52.12000 177.107
52.16000 161.523
52.20000 155.345
52.24000 158.559
52.28000 166.204
52.32000 168.053
52.36000 162.160
52.40000 165.538
52.44000 164.641
52.48000 163.060
52.52000 159.389
52.56000 181.843
52.60000 172.523
52.64000 165.122
52.68000 170.934
52.72000 166.994
52.76000 158.181
52.80000 162.670
52.84000 159.086
52.88000 149.677
52.92000 166.184
52.96000 163.287
53.00000 179.355
53.04000 160.119
53.08000 163.997
53.12000 157.549
53.16000 173.002
53.20000 173.591
53.24000 174.388
53.28000 171.863
53.32000 170.384
53.36000 171.399
53.40000 161.666
53.44000 161.840
53.48000 161.768
53.52000 173.308
53.56000 161.266
53.60000 161.877
53.64000 162.243
53.68000 147.580
53.72000 154.953
53.76000 161.166
53.80000 156.424
53.84000 165.125
53.88000 169.487
53.92000 161.861
53.96000 160.078
54.00000 164.937
54.04000 155.331
54.08000 153.949
54.12000 148.434
54.16000 162.450
54.20000 150.544
54.24000 159.181
54.28000 154.708
54.32000 152.971
54.36000 152.449
54.40000 164.562
54.44000 165.596
54.48000 165.207
54.52000 164.428
54.56000 178.398
54.60000 160.542
54.64000 170.198
54.68000 155.106
54.72000 160.906
54.76000 163.516
54.80000 169.467
54.84000 165.371
54.88000 161.695
54.92000 168.129
54.96000 164.947
55.00000 166.122
55.04000 167.011
55.08000 176.735
55.12000 166.291
55.16000 165.956
55.20000 175.724
55.24000 168.204
55.28000 184.058
55.32000 184.060
55.36000 197.921
55.40000 192.706
55.44000 204.297
55.48000 214.814
55.52000 237.107
55.56000 250.190
55.60000 255.101
55.64000 305.991
55.68000 338.427
55.72000 362.687
55.76000 427.772
55.80000 468.980
55.84000 530.974
55.88000 568.603
55.92000 588.030
55.96000 578.353
56.00000 577.876
56.04000 549.589
56.08000 504.680
56.12000 457.053
56.16000 429.708
56.20000 376.498
56.24000 339.563
56.28000 292.386
56.32000 265.063
56.36000 252.410
56.40000 230.030
56.44000 199.557
56.48000 205.394
56.52000 198.877
56.56000 199.344
56.60000 189.148
56.64000 191.802
56.68000 170.859
56.72000 179.731
56.76000 168.047
56.80000 164.500
56.84000 160.296
56.88000 157.433
56.92000 165.647
56.96000 151.852
57.00000 167.837
57.04000 153.042
57.08000 147.053
57.12000 148.349
57.16000 150.164
57.20000 157.047
57.24000 157.107
57.28000 147.688
57.32000 147.587
57.36000 144.958
57.40000 131.282
57.44000 144.319
57.48000 143.641
57.52000 149.844
57.56000 156.889
57.60000 148.035
57.64000 145.726
57.68000 141.519
57.72000 148.462
57.76000 141.412
57.80000 130.297
57.84000 151.712
57.88000 143.861
57.92000 140.737
57.96000 143.577
58.00000 137.959
58.04000 143.278
58.08000 145.461
58.12000 143.206
58.16000 141.201
58.20000 151.686
58.24000 141.655
58.28000 142.865
58.32000 139.105
58.36000 141.361
58.40000 140.849
58.44000 136.883
58.48000 137.185
58.52000 143.795
58.56000 143.974
58.60000 134.520
58.64000 138.493
58.68000 143.163
58.72000 139.868
58.76000 133.537
58.80000 135.565
58.84000 149.534
58.88000 136.535
58.92000 130.831
58.96000 139.441
59.00000 136.843
59.04000 150.057
59.08000 134.981
59.12000 135.872
59.16000 143.005
59.20000 144.435
59.24000 141.416
59.28000 131.304
59.32000 128.627
59.36000 136.368
59.40000 133.566
59.44000 130.003
59.48000 133.585
59.52000 119.489
59.56000 129.151
59.60000 141.482
59.64000 135.053
59.68000 141.273
59.72000 132.324
59.76000 138.785
59.80000 139.082
59.84000 129.745
59.88000 126.261
59.92000 131.237
59.96000 134.101
60.00000 128.026
60.04000 125.207
60.08000 133.732
60.12000 130.092
60.16000 140.000
60.20000 129.830
60.24000 140.308
60.28000 141.705
60.32000 135.906
60.36000 138.806
60.40000 134.680
60.44000 134.577
60.48000 133.353
60.52000 136.412
60.56000 132.986
60.60000 131.285
60.64000 139.085
60.68000 135.804
60.72000 132.509
60.76000 138.025
60.80000 137.862
60.84000 131.873
60.88000 134.792
60.92000 139.233
60.96000 137.794
61.00000 130.565
61.04000 140.168
61.08000 142.577
61.12000 146.706
61.16000 141.893
61.20000 141.484
61.24000 147.160
61.28000 140.198
61.32000 138.581
61.36000 145.503
61.40000 138.929
61.44000 155.983
61.48000 148.168
61.52000 183.288
61.56000 225.102
61.60000 309.446
61.64000 360.130
61.68000 384.345
61.72000 362.286
61.76000 362.644
61.80000 295.770
61.84000 222.525
61.88000 185.546
61.92000 159.417
61.96000 162.392
62.00000 146.491
62.04000 144.041
62.08000 152.462
62.12000 156.272
62.16000 154.053
62.20000 142.550
62.24000 147.997
62.28000 155.206
62.32000 145.253
62.36000 151.141
62.40000 148.373
62.44000 147.661
62.48000 148.183
62.52000 143.789
62.56000 147.529
62.60000 142.412
62.64000 144.578
62.68000 148.064
62.72000 145.723
62.76000 150.021
62.80000 144.505
62.84000 147.389
62.88000 143.189
62.92000 143.607
62.96000 148.840
63.00000 149.990
63.04000 151.755
63.08000 150.285
63.12000 165.002
63.16000 156.056
63.20000 157.440
63.24000 144.691
63.28000 147.532
63.32000 147.974
63.36000 160.628
63.40000 154.250
63.44000 156.456
63.48000 138.416
63.52000 153.421
63.56000 163.462
63.60000 155.482
63.64000 152.585
63.68000 143.529
63.72000 154.675
63.76000 153.289
63.80000 161.924
63.84000 163.422
63.88000 158.682
63.92000 155.657
63.96000 169.071
64.00000 157.762
64.04000 163.014
64.08000 170.928
64.12000 159.741
64.16000 162.023
64.20000 161.933
64.24000 166.134
64.28000 176.511
64.32000 173.151
64.36000 164.176
64.40000 170.875
64.44000 167.322
64.48000 163.321
64.52000 171.204
64.56000 177.178
64.60000 184.310
64.64000 182.954
64.68000 181.257
64.72000 167.263
64.76000 181.295
64.80000 182.361
64.84000 187.776
64.88000 196.672
64.92000 188.094
64.96000 190.133
65.00000 211.129
65.04000 200.471
65.08000 219.059
65.12000 225.881
65.16000 230.236
65.20000 232.971
65.24000 255.063
65.28000 268.349
65.32000 292.053
65.36000 311.242
65.40000 331.797
65.44000 363.248
65.48000 385.553
65.52000 401.253
65.56000 445.956
65.60000 471.619
65.64000 532.131
65.68000 598.937
65.72000 842.356
65.76000 1129.013
65.80000 1413.411
65.84000 1591.525
65.88000 1648.363
65.92000 1598.804
65.96000 1398.331
66.00000 980.283
66.04000 656.377
66.08000 485.984
66.12000 413.907
66.16000 412.454
66.20000 381.456
66.24000 390.504
66.28000 453.018
66.32000 495.479
66.36000 544.601
66.40000 587.797
66.44000 583.749
66.48000 583.306
66.52000 529.505
66.56000 460.901
66.60000 407.167
66.64000 386.904
66.68000 356.548
66.72000 371.195
66.76000 371.196
66.80000 365.655
66.84000 378.207
66.88000 374.136
66.92000 389.569
66.96000 390.035
67.00000 404.770
67.04000 403.383
67.08000 423.904
67.12000 413.949
67.16000 422.777
67.20000 433.701
67.24000 447.314
67.28000 455.772
67.32000 463.276
67.36000 456.253
67.40000 485.962
67.44000 485.252
67.48000 490.655
67.52000 470.485
67.56000 513.377
67.60000 512.191
67.64000 550.416
67.68000 551.156
67.72000 548.182
67.76000 561.748
67.80000 578.173
67.84000 597.524
67.88000 591.837
67.92000 625.870
67.96000 638.742
68.00000 643.485
68.04000 671.054
68.08000 654.089
68.12000 692.895
68.16000 690.835
68.20000 723.126
68.24000 777.560
68.28000 762.225
68.32000 788.970
68.36000 831.119
68.40000 861.108
68.44000 909.699
68.48000 945.510
68.52000 1044.338
68.56000 1118.045
68.60000 1261.453
68.64000 1491.256
68.68000 1835.151
68.72000 2176.675
68.76000 2547.257
68.80000 2995.490
68.84000 3724.839
68.88000 5111.542
68.92000 9219.780
68.96000 20750.131
69.00000 45726.023
69.04000 74281.617
69.08000 91031.781
69.12000 95576.758
69.16000 99222.500
69.20000 98826.445
69.24000 84309.305
69.28000 65746.938
69.32000 53376.797
69.36000 47207.758
69.40000 39242.066
69.44000 24991.818
69.48000 12336.406
69.52000 5560.741
69.56000 3073.975
69.60000 2200.058
69.64000 1782.273
69.68000 1548.044
69.72000 1373.912
69.76000 1238.767
69.80000 1118.579
69.84000 1036.172
69.88000 945.858
69.92000 931.212
69.96000 887.033
70.00000 844.076