File: XRD/XRD/22-09-2025 Dep 2/XY Data/BTO_Mapping_Theta2Theta_22-09-2025_001_17_2-225_9-749.xy
20.00000 575.658
20.04000 567.780
20.08000 586.503
20.12000 576.156
20.16000 553.865
20.20000 594.899
20.24000 566.847
20.28000 555.807
20.32000 556.700
20.36000 562.374
20.40000 548.770
20.44000 571.993
20.48000 564.312
20.52000 558.045
20.56000 564.215
20.60000 558.014
20.64000 552.448
20.68000 538.593
20.72000 550.007
20.76000 562.060
20.80000 581.468
20.84000 578.020
20.88000 549.750
20.92000 534.099
20.96000 573.091
21.00000 558.083
21.04000 552.852
21.08000 562.200
21.12000 545.207
21.16000 556.401
21.20000 554.812
21.24000 552.487
21.28000 553.945
21.32000 576.453
21.36000 553.542
21.40000 575.533
21.44000 550.471
21.48000 564.556
21.52000 566.954
21.56000 563.445
21.60000 567.814
21.64000 571.965
21.68000 586.387
21.72000 600.024
21.76000 623.998
21.80000 630.374
21.84000 664.152
21.88000 676.462
21.92000 721.622
21.96000 766.653
22.00000 817.641
22.04000 820.646
22.08000 830.758
22.12000 815.210
22.16000 774.678
22.20000 755.207
22.24000 704.133
22.28000 676.877
22.32000 663.738
22.36000 627.128
22.40000 607.309
22.44000 574.076
22.48000 599.813
22.52000 555.167
22.56000 545.597
22.60000 541.768
22.64000 531.350
22.68000 545.618
22.72000 517.984
22.76000 518.661
22.80000 523.812
22.84000 528.575
22.88000 533.657
22.92000 524.544
22.96000 499.098
23.00000 509.729
23.04000 532.156
23.08000 518.953
23.12000 508.631
23.16000 519.385
23.20000 519.021
23.24000 517.998
23.28000 500.948
23.32000 499.111
23.36000 529.317
23.40000 520.212
23.44000 510.115
23.48000 509.792
23.52000 497.406
23.56000 497.182
23.60000 494.554
23.64000 510.115
23.68000 502.439
23.72000 504.786
23.76000 497.254
23.80000 497.620
23.84000 504.029
23.88000 502.987
23.92000 498.737
23.96000 494.168
24.00000 522.488
24.04000 500.076
24.08000 508.696
24.12000 512.340
24.16000 524.625
24.20000 495.997
24.24000 502.708
24.28000 501.580
24.32000 485.471
24.36000 497.862
24.40000 489.189
24.44000 493.118
24.48000 483.461
24.52000 478.158
24.56000 484.229
24.60000 482.157
24.64000 477.573
24.68000 495.556
24.72000 488.916
24.76000 481.268
24.80000 466.913
24.84000 487.611
24.88000 491.917
24.92000 482.019
24.96000 482.421
25.00000 477.762
25.04000 470.168
25.08000 491.748
25.12000 469.519
25.16000 468.019
25.20000 459.248
25.24000 468.119
25.28000 465.329
25.32000 456.704
25.36000 467.218
25.40000 469.117
25.44000 473.779
25.48000 461.291
25.52000 475.013
25.56000 470.284
25.60000 453.280
25.64000 493.449
25.68000 480.471
25.72000 471.788
25.76000 460.566
25.80000 452.859
25.84000 469.913
25.88000 482.622
25.92000 469.438
25.96000 458.728
26.00000 443.565
26.04000 462.766
26.08000 443.947
26.12000 447.003
26.16000 464.062
26.20000 445.419
26.24000 464.202
26.28000 464.449
26.32000 460.021
26.36000 448.996
26.40000 462.564
26.44000 457.528
26.48000 457.583
26.52000 450.869
26.56000 454.681
26.60000 466.244
26.64000 461.267
26.68000 456.856
26.72000 453.288
26.76000 466.528
26.80000 453.226
26.84000 431.757
26.88000 450.073
26.92000 434.101
26.96000 436.168
27.00000 436.980
27.04000 456.033
27.08000 458.321
27.12000 454.468
27.16000 446.868
27.20000 443.337
27.24000 423.794
27.28000 437.774
27.32000 439.750
27.36000 452.760
27.40000 432.253
27.44000 450.562
27.48000 453.327
27.52000 446.383
27.56000 445.026
27.60000 435.738
27.64000 429.443
27.68000 442.291
27.72000 457.200
27.76000 437.169
27.80000 431.821
27.84000 438.541
27.88000 427.687
27.92000 444.889
27.96000 441.820
28.00000 423.650
28.04000 429.938
28.08000 430.987
28.12000 423.206
28.16000 450.647
28.20000 426.608
28.24000 432.443
28.28000 427.667
28.32000 438.980
28.36000 411.375
28.40000 434.232
28.44000 431.665
28.48000 436.744
28.52000 422.572
28.56000 410.295
28.60000 431.524
28.64000 419.383
28.68000 405.766
28.72000 415.770
28.76000 416.085
28.80000 434.910
28.84000 430.900
28.88000 412.930
28.92000 415.711
28.96000 414.905
29.00000 412.243
29.04000 424.561
29.08000 411.031
29.12000 423.238
29.16000 430.277
29.20000 420.837
29.24000 417.062
29.28000 425.016
29.32000 425.413
29.36000 410.491
29.40000 428.566
29.44000 410.325
29.48000 411.235
29.52000 419.098
29.56000 422.548
29.60000 430.851
29.64000 422.910
29.68000 428.166
29.72000 412.654
29.76000 413.299
29.80000 420.656
29.84000 423.066
29.88000 436.827
29.92000 431.189
29.96000 447.350
30.00000 454.414
30.04000 440.719
30.08000 436.491
30.12000 434.823
30.16000 457.928
30.20000 453.564
30.24000 441.853
30.28000 455.242
30.32000 432.776
30.36000 436.401
30.40000 443.990
30.44000 445.217
30.48000 438.725
30.52000 450.414
30.56000 444.820
30.60000 465.598
30.64000 468.714
30.68000 469.050
30.72000 477.917
30.76000 497.760
30.80000 480.304
30.84000 507.297
30.88000 557.442
30.92000 550.626
30.96000 572.204
31.00000 638.850
31.04000 699.339
31.08000 836.529
31.12000 1009.740
31.16000 1290.737
31.20000 1629.067
31.24000 2109.469
31.28000 2614.939
31.32000 3081.539
31.36000 3399.177
31.40000 3451.699
31.44000 3342.492
31.48000 2971.235
31.52000 2613.727
31.56000 2102.552
31.60000 1659.061
31.64000 1299.367
31.68000 1054.374
31.72000 864.068
31.76000 736.876
31.80000 651.774
31.84000 602.306
31.88000 539.814
31.92000 522.310
31.96000 479.609
32.00000 469.051
32.04000 454.541
32.08000 435.557
32.12000 431.681
32.16000 416.664
32.20000 432.217
32.24000 418.172
32.28000 404.108
32.32000 400.551
32.36000 405.404
32.40000 412.699
32.44000 418.178
32.48000 400.948
32.52000 397.502
32.56000 395.925
32.60000 393.764
32.64000 386.013
32.68000 390.521
32.72000 391.360
32.76000 401.419
32.80000 395.790
32.84000 406.530
32.88000 415.421
32.92000 434.318
32.96000 391.011
33.00000 406.774
33.04000 414.459
33.08000 378.271
33.12000 367.745
33.16000 373.841
33.20000 361.516
33.24000 361.013
33.28000 357.176
33.32000 367.929
33.36000 338.979
33.40000 359.916
33.44000 369.573
33.48000 339.031
33.52000 342.345
33.56000 346.483
33.60000 326.727
33.64000 328.816
33.68000 349.039
33.72000 338.055
33.76000 361.184
33.80000 341.295
33.84000 346.771
33.88000 348.023
33.92000 346.646
33.96000 344.296
34.00000 346.528
34.04000 339.802
34.08000 325.587
34.12000 344.628
34.16000 338.005
34.20000 338.592
34.24000 340.883
34.28000 334.814
34.32000 335.826
34.36000 349.186
34.40000 349.260
34.44000 314.860
34.48000 336.461
34.52000 327.741
34.56000 329.415
34.60000 325.405
34.64000 335.159
34.68000 328.153
34.72000 337.820
34.76000 318.869
34.80000 317.764
34.84000 334.697
34.88000 325.264
34.92000 323.592
34.96000 318.940
35.00000 315.491
35.04000 311.083
35.08000 314.756
35.12000 316.175
35.16000 334.232
35.20000 323.516
35.24000 299.681
35.28000 321.462
35.32000 325.212
35.36000 320.072
35.40000 325.681
35.44000 315.660
35.48000 311.714
35.52000 303.953
35.56000 314.509
35.60000 306.932
35.64000 309.967
35.68000 304.904
35.72000 312.078
35.76000 313.331
35.80000 324.281
35.84000 311.099
35.88000 284.086
35.92000 310.101
35.96000 313.644
36.00000 317.069
36.04000 294.272
36.08000 304.443
36.12000 312.729
36.16000 319.486
36.20000 299.439
36.24000 307.305
36.28000 320.204
36.32000 291.343
36.36000 308.930
36.40000 286.409
36.44000 304.915
36.48000 305.987
36.52000 297.227
36.56000 305.672
36.60000 310.328
36.64000 295.153
36.68000 297.163
36.72000 312.435
36.76000 310.271
36.80000 319.560
36.84000 302.186
36.88000 313.601
36.92000 315.531
36.96000 305.065
37.00000 298.723
37.04000 303.324
37.08000 306.152
37.12000 287.014
37.16000 309.213
37.20000 294.197
37.24000 302.675
37.28000 300.563
37.32000 288.221
37.36000 302.344
37.40000 304.258
37.44000 290.654
37.48000 301.329
37.52000 311.895
37.56000 291.966
37.60000 294.895
37.64000 292.425
37.68000 299.594
37.72000 303.406
37.76000 307.737
37.80000 295.044
37.84000 293.941
37.88000 318.264
37.92000 307.697
37.96000 304.810
38.00000 314.153
38.04000 295.829
38.08000 306.413
38.12000 304.768
38.16000 300.150
38.20000 308.551
38.24000 323.140
38.28000 333.244
38.32000 354.622
38.36000 385.088
38.40000 394.465
38.44000 426.662
38.48000 495.551
38.52000 556.478
38.56000 669.726
38.60000 764.303
38.64000 866.842
38.68000 979.496
38.72000 992.906
38.76000 995.136
38.80000 895.022
38.84000 795.526
38.88000 686.981
38.92000 586.784
38.96000 503.419
39.00000 440.596
39.04000 391.577
39.08000 364.774
39.12000 345.455
39.16000 329.594
39.20000 308.223
39.24000 301.824
39.28000 307.563
39.32000 294.998
39.36000 288.890
39.40000 301.490
39.44000 288.159
39.48000 286.742
39.52000 275.491
39.56000 272.671
39.60000 276.480
39.64000 275.732
39.68000 269.839
39.72000 268.610
39.76000 275.311
39.80000 260.712
39.84000 275.219
39.88000 274.436
39.92000 275.546
39.96000 277.033
40.00000 281.628
40.04000 256.324
40.08000 261.580
40.12000 262.517
40.16000 267.826
40.20000 275.276
40.24000 261.313
40.28000 255.755
40.32000 261.484
40.36000 252.574
40.40000 268.132
40.44000 260.550
40.48000 258.270
40.52000 251.416
40.56000 257.448
40.60000 257.756
40.64000 256.584
40.68000 259.849
40.72000 270.074
40.76000 260.562
40.80000 254.093
40.84000 249.646
40.88000 258.029
40.92000 243.285
40.96000 263.803
41.00000 249.825
41.04000 241.108
41.08000 239.453
41.12000 249.776
41.16000 240.445
41.20000 239.713
41.24000 257.005
41.28000 256.270
41.32000 254.562
41.36000 256.183
41.40000 251.626
41.44000 251.191
41.48000 237.616
41.52000 256.884
41.56000 248.570
41.60000 255.163
41.64000 236.227
41.68000 243.055
41.72000 239.447
41.76000 238.731
41.80000 243.862
41.84000 244.272
41.88000 236.804
41.92000 245.138
41.96000 228.333
42.00000 243.355
42.04000 233.146
42.08000 242.512
42.12000 228.879
42.16000 233.909
42.20000 237.272
42.24000 233.904
42.28000 239.263
42.32000 233.315
42.36000 239.463
42.40000 243.935
42.44000 229.250
42.48000 243.962
42.52000 237.477
42.56000 252.576
42.60000 239.029
42.64000 242.670
42.68000 240.028
42.72000 236.772
42.76000 227.726
42.80000 226.535
42.84000 225.065
42.88000 223.750
42.92000 242.628
42.96000 242.068
43.00000 218.474
43.04000 227.059
43.08000 240.327
43.12000 231.110
43.16000 234.703
43.20000 218.993
43.24000 217.216
43.28000 238.488
43.32000 228.664
43.36000 218.956
43.40000 231.565
43.44000 226.581
43.48000 229.838
43.52000 235.419
43.56000 227.292
43.60000 227.749
43.64000 229.372
43.68000 229.506
43.72000 227.421
43.76000 225.707
43.80000 217.483
43.84000 226.485
43.88000 244.341
43.92000 237.148
43.96000 224.739
44.00000 239.127
44.04000 232.323
44.08000 233.194
44.12000 230.980
44.16000 232.638
44.20000 220.893
44.24000 232.808
44.28000 229.497
44.32000 231.002
44.36000 227.465
44.40000 244.319
44.44000 232.116
44.48000 228.662
44.52000 236.324
44.56000 243.827
44.60000 254.332
44.64000 253.263
44.68000 267.897
44.72000 272.016
44.76000 295.948
44.80000 305.969
44.84000 310.529
44.88000 339.873
44.92000 381.641
44.96000 387.684
45.00000 417.971
45.04000 444.160
45.08000 441.207
45.12000 445.717
45.16000 447.637
45.20000 433.234
45.24000 397.835
45.28000 391.570
45.32000 377.446
45.36000 338.363
45.40000 325.636
45.44000 306.050
45.48000 301.843
45.52000 284.345
45.56000 278.173
45.60000 266.494
45.64000 272.688
45.68000 257.785
45.72000 257.577
45.76000 245.512
45.80000 245.171
45.84000 232.084
45.88000 237.090
45.92000 234.985
45.96000 239.566
46.00000 240.106
46.04000 219.542
46.08000 212.384
46.12000 214.763
46.16000 209.199
46.20000 212.021
46.24000 206.602
46.28000 213.844
46.32000 221.529
46.36000 203.240
46.40000 218.881
46.44000 210.106
46.48000 210.703
46.52000 203.955
46.56000 205.295
46.60000 208.686
46.64000 198.041
46.68000 198.621
46.72000 193.567
46.76000 204.212
46.80000 204.478
46.84000 194.599
46.88000 198.426
46.92000 190.257
46.96000 193.252
47.00000 196.443
47.04000 196.666
47.08000 201.441
47.12000 200.885
47.16000 206.802
47.20000 189.223
47.24000 208.671
47.28000 193.201
47.32000 190.876
47.36000 205.670
47.40000 184.142
47.44000 192.599
47.48000 180.202
47.52000 196.819
47.56000 191.620
47.60000 187.858
47.64000 191.894
47.68000 200.981
47.72000 185.863
47.76000 183.391
47.80000 193.053
47.84000 179.273
47.88000 186.439
47.92000 191.946
47.96000 186.846
48.00000 188.310
48.04000 191.206
48.08000 180.641
48.12000 187.524
48.16000 182.558
48.20000 183.865
48.24000 184.395
48.28000 181.846
48.32000 180.547
48.36000 177.079
48.40000 173.833
48.44000 176.080
48.48000 174.186
48.52000 191.172
48.56000 193.392
48.60000 189.008
48.64000 177.163
48.68000 187.205
48.72000 169.603
48.76000 181.708
48.80000 189.554
48.84000 178.252
48.88000 187.214
48.92000 182.358
48.96000 185.971
49.00000 189.281
49.04000 171.176
49.08000 180.165
49.12000 178.668
49.16000 178.942
49.20000 186.844
49.24000 184.154
49.28000 183.956
49.32000 190.236
49.36000 180.245
49.40000 184.174
49.44000 181.590
49.48000 189.752
49.52000 182.781
49.56000 195.199
49.60000 182.428
49.64000 178.993
49.68000 173.940
49.72000 167.003
49.76000 175.983
49.80000 168.805
49.84000 180.929
49.88000 177.048
49.92000 182.149
49.96000 189.367
50.00000 182.281
50.04000 177.251
50.08000 179.838
50.12000 180.942
50.16000 176.426
50.20000 189.070
50.24000 201.506
50.28000 178.519
50.32000 189.058
50.36000 180.186
50.40000 194.668
50.44000 197.286
50.48000 213.747
50.52000 223.183
50.56000 238.683
50.60000 250.817
50.64000 241.457
50.68000 252.346
50.72000 252.876
50.76000 264.026
50.80000 260.441
50.84000 264.278
50.88000 234.267
50.92000 237.327
50.96000 228.536
51.00000 210.793
51.04000 204.670
51.08000 201.089
51.12000 199.321
51.16000 200.915
51.20000 185.566
51.24000 191.912
51.28000 180.087
51.32000 170.166
51.36000 179.697
51.40000 181.120
51.44000 178.878
51.48000 169.308
51.52000 165.921
51.56000 183.615
51.60000 165.420
51.64000 177.340
51.68000 170.278
51.72000 164.635
51.76000 170.163
51.80000 164.403
51.84000 165.469
51.88000 171.781
51.92000 174.114
51.96000 164.276
52.00000 171.197
52.04000 174.827
52.08000 170.306
52.12000 160.097
52.16000 161.507
52.20000 166.628
52.24000 162.436
52.28000 163.901
52.32000 157.954
52.36000 172.344
52.40000 156.803
52.44000 160.703
52.48000 163.615
52.52000 159.900
52.56000 158.163
52.60000 161.366
52.64000 167.733
52.68000 167.199
52.72000 166.194
52.76000 167.185
52.80000 159.647
52.84000 145.996
52.88000 150.275
52.92000 156.815
52.96000 156.413
53.00000 164.368
53.04000 156.660
53.08000 156.660
53.12000 152.601
53.16000 162.350
53.20000 156.170
53.24000 153.950
53.28000 158.105
53.32000 167.464
53.36000 162.981
53.40000 165.228
53.44000 163.027
53.48000 162.208
53.52000 169.290
53.56000 158.726
53.60000 170.777
53.64000 170.348
53.68000 158.610
53.72000 156.592
53.76000 155.614
53.80000 164.436
53.84000 160.305
53.88000 157.487
53.92000 151.186
53.96000 165.208
54.00000 160.508
54.04000 155.362
54.08000 168.095
54.12000 157.940
54.16000 163.017
54.20000 160.552
54.24000 170.841
54.28000 156.681
54.32000 150.293
54.36000 146.149
54.40000 152.458
54.44000 155.980
54.48000 168.966
54.52000 157.236
54.56000 157.549
54.60000 154.002
54.64000 154.470
54.68000 164.625
54.72000 163.339
54.76000 161.896
54.80000 155.264
54.84000 154.654
54.88000 176.763
54.92000 156.895
54.96000 174.197
55.00000 152.985
55.04000 157.179
55.08000 160.998
55.12000 170.471
55.16000 158.732
55.20000 161.773
55.24000 172.190
55.28000 165.497
55.32000 184.246
55.36000 179.434
55.40000 187.631
55.44000 187.253
55.48000 196.603
55.52000 208.694
55.56000 221.889
55.60000 234.490
55.64000 250.905
55.68000 288.437
55.72000 319.247
55.76000 360.948
55.80000 383.737
55.84000 445.024
55.88000 500.695
55.92000 535.482
55.96000 561.604
56.00000 563.962
56.04000 528.856
56.08000 502.729
56.12000 460.458
56.16000 414.833
56.20000 375.113
56.24000 333.114
56.28000 305.481
56.32000 274.956
56.36000 238.821
56.40000 230.565
56.44000 223.959
56.48000 204.562
56.52000 201.324
56.56000 188.052
56.60000 178.350
56.64000 165.543
56.68000 166.716
56.72000 169.254
56.76000 158.707
56.80000 165.546
56.84000 156.508
56.88000 161.303
56.92000 152.423
56.96000 148.357
57.00000 145.707
57.04000 139.738
57.08000 149.333
57.12000 142.261
57.16000 152.066
57.20000 139.917
57.24000 139.829
57.28000 146.979
57.32000 145.948
57.36000 149.747
57.40000 139.975
57.44000 154.972
57.48000 142.144
57.52000 145.957
57.56000 150.840
57.60000 139.083
57.64000 147.771
57.68000 140.151
57.72000 148.647
57.76000 142.935
57.80000 143.108
57.84000 143.537
57.88000 148.950
57.92000 147.859
57.96000 142.489
58.00000 158.599
58.04000 147.596
58.08000 131.532
58.12000 134.344
58.16000 147.943
58.20000 146.195
58.24000 150.083
58.28000 142.460
58.32000 139.363
58.36000 142.767
58.40000 140.911
58.44000 132.896
58.48000 141.513
58.52000 145.163
58.56000 142.971
58.60000 142.497
58.64000 142.043
58.68000 138.940
58.72000 135.192
58.76000 137.798
58.80000 140.741
58.84000 146.054
58.88000 139.191
58.92000 139.043
58.96000 130.973
59.00000 142.155
59.04000 131.106
59.08000 130.329
59.12000 136.325
59.16000 137.835
59.20000 134.696
59.24000 130.525
59.28000 133.607
59.32000 131.186
59.36000 135.927
59.40000 138.191
59.44000 137.077
59.48000 132.029
59.52000 136.480
59.56000 137.459
59.60000 134.557
59.64000 137.196
59.68000 138.749
59.72000 135.932
59.76000 134.425
59.80000 132.248
59.84000 124.274
59.88000 149.417
59.92000 134.323
59.96000 131.288
60.00000 138.880
60.04000 134.708
60.08000 132.689
60.12000 132.208
60.16000 126.457
60.20000 130.219
60.24000 135.668
60.28000 132.611
60.32000 132.482
60.36000 142.479
60.40000 136.430
60.44000 127.616
60.48000 129.815
60.52000 133.605
60.56000 134.260
60.60000 126.621
60.64000 126.478
60.68000 139.771
60.72000 128.545
60.76000 138.621
60.80000 128.361
60.84000 131.424
60.88000 136.768
60.92000 135.154
60.96000 140.904
61.00000 135.010
61.04000 142.613
61.08000 141.057
61.12000 144.265
61.16000 135.990
61.20000 146.206
61.24000 134.648
61.28000 142.156
61.32000 148.104
61.36000 145.823
61.40000 132.762
61.44000 141.134
61.48000 140.516
61.52000 171.873
61.56000 224.956
61.60000 266.312
61.64000 296.040
61.68000 321.058
61.72000 315.171
61.76000 297.295
61.80000 243.044
61.84000 193.105
61.88000 171.166
61.92000 147.649
61.96000 148.565
62.00000 150.068
62.04000 153.091
62.08000 140.409
62.12000 143.008
62.16000 147.433
62.20000 136.448
62.24000 142.623
62.28000 118.828
62.32000 143.681
62.36000 148.092
62.40000 150.854
62.44000 142.786
62.48000 135.757
62.52000 148.542
62.56000 140.059
62.60000 135.904
62.64000 148.805
62.68000 157.247
62.72000 150.492
62.76000 149.976
62.80000 144.851
62.84000 143.336
62.88000 143.760
62.92000 153.319
62.96000 138.153
63.00000 143.060
63.04000 151.151
63.08000 144.205
63.12000 145.970
63.16000 157.700
63.20000 149.504
63.24000 133.997
63.28000 141.659
63.32000 142.662
63.36000 151.958
63.40000 153.316
63.44000 150.611
63.48000 154.595
63.52000 152.764
63.56000 162.859
63.60000 154.704
63.64000 154.588
63.68000 151.851
63.72000 157.082
63.76000 159.473
63.80000 157.264
63.84000 154.167
63.88000 157.256
63.92000 159.807
63.96000 157.410
64.00000 165.703
64.04000 159.066
64.08000 153.546
64.12000 159.624
64.16000 154.673
64.20000 145.419
64.24000 156.828
64.28000 160.606
64.32000 154.070
64.36000 164.697
64.40000 162.968
64.44000 169.699
64.48000 168.713
64.52000 169.909
64.56000 178.873
64.60000 181.329
64.64000 178.336
64.68000 176.903
64.72000 163.124
64.76000 187.004
64.80000 185.177
64.84000 183.288
64.88000 187.930
64.92000 187.181
64.96000 193.935
65.00000 196.168
65.04000 200.330
65.08000 219.506
65.12000 216.092
65.16000 227.622
65.20000 229.303
65.24000 242.052
65.28000 276.609
65.32000 295.862
65.36000 302.583
65.40000 342.931
65.44000 337.175
65.48000 386.481
65.52000 414.582
65.56000 446.285
65.60000 470.175
65.64000 496.520
65.68000 583.551
65.72000 755.210
65.76000 1012.075
65.80000 1235.017
65.84000 1371.495
65.88000 1350.293
65.92000 1316.005
65.96000 1093.996
66.00000 775.776
66.04000 524.811
66.08000 426.020
66.12000 347.173
66.16000 330.550
66.20000 364.426
66.24000 352.829
66.28000 403.784
66.32000 450.473
66.36000 496.097
66.40000 500.210
66.44000 523.031
66.48000 483.057
66.52000 473.477
66.56000 396.424
66.60000 348.435
66.64000 358.745
66.68000 329.533
66.72000 336.371
66.76000 345.250
66.80000 353.338
66.84000 343.686
66.88000 349.509
66.92000 367.743
66.96000 377.804
67.00000 359.053
67.04000 376.248
67.08000 379.799
67.12000 383.391
67.16000 411.216
67.20000 400.643
67.24000 416.300
67.28000 392.878
67.32000 418.673
67.36000 424.843
67.40000 445.833
67.44000 447.545
67.48000 458.250
67.52000 460.298
67.56000 460.983
67.60000 459.560
67.64000 492.114
67.68000 491.077
67.72000 502.360
67.76000 522.907
67.80000 536.067
67.84000 517.230
67.88000 539.414
67.92000 544.002
67.96000 578.931
68.00000 581.338
68.04000 585.687
68.08000 614.640
68.12000 614.959
68.16000 639.320
68.20000 674.585
68.24000 685.777
68.28000 699.379
68.32000 734.706
68.36000 748.423
68.40000 765.108
68.44000 812.673
68.48000 886.812
68.52000 915.924
68.56000 1010.332
68.60000 1162.369
68.64000 1310.074
68.68000 1634.766
68.72000 1921.368
68.76000 2275.943
68.80000 2600.076
68.84000 3175.743
68.88000 4373.892
68.92000 8224.394
68.96000 19291.066
69.00000 41106.922
69.04000 63308.594
69.08000 74286.359
69.12000 77221.891
69.16000 80391.648
69.20000 79208.086
69.24000 65571.266
69.28000 50289.543
69.32000 41649.418
69.36000 37439.973
69.40000 30346.643
69.44000 18135.865
69.48000 8352.880
69.52000 3879.400
69.56000 2366.032
69.60000 1781.784
69.64000 1501.656
69.68000 1302.762
69.72000 1162.158
69.76000 1074.555
69.80000 977.863
69.84000 918.214
69.88000 855.257
69.92000 855.560
69.96000 771.549
70.00000 762.808