File: XRD/XRD/22-09-2025 Dep 2/XY Data/BTO_Mapping_Theta2Theta_22-09-2025_001_02_10-000_0-000.xy
20.00000 557.702
20.04000 583.661
20.08000 585.215
20.12000 555.600
20.16000 553.339
20.20000 580.767
20.24000 560.585
20.28000 557.991
20.32000 562.957
20.36000 545.470
20.40000 565.232
20.44000 569.395
20.48000 548.300
20.52000 546.587
20.56000 551.168
20.60000 567.896
20.64000 526.065
20.68000 550.000
20.72000 545.926
20.76000 557.161
20.80000 567.888
20.84000 542.252
20.88000 548.710
20.92000 543.984
20.96000 560.466
21.00000 549.379
21.04000 577.066
21.08000 557.158
21.12000 552.879
21.16000 573.239
21.20000 559.994
21.24000 548.172
21.28000 569.903
21.32000 551.115
21.36000 545.211
21.40000 546.148
21.44000 552.184
21.48000 573.314
21.52000 560.596
21.56000 567.144
21.60000 574.012
21.64000 564.699
21.68000 587.313
21.72000 570.095
21.76000 592.626
21.80000 584.666
21.84000 628.751
21.88000 653.601
21.92000 701.648
21.96000 708.275
22.00000 731.824
22.04000 785.454
22.08000 791.609
22.12000 751.490
22.16000 753.932
22.20000 740.968
22.24000 716.866
22.28000 689.594
22.32000 657.866
22.36000 631.842
22.40000 599.893
22.44000 574.165
22.48000 569.122
22.52000 545.523
22.56000 570.245
22.60000 523.889
22.64000 523.333
22.68000 526.522
22.72000 516.162
22.76000 532.354
22.80000 531.973
22.84000 497.899
22.88000 523.886
22.92000 511.908
22.96000 530.698
23.00000 521.247
23.04000 505.590
23.08000 503.610
23.12000 510.975
23.16000 516.847
23.20000 513.474
23.24000 528.675
23.28000 516.240
23.32000 510.445
23.36000 512.241
23.40000 492.693
23.44000 505.497
23.48000 514.241
23.52000 489.376
23.56000 519.662
23.60000 508.452
23.64000 515.785
23.68000 505.055
23.72000 505.328
23.76000 494.906
23.80000 533.618
23.84000 527.634
23.88000 525.410
23.92000 520.779
23.96000 537.332
24.00000 511.297
24.04000 509.716
24.08000 516.584
24.12000 501.511
24.16000 496.837
24.20000 500.007
24.24000 504.313
24.28000 488.786
24.32000 512.670
24.36000 502.548
24.40000 503.508
24.44000 487.731
24.48000 487.916
24.52000 505.653
24.56000 508.528
24.60000 481.227
24.64000 474.582
24.68000 480.192
24.72000 493.878
24.76000 489.254
24.80000 512.178
24.84000 467.547
24.88000 495.052
24.92000 484.569
24.96000 480.125
25.00000 488.581
25.04000 487.071
25.08000 458.397
25.12000 466.512
25.16000 475.530
25.20000 469.910
25.24000 482.424
25.28000 464.789
25.32000 448.241
25.36000 469.581
25.40000 460.477
25.44000 478.117
25.48000 468.480
25.52000 488.254
25.56000 467.790
25.60000 459.398
25.64000 463.104
25.68000 474.913
25.72000 462.364
25.76000 470.503
25.80000 482.557
25.84000 472.595
25.88000 463.784
25.92000 473.278
25.96000 439.422
26.00000 462.667
26.04000 472.061
26.08000 462.081
26.12000 454.980
26.16000 455.104
26.20000 440.269
26.24000 451.940
26.28000 475.061
26.32000 475.946
26.36000 449.451
26.40000 451.947
26.44000 448.701
26.48000 451.679
26.52000 447.604
26.56000 452.364
26.60000 450.810
26.64000 431.812
26.68000 451.429
26.72000 445.846
26.76000 432.326
26.80000 432.464
26.84000 447.998
26.88000 433.449
26.92000 448.872
26.96000 447.037
27.00000 441.748
27.04000 450.310
27.08000 440.648
27.12000 456.610
27.16000 429.226
27.20000 449.335
27.24000 438.492
27.28000 431.865
27.32000 415.995
27.36000 425.260
27.40000 444.892
27.44000 440.273
27.48000 445.672
27.52000 418.064
27.56000 439.026
27.60000 431.571
27.64000 447.880
27.68000 430.859
27.72000 431.564
27.76000 431.548
27.80000 432.334
27.84000 442.814
27.88000 433.347
27.92000 443.860
27.96000 427.443
28.00000 427.340
28.04000 440.216
28.08000 439.301
28.12000 428.009
28.16000 425.987
28.20000 417.077
28.24000 443.526
28.28000 439.780
28.32000 429.713
28.36000 411.444
28.40000 425.717
28.44000 447.049
28.48000 430.644
28.52000 422.619
28.56000 423.672
28.60000 436.334
28.64000 437.899
28.68000 410.374
28.72000 426.645
28.76000 424.206
28.80000 434.511
28.84000 415.503
28.88000 403.380
28.92000 428.974
28.96000 395.422
29.00000 408.797
29.04000 429.523
29.08000 427.022
29.12000 424.340
29.16000 430.949
29.20000 413.518
29.24000 433.888
29.28000 427.174
29.32000 416.514
29.36000 410.374
29.40000 406.907
29.44000 410.384
29.48000 422.688
29.52000 409.539
29.56000 406.775
29.60000 405.866
29.64000 413.289
29.68000 387.507
29.72000 428.157
29.76000 428.340
29.80000 425.938
29.84000 421.569
29.88000 424.326
29.92000 463.664
29.96000 434.620
30.00000 452.671
30.04000 455.811
30.08000 450.820
30.12000 441.695
30.16000 436.964
30.20000 442.270
30.24000 440.359
30.28000 435.367
30.32000 431.516
30.36000 420.309
30.40000 436.794
30.44000 438.178
30.48000 438.087
30.52000 445.580
30.56000 441.348
30.60000 457.238
30.64000 452.248
30.68000 453.315
30.72000 467.714
30.76000 470.141
30.80000 473.931
30.84000 485.079
30.88000 524.328
30.92000 537.136
30.96000 569.181
31.00000 613.912
31.04000 706.528
31.08000 803.312
31.12000 959.132
31.16000 1241.562
31.20000 1530.541
31.24000 2027.836
31.28000 2476.733
31.32000 2912.237
31.36000 3218.858
31.40000 3425.377
31.44000 3280.838
31.48000 2918.582
31.52000 2509.011
31.56000 2052.754
31.60000 1601.788
31.64000 1265.812
31.68000 984.804
31.72000 824.022
31.76000 711.342
31.80000 627.294
31.84000 578.169
31.88000 553.613
31.92000 507.559
31.96000 479.837
32.00000 470.372
32.04000 439.020
32.08000 434.538
32.12000 426.331
32.16000 432.462
32.20000 436.988
32.24000 426.220
32.28000 431.851
32.32000 411.014
32.36000 399.758
32.40000 413.023
32.44000 383.465
32.48000 398.780
32.52000 375.430
32.56000 365.056
32.60000 395.453
32.64000 389.917
32.68000 393.194
32.72000 395.004
32.76000 401.707
32.80000 402.471
32.84000 401.439
32.88000 411.336
32.92000 408.273
32.96000 392.657
33.00000 403.807
33.04000 387.915
33.08000 387.239
33.12000 373.305
33.16000 369.071
33.20000 359.676
33.24000 362.895
33.28000 362.688
33.32000 353.493
33.36000 349.606
33.40000 346.875
33.44000 348.988
33.48000 343.609
33.52000 354.560
33.56000 354.611
33.60000 351.739
33.64000 328.631
33.68000 346.386
33.72000 343.517
33.76000 339.179
33.80000 356.977
33.84000 348.418
33.88000 353.459
33.92000 352.968
33.96000 337.374
34.00000 333.790
34.04000 353.216
34.08000 336.931
34.12000 337.856
34.16000 359.431
34.20000 335.489
34.24000 342.104
34.28000 340.135
34.32000 342.054
34.36000 336.141
34.40000 333.719
34.44000 323.086
34.48000 331.539
34.52000 345.514
34.56000 337.137
34.60000 331.951
34.64000 337.343
34.68000 332.295
34.72000 302.402
34.76000 309.216
34.80000 315.367
34.84000 310.150
34.88000 330.215
34.92000 335.162
34.96000 337.429
35.00000 322.025
35.04000 322.719
35.08000 318.325
35.12000 344.958
35.16000 309.678
35.20000 322.460
35.24000 302.948
35.28000 319.138
35.32000 308.531
35.36000 320.005
35.40000 305.003
35.44000 303.578
35.48000 320.495
35.52000 314.282
35.56000 319.015
35.60000 303.527
35.64000 318.042
35.68000 307.846
35.72000 303.577
35.76000 299.615
35.80000 306.673
35.84000 312.067
35.88000 289.311
35.92000 313.401
35.96000 318.193
36.00000 311.763
36.04000 297.362
36.08000 308.153
36.12000 299.422
36.16000 311.280
36.20000 306.214
36.24000 308.101
36.28000 294.778
36.32000 304.915
36.36000 300.763
36.40000 299.403
36.44000 307.314
36.48000 292.786
36.52000 297.501
36.56000 300.957
36.60000 304.736
36.64000 303.225
36.68000 305.039
36.72000 311.979
36.76000 308.626
36.80000 321.384
36.84000 306.165
36.88000 299.036
36.92000 296.446
36.96000 298.130
37.00000 302.263
37.04000 302.643
37.08000 297.242
37.12000 305.348
37.16000 302.991
37.20000 301.817
37.24000 315.775
37.28000 288.566
37.32000 307.148
37.36000 285.866
37.40000 295.768
37.44000 273.342
37.48000 290.126
37.52000 282.954
37.56000 295.694
37.60000 302.342
37.64000 309.041
37.68000 309.989
37.72000 295.893
37.76000 285.962
37.80000 295.701
37.84000 282.796
37.88000 291.767
37.92000 293.266
37.96000 284.211
38.00000 308.708
38.04000 300.590
38.08000 303.098
38.12000 282.515
38.16000 289.138
38.20000 321.430
38.24000 313.606
38.28000 317.100
38.32000 331.683
38.36000 341.632
38.40000 381.003
38.44000 399.404
38.48000 451.493
38.52000 531.452
38.56000 634.776
38.60000 759.635
38.64000 895.634
38.68000 974.950
38.72000 1037.786
38.76000 1030.898
38.80000 947.613
38.84000 865.036
38.88000 737.121
38.92000 624.782
38.96000 539.102
39.00000 438.283
39.04000 386.524
39.08000 359.450
39.12000 314.156
39.16000 318.861
39.20000 299.457
39.24000 289.922
39.28000 297.523
39.32000 288.519
39.36000 291.391
39.40000 276.276
39.44000 289.362
39.48000 283.202
39.52000 277.206
39.56000 269.709
39.60000 282.735
39.64000 273.438
39.68000 287.338
39.72000 286.691
39.76000 268.316
39.80000 273.013
39.84000 275.348
39.88000 260.481
39.92000 271.988
39.96000 263.840
40.00000 265.479
40.04000 261.198
40.08000 268.698
40.12000 264.281
40.16000 254.322
40.20000 266.465
40.24000 256.535
40.28000 260.477
40.32000 256.765
40.36000 254.268
40.40000 269.442
40.44000 264.786
40.48000 262.798
40.52000 252.216
40.56000 248.939
40.60000 267.838
40.64000 250.549
40.68000 241.591
40.72000 255.690
40.76000 254.039
40.80000 263.281
40.84000 246.152
40.88000 262.189
40.92000 246.210
40.96000 252.440
41.00000 246.449
41.04000 258.586
41.08000 260.251
41.12000 255.248
41.16000 258.937
41.20000 246.123
41.24000 232.789
41.28000 258.759
41.32000 239.926
41.36000 248.583
41.40000 251.569
41.44000 251.323
41.48000 248.532
41.52000 240.027
41.56000 255.045
41.60000 242.195
41.64000 249.048
41.68000 238.492
41.72000 228.233
41.76000 231.023
41.80000 247.710
41.84000 226.079
41.88000 251.053
41.92000 243.886
41.96000 230.784
42.00000 236.945
42.04000 229.211
42.08000 232.918
42.12000 242.677
42.16000 229.602
42.20000 228.193
42.24000 245.906
42.28000 242.767
42.32000 251.929
42.36000 249.239
42.40000 232.039
42.44000 254.003
42.48000 247.520
42.52000 223.253
42.56000 235.729
42.60000 238.574
42.64000 246.868
42.68000 238.771
42.72000 240.818
42.76000 235.957
42.80000 233.265
42.84000 230.012
42.88000 234.319
42.92000 223.996
42.96000 234.599
43.00000 231.563
43.04000 231.674
43.08000 231.716
43.12000 225.751
43.16000 228.631
43.20000 228.811
43.24000 236.398
43.28000 228.404
43.32000 236.222
43.36000 227.202
43.40000 226.272
43.44000 241.338
43.48000 225.655
43.52000 222.339
43.56000 223.662
43.60000 239.916
43.64000 222.218
43.68000 220.019
43.72000 220.598
43.76000 226.752
43.80000 223.626
43.84000 224.116
43.88000 237.169
43.92000 228.041
43.96000 240.949
44.00000 229.425
44.04000 230.577
44.08000 221.457
44.12000 223.630
44.16000 227.404
44.20000 224.954
44.24000 222.574
44.28000 224.162
44.32000 229.403
44.36000 224.820
44.40000 234.161
44.44000 220.383
44.48000 226.349
44.52000 223.182
44.56000 251.351
44.60000 253.639
44.64000 251.345
44.68000 260.338
44.72000 247.006
44.76000 261.064
44.80000 270.669
44.84000 287.080
44.88000 313.417
44.92000 338.311
44.96000 368.268
45.00000 363.000
45.04000 380.791
45.08000 411.098
45.12000 409.690
45.16000 404.317
45.20000 391.457
45.24000 389.617
45.28000 374.174
45.32000 341.602
45.36000 336.423
45.40000 319.999
45.44000 300.066
45.48000 297.809
45.52000 278.083
45.56000 269.948
45.60000 274.164
45.64000 264.458
45.68000 262.754
45.72000 246.078
45.76000 246.816
45.80000 244.711
45.84000 223.772
45.88000 239.112
45.92000 225.998
45.96000 226.064
46.00000 232.599
46.04000 230.767
46.08000 224.813
46.12000 213.464
46.16000 218.640
46.20000 216.316
46.24000 206.761
46.28000 201.043
46.32000 218.746
46.36000 220.804
46.40000 198.774
46.44000 196.436
46.48000 208.690
46.52000 200.551
46.56000 206.574
46.60000 193.414
46.64000 203.733
46.68000 191.565
46.72000 188.481
46.76000 196.825
46.80000 205.378
46.84000 195.346
46.88000 198.372
46.92000 202.094
46.96000 205.508
47.00000 194.273
47.04000 193.053
47.08000 196.080
47.12000 193.933
47.16000 196.969
47.20000 184.714
47.24000 198.101
47.28000 193.605
47.32000 193.257
47.36000 190.363
47.40000 178.563
47.44000 179.983
47.48000 187.172
47.52000 178.232
47.56000 184.899
47.60000 188.332
47.64000 186.160
47.68000 189.023
47.72000 172.843
47.76000 191.176
47.80000 184.521
47.84000 182.751
47.88000 188.550
47.92000 191.099
47.96000 184.556
48.00000 173.166
48.04000 187.677
48.08000 173.206
48.12000 173.662
48.16000 186.952
48.20000 182.191
48.24000 190.789
48.28000 182.046
48.32000 187.085
48.36000 191.833
48.40000 184.647
48.44000 181.472
48.48000 182.130
48.52000 181.650
48.56000 184.180
48.60000 179.645
48.64000 166.962
48.68000 179.856
48.72000 184.357
48.76000 183.635
48.80000 174.487
48.84000 180.434
48.88000 187.209
48.92000 170.816
48.96000 171.665
49.00000 187.109
49.04000 165.694
49.08000 173.146
49.12000 189.610
49.16000 172.748
49.20000 183.203
49.24000 169.236
49.28000 175.487
49.32000 170.166
49.36000 181.538
49.40000 176.157
49.44000 176.520
49.48000 180.052
49.52000 185.007
49.56000 170.492
49.60000 185.476
49.64000 179.248
49.68000 168.894
49.72000 183.387
49.76000 179.148
49.80000 172.007
49.84000 185.059
49.88000 171.203
49.92000 172.357
49.96000 170.010
50.00000 182.170
50.04000 179.867
50.08000 181.761
50.12000 180.555
50.16000 181.853
50.20000 177.141
50.24000 195.401
50.28000 181.907
50.32000 180.606
50.36000 191.120
50.40000 181.541
50.44000 194.159
50.48000 197.987
50.52000 210.457
50.56000 213.670
50.60000 248.502
50.64000 247.404
50.68000 237.221
50.72000 259.430
50.76000 254.863
50.80000 259.317
50.84000 244.888
50.88000 241.463
50.92000 226.655
50.96000 221.629
51.00000 208.299
51.04000 209.340
51.08000 188.066
51.12000 199.790
51.16000 192.606
51.20000 183.688
51.24000 176.776
51.28000 175.133
51.32000 184.324
51.36000 171.712
51.40000 186.471
51.44000 178.113
51.48000 174.148
51.52000 174.016
51.56000 176.415
51.60000 162.786
51.64000 172.011
51.68000 158.805
51.72000 169.685
51.76000 155.179
51.80000 163.532
51.84000 165.403
51.88000 170.032
51.92000 167.574
51.96000 169.064
52.00000 160.767
52.04000 160.326
52.08000 169.247
52.12000 167.355
52.16000 164.610
52.20000 158.518
52.24000 165.422
52.28000 158.935
52.32000 155.812
52.36000 140.248
52.40000 171.766
52.44000 166.370
52.48000 166.154
52.52000 155.891
52.56000 160.443
52.60000 163.508
52.64000 155.172
52.68000 142.713
52.72000 168.716
52.76000 153.307
52.80000 176.253
52.84000 151.889
52.88000 161.605
52.92000 154.041
52.96000 166.810
53.00000 162.806
53.04000 161.886
53.08000 163.254
53.12000 153.215
53.16000 155.490
53.20000 160.633
53.24000 157.810
53.28000 158.650
53.32000 157.543
53.36000 163.282
53.40000 165.023
53.44000 161.366
53.48000 165.101
53.52000 163.760
53.56000 157.536
53.60000 153.781
53.64000 159.237
53.68000 160.999
53.72000 157.866
53.76000 158.375
53.80000 164.858
53.84000 149.755
53.88000 156.208
53.92000 146.696
53.96000 156.422
54.00000 154.816
54.04000 163.881
54.08000 151.683
54.12000 144.863
54.16000 160.204
54.20000 154.923
54.24000 159.815
54.28000 143.131
54.32000 158.851
54.36000 153.772
54.40000 160.031
54.44000 139.595
54.48000 159.592
54.52000 160.410
54.56000 156.480
54.60000 149.264
54.64000 167.438
54.68000 154.724
54.72000 160.919
54.76000 154.376
54.80000 163.115
54.84000 166.649
54.88000 152.545
54.92000 161.098
54.96000 154.965
55.00000 162.670
55.04000 164.410
55.08000 154.014
55.12000 169.721
55.16000 171.704
55.20000 172.001
55.24000 167.210
55.28000 168.664
55.32000 173.950
55.36000 175.271
55.40000 184.269
55.44000 194.736
55.48000 181.516
55.52000 196.952
55.56000 218.517
55.60000 226.628
55.64000 235.790
55.68000 260.582
55.72000 286.457
55.76000 337.517
55.80000 395.833
55.84000 427.970
55.88000 477.412
55.92000 512.957
55.96000 536.955
56.00000 543.122
56.04000 527.430
56.08000 493.161
56.12000 457.877
56.16000 405.097
56.20000 367.385
56.24000 343.482
56.28000 286.816
56.32000 263.760
56.36000 253.478
56.40000 225.714
56.44000 213.362
56.48000 195.113
56.52000 186.916
56.56000 189.967
56.60000 165.269
56.64000 169.262
56.68000 173.895
56.72000 164.549
56.76000 161.030
56.80000 153.551
56.84000 164.332
56.88000 164.801
56.92000 157.048
56.96000 147.301
57.00000 145.802
57.04000 148.914
57.08000 154.348
57.12000 151.671
57.16000 144.495
57.20000 143.046
57.24000 146.580
57.28000 142.966
57.32000 146.792
57.36000 152.841
57.40000 150.082
57.44000 140.787
57.48000 140.837
57.52000 151.485
57.56000 141.201
57.60000 143.541
57.64000 141.712
57.68000 142.999
57.72000 143.514
57.76000 144.184
57.80000 145.868
57.84000 139.388
57.88000 132.162
57.92000 131.605
57.96000 144.158
58.00000 144.086
58.04000 144.480
58.08000 135.496
58.12000 133.736
58.16000 145.319
58.20000 134.813
58.24000 137.524
58.28000 124.463
58.32000 133.332
58.36000 147.575
58.40000 134.716
58.44000 155.676
58.48000 155.529
58.52000 136.741
58.56000 135.962
58.60000 135.103
58.64000 146.140
58.68000 143.366
58.72000 142.835
58.76000 147.678
58.80000 138.377
58.84000 125.013
58.88000 126.839
58.92000 138.752
58.96000 139.406
59.00000 135.823
59.04000 143.641
59.08000 139.044
59.12000 143.847
59.16000 137.595
59.20000 137.406
59.24000 150.006
59.28000 135.727
59.32000 138.144
59.36000 125.577
59.40000 125.731
59.44000 133.588
59.48000 146.588
59.52000 135.300
59.56000 138.129
59.60000 140.756
59.64000 143.456
59.68000 143.493
59.72000 126.875
59.76000 129.528
59.80000 128.932
59.84000 131.654
59.88000 125.452
59.92000 123.216
59.96000 129.280
60.00000 133.982
60.04000 130.806
60.08000 130.665
60.12000 143.702
60.16000 127.752
60.20000 127.815
60.24000 127.577
60.28000 131.067
60.32000 141.425
60.36000 130.135
60.40000 127.153
60.44000 131.590
60.48000 131.566
60.52000 125.973
60.56000 129.842
60.60000 126.223
60.64000 135.565
60.68000 124.612
60.72000 133.000
60.76000 124.390
60.80000 136.312
60.84000 134.516
60.88000 131.186
60.92000 125.099
60.96000 139.954
61.00000 130.679
61.04000 139.906
61.08000 139.721
61.12000 135.981
61.16000 144.800
61.20000 142.157
61.24000 139.742
61.28000 139.010
61.32000 145.318
61.36000 136.957
61.40000 143.289
61.44000 146.125
61.48000 147.354
61.52000 176.757
61.56000 212.798
61.60000 259.804
61.64000 286.107
61.68000 297.539
61.72000 307.903
61.76000 292.915
61.80000 230.805
61.84000 179.768
61.88000 160.684
61.92000 151.881
61.96000 145.046
62.00000 142.628
62.04000 135.608
62.08000 144.198
62.12000 137.261
62.16000 152.552
62.20000 136.813
62.24000 147.416
62.28000 146.448
62.32000 131.662
62.36000 149.730
62.40000 139.474
62.44000 140.841
62.48000 147.157
62.52000 139.121
62.56000 137.841
62.60000 149.112
62.64000 150.936
62.68000 148.031
62.72000 142.829
62.76000 137.347
62.80000 145.419
62.84000 158.381
62.88000 143.213
62.92000 158.443
62.96000 150.779
63.00000 141.044
63.04000 140.973
63.08000 143.414
63.12000 138.221
63.16000 149.067
63.20000 135.235
63.24000 149.243
63.28000 151.284
63.32000 153.998
63.36000 159.025
63.40000 149.441
63.44000 141.419
63.48000 153.818
63.52000 143.199
63.56000 140.552
63.60000 144.456
63.64000 148.711
63.68000 143.572
63.72000 154.405
63.76000 148.975
63.80000 148.088
63.84000 159.389
63.88000 160.113
63.92000 155.537
63.96000 151.275
64.00000 162.170
64.04000 162.343
64.08000 152.599
64.12000 162.040
64.16000 158.401
64.20000 154.857
64.24000 163.464
64.28000 159.947
64.32000 163.383
64.36000 154.791
64.40000 164.783
64.44000 172.367
64.48000 169.427
64.52000 159.556
64.56000 174.837
64.60000 163.127
64.64000 173.790
64.68000 172.059
64.72000 173.514
64.76000 179.359
64.80000 188.622
64.84000 192.265
64.88000 180.661
64.92000 188.028
64.96000 194.784
65.00000 185.697
65.04000 201.770
65.08000 212.808
65.12000 207.306
65.16000 211.989
65.20000 226.854
65.24000 244.514
65.28000 255.133
65.32000 267.672
65.36000 293.270
65.40000 325.293
65.44000 345.560
65.48000 384.921
65.52000 390.607
65.56000 411.200
65.60000 460.426
65.64000 476.714
65.68000 551.229
65.72000 715.913
65.76000 969.408
65.80000 1183.326
65.84000 1239.120
65.88000 1277.554
65.92000 1231.606
65.96000 1063.142
66.00000 734.060
66.04000 502.007
66.08000 397.563
66.12000 353.329
66.16000 313.957
66.20000 321.235
66.24000 349.363
66.28000 376.441
66.32000 433.126
66.36000 487.211
66.40000 466.792
66.44000 508.580
66.48000 479.221
66.52000 434.901
66.56000 384.493
66.60000 340.000
66.64000 331.417
66.68000 316.526
66.72000 329.853
66.76000 335.305
66.80000 328.024
66.84000 336.332
66.88000 354.869
66.92000 341.736
66.96000 352.360
67.00000 365.045
67.04000 362.814
67.08000 376.841
67.12000 386.808
67.16000 369.248
67.20000 398.441
67.24000 402.923
67.28000 411.883
67.32000 418.629
67.36000 412.414
67.40000 417.382
67.44000 421.500
67.48000 440.669
67.52000 438.477
67.56000 463.094
67.60000 455.802
67.64000 463.444
67.68000 479.258
67.72000 501.685
67.76000 504.005
67.80000 507.893
67.84000 507.779
67.88000 524.526
67.92000 540.677
67.96000 540.540
68.00000 562.850
68.04000 561.880
68.08000 570.880
68.12000 577.272
68.16000 624.194
68.20000 625.006
68.24000 641.237
68.28000 666.430
68.32000 700.636
68.36000 706.954
68.40000 730.575
68.44000 779.418
68.48000 807.812
68.52000 860.740
68.56000 966.383
68.60000 1062.802
68.64000 1262.141
68.68000 1490.560
68.72000 1726.316
68.76000 1961.853
68.80000 2305.262
68.84000 2741.562
68.88000 3620.540
68.92000 6717.072
68.96000 16183.253
69.00000 35889.125
69.04000 56085.273
69.08000 66077.750
69.12000 68468.602
69.16000 71180.742
69.20000 70649.055
69.24000 58525.629
69.28000 44436.293
69.32000 36993.773
69.36000 33374.871
69.40000 27093.545
69.44000 16339.599
69.48000 7404.093
69.52000 3405.815
69.56000 2170.063
69.60000 1643.792
69.64000 1378.150
69.68000 1196.752
69.72000 1060.672
69.76000 1001.507
69.80000 913.355
69.84000 865.333
69.88000 815.498
69.92000 752.231
69.96000 746.387
70.00000 724.940