File: XRD/XRD/22-09-2025 Dep 2/XY Data/BTO_Mapping_Theta2Theta_22-09-2025_001_56_-11-126_-48-746.xy
20.00000 559.982
20.04000 559.545
20.08000 574.691
20.12000 552.931
20.16000 550.583
20.20000 546.843
20.24000 554.641
20.28000 551.414
20.32000 561.628
20.36000 552.694
20.40000 557.858
20.44000 559.567
20.48000 546.351
20.52000 561.488
20.56000 564.127
20.60000 552.888
20.64000 574.451
20.68000 553.709
20.72000 537.137
20.76000 545.602
20.80000 552.238
20.84000 548.681
20.88000 545.473
20.92000 541.161
20.96000 521.066
21.00000 529.479
21.04000 547.145
21.08000 537.836
21.12000 540.289
21.16000 538.854
21.20000 532.936
21.24000 527.325
21.28000 539.797
21.32000 528.415
21.36000 545.334
21.40000 556.777
21.44000 528.994
21.48000 526.265
21.52000 529.627
21.56000 529.349
21.60000 525.777
21.64000 529.286
21.68000 524.878
21.72000 526.621
21.76000 520.796
21.80000 523.724
21.84000 533.746
21.88000 535.897
21.92000 529.697
21.96000 530.245
22.00000 517.717
22.04000 515.724
22.08000 510.680
22.12000 528.831
22.16000 515.241
22.20000 496.833
22.24000 517.287
22.28000 494.581
22.32000 523.122
22.36000 505.542
22.40000 533.192
22.44000 515.629
22.48000 510.724
22.52000 514.632
22.56000 501.374
22.60000 513.702
22.64000 518.729
22.68000 517.688
22.72000 518.818
22.76000 516.291
22.80000 517.241
22.84000 516.463
22.88000 506.795
22.92000 502.567
22.96000 495.324
23.00000 501.557
23.04000 490.081
23.08000 499.989
23.12000 503.073
23.16000 513.539
23.20000 502.111
23.24000 529.413
23.28000 497.567
23.32000 496.604
23.36000 495.072
23.40000 493.488
23.44000 500.458
23.48000 499.788
23.52000 507.412
23.56000 484.359
23.60000 493.922
23.64000 505.133
23.68000 485.431
23.72000 485.936
23.76000 503.231
23.80000 488.695
23.84000 468.287
23.88000 482.996
23.92000 502.067
23.96000 477.941
24.00000 471.421
24.04000 488.184
24.08000 485.035
24.12000 475.759
24.16000 501.045
24.20000 468.687
24.24000 487.469
24.28000 472.022
24.32000 481.428
24.36000 493.529
24.40000 456.076
24.44000 476.518
24.48000 475.142
24.52000 475.652
24.56000 478.741
24.60000 486.218
24.64000 489.114
24.68000 476.273
24.72000 485.110
24.76000 488.667
24.80000 469.883
24.84000 469.154
24.88000 465.550
24.92000 462.634
24.96000 468.792
25.00000 461.842
25.04000 462.715
25.08000 458.430
25.12000 464.763
25.16000 469.624
25.20000 473.600
25.24000 474.448
25.28000 468.806
25.32000 460.987
25.36000 482.963
25.40000 461.822
25.44000 463.418
25.48000 459.150
25.52000 483.187
25.56000 464.215
25.60000 451.472
25.64000 471.248
25.68000 463.726
25.72000 472.695
25.76000 460.655
25.80000 446.691
25.84000 458.220
25.88000 454.699
25.92000 455.644
25.96000 457.254
26.00000 446.049
26.04000 447.783
26.08000 453.647
26.12000 439.274
26.16000 459.454
26.20000 463.000
26.24000 471.808
26.28000 459.068
26.32000 453.419
26.36000 451.824
26.40000 439.075
26.44000 438.306
26.48000 456.797
26.52000 426.693
26.56000 428.468
26.60000 431.558
26.64000 436.666
26.68000 435.267
26.72000 441.116
26.76000 427.176
26.80000 437.081
26.84000 440.834
26.88000 439.493
26.92000 431.243
26.96000 435.179
27.00000 439.634
27.04000 431.138
27.08000 436.574
27.12000 413.579
27.16000 435.151
27.20000 427.015
27.24000 422.931
27.28000 435.468
27.32000 415.851
27.36000 409.177
27.40000 440.138
27.44000 428.559
27.48000 423.937
27.52000 447.755
27.56000 414.932
27.60000 418.402
27.64000 418.354
27.68000 410.173
27.72000 413.155
27.76000 417.010
27.80000 425.802
27.84000 444.684
27.88000 430.079
27.92000 434.135
27.96000 416.713
28.00000 408.415
28.04000 397.366
28.08000 416.046
28.12000 404.597
28.16000 422.105
28.20000 406.347
28.24000 434.579
28.28000 409.837
28.32000 414.384
28.36000 421.680
28.40000 389.662
28.44000 386.999
28.48000 397.998
28.52000 413.625
28.56000 399.402
28.60000 409.353
28.64000 406.455
28.68000 392.817
28.72000 411.109
28.76000 405.996
28.80000 412.011
28.84000 410.268
28.88000 380.943
28.92000 394.988
28.96000 407.086
29.00000 397.648
29.04000 401.963
29.08000 399.186
29.12000 411.341
29.16000 423.775
29.20000 396.168
29.24000 386.319
29.28000 392.658
29.32000 405.718
29.36000 396.844
29.40000 384.876
29.44000 388.703
29.48000 402.572
29.52000 369.500
29.56000 383.283
29.60000 377.576
29.64000 398.064
29.68000 387.076
29.72000 381.253
29.76000 386.728
29.80000 397.254
29.84000 385.861
29.88000 377.785
29.92000 385.311
29.96000 378.868
30.00000 384.368
30.04000 391.558
30.08000 376.618
30.12000 388.781
30.16000 383.759
30.20000 387.235
30.24000 374.107
30.28000 372.839
30.32000 383.989
30.36000 374.004
30.40000 381.075
30.44000 383.978
30.48000 367.959
30.52000 367.547
30.56000 363.417
30.60000 370.296
30.64000 377.861
30.68000 373.598
30.72000 364.316
30.76000 380.953
30.80000 360.167
30.84000 377.700
30.88000 379.003
30.92000 364.976
30.96000 382.008
31.00000 358.718
31.04000 372.869
31.08000 362.694
31.12000 368.303
31.16000 385.914
31.20000 366.811
31.24000 368.545
31.28000 358.010
31.32000 360.638
31.36000 342.858
31.40000 358.700
31.44000 359.732
31.48000 359.518
31.52000 348.471
31.56000 365.385
31.60000 358.284
31.64000 365.899
31.68000 357.327
31.72000 372.819
31.76000 356.713
31.80000 362.505
31.84000 369.771
31.88000 357.566
31.92000 361.379
31.96000 366.076
32.00000 341.184
32.04000 342.106
32.08000 339.239
32.12000 355.501
32.16000 356.018
32.20000 350.710
32.24000 352.066
32.28000 335.393
32.32000 337.810
32.36000 349.359
32.40000 357.385
32.44000 354.482
32.48000 352.124
32.52000 341.361
32.56000 340.695
32.60000 336.305
32.64000 353.162
32.68000 345.209
32.72000 335.488
32.76000 353.641
32.80000 350.765
32.84000 349.912
32.88000 357.774
32.92000 366.951
32.96000 355.337
33.00000 374.259
33.04000 367.317
33.08000 346.795
33.12000 351.498
33.16000 327.911
33.20000 327.873
33.24000 344.023
33.28000 331.756
33.32000 332.462
33.36000 341.569
33.40000 320.124
33.44000 338.022
33.48000 338.693
33.52000 335.376
33.56000 325.882
33.60000 334.375
33.64000 328.785
33.68000 327.257
33.72000 327.214
33.76000 330.487
33.80000 329.377
33.84000 322.933
33.88000 327.534
33.92000 326.934
33.96000 330.811
34.00000 301.123
34.04000 335.124
34.08000 328.100
34.12000 313.056
34.16000 322.103
34.20000 322.430
34.24000 327.930
34.28000 324.445
34.32000 324.763
34.36000 329.607
34.40000 342.041
34.44000 319.222
34.48000 318.488
34.52000 329.965
34.56000 305.315
34.60000 303.051
34.64000 327.693
34.68000 311.028
34.72000 318.509
34.76000 320.026
34.80000 316.470
34.84000 328.739
34.88000 311.870
34.92000 308.971
34.96000 309.213
35.00000 315.299
35.04000 314.691
35.08000 301.371
35.12000 309.798
35.16000 310.624
35.20000 307.601
35.24000 311.944
35.28000 315.335
35.32000 306.595
35.36000 308.196
35.40000 313.295
35.44000 307.024
35.48000 311.824
35.52000 305.813
35.56000 300.038
35.60000 308.139
35.64000 318.050
35.68000 294.663
35.72000 297.067
35.76000 310.162
35.80000 287.791
35.84000 305.641
35.88000 301.453
35.92000 291.849
35.96000 296.498
36.00000 295.811
36.04000 297.199
36.08000 302.351
36.12000 298.269
36.16000 302.217
36.20000 284.296
36.24000 294.579
36.28000 281.428
36.32000 291.843
36.36000 294.787
36.40000 296.576
36.44000 294.978
36.48000 290.264
36.52000 281.576
36.56000 282.725
36.60000 274.046
36.64000 285.981
36.68000 278.004
36.72000 287.822
36.76000 287.133
36.80000 280.385
36.84000 271.779
36.88000 291.480
36.92000 288.498
36.96000 293.067
37.00000 288.076
37.04000 275.148
37.08000 288.716
37.12000 268.492
37.16000 281.135
37.20000 278.887
37.24000 284.073
37.28000 269.663
37.32000 275.475
37.36000 275.532
37.40000 282.279
37.44000 271.244
37.48000 286.950
37.52000 285.049
37.56000 264.245
37.60000 276.238
37.64000 274.930
37.68000 265.459
37.72000 268.627
37.76000 266.280
37.80000 280.992
37.84000 269.537
37.88000 283.141
37.92000 277.682
37.96000 281.034
38.00000 278.594
38.04000 285.888
38.08000 260.088
38.12000 261.613
38.16000 271.925
38.20000 266.996
38.24000 263.068
38.28000 254.047
38.32000 264.907
38.36000 279.557
38.40000 269.368
38.44000 260.292
38.48000 264.444
38.52000 264.252
38.56000 270.397
38.60000 263.454
38.64000 264.273
38.68000 256.204
38.72000 253.613
38.76000 259.255
38.80000 271.186
38.84000 267.573
38.88000 267.529
38.92000 265.047
38.96000 261.153
39.00000 255.704
39.04000 256.278
39.08000 264.984
39.12000 256.748
39.16000 251.404
39.20000 266.902
39.24000 243.350
39.28000 252.028
39.32000 246.133
39.36000 248.131
39.40000 265.644
39.44000 247.014
39.48000 256.502
39.52000 252.106
39.56000 256.741
39.60000 259.085
39.64000 260.294
39.68000 250.539
39.72000 252.234
39.76000 244.139
39.80000 266.159
39.84000 264.219
39.88000 260.444
39.92000 250.456
39.96000 248.963
40.00000 245.492
40.04000 256.547
40.08000 260.353
40.12000 259.401
40.16000 249.109
40.20000 249.830
40.24000 251.333
40.28000 236.953
40.32000 253.865
40.36000 240.019
40.40000 249.944
40.44000 248.103
40.48000 258.923
40.52000 250.821
40.56000 261.213
40.60000 235.499
40.64000 241.814
40.68000 244.955
40.72000 246.158
40.76000 249.335
40.80000 239.756
40.84000 239.518
40.88000 235.713
40.92000 254.531
40.96000 239.862
41.00000 231.881
41.04000 232.134
41.08000 236.395
41.12000 233.078
41.16000 241.224
41.20000 259.263
41.24000 233.318
41.28000 239.195
41.32000 229.360
41.36000 242.795
41.40000 247.233
41.44000 235.336
41.48000 220.790
41.52000 235.727
41.56000 233.735
41.60000 247.016
41.64000 239.832
41.68000 226.023
41.72000 222.680
41.76000 223.575
41.80000 233.388
41.84000 229.148
41.88000 230.255
41.92000 229.601
41.96000 228.149
42.00000 238.774
42.04000 232.501
42.08000 243.351
42.12000 227.358
42.16000 227.601
42.20000 226.642
42.24000 235.457
42.28000 224.491
42.32000 227.347
42.36000 228.134
42.40000 223.107
42.44000 221.181
42.48000 237.687
42.52000 225.459
42.56000 223.180
42.60000 230.095
42.64000 225.301
42.68000 221.004
42.72000 224.667
42.76000 207.051
42.80000 232.982
42.84000 231.161
42.88000 228.466
42.92000 224.623
42.96000 221.470
43.00000 236.905
43.04000 214.774
43.08000 224.718
43.12000 222.962
43.16000 222.882
43.20000 217.949
43.24000 218.591
43.28000 223.140
43.32000 215.006
43.36000 216.710
43.40000 206.076
43.44000 215.083
43.48000 203.307
43.52000 223.714
43.56000 197.901
43.60000 231.294
43.64000 210.438
43.68000 204.678
43.72000 233.712
43.76000 213.318
43.80000 212.087
43.84000 203.900
43.88000 214.900
43.92000 217.938
43.96000 216.541
44.00000 216.656
44.04000 226.266
44.08000 214.881
44.12000 209.192
44.16000 215.173
44.20000 204.510
44.24000 197.918
44.28000 210.399
44.32000 220.213
44.36000 208.894
44.40000 208.386
44.44000 193.838
44.48000 201.908
44.52000 203.894
44.56000 204.753
44.60000 201.443
44.64000 213.761
44.68000 201.930
44.72000 205.381
44.76000 208.339
44.80000 201.091
44.84000 206.298
44.88000 198.917
44.92000 200.066
44.96000 206.368
45.00000 204.092
45.04000 212.119
45.08000 197.787
45.12000 207.089
45.16000 216.503
45.20000 189.534
45.24000 197.752
45.28000 216.866
45.32000 200.388
45.36000 200.899
45.40000 197.032
45.44000 196.462
45.48000 201.232
45.52000 200.390
45.56000 198.685
45.60000 195.780
45.64000 204.792
45.68000 182.273
45.72000 199.417
45.76000 202.850
45.80000 189.584
45.84000 192.024
45.88000 194.820
45.92000 193.219
45.96000 200.725
46.00000 195.587
46.04000 193.008
46.08000 206.403
46.12000 192.966
46.16000 187.207
46.20000 183.967
46.24000 182.843
46.28000 196.174
46.32000 191.004
46.36000 192.896
46.40000 190.750
46.44000 201.976
46.48000 184.941
46.52000 191.350
46.56000 193.797
46.60000 186.180
46.64000 203.204
46.68000 195.834
46.72000 192.829
46.76000 186.566
46.80000 187.850
46.84000 184.244
46.88000 187.399
46.92000 196.567
46.96000 185.893
47.00000 192.523
47.04000 185.439
47.08000 173.243
47.12000 180.894
47.16000 174.095
47.20000 188.158
47.24000 191.615
47.28000 190.892
47.32000 189.082
47.36000 188.437
47.40000 182.815
47.44000 177.641
47.48000 183.899
47.52000 186.702
47.56000 182.967
47.60000 179.352
47.64000 184.882
47.68000 173.202
47.72000 183.578
47.76000 184.236
47.80000 182.136
47.84000 174.850
47.88000 175.753
47.92000 179.596
47.96000 181.217
48.00000 176.666
48.04000 176.461
48.08000 173.004
48.12000 183.360
48.16000 177.305
48.20000 178.559
48.24000 172.546
48.28000 176.248
48.32000 187.321
48.36000 189.223
48.40000 195.917
48.44000 181.332
48.48000 170.912
48.52000 179.432
48.56000 174.112
48.60000 172.207
48.64000 180.931
48.68000 176.296
48.72000 167.709
48.76000 173.841
48.80000 182.103
48.84000 181.368
48.88000 164.104
48.92000 166.895
48.96000 169.608
49.00000 169.808
49.04000 171.043
49.08000 170.561
49.12000 180.467
49.16000 180.562
49.20000 185.228
49.24000 171.959
49.28000 167.047
49.32000 163.511
49.36000 167.085
49.40000 168.505
49.44000 175.134
49.48000 163.280
49.52000 155.568
49.56000 159.251
49.60000 164.556
49.64000 170.886
49.68000 170.952
49.72000 164.524
49.76000 173.374
49.80000 173.464
49.84000 174.736
49.88000 174.137
49.92000 159.861
49.96000 157.733
50.00000 164.942
50.04000 173.570
50.08000 174.302
50.12000 159.611
50.16000 165.552
50.20000 168.804
50.24000 170.219
50.28000 157.150
50.32000 166.960
50.36000 164.785
50.40000 169.015
50.44000 166.358
50.48000 160.964
50.52000 162.108
50.56000 166.092
50.60000 155.756
50.64000 170.729
50.68000 167.904
50.72000 158.651
50.76000 168.922
50.80000 153.698
50.84000 171.198
50.88000 165.308
50.92000 161.711
50.96000 159.959
51.00000 169.966
51.04000 162.043
51.08000 154.437
51.12000 172.033
51.16000 174.763
51.20000 163.161
51.24000 157.580
51.28000 161.413
51.32000 156.653
51.36000 150.054
51.40000 152.823
51.44000 148.905
51.48000 155.672
51.52000 154.035
51.56000 157.093
51.60000 158.338
51.64000 149.895
51.68000 153.411
51.72000 151.816
51.76000 160.513
51.80000 152.823
51.84000 159.984
51.88000 149.341
51.92000 155.646
51.96000 160.895
52.00000 151.513
52.04000 155.174
52.08000 167.933
52.12000 157.653
52.16000 162.760
52.20000 161.158
52.24000 152.596
52.28000 156.499
52.32000 157.451
52.36000 161.256
52.40000 148.324
52.44000 153.788
52.48000 156.123
52.52000 156.150
52.56000 151.006
52.60000 161.193
52.64000 148.504
52.68000 157.445
52.72000 152.650
52.76000 147.692
52.80000 159.550
52.84000 149.759
52.88000 152.806
52.92000 151.990
52.96000 157.047
53.00000 143.958
53.04000 156.844
53.08000 149.924
53.12000 154.030
53.16000 154.003
53.20000 156.300
53.24000 148.741
53.28000 153.313
53.32000 144.716
53.36000 148.704
53.40000 147.346
53.44000 164.288
53.48000 158.975
53.52000 147.387
53.56000 142.922
53.60000 140.420
53.64000 152.223
53.68000 153.418
53.72000 156.181
53.76000 139.606
53.80000 153.471
53.84000 142.870
53.88000 145.848
53.92000 139.789
53.96000 154.651
54.00000 152.982
54.04000 139.699
54.08000 137.729
54.12000 140.880
54.16000 149.534
54.20000 142.796
54.24000 145.045
54.28000 147.549
54.32000 145.451
54.36000 155.352
54.40000 154.984
54.44000 150.251
54.48000 141.362
54.52000 146.378
54.56000 134.661
54.60000 135.804
54.64000 135.444
54.68000 147.246
54.72000 144.540
54.76000 152.741
54.80000 140.085
54.84000 145.666
54.88000 154.771
54.92000 149.354
54.96000 147.177
55.00000 141.193
55.04000 148.283
55.08000 134.099
55.12000 144.820
55.16000 146.018
55.20000 149.029
55.24000 140.876
55.28000 136.977
55.32000 148.435
55.36000 138.956
55.40000 146.839
55.44000 142.648
55.48000 144.329
55.52000 136.732
55.56000 136.017
55.60000 128.079
55.64000 134.228
55.68000 131.464
55.72000 133.972
55.76000 142.327
55.80000 146.676
55.84000 148.499
55.88000 138.134
55.92000 141.337
55.96000 140.264
56.00000 130.043
56.04000 128.713
56.08000 142.141
56.12000 132.850
56.16000 141.877
56.20000 142.249
56.24000 149.749
56.28000 134.224
56.32000 133.710
56.36000 136.359
56.40000 138.325
56.44000 129.077
56.48000 137.341
56.52000 138.834
56.56000 137.344
56.60000 132.429
56.64000 134.541
56.68000 135.053
56.72000 142.382
56.76000 137.107
56.80000 131.544
56.84000 132.369
56.88000 129.450
56.92000 139.914
56.96000 131.520
57.00000 140.856
57.04000 136.789
57.08000 125.844
57.12000 134.043
57.16000 136.838
57.20000 139.501
57.24000 141.862
57.28000 129.513
57.32000 140.749
57.36000 135.089
57.40000 142.143
57.44000 139.000
57.48000 135.324
57.52000 129.590
57.56000 133.233
57.60000 139.902
57.64000 136.382
57.68000 130.559
57.72000 132.199
57.76000 134.552
57.80000 133.834
57.84000 127.617
57.88000 125.704
57.92000 129.378
57.96000 134.738
58.00000 134.105
58.04000 135.167
58.08000 128.114
58.12000 134.061
58.16000 134.166
58.20000 136.330
58.24000 135.313
58.28000 127.126
58.32000 134.964
58.36000 127.241
58.40000 135.368
58.44000 133.128
58.48000 128.532
58.52000 136.226
58.56000 142.888
58.60000 121.915
58.64000 126.816
58.68000 135.755
58.72000 126.228
58.76000 123.971
58.80000 130.217
58.84000 134.605
58.88000 138.162
58.92000 144.323
58.96000 140.987
59.00000 134.914
59.04000 134.608
59.08000 139.817
59.12000 136.931
59.16000 129.297
59.20000 136.243
59.24000 132.729
59.28000 143.275
59.32000 119.348
59.36000 133.037
59.40000 131.597
59.44000 127.353
59.48000 132.179
59.52000 131.505
59.56000 111.877
59.60000 130.979
59.64000 129.528
59.68000 135.781
59.72000 143.495
59.76000 133.518
59.80000 127.825
59.84000 133.547
59.88000 134.329
59.92000 130.018
59.96000 128.601
60.00000 128.294
60.04000 132.115
60.08000 131.733
60.12000 137.864
60.16000 131.289
60.20000 123.495
60.24000 127.660
60.28000 125.154
60.32000 137.521
60.36000 130.146
60.40000 128.280
60.44000 127.007
60.48000 131.040
60.52000 124.589
60.56000 127.756
60.60000 126.257
60.64000 130.556
60.68000 134.357
60.72000 126.804
60.76000 131.544
60.80000 126.065
60.84000 135.724
60.88000 129.963
60.92000 126.549
60.96000 135.891
61.00000 134.708
61.04000 132.487
61.08000 135.278
61.12000 128.304
61.16000 136.664
61.20000 134.630
61.24000 119.520
61.28000 135.793
61.32000 136.795
61.36000 133.279
61.40000 136.635
61.44000 145.283
61.48000 131.952
61.52000 140.665
61.56000 153.756
61.60000 192.405
61.64000 215.567
61.68000 238.611
61.72000 242.226
61.76000 233.885
61.80000 220.595
61.84000 190.171
61.88000 164.260
61.92000 136.706
61.96000 139.727
62.00000 148.069
62.04000 146.472
62.08000 140.244
62.12000 137.456
62.16000 135.115
62.20000 141.358
62.24000 146.657
62.28000 140.309
62.32000 134.901
62.36000 140.875
62.40000 142.914
62.44000 139.103
62.48000 143.249
62.52000 130.803
62.56000 138.298
62.60000 129.496
62.64000 135.997
62.68000 144.736
62.72000 151.030
62.76000 144.652
62.80000 144.114
62.84000 139.240
62.88000 139.353
62.92000 142.462
62.96000 144.505
63.00000 147.531
63.04000 135.389
63.08000 144.222
63.12000 144.425
63.16000 143.567
63.20000 152.826
63.24000 142.831
63.28000 150.633
63.32000 148.378
63.36000 146.257
63.40000 137.612
63.44000 150.226
63.48000 159.702
63.52000 145.497
63.56000 151.641
63.60000 150.037
63.64000 145.760
63.68000 145.359
63.72000 156.966
63.76000 143.941
63.80000 145.035
63.84000 143.005
63.88000 153.383
63.92000 148.204
63.96000 145.671
64.00000 155.009
64.04000 146.913
64.08000 151.254
64.12000 160.453
64.16000 151.477
64.20000 153.384
64.24000 151.591
64.28000 148.176
64.32000 160.401
64.36000 149.533
64.40000 165.207
64.44000 155.144
64.48000 159.716
64.52000 169.059
64.56000 169.464
64.60000 159.118
64.64000 163.371
64.68000 161.100
64.72000 164.285
64.76000 168.149
64.80000 174.992
64.84000 168.716
64.88000 177.666
64.92000 175.916
64.96000 180.308
65.00000 170.213
65.04000 171.206
65.08000 175.565
65.12000 166.488
65.16000 175.955
65.20000 173.730
65.24000 183.579
65.28000 190.794
65.32000 196.280
65.36000 185.752
65.40000 181.246
65.44000 198.082
65.48000 199.860
65.52000 204.142
65.56000 221.559
65.60000 231.455
65.64000 244.238
65.68000 283.936
65.72000 376.152
65.76000 499.008
65.80000 663.104
65.84000 791.408
65.88000 837.081
65.92000 864.623
65.96000 808.192
66.00000 659.072
66.04000 494.688
66.08000 340.073
66.12000 294.730
66.16000 287.505
66.20000 266.856
66.24000 281.528
66.28000 298.021
66.32000 327.569
66.36000 351.734
66.40000 387.964
66.44000 400.998
66.48000 391.551
66.52000 391.643
66.56000 348.429
66.60000 321.230
66.64000 318.772
66.68000 292.811
66.72000 285.880
66.76000 300.321
66.80000 290.725
66.84000 298.207
66.88000 298.323
66.92000 310.809
66.96000 312.830
67.00000 315.785
67.04000 328.884
67.08000 331.113
67.12000 331.893
67.16000 336.024
67.20000 327.402
67.24000 353.361
67.28000 349.484
67.32000 371.145
67.36000 361.643
67.40000 365.185
67.44000 398.054
67.48000 409.181
67.52000 366.779
67.56000 391.251
67.60000 399.107
67.64000 423.762
67.68000 418.513
67.72000 426.871
67.76000 450.853
67.80000 418.606
67.84000 438.156
67.88000 475.911
67.92000 479.499
67.96000 478.285
68.00000 487.748
68.04000 496.246
68.08000 508.474
68.12000 521.473
68.16000 549.467
68.20000 559.047
68.24000 569.240
68.28000 578.695
68.32000 602.351
68.36000 628.162
68.40000 642.513
68.44000 669.502
68.48000 695.732
68.52000 729.172
68.56000 783.280
68.60000 841.012
68.64000 942.239
68.68000 1070.157
68.72000 1259.801
68.76000 1411.656
68.80000 1612.326
68.84000 1848.673
68.88000 2301.221
68.92000 3532.268
68.96000 6644.657
69.00000 15190.816
69.04000 29606.369
69.08000 42875.020
69.12000 47958.273
69.16000 49471.969
69.20000 51059.934
69.24000 48426.559
69.28000 39148.680
69.32000 30379.203
69.36000 25399.518
69.40000 22894.871
69.44000 17367.361
69.48000 9762.474
69.52000 4426.031
69.56000 2132.713
69.60000 1502.328
69.64000 1248.260
69.68000 1105.661
69.72000 967.787
69.76000 895.060
69.80000 846.275
69.84000 768.772
69.88000 712.782
69.92000 684.875
69.96000 654.281
70.00000 627.737