File: XRD/XRD/22-09-2025 Dep 2/XY Data/BTO_Mapping_Theta2Theta_22-09-2025_001_03_20-000_0-000.xy
20.00000 572.482
20.04000 570.581
20.08000 570.142
20.12000 548.334
20.16000 561.373
20.20000 555.296
20.24000 558.823
20.28000 539.032
20.32000 558.565
20.36000 563.028
20.40000 544.637
20.44000 562.801
20.48000 563.369
20.52000 558.222
20.56000 556.969
20.60000 571.060
20.64000 572.657
20.68000 554.859
20.72000 554.794
20.76000 549.758
20.80000 543.149
20.84000 571.984
20.88000 556.350
20.92000 558.153
20.96000 540.489
21.00000 550.212
21.04000 551.616
21.08000 552.986
21.12000 550.544
21.16000 541.769
21.20000 549.818
21.24000 531.696
21.28000 576.719
21.32000 539.878
21.36000 547.239
21.40000 539.438
21.44000 552.840
21.48000 534.210
21.52000 564.257
21.56000 559.755
21.60000 552.217
21.64000 558.273
21.68000 569.581
21.72000 556.729
21.76000 576.726
21.80000 562.471
21.84000 597.967
21.88000 596.911
21.92000 621.780
21.96000 666.467
22.00000 698.784
22.04000 704.935
22.08000 738.516
22.12000 727.344
22.16000 707.109
22.20000 688.898
22.24000 709.163
22.28000 669.033
22.32000 651.479
22.36000 637.838
22.40000 635.689
22.44000 569.792
22.48000 580.070
22.52000 570.541
22.56000 560.603
22.60000 535.249
22.64000 528.658
22.68000 531.517
22.72000 532.628
22.76000 519.813
22.80000 529.199
22.84000 503.921
22.88000 512.778
22.92000 515.042
22.96000 513.628
23.00000 512.042
23.04000 517.299
23.08000 516.554
23.12000 505.986
23.16000 520.239
23.20000 513.996
23.24000 503.443
23.28000 495.867
23.32000 507.163
23.36000 497.439
23.40000 498.925
23.44000 503.373
23.48000 495.136
23.52000 492.868
23.56000 490.100
23.60000 507.916
23.64000 511.057
23.68000 532.764
23.72000 515.189
23.76000 514.190
23.80000 530.592
23.84000 525.918
23.88000 511.188
23.92000 533.332
23.96000 538.085
24.00000 518.013
24.04000 502.288
24.08000 506.170
24.12000 527.602
24.16000 510.754
24.20000 505.054
24.24000 514.714
24.28000 527.077
24.32000 493.851
24.36000 487.921
24.40000 511.420
24.44000 513.725
24.48000 495.005
24.52000 495.260
24.56000 492.511
24.60000 494.222
24.64000 471.886
24.68000 465.402
24.72000 506.132
24.76000 484.704
24.80000 473.185
24.84000 487.009
24.88000 476.347
24.92000 494.741
24.96000 480.610
25.00000 469.226
25.04000 471.287
25.08000 462.080
25.12000 488.089
25.16000 489.414
25.20000 484.597
25.24000 480.839
25.28000 477.236
25.32000 466.500
25.36000 466.932
25.40000 487.250
25.44000 466.432
25.48000 463.356
25.52000 490.730
25.56000 473.059
25.60000 468.875
25.64000 453.574
25.68000 465.139
25.72000 444.944
25.76000 477.702
25.80000 458.143
25.84000 462.830
25.88000 463.111
25.92000 446.766
25.96000 457.946
26.00000 468.958
26.04000 474.150
26.08000 469.618
26.12000 431.445
26.16000 458.642
26.20000 437.830
26.24000 434.369
26.28000 454.938
26.32000 464.376
26.36000 464.380
26.40000 461.786
26.44000 457.126
26.48000 440.420
26.52000 463.149
26.56000 463.966
26.60000 447.720
26.64000 443.681
26.68000 432.499
26.72000 456.198
26.76000 466.795
26.80000 442.136
26.84000 461.003
26.88000 443.071
26.92000 469.230
26.96000 434.768
27.00000 452.321
27.04000 454.938
27.08000 453.912
27.12000 441.001
27.16000 436.143
27.20000 432.022
27.24000 441.210
27.28000 410.955
27.32000 442.350
27.36000 438.621
27.40000 445.140
27.44000 435.186
27.48000 438.156
27.52000 430.807
27.56000 433.453
27.60000 414.363
27.64000 407.871
27.68000 419.308
27.72000 430.707
27.76000 432.260
27.80000 444.259
27.84000 423.936
27.88000 431.275
27.92000 442.364
27.96000 431.221
28.00000 435.646
28.04000 453.985
28.08000 434.037
28.12000 453.196
28.16000 414.716
28.20000 428.349
28.24000 424.206
28.28000 427.926
28.32000 416.472
28.36000 439.443
28.40000 430.197
28.44000 416.098
28.48000 433.553
28.52000 422.334
28.56000 404.836
28.60000 406.957
28.64000 419.841
28.68000 412.915
28.72000 401.325
28.76000 420.577
28.80000 412.039
28.84000 410.190
28.88000 419.240
28.92000 419.929
28.96000 401.842
29.00000 416.740
29.04000 437.818
29.08000 408.023
29.12000 407.578
29.16000 417.813
29.20000 406.081
29.24000 404.471
29.28000 408.947
29.32000 416.609
29.36000 429.631
29.40000 406.831
29.44000 404.334
29.48000 401.910
29.52000 413.134
29.56000 408.522
29.60000 410.956
29.64000 410.862
29.68000 422.032
29.72000 415.708
29.76000 408.103
29.80000 420.518
29.84000 415.147
29.88000 431.401
29.92000 424.604
29.96000 432.510
30.00000 438.154
30.04000 447.698
30.08000 447.484
30.12000 435.557
30.16000 437.628
30.20000 435.139
30.24000 428.264
30.28000 435.210
30.32000 429.885
30.36000 442.390
30.40000 422.717
30.44000 434.109
30.48000 422.274
30.52000 437.562
30.56000 416.746
30.60000 436.815
30.64000 446.856
30.68000 453.872
30.72000 468.715
30.76000 469.007
30.80000 468.706
30.84000 493.555
30.88000 511.530
30.92000 501.675
30.96000 521.519
31.00000 567.332
31.04000 621.454
31.08000 687.796
31.12000 841.063
31.16000 1028.895
31.20000 1321.868
31.24000 1646.844
31.28000 2137.657
31.32000 2526.407
31.36000 2822.318
31.40000 2907.232
31.44000 2861.638
31.48000 2608.152
31.52000 2284.252
31.56000 1883.484
31.60000 1528.804
31.64000 1194.929
31.68000 958.934
31.72000 817.915
31.76000 692.305
31.80000 626.477
31.84000 566.112
31.88000 529.919
31.92000 511.251
31.96000 459.829
32.00000 450.992
32.04000 440.970
32.08000 434.789
32.12000 443.429
32.16000 417.161
32.20000 409.857
32.24000 402.412
32.28000 405.874
32.32000 396.939
32.36000 407.676
32.40000 403.070
32.44000 404.734
32.48000 389.935
32.52000 372.810
32.56000 408.182
32.60000 399.884
32.64000 381.866
32.68000 376.999
32.72000 394.660
32.76000 378.442
32.80000 389.074
32.84000 380.409
32.88000 402.237
32.92000 410.541
32.96000 388.181
33.00000 390.443
33.04000 392.327
33.08000 362.525
33.12000 361.187
33.16000 357.164
33.20000 359.180
33.24000 352.575
33.28000 348.818
33.32000 350.572
33.36000 344.500
33.40000 349.418
33.44000 336.584
33.48000 335.999
33.52000 352.983
33.56000 341.003
33.60000 344.596
33.64000 343.446
33.68000 333.765
33.72000 352.295
33.76000 349.777
33.80000 346.039
33.84000 346.375
33.88000 337.374
33.92000 338.269
33.96000 337.759
34.00000 357.837
34.04000 349.469
34.08000 337.124
34.12000 344.322
34.16000 346.185
34.20000 352.475
34.24000 347.447
34.28000 321.864
34.32000 336.658
34.36000 337.663
34.40000 356.481
34.44000 329.048
34.48000 318.005
34.52000 328.970
34.56000 337.316
34.60000 337.437
34.64000 344.756
34.68000 345.087
34.72000 332.041
34.76000 329.385
34.80000 341.336
34.84000 307.927
34.88000 329.529
34.92000 320.070
34.96000 325.525
35.00000 312.082
35.04000 311.631
35.08000 311.738
35.12000 320.020
35.16000 317.137
35.20000 332.792
35.24000 311.941
35.28000 329.542
35.32000 316.951
35.36000 313.181
35.40000 299.117
35.44000 303.202
35.48000 307.041
35.52000 316.589
35.56000 298.111
35.60000 302.074
35.64000 303.494
35.68000 294.367
35.72000 303.495
35.76000 315.116
35.80000 310.538
35.84000 302.914
35.88000 305.827
35.92000 310.043
35.96000 303.660
36.00000 310.523
36.04000 309.307
36.08000 303.357
36.12000 316.403
36.16000 300.254
36.20000 300.758
36.24000 296.096
36.28000 304.578
36.32000 297.800
36.36000 301.158
36.40000 283.878
36.44000 321.479
36.48000 303.747
36.52000 284.172
36.56000 289.187
36.60000 290.848
36.64000 298.969
36.68000 288.390
36.72000 277.720
36.76000 290.667
36.80000 293.932
36.84000 294.227
36.88000 293.855
36.92000 304.141
36.96000 303.566
37.00000 303.612
37.04000 314.200
37.08000 311.175
37.12000 301.943
37.16000 305.272
37.20000 300.746
37.24000 294.003
37.28000 305.321
37.32000 287.400
37.36000 294.259
37.40000 298.091
37.44000 292.659
37.48000 296.269
37.52000 303.683
37.56000 291.903
37.60000 294.563
37.64000 303.342
37.68000 294.559
37.72000 282.667
37.76000 283.804
37.80000 285.235
37.84000 304.271
37.88000 293.023
37.92000 290.279
37.96000 299.517
38.00000 297.997
38.04000 308.912
38.08000 289.451
38.12000 305.152
38.16000 307.618
38.20000 309.182
38.24000 318.862
38.28000 294.909
38.32000 323.876
38.36000 352.805
38.40000 352.281
38.44000 396.487
38.48000 434.001
38.52000 472.971
38.56000 581.676
38.60000 704.077
38.64000 864.971
38.68000 969.581
38.72000 1025.900
38.76000 1060.510
38.80000 1062.009
38.84000 938.626
38.88000 817.266
38.92000 680.264
38.96000 563.204
39.00000 492.123
39.04000 407.081
39.08000 352.832
39.12000 335.457
39.16000 317.273
39.20000 303.997
39.24000 298.395
39.28000 299.668
39.32000 287.139
39.36000 298.416
39.40000 285.453
39.44000 265.959
39.48000 281.183
39.52000 287.893
39.56000 278.811
39.60000 279.235
39.64000 263.220
39.68000 273.879
39.72000 263.001
39.76000 276.713
39.80000 254.620
39.84000 267.226
39.88000 272.387
39.92000 270.206
39.96000 260.959
40.00000 271.572
40.04000 266.892
40.08000 254.743
40.12000 261.283
40.16000 256.293
40.20000 260.758
40.24000 273.692
40.28000 264.592
40.32000 246.585
40.36000 255.094
40.40000 252.796
40.44000 246.536
40.48000 261.429
40.52000 252.091
40.56000 258.147
40.60000 254.387
40.64000 259.827
40.68000 249.595
40.72000 255.251
40.76000 265.358
40.80000 241.731
40.84000 253.929
40.88000 235.072
40.92000 247.461
40.96000 249.527
41.00000 254.195
41.04000 254.607
41.08000 243.878
41.12000 251.454
41.16000 241.662
41.20000 247.154
41.24000 254.053
41.28000 245.006
41.32000 237.318
41.36000 244.485
41.40000 239.857
41.44000 249.986
41.48000 232.596
41.52000 219.824
41.56000 243.743
41.60000 242.715
41.64000 244.313
41.68000 241.466
41.72000 235.911
41.76000 231.605
41.80000 241.145
41.84000 239.192
41.88000 246.493
41.92000 248.707
41.96000 240.625
42.00000 243.669
42.04000 240.867
42.08000 233.875
42.12000 236.017
42.16000 228.661
42.20000 246.370
42.24000 246.753
42.28000 238.847
42.32000 244.997
42.36000 250.174
42.40000 246.104
42.44000 231.809
42.48000 233.054
42.52000 228.603
42.56000 229.439
42.60000 233.549
42.64000 225.572
42.68000 232.897
42.72000 229.811
42.76000 232.885
42.80000 240.871
42.84000 226.929
42.88000 237.907
42.92000 231.592
42.96000 222.419
43.00000 231.604
43.04000 229.381
43.08000 245.969
43.12000 233.059
43.16000 233.785
43.20000 216.980
43.24000 218.453
43.28000 219.738
43.32000 213.639
43.36000 227.920
43.40000 228.147
43.44000 228.317
43.48000 239.036
43.52000 223.605
43.56000 226.295
43.60000 234.122
43.64000 227.996
43.68000 216.458
43.72000 221.143
43.76000 227.082
43.80000 206.756
43.84000 218.324
43.88000 231.660
43.92000 211.675
43.96000 233.913
44.00000 225.001
44.04000 223.154
44.08000 224.745
44.12000 217.933
44.16000 214.656
44.20000 215.040
44.24000 224.682
44.28000 220.448
44.32000 224.986
44.36000 214.564
44.40000 220.532
44.44000 233.131
44.48000 230.682
44.52000 237.940
44.56000 222.579
44.60000 244.606
44.64000 246.038
44.68000 238.644
44.72000 244.762
44.76000 258.994
44.80000 266.873
44.84000 286.104
44.88000 278.401
44.92000 287.523
44.96000 305.091
45.00000 324.784
45.04000 345.731
45.08000 349.647
45.12000 354.282
45.16000 351.086
45.20000 360.700
45.24000 339.698
45.28000 355.478
45.32000 328.044
45.36000 345.356
45.40000 304.052
45.44000 300.975
45.48000 280.706
45.52000 294.439
45.56000 282.729
45.60000 253.124
45.64000 249.023
45.68000 247.270
45.72000 260.389
45.76000 245.608
45.80000 234.603
45.84000 240.232
45.88000 219.200
45.92000 220.402
45.96000 225.651
46.00000 218.786
46.04000 213.426
46.08000 200.356
46.12000 213.462
46.16000 200.999
46.20000 203.217
46.24000 209.970
46.28000 216.648
46.32000 197.631
46.36000 210.322
46.40000 210.466
46.44000 213.030
46.48000 213.000
46.52000 203.418
46.56000 200.388
46.60000 202.686
46.64000 201.760
46.68000 199.956
46.72000 201.160
46.76000 203.455
46.80000 208.356
46.84000 206.333
46.88000 201.016
46.92000 199.911
46.96000 200.630
47.00000 200.211
47.04000 201.701
47.08000 194.525
47.12000 199.556
47.16000 195.982
47.20000 192.093
47.24000 186.703
47.28000 187.486
47.32000 180.741
47.36000 189.624
47.40000 188.530
47.44000 188.107
47.48000 184.797
47.52000 185.777
47.56000 186.847
47.60000 188.227
47.64000 189.736
47.68000 196.056
47.72000 176.939
47.76000 175.726
47.80000 186.274
47.84000 187.400
47.88000 183.847
47.92000 192.433
47.96000 181.812
48.00000 199.341
48.04000 191.460
48.08000 180.068
48.12000 183.483
48.16000 178.538
48.20000 183.308
48.24000 177.791
48.28000 184.090
48.32000 185.272
48.36000 185.226
48.40000 181.583
48.44000 184.580
48.48000 192.032
48.52000 176.199
48.56000 185.757
48.60000 177.193
48.64000 186.416
48.68000 181.100
48.72000 195.642
48.76000 184.477
48.80000 170.784
48.84000 183.077
48.88000 175.039
48.92000 170.491
48.96000 169.328
49.00000 170.746
49.04000 186.083
49.08000 169.602
49.12000 163.322
49.16000 189.088
49.20000 174.535
49.24000 186.690
49.28000 174.350
49.32000 170.237
49.36000 175.813
49.40000 182.516
49.44000 165.760
49.48000 177.228
49.52000 176.229
49.56000 172.906
49.60000 181.030
49.64000 175.446
49.68000 177.355
49.72000 174.408
49.76000 174.842
49.80000 173.730
49.84000 178.343
49.88000 177.373
49.92000 174.527
49.96000 171.635
50.00000 173.024
50.04000 175.212
50.08000 184.568
50.12000 173.401
50.16000 182.150
50.20000 187.192
50.24000 174.977
50.28000 180.135
50.32000 202.971
50.36000 186.619
50.40000 191.925
50.44000 194.907
50.48000 202.878
50.52000 213.496
50.56000 220.477
50.60000 230.035
50.64000 236.966
50.68000 254.524
50.72000 250.620
50.76000 240.527
50.80000 245.249
50.84000 237.069
50.88000 240.670
50.92000 223.523
50.96000 217.024
51.00000 214.952
51.04000 210.745
51.08000 200.666
51.12000 195.408
51.16000 189.830
51.20000 185.132
51.24000 185.426
51.28000 163.006
51.32000 174.272
51.36000 171.009
51.40000 168.888
51.44000 176.942
51.48000 172.951
51.52000 172.052
51.56000 178.375
51.60000 172.168
51.64000 158.862
51.68000 166.179
51.72000 168.338
51.76000 166.882
51.80000 175.050
51.84000 170.640
51.88000 166.955
51.92000 169.922
51.96000 157.459
52.00000 159.167
52.04000 169.385
52.08000 170.695
52.12000 169.353
52.16000 156.905
52.20000 166.481
52.24000 168.231
52.28000 162.193
52.32000 166.311
52.36000 162.513
52.40000 173.735
52.44000 170.973
52.48000 160.155
52.52000 159.107
52.56000 164.086
52.60000 165.372
52.64000 158.468
52.68000 151.560
52.72000 154.061
52.76000 152.041
52.80000 157.017
52.84000 157.659
52.88000 156.424
52.92000 159.645
52.96000 163.764
53.00000 157.198
53.04000 161.867
53.08000 156.602
53.12000 167.166
53.16000 149.673
53.20000 164.923
53.24000 141.995
53.28000 152.966
53.32000 165.729
53.36000 164.470
53.40000 161.191
53.44000 156.664
53.48000 160.460
53.52000 156.786
53.56000 163.711
53.60000 153.392
53.64000 155.011
53.68000 151.152
53.72000 164.479
53.76000 158.477
53.80000 153.211
53.84000 148.351
53.88000 149.378
53.92000 156.941
53.96000 154.206
54.00000 150.378
54.04000 145.049
54.08000 153.266
54.12000 160.246
54.16000 153.385
54.20000 154.752
54.24000 144.586
54.28000 155.248
54.32000 155.506
54.36000 162.377
54.40000 153.519
54.44000 149.899
54.48000 156.485
54.52000 163.310
54.56000 149.144
54.60000 158.772
54.64000 154.940
54.68000 150.906
54.72000 155.978
54.76000 148.670
54.80000 145.661
54.84000 155.964
54.88000 150.073
54.92000 148.948
54.96000 160.989
55.00000 151.128
55.04000 160.782
55.08000 152.728
55.12000 159.743
55.16000 150.361
55.20000 155.807
55.24000 162.058
55.28000 169.633
55.32000 167.845
55.36000 176.422
55.40000 175.927
55.44000 183.974
55.48000 179.380
55.52000 195.206
55.56000 200.503
55.60000 214.481
55.64000 220.122
55.68000 245.614
55.72000 275.715
55.76000 303.419
55.80000 346.835
55.84000 410.251
55.88000 444.893
55.92000 488.806
55.96000 509.899
56.00000 531.168
56.04000 516.992
56.08000 517.900
56.12000 480.601
56.16000 411.120
56.20000 391.300
56.24000 334.209
56.28000 307.353
56.32000 274.537
56.36000 246.760
56.40000 232.100
56.44000 211.293
56.48000 193.197
56.52000 182.186
56.56000 182.926
56.60000 174.352
56.64000 195.063
56.68000 171.151
56.72000 152.738
56.76000 156.021
56.80000 165.769
56.84000 156.492
56.88000 143.425
56.92000 149.476
56.96000 149.541
57.00000 151.837
57.04000 147.951
57.08000 148.883
57.12000 150.075
57.16000 142.524
57.20000 145.016
57.24000 139.761
57.28000 145.679
57.32000 151.850
57.36000 145.928
57.40000 144.481
57.44000 146.492
57.48000 139.731
57.52000 150.471
57.56000 144.041
57.60000 142.195
57.64000 136.882
57.68000 136.494
57.72000 142.463
57.76000 133.818
57.80000 137.863
57.84000 145.048
57.88000 132.441
57.92000 137.531
57.96000 139.109
58.00000 136.948
58.04000 127.233
58.08000 138.546
58.12000 132.602
58.16000 143.151
58.20000 139.147
58.24000 141.153
58.28000 134.411
58.32000 138.375
58.36000 130.370
58.40000 132.725
58.44000 132.473
58.48000 130.080
58.52000 132.604
58.56000 128.491
58.60000 136.108
58.64000 141.727
58.68000 134.625
58.72000 134.994
58.76000 134.694
58.80000 134.203
58.84000 127.908
58.88000 135.891
58.92000 139.548
58.96000 128.406
59.00000 129.169
59.04000 133.835
59.08000 140.184
59.12000 137.016
59.16000 130.856
59.20000 142.664
59.24000 136.348
59.28000 144.168
59.32000 129.975
59.36000 130.386
59.40000 138.827
59.44000 136.957
59.48000 134.920
59.52000 140.713
59.56000 131.380
59.60000 140.481
59.64000 134.380
59.68000 140.823
59.72000 130.557
59.76000 134.158
59.80000 131.284
59.84000 141.481
59.88000 134.036
59.92000 141.678
59.96000 134.337
60.00000 136.715
60.04000 135.314
60.08000 138.208
60.12000 137.654
60.16000 130.521
60.20000 126.155
60.24000 138.338
60.28000 133.333
60.32000 137.444
60.36000 130.365
60.40000 128.078
60.44000 130.173
60.48000 130.075
60.52000 130.390
60.56000 125.040
60.60000 124.413
60.64000 123.189
60.68000 133.612
60.72000 125.152
60.76000 133.840
60.80000 125.910
60.84000 137.417
60.88000 129.617
60.92000 135.568
60.96000 136.317
61.00000 137.955
61.04000 140.674
61.08000 134.192
61.12000 140.877
61.16000 144.759
61.20000 146.630
61.24000 144.827
61.28000 136.276
61.32000 139.359
61.36000 141.133
61.40000 141.418
61.44000 139.652
61.48000 143.782
61.52000 168.053
61.56000 197.724
61.60000 244.242
61.64000 280.011
61.68000 290.688
61.72000 282.226
61.76000 267.165
61.80000 232.525
61.84000 182.864
61.88000 158.033
61.92000 147.567
61.96000 141.738
62.00000 135.892
62.04000 143.901
62.08000 145.110
62.12000 131.792
62.16000 133.158
62.20000 133.390
62.24000 131.099
62.28000 152.667
62.32000 138.095
62.36000 152.844
62.40000 140.566
62.44000 140.339
62.48000 139.782
62.52000 137.838
62.56000 138.284
62.60000 136.569
62.64000 149.868
62.68000 146.785
62.72000 142.717
62.76000 139.119
62.80000 152.753
62.84000 139.875
62.88000 145.316
62.92000 140.649
62.96000 150.646
63.00000 142.659
63.04000 137.222
63.08000 145.717
63.12000 148.870
63.16000 151.502
63.20000 143.854
63.24000 146.260
63.28000 145.771
63.32000 140.373
63.36000 142.690
63.40000 153.920
63.44000 143.323
63.48000 136.675
63.52000 141.982
63.56000 166.093
63.60000 152.581
63.64000 153.864
63.68000 149.458
63.72000 156.404
63.76000 153.195
63.80000 151.609
63.84000 158.279
63.88000 160.237
63.92000 158.337
63.96000 147.850
64.00000 159.302
64.04000 150.372
64.08000 156.251
64.12000 153.331
64.16000 148.408
64.20000 160.719
64.24000 148.585
64.28000 163.162
64.32000 163.829
64.36000 166.422
64.40000 176.606
64.44000 168.311
64.48000 168.273
64.52000 168.956
64.56000 169.124
64.60000 163.958
64.64000 166.580
64.68000 173.247
64.72000 187.206
64.76000 178.344
64.80000 172.014
64.84000 175.766
64.88000 188.934
64.92000 188.253
64.96000 179.250
65.00000 192.412
65.04000 195.151
65.08000 204.928
65.12000 194.302
65.16000 213.515
65.20000 230.239
65.24000 223.330
65.28000 233.782
65.32000 263.758
65.36000 269.747
65.40000 306.781
65.44000 313.634
65.48000 345.738
65.52000 364.305
65.56000 379.961
65.60000 400.601
65.64000 452.976
65.68000 508.583
65.72000 628.707
65.76000 871.146
65.80000 1041.547
65.84000 1113.670
65.88000 1153.630
65.92000 1083.803
65.96000 947.754
66.00000 689.863
66.04000 463.223
66.08000 375.505
66.12000 336.529
66.16000 334.338
66.20000 301.745
66.24000 318.040
66.28000 349.623
66.32000 394.519
66.36000 446.225
66.40000 475.463
66.44000 464.893
66.48000 453.242
66.52000 416.437
66.56000 362.678
66.60000 346.752
66.64000 327.531
66.68000 315.075
66.72000 310.151
66.76000 307.005
66.80000 326.428
66.84000 318.003
66.88000 315.429
66.92000 335.305
66.96000 339.170
67.00000 347.786
67.04000 359.010
67.08000 357.198
67.12000 360.129
67.16000 365.101
67.20000 366.252
67.24000 388.662
67.28000 403.779
67.32000 374.408
67.36000 406.439
67.40000 403.974
67.44000 395.161
67.48000 416.268
67.52000 409.892
67.56000 434.777
67.60000 443.345
67.64000 430.231
67.68000 446.005
67.72000 462.023
67.76000 486.478
67.80000 475.444
67.84000 514.455
67.88000 489.242
67.92000 484.680
67.96000 535.188
68.00000 549.463
68.04000 548.958
68.08000 539.155
68.12000 562.584
68.16000 576.136
68.20000 594.588
68.24000 628.493
68.28000 622.618
68.32000 640.792
68.36000 686.516
68.40000 705.760
68.44000 718.394
68.48000 758.636
68.52000 816.162
68.56000 884.888
68.60000 984.305
68.64000 1138.741
68.68000 1395.555
68.72000 1580.310
68.76000 1827.528
68.80000 2026.090
68.84000 2383.037
68.88000 3122.340
68.92000 5581.477
68.96000 13594.510
69.00000 30682.449
69.04000 48982.523
69.08000 58020.715
69.12000 60382.527
69.16000 62890.895
69.20000 63074.566
69.24000 52618.352
69.28000 39410.027
69.32000 32852.641
69.36000 29612.840
69.40000 24446.279
69.44000 14958.699
69.48000 6720.775
69.52000 3165.681
69.56000 1952.004
69.60000 1501.941
69.64000 1303.903
69.68000 1161.940
69.72000 1016.456
69.76000 933.022
69.80000 850.056
69.84000 820.615
69.88000 754.723
69.92000 736.767
69.96000 696.113
70.00000 651.997