File: XRD/XRD/22-09-2025 Dep 2/XY Data/BTO_Mapping_Theta2Theta_22-09-2025_001_28_-12-470_15-637.xy
20.00000 559.256
20.04000 567.945
20.08000 567.790
20.12000 606.134
20.16000 585.235
20.20000 570.767
20.24000 557.743
20.28000 586.105
20.32000 570.466
20.36000 549.833
20.40000 574.465
20.44000 563.801
20.48000 543.374
20.52000 571.892
20.56000 562.380
20.60000 556.888
20.64000 542.357
20.68000 539.257
20.72000 554.696
20.76000 569.877
20.80000 575.027
20.84000 547.994
20.88000 574.137
20.92000 563.140
20.96000 576.327
21.00000 563.166
21.04000 574.970
21.08000 577.892
21.12000 562.589
21.16000 575.443
21.20000 573.109
21.24000 563.385
21.28000 565.938
21.32000 557.854
21.36000 567.089
21.40000 563.874
21.44000 548.630
21.48000 573.978
21.52000 575.836
21.56000 574.477
21.60000 562.491
21.64000 576.398
21.68000 600.370
21.72000 603.183
21.76000 652.633
21.80000 660.864
21.84000 711.404
21.88000 763.932
21.92000 799.221
21.96000 840.729
22.00000 863.463
22.04000 884.410
22.08000 858.758
22.12000 867.120
22.16000 804.208
22.20000 749.264
22.24000 675.322
22.28000 658.434
22.32000 648.255
22.36000 624.697
22.40000 610.911
22.44000 584.481
22.48000 571.833
22.52000 569.439
22.56000 574.839
22.60000 540.748
22.64000 532.788
22.68000 535.221
22.72000 505.380
22.76000 524.209
22.80000 544.058
22.84000 534.568
22.88000 532.049
22.92000 509.307
22.96000 515.897
23.00000 511.866
23.04000 506.959
23.08000 511.320
23.12000 509.410
23.16000 524.794
23.20000 516.380
23.24000 504.518
23.28000 508.475
23.32000 490.987
23.36000 511.109
23.40000 522.445
23.44000 539.057
23.48000 501.738
23.52000 500.494
23.56000 515.783
23.60000 499.090
23.64000 513.818
23.68000 480.228
23.72000 492.174
23.76000 512.705
23.80000 510.573
23.84000 498.859
23.88000 520.323
23.92000 481.962
23.96000 499.499
24.00000 488.853
24.04000 511.868
24.08000 491.563
24.12000 495.389
24.16000 503.504
24.20000 498.448
24.24000 502.690
24.28000 516.565
24.32000 486.465
24.36000 480.415
24.40000 484.127
24.44000 485.285
24.48000 484.795
24.52000 481.012
24.56000 499.220
24.60000 490.020
24.64000 483.159
24.68000 468.861
24.72000 511.761
24.76000 487.621
24.80000 489.752
24.84000 495.639
24.88000 479.879
24.92000 483.248
24.96000 487.233
25.00000 488.769
25.04000 482.870
25.08000 488.844
25.12000 465.204
25.16000 483.364
25.20000 466.142
25.24000 478.665
25.28000 472.433
25.32000 477.399
25.36000 469.671
25.40000 485.866
25.44000 486.155
25.48000 479.353
25.52000 459.087
25.56000 480.757
25.60000 474.281
25.64000 464.814
25.68000 465.430
25.72000 474.797
25.76000 468.996
25.80000 468.118
25.84000 471.826
25.88000 477.795
25.92000 467.767
25.96000 469.597
26.00000 456.306
26.04000 480.679
26.08000 459.546
26.12000 470.036
26.16000 450.456
26.20000 471.665
26.24000 457.606
26.28000 456.966
26.32000 471.633
26.36000 445.045
26.40000 464.651
26.44000 461.578
26.48000 464.141
26.52000 452.188
26.56000 455.334
26.60000 459.986
26.64000 452.816
26.68000 442.528
26.72000 451.855
26.76000 447.714
26.80000 467.242
26.84000 451.279
26.88000 477.140
26.92000 429.266
26.96000 447.900
27.00000 436.128
27.04000 463.854
27.08000 435.897
27.12000 448.105
27.16000 449.717
27.20000 475.447
27.24000 446.118
27.28000 442.985
27.32000 443.441
27.36000 463.696
27.40000 432.755
27.44000 443.191
27.48000 452.304
27.52000 419.954
27.56000 433.408
27.60000 441.705
27.64000 441.737
27.68000 438.105
27.72000 440.893
27.76000 447.457
27.80000 428.215
27.84000 458.426
27.88000 425.760
27.92000 445.621
27.96000 429.242
28.00000 452.087
28.04000 452.515
28.08000 444.045
28.12000 423.699
28.16000 425.798
28.20000 448.838
28.24000 452.585
28.28000 416.810
28.32000 445.776
28.36000 428.449
28.40000 430.076
28.44000 432.220
28.48000 419.938
28.52000 416.208
28.56000 433.484
28.60000 417.652
28.64000 417.530
28.68000 432.294
28.72000 423.092
28.76000 418.003
28.80000 419.989
28.84000 417.696
28.88000 430.564
28.92000 431.828
28.96000 420.940
29.00000 421.007
29.04000 421.185
29.08000 405.991
29.12000 403.070
29.16000 406.722
29.20000 420.499
29.24000 422.195
29.28000 414.519
29.32000 424.413
29.36000 426.672
29.40000 419.377
29.44000 423.579
29.48000 427.147
29.52000 420.750
29.56000 420.348
29.60000 393.288
29.64000 424.022
29.68000 423.321
29.72000 439.838
29.76000 411.999
29.80000 421.448
29.84000 431.034
29.88000 444.000
29.92000 425.616
29.96000 454.388
30.00000 478.110
30.04000 458.058
30.08000 433.844
30.12000 450.943
30.16000 454.373
30.20000 454.880
30.24000 444.203
30.28000 438.777
30.32000 447.985
30.36000 436.105
30.40000 422.399
30.44000 455.598
30.48000 432.619
30.52000 438.103
30.56000 443.717
30.60000 441.438
30.64000 450.622
30.68000 464.788
30.72000 470.552
30.76000 474.868
30.80000 475.928
30.84000 479.124
30.88000 507.263
30.92000 527.576
30.96000 595.350
31.00000 618.423
31.04000 695.186
31.08000 842.059
31.12000 1059.909
31.16000 1304.695
31.20000 1707.610
31.24000 2134.352
31.28000 2660.952
31.32000 3001.408
31.36000 3296.441
31.40000 3353.206
31.44000 3150.442
31.48000 2823.249
31.52000 2400.627
31.56000 1940.964
31.60000 1562.146
31.64000 1226.254
31.68000 962.812
31.72000 819.118
31.76000 700.596
31.80000 621.065
31.84000 568.296
31.88000 542.099
31.92000 511.563
31.96000 484.207
32.00000 446.837
32.04000 429.467
32.08000 434.808
32.12000 452.794
32.16000 425.458
32.20000 417.295
32.24000 421.000
32.28000 399.580
32.32000 414.793
32.36000 395.525
32.40000 403.416
32.44000 404.597
32.48000 406.055
32.52000 404.357
32.56000 403.165
32.60000 417.985
32.64000 415.549
32.68000 399.147
32.72000 391.282
32.76000 398.643
32.80000 405.464
32.84000 427.264
32.88000 424.612
32.92000 437.249
32.96000 415.778
33.00000 422.477
33.04000 401.133
33.08000 379.946
33.12000 386.777
33.16000 360.738
33.20000 369.172
33.24000 356.410
33.28000 347.683
33.32000 351.890
33.36000 353.613
33.40000 365.671
33.44000 341.960
33.48000 352.121
33.52000 359.555
33.56000 355.189
33.60000 356.580
33.64000 362.190
33.68000 365.815
33.72000 356.080
33.76000 348.810
33.80000 338.704
33.84000 330.300
33.88000 328.180
33.92000 344.662
33.96000 353.224
34.00000 353.945
34.04000 345.047
34.08000 346.277
34.12000 340.941
34.16000 331.657
34.20000 339.108
34.24000 332.575
34.28000 339.150
34.32000 332.018
34.36000 318.744
34.40000 334.498
34.44000 341.502
34.48000 331.562
34.52000 319.269
34.56000 333.393
34.60000 316.637
34.64000 342.846
34.68000 340.635
34.72000 338.323
34.76000 323.471
34.80000 324.547
34.84000 315.246
34.88000 339.709
34.92000 335.121
34.96000 319.226
35.00000 321.666
35.04000 312.356
35.08000 321.386
35.12000 315.355
35.16000 314.889
35.20000 315.549
35.24000 301.426
35.28000 334.176
35.32000 319.507
35.36000 304.088
35.40000 310.451
35.44000 316.019
35.48000 307.299
35.52000 316.815
35.56000 304.429
35.60000 326.592
35.64000 312.054
35.68000 309.174
35.72000 322.353
35.76000 318.072
35.80000 307.260
35.84000 316.971
35.88000 316.005
35.92000 302.758
35.96000 311.571
36.00000 312.535
36.04000 309.249
36.08000 322.667
36.12000 313.432
36.16000 309.379
36.20000 295.567
36.24000 299.452
36.28000 298.781
36.32000 306.548
36.36000 298.884
36.40000 315.419
36.44000 313.825
36.48000 318.411
36.52000 312.908
36.56000 311.249
36.60000 325.898
36.64000 299.202
36.68000 307.506
36.72000 297.300
36.76000 314.671
36.80000 325.016
36.84000 295.718
36.88000 307.826
36.92000 300.006
36.96000 321.648
37.00000 309.799
37.04000 308.058
37.08000 311.154
37.12000 313.683
37.16000 297.968
37.20000 307.931
37.24000 292.004
37.28000 295.018
37.32000 299.968
37.36000 296.670
37.40000 304.083
37.44000 296.130
37.48000 306.159
37.52000 302.534
37.56000 301.590
37.60000 294.207
37.64000 294.944
37.68000 290.747
37.72000 293.890
37.76000 317.423
37.80000 304.816
37.84000 300.185
37.88000 313.907
37.92000 301.598
37.96000 303.781
38.00000 299.732
38.04000 307.905
38.08000 320.554
38.12000 319.620
38.16000 300.856
38.20000 335.681
38.24000 331.942
38.28000 346.307
38.32000 361.391
38.36000 362.375
38.40000 405.860
38.44000 457.880
38.48000 510.991
38.52000 596.111
38.56000 675.077
38.60000 764.903
38.64000 843.962
38.68000 870.452
38.72000 862.931
38.76000 852.432
38.80000 769.617
38.84000 668.570
38.88000 600.257
38.92000 514.314
38.96000 447.984
39.00000 396.389
39.04000 382.543
39.08000 357.809
39.12000 337.626
39.16000 318.697
39.20000 327.583
39.24000 312.210
39.28000 305.112
39.32000 279.358
39.36000 291.917
39.40000 285.030
39.44000 290.296
39.48000 273.839
39.52000 304.702
39.56000 276.356
39.60000 261.072
39.64000 279.557
39.68000 282.494
39.72000 283.057
39.76000 273.831
39.80000 276.631
39.84000 272.036
39.88000 273.648
39.92000 284.095
39.96000 284.414
40.00000 264.366
40.04000 267.194
40.08000 265.507
40.12000 267.944
40.16000 279.004
40.20000 271.391
40.24000 260.996
40.28000 258.197
40.32000 245.385
40.36000 266.470
40.40000 273.997
40.44000 260.916
40.48000 265.105
40.52000 268.199
40.56000 244.283
40.60000 255.755
40.64000 257.087
40.68000 253.050
40.72000 260.651
40.76000 273.076
40.80000 249.021
40.84000 245.577
40.88000 277.213
40.92000 266.076
40.96000 249.429
41.00000 253.233
41.04000 250.217
41.08000 252.800
41.12000 263.520
41.16000 262.267
41.20000 261.914
41.24000 246.234
41.28000 248.791
41.32000 245.893
41.36000 260.232
41.40000 245.043
41.44000 242.615
41.48000 260.186
41.52000 247.612
41.56000 247.347
41.60000 231.880
41.64000 243.417
41.68000 239.887
41.72000 259.330
41.76000 248.678
41.80000 229.325
41.84000 245.810
41.88000 245.412
41.92000 248.719
41.96000 233.610
42.00000 243.154
42.04000 242.023
42.08000 248.288
42.12000 246.736
42.16000 235.326
42.20000 229.757
42.24000 252.583
42.28000 234.776
42.32000 224.589
42.36000 252.018
42.40000 238.230
42.44000 238.953
42.48000 233.906
42.52000 246.886
42.56000 254.296
42.60000 236.519
42.64000 241.278
42.68000 231.756
42.72000 240.216
42.76000 234.500
42.80000 230.004
42.84000 240.850
42.88000 236.695
42.92000 237.080
42.96000 250.091
43.00000 228.201
43.04000 229.549
43.08000 248.637
43.12000 234.347
43.16000 224.170
43.20000 249.070
43.24000 233.575
43.28000 230.920
43.32000 226.392
43.36000 241.055
43.40000 224.794
43.44000 230.426
43.48000 231.440
43.52000 231.150
43.56000 237.001
43.60000 231.890
43.64000 231.733
43.68000 232.755
43.72000 234.092
43.76000 226.512
43.80000 216.257
43.84000 231.074
43.88000 217.702
43.92000 231.139
43.96000 228.127
44.00000 224.899
44.04000 241.341
44.08000 230.931
44.12000 230.774
44.16000 229.266
44.20000 237.396
44.24000 241.419
44.28000 246.806
44.32000 235.324
44.36000 238.246
44.40000 254.993
44.44000 237.485
44.48000 244.558
44.52000 256.868
44.56000 258.536
44.60000 267.768
44.64000 287.367
44.68000 290.711
44.72000 317.368
44.76000 326.510
44.80000 370.884
44.84000 404.151
44.88000 431.011
44.92000 462.038
44.96000 471.850
45.00000 503.959
45.04000 507.943
45.08000 488.235
45.12000 468.697
45.16000 454.627
45.20000 422.309
45.24000 402.240
45.28000 377.015
45.32000 374.841
45.36000 322.431
45.40000 330.148
45.44000 313.501
45.48000 306.759
45.52000 285.008
45.56000 269.275
45.60000 266.140
45.64000 263.852
45.68000 246.051
45.72000 251.993
45.76000 252.688
45.80000 246.629
45.84000 231.155
45.88000 228.376
45.92000 218.603
45.96000 229.529
46.00000 220.842
46.04000 216.323
46.08000 210.897
46.12000 223.305
46.16000 218.151
46.20000 213.833
46.24000 212.694
46.28000 212.873
46.32000 212.388
46.36000 197.517
46.40000 202.711
46.44000 204.832
46.48000 200.166
46.52000 204.540
46.56000 208.855
46.60000 206.392
46.64000 202.363
46.68000 209.550
46.72000 207.103
46.76000 205.699
46.80000 196.484
46.84000 194.565
46.88000 206.201
46.92000 209.058
46.96000 199.942
47.00000 199.007
47.04000 191.420
47.08000 190.113
47.12000 193.321
47.16000 180.657
47.20000 196.526
47.24000 202.990
47.28000 183.863
47.32000 204.291
47.36000 187.918
47.40000 189.438
47.44000 200.148
47.48000 176.720
47.52000 194.242
47.56000 209.850
47.60000 182.105
47.64000 184.390
47.68000 191.586
47.72000 186.832
47.76000 198.251
47.80000 183.100
47.84000 197.120
47.88000 189.839
47.92000 188.507
47.96000 184.768
48.00000 172.277
48.04000 191.216
48.08000 196.585
48.12000 183.733
48.16000 183.979
48.20000 192.748
48.24000 192.974
48.28000 173.849
48.32000 183.302
48.36000 194.950
48.40000 185.459
48.44000 190.087
48.48000 183.854
48.52000 171.470
48.56000 177.460
48.60000 181.752
48.64000 198.828
48.68000 187.641
48.72000 197.474
48.76000 185.057
48.80000 184.547
48.84000 188.490
48.88000 184.683
48.92000 180.411
48.96000 187.855
49.00000 195.721
49.04000 184.133
49.08000 183.116
49.12000 184.172
49.16000 189.054
49.20000 189.140
49.24000 179.210
49.28000 174.488
49.32000 183.448
49.36000 183.524
49.40000 179.698
49.44000 180.901
49.48000 173.211
49.52000 179.238
49.56000 176.138
49.60000 175.205
49.64000 177.771
49.68000 180.127
49.72000 188.723
49.76000 182.154
49.80000 186.058
49.84000 183.254
49.88000 185.254
49.92000 179.402
49.96000 180.168
50.00000 181.601
50.04000 172.184
50.08000 161.599
50.12000 185.505
50.16000 177.803
50.20000 186.843
50.24000 193.210
50.28000 183.083
50.32000 198.814
50.36000 207.120
50.40000 209.326
50.44000 218.602
50.48000 218.846
50.52000 229.920
50.56000 259.708
50.60000 280.996
50.64000 271.894
50.68000 279.867
50.72000 273.824
50.76000 262.155
50.80000 250.171
50.84000 260.895
50.88000 244.512
50.92000 234.463
50.96000 219.148
51.00000 219.430
51.04000 217.974
51.08000 206.789
51.12000 199.610
51.16000 204.029
51.20000 188.384
51.24000 192.231
51.28000 185.695
51.32000 184.397
51.36000 170.137
51.40000 184.325
51.44000 181.946
51.48000 187.448
51.52000 170.250
51.56000 170.200
51.60000 175.877
51.64000 178.189
51.68000 176.446
51.72000 169.416
51.76000 164.198
51.80000 177.094
51.84000 173.931
51.88000 167.444
51.92000 179.341
51.96000 173.140
52.00000 169.647
52.04000 181.396
52.08000 173.100
52.12000 167.792
52.16000 156.552
52.20000 156.974
52.24000 156.724
52.28000 159.897
52.32000 165.155
52.36000 155.313
52.40000 168.599
52.44000 164.907
52.48000 154.756
52.52000 167.356
52.56000 166.773
52.60000 175.299
52.64000 167.584
52.68000 168.807
52.72000 170.093
52.76000 169.863
52.80000 163.038
52.84000 165.853
52.88000 166.462
52.92000 153.650
52.96000 159.874
53.00000 157.574
53.04000 165.019
53.08000 163.955
53.12000 156.922
53.16000 172.037
53.20000 152.621
53.24000 160.202
53.28000 162.797
53.32000 155.182
53.36000 170.367
53.40000 163.949
53.44000 164.993
53.48000 160.406
53.52000 177.847
53.56000 155.523
53.60000 154.823
53.64000 163.157
53.68000 155.996
53.72000 162.436
53.76000 169.606
53.80000 161.592
53.84000 161.982
53.88000 159.485
53.92000 156.732
53.96000 160.802
54.00000 159.940
54.04000 165.737
54.08000 151.800
54.12000 159.987
54.16000 154.564
54.20000 170.808
54.24000 149.284
54.28000 158.238
54.32000 159.213
54.36000 156.339
54.40000 150.613
54.44000 153.131
54.48000 158.919
54.52000 148.973
54.56000 158.387
54.60000 161.096
54.64000 161.922
54.68000 154.401
54.72000 160.429
54.76000 155.362
54.80000 164.673
54.84000 170.927
54.88000 158.923
54.92000 169.580
54.96000 159.732
55.00000 153.189
55.04000 159.584
55.08000 171.435
55.12000 160.917
55.16000 174.834
55.20000 172.088
55.24000 178.068
55.28000 180.893
55.32000 169.822
55.36000 190.924
55.40000 187.072
55.44000 207.773
55.48000 210.060
55.52000 230.286
55.56000 246.944
55.60000 264.908
55.64000 286.721
55.68000 317.927
55.72000 382.491
55.76000 430.906
55.80000 510.350
55.84000 515.403
55.88000 547.028
55.92000 570.925
55.96000 585.281
56.00000 569.531
56.04000 532.326
56.08000 512.622
56.12000 447.242
56.16000 419.491
56.20000 347.780
56.24000 310.457
56.28000 298.215
56.32000 272.650
56.36000 239.375
56.40000 224.194
56.44000 210.316
56.48000 213.961
56.52000 193.449
56.56000 190.887
56.60000 186.190
56.64000 167.986
56.68000 165.650
56.72000 174.122
56.76000 184.504
56.80000 169.266
56.84000 154.708
56.88000 166.104
56.92000 153.375
56.96000 150.507
57.00000 159.270
57.04000 148.852
57.08000 159.392
57.12000 143.202
57.16000 150.351
57.20000 140.023
57.24000 139.628
57.28000 147.500
57.32000 147.643
57.36000 151.977
57.40000 142.767
57.44000 149.580
57.48000 154.959
57.52000 138.998
57.56000 148.306
57.60000 146.108
57.64000 142.359
57.68000 143.248
57.72000 155.598
57.76000 140.309
57.80000 140.932
57.84000 147.072
57.88000 140.386
57.92000 160.700
57.96000 154.531
58.00000 146.524
58.04000 147.491
58.08000 145.704
58.12000 151.608
58.16000 156.479
58.20000 148.954
58.24000 155.381
58.28000 150.248
58.32000 143.937
58.36000 145.376
58.40000 147.494
58.44000 146.542
58.48000 142.068
58.52000 139.756
58.56000 142.806
58.60000 140.959
58.64000 131.043
58.68000 136.855
58.72000 146.997
58.76000 138.698
58.80000 137.800
58.84000 144.054
58.88000 139.780
58.92000 139.611
58.96000 136.201
59.00000 140.075
59.04000 133.901
59.08000 137.065
59.12000 138.697
59.16000 130.277
59.20000 129.011
59.24000 137.254
59.28000 139.983
59.32000 140.662
59.36000 140.313
59.40000 132.908
59.44000 132.597
59.48000 129.917
59.52000 133.104
59.56000 135.269
59.60000 135.303
59.64000 136.162
59.68000 135.341
59.72000 134.130
59.76000 129.480
59.80000 153.090
59.84000 139.520
59.88000 135.786
59.92000 131.173
59.96000 142.046
60.00000 143.722
60.04000 130.458
60.08000 135.910
60.12000 133.219
60.16000 129.354
60.20000 129.286
60.24000 140.282
60.28000 128.248
60.32000 130.709
60.36000 146.208
60.40000 139.882
60.44000 133.248
60.48000 136.612
60.52000 124.979
60.56000 132.619
60.60000 134.660
60.64000 137.112
60.68000 131.883
60.72000 137.810
60.76000 129.389
60.80000 126.818
60.84000 135.130
60.88000 136.862
60.92000 136.828
60.96000 143.314
61.00000 134.485
61.04000 139.650
61.08000 130.545
61.12000 136.333
61.16000 140.056
61.20000 140.747
61.24000 138.107
61.28000 134.591
61.32000 143.128
61.36000 152.465
61.40000 139.524
61.44000 134.499
61.48000 145.414
61.52000 196.062
61.56000 264.704
61.60000 306.087
61.64000 357.118
61.68000 382.981
61.72000 384.291
61.76000 359.632
61.80000 264.461
61.84000 211.418
61.88000 160.288
61.92000 165.207
61.96000 153.596
62.00000 152.847
62.04000 159.071
62.08000 152.738
62.12000 143.403
62.16000 147.096
62.20000 157.225
62.24000 144.755
62.28000 141.937
62.32000 142.615
62.36000 162.034
62.40000 137.681
62.44000 152.357
62.48000 144.085
62.52000 143.830
62.56000 143.702
62.60000 137.340
62.64000 147.575
62.68000 150.094
62.72000 151.835
62.76000 136.669
62.80000 154.587
62.84000 156.645
62.88000 153.748
62.92000 155.637
62.96000 141.949
63.00000 143.838
63.04000 138.836
63.08000 157.617
63.12000 161.521
63.16000 142.515
63.20000 144.956
63.24000 147.506
63.28000 142.108
63.32000 138.340
63.36000 160.109
63.40000 160.206
63.44000 166.595
63.48000 153.256
63.52000 158.376
63.56000 152.834
63.60000 164.048
63.64000 165.456
63.68000 157.669
63.72000 160.082
63.76000 167.691
63.80000 162.586
63.84000 155.524
63.88000 164.309
63.92000 156.245
63.96000 158.929
64.00000 158.994
64.04000 172.881
64.08000 168.420
64.12000 167.473
64.16000 175.817
64.20000 159.713
64.24000 171.921
64.28000 172.307
64.32000 166.649
64.36000 166.541
64.40000 180.860
64.44000 180.395
64.48000 179.100
64.52000 179.885
64.56000 181.489
64.60000 182.637
64.64000 180.117
64.68000 192.329
64.72000 189.846
64.76000 191.988
64.80000 188.783
64.84000 188.189
64.88000 198.895
64.92000 204.923
64.96000 205.251
65.00000 209.116
65.04000 221.653
65.08000 218.318
65.12000 219.757
65.16000 226.698
65.20000 265.717
65.24000 268.934
65.28000 291.092
65.32000 299.982
65.36000 327.074
65.40000 340.820
65.44000 367.831
65.48000 403.087
65.52000 431.855
65.56000 441.577
65.60000 462.901
65.64000 532.741
65.68000 675.139
65.72000 902.425
65.76000 1196.163
65.80000 1502.210
65.84000 1599.657
65.88000 1633.001
65.92000 1557.006
65.96000 1285.852
66.00000 876.855
66.04000 602.046
66.08000 461.457
66.12000 405.879
66.16000 368.977
66.20000 374.208
66.24000 383.906
66.28000 433.782
66.32000 503.224
66.36000 568.294
66.40000 587.273
66.44000 598.769
66.48000 578.388
66.52000 511.254
66.56000 443.011
66.60000 397.316
66.64000 371.416
66.68000 367.571
66.72000 358.212
66.76000 363.989
66.80000 369.807
66.84000 368.369
66.88000 389.219
66.92000 387.836
66.96000 417.531
67.00000 416.181
67.04000 407.231
67.08000 419.990
67.12000 417.175
67.16000 429.305
67.20000 433.539
67.24000 445.496
67.28000 465.831
67.32000 482.107
67.36000 465.506
67.40000 472.663
67.44000 495.818
67.48000 512.056
67.52000 500.301
67.56000 509.093
67.60000 497.044
67.64000 512.938
67.68000 525.533
67.72000 565.520
67.76000 558.509
67.80000 574.814
67.84000 603.249
67.88000 614.870
67.92000 607.362
67.96000 645.121
68.00000 638.914
68.04000 637.740
68.08000 669.536
68.12000 692.882
68.16000 700.086
68.20000 721.948
68.24000 764.551
68.28000 773.813
68.32000 795.461
68.36000 824.104
68.40000 859.104
68.44000 896.325
68.48000 957.383
68.52000 1028.933
68.56000 1129.176
68.60000 1302.410
68.64000 1555.825
68.68000 1899.533
68.72000 2276.272
68.76000 2587.406
68.80000 3155.382
68.84000 4016.979
68.88000 5629.724
68.92000 10762.710
68.96000 25257.354
69.00000 52350.379
69.04000 79309.672
69.08000 92125.938
69.12000 96049.953
69.16000 99691.391
69.20000 96994.281
69.24000 79772.977
69.28000 61954.246
69.32000 51308.523
69.36000 45768.895
69.40000 36261.023
69.44000 21524.572
69.48000 10072.632
69.52000 4650.195
69.56000 2803.115
69.60000 2081.666
69.64000 1744.221
69.68000 1457.756
69.72000 1323.855
69.76000 1194.543
69.80000 1127.495
69.84000 1028.518
69.88000 958.019
69.92000 906.845
69.96000 887.324
70.00000 851.653