File: XRD/XRD/22-09-2025 Dep 2/XY Data/BTO_Mapping_Theta2Theta_22-09-2025_001_31_-31-174_39-092.xy
20.00000 569.820
20.04000 574.054
20.08000 578.054
20.12000 553.961
20.16000 574.763
20.20000 564.809
20.24000 552.419
20.28000 552.637
20.32000 556.232
20.36000 552.520
20.40000 532.539
20.44000 557.496
20.48000 545.463
20.52000 522.687
20.56000 544.078
20.60000 550.451
20.64000 547.800
20.68000 568.599
20.72000 554.346
20.76000 540.063
20.80000 551.871
20.84000 552.359
20.88000 533.364
20.92000 526.581
20.96000 545.652
21.00000 528.509
21.04000 529.866
21.08000 532.780
21.12000 528.956
21.16000 521.869
21.20000 533.076
21.24000 529.063
21.28000 540.503
21.32000 534.145
21.36000 526.243
21.40000 546.925
21.44000 515.460
21.48000 527.260
21.52000 534.891
21.56000 554.706
21.60000 535.241
21.64000 531.711
21.68000 532.453
21.72000 515.646
21.76000 525.691
21.80000 530.907
21.84000 539.221
21.88000 535.787
21.92000 540.953
21.96000 516.134
22.00000 522.429
22.04000 525.122
22.08000 507.355
22.12000 509.299
22.16000 521.981
22.20000 543.577
22.24000 528.857
22.28000 539.679
22.32000 507.936
22.36000 516.876
22.40000 522.496
22.44000 514.266
22.48000 521.544
22.52000 532.073
22.56000 507.513
22.60000 519.228
22.64000 500.748
22.68000 498.077
22.72000 521.669
22.76000 503.743
22.80000 507.444
22.84000 501.892
22.88000 513.671
22.92000 492.970
22.96000 485.154
23.00000 503.518
23.04000 499.579
23.08000 510.593
23.12000 525.897
23.16000 492.785
23.20000 500.979
23.24000 499.779
23.28000 495.750
23.32000 500.518
23.36000 519.967
23.40000 515.798
23.44000 493.281
23.48000 494.502
23.52000 503.171
23.56000 496.477
23.60000 490.504
23.64000 496.413
23.68000 487.078
23.72000 481.211
23.76000 478.274
23.80000 484.641
23.84000 460.625
23.88000 473.411
23.92000 473.803
23.96000 483.410
24.00000 483.305
24.04000 494.232
24.08000 500.449
24.12000 500.280
24.16000 470.078
24.20000 470.579
24.24000 483.035
24.28000 465.285
24.32000 484.221
24.36000 494.085
24.40000 497.515
24.44000 469.090
24.48000 500.575
24.52000 456.609
24.56000 466.371
24.60000 463.712
24.64000 484.657
24.68000 451.214
24.72000 484.794
24.76000 460.318
24.80000 482.973
24.84000 473.166
24.88000 470.978
24.92000 488.163
24.96000 461.623
25.00000 475.429
25.04000 477.565
25.08000 464.542
25.12000 457.786
25.16000 471.333
25.20000 458.080
25.24000 466.388
25.28000 459.658
25.32000 463.943
25.36000 451.439
25.40000 465.229
25.44000 453.713
25.48000 450.493
25.52000 447.802
25.56000 446.713
25.60000 471.196
25.64000 439.461
25.68000 454.025
25.72000 447.024
25.76000 452.905
25.80000 462.661
25.84000 453.922
25.88000 437.283
25.92000 455.200
25.96000 456.797
26.00000 455.859
26.04000 452.084
26.08000 457.219
26.12000 429.069
26.16000 450.943
26.20000 426.404
26.24000 442.740
26.28000 436.039
26.32000 438.945
26.36000 424.679
26.40000 452.057
26.44000 438.330
26.48000 417.111
26.52000 442.259
26.56000 445.351
26.60000 433.233
26.64000 420.856
26.68000 426.928
26.72000 427.423
26.76000 441.069
26.80000 441.054
26.84000 433.599
26.88000 432.999
26.92000 421.016
26.96000 429.497
27.00000 426.536
27.04000 437.508
27.08000 431.396
27.12000 408.481
27.16000 413.554
27.20000 437.164
27.24000 427.434
27.28000 414.264
27.32000 417.883
27.36000 433.292
27.40000 421.998
27.44000 424.340
27.48000 418.489
27.52000 428.370
27.56000 446.483
27.60000 423.280
27.64000 409.925
27.68000 410.225
27.72000 424.724
27.76000 401.604
27.80000 405.879
27.84000 397.864
27.88000 425.129
27.92000 421.150
27.96000 417.208
28.00000 410.231
28.04000 427.010
28.08000 416.670
28.12000 396.697
28.16000 399.620
28.20000 405.183
28.24000 396.882
28.28000 387.674
28.32000 400.441
28.36000 407.880
28.40000 396.462
28.44000 405.351
28.48000 415.547
28.52000 394.744
28.56000 410.830
28.60000 384.250
28.64000 400.655
28.68000 397.780
28.72000 393.064
28.76000 399.014
28.80000 398.802
28.84000 396.741
28.88000 386.435
28.92000 399.206
28.96000 410.753
29.00000 418.142
29.04000 397.978
29.08000 398.713
29.12000 388.522
29.16000 386.319
29.20000 390.303
29.24000 390.405
29.28000 397.266
29.32000 390.455
29.36000 376.377
29.40000 371.721
29.44000 388.618
29.48000 391.436
29.52000 381.209
29.56000 389.133
29.60000 372.519
29.64000 380.147
29.68000 385.662
29.72000 401.130
29.76000 386.510
29.80000 388.473
29.84000 392.042
29.88000 376.633
29.92000 400.540
29.96000 383.209
30.00000 373.811
30.04000 367.555
30.08000 376.483
30.12000 375.389
30.16000 369.968
30.20000 372.679
30.24000 368.511
30.28000 381.559
30.32000 376.784
30.36000 343.954
30.40000 359.665
30.44000 353.437
30.48000 372.470
30.52000 370.470
30.56000 370.243
30.60000 361.108
30.64000 372.135
30.68000 352.233
30.72000 358.315
30.76000 385.819
30.80000 382.620
30.84000 376.675
30.88000 354.781
30.92000 350.254
30.96000 383.223
31.00000 373.666
31.04000 354.356
31.08000 366.056
31.12000 371.657
31.16000 366.992
31.20000 365.323
31.24000 358.924
31.28000 343.244
31.32000 363.565
31.36000 375.404
31.40000 349.656
31.44000 350.656
31.48000 349.131
31.52000 356.390
31.56000 363.140
31.60000 353.558
31.64000 334.313
31.68000 351.926
31.72000 347.875
31.76000 356.071
31.80000 351.526
31.84000 357.370
31.88000 343.409
31.92000 351.230
31.96000 356.541
32.00000 339.125
32.04000 337.146
32.08000 332.096
32.12000 352.637
32.16000 349.807
32.20000 320.340
32.24000 344.137
32.28000 338.092
32.32000 330.402
32.36000 337.254
32.40000 350.663
32.44000 338.342
32.48000 359.890
32.52000 345.790
32.56000 332.299
32.60000 333.783
32.64000 349.349
32.68000 333.463
32.72000 344.980
32.76000 334.640
32.80000 329.749
32.84000 314.120
32.88000 339.594
32.92000 341.542
32.96000 326.812
33.00000 335.436
33.04000 348.582
33.08000 319.981
33.12000 334.172
33.16000 347.912
33.20000 319.676
33.24000 327.845
33.28000 324.202
33.32000 329.911
33.36000 314.336
33.40000 318.079
33.44000 322.623
33.48000 330.008
33.52000 334.203
33.56000 333.321
33.60000 332.453
33.64000 337.575
33.68000 305.191
33.72000 327.471
33.76000 321.278
33.80000 324.839
33.84000 323.293
33.88000 323.312
33.92000 325.892
33.96000 329.509
34.00000 331.605
34.04000 315.865
34.08000 317.517
34.12000 315.646
34.16000 310.463
34.20000 311.077
34.24000 292.924
34.28000 306.123
34.32000 317.287
34.36000 302.886
34.40000 320.235
34.44000 298.569
34.48000 319.123
34.52000 307.986
34.56000 314.768
34.60000 307.282
34.64000 312.799
34.68000 314.909
34.72000 304.681
34.76000 300.760
34.80000 298.531
34.84000 303.303
34.88000 304.319
34.92000 297.521
34.96000 308.256
35.00000 304.514
35.04000 297.534
35.08000 296.726
35.12000 295.749
35.16000 305.079
35.20000 304.464
35.24000 306.068
35.28000 293.981
35.32000 295.932
35.36000 303.967
35.40000 288.857
35.44000 298.745
35.48000 286.569
35.52000 312.854
35.56000 293.741
35.60000 295.770
35.64000 293.599
35.68000 280.331
35.72000 291.666
35.76000 296.617
35.80000 291.573
35.84000 296.270
35.88000 280.735
35.92000 288.779
35.96000 299.223
36.00000 287.193
36.04000 282.289
36.08000 299.704
36.12000 281.374
36.16000 286.942
36.20000 294.565
36.24000 291.522
36.28000 283.438
36.32000 307.530
36.36000 284.562
36.40000 269.432
36.44000 286.492
36.48000 286.687
36.52000 278.009
36.56000 286.631
36.60000 290.779
36.64000 285.181
36.68000 272.234
36.72000 286.482
36.76000 294.323
36.80000 281.731
36.84000 275.845
36.88000 274.843
36.92000 280.607
36.96000 284.861
37.00000 280.955
37.04000 279.146
37.08000 280.480
37.12000 273.355
37.16000 270.529
37.20000 267.427
37.24000 308.787
37.28000 269.335
37.32000 285.064
37.36000 271.058
37.40000 273.347
37.44000 262.392
37.48000 279.999
37.52000 264.866
37.56000 268.868
37.60000 270.405
37.64000 265.064
37.68000 268.318
37.72000 274.290
37.76000 268.262
37.80000 259.687
37.84000 261.004
37.88000 270.025
37.92000 259.373
37.96000 262.447
38.00000 276.315
38.04000 267.979
38.08000 259.079
38.12000 274.118
38.16000 282.825
38.20000 261.006
38.24000 258.360
38.28000 248.974
38.32000 273.766
38.36000 259.350
38.40000 254.782
38.44000 259.147
38.48000 256.630
38.52000 254.650
38.56000 257.825
38.60000 254.680
38.64000 268.737
38.68000 267.858
38.72000 257.356
38.76000 268.082
38.80000 243.297
38.84000 258.103
38.88000 243.086
38.92000 242.635
38.96000 241.779
39.00000 256.596
39.04000 263.824
39.08000 260.778
39.12000 239.496
39.16000 243.917
39.20000 248.313
39.24000 262.342
39.28000 243.863
39.32000 262.725
39.36000 249.211
39.40000 247.413
39.44000 245.379
39.48000 247.025
39.52000 244.531
39.56000 244.575
39.60000 246.072
39.64000 249.800
39.68000 252.424
39.72000 252.142
39.76000 249.432
39.80000 250.532
39.84000 237.317
39.88000 228.552
39.92000 256.694
39.96000 231.515
40.00000 250.690
40.04000 252.145
40.08000 248.829
40.12000 239.936
40.16000 230.369
40.20000 228.383
40.24000 229.562
40.28000 226.094
40.32000 236.975
40.36000 237.205
40.40000 231.638
40.44000 250.521
40.48000 225.207
40.52000 237.041
40.56000 240.109
40.60000 226.991
40.64000 240.431
40.68000 245.989
40.72000 224.805
40.76000 226.260
40.80000 233.813
40.84000 236.420
40.88000 254.602
40.92000 219.816
40.96000 228.851
41.00000 228.265
41.04000 230.493
41.08000 242.805
41.12000 234.933
41.16000 223.475
41.20000 239.709
41.24000 231.404
41.28000 224.641
41.32000 216.878
41.36000 233.529
41.40000 227.626
41.44000 220.944
41.48000 231.432
41.52000 212.545
41.56000 224.294
41.60000 220.340
41.64000 228.196
41.68000 216.083
41.72000 224.186
41.76000 221.274
41.80000 228.468
41.84000 222.489
41.88000 232.924
41.92000 227.001
41.96000 221.063
42.00000 216.930
42.04000 202.485
42.08000 227.026
42.12000 229.273
42.16000 227.841
42.20000 227.060
42.24000 221.394
42.28000 218.549
42.32000 206.774
42.36000 213.872
42.40000 217.870
42.44000 213.975
42.48000 217.706
42.52000 235.112
42.56000 230.144
42.60000 213.136
42.64000 222.192
42.68000 212.109
42.72000 216.424
42.76000 229.614
42.80000 213.475
42.84000 220.664
42.88000 213.531
42.92000 218.162
42.96000 220.346
43.00000 221.027
43.04000 208.239
43.08000 234.169
43.12000 219.590
43.16000 207.933
43.20000 212.312
43.24000 218.145
43.28000 209.809
43.32000 213.076
43.36000 205.760
43.40000 216.384
43.44000 193.246
43.48000 211.847
43.52000 212.371
43.56000 210.713
43.60000 219.896
43.64000 211.254
43.68000 217.547
43.72000 206.276
43.76000 198.294
43.80000 202.154
43.84000 204.572
43.88000 208.435
43.92000 207.872
43.96000 203.659
44.00000 210.260
44.04000 209.930
44.08000 217.368
44.12000 202.560
44.16000 215.627
44.20000 219.872
44.24000 201.458
44.28000 206.657
44.32000 203.699
44.36000 194.654
44.40000 213.130
44.44000 199.632
44.48000 201.306
44.52000 198.319
44.56000 198.467
44.60000 199.148
44.64000 184.168
44.68000 190.607
44.72000 202.372
44.76000 194.408
44.80000 206.305
44.84000 202.149
44.88000 206.040
44.92000 201.189
44.96000 195.125
45.00000 194.065
45.04000 198.078
45.08000 182.618
45.12000 197.703
45.16000 187.050
45.20000 194.160
45.24000 205.363
45.28000 202.754
45.32000 187.228
45.36000 185.702
45.40000 187.826
45.44000 206.875
45.48000 200.233
45.52000 191.959
45.56000 185.355
45.60000 185.983
45.64000 193.949
45.68000 182.656
45.72000 186.429
45.76000 192.116
45.80000 194.412
45.84000 190.569
45.88000 191.736
45.92000 193.837
45.96000 198.630
46.00000 193.819
46.04000 194.000
46.08000 187.021
46.12000 196.741
46.16000 194.012
46.20000 200.461
46.24000 190.603
46.28000 189.884
46.32000 188.916
46.36000 186.618
46.40000 180.374
46.44000 187.094
46.48000 182.875
46.52000 188.756
46.56000 188.920
46.60000 182.377
46.64000 169.992
46.68000 186.532
46.72000 196.367
46.76000 180.430
46.80000 186.249
46.84000 183.331
46.88000 193.611
46.92000 187.375
46.96000 179.580
47.00000 181.239
47.04000 179.490
47.08000 182.487
47.12000 184.785
47.16000 192.185
47.20000 176.377
47.24000 180.184
47.28000 187.970
47.32000 182.430
47.36000 171.979
47.40000 181.867
47.44000 177.449
47.48000 176.499
47.52000 177.995
47.56000 179.432
47.60000 174.381
47.64000 169.081
47.68000 199.754
47.72000 183.736
47.76000 188.740
47.80000 177.293
47.84000 182.888
47.88000 173.975
47.92000 190.674
47.96000 178.962
48.00000 174.722
48.04000 192.424
48.08000 185.798
48.12000 174.884
48.16000 176.630
48.20000 183.125
48.24000 186.825
48.28000 185.482
48.32000 181.150
48.36000 176.183
48.40000 173.000
48.44000 181.224
48.48000 180.262
48.52000 189.484
48.56000 178.486
48.60000 174.260
48.64000 186.321
48.68000 182.055
48.72000 181.081
48.76000 180.885
48.80000 182.094
48.84000 179.454
48.88000 183.435
48.92000 178.706
48.96000 171.884
49.00000 178.801
49.04000 184.132
49.08000 178.311
49.12000 178.371
49.16000 185.664
49.20000 177.375
49.24000 181.170
49.28000 172.104
49.32000 176.584
49.36000 166.365
49.40000 174.063
49.44000 185.120
49.48000 180.100
49.52000 176.422
49.56000 185.113
49.60000 180.265
49.64000 170.225
49.68000 167.840
49.72000 171.672
49.76000 166.701
49.80000 173.239
49.84000 172.343
49.88000 179.075
49.92000 179.247
49.96000 174.196
50.00000 175.572
50.04000 177.109
50.08000 177.354
50.12000 172.807
50.16000 182.727
50.20000 178.102
50.24000 182.679
50.28000 174.190
50.32000 170.227
50.36000 180.349
50.40000 167.559
50.44000 181.828
50.48000 167.104
50.52000 183.438
50.56000 177.812
50.60000 175.448
50.64000 184.940
50.68000 173.792
50.72000 162.614
50.76000 170.206
50.80000 171.164
50.84000 177.352
50.88000 180.113
50.92000 173.436
50.96000 174.790
51.00000 164.869
51.04000 175.576
51.08000 178.474
51.12000 173.720
51.16000 180.438
51.20000 172.893
51.24000 180.589
51.28000 164.944
51.32000 193.977
51.36000 189.940
51.40000 170.336
51.44000 178.323
51.48000 174.010
51.52000 174.689
51.56000 180.612
51.60000 180.505
51.64000 170.375
51.68000 176.384
51.72000 175.258
51.76000 176.948
51.80000 174.627
51.84000 173.728
51.88000 189.127
51.92000 177.251
51.96000 172.064
52.00000 179.718
52.04000 173.485
52.08000 176.846
52.12000 171.961
52.16000 165.251
52.20000 173.843
52.24000 173.731
52.28000 184.018
52.32000 180.848
52.36000 172.006
52.40000 161.202
52.44000 177.195
52.48000 182.154
52.52000 177.799
52.56000 183.295
52.60000 173.873
52.64000 182.672
52.68000 168.615
52.72000 176.878
52.76000 172.840
52.80000 169.853
52.84000 165.589
52.88000 170.640
52.92000 171.100
52.96000 175.437
53.00000 185.040
53.04000 180.995
53.08000 176.868
53.12000 179.648
53.16000 160.630
53.20000 174.969
53.24000 173.814
53.28000 175.524
53.32000 167.876
53.36000 176.491
53.40000 174.663
53.44000 184.582
53.48000 181.361
53.52000 174.308
53.56000 176.803
53.60000 175.507
53.64000 174.787
53.68000 177.690
53.72000 173.675
53.76000 174.490
53.80000 174.577
53.84000 176.862
53.88000 180.829
53.92000 169.360
53.96000 177.147
54.00000 186.181
54.04000 182.087
54.08000 183.470
54.12000 186.354
54.16000 175.082
54.20000 184.839
54.24000 188.129
54.28000 174.419
54.32000 173.864
54.36000 180.708
54.40000 182.186
54.44000 172.331
54.48000 182.497
54.52000 187.946
54.56000 182.839
54.60000 180.192
54.64000 185.625
54.68000 181.651
54.72000 166.126
54.76000 179.867
54.80000 185.603
54.84000 183.873
54.88000 172.657
54.92000 179.078
54.96000 184.042
55.00000 186.783
55.04000 185.436
55.08000 191.928
55.12000 190.599
55.16000 188.447
55.20000 181.972
55.24000 183.894
55.28000 189.446
55.32000 178.049
55.36000 195.898
55.40000 173.515
55.44000 181.744
55.48000 185.815
55.52000 185.329
55.56000 190.450
55.60000 190.069
55.64000 186.664
55.68000 170.154
55.72000 191.128
55.76000 181.555
55.80000 182.266
55.84000 195.821
55.88000 190.911
55.92000 195.364
55.96000 190.080
56.00000 187.681
56.04000 189.846
56.08000 186.886
56.12000 201.656
56.16000 189.726
56.20000 198.748
56.24000 187.416
56.28000 191.690
56.32000 199.067
56.36000 199.376
56.40000 191.631
56.44000 195.047
56.48000 193.709
56.52000 194.401
56.56000 183.522
56.60000 180.003
56.64000 194.285
56.68000 191.366
56.72000 189.647
56.76000 193.305
56.80000 197.345
56.84000 188.999
56.88000 200.809
56.92000 197.073
56.96000 205.941
57.00000 180.571
57.04000 189.204
57.08000 190.668
57.12000 196.531
57.16000 195.201
57.20000 195.331
57.24000 190.584
57.28000 185.363
57.32000 197.337
57.36000 200.966
57.40000 203.662
57.44000 198.847
57.48000 205.175
57.52000 200.311
57.56000 188.786
57.60000 192.960
57.64000 202.035
57.68000 206.817
57.72000 197.971
57.76000 197.239
57.80000 210.700
57.84000 193.204
57.88000 206.357
57.92000 189.741
57.96000 193.290
58.00000 191.569
58.04000 203.670
58.08000 204.076
58.12000 197.998
58.16000 191.254
58.20000 200.990
58.24000 202.146
58.28000 214.825
58.32000 204.910
58.36000 215.359
58.40000 212.355
58.44000 206.879
58.48000 213.057
58.52000 208.952
58.56000 219.388
58.60000 218.521
58.64000 228.519
58.68000 206.148
58.72000 215.933
58.76000 203.986
58.80000 192.302
58.84000 211.854
58.88000 213.737
58.92000 208.410
58.96000 212.195
59.00000 211.392
59.04000 208.158
59.08000 210.275
59.12000 206.218
59.16000 210.420
59.20000 219.640
59.24000 205.363
59.28000 218.585
59.32000 221.832
59.36000 208.771
59.40000 223.376
59.44000 222.456
59.48000 218.477
59.52000 206.660
59.56000 212.737
59.60000 208.041
59.64000 212.484
59.68000 221.238
59.72000 220.768
59.76000 226.797
59.80000 213.015
59.84000 218.006
59.88000 219.413
59.92000 213.593
59.96000 223.094
60.00000 212.746
60.04000 222.605
60.08000 213.741
60.12000 227.407
60.16000 221.138
60.20000 230.904
60.24000 216.383
60.28000 219.177
60.32000 221.734
60.36000 238.922
60.40000 226.950
60.44000 214.445
60.48000 212.823
60.52000 238.762
60.56000 218.403
60.60000 226.656
60.64000 230.643
60.68000 232.315
60.72000 233.124
60.76000 230.773
60.80000 221.534
60.84000 224.983
60.88000 223.366
60.92000 226.295
60.96000 218.763
61.00000 227.039
61.04000 228.509
61.08000 232.098
61.12000 235.879
61.16000 231.228
61.20000 223.484
61.24000 230.226
61.28000 226.876
61.32000 239.902
61.36000 223.362
61.40000 238.727
61.44000 242.244
61.48000 238.593
61.52000 245.007
61.56000 242.202
61.60000 241.964
61.64000 232.976
61.68000 240.962
61.72000 236.813
61.76000 239.072
61.80000 243.222
61.84000 243.111
61.88000 233.700
61.92000 241.828
61.96000 241.480
62.00000 241.808
62.04000 236.129
62.08000 237.115
62.12000 245.085
62.16000 240.985
62.20000 252.567
62.24000 251.155
62.28000 242.077
62.32000 261.492
62.36000 243.945
62.40000 253.457
62.44000 238.457
62.48000 241.147
62.52000 236.819
62.56000 248.427
62.60000 247.993
62.64000 253.566
62.68000 251.662
62.72000 243.491
62.76000 255.456
62.80000 256.031
62.84000 239.894
62.88000 256.905
62.92000 256.370
62.96000 248.318
63.00000 241.918
63.04000 246.563
63.08000 243.587
63.12000 243.780
63.16000 256.342
63.20000 252.003
63.24000 256.741
63.28000 268.460
63.32000 264.501
63.36000 264.490
63.40000 255.162
63.44000 257.091
63.48000 257.555
63.52000 254.645
63.56000 276.490
63.60000 262.779
63.64000 255.196
63.68000 258.246
63.72000 260.200
63.76000 264.192
63.80000 279.265
63.84000 257.650
63.88000 263.248
63.92000 275.539
63.96000 278.807
64.00000 273.487
64.04000 271.040
64.08000 281.438
64.12000 288.548
64.16000 285.351
64.20000 275.333
64.24000 288.749
64.28000 293.845
64.32000 308.875
64.36000 300.657
64.40000 291.460
64.44000 307.096
64.48000 301.501
64.52000 292.659
64.56000 308.257
64.60000 330.026
64.64000 306.471
64.68000 294.279
64.72000 310.986
64.76000 320.008
64.80000 300.376
64.84000 313.337
64.88000 307.268
64.92000 281.344
64.96000 302.664
65.00000 300.761
65.04000 296.705
65.08000 302.928
65.12000 315.277
65.16000 285.403
65.20000 288.688
65.24000 280.424
65.28000 292.176
65.32000 293.002
65.36000 294.862
65.40000 298.405
65.44000 293.119
65.48000 311.651
65.52000 297.550
65.56000 300.867
65.60000 294.420
65.64000 282.185
65.68000 298.601
65.72000 298.341
65.76000 292.896
65.80000 302.338
65.84000 315.137
65.88000 327.793
65.92000 328.628
65.96000 340.743
66.00000 316.243
66.04000 313.309
66.08000 308.953
66.12000 302.816
66.16000 307.317
66.20000 319.986
66.24000 302.653
66.28000 304.588
66.32000 312.983
66.36000 315.022
66.40000 307.769
66.44000 305.022
66.48000 308.818
66.52000 310.629
66.56000 319.613
66.60000 301.670
66.64000 298.941
66.68000 323.965
66.72000 323.799
66.76000 314.644
66.80000 304.237
66.84000 313.968
66.88000 330.384
66.92000 325.805
66.96000 323.590
67.00000 315.531
67.04000 318.924
67.08000 316.815
67.12000 327.447
67.16000 328.169
67.20000 331.599
67.24000 328.931
67.28000 320.366
67.32000 331.031
67.36000 340.013
67.40000 320.444
67.44000 336.986
67.48000 334.256
67.52000 325.974
67.56000 346.001
67.60000 343.929
67.64000 352.864
67.68000 342.259
67.72000 356.778
67.76000 341.437
67.80000 351.333
67.84000 362.298
67.88000 348.279
67.92000 353.351
67.96000 347.568
68.00000 331.131
68.04000 357.658
68.08000 354.163
68.12000 338.387
68.16000 337.343
68.20000 349.832
68.24000 351.338
68.28000 351.757
68.32000 360.994
68.36000 347.397
68.40000 365.224
68.44000 347.349
68.48000 363.216
68.52000 355.123
68.56000 373.161
68.60000 373.847
68.64000 372.822
68.68000 373.482
68.72000 391.068
68.76000 392.882
68.80000 398.530
68.84000 416.658
68.88000 471.536
68.92000 518.279
68.96000 619.769
69.00000 842.338
69.04000 1282.502
69.08000 1849.460
69.12000 2161.541
69.16000 2313.100
69.20000 2401.293
69.24000 2399.567
69.28000 2058.720
69.32000 1534.283
69.36000 1378.305
69.40000 1337.415
69.44000 1158.469
69.48000 864.341
69.52000 522.755
69.56000 437.380
69.60000 439.130
69.64000 404.612
69.68000 416.066
69.72000 405.050
69.76000 395.876
69.80000 406.354
69.84000 394.421
69.88000 401.006
69.92000 389.178
69.96000 409.500
70.00000 388.817