File: XRD/XRD/30-09-2025 Dep 1/XY Data/BTO_Mapping_Theta2Theta_30-09-2025_001_29_-32-361_23-511.xy
20.00000 541.767
20.04000 553.476
20.08000 564.618
20.12000 558.900
20.16000 577.009
20.20000 582.055
20.24000 571.991
20.28000 548.232
20.32000 557.941
20.36000 571.090
20.40000 570.727
20.44000 566.304
20.48000 547.513
20.52000 550.938
20.56000 572.300
20.60000 582.464
20.64000 561.078
20.68000 551.696
20.72000 562.898
20.76000 551.261
20.80000 542.999
20.84000 570.239
20.88000 544.395
20.92000 557.871
20.96000 570.218
21.00000 558.333
21.04000 534.444
21.08000 543.642
21.12000 559.571
21.16000 549.943
21.20000 527.990
21.24000 552.059
21.28000 551.181
21.32000 554.041
21.36000 558.625
21.40000 548.229
21.44000 532.313
21.48000 565.151
21.52000 548.983
21.56000 546.124
21.60000 548.044
21.64000 543.659
21.68000 558.733
21.72000 553.366
21.76000 568.912
21.80000 585.486
21.84000 587.454
21.88000 613.255
21.92000 631.172
21.96000 653.607
22.00000 652.926
22.04000 657.920
22.08000 693.570
22.12000 690.015
22.16000 678.723
22.20000 673.636
22.24000 639.341
22.28000 604.594
22.32000 596.871
22.36000 581.217
22.40000 556.124
22.44000 559.569
22.48000 535.465
22.52000 523.786
22.56000 544.076
22.60000 557.130
22.64000 518.306
22.68000 527.446
22.72000 538.603
22.76000 527.738
22.80000 525.231
22.84000 521.797
22.88000 515.309
22.92000 514.449
22.96000 516.467
23.00000 523.084
23.04000 529.293
23.08000 504.763
23.12000 514.111
23.16000 516.235
23.20000 511.878
23.24000 527.483
23.28000 504.204
23.32000 518.365
23.36000 517.238
23.40000 511.150
23.44000 527.485
23.48000 515.133
23.52000 521.010
23.56000 515.620
23.60000 508.174
23.64000 527.207
23.68000 516.632
23.72000 512.125
23.76000 538.357
23.80000 544.486
23.84000 538.339
23.88000 524.617
23.92000 542.311
23.96000 539.698
24.00000 544.133
24.04000 542.644
24.08000 549.189
24.12000 559.509
24.16000 531.359
24.20000 496.208
24.24000 503.486
24.28000 508.602
24.32000 501.340
24.36000 502.551
24.40000 506.965
24.44000 487.605
24.48000 481.465
24.52000 504.790
24.56000 484.556
24.60000 486.709
24.64000 478.308
24.68000 501.821
24.72000 472.177
24.76000 487.506
24.80000 471.485
24.84000 489.944
24.88000 489.474
24.92000 477.664
24.96000 473.754
25.00000 476.914
25.04000 479.901
25.08000 478.634
25.12000 490.765
25.16000 491.667
25.20000 476.878
25.24000 474.347
25.28000 482.372
25.32000 473.466
25.36000 461.157
25.40000 472.396
25.44000 464.103
25.48000 477.312
25.52000 480.693
25.56000 464.028
25.60000 454.350
25.64000 453.645
25.68000 466.206
25.72000 470.304
25.76000 456.023
25.80000 449.681
25.84000 468.336
25.88000 460.714
25.92000 472.856
25.96000 456.430
26.00000 462.324
26.04000 463.927
26.08000 467.274
26.12000 482.531
26.16000 457.862
26.20000 476.988
26.24000 453.790
26.28000 447.678
26.32000 445.378
26.36000 462.466
26.40000 461.473
26.44000 442.715
26.48000 462.874
26.52000 463.157
26.56000 450.652
26.60000 442.577
26.64000 455.047
26.68000 454.594
26.72000 444.243
26.76000 449.055
26.80000 452.461
26.84000 452.182
26.88000 453.343
26.92000 451.882
26.96000 444.304
27.00000 439.449
27.04000 463.080
27.08000 435.057
27.12000 432.956
27.16000 442.523
27.20000 462.436
27.24000 446.077
27.28000 446.784
27.32000 439.598
27.36000 439.559
27.40000 451.432
27.44000 441.083
27.48000 427.781
27.52000 443.586
27.56000 443.643
27.60000 431.662
27.64000 446.901
27.68000 437.599
27.72000 446.454
27.76000 436.385
27.80000 450.241
27.84000 428.911
27.88000 421.326
27.92000 440.480
27.96000 416.694
28.00000 426.801
28.04000 423.716
28.08000 422.335
28.12000 433.840
28.16000 440.749
28.20000 437.046
28.24000 435.986
28.28000 427.114
28.32000 429.333
28.36000 431.125
28.40000 442.054
28.44000 430.855
28.48000 429.877
28.52000 429.537
28.56000 442.717
28.60000 416.497
28.64000 423.073
28.68000 427.508
28.72000 407.257
28.76000 415.326
28.80000 403.613
28.84000 413.527
28.88000 410.285
28.92000 429.722
28.96000 409.455
29.00000 410.314
29.04000 424.470
29.08000 419.110
29.12000 426.976
29.16000 412.450
29.20000 419.511
29.24000 398.171
29.28000 411.304
29.32000 409.297
29.36000 407.687
29.40000 418.099
29.44000 407.293
29.48000 400.739
29.52000 419.862
29.56000 426.588
29.60000 417.240
29.64000 409.377
29.68000 397.615
29.72000 415.536
29.76000 416.990
29.80000 409.260
29.84000 389.782
29.88000 419.729
29.92000 414.705
29.96000 413.656
30.00000 410.121
30.04000 426.033
30.08000 407.408
30.12000 426.098
30.16000 428.367
30.20000 419.539
30.24000 413.963
30.28000 387.551
30.32000 408.365
30.36000 429.879
30.40000 404.896
30.44000 401.600
30.48000 403.211
30.52000 422.606
30.56000 408.497
30.60000 415.977
30.64000 422.610
30.68000 441.267
30.72000 428.894
30.76000 427.397
30.80000 426.706
30.84000 441.129
30.88000 437.761
30.92000 442.616
30.96000 456.646
31.00000 492.754
31.04000 512.942
31.08000 546.321
31.12000 608.652
31.16000 724.755
31.20000 862.657
31.24000 1053.711
31.28000 1281.560
31.32000 1509.712
31.36000 1671.727
31.40000 1775.960
31.44000 1749.540
31.48000 1634.855
31.52000 1425.839
31.56000 1212.255
31.60000 979.678
31.64000 767.608
31.68000 654.483
31.72000 567.476
31.76000 520.996
31.80000 453.724
31.84000 445.840
31.88000 430.519
31.92000 417.055
31.96000 418.822
32.00000 416.626
32.04000 412.444
32.08000 408.318
32.12000 418.419
32.16000 401.410
32.20000 393.365
32.24000 401.119
32.28000 385.650
32.32000 385.778
32.36000 402.984
32.40000 373.053
32.44000 386.453
32.48000 399.400
32.52000 381.930
32.56000 374.014
32.60000 384.602
32.64000 355.378
32.68000 370.339
32.72000 367.024
32.76000 373.489
32.80000 363.431
32.84000 364.496
32.88000 353.987
32.92000 364.562
32.96000 396.141
33.00000 402.076
33.04000 392.657
33.08000 388.412
33.12000 382.370
33.16000 364.769
33.20000 359.624
33.24000 347.440
33.28000 354.219
33.32000 363.289
33.36000 353.977
33.40000 343.960
33.44000 352.882
33.48000 356.878
33.52000 359.426
33.56000 350.400
33.60000 337.624
33.64000 344.954
33.68000 345.634
33.72000 333.556
33.76000 354.384
33.80000 363.857
33.84000 355.271
33.88000 359.584
33.92000 350.495
33.96000 340.572
34.00000 363.381
34.04000 352.767
34.08000 344.039
34.12000 354.868
34.16000 368.917
34.20000 349.994
34.24000 376.170
34.28000 351.570
34.32000 360.930
34.36000 373.983
34.40000 350.347
34.44000 356.652
34.48000 361.202
34.52000 379.756
34.56000 348.323
34.60000 373.495
34.64000 356.449
34.68000 352.181
34.72000 343.632
34.76000 330.471
34.80000 328.486
34.84000 341.141
34.88000 338.488
34.92000 331.775
34.96000 329.105
35.00000 330.087
35.04000 323.430
35.08000 330.363
35.12000 328.346
35.16000 327.306
35.20000 312.939
35.24000 330.474
35.28000 331.108
35.32000 319.418
35.36000 318.685
35.40000 311.373
35.44000 311.461
35.48000 326.778
35.52000 320.899
35.56000 317.624
35.60000 317.166
35.64000 317.128
35.68000 315.597
35.72000 308.019
35.76000 317.231
35.80000 311.697
35.84000 304.088
35.88000 303.660
35.92000 309.329
35.96000 307.422
36.00000 305.594
36.04000 299.285
36.08000 319.369
36.12000 310.064
36.16000 309.644
36.20000 296.470
36.24000 314.404
36.28000 302.211
36.32000 303.373
36.36000 298.571
36.40000 310.721
36.44000 298.286
36.48000 309.022
36.52000 295.797
36.56000 295.986
36.60000 303.588
36.64000 319.937
36.68000 301.702
36.72000 298.225
36.76000 294.961
36.80000 290.402
36.84000 299.468
36.88000 294.332
36.92000 298.290
36.96000 299.641
37.00000 301.636
37.04000 293.765
37.08000 299.363
37.12000 304.417
37.16000 296.931
37.20000 293.633
37.24000 300.456
37.28000 293.754
37.32000 295.998
37.36000 287.374
37.40000 277.367
37.44000 280.986
37.48000 296.184
37.52000 290.184
37.56000 293.546
37.60000 293.009
37.64000 287.820
37.68000 294.757
37.72000 278.448
37.76000 311.482
37.80000 278.653
37.84000 286.273
37.88000 301.819
37.92000 288.607
37.96000 289.721
38.00000 283.899
38.04000 285.393
38.08000 294.735
38.12000 291.358
38.16000 283.782
38.20000 296.350
38.24000 305.804
38.28000 319.272
38.32000 282.013
38.36000 320.875
38.40000 326.203
38.44000 350.016
38.48000 392.909
38.52000 441.862
38.56000 505.544
38.60000 611.285
38.64000 694.975
38.68000 804.902
38.72000 907.401
38.76000 947.969
38.80000 939.080
38.84000 893.163
38.88000 789.590
38.92000 685.283
38.96000 573.364
39.00000 462.859
39.04000 398.592
39.08000 338.276
39.12000 330.169
39.16000 298.982
39.20000 307.584
39.24000 294.738
39.28000 280.386
39.32000 279.614
39.36000 277.249
39.40000 286.850
39.44000 281.982
39.48000 277.176
39.52000 269.467
39.56000 268.251
39.60000 273.052
39.64000 284.844
39.68000 270.293
39.72000 272.593
39.76000 273.788
39.80000 268.878
39.84000 263.874
39.88000 290.019
39.92000 269.412
39.96000 260.806
40.00000 261.693
40.04000 259.088
40.08000 273.969
40.12000 249.052
40.16000 251.513
40.20000 263.972
40.24000 252.807
40.28000 260.715
40.32000 262.349
40.36000 262.789
40.40000 253.962
40.44000 245.041
40.48000 254.219
40.52000 262.010
40.56000 260.546
40.60000 265.030
40.64000 248.786
40.68000 253.815
40.72000 251.267
40.76000 252.321
40.80000 247.275
40.84000 265.267
40.88000 248.489
40.92000 251.630
40.96000 247.556
41.00000 241.301
41.04000 247.893
41.08000 255.868
41.12000 261.834
41.16000 246.936
41.20000 244.829
41.24000 258.749
41.28000 256.822
41.32000 243.302
41.36000 256.597
41.40000 256.652
41.44000 246.119
41.48000 245.776
41.52000 238.160
41.56000 242.005
41.60000 236.086
41.64000 251.787
41.68000 252.447
41.72000 240.296
41.76000 236.413
41.80000 235.031
41.84000 234.143
41.88000 231.199
41.92000 232.499
41.96000 247.514
42.00000 243.649
42.04000 228.544
42.08000 245.961
42.12000 241.729
42.16000 236.389
42.20000 242.250
42.24000 240.463
42.28000 248.228
42.32000 250.164
42.36000 243.960
42.40000 245.527
42.44000 243.102
42.48000 229.492
42.52000 244.852
42.56000 245.465
42.60000 244.348
42.64000 227.093
42.68000 248.003
42.72000 243.476
42.76000 235.251
42.80000 244.656
42.84000 234.199
42.88000 238.732
42.92000 225.427
42.96000 226.737
43.00000 233.970
43.04000 220.895
43.08000 240.896
43.12000 231.280
43.16000 231.988
43.20000 233.485
43.24000 239.918
43.28000 230.724
43.32000 224.128
43.36000 230.104
43.40000 217.417
43.44000 220.886
43.48000 220.503
43.52000 221.572
43.56000 219.700
43.60000 239.266
43.64000 220.683
43.68000 227.915
43.72000 234.181
43.76000 227.734
43.80000 230.760
43.84000 217.176
43.88000 234.834
43.92000 226.953
43.96000 219.607
44.00000 222.956
44.04000 222.033
44.08000 226.754
44.12000 217.881
44.16000 227.258
44.20000 214.730
44.24000 208.499
44.28000 227.026
44.32000 234.760
44.36000 221.649
44.40000 219.379
44.44000 239.564
44.48000 236.405
44.52000 234.587
44.56000 233.743
44.60000 236.126
44.64000 220.867
44.68000 250.421
44.72000 227.661
44.76000 253.832
44.80000 261.157
44.84000 271.591
44.88000 269.590
44.92000 299.593
44.96000 294.618
45.00000 302.153
45.04000 326.473
45.08000 341.116
45.12000 356.868
45.16000 348.541
45.20000 331.725
45.24000 316.869
45.28000 308.613
45.32000 302.238
45.36000 275.018
45.40000 269.393
45.44000 255.770
45.48000 254.534
45.52000 247.562
45.56000 254.528
45.60000 226.402
45.64000 229.006
45.68000 239.118
45.72000 222.991
45.76000 212.056
45.80000 210.737
45.84000 208.779
45.88000 234.105
45.92000 211.628
45.96000 198.844
46.00000 203.828
46.04000 207.208
46.08000 204.267
46.12000 209.740
46.16000 204.513
46.20000 193.428
46.24000 215.855
46.28000 202.700
46.32000 204.000
46.36000 202.932
46.40000 215.400
46.44000 207.609
46.48000 199.471
46.52000 215.485
46.56000 203.371
46.60000 206.072
46.64000 200.685
46.68000 205.917
46.72000 201.354
46.76000 201.839
46.80000 212.532
46.84000 192.744
46.88000 201.408
46.92000 196.140
46.96000 198.043
47.00000 205.646
47.04000 199.034
47.08000 198.330
47.12000 190.347
47.16000 196.635
47.20000 185.233
47.24000 195.924
47.28000 196.384
47.32000 189.123
47.36000 197.870
47.40000 195.483
47.44000 191.239
47.48000 196.387
47.52000 193.231
47.56000 195.514
47.60000 187.638
47.64000 189.255
47.68000 184.974
47.72000 190.674
47.76000 207.342
47.80000 194.945
47.84000 187.420
47.88000 179.883
47.92000 172.336
47.96000 176.885
48.00000 180.694
48.04000 187.608
48.08000 181.737
48.12000 181.277
48.16000 177.578
48.20000 183.044
48.24000 182.715
48.28000 187.181
48.32000 190.030
48.36000 181.045
48.40000 190.335
48.44000 180.670
48.48000 188.086
48.52000 177.725
48.56000 186.375
48.60000 192.616
48.64000 192.073
48.68000 188.170
48.72000 181.220
48.76000 177.825
48.80000 186.253
48.84000 186.602
48.88000 181.087
48.92000 175.744
48.96000 183.057
49.00000 187.887
49.04000 176.690
49.08000 178.877
49.12000 181.843
49.16000 176.602
49.20000 184.502
49.24000 178.112
49.28000 182.541
49.32000 183.278
49.36000 187.778
49.40000 194.629
49.44000 177.502
49.48000 187.444
49.52000 181.413
49.56000 178.034
49.60000 172.812
49.64000 180.847
49.68000 187.023
49.72000 178.528
49.76000 168.499
49.80000 177.823
49.84000 174.107
49.88000 178.186
49.92000 188.166
49.96000 168.962
50.00000 174.329
50.04000 181.563
50.08000 182.348
50.12000 177.555
50.16000 166.521
50.20000 169.368
50.24000 179.239
50.28000 181.569
50.32000 177.714
50.36000 183.438
50.40000 188.338
50.44000 203.842
50.48000 184.097
50.52000 196.131
50.56000 198.985
50.60000 211.164
50.64000 210.866
50.68000 229.384
50.72000 227.090
50.76000 225.625
50.80000 207.641
50.84000 203.543
50.88000 207.011
50.92000 194.366
50.96000 188.397
51.00000 181.462
51.04000 182.024
51.08000 174.750
51.12000 170.280
51.16000 174.879
51.20000 171.032
51.24000 168.318
51.28000 165.438
51.32000 160.859
51.36000 169.311
51.40000 159.494
51.44000 164.193
51.48000 170.978
51.52000 158.552
51.56000 153.698
51.60000 162.777
51.64000 161.547
51.68000 163.333
51.72000 164.429
51.76000 171.861
51.80000 157.769
51.84000 156.786
51.88000 165.121
51.92000 168.924
51.96000 163.102
52.00000 161.303
52.04000 169.845
52.08000 173.748
52.12000 153.022
52.16000 153.958
52.20000 160.772
52.24000 158.152
52.28000 156.810
52.32000 165.732
52.36000 160.051
52.40000 160.588
52.44000 163.529
52.48000 151.769
52.52000 152.376
52.56000 159.869
52.60000 147.958
52.64000 161.130
52.68000 161.551
52.72000 165.293
52.76000 162.963
52.80000 155.864
52.84000 160.361
52.88000 170.135
52.92000 160.792
52.96000 158.054
53.00000 164.133
53.04000 146.081
53.08000 157.721
53.12000 153.317
53.16000 167.530
53.20000 166.517
53.24000 164.375
53.28000 159.602
53.32000 167.797
53.36000 164.076
53.40000 154.999
53.44000 145.834
53.48000 165.057
53.52000 171.977
53.56000 159.586
53.60000 159.682
53.64000 152.855
53.68000 161.775
53.72000 162.673
53.76000 157.645
53.80000 162.208
53.84000 152.640
53.88000 160.700
53.92000 169.847
53.96000 156.871
54.00000 154.539
54.04000 171.599
54.08000 162.527
54.12000 163.661
54.16000 152.284
54.20000 154.069
54.24000 157.033
54.28000 148.746
54.32000 154.698
54.36000 160.350
54.40000 161.964
54.44000 167.995
54.48000 160.900
54.52000 153.884
54.56000 150.160
54.60000 155.407
54.64000 151.857
54.68000 159.678
54.72000 163.862
54.76000 153.255
54.80000 150.582
54.84000 151.999
54.88000 158.692
54.92000 163.020
54.96000 151.987
55.00000 149.325
55.04000 153.322
55.08000 140.045
55.12000 163.949
55.16000 170.212
55.20000 156.573
55.24000 171.664
55.28000 173.099
55.32000 166.029
55.36000 159.112
55.40000 171.074
55.44000 177.093
55.48000 171.644
55.52000 189.439
55.56000 195.587
55.60000 214.438
55.64000 233.190
55.68000 259.819
55.72000 302.962
55.76000 318.796
55.80000 385.377
55.84000 430.309
55.88000 478.499
55.92000 533.095
55.96000 559.389
56.00000 552.376
56.04000 550.890
56.08000 498.611
56.12000 474.386
56.16000 398.443
56.20000 350.846
56.24000 307.457
56.28000 286.660
56.32000 240.357
56.36000 217.373
56.40000 189.140
56.44000 186.887
56.48000 186.536
56.52000 178.315
56.56000 172.072
56.60000 164.126
56.64000 166.907
56.68000 155.831
56.72000 153.235
56.76000 146.567
56.80000 158.550
56.84000 160.946
56.88000 154.191
56.92000 155.918
56.96000 157.073
57.00000 144.269
57.04000 140.381
57.08000 151.568
57.12000 149.765
57.16000 145.889
57.20000 152.749
57.24000 149.675
57.28000 151.432
57.32000 139.605
57.36000 151.863
57.40000 141.303
57.44000 145.986
57.48000 152.839
57.52000 146.044
57.56000 128.934
57.60000 147.310
57.64000 152.657
57.68000 146.615
57.72000 149.302
57.76000 147.770
57.80000 155.289
57.84000 145.056
57.88000 143.458
57.92000 137.802
57.96000 135.894
58.00000 142.301
58.04000 141.700
58.08000 142.360
58.12000 141.145
58.16000 150.137
58.20000 142.850
58.24000 141.368
58.28000 146.558
58.32000 153.238
58.36000 138.561
58.40000 144.557
58.44000 149.054
58.48000 147.463
58.52000 146.678
58.56000 142.736
58.60000 136.761
58.64000 129.355
58.68000 145.458
58.72000 139.955
58.76000 140.148
58.80000 140.098
58.84000 135.413
58.88000 139.295
58.92000 146.515
58.96000 127.928
59.00000 138.889
59.04000 149.417
59.08000 130.227
59.12000 132.140
59.16000 140.100
59.20000 138.686
59.24000 133.468
59.28000 141.693
59.32000 132.475
59.36000 144.009
59.40000 141.041
59.44000 127.350
59.48000 137.461
59.52000 131.360
59.56000 136.755
59.60000 129.179
59.64000 138.760
59.68000 129.189
59.72000 135.843
59.76000 135.669
59.80000 127.216
59.84000 138.376
59.88000 137.992
59.92000 125.745
59.96000 126.431
60.00000 137.892
60.04000 135.215
60.08000 127.754
60.12000 126.525
60.16000 137.745
60.20000 130.602
60.24000 128.868
60.28000 148.674
60.32000 133.622
60.36000 131.984
60.40000 132.637
60.44000 136.242
60.48000 151.368
60.52000 130.543
60.56000 140.972
60.60000 139.481
60.64000 137.441
60.68000 123.603
60.72000 130.759
60.76000 133.627
60.80000 142.377
60.84000 133.508
60.88000 138.714
60.92000 137.296
60.96000 135.507
61.00000 121.100
61.04000 130.802
61.08000 131.811
61.12000 133.411
61.16000 142.509
61.20000 135.612
61.24000 136.733
61.28000 141.558
61.32000 139.209
61.36000 141.592
61.40000 140.525
61.44000 134.628
61.48000 137.546
61.52000 144.241
61.56000 157.944
61.60000 204.339
61.64000 223.049
61.68000 248.566
61.72000 253.883
61.76000 250.924
61.80000 217.221
61.84000 206.173
61.88000 166.129
61.92000 140.777
61.96000 146.825
62.00000 144.983
62.04000 132.040
62.08000 147.955
62.12000 132.241
62.16000 131.025
62.20000 142.993
62.24000 131.432
62.28000 147.954
62.32000 139.962
62.36000 131.381
62.40000 138.997
62.44000 137.029
62.48000 151.369
62.52000 145.472
62.56000 130.368
62.60000 138.155
62.64000 141.650
62.68000 145.388
62.72000 144.901
62.76000 151.683
62.80000 149.383
62.84000 145.766
62.88000 152.325
62.92000 133.958
62.96000 143.479
63.00000 142.161
63.04000 141.185
63.08000 141.666
63.12000 143.270
63.16000 147.941
63.20000 150.151
63.24000 149.546
63.28000 137.983
63.32000 144.751
63.36000 140.495
63.40000 145.260
63.44000 142.566
63.48000 146.271
63.52000 145.960
63.56000 154.023
63.60000 145.913
63.64000 147.124
63.68000 142.550
63.72000 154.183
63.76000 153.147
63.80000 155.452
63.84000 144.113
63.88000 158.347
63.92000 149.318
63.96000 154.959
64.00000 159.166
64.04000 162.304
64.08000 159.628
64.12000 153.855
64.16000 147.572
64.20000 169.680
64.24000 167.814
64.28000 164.447
64.32000 154.095
64.36000 168.590
64.40000 152.703
64.44000 167.397
64.48000 164.673
64.52000 160.281
64.56000 157.936
64.60000 152.519
64.64000 165.774
64.68000 170.927
64.72000 166.040
64.76000 168.393
64.80000 167.821
64.84000 166.265
64.88000 169.871
64.92000 176.854
64.96000 184.921
65.00000 177.210
65.04000 175.592
65.08000 187.881
65.12000 190.385
65.16000 182.814
65.20000 199.020
65.24000 213.379
65.28000 217.434
65.32000 227.417
65.36000 229.441
65.40000 251.784
65.44000 260.509
65.48000 272.912
65.52000 283.241
65.56000 298.190
65.60000 317.868
65.64000 324.428
65.68000 362.951
65.72000 435.146
65.76000 552.949
65.80000 735.825
65.84000 827.364
65.88000 886.260
65.92000 920.303
65.96000 831.194
66.00000 659.529
66.04000 477.513
66.08000 346.175
66.12000 318.706
66.16000 281.802
66.20000 269.108
66.24000 267.001
66.28000 293.455
66.32000 332.053
66.36000 361.758
66.40000 378.078
66.44000 398.441
66.48000 403.462
66.52000 390.584
66.56000 352.230
66.60000 301.882
66.64000 293.880
66.68000 291.732
66.72000 292.866
66.76000 291.923
66.80000 314.517
66.84000 307.874
66.88000 315.724
66.92000 324.456
66.96000 320.433
67.00000 321.184
67.04000 336.185
67.08000 328.447
67.12000 328.768
67.16000 347.392
67.20000 340.510
67.24000 350.064
67.28000 363.031
67.32000 360.218
67.36000 379.768
67.40000 368.545
67.44000 404.831
67.48000 394.496
67.52000 409.145
67.56000 407.415
67.60000 413.020
67.64000 411.805
67.68000 427.204
67.72000 423.868
67.76000 436.313
67.80000 439.937
67.84000 452.509
67.88000 473.401
67.92000 468.785
67.96000 485.697
68.00000 490.580
68.04000 481.124
68.08000 511.604
68.12000 525.648
68.16000 532.490
68.20000 550.151
68.24000 595.986
68.28000 585.085
68.32000 580.620
68.36000 629.394
68.40000 646.625
68.44000 649.793
68.48000 687.757
68.52000 699.850
68.56000 774.258
68.60000 834.000
68.64000 933.501
68.68000 1123.809
68.72000 1244.995
68.76000 1413.425
68.80000 1615.941
68.84000 1807.523
68.88000 2004.140
68.92000 2916.345
68.96000 5818.640
69.00000 16076.669
69.04000 32271.018
69.08000 44625.945
69.12000 48076.133
69.16000 49456.750
69.20000 51291.699
69.24000 47251.910
69.28000 37865.016
69.32000 29306.598
69.36000 25336.715
69.40000 22494.201
69.44000 16239.679
69.48000 8695.710
69.52000 3855.428
69.56000 1975.121
69.60000 1458.197
69.64000 1224.278
69.68000 1046.489
69.72000 963.720
69.76000 898.121
69.80000 828.030
69.84000 774.143
69.88000 706.122
69.92000 697.759
69.96000 672.756
70.00000 634.756