File: XRD/XRD/30-09-2025 Dep 1/XY Data/BTO_Mapping_Theta2Theta_30-09-2025_001_39_-16-180_-11-756.xy
20.00000 558.855
20.04000 591.078
20.08000 579.786
20.12000 573.641
20.16000 573.088
20.20000 541.144
20.24000 550.315
20.28000 566.315
20.32000 566.602
20.36000 567.308
20.40000 568.609
20.44000 570.304
20.48000 583.421
20.52000 555.768
20.56000 563.192
20.60000 565.442
20.64000 552.795
20.68000 550.749
20.72000 551.272
20.76000 556.614
20.80000 566.641
20.84000 563.789
20.88000 542.606
20.92000 557.729
20.96000 554.292
21.00000 561.971
21.04000 554.074
21.08000 562.000
21.12000 532.959
21.16000 557.716
21.20000 574.965
21.24000 555.195
21.28000 551.637
21.32000 564.836
21.36000 535.786
21.40000 552.713
21.44000 555.303
21.48000 551.091
21.52000 562.859
21.56000 567.071
21.60000 551.672
21.64000 562.982
21.68000 561.154
21.72000 571.878
21.76000 588.323
21.80000 609.854
21.84000 646.784
21.88000 681.604
21.92000 722.731
21.96000 782.053
22.00000 816.500
22.04000 837.415
22.08000 841.263
22.12000 825.320
22.16000 742.871
22.20000 711.287
22.24000 669.478
22.28000 615.815
22.32000 614.440
22.36000 573.914
22.40000 567.796
22.44000 553.673
22.48000 531.786
22.52000 535.665
22.56000 532.889
22.60000 526.334
22.64000 530.634
22.68000 520.412
22.72000 532.727
22.76000 516.358
22.80000 513.136
22.84000 540.029
22.88000 529.406
22.92000 512.937
22.96000 505.072
23.00000 520.799
23.04000 526.809
23.08000 522.281
23.12000 524.204
23.16000 519.316
23.20000 513.563
23.24000 536.316
23.28000 522.327
23.32000 506.453
23.36000 505.308
23.40000 502.762
23.44000 505.829
23.48000 524.449
23.52000 493.287
23.56000 502.347
23.60000 515.271
23.64000 523.649
23.68000 520.066
23.72000 508.407
23.76000 493.024
23.80000 514.714
23.84000 515.132
23.88000 497.005
23.92000 501.911
23.96000 497.070
24.00000 503.864
24.04000 487.882
24.08000 496.127
24.12000 474.916
24.16000 495.455
24.20000 494.074
24.24000 495.782
24.28000 508.392
24.32000 491.178
24.36000 519.162
24.40000 509.025
24.44000 499.227
24.48000 494.877
24.52000 501.973
24.56000 502.752
24.60000 495.549
24.64000 480.765
24.68000 481.181
24.72000 484.505
24.76000 501.785
24.80000 484.409
24.84000 477.269
24.88000 492.956
24.92000 489.700
24.96000 478.976
25.00000 485.664
25.04000 483.747
25.08000 479.970
25.12000 464.803
25.16000 463.522
25.20000 456.873
25.24000 482.855
25.28000 467.636
25.32000 462.409
25.36000 464.673
25.40000 452.503
25.44000 471.331
25.48000 470.316
25.52000 469.226
25.56000 488.151
25.60000 485.809
25.64000 482.783
25.68000 486.745
25.72000 468.539
25.76000 473.961
25.80000 465.844
25.84000 467.088
25.88000 477.433
25.92000 492.606
25.96000 487.571
26.00000 448.981
26.04000 453.849
26.08000 477.741
26.12000 471.246
26.16000 458.600
26.20000 448.167
26.24000 480.561
26.28000 462.868
26.32000 482.581
26.36000 465.140
26.40000 466.963
26.44000 440.392
26.48000 460.588
26.52000 469.154
26.56000 467.528
26.60000 451.819
26.64000 455.554
26.68000 470.769
26.72000 446.115
26.76000 457.018
26.80000 442.187
26.84000 451.750
26.88000 448.835
26.92000 439.257
26.96000 423.587
27.00000 431.994
27.04000 433.835
27.08000 459.444
27.12000 473.805
27.16000 451.988
27.20000 446.584
27.24000 451.311
27.28000 442.660
27.32000 449.611
27.36000 435.272
27.40000 447.649
27.44000 435.454
27.48000 452.042
27.52000 451.968
27.56000 444.602
27.60000 437.428
27.64000 449.691
27.68000 454.619
27.72000 440.646
27.76000 448.739
27.80000 437.971
27.84000 438.242
27.88000 439.255
27.92000 431.058
27.96000 429.188
28.00000 431.258
28.04000 436.707
28.08000 460.203
28.12000 442.072
28.16000 436.335
28.20000 424.761
28.24000 439.315
28.28000 433.964
28.32000 436.761
28.36000 435.460
28.40000 426.570
28.44000 438.950
28.48000 424.059
28.52000 424.266
28.56000 428.359
28.60000 416.075
28.64000 430.505
28.68000 423.207
28.72000 446.500
28.76000 456.941
28.80000 423.580
28.84000 430.694
28.88000 418.287
28.92000 418.088
28.96000 430.950
29.00000 413.462
29.04000 424.306
29.08000 436.064
29.12000 437.877
29.16000 424.824
29.20000 419.401
29.24000 423.358
29.28000 428.694
29.32000 457.069
29.36000 435.521
29.40000 441.399
29.44000 422.240
29.48000 421.456
29.52000 408.113
29.56000 412.089
29.60000 433.990
29.64000 424.292
29.68000 419.788
29.72000 425.227
29.76000 423.135
29.80000 427.085
29.84000 445.549
29.88000 431.395
29.92000 443.573
29.96000 452.394
30.00000 464.522
30.04000 458.310
30.08000 474.924
30.12000 462.751
30.16000 459.522
30.20000 456.206
30.24000 434.606
30.28000 436.956
30.32000 434.573
30.36000 417.945
30.40000 446.429
30.44000 440.942
30.48000 434.220
30.52000 446.692
30.56000 429.185
30.60000 457.682
30.64000 440.010
30.68000 450.087
30.72000 465.600
30.76000 470.582
30.80000 488.386
30.84000 470.663
30.88000 488.095
30.92000 521.632
30.96000 545.304
31.00000 592.375
31.04000 654.238
31.08000 768.469
31.12000 1010.131
31.16000 1337.748
31.20000 1742.442
31.24000 2329.729
31.28000 2959.655
31.32000 3541.889
31.36000 3841.645
31.40000 3925.876
31.44000 3597.064
31.48000 3132.044
31.52000 2468.316
31.56000 1802.766
31.60000 1344.697
31.64000 996.310
31.68000 746.836
31.72000 593.663
31.76000 540.688
31.80000 512.499
31.84000 471.148
31.88000 448.040
31.92000 439.004
31.96000 434.540
32.00000 453.947
32.04000 420.631
32.08000 420.179
32.12000 438.669
32.16000 422.938
32.20000 401.735
32.24000 410.422
32.28000 392.134
32.32000 395.053
32.36000 404.823
32.40000 396.643
32.44000 380.388
32.48000 390.238
32.52000 397.911
32.56000 380.545
32.60000 388.515
32.64000 384.338
32.68000 385.959
32.72000 387.108
32.76000 376.711
32.80000 365.709
32.84000 410.035
32.88000 397.503
32.92000 435.298
32.96000 476.877
33.00000 478.197
33.04000 486.925
33.08000 456.673
33.12000 428.117
33.16000 396.634
33.20000 391.315
33.24000 364.378
33.28000 375.647
33.32000 352.919
33.36000 359.756
33.40000 368.879
33.44000 357.124
33.48000 345.655
33.52000 339.023
33.56000 327.716
33.60000 371.558
33.64000 346.305
33.68000 352.882
33.72000 335.029
33.76000 352.218
33.80000 340.620
33.84000 330.124
33.88000 344.348
33.92000 329.597
33.96000 327.503
34.00000 345.536
34.04000 333.579
34.08000 336.650
34.12000 333.405
34.16000 342.168
34.20000 336.346
34.24000 327.331
34.28000 344.149
34.32000 333.715
34.36000 338.341
34.40000 329.503
34.44000 329.024
34.48000 332.236
34.52000 330.504
34.56000 333.682
34.60000 336.426
34.64000 330.707
34.68000 326.282
34.72000 343.314
34.76000 334.807
34.80000 330.647
34.84000 330.249
34.88000 317.468
34.92000 326.174
34.96000 337.133
35.00000 329.597
35.04000 308.140
35.08000 323.213
35.12000 326.886
35.16000 320.824
35.20000 313.555
35.24000 339.903
35.28000 318.757
35.32000 324.780
35.36000 316.526
35.40000 317.650
35.44000 293.459
35.48000 320.387
35.52000 311.577
35.56000 316.768
35.60000 313.182
35.64000 301.488
35.68000 314.870
35.72000 318.860
35.76000 301.509
35.80000 311.995
35.84000 324.088
35.88000 319.867
35.92000 302.235
35.96000 300.038
36.00000 311.606
36.04000 310.215
36.08000 323.304
36.12000 307.357
36.16000 312.186
36.20000 305.937
36.24000 313.314
36.28000 300.729
36.32000 305.722
36.36000 282.060
36.40000 305.343
36.44000 297.395
36.48000 312.157
36.52000 308.928
36.56000 287.443
36.60000 315.870
36.64000 310.247
36.68000 307.976
36.72000 288.885
36.76000 312.096
36.80000 303.190
36.84000 292.838
36.88000 297.030
36.92000 295.544
36.96000 327.351
37.00000 302.098
37.04000 307.053
37.08000 308.559
37.12000 324.397
37.16000 305.921
37.20000 287.642
37.24000 296.882
37.28000 306.556
37.32000 294.486
37.36000 311.958
37.40000 302.808
37.44000 292.629
37.48000 279.313
37.52000 300.405
37.56000 297.870
37.60000 288.121
37.64000 291.268
37.68000 288.216
37.72000 301.600
37.76000 293.411
37.80000 293.240
37.84000 286.177
37.88000 311.604
37.92000 294.445
37.96000 291.932
38.00000 293.048
38.04000 317.183
38.08000 295.144
38.12000 300.073
38.16000 294.836
38.20000 301.329
38.24000 315.225
38.28000 316.092
38.32000 322.125
38.36000 329.827
38.40000 348.875
38.44000 385.027
38.48000 399.834
38.52000 455.719
38.56000 535.896
38.60000 594.402
38.64000 693.131
38.68000 751.289
38.72000 764.415
38.76000 771.012
38.80000 722.836
38.84000 623.919
38.88000 540.993
38.92000 481.447
38.96000 391.372
39.00000 350.827
39.04000 342.694
39.08000 313.530
39.12000 296.179
39.16000 300.260
39.20000 287.221
39.24000 273.595
39.28000 291.939
39.32000 267.116
39.36000 277.867
39.40000 283.757
39.44000 287.685
39.48000 275.612
39.52000 275.732
39.56000 282.474
39.60000 264.024
39.64000 265.603
39.68000 281.967
39.72000 259.946
39.76000 260.018
39.80000 276.289
39.84000 277.707
39.88000 280.010
39.92000 259.842
39.96000 276.023
40.00000 261.563
40.04000 251.447
40.08000 276.858
40.12000 253.264
40.16000 267.786
40.20000 258.473
40.24000 270.066
40.28000 269.218
40.32000 262.045
40.36000 255.179
40.40000 242.263
40.44000 261.411
40.48000 244.819
40.52000 269.972
40.56000 252.868
40.60000 253.368
40.64000 258.394
40.68000 257.229
40.72000 266.940
40.76000 247.720
40.80000 255.340
40.84000 253.390
40.88000 257.425
40.92000 253.175
40.96000 240.213
41.00000 241.222
41.04000 264.749
41.08000 251.436
41.12000 249.970
41.16000 260.576
41.20000 253.525
41.24000 245.565
41.28000 258.561
41.32000 237.068
41.36000 250.785
41.40000 236.962
41.44000 232.016
41.48000 259.317
41.52000 247.395
41.56000 252.135
41.60000 246.324
41.64000 230.716
41.68000 243.594
41.72000 237.378
41.76000 240.904
41.80000 248.511
41.84000 248.801
41.88000 231.245
41.92000 247.154
41.96000 222.404
42.00000 238.432
42.04000 248.181
42.08000 226.724
42.12000 243.041
42.16000 243.410
42.20000 238.516
42.24000 244.954
42.28000 239.082
42.32000 239.702
42.36000 222.628
42.40000 223.719
42.44000 232.337
42.48000 257.019
42.52000 247.256
42.56000 229.265
42.60000 237.239
42.64000 229.547
42.68000 233.678
42.72000 244.990
42.76000 225.701
42.80000 239.565
42.84000 224.974
42.88000 223.776
42.92000 239.039
42.96000 242.516
43.00000 243.780
43.04000 240.399
43.08000 232.676
43.12000 232.619
43.16000 239.071
43.20000 229.375
43.24000 223.059
43.28000 212.912
43.32000 232.948
43.36000 222.923
43.40000 238.598
43.44000 230.584
43.48000 227.954
43.52000 228.576
43.56000 231.564
43.60000 220.877
43.64000 222.245
43.68000 230.492
43.72000 232.583
43.76000 233.523
43.80000 229.609
43.84000 214.566
43.88000 226.272
43.92000 230.876
43.96000 218.264
44.00000 229.053
44.04000 231.760
44.08000 234.171
44.12000 229.859
44.16000 232.664
44.20000 241.103
44.24000 227.517
44.28000 228.392
44.32000 236.523
44.36000 233.642
44.40000 232.800
44.44000 219.671
44.48000 226.468
44.52000 239.511
44.56000 229.839
44.60000 245.945
44.64000 230.404
44.68000 239.945
44.72000 264.692
44.76000 273.742
44.80000 292.771
44.84000 324.993
44.88000 341.263
44.92000 384.081
44.96000 412.491
45.00000 468.153
45.04000 483.626
45.08000 504.631
45.12000 481.299
45.16000 449.702
45.20000 405.303
45.24000 358.676
45.28000 339.270
45.32000 310.018
45.36000 293.518
45.40000 260.570
45.44000 256.048
45.48000 245.010
45.52000 250.044
45.56000 234.237
45.60000 220.127
45.64000 219.234
45.68000 227.586
45.72000 227.264
45.76000 218.964
45.80000 210.198
45.84000 217.170
45.88000 208.253
45.92000 210.694
45.96000 213.179
46.00000 201.246
46.04000 210.165
46.08000 208.110
46.12000 205.255
46.16000 212.388
46.20000 213.963
46.24000 198.564
46.28000 205.859
46.32000 209.125
46.36000 209.121
46.40000 220.960
46.44000 212.144
46.48000 204.594
46.52000 200.631
46.56000 195.056
46.60000 218.674
46.64000 208.857
46.68000 202.420
46.72000 191.669
46.76000 206.184
46.80000 206.279
46.84000 204.563
46.88000 205.102
46.92000 205.569
46.96000 193.638
47.00000 186.940
47.04000 208.882
47.08000 203.566
47.12000 193.684
47.16000 197.699
47.20000 196.558
47.24000 196.781
47.28000 186.092
47.32000 199.682
47.36000 201.764
47.40000 190.268
47.44000 198.459
47.48000 191.638
47.52000 193.258
47.56000 188.868
47.60000 177.636
47.64000 183.479
47.68000 195.774
47.72000 185.781
47.76000 185.571
47.80000 195.172
47.84000 188.077
47.88000 190.732
47.92000 181.704
47.96000 176.226
48.00000 182.586
48.04000 195.152
48.08000 193.993
48.12000 186.730
48.16000 192.250
48.20000 190.064
48.24000 182.703
48.28000 194.193
48.32000 179.298
48.36000 183.194
48.40000 188.393
48.44000 182.329
48.48000 185.117
48.52000 185.281
48.56000 177.856
48.60000 179.431
48.64000 193.060
48.68000 188.753
48.72000 189.390
48.76000 173.688
48.80000 187.057
48.84000 195.521
48.88000 174.645
48.92000 177.269
48.96000 182.740
49.00000 170.690
49.04000 175.879
49.08000 174.442
49.12000 183.490
49.16000 190.360
49.20000 173.963
49.24000 177.128
49.28000 177.006
49.32000 181.038
49.36000 180.296
49.40000 186.776
49.44000 182.035
49.48000 186.019
49.52000 167.134
49.56000 177.881
49.60000 178.749
49.64000 173.565
49.68000 186.279
49.72000 172.780
49.76000 174.279
49.80000 192.275
49.84000 170.225
49.88000 177.452
49.92000 182.605
49.96000 172.913
50.00000 172.246
50.04000 173.100
50.08000 174.003
50.12000 181.680
50.16000 178.996
50.20000 177.458
50.24000 193.237
50.28000 188.381
50.32000 202.190
50.36000 197.454
50.40000 197.654
50.44000 204.723
50.48000 231.089
50.52000 250.939
50.56000 230.194
50.60000 260.983
50.64000 271.569
50.68000 286.383
50.72000 290.555
50.76000 281.724
50.80000 276.572
50.84000 241.982
50.88000 240.211
50.92000 229.453
50.96000 205.014
51.00000 202.839
51.04000 199.785
51.08000 174.994
51.12000 192.918
51.16000 183.014
51.20000 183.660
51.24000 178.065
51.28000 171.841
51.32000 170.549
51.36000 168.809
51.40000 176.698
51.44000 173.367
51.48000 169.420
51.52000 172.955
51.56000 189.135
51.60000 168.683
51.64000 161.541
51.68000 170.615
51.72000 173.303
51.76000 162.875
51.80000 160.307
51.84000 163.030
51.88000 158.893
51.92000 161.129
51.96000 165.918
52.00000 164.546
52.04000 166.346
52.08000 172.088
52.12000 161.664
52.16000 165.408
52.20000 157.418
52.24000 161.349
52.28000 149.445
52.32000 155.480
52.36000 156.316
52.40000 153.026
52.44000 155.610
52.48000 153.795
52.52000 166.545
52.56000 160.508
52.60000 162.327
52.64000 160.567
52.68000 155.002
52.72000 146.580
52.76000 164.191
52.80000 163.214
52.84000 167.363
52.88000 162.385
52.92000 157.790
52.96000 159.943
53.00000 165.004
53.04000 172.389
53.08000 168.156
53.12000 165.913
53.16000 163.720
53.20000 155.115
53.24000 162.184
53.28000 153.852
53.32000 171.428
53.36000 160.816
53.40000 159.859
53.44000 161.330
53.48000 156.015
53.52000 154.316
53.56000 163.814
53.60000 161.270
53.64000 149.928
53.68000 165.746
53.72000 164.018
53.76000 164.141
53.80000 160.822
53.84000 167.751
53.88000 162.070
53.92000 161.841
53.96000 151.909
54.00000 148.428
54.04000 148.327
54.08000 166.114
54.12000 164.122
54.16000 167.393
54.20000 165.492
54.24000 167.329
54.28000 155.393
54.32000 157.027
54.36000 151.072
54.40000 148.439
54.44000 163.908
54.48000 149.967
54.52000 157.686
54.56000 163.060
54.60000 162.007
54.64000 152.803
54.68000 156.433
54.72000 159.044
54.76000 156.477
54.80000 162.824
54.84000 160.985
54.88000 153.756
54.92000 165.791
54.96000 164.041
55.00000 166.151
55.04000 160.621
55.08000 168.667
55.12000 155.582
55.16000 162.270
55.20000 167.094
55.24000 169.513
55.28000 173.716
55.32000 165.536
55.36000 171.234
55.40000 176.424
55.44000 186.932
55.48000 193.682
55.52000 197.409
55.56000 213.490
55.60000 225.419
55.64000 266.735
55.68000 312.495
55.72000 352.637
55.76000 426.999
55.80000 511.517
55.84000 567.946
55.88000 619.962
55.92000 666.587
55.96000 647.430
56.00000 626.336
56.04000 566.252
56.08000 514.171
56.12000 442.765
56.16000 367.786
56.20000 322.234
56.24000 280.199
56.28000 245.215
56.32000 216.941
56.36000 208.369
56.40000 187.864
56.44000 176.148
56.48000 175.388
56.52000 174.519
56.56000 158.521
56.60000 160.993
56.64000 173.124
56.68000 150.709
56.72000 149.818
56.76000 154.512
56.80000 157.690
56.84000 153.699
56.88000 155.480
56.92000 159.949
56.96000 152.347
57.00000 160.285
57.04000 144.143
57.08000 157.214
57.12000 148.386
57.16000 135.723
57.20000 148.539
57.24000 144.853
57.28000 147.497
57.32000 145.723
57.36000 155.869
57.40000 148.686
57.44000 145.117
57.48000 152.249
57.52000 143.100
57.56000 144.374
57.60000 148.834
57.64000 139.646
57.68000 151.465
57.72000 136.709
57.76000 134.754
57.80000 156.289
57.84000 136.166
57.88000 147.836
57.92000 146.520
57.96000 139.459
58.00000 140.802
58.04000 155.248
58.08000 149.962
58.12000 141.840
58.16000 137.381
58.20000 133.412
58.24000 132.582
58.28000 137.759
58.32000 126.887
58.36000 132.905
58.40000 134.496
58.44000 141.723
58.48000 134.601
58.52000 139.414
58.56000 140.730
58.60000 143.362
58.64000 138.297
58.68000 141.079
58.72000 139.821
58.76000 129.279
58.80000 137.792
58.84000 141.204
58.88000 129.745
58.92000 129.088
58.96000 139.199
59.00000 140.755
59.04000 132.518
59.08000 126.664
59.12000 141.416
59.16000 130.398
59.20000 141.185
59.24000 132.356
59.28000 145.183
59.32000 138.489
59.36000 145.338
59.40000 150.560
59.44000 137.983
59.48000 133.252
59.52000 130.750
59.56000 131.317
59.60000 142.573
59.64000 130.412
59.68000 127.783
59.72000 125.191
59.76000 132.919
59.80000 134.117
59.84000 124.263
59.88000 128.785
59.92000 134.059
59.96000 137.878
60.00000 137.622
60.04000 135.719
60.08000 127.735
60.12000 127.759
60.16000 131.100
60.20000 133.928
60.24000 139.676
60.28000 138.421
60.32000 127.814
60.36000 128.366
60.40000 137.746
60.44000 136.972
60.48000 133.271
60.52000 134.996
60.56000 135.202
60.60000 133.401
60.64000 132.044
60.68000 131.311
60.72000 129.679
60.76000 126.838
60.80000 141.182
60.84000 138.387
60.88000 122.293
60.92000 126.874
60.96000 141.357
61.00000 135.207
61.04000 135.441
61.08000 132.760
61.12000 137.186
61.16000 140.540
61.20000 152.561
61.24000 138.170
61.28000 149.701
61.32000 124.987
61.36000 134.873
61.40000 134.948
61.44000 142.101
61.48000 145.287
61.52000 166.095
61.56000 200.718
61.60000 249.527
61.64000 295.708
61.68000 326.653
61.72000 325.139
61.76000 313.455
61.80000 272.759
61.84000 223.148
61.88000 164.270
61.92000 158.204
61.96000 143.845
62.00000 144.767
62.04000 153.476
62.08000 146.724
62.12000 153.424
62.16000 138.129
62.20000 138.871
62.24000 142.921
62.28000 141.344
62.32000 148.690
62.36000 150.423
62.40000 141.176
62.44000 143.136
62.48000 143.423
62.52000 139.507
62.56000 139.795
62.60000 147.313
62.64000 147.242
62.68000 144.777
62.72000 146.125
62.76000 146.727
62.80000 144.588
62.84000 145.050
62.88000 149.306
62.92000 154.761
62.96000 145.794
63.00000 145.721
63.04000 148.752
63.08000 150.467
63.12000 159.595
63.16000 148.560
63.20000 157.197
63.24000 144.837
63.28000 159.561
63.32000 155.723
63.36000 155.463
63.40000 150.904
63.44000 149.376
63.48000 152.047
63.52000 153.777
63.56000 162.649
63.60000 140.687
63.64000 149.628
63.68000 164.982
63.72000 150.651
63.76000 151.352
63.80000 158.460
63.84000 164.251
63.88000 161.877
63.92000 157.359
63.96000 156.437
64.00000 149.061
64.04000 158.184
64.08000 164.959
64.12000 152.090
64.16000 161.547
64.20000 163.590
64.24000 152.738
64.28000 167.277
64.32000 160.884
64.36000 166.151
64.40000 170.525
64.44000 164.724
64.48000 170.960
64.52000 159.225
64.56000 171.128
64.60000 156.029
64.64000 168.996
64.68000 173.508
64.72000 180.729
64.76000 173.943
64.80000 173.591
64.84000 187.203
64.88000 193.002
64.92000 205.405
64.96000 197.839
65.00000 198.884
65.04000 203.777
65.08000 205.976
65.12000 210.915
65.16000 223.589
65.20000 242.972
65.24000 240.207
65.28000 277.710
65.32000 299.234
65.36000 333.609
65.40000 362.570
65.44000 380.488
65.48000 429.516
65.52000 449.483
65.56000 435.193
65.60000 478.562
65.64000 493.900
65.68000 536.824
65.72000 696.380
65.76000 912.046
65.80000 1159.273
65.84000 1278.490
65.88000 1351.488
65.92000 1293.672
65.96000 1118.834
66.00000 836.253
66.04000 572.141
66.08000 420.599
66.12000 332.845
66.16000 312.561
66.20000 310.665
66.24000 355.303
66.28000 365.771
66.32000 417.295
66.36000 463.049
66.40000 483.538
66.44000 524.103
66.48000 503.407
66.52000 461.440
66.56000 411.763
66.60000 362.115
66.64000 353.545
66.68000 322.986
66.72000 331.944
66.76000 336.069
66.80000 328.052
66.84000 338.086
66.88000 340.508
66.92000 354.115
66.96000 358.913
67.00000 358.853
67.04000 374.871
67.08000 381.106
67.12000 393.217
67.16000 396.268
67.20000 403.413
67.24000 395.126
67.28000 401.828
67.32000 414.322
67.36000 425.744
67.40000 421.014
67.44000 426.438
67.48000 443.454
67.52000 447.159
67.56000 457.403
67.60000 487.352
67.64000 471.168
67.68000 489.882
67.72000 497.350
67.76000 515.281
67.80000 512.503
67.84000 524.838
67.88000 545.371
67.92000 559.004
67.96000 562.325
68.00000 569.284
68.04000 572.314
68.08000 615.344
68.12000 623.162
68.16000 653.158
68.20000 621.456
68.24000 667.256
68.28000 673.906
68.32000 681.985
68.36000 748.930
68.40000 780.095
68.44000 797.500
68.48000 822.806
68.52000 872.452
68.56000 952.632
68.60000 1068.842
68.64000 1266.742
68.68000 1472.766
68.72000 1750.750
68.76000 2038.387
68.80000 2279.970
68.84000 2638.423
68.88000 3087.815
68.92000 5300.411
68.96000 12522.054
69.00000 32245.709
69.04000 56894.887
69.08000 72536.102
69.12000 76217.102
69.16000 78585.836
69.20000 79672.375
69.24000 70316.563
69.28000 55184.941
69.32000 43716.250
69.36000 38732.629
69.40000 33043.891
69.44000 21721.193
69.48000 10881.498
69.52000 4659.463
69.56000 2487.242
69.60000 1841.413
69.64000 1510.159
69.68000 1350.932
69.72000 1186.113
69.76000 1072.633
69.80000 1016.675
69.84000 927.342
69.88000 878.080
69.92000 842.196
69.96000 799.522
70.00000 769.923