File: XRD/XRD/30-09-2025 Dep 1/XY Data/BTO_Mapping_Theta2Theta_30-09-2025_001_47_-2-091_-19-890.xy
20.00000 571.137
20.04000 573.629
20.08000 578.367
20.12000 570.175
20.16000 563.319
20.20000 584.952
20.24000 553.828
20.28000 554.585
20.32000 556.380
20.36000 580.651
20.40000 585.410
20.44000 572.386
20.48000 566.155
20.52000 573.737
20.56000 566.192
20.60000 555.075
20.64000 580.637
20.68000 584.702
20.72000 559.536
20.76000 545.637
20.80000 559.920
20.84000 552.316
20.88000 549.797
20.92000 577.930
20.96000 549.084
21.00000 551.814
21.04000 552.627
21.08000 571.233
21.12000 568.909
21.16000 565.188
21.20000 552.337
21.24000 554.230
21.28000 572.767
21.32000 551.416
21.36000 550.986
21.40000 542.104
21.44000 549.622
21.48000 553.692
21.52000 575.764
21.56000 560.298
21.60000 593.379
21.64000 577.169
21.68000 605.396
21.72000 618.240
21.76000 649.519
21.80000 685.077
21.84000 741.088
21.88000 816.834
21.92000 871.194
21.96000 924.956
22.00000 967.159
22.04000 936.526
22.08000 930.069
22.12000 860.598
22.16000 764.214
22.20000 711.404
22.24000 634.350
22.28000 599.991
22.32000 585.556
22.36000 547.060
22.40000 569.811
22.44000 548.226
22.48000 535.035
22.52000 562.414
22.56000 558.434
22.60000 531.396
22.64000 535.149
22.68000 521.137
22.72000 546.870
22.76000 525.044
22.80000 538.743
22.84000 537.122
22.88000 532.554
22.92000 535.834
22.96000 525.113
23.00000 543.787
23.04000 510.528
23.08000 500.900
23.12000 505.490
23.16000 521.793
23.20000 496.510
23.24000 525.049
23.28000 512.225
23.32000 534.770
23.36000 536.711
23.40000 496.562
23.44000 522.865
23.48000 520.384
23.52000 506.129
23.56000 506.924
23.60000 531.883
23.64000 519.320
23.68000 504.579
23.72000 531.226
23.76000 511.743
23.80000 505.470
23.84000 520.093
23.88000 526.440
23.92000 492.228
23.96000 516.511
24.00000 522.718
24.04000 496.506
24.08000 513.734
24.12000 503.261
24.16000 483.954
24.20000 494.079
24.24000 483.545
24.28000 494.589
24.32000 504.217
24.36000 510.881
24.40000 493.036
24.44000 502.114
24.48000 503.898
24.52000 491.276
24.56000 495.670
24.60000 500.494
24.64000 487.539
24.68000 482.321
24.72000 485.907
24.76000 503.851
24.80000 495.011
24.84000 481.587
24.88000 503.896
24.92000 488.099
24.96000 479.012
25.00000 483.051
25.04000 492.742
25.08000 493.805
25.12000 492.831
25.16000 497.325
25.20000 476.635
25.24000 474.035
25.28000 503.677
25.32000 487.818
25.36000 476.687
25.40000 472.439
25.44000 480.983
25.48000 478.692
25.52000 490.051
25.56000 481.836
25.60000 478.282
25.64000 478.133
25.68000 477.212
25.72000 478.390
25.76000 485.950
25.80000 486.087
25.84000 461.734
25.88000 486.417
25.92000 481.361
25.96000 485.388
26.00000 482.779
26.04000 463.314
26.08000 467.083
26.12000 486.426
26.16000 490.193
26.20000 474.321
26.24000 470.573
26.28000 471.264
26.32000 481.558
26.36000 463.292
26.40000 451.612
26.44000 461.687
26.48000 464.625
26.52000 448.999
26.56000 438.667
26.60000 477.655
26.64000 431.083
26.68000 461.706
26.72000 437.178
26.76000 470.398
26.80000 448.915
26.84000 466.654
26.88000 453.165
26.92000 471.547
26.96000 462.855
27.00000 449.665
27.04000 458.540
27.08000 446.459
27.12000 460.245
27.16000 471.745
27.20000 462.064
27.24000 478.717
27.28000 477.343
27.32000 438.987
27.36000 479.190
27.40000 455.637
27.44000 453.246
27.48000 431.642
27.52000 455.746
27.56000 463.420
27.60000 450.779
27.64000 448.491
27.68000 446.738
27.72000 443.350
27.76000 461.174
27.80000 443.246
27.84000 445.339
27.88000 448.754
27.92000 452.822
27.96000 441.149
28.00000 439.131
28.04000 435.173
28.08000 438.564
28.12000 440.267
28.16000 435.791
28.20000 441.208
28.24000 461.682
28.28000 450.079
28.32000 442.265
28.36000 444.246
28.40000 442.016
28.44000 452.684
28.48000 443.386
28.52000 443.288
28.56000 438.896
28.60000 445.558
28.64000 434.050
28.68000 438.219
28.72000 424.068
28.76000 430.065
28.80000 431.893
28.84000 418.001
28.88000 432.684
28.92000 425.655
28.96000 448.215
29.00000 435.038
29.04000 423.290
29.08000 433.092
29.12000 429.836
29.16000 433.000
29.20000 414.971
29.24000 430.847
29.28000 413.735
29.32000 434.368
29.36000 431.165
29.40000 435.050
29.44000 451.527
29.48000 439.068
29.52000 426.309
29.56000 433.276
29.60000 436.883
29.64000 424.754
29.68000 430.370
29.72000 421.262
29.76000 439.464
29.80000 459.041
29.84000 466.073
29.88000 450.078
29.92000 456.328
29.96000 483.769
30.00000 467.915
30.04000 465.792
30.08000 470.366
30.12000 461.959
30.16000 461.273
30.20000 453.257
30.24000 451.843
30.28000 436.555
30.32000 441.989
30.36000 408.064
30.40000 448.250
30.44000 451.485
30.48000 431.931
30.52000 435.993
30.56000 456.393
30.60000 453.314
30.64000 432.434
30.68000 451.960
30.72000 454.233
30.76000 479.601
30.80000 500.820
30.84000 505.688
30.88000 505.703
30.92000 566.538
30.96000 605.047
31.00000 699.861
31.04000 842.245
31.08000 1047.716
31.12000 1423.201
31.16000 1919.859
31.20000 2547.394
31.24000 3192.558
31.28000 3789.530
31.32000 4023.846
31.36000 4042.878
31.40000 3728.952
31.44000 3130.676
31.48000 2431.809
31.52000 1792.143
31.56000 1273.714
31.60000 945.681
31.64000 749.709
31.68000 643.918
31.72000 565.848
31.76000 523.145
31.80000 487.084
31.84000 473.879
31.88000 468.806
31.92000 446.520
31.96000 431.695
32.00000 417.120
32.04000 423.274
32.08000 418.274
32.12000 431.879
32.16000 413.975
32.20000 400.643
32.24000 410.173
32.28000 418.268
32.32000 412.884
32.36000 411.237
32.40000 397.567
32.44000 413.376
32.48000 388.037
32.52000 404.203
32.56000 391.923
32.60000 395.676
32.64000 390.701
32.68000 380.875
32.72000 383.132
32.76000 391.506
32.80000 394.868
32.84000 398.584
32.88000 417.244
32.92000 449.206
32.96000 473.191
33.00000 479.722
33.04000 497.442
33.08000 468.711
33.12000 456.754
33.16000 409.811
33.20000 385.747
33.24000 361.945
33.28000 358.529
33.32000 366.010
33.36000 362.994
33.40000 356.319
33.44000 375.828
33.48000 348.989
33.52000 347.249
33.56000 342.571
33.60000 355.624
33.64000 353.103
33.68000 337.142
33.72000 353.491
33.76000 341.476
33.80000 342.153
33.84000 349.884
33.88000 341.642
33.92000 343.891
33.96000 331.859
34.00000 337.366
34.04000 319.655
34.08000 328.242
34.12000 333.884
34.16000 339.938
34.20000 343.513
34.24000 336.800
34.28000 330.874
34.32000 349.378
34.36000 334.770
34.40000 330.927
34.44000 336.323
34.48000 329.190
34.52000 337.666
34.56000 333.052
34.60000 341.725
34.64000 339.991
34.68000 347.485
34.72000 320.439
34.76000 335.339
34.80000 331.434
34.84000 333.259
34.88000 342.795
34.92000 324.794
34.96000 317.690
35.00000 328.730
35.04000 322.743
35.08000 326.258
35.12000 328.780
35.16000 329.295
35.20000 315.460
35.24000 322.744
35.28000 323.620
35.32000 312.675
35.36000 330.620
35.40000 315.534
35.44000 312.121
35.48000 314.253
35.52000 312.404
35.56000 329.660
35.60000 311.958
35.64000 330.793
35.68000 327.123
35.72000 324.237
35.76000 318.223
35.80000 313.669
35.84000 309.138
35.88000 306.905
35.92000 309.829
35.96000 299.446
36.00000 304.156
36.04000 307.370
36.08000 306.023
36.12000 319.011
36.16000 302.124
36.20000 302.107
36.24000 314.190
36.28000 297.311
36.32000 300.894
36.36000 314.782
36.40000 298.642
36.44000 316.506
36.48000 301.953
36.52000 309.899
36.56000 307.403
36.60000 320.710
36.64000 324.218
36.68000 317.619
36.72000 301.951
36.76000 308.161
36.80000 318.134
36.84000 323.887
36.88000 306.795
36.92000 310.526
36.96000 305.655
37.00000 310.239
37.04000 305.964
37.08000 304.908
37.12000 308.528
37.16000 306.428
37.20000 316.059
37.24000 300.871
37.28000 320.485
37.32000 310.858
37.36000 301.468
37.40000 300.199
37.44000 302.754
37.48000 301.526
37.52000 298.581
37.56000 294.283
37.60000 300.643
37.64000 284.323
37.68000 302.594
37.72000 301.548
37.76000 288.803
37.80000 290.416
37.84000 305.034
37.88000 285.588
37.92000 322.644
37.96000 297.163
38.00000 302.717
38.04000 298.806
38.08000 300.971
38.12000 292.790
38.16000 305.013
38.20000 310.791
38.24000 326.482
38.28000 328.075
38.32000 334.232
38.36000 357.399
38.40000 378.402
38.44000 391.805
38.48000 433.300
38.52000 477.883
38.56000 531.950
38.60000 564.557
38.64000 608.805
38.68000 609.085
38.72000 580.346
38.76000 559.994
38.80000 501.720
38.84000 429.609
38.88000 396.142
38.92000 356.291
38.96000 324.231
39.00000 311.141
39.04000 296.453
39.08000 298.920
39.12000 301.539
39.16000 282.070
39.20000 287.942
39.24000 293.099
39.28000 292.562
39.32000 292.474
39.36000 282.531
39.40000 287.011
39.44000 280.885
39.48000 272.142
39.52000 272.058
39.56000 271.286
39.60000 275.128
39.64000 270.870
39.68000 266.125
39.72000 274.311
39.76000 262.632
39.80000 257.891
39.84000 267.278
39.88000 278.380
39.92000 272.919
39.96000 272.603
40.00000 267.306
40.04000 268.063
40.08000 262.972
40.12000 267.031
40.16000 264.340
40.20000 282.992
40.24000 273.146
40.28000 271.976
40.32000 257.957
40.36000 262.469
40.40000 271.706
40.44000 253.977
40.48000 255.719
40.52000 254.820
40.56000 253.102
40.60000 242.756
40.64000 251.532
40.68000 252.888
40.72000 259.740
40.76000 248.000
40.80000 248.078
40.84000 253.589
40.88000 248.027
40.92000 257.235
40.96000 247.276
41.00000 256.979
41.04000 263.355
41.08000 262.530
41.12000 262.092
41.16000 255.436
41.20000 255.356
41.24000 254.424
41.28000 252.705
41.32000 235.685
41.36000 248.219
41.40000 255.400
41.44000 260.740
41.48000 249.236
41.52000 251.385
41.56000 255.263
41.60000 231.955
41.64000 241.632
41.68000 259.901
41.72000 239.887
41.76000 234.354
41.80000 253.360
41.84000 235.095
41.88000 236.716
41.92000 251.967
41.96000 237.937
42.00000 251.166
42.04000 267.012
42.08000 235.366
42.12000 246.853
42.16000 254.157
42.20000 250.832
42.24000 240.764
42.28000 241.991
42.32000 241.314
42.36000 227.056
42.40000 235.904
42.44000 236.329
42.48000 239.470
42.52000 238.999
42.56000 235.853
42.60000 236.707
42.64000 237.617
42.68000 228.384
42.72000 232.143
42.76000 232.652
42.80000 227.718
42.84000 250.929
42.88000 244.736
42.92000 240.136
42.96000 234.890
43.00000 243.844
43.04000 238.426
43.08000 229.256
43.12000 229.206
43.16000 230.646
43.20000 219.728
43.24000 232.487
43.28000 227.275
43.32000 231.991
43.36000 236.079
43.40000 235.574
43.44000 232.614
43.48000 236.443
43.52000 231.750
43.56000 228.203
43.60000 237.680
43.64000 232.927
43.68000 229.443
43.72000 241.548
43.76000 231.114
43.80000 233.523
43.84000 231.130
43.88000 230.955
43.92000 236.753
43.96000 229.150
44.00000 219.954
44.04000 239.248
44.08000 235.118
44.12000 238.467
44.16000 224.671
44.20000 230.643
44.24000 228.267
44.28000 233.696
44.32000 233.414
44.36000 238.156
44.40000 236.264
44.44000 241.360
44.48000 238.434
44.52000 270.026
44.56000 253.396
44.60000 266.554
44.64000 275.680
44.68000 296.453
44.72000 333.409
44.76000 358.019
44.80000 419.511
44.84000 479.858
44.88000 526.167
44.92000 566.804
44.96000 574.131
45.00000 595.385
45.04000 567.531
45.08000 534.642
45.12000 479.293
45.16000 451.596
45.20000 401.622
45.24000 356.024
45.28000 318.529
45.32000 297.227
45.36000 290.552
45.40000 277.135
45.44000 269.942
45.48000 239.888
45.52000 238.464
45.56000 247.330
45.60000 231.830
45.64000 237.606
45.68000 222.202
45.72000 226.168
45.76000 220.274
45.80000 224.998
45.84000 216.603
45.88000 225.785
45.92000 217.550
45.96000 215.146
46.00000 217.606
46.04000 216.140
46.08000 218.414
46.12000 201.653
46.16000 205.741
46.20000 215.550
46.24000 217.594
46.28000 205.793
46.32000 204.401
46.36000 208.930
46.40000 221.985
46.44000 204.770
46.48000 202.689
46.52000 202.372
46.56000 196.538
46.60000 224.481
46.64000 213.751
46.68000 203.991
46.72000 198.217
46.76000 207.024
46.80000 212.986
46.84000 195.877
46.88000 202.268
46.92000 196.197
46.96000 205.269
47.00000 191.304
47.04000 202.638
47.08000 202.340
47.12000 205.386
47.16000 192.627
47.20000 198.847
47.24000 197.546
47.28000 194.667
47.32000 204.826
47.36000 200.485
47.40000 197.638
47.44000 196.105
47.48000 197.049
47.52000 203.861
47.56000 188.039
47.60000 189.752
47.64000 208.796
47.68000 193.086
47.72000 193.720
47.76000 192.068
47.80000 188.972
47.84000 187.953
47.88000 191.481
47.92000 189.926
47.96000 192.527
48.00000 195.005
48.04000 188.961
48.08000 197.421
48.12000 190.134
48.16000 199.038
48.20000 190.926
48.24000 188.228
48.28000 187.362
48.32000 186.095
48.36000 188.092
48.40000 192.442
48.44000 182.846
48.48000 186.601
48.52000 189.820
48.56000 190.762
48.60000 187.260
48.64000 204.663
48.68000 179.854
48.72000 182.420
48.76000 170.811
48.80000 183.715
48.84000 186.909
48.88000 189.038
48.92000 180.635
48.96000 186.013
49.00000 180.135
49.04000 180.444
49.08000 182.772
49.12000 188.862
49.16000 198.656
49.20000 188.208
49.24000 187.923
49.28000 179.318
49.32000 184.457
49.36000 186.244
49.40000 188.704
49.44000 184.513
49.48000 173.002
49.52000 192.118
49.56000 186.553
49.60000 191.218
49.64000 175.737
49.68000 183.259
49.72000 182.569
49.76000 188.488
49.80000 183.179
49.84000 186.930
49.88000 182.227
49.92000 184.224
49.96000 183.801
50.00000 195.539
50.04000 187.888
50.08000 183.853
50.12000 195.505
50.16000 193.180
50.20000 185.711
50.24000 190.314
50.28000 201.689
50.32000 215.245
50.36000 220.173
50.40000 226.012
50.44000 225.377
50.48000 262.119
50.52000 278.546
50.56000 297.854
50.60000 305.558
50.64000 299.082
50.68000 299.067
50.72000 283.907
50.76000 273.794
50.80000 260.639
50.84000 239.695
50.88000 221.933
50.92000 228.900
50.96000 206.447
51.00000 190.955
51.04000 190.960
51.08000 200.222
51.12000 178.715
51.16000 186.152
51.20000 179.225
51.24000 177.794
51.28000 177.449
51.32000 171.017
51.36000 158.111
51.40000 162.404
51.44000 175.326
51.48000 176.175
51.52000 164.630
51.56000 161.625
51.60000 175.890
51.64000 169.030
51.68000 163.093
51.72000 181.511
51.76000 169.271
51.80000 154.007
51.84000 159.001
51.88000 163.691
51.92000 169.272
51.96000 167.279
52.00000 169.636
52.04000 157.001
52.08000 170.323
52.12000 172.266
52.16000 168.514
52.20000 157.662
52.24000 160.318
52.28000 170.518
52.32000 169.938
52.36000 173.146
52.40000 158.397
52.44000 164.883
52.48000 161.435
52.52000 185.675
52.56000 172.850
52.60000 164.916
52.64000 168.810
52.68000 158.559
52.72000 177.879
52.76000 157.561
52.80000 159.796
52.84000 165.087
52.88000 167.777
52.92000 154.156
52.96000 162.897
53.00000 170.688
53.04000 165.412
53.08000 159.385
53.12000 156.602
53.16000 157.165
53.20000 159.184
53.24000 151.276
53.28000 163.236
53.32000 165.758
53.36000 167.123
53.40000 168.942
53.44000 159.294
53.48000 161.414
53.52000 167.068
53.56000 153.618
53.60000 167.619
53.64000 151.725
53.68000 157.849
53.72000 162.915
53.76000 168.549
53.80000 161.481
53.84000 158.150
53.88000 157.322
53.92000 153.796
53.96000 170.103
54.00000 150.186
54.04000 164.093
54.08000 157.509
54.12000 150.399
54.16000 178.260
54.20000 159.845
54.24000 156.632
54.28000 149.797
54.32000 157.775
54.36000 158.619
54.40000 159.846
54.44000 157.361
54.48000 168.674
54.52000 159.884
54.56000 166.184
54.60000 158.274
54.64000 165.380
54.68000 155.462
54.72000 162.043
54.76000 153.620
54.80000 161.451
54.84000 159.985
54.88000 163.769
54.92000 164.532
54.96000 163.107
55.00000 171.176
55.04000 166.498
55.08000 162.797
55.12000 165.386
55.16000 167.216
55.20000 161.507
55.24000 169.017
55.28000 169.436
55.32000 186.012
55.36000 187.715
55.40000 188.914
55.44000 212.304
55.48000 218.224
55.52000 253.905
55.56000 279.193
55.60000 308.874
55.64000 379.430
55.68000 447.098
55.72000 480.688
55.76000 569.350
55.80000 630.695
55.84000 627.227
55.88000 639.096
55.92000 603.825
55.96000 562.156
56.00000 510.429
56.04000 445.331
56.08000 380.952
56.12000 313.520
56.16000 283.162
56.20000 241.232
56.24000 220.535
56.28000 195.213
56.32000 192.703
56.36000 184.990
56.40000 172.515
56.44000 159.795
56.48000 179.677
56.52000 166.801
56.56000 158.746
56.60000 162.956
56.64000 138.884
56.68000 164.297
56.72000 159.029
56.76000 165.695
56.80000 155.728
56.84000 170.398
56.88000 148.680
56.92000 149.201
56.96000 144.688
57.00000 141.352
57.04000 150.935
57.08000 157.269
57.12000 154.793
57.16000 153.510
57.20000 160.683
57.24000 155.864
57.28000 143.167
57.32000 154.729
57.36000 143.404
57.40000 162.255
57.44000 151.740
57.48000 145.674
57.52000 142.992
57.56000 151.544
57.60000 138.670
57.64000 138.178
57.68000 146.751
57.72000 146.017
57.76000 142.354
57.80000 132.073
57.84000 150.567
57.88000 147.915
57.92000 131.855
57.96000 146.917
58.00000 128.975
58.04000 136.695
58.08000 151.166
58.12000 134.396
58.16000 140.396
58.20000 148.813
58.24000 156.470
58.28000 137.324
58.32000 138.842
58.36000 146.309
58.40000 139.920
58.44000 141.050
58.48000 140.901
58.52000 136.024
58.56000 145.565
58.60000 142.722
58.64000 132.342
58.68000 137.957
58.72000 137.943
58.76000 135.420
58.80000 140.679
58.84000 135.104
58.88000 143.300
58.92000 134.351
58.96000 136.424
59.00000 129.713
59.04000 135.220
59.08000 148.326
59.12000 144.761
59.16000 146.637
59.20000 139.305
59.24000 131.982
59.28000 134.505
59.32000 143.625
59.36000 132.928
59.40000 135.351
59.44000 120.311
59.48000 138.413
59.52000 142.227
59.56000 134.898
59.60000 142.431
59.64000 133.512
59.68000 137.486
59.72000 143.075
59.76000 139.327
59.80000 127.951
59.84000 143.120
59.88000 137.648
59.92000 142.490
59.96000 131.492
60.00000 134.535
60.04000 147.056
60.08000 142.722
60.12000 146.719
60.16000 137.972
60.20000 135.849
60.24000 136.579
60.28000 126.411
60.32000 126.136
60.36000 130.079
60.40000 128.169
60.44000 128.981
60.48000 132.661
60.52000 132.539
60.56000 130.765
60.60000 138.536
60.64000 139.356
60.68000 124.171
60.72000 145.898
60.76000 133.449
60.80000 144.583
60.84000 132.933
60.88000 134.266
60.92000 145.111
60.96000 131.933
61.00000 147.404
61.04000 135.028
61.08000 143.139
61.12000 122.625
61.16000 133.493
61.20000 139.285
61.24000 140.374
61.28000 146.191
61.32000 140.395
61.36000 134.791
61.40000 135.335
61.44000 145.744
61.48000 151.923
61.52000 165.466
61.56000 222.605
61.60000 275.065
61.64000 322.429
61.68000 334.840
61.72000 332.063
61.76000 310.560
61.80000 262.179
61.84000 198.105
61.88000 160.755
61.92000 142.854
61.96000 146.148
62.00000 138.699
62.04000 139.899
62.08000 143.812
62.12000 148.687
62.16000 148.228
62.20000 144.900
62.24000 158.839
62.28000 154.224
62.32000 146.346
62.36000 140.753
62.40000 149.345
62.44000 142.191
62.48000 154.356
62.52000 143.286
62.56000 143.035
62.60000 142.613
62.64000 142.968
62.68000 152.233
62.72000 149.354
62.76000 139.982
62.80000 144.221
62.84000 142.000
62.88000 138.617
62.92000 142.115
62.96000 160.660
63.00000 141.969
63.04000 141.921
63.08000 147.601
63.12000 145.489
63.16000 148.031
63.20000 142.273
63.24000 145.193
63.28000 153.434
63.32000 154.214
63.36000 158.942
63.40000 147.729
63.44000 142.655
63.48000 163.824
63.52000 150.336
63.56000 153.644
63.60000 150.758
63.64000 157.619
63.68000 159.951
63.72000 153.832
63.76000 143.129
63.80000 163.440
63.84000 155.012
63.88000 149.402
63.92000 159.350
63.96000 161.093
64.00000 157.029
64.04000 146.286
64.08000 160.229
64.12000 171.228
64.16000 162.635
64.20000 163.717
64.24000 166.359
64.28000 175.826
64.32000 179.794
64.36000 164.068
64.40000 178.488
64.44000 183.810
64.48000 160.781
64.52000 171.305
64.56000 184.090
64.60000 180.716
64.64000 175.665
64.68000 178.201
64.72000 189.035
64.76000 182.367
64.80000 183.265
64.84000 192.929
64.88000 193.629
64.92000 196.668
64.96000 207.667
65.00000 202.208
65.04000 219.606
65.08000 226.953
65.12000 227.407
65.16000 257.491
65.20000 292.528
65.24000 324.947
65.28000 337.302
65.32000 389.308
65.36000 397.569
65.40000 431.926
65.44000 433.894
65.48000 462.765
65.52000 454.123
65.56000 422.054
65.60000 461.873
65.64000 469.437
65.68000 541.437
65.72000 689.084
65.76000 969.678
65.80000 1199.163
65.84000 1306.481
65.88000 1380.743
65.92000 1317.509
65.96000 1098.354
66.00000 788.992
66.04000 531.076
66.08000 408.587
66.12000 349.641
66.16000 323.576
66.20000 324.245
66.24000 322.407
66.28000 368.471
66.32000 426.089
66.36000 480.705
66.40000 518.200
66.44000 513.516
66.48000 491.469
66.52000 467.911
66.56000 405.734
66.60000 378.186
66.64000 344.932
66.68000 320.705
66.72000 344.361
66.76000 347.635
66.80000 336.200
66.84000 352.907
66.88000 347.579
66.92000 352.408
66.96000 365.391
67.00000 367.652
67.04000 387.259
67.08000 392.646
67.12000 392.243
67.16000 387.102
67.20000 388.595
67.24000 408.619
67.28000 413.055
67.32000 423.685
67.36000 447.645
67.40000 460.547
67.44000 433.297
67.48000 463.390
67.52000 458.794
67.56000 469.104
67.60000 463.280
67.64000 485.342
67.68000 493.389
67.72000 505.750
67.76000 513.731
67.80000 532.941
67.84000 528.560
67.88000 545.959
67.92000 539.949
67.96000 566.815
68.00000 583.605
68.04000 607.441
68.08000 610.139
68.12000 624.299
68.16000 670.599
68.20000 678.683
68.24000 652.228
68.28000 685.392
68.32000 735.349
68.36000 738.446
68.40000 791.792
68.44000 803.646
68.48000 844.592
68.52000 882.704
68.56000 968.029
68.60000 1129.841
68.64000 1331.827
68.68000 1598.880
68.72000 1871.431
68.76000 2172.544
68.80000 2417.554
68.84000 2846.415
68.88000 3549.275
68.92000 7020.182
68.96000 17018.109
69.00000 39484.094
69.04000 63759.297
69.08000 77659.172
69.12000 80193.672
69.16000 83004.273
69.20000 82517.117
69.24000 70324.078
69.28000 54820.625
69.32000 44656.648
69.36000 39431.477
69.40000 32535.465
69.44000 20328.607
69.48000 9796.515
69.52000 4388.913
69.56000 2454.159
69.60000 1803.392
69.64000 1525.330
69.68000 1327.150
69.72000 1184.880
69.76000 1101.789
69.80000 1019.621
69.84000 940.732
69.88000 870.132
69.92000 850.642
69.96000 790.578
70.00000 775.319