File: XRD/XRD/30-09-2025 Dep 1/XY Data/BTO_Mapping_Theta2Theta_30-09-2025_001_61_36-542_-16-269.xy
20.00000 577.615
20.04000 564.207
20.08000 561.894
20.12000 564.241
20.16000 576.760
20.20000 565.711
20.24000 553.643
20.28000 564.296
20.32000 574.467
20.36000 569.337
20.40000 581.187
20.44000 565.590
20.48000 568.340
20.52000 574.785
20.56000 549.063
20.60000 559.480
20.64000 557.677
20.68000 558.552
20.72000 564.903
20.76000 561.036
20.80000 567.472
20.84000 551.999
20.88000 565.541
20.92000 550.072
20.96000 549.956
21.00000 549.352
21.04000 559.070
21.08000 559.625
21.12000 574.111
21.16000 572.259
21.20000 559.951
21.24000 546.550
21.28000 574.861
21.32000 563.929
21.36000 572.800
21.40000 530.575
21.44000 574.443
21.48000 546.405
21.52000 584.751
21.56000 571.839
21.60000 572.091
21.64000 601.048
21.68000 622.817
21.72000 644.507
21.76000 666.244
21.80000 722.964
21.84000 797.668
21.88000 818.461
21.92000 892.040
21.96000 904.145
22.00000 921.087
22.04000 859.855
22.08000 800.204
22.12000 768.554
22.16000 702.531
22.20000 633.536
22.24000 611.728
22.28000 576.780
22.32000 584.955
22.36000 550.645
22.40000 559.025
22.44000 529.756
22.48000 548.030
22.52000 543.006
22.56000 524.507
22.60000 528.495
22.64000 530.792
22.68000 541.235
22.72000 525.916
22.76000 519.927
22.80000 522.003
22.84000 523.834
22.88000 534.192
22.92000 532.628
22.96000 541.882
23.00000 550.931
23.04000 522.452
23.08000 520.124
23.12000 525.194
23.16000 515.736
23.20000 523.620
23.24000 529.778
23.28000 511.042
23.32000 526.835
23.36000 504.510
23.40000 542.578
23.44000 498.753
23.48000 507.294
23.52000 498.351
23.56000 500.094
23.60000 519.476
23.64000 514.255
23.68000 514.076
23.72000 515.701
23.76000 516.271
23.80000 508.852
23.84000 504.746
23.88000 505.447
23.92000 510.608
23.96000 491.997
24.00000 501.982
24.04000 521.527
24.08000 497.772
24.12000 496.847
24.16000 503.754
24.20000 505.442
24.24000 488.499
24.28000 486.888
24.32000 501.075
24.36000 499.206
24.40000 495.570
24.44000 505.433
24.48000 500.203
24.52000 501.774
24.56000 497.156
24.60000 497.814
24.64000 490.138
24.68000 495.903
24.72000 500.787
24.76000 494.502
24.80000 472.670
24.84000 477.890
24.88000 493.809
24.92000 477.428
24.96000 486.928
25.00000 473.191
25.04000 477.258
25.08000 479.968
25.12000 500.477
25.16000 492.744
25.20000 475.116
25.24000 479.478
25.28000 468.447
25.32000 479.119
25.36000 482.669
25.40000 474.877
25.44000 474.839
25.48000 474.164
25.52000 486.678
25.56000 485.386
25.60000 474.897
25.64000 481.929
25.68000 487.598
25.72000 480.843
25.76000 470.702
25.80000 488.456
25.84000 463.612
25.88000 464.271
25.92000 496.540
25.96000 483.328
26.00000 472.868
26.04000 460.858
26.08000 478.630
26.12000 469.281
26.16000 488.970
26.20000 471.510
26.24000 464.945
26.28000 473.155
26.32000 456.930
26.36000 452.494
26.40000 472.333
26.44000 459.221
26.48000 465.040
26.52000 455.471
26.56000 468.941
26.60000 470.006
26.64000 446.097
26.68000 473.648
26.72000 455.453
26.76000 462.395
26.80000 459.514
26.84000 439.258
26.88000 456.552
26.92000 446.803
26.96000 460.941
27.00000 491.643
27.04000 464.327
27.08000 467.952
27.12000 463.940
27.16000 456.120
27.20000 448.416
27.24000 460.024
27.28000 454.964
27.32000 446.863
27.36000 451.413
27.40000 444.767
27.44000 433.357
27.48000 436.625
27.52000 436.088
27.56000 452.765
27.60000 449.332
27.64000 463.801
27.68000 442.308
27.72000 441.335
27.76000 441.993
27.80000 452.576
27.84000 450.169
27.88000 442.665
27.92000 449.199
27.96000 462.863
28.00000 437.665
28.04000 453.193
28.08000 461.891
28.12000 452.085
28.16000 453.761
28.20000 459.351
28.24000 443.273
28.28000 473.691
28.32000 444.688
28.36000 447.139
28.40000 454.161
28.44000 431.233
28.48000 431.373
28.52000 434.752
28.56000 422.248
28.60000 442.325
28.64000 438.379
28.68000 444.728
28.72000 425.525
28.76000 423.503
28.80000 420.970
28.84000 406.593
28.88000 429.796
28.92000 431.003
28.96000 428.883
29.00000 436.031
29.04000 418.517
29.08000 434.941
29.12000 443.716
29.16000 436.144
29.20000 426.337
29.24000 429.486
29.28000 414.974
29.32000 447.851
29.36000 424.103
29.40000 414.317
29.44000 426.685
29.48000 418.564
29.52000 427.830
29.56000 418.983
29.60000 437.131
29.64000 421.379
29.68000 444.314
29.72000 432.306
29.76000 446.762
29.80000 441.276
29.84000 478.359
29.88000 452.480
29.92000 477.996
29.96000 489.644
30.00000 460.986
30.04000 478.975
30.08000 467.300
30.12000 442.928
30.16000 438.753
30.20000 433.868
30.24000 446.152
30.28000 447.468
30.32000 449.693
30.36000 445.775
30.40000 446.966
30.44000 452.986
30.48000 454.947
30.52000 462.425
30.56000 455.316
30.60000 453.754
30.64000 455.249
30.68000 462.393
30.72000 482.272
30.76000 488.994
30.80000 505.602
30.84000 522.958
30.88000 541.382
30.92000 591.916
30.96000 681.048
31.00000 818.676
31.04000 1098.555
31.08000 1482.884
31.12000 2063.512
31.16000 2807.345
31.20000 3519.044
31.24000 4131.175
31.28000 4525.803
31.32000 4502.856
31.36000 4146.501
31.40000 3628.269
31.44000 2793.634
31.48000 2062.957
31.52000 1497.804
31.56000 1083.083
31.60000 785.969
31.64000 674.026
31.68000 563.824
31.72000 528.164
31.76000 488.502
31.80000 497.690
31.84000 457.969
31.88000 451.314
31.92000 459.032
31.96000 437.982
32.00000 413.600
32.04000 435.157
32.08000 425.174
32.12000 437.758
32.16000 413.726
32.20000 416.640
32.24000 416.593
32.28000 424.678
32.32000 400.166
32.36000 412.152
32.40000 400.554
32.44000 394.165
32.48000 392.261
32.52000 407.396
32.56000 386.822
32.60000 391.008
32.64000 388.722
32.68000 392.441
32.72000 383.940
32.76000 385.844
32.80000 394.479
32.84000 423.019
32.88000 444.060
32.92000 466.686
32.96000 497.759
33.00000 507.244
33.04000 493.025
33.08000 476.476
33.12000 459.262
33.16000 397.195
33.20000 377.722
33.24000 359.036
33.28000 356.730
33.32000 357.872
33.36000 364.823
33.40000 360.499
33.44000 353.201
33.48000 346.710
33.52000 355.626
33.56000 354.501
33.60000 337.941
33.64000 338.039
33.68000 329.853
33.72000 331.355
33.76000 333.388
33.80000 350.686
33.84000 339.819
33.88000 351.665
33.92000 344.506
33.96000 320.570
34.00000 328.493
34.04000 332.440
34.08000 326.518
34.12000 341.943
34.16000 340.243
34.20000 330.440
34.24000 340.418
34.28000 332.048
34.32000 333.254
34.36000 331.576
34.40000 338.488
34.44000 340.975
34.48000 336.021
34.52000 334.791
34.56000 342.984
34.60000 327.029
34.64000 319.660
34.68000 334.304
34.72000 346.205
34.76000 331.111
34.80000 345.277
34.84000 327.698
34.88000 313.849
34.92000 321.549
34.96000 326.101
35.00000 324.394
35.04000 333.491
35.08000 328.727
35.12000 330.397
35.16000 319.380
35.20000 308.872
35.24000 334.612
35.28000 329.040
35.32000 326.178
35.36000 324.642
35.40000 321.379
35.44000 310.249
35.48000 323.105
35.52000 310.553
35.56000 312.885
35.60000 313.579
35.64000 325.853
35.68000 311.323
35.72000 304.040
35.76000 317.735
35.80000 310.976
35.84000 317.060
35.88000 314.002
35.92000 319.385
35.96000 315.005
36.00000 313.996
36.04000 310.860
36.08000 307.843
36.12000 315.822
36.16000 310.061
36.20000 306.475
36.24000 304.842
36.28000 298.700
36.32000 319.628
36.36000 309.776
36.40000 305.899
36.44000 309.408
36.48000 304.640
36.52000 304.077
36.56000 319.108
36.60000 314.082
36.64000 305.236
36.68000 297.657
36.72000 305.479
36.76000 308.371
36.80000 304.588
36.84000 326.003
36.88000 303.708
36.92000 323.058
36.96000 298.905
37.00000 315.050
37.04000 314.712
37.08000 307.505
37.12000 310.764
37.16000 299.285
37.20000 295.939
37.24000 300.255
37.28000 300.662
37.32000 283.919
37.36000 312.820
37.40000 311.014
37.44000 300.298
37.48000 297.934
37.52000 319.560
37.56000 297.169
37.60000 293.745
37.64000 298.129
37.68000 300.473
37.72000 293.329
37.76000 297.027
37.80000 296.685
37.84000 290.385
37.88000 307.374
37.92000 287.409
37.96000 290.439
38.00000 296.658
38.04000 299.513
38.08000 309.026
38.12000 302.952
38.16000 302.310
38.20000 312.639
38.24000 324.424
38.28000 334.141
38.32000 338.496
38.36000 356.602
38.40000 386.378
38.44000 408.116
38.48000 437.401
38.52000 475.326
38.56000 545.250
38.60000 562.573
38.64000 586.731
38.68000 592.406
38.72000 562.556
38.76000 515.165
38.80000 454.689
38.84000 423.964
38.88000 375.928
38.92000 363.827
38.96000 318.982
39.00000 310.157
39.04000 293.711
39.08000 306.165
39.12000 309.043
39.16000 292.894
39.20000 289.670
39.24000 281.158
39.28000 277.232
39.32000 272.706
39.36000 274.954
39.40000 267.675
39.44000 276.274
39.48000 279.104
39.52000 271.961
39.56000 261.832
39.60000 276.759
39.64000 267.032
39.68000 254.767
39.72000 269.847
39.76000 265.934
39.80000 272.049
39.84000 292.447
39.88000 277.340
39.92000 270.416
39.96000 266.161
40.00000 271.739
40.04000 264.137
40.08000 276.503
40.12000 248.720
40.16000 268.126
40.20000 270.250
40.24000 251.937
40.28000 274.203
40.32000 259.074
40.36000 256.753
40.40000 268.404
40.44000 273.459
40.48000 259.292
40.52000 260.194
40.56000 254.479
40.60000 257.506
40.64000 269.903
40.68000 254.588
40.72000 254.593
40.76000 239.525
40.80000 245.246
40.84000 250.382
40.88000 257.829
40.92000 260.707
40.96000 254.631
41.00000 261.445
41.04000 239.012
41.08000 248.472
41.12000 242.392
41.16000 253.815
41.20000 250.814
41.24000 255.159
41.28000 249.454
41.32000 251.488
41.36000 255.633
41.40000 241.637
41.44000 251.036
41.48000 242.448
41.52000 253.988
41.56000 250.370
41.60000 245.887
41.64000 241.941
41.68000 248.269
41.72000 236.700
41.76000 251.835
41.80000 251.070
41.84000 229.937
41.88000 239.744
41.92000 246.874
41.96000 241.863
42.00000 251.293
42.04000 251.759
42.08000 227.635
42.12000 234.182
42.16000 231.352
42.20000 247.735
42.24000 234.942
42.28000 243.755
42.32000 241.457
42.36000 230.146
42.40000 236.115
42.44000 254.259
42.48000 231.511
42.52000 241.306
42.56000 239.022
42.60000 231.126
42.64000 237.342
42.68000 231.074
42.72000 236.088
42.76000 232.580
42.80000 226.172
42.84000 237.032
42.88000 245.138
42.92000 234.546
42.96000 224.972
43.00000 231.788
43.04000 230.842
43.08000 235.534
43.12000 240.696
43.16000 230.455
43.20000 218.282
43.24000 228.761
43.28000 234.427
43.32000 230.714
43.36000 236.662
43.40000 235.861
43.44000 223.506
43.48000 226.418
43.52000 228.315
43.56000 225.337
43.60000 221.176
43.64000 223.289
43.68000 222.323
43.72000 232.507
43.76000 223.941
43.80000 225.676
43.84000 235.347
43.88000 231.886
43.92000 221.269
43.96000 220.785
44.00000 216.837
44.04000 224.624
44.08000 236.318
44.12000 228.460
44.16000 224.814
44.20000 228.996
44.24000 224.872
44.28000 232.891
44.32000 223.365
44.36000 240.272
44.40000 232.120
44.44000 243.536
44.48000 252.496
44.52000 248.539
44.56000 251.969
44.60000 268.567
44.64000 289.909
44.68000 317.057
44.72000 340.435
44.76000 399.159
44.80000 432.210
44.84000 472.333
44.88000 502.852
44.92000 547.521
44.96000 550.385
45.00000 529.346
45.04000 523.608
45.08000 487.945
45.12000 422.277
45.16000 398.332
45.20000 366.779
45.24000 321.695
45.28000 311.360
45.32000 274.897
45.36000 270.864
45.40000 255.001
45.44000 252.478
45.48000 231.469
45.52000 230.913
45.56000 238.454
45.60000 215.180
45.64000 223.673
45.68000 222.769
45.72000 219.464
45.76000 218.080
45.80000 223.922
45.84000 222.851
45.88000 218.336
45.92000 213.033
45.96000 216.052
46.00000 207.034
46.04000 212.550
46.08000 218.590
46.12000 209.205
46.16000 216.646
46.20000 211.826
46.24000 215.953
46.28000 214.217
46.32000 211.853
46.36000 200.641
46.40000 203.272
46.44000 189.845
46.48000 209.710
46.52000 213.488
46.56000 201.167
46.60000 209.316
46.64000 198.455
46.68000 188.552
46.72000 214.225
46.76000 201.852
46.80000 212.745
46.84000 189.469
46.88000 186.680
46.92000 203.171
46.96000 199.070
47.00000 212.987
47.04000 196.274
47.08000 199.536
47.12000 197.601
47.16000 194.783
47.20000 194.030
47.24000 198.987
47.28000 192.913
47.32000 191.268
47.36000 203.091
47.40000 196.952
47.44000 205.897
47.48000 189.675
47.52000 191.879
47.56000 194.430
47.60000 184.289
47.64000 192.025
47.68000 186.653
47.72000 186.552
47.76000 190.207
47.80000 189.912
47.84000 190.886
47.88000 193.963
47.92000 196.207
47.96000 192.123
48.00000 194.003
48.04000 183.370
48.08000 198.840
48.12000 197.877
48.16000 184.049
48.20000 188.393
48.24000 177.808
48.28000 180.682
48.32000 178.054
48.36000 175.096
48.40000 184.822
48.44000 186.122
48.48000 191.287
48.52000 196.267
48.56000 182.802
48.60000 196.254
48.64000 191.885
48.68000 191.671
48.72000 186.762
48.76000 182.176
48.80000 179.836
48.84000 180.291
48.88000 185.771
48.92000 187.395
48.96000 190.704
49.00000 178.770
49.04000 189.790
49.08000 181.532
49.12000 183.557
49.16000 188.685
49.20000 193.289
49.24000 185.737
49.28000 186.341
49.32000 196.626
49.36000 183.787
49.40000 184.762
49.44000 185.005
49.48000 187.145
49.52000 186.027
49.56000 191.473
49.60000 184.405
49.64000 192.010
49.68000 189.175
49.72000 173.260
49.76000 174.216
49.80000 172.240
49.84000 186.924
49.88000 181.110
49.92000 173.044
49.96000 177.664
50.00000 189.726
50.04000 196.437
50.08000 193.959
50.12000 186.902
50.16000 189.185
50.20000 193.879
50.24000 192.576
50.28000 201.136
50.32000 201.446
50.36000 236.564
50.40000 234.231
50.44000 257.217
50.48000 257.487
50.52000 297.687
50.56000 292.632
50.60000 297.738
50.64000 307.758
50.68000 286.011
50.72000 265.915
50.76000 261.510
50.80000 236.669
50.84000 231.973
50.88000 216.773
50.92000 205.982
50.96000 197.726
51.00000 200.093
51.04000 188.933
51.08000 176.852
51.12000 178.417
51.16000 174.421
51.20000 178.848
51.24000 169.937
51.28000 177.660
51.32000 175.172
51.36000 178.147
51.40000 177.621
51.44000 171.289
51.48000 166.818
51.52000 169.061
51.56000 175.244
51.60000 168.279
51.64000 163.715
51.68000 146.814
51.72000 171.105
51.76000 158.004
51.80000 181.547
51.84000 171.458
51.88000 171.319
51.92000 170.919
51.96000 168.315
52.00000 166.733
52.04000 161.075
52.08000 174.290
52.12000 162.385
52.16000 163.564
52.20000 172.877
52.24000 164.825
52.28000 172.912
52.32000 167.699
52.36000 162.598
52.40000 162.894
52.44000 161.985
52.48000 162.521
52.52000 163.773
52.56000 156.041
52.60000 169.869
52.64000 156.102
52.68000 175.343
52.72000 165.691
52.76000 158.830
52.80000 156.374
52.84000 170.434
52.88000 158.723
52.92000 157.410
52.96000 157.928
53.00000 161.933
53.04000 171.382
53.08000 165.357
53.12000 150.397
53.16000 165.536
53.20000 166.068
53.24000 167.795
53.28000 162.344
53.32000 169.105
53.36000 167.934
53.40000 155.243
53.44000 169.412
53.48000 160.957
53.52000 164.980
53.56000 166.630
53.60000 162.529
53.64000 162.098
53.68000 155.289
53.72000 160.684
53.76000 165.974
53.80000 155.063
53.84000 166.109
53.88000 137.888
53.92000 150.586
53.96000 153.338
54.00000 161.325
54.04000 169.634
54.08000 161.571
54.12000 152.276
54.16000 156.087
54.20000 160.923
54.24000 162.578
54.28000 153.450
54.32000 154.456
54.36000 153.544
54.40000 156.729
54.44000 154.674
54.48000 154.153
54.52000 163.063
54.56000 153.114
54.60000 157.385
54.64000 162.236
54.68000 159.882
54.72000 163.964
54.76000 152.094
54.80000 157.104
54.84000 161.508
54.88000 162.926
54.92000 163.754
54.96000 158.312
55.00000 161.289
55.04000 165.831
55.08000 161.291
55.12000 175.943
55.16000 168.123
55.20000 171.617
55.24000 169.563
55.28000 188.411
55.32000 185.999
55.36000 184.963
55.40000 204.541
55.44000 213.659
55.48000 251.162
55.52000 282.934
55.56000 336.674
55.60000 380.212
55.64000 450.552
55.68000 528.010
55.72000 579.874
55.76000 622.854
55.80000 659.177
55.84000 653.386
55.88000 656.173
55.92000 618.079
55.96000 538.179
56.00000 473.733
56.04000 426.266
56.08000 364.049
56.12000 315.645
56.16000 275.787
56.20000 250.964
56.24000 206.680
56.28000 197.041
56.32000 184.742
56.36000 181.722
56.40000 176.392
56.44000 159.736
56.48000 163.334
56.52000 159.363
56.56000 160.341
56.60000 166.416
56.64000 162.266
56.68000 146.651
56.72000 157.662
56.76000 156.635
56.80000 151.657
56.84000 148.060
56.88000 149.587
56.92000 158.833
56.96000 148.471
57.00000 154.880
57.04000 142.069
57.08000 160.431
57.12000 152.234
57.16000 148.285
57.20000 146.925
57.24000 141.666
57.28000 141.960
57.32000 145.447
57.36000 153.759
57.40000 147.161
57.44000 145.753
57.48000 141.279
57.52000 146.209
57.56000 144.773
57.60000 149.093
57.64000 146.377
57.68000 141.479
57.72000 150.470
57.76000 141.115
57.80000 150.021
57.84000 149.589
57.88000 140.007
57.92000 144.958
57.96000 144.674
58.00000 152.922
58.04000 147.819
58.08000 141.300
58.12000 141.412
58.16000 144.934
58.20000 143.059
58.24000 136.475
58.28000 142.949
58.32000 144.118
58.36000 154.055
58.40000 139.352
58.44000 147.646
58.48000 143.279
58.52000 144.087
58.56000 141.368
58.60000 136.277
58.64000 142.320
58.68000 151.522
58.72000 130.929
58.76000 138.954
58.80000 144.002
58.84000 136.628
58.88000 144.360
58.92000 129.095
58.96000 132.130
59.00000 143.272
59.04000 143.491
59.08000 142.540
59.12000 144.863
59.16000 143.131
59.20000 137.168
59.24000 128.464
59.28000 143.839
59.32000 135.090
59.36000 139.725
59.40000 140.231
59.44000 144.760
59.48000 140.040
59.52000 135.915
59.56000 139.198
59.60000 138.774
59.64000 135.672
59.68000 134.103
59.72000 139.940
59.76000 133.402
59.80000 133.176
59.84000 136.433
59.88000 140.445
59.92000 135.442
59.96000 130.406
60.00000 144.901
60.04000 137.809
60.08000 135.679
60.12000 136.729
60.16000 136.832
60.20000 136.914
60.24000 132.070
60.28000 133.616
60.32000 132.079
60.36000 133.448
60.40000 135.985
60.44000 126.073
60.48000 132.692
60.52000 135.338
60.56000 143.358
60.60000 135.078
60.64000 133.693
60.68000 130.128
60.72000 131.928
60.76000 130.135
60.80000 133.088
60.84000 131.811
60.88000 139.662
60.92000 133.454
60.96000 132.056
61.00000 145.133
61.04000 144.690
61.08000 148.791
61.12000 144.868
61.16000 135.590
61.20000 136.232
61.24000 137.346
61.28000 129.056
61.32000 132.716
61.36000 137.574
61.40000 142.968
61.44000 151.151
61.48000 151.816
61.52000 185.081
61.56000 251.623
61.60000 303.868
61.64000 333.345
61.68000 351.127
61.72000 328.932
61.76000 290.080
61.80000 227.003
61.84000 191.979
61.88000 169.897
61.92000 152.962
61.96000 149.784
62.00000 140.785
62.04000 136.490
62.08000 142.494
62.12000 145.821
62.16000 141.510
62.20000 146.058
62.24000 140.968
62.28000 138.318
62.32000 143.813
62.36000 150.993
62.40000 148.336
62.44000 150.475
62.48000 135.551
62.52000 128.837
62.56000 146.503
62.60000 145.874
62.64000 148.032
62.68000 143.154
62.72000 138.215
62.76000 145.431
62.80000 145.133
62.84000 140.674
62.88000 147.082
62.92000 139.019
62.96000 146.278
63.00000 149.215
63.04000 140.739
63.08000 145.254
63.12000 150.896
63.16000 139.971
63.20000 145.515
63.24000 152.123
63.28000 153.414
63.32000 152.523
63.36000 147.777
63.40000 155.208
63.44000 149.144
63.48000 143.602
63.52000 149.480
63.56000 157.844
63.60000 153.275
63.64000 158.411
63.68000 149.130
63.72000 151.459
63.76000 153.033
63.80000 163.767
63.84000 150.290
63.88000 150.398
63.92000 159.016
63.96000 150.800
64.00000 165.128
64.04000 167.419
64.08000 172.256
64.12000 166.165
64.16000 160.808
64.20000 160.244
64.24000 171.199
64.28000 172.228
64.32000 155.817
64.36000 160.734
64.40000 186.306
64.44000 164.505
64.48000 173.770
64.52000 162.974
64.56000 170.151
64.60000 164.321
64.64000 171.671
64.68000 171.739
64.72000 185.198
64.76000 184.781
64.80000 190.779
64.84000 204.141
64.88000 198.111
64.92000 210.859
64.96000 213.499
65.00000 221.364
65.04000 223.389
65.08000 244.859
65.12000 256.794
65.16000 288.920
65.20000 306.523
65.24000 356.156
65.28000 384.594
65.32000 424.551
65.36000 426.041
65.40000 464.671
65.44000 468.728
65.48000 480.438
65.52000 465.343
65.56000 447.588
65.60000 455.410
65.64000 475.905
65.68000 605.440
65.72000 832.066
65.76000 1085.743
65.80000 1298.152
65.84000 1409.768
65.88000 1374.382
65.92000 1298.890
65.96000 1007.526
66.00000 695.525
66.04000 484.733
66.08000 395.621
66.12000 344.327
66.16000 324.523
66.20000 346.548
66.24000 347.160
66.28000 401.803
66.32000 472.232
66.36000 510.740
66.40000 522.834
66.44000 539.855
66.48000 494.521
66.52000 456.871
66.56000 404.128
66.60000 370.875
66.64000 351.295
66.68000 339.196
66.72000 360.532
66.76000 349.012
66.80000 347.941
66.84000 348.630
66.88000 359.896
66.92000 361.605
66.96000 361.359
67.00000 377.892
67.04000 378.226
67.08000 383.592
67.12000 395.331
67.16000 410.782
67.20000 406.157
67.24000 409.278
67.28000 426.509
67.32000 441.595
67.36000 445.608
67.40000 436.289
67.44000 452.920
67.48000 467.483
67.52000 460.943
67.56000 465.021
67.60000 487.242
67.64000 484.097
67.68000 501.977
67.72000 528.425
67.76000 531.568
67.80000 549.891
67.84000 565.158
67.88000 564.792
67.92000 585.469
67.96000 595.702
68.00000 593.502
68.04000 625.065
68.08000 619.443
68.12000 638.282
68.16000 658.101
68.20000 682.273
68.24000 697.363
68.28000 709.834
68.32000 750.629
68.36000 756.226
68.40000 813.635
68.44000 834.796
68.48000 889.314
68.52000 940.267
68.56000 1063.523
68.60000 1226.554
68.64000 1491.611
68.68000 1751.689
68.72000 2036.565
68.76000 2323.544
68.80000 2655.007
68.84000 3276.705
68.88000 4556.292
68.92000 10996.947
68.96000 26117.441
69.00000 51700.238
69.04000 72751.609
69.08000 81866.516
69.12000 84490.727
69.16000 87055.078
69.20000 82285.570
69.24000 66565.023
69.28000 51640.938
69.32000 44022.219
69.36000 38627.363
69.40000 29056.730
69.44000 16378.742
69.48000 7367.527
69.52000 3582.960
69.56000 2273.773
69.60000 1751.306
69.64000 1495.743
69.68000 1344.950
69.72000 1202.435
69.76000 1121.104
69.80000 1008.279
69.84000 943.123
69.88000 897.492
69.92000 840.468
69.96000 819.266
70.00000 782.722