File: XRD/XRD/30-09-2025 Dep 1/XY Data/BTO_Mapping_Theta2Theta_30-09-2025_001_52_9-271_-28-532.xy
20.00000 570.329
20.04000 566.747
20.08000 581.104
20.12000 574.894
20.16000 575.158
20.20000 570.432
20.24000 568.099
20.28000 572.245
20.32000 570.576
20.36000 590.763
20.40000 568.976
20.44000 578.903
20.48000 567.927
20.52000 540.146
20.56000 562.730
20.60000 558.389
20.64000 553.427
20.68000 578.848
20.72000 581.419
20.76000 567.525
20.80000 576.099
20.84000 578.045
20.88000 554.598
20.92000 544.622
20.96000 576.062
21.00000 580.300
21.04000 573.438
21.08000 555.102
21.12000 566.744
21.16000 575.249
21.20000 587.131
21.24000 569.933
21.28000 580.447
21.32000 586.129
21.36000 579.313
21.40000 569.665
21.44000 556.775
21.48000 576.181
21.52000 595.636
21.56000 585.665
21.60000 593.424
21.64000 630.189
21.68000 686.294
21.72000 729.664
21.76000 783.154
21.80000 871.247
21.84000 959.144
21.88000 1042.858
21.92000 1057.619
21.96000 1103.967
22.00000 1065.894
22.04000 1016.852
22.08000 940.174
22.12000 834.585
22.16000 732.973
22.20000 680.793
22.24000 660.264
22.28000 615.665
22.32000 583.920
22.36000 580.121
22.40000 563.471
22.44000 564.106
22.48000 561.220
22.52000 556.520
22.56000 562.088
22.60000 556.533
22.64000 549.296
22.68000 543.117
22.72000 523.369
22.76000 512.023
22.80000 537.866
22.84000 546.130
22.88000 523.634
22.92000 541.014
22.96000 536.689
23.00000 523.400
23.04000 530.331
23.08000 517.040
23.12000 528.829
23.16000 525.111
23.20000 529.373
23.24000 537.444
23.28000 520.808
23.32000 508.530
23.36000 513.934
23.40000 534.979
23.44000 504.332
23.48000 515.888
23.52000 545.119
23.56000 522.521
23.60000 519.848
23.64000 520.146
23.68000 525.110
23.72000 530.530
23.76000 529.700
23.80000 497.580
23.84000 505.901
23.88000 533.246
23.92000 489.254
23.96000 507.390
24.00000 525.388
24.04000 508.385
24.08000 508.688
24.12000 505.820
24.16000 529.375
24.20000 513.543
24.24000 487.673
24.28000 499.085
24.32000 513.456
24.36000 506.825
24.40000 517.662
24.44000 510.159
24.48000 486.647
24.52000 501.559
24.56000 495.569
24.60000 498.230
24.64000 483.281
24.68000 494.968
24.72000 496.938
24.76000 519.141
24.80000 510.559
24.84000 499.700
24.88000 486.025
24.92000 508.322
24.96000 495.119
25.00000 494.507
25.04000 498.623
25.08000 505.447
25.12000 509.637
25.16000 491.053
25.20000 501.939
25.24000 507.026
25.28000 486.761
25.32000 496.382
25.36000 490.070
25.40000 494.087
25.44000 474.680
25.48000 500.854
25.52000 484.303
25.56000 499.045
25.60000 498.347
25.64000 486.238
25.68000 498.015
25.72000 487.235
25.76000 478.715
25.80000 472.444
25.84000 483.652
25.88000 471.868
25.92000 508.613
25.96000 483.463
26.00000 498.724
26.04000 490.086
26.08000 481.233
26.12000 509.341
26.16000 488.305
26.20000 475.796
26.24000 509.809
26.28000 491.141
26.32000 491.526
26.36000 467.226
26.40000 479.398
26.44000 489.936
26.48000 473.996
26.52000 462.930
26.56000 487.044
26.60000 473.680
26.64000 455.864
26.68000 466.760
26.72000 468.746
26.76000 478.410
26.80000 472.194
26.84000 464.966
26.88000 462.378
26.92000 460.011
26.96000 478.848
27.00000 480.247
27.04000 489.252
27.08000 477.494
27.12000 477.700
27.16000 477.274
27.20000 477.799
27.24000 447.807
27.28000 465.704
27.32000 455.219
27.36000 480.994
27.40000 468.521
27.44000 477.875
27.48000 465.949
27.52000 460.263
27.56000 463.152
27.60000 471.807
27.64000 477.567
27.68000 470.309
27.72000 475.113
27.76000 471.096
27.80000 444.614
27.84000 445.161
27.88000 459.866
27.92000 467.010
27.96000 451.549
28.00000 462.988
28.04000 455.097
28.08000 481.424
28.12000 453.080
28.16000 473.097
28.20000 453.212
28.24000 458.261
28.28000 459.009
28.32000 459.722
28.36000 458.817
28.40000 453.501
28.44000 464.631
28.48000 443.870
28.52000 451.249
28.56000 447.344
28.60000 434.355
28.64000 438.364
28.68000 452.535
28.72000 446.045
28.76000 431.792
28.80000 440.210
28.84000 445.988
28.88000 446.641
28.92000 440.917
28.96000 442.949
29.00000 443.573
29.04000 459.753
29.08000 438.930
29.12000 443.605
29.16000 433.446
29.20000 454.286
29.24000 434.556
29.28000 434.183
29.32000 415.481
29.36000 445.023
29.40000 435.300
29.44000 447.840
29.48000 438.462
29.52000 444.835
29.56000 425.108
29.60000 448.448
29.64000 452.648
29.68000 445.845
29.72000 446.289
29.76000 456.904
29.80000 478.799
29.84000 484.998
29.88000 467.279
29.92000 485.845
29.96000 482.418
30.00000 483.721
30.04000 459.934
30.08000 481.939
30.12000 447.217
30.16000 476.269
30.20000 452.028
30.24000 446.555
30.28000 453.844
30.32000 445.358
30.36000 474.199
30.40000 478.827
30.44000 443.203
30.48000 489.839
30.52000 477.616
30.56000 473.643
30.60000 486.218
30.64000 509.314
30.68000 502.644
30.72000 503.111
30.76000 530.167
30.80000 556.814
30.84000 574.792
30.88000 599.414
30.92000 726.567
30.96000 875.037
31.00000 1137.574
31.04000 1518.556
31.08000 2085.252
31.12000 2706.327
31.16000 3321.976
31.20000 3812.320
31.24000 4061.565
31.28000 4045.367
31.32000 3732.845
31.36000 3185.221
31.40000 2561.770
31.44000 1925.911
31.48000 1437.783
31.52000 1057.835
31.56000 863.255
31.60000 727.055
31.64000 616.683
31.68000 584.943
31.72000 539.890
31.76000 513.751
31.80000 480.285
31.84000 469.900
31.88000 442.601
31.92000 446.440
31.96000 461.677
32.00000 441.128
32.04000 435.986
32.08000 419.389
32.12000 425.542
32.16000 430.735
32.20000 428.590
32.24000 429.538
32.28000 411.649
32.32000 394.768
32.36000 414.914
32.40000 416.448
32.44000 412.623
32.48000 397.035
32.52000 411.082
32.56000 392.366
32.60000 383.882
32.64000 391.390
32.68000 400.654
32.72000 390.375
32.76000 385.109
32.80000 398.048
32.84000 393.081
32.88000 437.609
32.92000 467.882
32.96000 493.721
33.00000 521.858
33.04000 484.009
33.08000 477.022
33.12000 456.746
33.16000 401.776
33.20000 389.656
33.24000 379.361
33.28000 363.932
33.32000 361.386
33.36000 350.053
33.40000 357.180
33.44000 368.586
33.48000 355.017
33.52000 363.783
33.56000 350.371
33.60000 346.994
33.64000 351.977
33.68000 349.159
33.72000 359.708
33.76000 336.500
33.80000 359.253
33.84000 355.920
33.88000 362.874
33.92000 347.541
33.96000 347.184
34.00000 338.576
34.04000 353.812
34.08000 355.951
34.12000 332.840
34.16000 331.436
34.20000 345.309
34.24000 344.550
34.28000 328.641
34.32000 351.023
34.36000 343.337
34.40000 340.128
34.44000 343.745
34.48000 342.626
34.52000 334.085
34.56000 330.288
34.60000 346.122
34.64000 322.146
34.68000 322.302
34.72000 350.888
34.76000 342.846
34.80000 333.266
34.84000 332.961
34.88000 336.381
34.92000 337.715
34.96000 328.734
35.00000 305.646
35.04000 331.502
35.08000 330.948
35.12000 332.062
35.16000 324.415
35.20000 313.059
35.24000 316.959
35.28000 315.939
35.32000 324.495
35.36000 310.308
35.40000 332.042
35.44000 320.115
35.48000 324.006
35.52000 325.780
35.56000 335.521
35.60000 325.128
35.64000 332.031
35.68000 323.400
35.72000 318.000
35.76000 323.206
35.80000 329.852
35.84000 312.854
35.88000 322.354
35.92000 311.382
35.96000 328.462
36.00000 314.008
36.04000 307.615
36.08000 317.445
36.12000 311.038
36.16000 314.238
36.20000 317.090
36.24000 310.187
36.28000 319.750
36.32000 303.345
36.36000 298.982
36.40000 312.469
36.44000 314.712
36.48000 315.682
36.52000 306.236
36.56000 302.097
36.60000 306.706
36.64000 303.560
36.68000 295.627
36.72000 317.491
36.76000 318.848
36.80000 320.368
36.84000 312.574
36.88000 302.631
36.92000 319.524
36.96000 312.902
37.00000 316.599
37.04000 320.475
37.08000 324.584
37.12000 302.134
37.16000 297.851
37.20000 314.618
37.24000 303.866
37.28000 320.411
37.32000 300.403
37.36000 314.177
37.40000 291.089
37.44000 304.264
37.48000 298.843
37.52000 297.816
37.56000 315.284
37.60000 306.060
37.64000 304.173
37.68000 304.876
37.72000 307.660
37.76000 301.856
37.80000 291.398
37.84000 321.065
37.88000 314.523
37.92000 309.887
37.96000 313.529
38.00000 301.715
38.04000 302.944
38.08000 308.564
38.12000 316.585
38.16000 319.933
38.20000 323.251
38.24000 339.447
38.28000 344.745
38.32000 363.687
38.36000 390.407
38.40000 420.493
38.44000 445.348
38.48000 462.321
38.52000 484.240
38.56000 497.552
38.60000 491.202
38.64000 481.934
38.68000 446.214
38.72000 418.977
38.76000 393.792
38.80000 380.770
38.84000 353.387
38.88000 338.783
38.92000 340.857
38.96000 319.757
39.00000 308.001
39.04000 308.305
39.08000 306.438
39.12000 293.546
39.16000 290.706
39.20000 292.694
39.24000 284.590
39.28000 280.847
39.32000 282.496
39.36000 276.903
39.40000 280.220
39.44000 303.616
39.48000 272.591
39.52000 284.259
39.56000 272.464
39.60000 269.444
39.64000 263.677
39.68000 265.010
39.72000 279.269
39.76000 272.468
39.80000 276.085
39.84000 279.662
39.88000 267.678
39.92000 272.996
39.96000 264.996
40.00000 275.063
40.04000 288.597
40.08000 251.387
40.12000 281.892
40.16000 272.967
40.20000 255.062
40.24000 266.020
40.28000 260.226
40.32000 254.596
40.36000 260.719
40.40000 270.733
40.44000 260.492
40.48000 262.742
40.52000 268.811
40.56000 256.495
40.60000 253.330
40.64000 258.559
40.68000 266.973
40.72000 250.560
40.76000 257.689
40.80000 256.048
40.84000 259.979
40.88000 256.833
40.92000 253.023
40.96000 257.412
41.00000 265.843
41.04000 269.723
41.08000 241.449
41.12000 254.059
41.16000 259.910
41.20000 264.336
41.24000 263.972
41.28000 245.215
41.32000 253.964
41.36000 243.735
41.40000 260.290
41.44000 260.904
41.48000 246.858
41.52000 254.772
41.56000 249.740
41.60000 259.496
41.64000 241.578
41.68000 245.225
41.72000 235.869
41.76000 235.019
41.80000 251.689
41.84000 244.016
41.88000 252.043
41.92000 249.561
41.96000 248.390
42.00000 265.488
42.04000 255.028
42.08000 240.236
42.12000 239.268
42.16000 257.026
42.20000 242.186
42.24000 247.494
42.28000 242.706
42.32000 245.042
42.36000 246.864
42.40000 252.595
42.44000 241.419
42.48000 234.434
42.52000 234.612
42.56000 252.092
42.60000 253.598
42.64000 249.272
42.68000 248.183
42.72000 242.670
42.76000 250.577
42.80000 260.518
42.84000 245.256
42.88000 240.306
42.92000 241.182
42.96000 242.244
43.00000 253.043
43.04000 229.514
43.08000 255.839
43.12000 236.079
43.16000 235.729
43.20000 245.295
43.24000 243.810
43.28000 238.085
43.32000 230.751
43.36000 236.429
43.40000 236.455
43.44000 239.286
43.48000 233.655
43.52000 222.786
43.56000 231.409
43.60000 229.699
43.64000 239.880
43.68000 227.801
43.72000 232.134
43.76000 227.178
43.80000 232.134
43.84000 250.585
43.88000 252.734
43.92000 246.583
43.96000 239.589
44.00000 237.243
44.04000 238.388
44.08000 246.544
44.12000 236.262
44.16000 262.256
44.20000 248.838
44.24000 253.988
44.28000 241.110
44.32000 249.608
44.36000 268.398
44.40000 276.563
44.44000 288.764
44.48000 311.813
44.52000 326.700
44.56000 368.900
44.60000 403.142
44.64000 468.236
44.68000 518.377
44.72000 577.863
44.76000 618.706
44.80000 678.127
44.84000 702.708
44.88000 721.439
44.92000 679.983
44.96000 687.007
45.00000 626.723
45.04000 563.315
45.08000 514.557
45.12000 478.111
45.16000 428.292
45.20000 372.286
45.24000 350.123
45.28000 326.345
45.32000 304.444
45.36000 288.534
45.40000 265.905
45.44000 262.822
45.48000 257.483
45.52000 232.872
45.56000 240.700
45.60000 225.075
45.64000 228.222
45.68000 223.740
45.72000 240.141
45.76000 232.029
45.80000 225.573
45.84000 224.948
45.88000 233.106
45.92000 226.051
45.96000 217.948
46.00000 224.841
46.04000 214.398
46.08000 210.749
46.12000 203.983
46.16000 214.863
46.20000 230.500
46.24000 221.511
46.28000 198.329
46.32000 207.782
46.36000 208.572
46.40000 208.669
46.44000 216.825
46.48000 221.272
46.52000 208.860
46.56000 218.835
46.60000 210.293
46.64000 217.091
46.68000 211.268
46.72000 210.097
46.76000 210.857
46.80000 207.689
46.84000 202.846
46.88000 206.279
46.92000 203.656
46.96000 214.158
47.00000 204.610
47.04000 205.676
47.08000 206.367
47.12000 203.005
47.16000 205.961
47.20000 206.802
47.24000 195.998
47.28000 197.669
47.32000 192.532
47.36000 201.275
47.40000 204.899
47.44000 196.141
47.48000 205.254
47.52000 204.845
47.56000 206.794
47.60000 204.865
47.64000 190.278
47.68000 175.178
47.72000 191.567
47.76000 213.753
47.80000 194.424
47.84000 200.375
47.88000 197.210
47.92000 198.824
47.96000 198.776
48.00000 188.893
48.04000 185.206
48.08000 212.532
48.12000 203.339
48.16000 193.868
48.20000 200.187
48.24000 199.782
48.28000 201.779
48.32000 193.839
48.36000 201.276
48.40000 188.274
48.44000 200.918
48.48000 192.767
48.52000 196.850
48.56000 192.993
48.60000 189.806
48.64000 192.755
48.68000 190.746
48.72000 200.759
48.76000 195.899
48.80000 194.518
48.84000 199.358
48.88000 206.084
48.92000 199.594
48.96000 189.542
49.00000 180.478
49.04000 180.361
49.08000 185.181
49.12000 190.847
49.16000 186.205
49.20000 180.978
49.24000 195.013
49.28000 185.102
49.32000 185.405
49.36000 189.364
49.40000 176.307
49.44000 177.204
49.48000 191.159
49.52000 188.952
49.56000 183.342
49.60000 177.127
49.64000 191.466
49.68000 185.567
49.72000 182.964
49.76000 197.377
49.80000 183.690
49.84000 186.833
49.88000 186.041
49.92000 172.226
49.96000 179.681
50.00000 197.203
50.04000 211.521
50.08000 197.955
50.12000 186.906
50.16000 203.277
50.20000 209.682
50.24000 225.033
50.28000 228.110
50.32000 240.195
50.36000 261.893
50.40000 267.921
50.44000 263.058
50.48000 284.791
50.52000 284.574
50.56000 293.244
50.60000 292.707
50.64000 283.581
50.68000 261.921
50.72000 247.626
50.76000 236.152
50.80000 221.299
50.84000 200.151
50.88000 212.588
50.92000 203.170
50.96000 187.496
51.00000 195.328
51.04000 184.344
51.08000 187.048
51.12000 171.772
51.16000 182.162
51.20000 177.228
51.24000 174.628
51.28000 168.917
51.32000 174.627
51.36000 170.524
51.40000 180.108
51.44000 176.475
51.48000 162.891
51.52000 170.566
51.56000 173.082
51.60000 177.749
51.64000 182.008
51.68000 181.203
51.72000 172.387
51.76000 175.020
51.80000 171.902
51.84000 164.687
51.88000 170.458
51.92000 168.464
51.96000 168.717
52.00000 168.506
52.04000 170.588
52.08000 186.021
52.12000 172.834
52.16000 157.360
52.20000 169.011
52.24000 170.038
52.28000 167.770
52.32000 168.751
52.36000 169.371
52.40000 177.055
52.44000 168.159
52.48000 166.466
52.52000 173.589
52.56000 166.789
52.60000 169.415
52.64000 167.112
52.68000 163.823
52.72000 170.554
52.76000 160.473
52.80000 159.006
52.84000 165.182
52.88000 162.653
52.92000 165.199
52.96000 164.134
53.00000 158.216
53.04000 169.194
53.08000 165.536
53.12000 169.638
53.16000 161.222
53.20000 167.771
53.24000 157.726
53.28000 171.248
53.32000 171.114
53.36000 155.418
53.40000 166.331
53.44000 162.824
53.48000 157.426
53.52000 160.478
53.56000 160.347
53.60000 167.927
53.64000 164.194
53.68000 154.340
53.72000 158.796
53.76000 168.029
53.80000 170.771
53.84000 149.385
53.88000 163.977
53.92000 168.041
53.96000 158.640
54.00000 160.848
54.04000 152.960
54.08000 156.358
54.12000 161.461
54.16000 155.024
54.20000 173.049
54.24000 162.249
54.28000 151.532
54.32000 158.038
54.36000 145.393
54.40000 162.907
54.44000 162.801
54.48000 171.190
54.52000 162.901
54.56000 165.793
54.60000 163.953
54.64000 164.739
54.68000 150.775
54.72000 163.852
54.76000 151.639
54.80000 153.637
54.84000 164.600
54.88000 167.171
54.92000 166.577
54.96000 169.256
55.00000 173.143
55.04000 170.132
55.08000 179.524
55.12000 181.089
55.16000 168.080
55.20000 186.231
55.24000 186.867
55.28000 201.379
55.32000 213.380
55.36000 229.605
55.40000 252.013
55.44000 294.390
55.48000 325.596
55.52000 386.305
55.56000 426.013
55.60000 472.889
55.64000 498.147
55.68000 526.458
55.72000 564.139
55.76000 533.217
55.80000 516.559
55.84000 491.451
55.88000 442.678
55.92000 416.144
55.96000 362.660
56.00000 321.873
56.04000 283.352
56.08000 251.641
56.12000 238.145
56.16000 212.348
56.20000 205.983
56.24000 197.446
56.28000 183.102
56.32000 180.353
56.36000 171.277
56.40000 182.809
56.44000 161.729
56.48000 167.778
56.52000 170.092
56.56000 170.803
56.60000 165.713
56.64000 155.671
56.68000 157.701
56.72000 147.899
56.76000 158.500
56.80000 160.517
56.84000 150.999
56.88000 160.468
56.92000 157.707
56.96000 151.402
57.00000 161.044
57.04000 143.486
57.08000 145.427
57.12000 154.198
57.16000 159.166
57.20000 155.494
57.24000 147.293
57.28000 153.104
57.32000 146.365
57.36000 138.475
57.40000 149.024
57.44000 158.912
57.48000 150.564
57.52000 143.847
57.56000 147.211
57.60000 135.060
57.64000 156.967
57.68000 145.045
57.72000 148.041
57.76000 142.801
57.80000 151.334
57.84000 151.321
57.88000 152.501
57.92000 148.840
57.96000 144.505
58.00000 151.011
58.04000 147.639
58.08000 140.928
58.12000 137.676
58.16000 147.331
58.20000 137.686
58.24000 147.753
58.28000 141.734
58.32000 146.142
58.36000 140.434
58.40000 137.198
58.44000 136.797
58.48000 131.779
58.52000 152.428
58.56000 143.465
58.60000 147.240
58.64000 135.575
58.68000 137.122
58.72000 139.292
58.76000 138.997
58.80000 148.449
58.84000 145.225
58.88000 138.759
58.92000 141.152
58.96000 142.083
59.00000 141.606
59.04000 152.095
59.08000 134.134
59.12000 133.982
59.16000 138.946
59.20000 138.467
59.24000 131.948
59.28000 130.131
59.32000 133.494
59.36000 135.012
59.40000 135.930
59.44000 138.157
59.48000 140.294
59.52000 146.176
59.56000 139.557
59.60000 145.347
59.64000 139.677
59.68000 137.484
59.72000 135.989
59.76000 132.693
59.80000 137.957
59.84000 142.251
59.88000 139.794
59.92000 137.122
59.96000 131.712
60.00000 131.520
60.04000 143.700
60.08000 131.828
60.12000 134.633
60.16000 128.739
60.20000 140.588
60.24000 137.315
60.28000 140.538
60.32000 140.163
60.36000 132.337
60.40000 131.045
60.44000 131.454
60.48000 135.690
60.52000 137.591
60.56000 142.370
60.60000 141.783
60.64000 141.197
60.68000 132.696
60.72000 135.423
60.76000 135.011
60.80000 130.653
60.84000 128.332
60.88000 135.212
60.92000 134.084
60.96000 139.246
61.00000 146.822
61.04000 137.192
61.08000 146.702
61.12000 127.852
61.16000 132.008
61.20000 152.716
61.24000 134.961
61.28000 146.582
61.32000 137.323
61.36000 136.567
61.40000 139.352
61.44000 149.611
61.48000 151.765
61.52000 199.475
61.56000 234.747
61.60000 290.384
61.64000 322.708
61.68000 326.693
61.72000 347.058
61.76000 322.893
61.80000 254.640
61.84000 200.950
61.88000 165.260
61.92000 158.644
61.96000 147.419
62.00000 138.465
62.04000 144.931
62.08000 147.218
62.12000 151.320
62.16000 161.055
62.20000 159.812
62.24000 148.176
62.28000 145.694
62.32000 141.935
62.36000 149.429
62.40000 151.750
62.44000 138.055
62.48000 141.931
62.52000 141.444
62.56000 146.423
62.60000 143.560
62.64000 158.940
62.68000 142.705
62.72000 147.914
62.76000 146.929
62.80000 143.548
62.84000 146.197
62.88000 141.262
62.92000 157.134
62.96000 149.696
63.00000 144.495
63.04000 143.174
63.08000 159.871
63.12000 148.171
63.16000 151.745
63.20000 149.811
63.24000 147.230
63.28000 153.904
63.32000 162.655
63.36000 155.401
63.40000 148.333
63.44000 142.544
63.48000 148.411
63.52000 157.509
63.56000 167.255
63.60000 147.837
63.64000 155.424
63.68000 154.206
63.72000 153.263
63.76000 165.697
63.80000 153.438
63.84000 155.749
63.88000 147.958
63.92000 156.783
63.96000 157.838
64.00000 162.248
64.04000 165.038
64.08000 166.304
64.12000 160.261
64.16000 165.297
64.20000 151.619
64.24000 170.123
64.28000 168.945
64.32000 166.663
64.36000 172.162
64.40000 179.134
64.44000 181.349
64.48000 172.901
64.52000 173.060
64.56000 173.784
64.60000 185.233
64.64000 181.399
64.68000 185.160
64.72000 192.335
64.76000 190.719
64.80000 195.173
64.84000 203.821
64.88000 207.509
64.92000 227.442
64.96000 247.976
65.00000 266.000
65.04000 275.967
65.08000 319.522
65.12000 338.407
65.16000 374.098
65.20000 385.700
65.24000 418.020
65.28000 431.591
65.32000 444.207
65.36000 424.428
65.40000 420.582
65.44000 404.851
65.48000 391.815
65.52000 363.917
65.56000 352.529
65.60000 371.897
65.64000 391.721
65.68000 492.562
65.72000 700.604
65.76000 977.027
65.80000 1216.618
65.84000 1344.084
65.88000 1405.656
65.92000 1310.607
65.96000 1088.988
66.00000 781.020
66.04000 508.264
66.08000 405.245
66.12000 368.477
66.16000 335.095
66.20000 330.387
66.24000 354.596
66.28000 386.494
66.32000 432.998
66.36000 493.772
66.40000 548.076
66.44000 529.604
66.48000 503.180
66.52000 465.697
66.56000 393.344
66.60000 363.875
66.64000 347.367
66.68000 329.999
66.72000 340.742
66.76000 356.854
66.80000 353.897
66.84000 354.517
66.88000 356.905
66.92000 355.923
66.96000 365.716
67.00000 379.475
67.04000 380.386
67.08000 384.003
67.12000 405.648
67.16000 405.581
67.20000 401.531
67.24000 398.839
67.28000 419.924
67.32000 433.395
67.36000 436.655
67.40000 443.268
67.44000 463.170
67.48000 456.062
67.52000 460.844
67.56000 468.534
67.60000 494.630
67.64000 475.488
67.68000 499.937
67.72000 530.314
67.76000 527.945
67.80000 539.569
67.84000 537.241
67.88000 549.865
67.92000 552.801
67.96000 567.917
68.00000 596.240
68.04000 588.162
68.08000 603.804
68.12000 634.221
68.16000 647.364
68.20000 651.649
68.24000 675.860
68.28000 728.395
68.32000 742.764
68.36000 764.585
68.40000 767.045
68.44000 825.280
68.48000 880.887
68.52000 927.255
68.56000 1039.319
68.60000 1172.039
68.64000 1387.311
68.68000 1684.928
68.72000 1961.538
68.76000 2197.492
68.80000 2540.437
68.84000 2985.920
68.88000 3847.505
68.92000 8482.582
68.96000 20400.961
69.00000 44449.527
69.04000 68071.063
69.08000 80082.609
69.12000 83149.742
69.16000 86066.406
69.20000 84212.219
69.24000 70274.633
69.28000 54941.547
69.32000 45613.145
69.36000 40179.402
69.40000 31995.797
69.44000 19379.166
69.48000 9387.753
69.52000 4216.346
69.56000 2520.011
69.60000 1847.893
69.64000 1519.114
69.68000 1343.288
69.72000 1195.053
69.76000 1123.953
69.80000 1043.832
69.84000 962.297
69.88000 880.149
69.92000 869.682
69.96000 818.442
70.00000 770.179