File: XRD/XRD/30-09-2025 Dep 1/XY Data/BTO_Mapping_Theta2Theta_30-09-2025_001_22_-5-000_8-660.xy
20.00000 548.488
20.04000 569.862
20.08000 561.514
20.12000 568.470
20.16000 573.491
20.20000 548.850
20.24000 565.230
20.28000 556.041
20.32000 553.126
20.36000 559.750
20.40000 585.220
20.44000 573.016
20.48000 555.177
20.52000 568.220
20.56000 560.182
20.60000 574.290
20.64000 564.529
20.68000 562.396
20.72000 565.095
20.76000 544.566
20.80000 556.600
20.84000 539.996
20.88000 546.130
20.92000 550.795
20.96000 567.623
21.00000 563.525
21.04000 570.245
21.08000 546.663
21.12000 559.682
21.16000 524.059
21.20000 549.107
21.24000 537.862
21.28000 562.984
21.32000 553.900
21.36000 556.097
21.40000 553.452
21.44000 562.989
21.48000 545.144
21.52000 543.940
21.56000 549.528
21.60000 543.892
21.64000 547.784
21.68000 563.740
21.72000 580.801
21.76000 566.636
21.80000 583.146
21.84000 582.082
21.88000 612.944
21.92000 646.250
21.96000 642.234
22.00000 688.871
22.04000 699.496
22.08000 683.413
22.12000 682.331
22.16000 685.162
22.20000 643.709
22.24000 629.724
22.28000 581.580
22.32000 581.769
22.36000 553.599
22.40000 557.414
22.44000 544.763
22.48000 523.380
22.52000 535.640
22.56000 537.134
22.60000 505.853
22.64000 516.626
22.68000 517.140
22.72000 538.545
22.76000 546.173
22.80000 515.273
22.84000 521.919
22.88000 501.615
22.92000 512.976
22.96000 523.665
23.00000 526.397
23.04000 509.164
23.08000 524.753
23.12000 532.818
23.16000 508.451
23.20000 484.807
23.24000 510.880
23.28000 524.732
23.32000 502.630
23.36000 509.166
23.40000 510.877
23.44000 511.473
23.48000 514.475
23.52000 504.883
23.56000 503.357
23.60000 492.434
23.64000 496.169
23.68000 508.309
23.72000 510.434
23.76000 513.508
23.80000 520.163
23.84000 508.280
23.88000 505.530
23.92000 523.396
23.96000 530.186
24.00000 537.224
24.04000 558.834
24.08000 515.444
24.12000 519.184
24.16000 549.162
24.20000 536.615
24.24000 530.552
24.28000 518.236
24.32000 518.358
24.36000 498.877
24.40000 508.350
24.44000 502.530
24.48000 495.034
24.52000 485.503
24.56000 501.305
24.60000 487.377
24.64000 489.615
24.68000 502.138
24.72000 494.453
24.76000 514.036
24.80000 485.426
24.84000 506.720
24.88000 455.598
24.92000 486.948
24.96000 499.059
25.00000 483.691
25.04000 482.173
25.08000 492.844
25.12000 475.212
25.16000 479.879
25.20000 493.023
25.24000 476.776
25.28000 483.862
25.32000 471.843
25.36000 456.225
25.40000 468.345
25.44000 470.307
25.48000 455.931
25.52000 478.214
25.56000 474.861
25.60000 449.278
25.64000 463.364
25.68000 461.423
25.72000 461.495
25.76000 450.541
25.80000 486.228
25.84000 459.736
25.88000 480.763
25.92000 457.632
25.96000 456.287
26.00000 445.283
26.04000 478.834
26.08000 481.266
26.12000 453.482
26.16000 453.147
26.20000 478.222
26.24000 443.559
26.28000 463.173
26.32000 460.827
26.36000 459.507
26.40000 457.985
26.44000 443.161
26.48000 460.338
26.52000 482.008
26.56000 459.408
26.60000 430.849
26.64000 441.078
26.68000 454.379
26.72000 458.036
26.76000 441.734
26.80000 449.319
26.84000 457.616
26.88000 448.436
26.92000 427.419
26.96000 443.661
27.00000 447.802
27.04000 442.589
27.08000 430.451
27.12000 432.861
27.16000 434.704
27.20000 433.383
27.24000 430.849
27.28000 447.286
27.32000 443.982
27.36000 439.658
27.40000 427.212
27.44000 443.720
27.48000 432.438
27.52000 455.861
27.56000 436.622
27.60000 430.790
27.64000 434.972
27.68000 445.477
27.72000 431.641
27.76000 439.833
27.80000 450.363
27.84000 436.013
27.88000 435.812
27.92000 423.926
27.96000 434.241
28.00000 434.045
28.04000 437.543
28.08000 442.357
28.12000 443.044
28.16000 447.993
28.20000 439.377
28.24000 426.480
28.28000 445.919
28.32000 437.568
28.36000 423.739
28.40000 433.026
28.44000 435.841
28.48000 429.718
28.52000 432.843
28.56000 420.463
28.60000 410.802
28.64000 439.464
28.68000 421.504
28.72000 423.577
28.76000 429.106
28.80000 446.166
28.84000 427.747
28.88000 428.784
28.92000 423.624
28.96000 417.861
29.00000 425.969
29.04000 426.446
29.08000 429.835
29.12000 408.110
29.16000 417.306
29.20000 438.621
29.24000 415.647
29.28000 410.210
29.32000 411.461
29.36000 419.000
29.40000 415.164
29.44000 407.372
29.48000 412.880
29.52000 419.934
29.56000 415.659
29.60000 401.710
29.64000 424.118
29.68000 413.395
29.72000 425.927
29.76000 421.804
29.80000 413.140
29.84000 429.220
29.88000 415.259
29.92000 417.674
29.96000 441.683
30.00000 439.590
30.04000 453.814
30.08000 445.671
30.12000 443.477
30.16000 419.665
30.20000 423.542
30.24000 426.866
30.28000 441.789
30.32000 413.594
30.36000 438.792
30.40000 412.466
30.44000 434.434
30.48000 428.646
30.52000 432.606
30.56000 416.286
30.60000 435.123
30.64000 438.318
30.68000 433.795
30.72000 446.392
30.76000 461.621
30.80000 440.000
30.84000 445.492
30.88000 484.745
30.92000 492.965
30.96000 517.898
31.00000 529.135
31.04000 586.709
31.08000 699.947
31.12000 854.922
31.16000 1094.827
31.20000 1500.144
31.24000 1952.136
31.28000 2511.749
31.32000 3032.794
31.36000 3373.526
31.40000 3394.727
31.44000 3177.450
31.48000 2783.714
31.52000 2248.593
31.56000 1738.465
31.60000 1256.387
31.64000 929.885
31.68000 708.272
31.72000 592.652
31.76000 543.957
31.80000 492.930
31.84000 462.211
31.88000 453.506
31.92000 442.823
31.96000 433.248
32.00000 421.623
32.04000 430.614
32.08000 406.793
32.12000 422.907
32.16000 416.042
32.20000 428.392
32.24000 389.963
32.28000 400.639
32.32000 380.498
32.36000 392.043
32.40000 394.640
32.44000 386.282
32.48000 384.067
32.52000 373.748
32.56000 365.400
32.60000 378.121
32.64000 383.971
32.68000 380.591
32.72000 360.385
32.76000 372.383
32.80000 369.541
32.84000 376.982
32.88000 361.857
32.92000 378.369
32.96000 391.949
33.00000 400.828
33.04000 398.556
33.08000 387.597
33.12000 378.986
33.16000 373.857
33.20000 361.726
33.24000 352.884
33.28000 352.494
33.32000 361.700
33.36000 342.217
33.40000 338.980
33.44000 347.180
33.48000 365.328
33.52000 340.931
33.56000 325.088
33.60000 333.522
33.64000 343.918
33.68000 346.847
33.72000 364.630
33.76000 338.942
33.80000 351.406
33.84000 341.792
33.88000 336.141
33.92000 339.375
33.96000 348.353
34.00000 346.914
34.04000 339.570
34.08000 354.764
34.12000 336.652
34.16000 323.198
34.20000 337.740
34.24000 330.211
34.28000 346.678
34.32000 349.079
34.36000 356.159
34.40000 358.125
34.44000 353.233
34.48000 345.531
34.52000 358.240
34.56000 337.415
34.60000 363.434
34.64000 354.336
34.68000 336.405
34.72000 338.210
34.76000 325.378
34.80000 334.818
34.84000 338.478
34.88000 340.247
34.92000 329.796
34.96000 329.054
35.00000 328.685
35.04000 318.375
35.08000 321.734
35.12000 333.526
35.16000 322.045
35.20000 312.055
35.24000 305.062
35.28000 319.676
35.32000 303.590
35.36000 311.138
35.40000 309.862
35.44000 318.917
35.48000 328.646
35.52000 313.168
35.56000 308.084
35.60000 296.376
35.64000 310.531
35.68000 317.288
35.72000 317.477
35.76000 294.772
35.80000 321.941
35.84000 302.499
35.88000 301.234
35.92000 304.842
35.96000 304.227
36.00000 312.713
36.04000 309.177
36.08000 303.205
36.12000 310.122
36.16000 283.248
36.20000 312.965
36.24000 312.602
36.28000 290.444
36.32000 304.087
36.36000 309.302
36.40000 300.310
36.44000 290.854
36.48000 294.781
36.52000 296.762
36.56000 304.524
36.60000 298.359
36.64000 307.470
36.68000 310.807
36.72000 288.329
36.76000 308.900
36.80000 311.104
36.84000 308.488
36.88000 294.415
36.92000 302.072
36.96000 308.786
37.00000 307.626
37.04000 305.061
37.08000 310.657
37.12000 303.591
37.16000 300.111
37.20000 314.362
37.24000 298.811
37.28000 300.250
37.32000 295.476
37.36000 310.777
37.40000 289.103
37.44000 286.732
37.48000 289.127
37.52000 280.502
37.56000 293.742
37.60000 283.141
37.64000 294.731
37.68000 288.920
37.72000 291.448
37.76000 285.225
37.80000 298.049
37.84000 283.233
37.88000 299.568
37.92000 287.580
37.96000 304.654
38.00000 305.181
38.04000 298.461
38.08000 302.276
38.12000 305.472
38.16000 317.104
38.20000 311.643
38.24000 311.911
38.28000 308.239
38.32000 315.030
38.36000 327.226
38.40000 351.062
38.44000 381.800
38.48000 437.141
38.52000 485.263
38.56000 564.486
38.60000 674.712
38.64000 788.795
38.68000 890.723
38.72000 919.677
38.76000 929.267
38.80000 879.217
38.84000 794.453
38.88000 684.959
38.92000 556.747
38.96000 476.865
39.00000 389.800
39.04000 370.602
39.08000 313.385
39.12000 304.995
39.16000 272.330
39.20000 289.554
39.24000 292.786
39.28000 304.628
39.32000 288.355
39.36000 279.255
39.40000 266.544
39.44000 282.446
39.48000 265.944
39.52000 271.950
39.56000 276.567
39.60000 295.028
39.64000 282.346
39.68000 276.432
39.72000 262.054
39.76000 283.955
39.80000 265.889
39.84000 278.797
39.88000 269.608
39.92000 257.708
39.96000 256.916
40.00000 252.768
40.04000 262.141
40.08000 271.001
40.12000 260.580
40.16000 256.675
40.20000 261.138
40.24000 267.401
40.28000 253.558
40.32000 266.757
40.36000 261.731
40.40000 245.991
40.44000 250.296
40.48000 242.649
40.52000 257.956
40.56000 253.831
40.60000 267.800
40.64000 260.654
40.68000 254.364
40.72000 250.402
40.76000 241.761
40.80000 240.420
40.84000 260.180
40.88000 258.035
40.92000 248.306
40.96000 252.727
41.00000 261.550
41.04000 253.709
41.08000 241.388
41.12000 255.159
41.16000 252.876
41.20000 237.611
41.24000 241.440
41.28000 248.622
41.32000 246.900
41.36000 251.580
41.40000 243.049
41.44000 243.300
41.48000 244.975
41.52000 238.408
41.56000 235.670
41.60000 234.205
41.64000 253.488
41.68000 241.716
41.72000 223.538
41.76000 246.609
41.80000 242.711
41.84000 245.873
41.88000 231.968
41.92000 249.416
41.96000 233.330
42.00000 232.852
42.04000 238.928
42.08000 244.736
42.12000 245.929
42.16000 237.698
42.20000 245.779
42.24000 251.618
42.28000 233.419
42.32000 227.270
42.36000 224.001
42.40000 232.341
42.44000 244.381
42.48000 239.689
42.52000 240.653
42.56000 240.677
42.60000 243.288
42.64000 235.642
42.68000 231.967
42.72000 235.949
42.76000 247.212
42.80000 234.051
42.84000 233.697
42.88000 242.115
42.92000 238.273
42.96000 219.473
43.00000 238.170
43.04000 233.260
43.08000 238.301
43.12000 230.125
43.16000 219.894
43.20000 230.770
43.24000 218.978
43.28000 224.983
43.32000 227.410
43.36000 230.136
43.40000 227.775
43.44000 226.830
43.48000 231.296
43.52000 222.822
43.56000 235.583
43.60000 240.931
43.64000 226.401
43.68000 213.550
43.72000 218.291
43.76000 232.607
43.80000 219.420
43.84000 237.838
43.88000 221.307
43.92000 230.855
43.96000 210.197
44.00000 221.672
44.04000 218.311
44.08000 223.237
44.12000 209.926
44.16000 212.553
44.20000 227.528
44.24000 227.550
44.28000 227.469
44.32000 225.959
44.36000 225.697
44.40000 207.949
44.44000 228.918
44.48000 224.619
44.52000 231.855
44.56000 233.849
44.60000 221.365
44.64000 234.524
44.68000 243.673
44.72000 247.597
44.76000 246.097
44.80000 248.054
44.84000 261.981
44.88000 278.555
44.92000 304.297
44.96000 309.642
45.00000 327.283
45.04000 381.363
45.08000 357.098
45.12000 371.480
45.16000 359.039
45.20000 346.292
45.24000 347.284
45.28000 303.842
45.32000 294.739
45.36000 257.780
45.40000 256.606
45.44000 253.684
45.48000 240.497
45.52000 237.545
45.56000 236.671
45.60000 225.696
45.64000 215.583
45.68000 213.169
45.72000 216.781
45.76000 209.440
45.80000 224.016
45.84000 213.313
45.88000 198.467
45.92000 216.636
45.96000 201.545
46.00000 208.596
46.04000 214.915
46.08000 200.539
46.12000 205.737
46.16000 193.687
46.20000 195.687
46.24000 202.162
46.28000 209.850
46.32000 194.901
46.36000 200.847
46.40000 202.018
46.44000 205.341
46.48000 209.237
46.52000 214.868
46.56000 210.452
46.60000 196.760
46.64000 205.820
46.68000 213.442
46.72000 208.669
46.76000 210.032
46.80000 199.691
46.84000 199.727
46.88000 196.577
46.92000 203.821
46.96000 205.288
47.00000 205.383
47.04000 201.502
47.08000 200.455
47.12000 199.853
47.16000 191.624
47.20000 202.657
47.24000 190.097
47.28000 195.364
47.32000 197.540
47.36000 198.081
47.40000 186.490
47.44000 186.954
47.48000 178.908
47.52000 185.089
47.56000 186.984
47.60000 193.564
47.64000 185.556
47.68000 186.053
47.72000 191.052
47.76000 190.172
47.80000 185.620
47.84000 187.764
47.88000 198.759
47.92000 183.820
47.96000 185.119
48.00000 193.943
48.04000 191.157
48.08000 197.748
48.12000 188.564
48.16000 170.918
48.20000 182.932
48.24000 176.945
48.28000 178.939
48.32000 179.027
48.36000 169.713
48.40000 181.935
48.44000 189.236
48.48000 177.449
48.52000 177.444
48.56000 188.226
48.60000 181.586
48.64000 174.927
48.68000 188.522
48.72000 185.561
48.76000 187.491
48.80000 187.292
48.84000 187.926
48.88000 181.537
48.92000 181.517
48.96000 180.185
49.00000 185.337
49.04000 189.541
49.08000 182.979
49.12000 189.069
49.16000 172.581
49.20000 187.643
49.24000 176.285
49.28000 172.865
49.32000 172.688
49.36000 180.077
49.40000 171.011
49.44000 180.801
49.48000 183.850
49.52000 185.903
49.56000 172.742
49.60000 170.209
49.64000 170.193
49.68000 176.692
49.72000 185.525
49.76000 184.313
49.80000 181.183
49.84000 180.968
49.88000 178.977
49.92000 174.517
49.96000 177.782
50.00000 184.421
50.04000 178.348
50.08000 179.906
50.12000 182.240
50.16000 178.927
50.20000 178.285
50.24000 189.562
50.28000 171.126
50.32000 180.424
50.36000 183.467
50.40000 188.652
50.44000 188.953
50.48000 200.644
50.52000 225.313
50.56000 222.417
50.60000 246.082
50.64000 249.719
50.68000 259.775
50.72000 258.056
50.76000 256.097
50.80000 255.258
50.84000 238.262
50.88000 225.294
50.92000 219.104
50.96000 192.109
51.00000 203.364
51.04000 190.526
51.08000 175.075
51.12000 174.719
51.16000 179.504
51.20000 168.661
51.24000 182.852
51.28000 172.868
51.32000 169.114
51.36000 164.462
51.40000 158.982
51.44000 160.168
51.48000 159.800
51.52000 167.309
51.56000 167.296
51.60000 166.375
51.64000 165.058
51.68000 167.638
51.72000 173.303
51.76000 162.874
51.80000 169.163
51.84000 170.592
51.88000 170.530
51.92000 165.630
51.96000 169.101
52.00000 173.341
52.04000 159.009
52.08000 159.624
52.12000 157.766
52.16000 170.560
52.20000 164.965
52.24000 160.745
52.28000 158.851
52.32000 157.143
52.36000 160.727
52.40000 158.754
52.44000 161.943
52.48000 166.987
52.52000 168.103
52.56000 158.458
52.60000 159.726
52.64000 162.128
52.68000 158.531
52.72000 160.005
52.76000 156.979
52.80000 145.864
52.84000 164.237
52.88000 163.818
52.92000 152.674
52.96000 164.537
53.00000 159.515
53.04000 170.650
53.08000 162.829
53.12000 156.755
53.16000 161.159
53.20000 162.911
53.24000 174.528
53.28000 161.145
53.32000 155.420
53.36000 154.462
53.40000 162.990
53.44000 167.380
53.48000 162.756
53.52000 160.663
53.56000 166.740
53.60000 157.685
53.64000 156.700
53.68000 160.727
53.72000 149.996
53.76000 165.326
53.80000 158.071
53.84000 152.081
53.88000 158.221
53.92000 167.950
53.96000 158.487
54.00000 157.396
54.04000 162.985
54.08000 150.133
54.12000 160.425
54.16000 153.509
54.20000 162.591
54.24000 145.995
54.28000 152.806
54.32000 156.226
54.36000 152.752
54.40000 151.890
54.44000 151.534
54.48000 153.094
54.52000 161.945
54.56000 150.443
54.60000 161.005
54.64000 153.411
54.68000 155.595
54.72000 161.794
54.76000 161.222
54.80000 168.142
54.84000 149.810
54.88000 158.750
54.92000 163.860
54.96000 171.857
55.00000 156.235
55.04000 158.404
55.08000 174.407
55.12000 172.665
55.16000 167.154
55.20000 163.274
55.24000 168.126
55.28000 159.113
55.32000 166.966
55.36000 164.288
55.40000 174.635
55.44000 178.194
55.48000 177.284
55.52000 189.143
55.56000 203.596
55.60000 223.570
55.64000 251.172
55.68000 294.947
55.72000 325.543
55.76000 408.759
55.80000 457.580
55.84000 526.729
55.88000 592.623
55.92000 619.823
55.96000 633.388
56.00000 639.687
56.04000 607.386
56.08000 543.630
56.12000 481.831
56.16000 394.051
56.20000 331.018
56.24000 278.849
56.28000 262.851
56.32000 218.739
56.36000 209.942
56.40000 199.679
56.44000 193.146
56.48000 172.099
56.52000 163.466
56.56000 159.790
56.60000 166.134
56.64000 161.798
56.68000 157.563
56.72000 161.124
56.76000 149.398
56.80000 152.949
56.84000 153.478
56.88000 158.796
56.92000 153.978
56.96000 150.017
57.00000 154.333
57.04000 161.471
57.08000 153.937
57.12000 137.996
57.16000 133.305
57.20000 136.889
57.24000 152.139
57.28000 145.955
57.32000 142.959
57.36000 149.427
57.40000 149.211
57.44000 141.073
57.48000 140.581
57.52000 148.531
57.56000 154.895
57.60000 152.205
57.64000 138.401
57.68000 137.207
57.72000 141.176
57.76000 140.123
57.80000 138.049
57.84000 148.280
57.88000 144.083
57.92000 142.564
57.96000 147.043
58.00000 140.457
58.04000 138.016
58.08000 137.630
58.12000 140.945
58.16000 148.516
58.20000 145.016
58.24000 136.797
58.28000 139.284
58.32000 136.649
58.36000 146.117
58.40000 133.951
58.44000 128.044
58.48000 125.791
58.52000 139.064
58.56000 132.924
58.60000 145.998
58.64000 142.432
58.68000 146.494
58.72000 144.405
58.76000 144.260
58.80000 144.237
58.84000 142.937
58.88000 140.601
58.92000 141.544
58.96000 129.874
59.00000 139.390
59.04000 135.226
59.08000 136.386
59.12000 134.329
59.16000 148.395
59.20000 140.980
59.24000 134.089
59.28000 134.410
59.32000 131.230
59.36000 123.396
59.40000 137.367
59.44000 129.266
59.48000 137.336
59.52000 137.597
59.56000 136.385
59.60000 137.958
59.64000 143.428
59.68000 139.544
59.72000 130.897
59.76000 143.634
59.80000 127.717
59.84000 135.293
59.88000 119.729
59.92000 134.482
59.96000 141.408
60.00000 132.719
60.04000 138.422
60.08000 132.462
60.12000 137.344
60.16000 137.797
60.20000 146.517
60.24000 131.371
60.28000 142.173
60.32000 131.867
60.36000 129.675
60.40000 147.161
60.44000 126.181
60.48000 135.895
60.52000 131.894
60.56000 133.215
60.60000 135.558
60.64000 135.325
60.68000 147.310
60.72000 128.750
60.76000 138.618
60.80000 131.913
60.84000 141.924
60.88000 137.835
60.92000 128.243
60.96000 135.870
61.00000 148.123
61.04000 138.224
61.08000 132.073
61.12000 122.120
61.16000 137.354
61.20000 138.536
61.24000 136.143
61.28000 131.161
61.32000 132.473
61.36000 144.014
61.40000 144.739
61.44000 146.789
61.48000 140.927
61.52000 153.304
61.56000 188.381
61.60000 226.744
61.64000 239.775
61.68000 249.410
61.72000 255.613
61.76000 232.513
61.80000 214.773
61.84000 179.063
61.88000 153.216
61.92000 152.856
61.96000 140.529
62.00000 143.903
62.04000 137.113
62.08000 145.675
62.12000 138.444
62.16000 139.923
62.20000 145.537
62.24000 137.741
62.28000 145.431
62.32000 145.130
62.36000 131.337
62.40000 142.072
62.44000 145.960
62.48000 142.723
62.52000 144.731
62.56000 138.942
62.60000 152.524
62.64000 136.700
62.68000 141.580
62.72000 145.957
62.76000 138.157
62.80000 140.317
62.84000 143.667
62.88000 150.238
62.92000 145.409
62.96000 135.404
63.00000 144.100
63.04000 139.337
63.08000 141.717
63.12000 146.154
63.16000 137.968
63.20000 149.306
63.24000 143.632
63.28000 141.186
63.32000 139.676
63.36000 146.854
63.40000 136.872
63.44000 149.455
63.48000 152.600
63.52000 151.942
63.56000 146.926
63.60000 139.103
63.64000 149.052
63.68000 151.932
63.72000 156.991
63.76000 153.155
63.80000 151.029
63.84000 140.673
63.88000 156.039
63.92000 153.521
63.96000 147.638
64.00000 158.908
64.04000 159.338
64.08000 164.423
64.12000 152.662
64.16000 160.066
64.20000 150.975
64.24000 160.713
64.28000 168.493
64.32000 162.811
64.36000 150.487
64.40000 162.254
64.44000 178.109
64.48000 171.337
64.52000 162.988
64.56000 154.643
64.60000 166.672
64.64000 164.364
64.68000 163.527
64.72000 167.415
64.76000 172.525
64.80000 163.083
64.84000 176.862
64.88000 170.548
64.92000 183.592
64.96000 170.892
65.00000 180.900
65.04000 179.147
65.08000 191.464
65.12000 209.481
65.16000 205.148
65.20000 227.873
65.24000 229.721
65.28000 262.019
65.32000 279.308
65.36000 287.594
65.40000 310.723
65.44000 348.581
65.48000 368.083
65.52000 394.379
65.56000 404.035
65.60000 405.340
65.64000 425.482
65.68000 464.629
65.72000 585.465
65.76000 698.263
65.80000 849.917
65.84000 918.408
65.88000 942.371
65.92000 928.167
65.96000 796.649
66.00000 586.388
66.04000 422.209
66.08000 323.595
66.12000 308.725
66.16000 277.373
66.20000 270.736
66.24000 284.300
66.28000 288.322
66.32000 340.711
66.36000 376.845
66.40000 398.545
66.44000 404.113
66.48000 388.129
66.52000 378.743
66.56000 333.830
66.60000 307.038
66.64000 282.944
66.68000 310.219
66.72000 297.071
66.76000 286.381
66.80000 295.278
66.84000 311.022
66.88000 312.268
66.92000 310.801
66.96000 326.558
67.00000 318.896
67.04000 331.569
67.08000 318.059
67.12000 319.365
67.16000 332.092
67.20000 350.913
67.24000 363.201
67.28000 352.800
67.32000 365.297
67.36000 366.010
67.40000 378.950
67.44000 389.840
67.48000 397.391
67.52000 370.087
67.56000 407.467
67.60000 405.773
67.64000 411.824
67.68000 427.744
67.72000 423.141
67.76000 452.518
67.80000 447.406
67.84000 436.086
67.88000 472.293
67.92000 461.130
67.96000 479.520
68.00000 509.150
68.04000 498.945
68.08000 503.757
68.12000 513.223
68.16000 534.238
68.20000 543.878
68.24000 549.993
68.28000 574.851
68.32000 611.898
68.36000 642.061
68.40000 650.927
68.44000 655.854
68.48000 690.281
68.52000 703.332
68.56000 768.203
68.60000 846.367
68.64000 968.617
68.68000 1139.758
68.72000 1331.141
68.76000 1512.269
68.80000 1715.778
68.84000 1951.594
68.88000 2321.309
68.92000 3796.536
68.96000 8825.418
69.00000 22427.945
69.04000 38220.324
69.08000 47154.160
69.12000 48457.199
69.16000 50132.762
69.20000 50954.699
69.24000 43599.902
69.28000 33454.910
69.32000 27065.211
69.36000 24289.719
69.40000 20627.635
69.44000 12912.996
69.48000 6164.174
69.52000 2750.209
69.56000 1666.003
69.60000 1279.578
69.64000 1127.814
69.68000 995.042
69.72000 913.755
69.76000 846.094
69.80000 806.523
69.84000 737.010
69.88000 697.628
69.92000 693.464
69.96000 672.900
70.00000 622.447