File: XRD/XRD/30-09-2025 Dep 1/XY Data/BTO_Mapping_Theta2Theta_30-09-2025_001_10_6-691_7-431.xy
20.00000 574.261
20.04000 565.262
20.08000 562.576
20.12000 567.098
20.16000 555.148
20.20000 572.979
20.24000 564.799
20.28000 545.655
20.32000 529.914
20.36000 583.074
20.40000 575.931
20.44000 552.758
20.48000 550.719
20.52000 544.937
20.56000 576.051
20.60000 561.099
20.64000 560.505
20.68000 566.236
20.72000 565.510
20.76000 557.707
20.80000 560.426
20.84000 543.449
20.88000 547.227
20.92000 553.206
20.96000 534.274
21.00000 544.646
21.04000 554.281
21.08000 543.469
21.12000 538.158
21.16000 553.354
21.20000 565.972
21.24000 562.817
21.28000 547.004
21.32000 528.885
21.36000 537.737
21.40000 552.731
21.44000 550.613
21.48000 531.053
21.52000 551.559
21.56000 570.153
21.60000 558.254
21.64000 543.108
21.68000 539.304
21.72000 568.292
21.76000 587.301
21.80000 574.351
21.84000 601.402
21.88000 612.556
21.92000 683.895
21.96000 692.522
22.00000 746.871
22.04000 763.541
22.08000 776.058
22.12000 723.412
22.16000 701.317
22.20000 643.810
22.24000 624.909
22.28000 574.557
22.32000 580.880
22.36000 533.923
22.40000 574.777
22.44000 541.664
22.48000 557.685
22.52000 538.765
22.56000 522.127
22.60000 537.951
22.64000 522.321
22.68000 518.355
22.72000 519.887
22.76000 527.759
22.80000 546.612
22.84000 513.235
22.88000 512.236
22.92000 513.061
22.96000 540.330
23.00000 492.090
23.04000 530.820
23.08000 533.648
23.12000 523.434
23.16000 523.012
23.20000 508.224
23.24000 523.847
23.28000 513.147
23.32000 521.647
23.36000 517.137
23.40000 507.823
23.44000 520.175
23.48000 504.956
23.52000 525.323
23.56000 510.661
23.60000 525.256
23.64000 508.313
23.68000 506.660
23.72000 510.212
23.76000 522.301
23.80000 510.185
23.84000 531.007
23.88000 517.947
23.92000 522.034
23.96000 533.203
24.00000 527.533
24.04000 530.523
24.08000 530.081
24.12000 542.268
24.16000 536.646
24.20000 544.375
24.24000 540.003
24.28000 520.608
24.32000 508.572
24.36000 518.595
24.40000 497.653
24.44000 484.935
24.48000 480.643
24.52000 500.729
24.56000 514.079
24.60000 497.195
24.64000 495.437
24.68000 496.625
24.72000 486.632
24.76000 493.861
24.80000 476.269
24.84000 496.263
24.88000 477.122
24.92000 488.442
24.96000 483.146
25.00000 473.401
25.04000 477.556
25.08000 470.965
25.12000 473.965
25.16000 491.519
25.20000 474.031
25.24000 491.810
25.28000 483.260
25.32000 457.788
25.36000 470.372
25.40000 480.099
25.44000 473.629
25.48000 459.322
25.52000 482.860
25.56000 476.975
25.60000 469.533
25.64000 474.962
25.68000 476.157
25.72000 467.010
25.76000 480.972
25.80000 459.743
25.84000 466.096
25.88000 481.171
25.92000 455.441
25.96000 457.521
26.00000 444.513
26.04000 475.191
26.08000 470.823
26.12000 464.775
26.16000 456.536
26.20000 466.140
26.24000 477.907
26.28000 457.253
26.32000 463.176
26.36000 446.671
26.40000 459.489
26.44000 471.888
26.48000 453.771
26.52000 444.627
26.56000 460.238
26.60000 442.852
26.64000 421.192
26.68000 443.395
26.72000 454.824
26.76000 452.643
26.80000 452.486
26.84000 448.173
26.88000 456.244
26.92000 437.951
26.96000 447.645
27.00000 465.603
27.04000 434.505
27.08000 451.424
27.12000 458.771
27.16000 433.980
27.20000 435.946
27.24000 422.632
27.28000 446.484
27.32000 454.861
27.36000 436.544
27.40000 449.373
27.44000 434.011
27.48000 449.721
27.52000 428.263
27.56000 447.242
27.60000 436.690
27.64000 451.972
27.68000 458.469
27.72000 441.788
27.76000 436.152
27.80000 438.690
27.84000 445.954
27.88000 428.908
27.92000 437.877
27.96000 436.214
28.00000 446.551
28.04000 432.308
28.08000 408.458
28.12000 417.151
28.16000 431.201
28.20000 446.613
28.24000 437.383
28.28000 425.416
28.32000 414.794
28.36000 443.013
28.40000 430.289
28.44000 431.685
28.48000 450.143
28.52000 446.367
28.56000 429.315
28.60000 423.679
28.64000 423.925
28.68000 420.486
28.72000 445.213
28.76000 428.413
28.80000 423.045
28.84000 418.871
28.88000 425.592
28.92000 436.874
28.96000 423.658
29.00000 409.982
29.04000 422.948
29.08000 421.843
29.12000 409.994
29.16000 427.103
29.20000 424.561
29.24000 405.854
29.28000 421.508
29.32000 400.229
29.36000 405.132
29.40000 417.298
29.44000 419.039
29.48000 430.889
29.52000 409.388
29.56000 410.252
29.60000 413.548
29.64000 417.182
29.68000 411.027
29.72000 414.281
29.76000 413.811
29.80000 407.588
29.84000 418.843
29.88000 430.869
29.92000 455.435
29.96000 435.007
30.00000 449.986
30.04000 470.435
30.08000 449.465
30.12000 429.761
30.16000 444.550
30.20000 435.552
30.24000 434.184
30.28000 417.921
30.32000 440.735
30.36000 453.416
30.40000 423.534
30.44000 425.776
30.48000 418.345
30.52000 441.610
30.56000 452.010
30.60000 439.323
30.64000 444.144
30.68000 431.047
30.72000 445.278
30.76000 436.193
30.80000 461.312
30.84000 460.132
30.88000 478.930
30.92000 493.597
30.96000 509.897
31.00000 548.565
31.04000 643.515
31.08000 759.640
31.12000 932.308
31.16000 1262.191
31.20000 1664.244
31.24000 2206.324
31.28000 2733.223
31.32000 3248.835
31.36000 3569.708
31.40000 3573.922
31.44000 3279.410
31.48000 2775.209
31.52000 2168.050
31.56000 1648.666
31.60000 1166.176
31.64000 867.716
31.68000 676.637
31.72000 578.911
31.76000 534.797
31.80000 480.854
31.84000 471.463
31.88000 456.333
31.92000 427.093
31.96000 420.112
32.00000 430.207
32.04000 401.308
32.08000 419.500
32.12000 401.643
32.16000 419.843
32.20000 392.977
32.24000 389.938
32.28000 403.465
32.32000 395.137
32.36000 403.853
32.40000 390.450
32.44000 381.870
32.48000 384.053
32.52000 392.441
32.56000 378.595
32.60000 378.810
32.64000 383.813
32.68000 367.723
32.72000 361.360
32.76000 362.651
32.80000 365.393
32.84000 367.169
32.88000 383.106
32.92000 396.315
32.96000 415.123
33.00000 419.982
33.04000 399.678
33.08000 418.301
33.12000 402.683
33.16000 383.630
33.20000 350.770
33.24000 333.315
33.28000 349.486
33.32000 352.617
33.36000 361.337
33.40000 371.806
33.44000 342.298
33.48000 347.978
33.52000 353.117
33.56000 349.227
33.60000 360.541
33.64000 353.776
33.68000 324.544
33.72000 338.822
33.76000 355.519
33.80000 340.694
33.84000 340.063
33.88000 337.754
33.92000 331.939
33.96000 337.266
34.00000 345.678
34.04000 342.740
34.08000 344.396
34.12000 342.198
34.16000 340.642
34.20000 337.490
34.24000 330.858
34.28000 351.183
34.32000 346.692
34.36000 359.168
34.40000 338.513
34.44000 348.063
34.48000 332.803
34.52000 332.777
34.56000 329.509
34.60000 325.206
34.64000 342.584
34.68000 336.919
34.72000 325.682
34.76000 330.270
34.80000 322.839
34.84000 334.570
34.88000 330.392
34.92000 333.231
34.96000 339.146
35.00000 324.062
35.04000 320.283
35.08000 308.956
35.12000 316.196
35.16000 323.775
35.20000 315.391
35.24000 308.945
35.28000 314.566
35.32000 330.604
35.36000 310.135
35.40000 321.976
35.44000 301.078
35.48000 314.747
35.52000 301.134
35.56000 317.618
35.60000 313.278
35.64000 323.317
35.68000 296.505
35.72000 304.841
35.76000 321.914
35.80000 299.369
35.84000 321.140
35.88000 308.168
35.92000 299.167
35.96000 318.491
36.00000 307.733
36.04000 294.938
36.08000 306.933
36.12000 310.337
36.16000 304.711
36.20000 305.899
36.24000 304.760
36.28000 290.782
36.32000 303.667
36.36000 306.400
36.40000 306.544
36.44000 294.683
36.48000 312.135
36.52000 296.746
36.56000 299.207
36.60000 294.929
36.64000 297.798
36.68000 312.847
36.72000 291.623
36.76000 310.190
36.80000 306.596
36.84000 299.205
36.88000 308.424
36.92000 298.597
36.96000 312.944
37.00000 277.126
37.04000 311.846
37.08000 307.948
37.12000 307.190
37.16000 312.310
37.20000 300.677
37.24000 290.129
37.28000 302.760
37.32000 310.674
37.36000 308.187
37.40000 301.097
37.44000 302.520
37.48000 309.035
37.52000 297.571
37.56000 290.118
37.60000 279.128
37.64000 291.577
37.68000 296.795
37.72000 309.850
37.76000 297.738
37.80000 276.086
37.84000 288.479
37.88000 282.337
37.92000 285.401
37.96000 295.761
38.00000 300.037
38.04000 290.741
38.08000 302.628
38.12000 305.944
38.16000 301.778
38.20000 287.985
38.24000 333.431
38.28000 322.584
38.32000 304.309
38.36000 347.073
38.40000 373.990
38.44000 392.398
38.48000 445.648
38.52000 508.666
38.56000 587.013
38.60000 693.048
38.64000 792.693
38.68000 884.474
38.72000 902.664
38.76000 872.360
38.80000 808.952
38.84000 730.841
38.88000 635.057
38.92000 523.784
38.96000 452.889
39.00000 363.448
39.04000 330.055
39.08000 300.650
39.12000 294.861
39.16000 294.859
39.20000 292.330
39.24000 276.609
39.28000 276.925
39.32000 273.438
39.36000 260.908
39.40000 281.091
39.44000 272.691
39.48000 263.778
39.52000 269.159
39.56000 262.281
39.60000 271.021
39.64000 258.143
39.68000 283.785
39.72000 273.988
39.76000 266.196
39.80000 259.839
39.84000 273.403
39.88000 261.561
39.92000 272.212
39.96000 265.562
40.00000 251.472
40.04000 258.192
40.08000 261.912
40.12000 267.511
40.16000 261.390
40.20000 269.265
40.24000 255.896
40.28000 260.665
40.32000 259.617
40.36000 251.609
40.40000 247.490
40.44000 263.217
40.48000 243.595
40.52000 268.073
40.56000 253.032
40.60000 249.312
40.64000 265.553
40.68000 261.612
40.72000 255.660
40.76000 250.233
40.80000 265.108
40.84000 253.046
40.88000 251.632
40.92000 246.848
40.96000 240.238
41.00000 240.349
41.04000 246.160
41.08000 251.639
41.12000 244.016
41.16000 242.172
41.20000 267.881
41.24000 256.821
41.28000 255.970
41.32000 255.491
41.36000 239.623
41.40000 239.911
41.44000 225.590
41.48000 239.583
41.52000 235.296
41.56000 244.942
41.60000 229.714
41.64000 263.566
41.68000 243.710
41.72000 242.197
41.76000 261.417
41.80000 250.769
41.84000 227.734
41.88000 253.935
41.92000 235.081
41.96000 233.799
42.00000 237.764
42.04000 245.685
42.08000 240.002
42.12000 239.626
42.16000 234.924
42.20000 237.603
42.24000 245.067
42.28000 249.136
42.32000 227.662
42.36000 234.690
42.40000 231.637
42.44000 248.015
42.48000 233.817
42.52000 249.944
42.56000 246.172
42.60000 243.897
42.64000 243.006
42.68000 230.642
42.72000 229.162
42.76000 239.087
42.80000 239.960
42.84000 230.774
42.88000 231.162
42.92000 231.051
42.96000 231.475
43.00000 230.553
43.04000 241.318
43.08000 247.270
43.12000 227.619
43.16000 226.164
43.20000 226.185
43.24000 225.583
43.28000 236.993
43.32000 213.683
43.36000 223.657
43.40000 219.447
43.44000 230.719
43.48000 232.692
43.52000 229.949
43.56000 222.907
43.60000 211.934
43.64000 220.815
43.68000 227.678
43.72000 236.957
43.76000 235.386
43.80000 226.565
43.84000 216.587
43.88000 224.387
43.92000 231.152
43.96000 224.557
44.00000 215.357
44.04000 218.579
44.08000 233.699
44.12000 216.735
44.16000 216.358
44.20000 238.109
44.24000 221.632
44.28000 221.777
44.32000 223.859
44.36000 236.534
44.40000 229.285
44.44000 217.456
44.48000 230.200
44.52000 233.944
44.56000 222.124
44.60000 233.274
44.64000 248.438
44.68000 245.609
44.72000 249.597
44.76000 269.384
44.80000 264.963
44.84000 298.385
44.88000 299.473
44.92000 324.585
44.96000 369.393
45.00000 388.766
45.04000 396.600
45.08000 413.610
45.12000 404.524
45.16000 390.593
45.20000 356.976
45.24000 320.543
45.28000 310.225
45.32000 284.172
45.36000 286.871
45.40000 262.504
45.44000 245.058
45.48000 246.554
45.52000 234.786
45.56000 224.910
45.60000 224.255
45.64000 215.680
45.68000 214.194
45.72000 217.260
45.76000 226.515
45.80000 208.734
45.84000 215.735
45.88000 213.150
45.92000 207.714
45.96000 212.979
46.00000 208.848
46.04000 218.438
46.08000 200.105
46.12000 203.966
46.16000 215.279
46.20000 206.512
46.24000 210.936
46.28000 214.510
46.32000 210.123
46.36000 203.973
46.40000 206.477
46.44000 208.756
46.48000 208.853
46.52000 200.139
46.56000 208.891
46.60000 200.426
46.64000 196.342
46.68000 205.673
46.72000 197.604
46.76000 190.868
46.80000 212.187
46.84000 206.632
46.88000 207.683
46.92000 202.286
46.96000 191.669
47.00000 190.559
47.04000 188.265
47.08000 183.243
47.12000 189.931
47.16000 193.681
47.20000 183.400
47.24000 203.001
47.28000 189.128
47.32000 195.035
47.36000 181.115
47.40000 188.600
47.44000 193.385
47.48000 194.891
47.52000 189.357
47.56000 185.213
47.60000 184.087
47.64000 201.464
47.68000 187.153
47.72000 198.650
47.76000 193.166
47.80000 183.150
47.84000 192.998
47.88000 188.677
47.92000 190.052
47.96000 180.864
48.00000 178.816
48.04000 201.503
48.08000 183.629
48.12000 189.508
48.16000 185.930
48.20000 190.217
48.24000 188.375
48.28000 184.668
48.32000 178.214
48.36000 178.139
48.40000 181.247
48.44000 189.837
48.48000 183.125
48.52000 190.800
48.56000 190.195
48.60000 182.130
48.64000 177.070
48.68000 190.010
48.72000 171.119
48.76000 192.764
48.80000 177.128
48.84000 173.727
48.88000 174.748
48.92000 180.517
48.96000 188.807
49.00000 176.087
49.04000 186.776
49.08000 180.864
49.12000 187.052
49.16000 173.406
49.20000 179.953
49.24000 182.463
49.28000 179.620
49.32000 177.690
49.36000 181.120
49.40000 187.619
49.44000 172.179
49.48000 176.004
49.52000 175.267
49.56000 175.332
49.60000 168.556
49.64000 176.426
49.68000 176.003
49.72000 178.651
49.76000 183.047
49.80000 183.491
49.84000 178.545
49.88000 178.603
49.92000 166.274
49.96000 187.130
50.00000 172.936
50.04000 175.569
50.08000 173.342
50.12000 177.083
50.16000 174.953
50.20000 178.709
50.24000 189.474
50.28000 181.321
50.32000 204.963
50.36000 197.877
50.40000 197.146
50.44000 195.152
50.48000 219.233
50.52000 235.969
50.56000 253.782
50.60000 242.196
50.64000 252.579
50.68000 284.796
50.72000 258.220
50.76000 252.754
50.80000 258.517
50.84000 238.872
50.88000 235.954
50.92000 214.381
50.96000 210.914
51.00000 189.528
51.04000 187.502
51.08000 199.128
51.12000 184.831
51.16000 171.810
51.20000 183.604
51.24000 176.330
51.28000 166.745
51.32000 178.110
51.36000 173.026
51.40000 169.815
51.44000 177.504
51.48000 172.754
51.52000 164.648
51.56000 161.151
51.60000 163.561
51.64000 170.606
51.68000 169.152
51.72000 164.797
51.76000 160.311
51.80000 176.494
51.84000 171.305
51.88000 170.063
51.92000 166.563
51.96000 162.807
52.00000 171.089
52.04000 173.704
52.08000 164.923
52.12000 168.845
52.16000 162.890
52.20000 160.877
52.24000 161.680
52.28000 159.423
52.32000 170.013
52.36000 164.997
52.40000 164.281
52.44000 171.196
52.48000 163.440
52.52000 151.874
52.56000 169.159
52.60000 159.021
52.64000 154.533
52.68000 150.359
52.72000 161.001
52.76000 159.132
52.80000 159.719
52.84000 156.892
52.88000 156.278
52.92000 157.192
52.96000 159.238
53.00000 164.662
53.04000 143.906
53.08000 159.935
53.12000 166.067
53.16000 162.599
53.20000 151.655
53.24000 169.563
53.28000 167.284
53.32000 150.194
53.36000 162.110
53.40000 163.176
53.44000 172.121
53.48000 157.057
53.52000 144.067
53.56000 161.001
53.60000 163.223
53.64000 150.108
53.68000 166.151
53.72000 156.688
53.76000 163.525
53.80000 153.091
53.84000 144.785
53.88000 160.985
53.92000 162.983
53.96000 147.719
54.00000 158.332
54.04000 154.888
54.08000 163.743
54.12000 157.866
54.16000 153.596
54.20000 156.902
54.24000 153.115
54.28000 164.211
54.32000 154.951
54.36000 158.482
54.40000 157.398
54.44000 145.061
54.48000 143.427
54.52000 143.719
54.56000 167.227
54.60000 159.190
54.64000 161.223
54.68000 161.761
54.72000 156.820
54.76000 161.006
54.80000 153.871
54.84000 160.174
54.88000 163.722
54.92000 152.509
54.96000 157.356
55.00000 154.134
55.04000 170.884
55.08000 171.997
55.12000 159.626
55.16000 159.528
55.20000 164.530
55.24000 163.619
55.28000 165.993
55.32000 172.148
55.36000 168.465
55.40000 170.405
55.44000 181.096
55.48000 187.265
55.52000 202.245
55.56000 221.397
55.60000 239.270
55.64000 258.437
55.68000 306.594
55.72000 341.791
55.76000 409.567
55.80000 497.079
55.84000 586.718
55.88000 617.900
55.92000 656.429
55.96000 653.395
56.00000 629.051
56.04000 577.933
56.08000 528.207
56.12000 474.400
56.16000 407.686
56.20000 337.872
56.24000 272.524
56.28000 238.656
56.32000 224.088
56.36000 200.964
56.40000 176.879
56.44000 174.442
56.48000 165.561
56.52000 166.375
56.56000 168.633
56.60000 156.994
56.64000 156.660
56.68000 149.254
56.72000 156.799
56.76000 154.453
56.80000 156.571
56.84000 156.217
56.88000 145.460
56.92000 153.055
56.96000 154.782
57.00000 151.326
57.04000 143.177
57.08000 153.412
57.12000 149.647
57.16000 146.326
57.20000 141.348
57.24000 145.058
57.28000 149.238
57.32000 142.610
57.36000 155.127
57.40000 156.322
57.44000 149.037
57.48000 144.393
57.52000 142.391
57.56000 145.531
57.60000 148.530
57.64000 146.702
57.68000 146.503
57.72000 157.620
57.76000 145.051
57.80000 151.565
57.84000 147.672
57.88000 139.435
57.92000 140.223
57.96000 139.988
58.00000 145.836
58.04000 139.973
58.08000 136.469
58.12000 139.309
58.16000 134.739
58.20000 133.090
58.24000 142.820
58.28000 140.982
58.32000 143.015
58.36000 151.167
58.40000 130.295
58.44000 127.870
58.48000 134.668
58.52000 139.460
58.56000 140.254
58.60000 133.574
58.64000 131.922
58.68000 137.673
58.72000 140.346
58.76000 135.577
58.80000 138.600
58.84000 131.884
58.88000 139.871
58.92000 142.211
58.96000 131.799
59.00000 131.385
59.04000 144.837
59.08000 135.539
59.12000 136.059
59.16000 137.255
59.20000 131.673
59.24000 138.897
59.28000 136.989
59.32000 135.685
59.36000 134.427
59.40000 124.503
59.44000 132.894
59.48000 132.937
59.52000 142.831
59.56000 127.062
59.60000 137.104
59.64000 138.322
59.68000 137.781
59.72000 134.227
59.76000 137.120
59.80000 129.485
59.84000 132.054
59.88000 138.242
59.92000 144.825
59.96000 145.010
60.00000 127.667
60.04000 127.370
60.08000 137.704
60.12000 142.275
60.16000 135.935
60.20000 139.516
60.24000 139.944
60.28000 126.815
60.32000 134.816
60.36000 139.494
60.40000 133.763
60.44000 128.636
60.48000 131.263
60.52000 136.130
60.56000 133.232
60.60000 138.184
60.64000 131.642
60.68000 132.858
60.72000 133.351
60.76000 134.645
60.80000 131.257
60.84000 129.830
60.88000 133.769
60.92000 135.683
60.96000 138.924
61.00000 124.528
61.04000 134.232
61.08000 123.530
61.12000 135.549
61.16000 142.582
61.20000 144.080
61.24000 137.528
61.28000 130.213
61.32000 127.108
61.36000 133.752
61.40000 129.217
61.44000 147.303
61.48000 157.644
61.52000 163.378
61.56000 198.143
61.60000 256.487
61.64000 292.485
61.68000 295.108
61.72000 287.189
61.76000 273.502
61.80000 223.748
61.84000 187.492
61.88000 153.470
61.92000 145.892
61.96000 137.775
62.00000 147.453
62.04000 142.385
62.08000 143.711
62.12000 150.182
62.16000 139.858
62.20000 143.953
62.24000 148.125
62.28000 148.164
62.32000 142.382
62.36000 145.516
62.40000 136.912
62.44000 149.874
62.48000 141.923
62.52000 149.115
62.56000 154.578
62.60000 140.963
62.64000 157.336
62.68000 139.972
62.72000 144.380
62.76000 149.951
62.80000 143.381
62.84000 141.249
62.88000 151.404
62.92000 139.978
62.96000 147.073
63.00000 143.945
63.04000 153.089
63.08000 153.460
63.12000 152.350
63.16000 137.309
63.20000 140.689
63.24000 146.943
63.28000 143.468
63.32000 144.966
63.36000 145.832
63.40000 148.941
63.44000 138.475
63.48000 152.956
63.52000 144.257
63.56000 149.584
63.60000 150.407
63.64000 144.283
63.68000 146.315
63.72000 158.524
63.76000 154.073
63.80000 172.202
63.84000 164.862
63.88000 156.523
63.92000 145.139
63.96000 148.222
64.00000 153.131
64.04000 155.940
64.08000 154.911
64.12000 160.575
64.16000 169.235
64.20000 166.060
64.24000 163.389
64.28000 161.781
64.32000 166.508
64.36000 161.654
64.40000 158.287
64.44000 169.671
64.48000 161.738
64.52000 166.689
64.56000 168.470
64.60000 177.317
64.64000 182.318
64.68000 170.741
64.72000 172.575
64.76000 179.349
64.80000 175.645
64.84000 183.304
64.88000 193.914
64.92000 194.166
64.96000 193.935
65.00000 195.123
65.04000 203.646
65.08000 206.635
65.12000 214.022
65.16000 232.303
65.20000 232.207
65.24000 242.970
65.28000 266.848
65.32000 280.780
65.36000 303.328
65.40000 345.512
65.44000 368.070
65.48000 394.608
65.52000 418.674
65.56000 416.595
65.60000 457.578
65.64000 455.173
65.68000 523.303
65.72000 654.640
65.76000 853.442
65.80000 1041.792
65.84000 1112.704
65.88000 1167.311
65.92000 1104.838
65.96000 936.637
66.00000 658.299
66.04000 459.430
66.08000 358.171
66.12000 316.406
66.16000 315.550
66.20000 303.369
66.24000 311.153
66.28000 320.812
66.32000 371.849
66.36000 414.813
66.40000 446.567
66.44000 446.668
66.48000 449.632
66.52000 412.104
66.56000 375.267
66.60000 356.732
66.64000 318.256
66.68000 319.442
66.72000 321.566
66.76000 313.489
66.80000 318.535
66.84000 315.417
66.88000 329.598
66.92000 327.139
66.96000 346.091
67.00000 347.793
67.04000 345.660
67.08000 370.892
67.12000 370.154
67.16000 366.460
67.20000 399.301
67.24000 389.729
67.28000 370.781
67.32000 387.402
67.36000 383.332
67.40000 401.685
67.44000 405.703
67.48000 415.258
67.52000 418.619
67.56000 430.836
67.60000 445.013
67.64000 446.017
67.68000 460.214
67.72000 489.248
67.76000 454.135
67.80000 486.791
67.84000 501.282
67.88000 511.242
67.92000 522.693
67.96000 509.613
68.00000 545.827
68.04000 539.925
68.08000 552.974
68.12000 570.741
68.16000 588.347
68.20000 606.100
68.24000 625.763
68.28000 649.796
68.32000 661.562
68.36000 677.430
68.40000 704.046
68.44000 761.993
68.48000 785.553
68.52000 811.400
68.56000 858.585
68.60000 973.938
68.64000 1176.056
68.68000 1344.254
68.72000 1618.284
68.76000 1797.019
68.80000 2055.493
68.84000 2367.607
68.88000 2832.085
68.92000 5155.945
68.96000 12912.742
69.00000 31795.209
69.04000 51744.328
69.08000 61924.305
69.12000 63256.273
69.16000 65811.305
69.20000 66106.617
69.24000 55153.766
69.28000 42063.684
69.32000 34356.738
69.36000 31291.967
69.40000 25820.258
69.44000 15478.626
69.48000 7024.938
69.52000 3120.618
69.56000 1882.046
69.60000 1532.721
69.64000 1281.709
69.68000 1133.110
69.72000 1036.814
69.76000 962.457
69.80000 875.403
69.84000 839.472
69.88000 817.953
69.92000 782.794
69.96000 709.508
70.00000 705.928