File: XRD/XRD/30-09-2025 Dep 1/XY Data/BTO_Mapping_Theta2Theta_30-09-2025_001_38_-8-090_-5-878.xy
20.00000 551.210
20.04000 578.892
20.08000 581.089
20.12000 576.093
20.16000 580.722
20.20000 561.795
20.24000 571.624
20.28000 585.773
20.32000 555.584
20.36000 551.812
20.40000 550.643
20.44000 573.325
20.48000 572.441
20.52000 580.281
20.56000 553.762
20.60000 572.248
20.64000 569.174
20.68000 572.425
20.72000 555.698
20.76000 550.186
20.80000 542.112
20.84000 558.221
20.88000 549.834
20.92000 559.374
20.96000 539.837
21.00000 543.708
21.04000 558.653
21.08000 559.205
21.12000 554.810
21.16000 575.314
21.20000 559.708
21.24000 564.579
21.28000 555.619
21.32000 572.353
21.36000 524.011
21.40000 537.442
21.44000 550.209
21.48000 568.001
21.52000 573.728
21.56000 547.508
21.60000 563.831
21.64000 569.041
21.68000 547.998
21.72000 572.572
21.76000 614.454
21.80000 608.275
21.84000 654.052
21.88000 671.322
21.92000 724.967
21.96000 774.555
22.00000 818.100
22.04000 837.455
22.08000 858.528
22.12000 817.552
22.16000 727.110
22.20000 688.310
22.24000 660.288
22.28000 621.802
22.32000 584.565
22.36000 558.629
22.40000 546.548
22.44000 553.472
22.48000 544.984
22.52000 551.614
22.56000 525.727
22.60000 536.792
22.64000 535.923
22.68000 507.884
22.72000 531.736
22.76000 526.106
22.80000 539.006
22.84000 536.711
22.88000 500.785
22.92000 511.389
22.96000 516.428
23.00000 511.941
23.04000 507.690
23.08000 517.091
23.12000 524.131
23.16000 503.425
23.20000 511.471
23.24000 505.921
23.28000 504.861
23.32000 511.141
23.36000 512.087
23.40000 511.370
23.44000 520.404
23.48000 513.352
23.52000 515.341
23.56000 504.851
23.60000 512.654
23.64000 502.025
23.68000 513.648
23.72000 508.820
23.76000 512.938
23.80000 502.579
23.84000 499.661
23.88000 532.183
23.92000 515.027
23.96000 496.776
24.00000 512.797
24.04000 525.262
24.08000 528.728
24.12000 500.957
24.16000 509.876
24.20000 502.455
24.24000 505.694
24.28000 489.262
24.32000 509.456
24.36000 495.626
24.40000 497.699
24.44000 500.561
24.48000 486.390
24.52000 471.945
24.56000 478.317
24.60000 495.019
24.64000 491.665
24.68000 495.640
24.72000 500.222
24.76000 483.969
24.80000 485.816
24.84000 480.180
24.88000 502.435
24.92000 497.552
24.96000 488.623
25.00000 466.026
25.04000 494.339
25.08000 471.990
25.12000 496.515
25.16000 500.940
25.20000 468.016
25.24000 486.396
25.28000 482.398
25.32000 485.700
25.36000 482.557
25.40000 492.626
25.44000 464.247
25.48000 484.570
25.52000 481.090
25.56000 489.572
25.60000 474.922
25.64000 465.966
25.68000 491.730
25.72000 466.359
25.76000 481.358
25.80000 467.406
25.84000 486.247
25.88000 469.188
25.92000 463.292
25.96000 457.390
26.00000 481.489
26.04000 483.776
26.08000 472.021
26.12000 459.807
26.16000 461.241
26.20000 476.375
26.24000 472.082
26.28000 463.358
26.32000 460.297
26.36000 445.180
26.40000 461.924
26.44000 465.947
26.48000 461.166
26.52000 451.539
26.56000 453.895
26.60000 453.802
26.64000 454.787
26.68000 453.284
26.72000 463.558
26.76000 458.164
26.80000 454.458
26.84000 467.055
26.88000 455.930
26.92000 450.788
26.96000 441.526
27.00000 443.916
27.04000 439.421
27.08000 460.728
27.12000 459.844
27.16000 464.535
27.20000 440.290
27.24000 449.826
27.28000 454.664
27.32000 445.921
27.36000 439.962
27.40000 438.466
27.44000 418.559
27.48000 458.938
27.52000 447.755
27.56000 436.342
27.60000 462.037
27.64000 451.915
27.68000 443.352
27.72000 432.872
27.76000 443.173
27.80000 431.571
27.84000 435.705
27.88000 453.561
27.92000 426.316
27.96000 439.725
28.00000 446.050
28.04000 443.989
28.08000 419.952
28.12000 441.503
28.16000 451.907
28.20000 437.357
28.24000 443.800
28.28000 445.089
28.32000 444.699
28.36000 426.794
28.40000 437.800
28.44000 453.614
28.48000 438.758
28.52000 426.620
28.56000 434.937
28.60000 413.421
28.64000 440.070
28.68000 420.176
28.72000 441.911
28.76000 414.319
28.80000 432.559
28.84000 426.183
28.88000 415.637
28.92000 419.160
28.96000 431.071
29.00000 437.992
29.04000 429.765
29.08000 419.303
29.12000 425.074
29.16000 419.399
29.20000 411.723
29.24000 425.830
29.28000 416.747
29.32000 423.435
29.36000 437.584
29.40000 425.894
29.44000 404.480
29.48000 432.503
29.52000 427.554
29.56000 415.912
29.60000 416.223
29.64000 412.301
29.68000 422.749
29.72000 440.198
29.76000 420.351
29.80000 440.660
29.84000 447.147
29.88000 422.804
29.92000 451.306
29.96000 437.658
30.00000 459.971
30.04000 454.291
30.08000 451.436
30.12000 454.803
30.16000 462.899
30.20000 426.591
30.24000 436.130
30.28000 433.070
30.32000 443.578
30.36000 444.021
30.40000 431.776
30.44000 432.381
30.48000 434.574
30.52000 424.824
30.56000 436.677
30.60000 456.860
30.64000 447.353
30.68000 445.599
30.72000 457.497
30.76000 490.633
30.80000 463.758
30.84000 486.917
30.88000 472.373
30.92000 530.967
30.96000 553.919
31.00000 600.004
31.04000 676.055
31.08000 794.574
31.12000 1007.531
31.16000 1316.517
31.20000 1772.451
31.24000 2334.308
31.28000 2943.338
31.32000 3435.774
31.36000 3714.122
31.40000 3782.376
31.44000 3410.269
31.48000 2936.295
31.52000 2261.660
31.56000 1672.938
31.60000 1208.819
31.64000 895.105
31.68000 687.192
31.72000 588.046
31.76000 531.837
31.80000 507.766
31.84000 482.278
31.88000 458.599
31.92000 446.491
31.96000 450.786
32.00000 406.618
32.04000 423.737
32.08000 431.308
32.12000 419.718
32.16000 399.129
32.20000 421.577
32.24000 420.930
32.28000 405.550
32.32000 399.161
32.36000 401.279
32.40000 415.995
32.44000 399.851
32.48000 403.425
32.52000 393.563
32.56000 388.018
32.60000 383.149
32.64000 394.726
32.68000 373.103
32.72000 376.870
32.76000 389.050
32.80000 364.572
32.84000 387.143
32.88000 410.221
32.92000 437.307
32.96000 460.956
33.00000 466.161
33.04000 485.528
33.08000 454.070
33.12000 442.134
33.16000 409.116
33.20000 381.171
33.24000 370.703
33.28000 363.196
33.32000 365.574
33.36000 363.995
33.40000 352.519
33.44000 341.591
33.48000 347.747
33.52000 353.216
33.56000 354.822
33.60000 349.925
33.64000 351.077
33.68000 342.539
33.72000 341.468
33.76000 326.425
33.80000 339.630
33.84000 347.699
33.88000 349.040
33.92000 349.153
33.96000 340.552
34.00000 340.233
34.04000 356.116
34.08000 347.199
34.12000 336.995
34.16000 338.221
34.20000 322.534
34.24000 324.558
34.28000 335.611
34.32000 331.160
34.36000 322.855
34.40000 352.565
34.44000 327.844
34.48000 329.615
34.52000 350.936
34.56000 336.640
34.60000 331.832
34.64000 330.494
34.68000 334.276
34.72000 333.702
34.76000 326.715
34.80000 315.736
34.84000 312.562
34.88000 312.582
34.92000 309.597
34.96000 327.746
35.00000 323.639
35.04000 323.982
35.08000 312.020
35.12000 319.128
35.16000 311.915
35.20000 333.661
35.24000 311.664
35.28000 323.432
35.32000 324.028
35.36000 313.403
35.40000 322.440
35.44000 310.987
35.48000 312.007
35.52000 321.610
35.56000 298.526
35.60000 314.149
35.64000 342.363
35.68000 312.944
35.72000 313.052
35.76000 309.165
35.80000 315.156
35.84000 311.947
35.88000 315.231
35.92000 309.389
35.96000 308.561
36.00000 303.946
36.04000 306.603
36.08000 318.951
36.12000 307.012
36.16000 322.298
36.20000 311.652
36.24000 291.372
36.28000 318.077
36.32000 301.994
36.36000 306.964
36.40000 316.912
36.44000 307.851
36.48000 317.606
36.52000 296.702
36.56000 301.891
36.60000 298.875
36.64000 296.886
36.68000 293.198
36.72000 303.517
36.76000 298.762
36.80000 288.875
36.84000 296.949
36.88000 291.201
36.92000 278.432
36.96000 298.924
37.00000 310.848
37.04000 323.281
37.08000 302.244
37.12000 297.965
37.16000 316.255
37.20000 316.389
37.24000 295.870
37.28000 296.808
37.32000 295.864
37.36000 296.748
37.40000 292.376
37.44000 297.873
37.48000 294.592
37.52000 303.831
37.56000 300.702
37.60000 309.602
37.64000 293.336
37.68000 296.265
37.72000 293.325
37.76000 300.910
37.80000 310.018
37.84000 283.713
37.88000 297.233
37.92000 291.927
37.96000 289.043
38.00000 296.907
38.04000 289.234
38.08000 306.288
38.12000 312.769
38.16000 308.533
38.20000 310.023
38.24000 330.051
38.28000 326.219
38.32000 333.263
38.36000 345.524
38.40000 359.867
38.44000 400.834
38.48000 426.980
38.52000 477.862
38.56000 539.519
38.60000 612.603
38.64000 718.873
38.68000 784.128
38.72000 804.644
38.76000 788.826
38.80000 695.268
38.84000 649.169
38.88000 549.336
38.92000 466.259
38.96000 401.232
39.00000 353.263
39.04000 334.248
39.08000 294.247
39.12000 296.892
39.16000 315.672
39.20000 292.603
39.24000 291.318
39.28000 279.132
39.32000 271.790
39.36000 279.928
39.40000 268.059
39.44000 275.670
39.48000 275.282
39.52000 276.050
39.56000 291.030
39.60000 262.684
39.64000 263.701
39.68000 256.023
39.72000 276.926
39.76000 276.885
39.80000 274.700
39.84000 262.714
39.88000 255.571
39.92000 275.196
39.96000 264.395
40.00000 273.411
40.04000 271.938
40.08000 262.778
40.12000 264.720
40.16000 263.210
40.20000 266.223
40.24000 273.937
40.28000 276.496
40.32000 253.358
40.36000 259.083
40.40000 255.556
40.44000 255.828
40.48000 260.664
40.52000 255.826
40.56000 262.020
40.60000 254.119
40.64000 253.313
40.68000 258.398
40.72000 248.554
40.76000 254.508
40.80000 246.690
40.84000 251.279
40.88000 268.253
40.92000 265.119
40.96000 263.579
41.00000 241.073
41.04000 242.466
41.08000 252.806
41.12000 237.528
41.16000 249.430
41.20000 267.294
41.24000 252.090
41.28000 241.590
41.32000 240.810
41.36000 244.674
41.40000 258.738
41.44000 238.226
41.48000 243.175
41.52000 245.888
41.56000 252.904
41.60000 257.141
41.64000 229.821
41.68000 248.306
41.72000 250.499
41.76000 242.964
41.80000 237.733
41.84000 247.790
41.88000 249.255
41.92000 250.394
41.96000 241.032
42.00000 244.621
42.04000 257.320
42.08000 235.010
42.12000 235.623
42.16000 239.065
42.20000 237.737
42.24000 244.928
42.28000 252.476
42.32000 247.241
42.36000 242.689
42.40000 242.576
42.44000 230.261
42.48000 246.239
42.52000 234.162
42.56000 236.306
42.60000 246.611
42.64000 239.950
42.68000 225.708
42.72000 229.235
42.76000 241.794
42.80000 222.714
42.84000 231.400
42.88000 238.787
42.92000 226.983
42.96000 231.938
43.00000 238.678
43.04000 235.107
43.08000 232.022
43.12000 223.903
43.16000 227.252
43.20000 222.495
43.24000 236.827
43.28000 225.702
43.32000 231.035
43.36000 234.556
43.40000 225.582
43.44000 236.519
43.48000 243.880
43.52000 233.642
43.56000 235.247
43.60000 222.802
43.64000 222.126
43.68000 222.505
43.72000 234.238
43.76000 222.821
43.80000 218.325
43.84000 223.910
43.88000 223.117
43.92000 230.674
43.96000 223.430
44.00000 205.573
44.04000 237.077
44.08000 221.908
44.12000 227.802
44.16000 208.490
44.20000 224.826
44.24000 224.325
44.28000 231.998
44.32000 222.900
44.36000 228.888
44.40000 225.415
44.44000 223.626
44.48000 235.462
44.52000 251.196
44.56000 239.476
44.60000 234.104
44.64000 233.933
44.68000 248.006
44.72000 263.516
44.76000 275.626
44.80000 282.157
44.84000 344.111
44.88000 357.527
44.92000 395.221
44.96000 427.986
45.00000 464.573
45.04000 497.407
45.08000 485.247
45.12000 459.209
45.16000 440.237
45.20000 409.768
45.24000 364.209
45.28000 339.945
45.32000 313.388
45.36000 304.150
45.40000 275.951
45.44000 248.799
45.48000 234.105
45.52000 244.349
45.56000 246.661
45.60000 236.018
45.64000 230.316
45.68000 219.599
45.72000 226.250
45.76000 229.985
45.80000 212.146
45.84000 210.999
45.88000 210.543
45.92000 220.043
45.96000 218.701
46.00000 202.932
46.04000 198.720
46.08000 211.897
46.12000 209.468
46.16000 221.944
46.20000 207.821
46.24000 205.258
46.28000 212.036
46.32000 211.705
46.36000 216.249
46.40000 203.947
46.44000 202.331
46.48000 199.011
46.52000 204.198
46.56000 205.079
46.60000 196.594
46.64000 195.599
46.68000 198.055
46.72000 196.595
46.76000 205.478
46.80000 217.848
46.84000 200.948
46.88000 207.421
46.92000 202.587
46.96000 198.338
47.00000 185.978
47.04000 203.296
47.08000 203.693
47.12000 173.628
47.16000 190.502
47.20000 196.343
47.24000 183.489
47.28000 190.222
47.32000 188.143
47.36000 192.194
47.40000 201.823
47.44000 174.212
47.48000 185.156
47.52000 192.424
47.56000 197.652
47.60000 188.436
47.64000 197.757
47.68000 200.901
47.72000 183.989
47.76000 183.355
47.80000 192.795
47.84000 191.096
47.88000 192.030
47.92000 189.075
47.96000 189.226
48.00000 188.265
48.04000 189.499
48.08000 174.704
48.12000 189.337
48.16000 176.224
48.20000 197.022
48.24000 188.448
48.28000 187.850
48.32000 191.784
48.36000 194.155
48.40000 189.393
48.44000 188.804
48.48000 188.355
48.52000 189.741
48.56000 182.649
48.60000 196.759
48.64000 189.478
48.68000 183.730
48.72000 176.356
48.76000 183.635
48.80000 179.903
48.84000 180.384
48.88000 192.562
48.92000 196.165
48.96000 195.153
49.00000 192.149
49.04000 182.348
49.08000 179.746
49.12000 190.964
49.16000 169.878
49.20000 195.382
49.24000 181.368
49.28000 182.225
49.32000 179.797
49.36000 175.055
49.40000 173.629
49.44000 182.001
49.48000 176.571
49.52000 175.293
49.56000 188.224
49.60000 173.541
49.64000 183.531
49.68000 189.883
49.72000 178.563
49.76000 178.689
49.80000 182.097
49.84000 175.526
49.88000 170.309
49.92000 190.807
49.96000 178.913
50.00000 181.671
50.04000 192.782
50.08000 179.698
50.12000 175.962
50.16000 178.758
50.20000 186.596
50.24000 190.723
50.28000 194.396
50.32000 189.597
50.36000 194.217
50.40000 190.030
50.44000 219.967
50.48000 225.083
50.52000 243.882
50.56000 245.900
50.60000 266.793
50.64000 290.234
50.68000 272.249
50.72000 307.766
50.76000 267.975
50.80000 262.063
50.84000 256.206
50.88000 242.343
50.92000 230.147
50.96000 211.950
51.00000 208.050
51.04000 197.177
51.08000 175.380
51.12000 173.166
51.16000 181.228
51.20000 175.991
51.24000 180.906
51.28000 175.626
51.32000 170.335
51.36000 167.804
51.40000 171.124
51.44000 170.780
51.48000 178.713
51.52000 170.965
51.56000 157.489
51.60000 166.907
51.64000 169.258
51.68000 176.893
51.72000 173.030
51.76000 164.242
51.80000 173.225
51.84000 163.964
51.88000 176.789
51.92000 157.384
51.96000 157.772
52.00000 164.323
52.04000 162.278
52.08000 165.248
52.12000 164.236
52.16000 159.524
52.20000 170.384
52.24000 164.615
52.28000 160.830
52.32000 158.592
52.36000 154.457
52.40000 164.073
52.44000 162.404
52.48000 168.357
52.52000 163.927
52.56000 165.982
52.60000 153.499
52.64000 154.497
52.68000 161.424
52.72000 162.188
52.76000 165.555
52.80000 151.671
52.84000 154.395
52.88000 157.264
52.92000 161.337
52.96000 161.821
53.00000 162.314
53.04000 155.583
53.08000 168.895
53.12000 173.074
53.16000 166.654
53.20000 158.241
53.24000 165.085
53.28000 169.130
53.32000 158.799
53.36000 163.162
53.40000 171.552
53.44000 162.991
53.48000 154.592
53.52000 154.365
53.56000 155.799
53.60000 161.197
53.64000 169.640
53.68000 155.736
53.72000 150.423
53.76000 150.553
53.80000 159.457
53.84000 157.277
53.88000 161.144
53.92000 155.055
53.96000 159.484
54.00000 165.566
54.04000 149.727
54.08000 154.739
54.12000 153.489
54.16000 158.349
54.20000 154.884
54.24000 159.617
54.28000 153.587
54.32000 159.460
54.36000 176.180
54.40000 161.463
54.44000 158.533
54.48000 156.814
54.52000 148.040
54.56000 148.892
54.60000 156.752
54.64000 152.115
54.68000 161.217
54.72000 153.376
54.76000 148.698
54.80000 160.448
54.84000 156.789
54.88000 165.115
54.92000 154.292
54.96000 162.765
55.00000 156.282
55.04000 162.432
55.08000 161.144
55.12000 162.527
55.16000 157.859
55.20000 163.319
55.24000 174.055
55.28000 164.636
55.32000 175.134
55.36000 185.138
55.40000 185.025
55.44000 166.495
55.48000 173.992
55.52000 206.120
55.56000 218.483
55.60000 232.480
55.64000 269.672
55.68000 314.564
55.72000 358.120
55.76000 433.827
55.80000 529.394
55.84000 583.993
55.88000 647.324
55.92000 639.080
55.96000 637.211
56.00000 604.087
56.04000 551.263
56.08000 504.917
56.12000 431.788
56.16000 363.743
56.20000 314.749
56.24000 286.194
56.28000 235.772
56.32000 209.396
56.36000 198.824
56.40000 187.458
56.44000 168.941
56.48000 180.019
56.52000 172.530
56.56000 159.850
56.60000 160.614
56.64000 159.190
56.68000 159.268
56.72000 160.640
56.76000 138.664
56.80000 161.450
56.84000 149.903
56.88000 156.684
56.92000 147.688
56.96000 131.062
57.00000 145.399
57.04000 156.800
57.08000 155.201
57.12000 150.021
57.16000 140.651
57.20000 148.660
57.24000 144.473
57.28000 141.945
57.32000 147.977
57.36000 149.808
57.40000 146.916
57.44000 146.162
57.48000 134.349
57.52000 138.432
57.56000 138.571
57.60000 148.162
57.64000 147.058
57.68000 148.684
57.72000 144.604
57.76000 138.477
57.80000 146.074
57.84000 152.630
57.88000 150.606
57.92000 134.310
57.96000 138.030
58.00000 139.787
58.04000 142.916
58.08000 142.266
58.12000 146.692
58.16000 139.434
58.20000 151.701
58.24000 144.991
58.28000 145.656
58.32000 127.569
58.36000 145.104
58.40000 146.345
58.44000 137.357
58.48000 146.647
58.52000 144.535
58.56000 127.047
58.60000 129.666
58.64000 140.482
58.68000 138.631
58.72000 138.504
58.76000 134.175
58.80000 134.388
58.84000 135.487
58.88000 138.912
58.92000 133.845
58.96000 138.359
59.00000 130.305
59.04000 143.850
59.08000 141.808
59.12000 141.914
59.16000 118.767
59.20000 126.279
59.24000 136.865
59.28000 138.142
59.32000 131.781
59.36000 140.052
59.40000 134.954
59.44000 123.233
59.48000 138.508
59.52000 130.857
59.56000 135.680
59.60000 134.348
59.64000 132.044
59.68000 120.840
59.72000 131.890
59.76000 137.239
59.80000 134.635
59.84000 132.773
59.88000 134.105
59.92000 134.531
59.96000 145.543
60.00000 137.509
60.04000 134.818
60.08000 125.603
60.12000 122.914
60.16000 133.730
60.20000 129.680
60.24000 134.326
60.28000 151.417
60.32000 132.248
60.36000 132.850
60.40000 132.457
60.44000 126.902
60.48000 136.330
60.52000 133.621
60.56000 137.641
60.60000 139.711
60.64000 142.070
60.68000 127.888
60.72000 133.433
60.76000 146.162
60.80000 136.207
60.84000 134.935
60.88000 139.974
60.92000 126.906
60.96000 133.840
61.00000 136.826
61.04000 140.966
61.08000 150.434
61.12000 133.689
61.16000 138.532
61.20000 144.200
61.24000 136.774
61.28000 141.608
61.32000 135.169
61.36000 133.731
61.40000 137.887
61.44000 134.852
61.48000 153.848
61.52000 158.359
61.56000 210.195
61.60000 252.011
61.64000 291.503
61.68000 307.721
61.72000 312.641
61.76000 317.408
61.80000 248.423
61.84000 209.766
61.88000 171.956
61.92000 152.934
61.96000 148.207
62.00000 148.317
62.04000 149.150
62.08000 147.159
62.12000 138.370
62.16000 146.764
62.20000 151.301
62.24000 144.782
62.28000 142.493
62.32000 141.035
62.36000 149.188
62.40000 143.487
62.44000 143.570
62.48000 141.056
62.52000 152.072
62.56000 135.457
62.60000 147.193
62.64000 156.161
62.68000 140.288
62.72000 137.920
62.76000 146.168
62.80000 142.409
62.84000 146.893
62.88000 145.793
62.92000 153.321
62.96000 145.722
63.00000 151.460
63.04000 152.560
63.08000 160.438
63.12000 148.520
63.16000 144.919
63.20000 149.104
63.24000 149.518
63.28000 139.719
63.32000 145.133
63.36000 159.703
63.40000 150.809
63.44000 145.653
63.48000 155.436
63.52000 148.672
63.56000 149.488
63.60000 143.067
63.64000 157.796
63.68000 138.739
63.72000 149.234
63.76000 151.016
63.80000 153.029
63.84000 170.393
63.88000 157.658
63.92000 162.238
63.96000 154.580
64.00000 159.664
64.04000 167.682
64.08000 160.818
64.12000 169.228
64.16000 161.862
64.20000 146.592
64.24000 167.298
64.28000 163.088
64.32000 173.465
64.36000 171.536
64.40000 172.680
64.44000 169.711
64.48000 178.923
64.52000 174.615
64.56000 173.548
64.60000 179.777
64.64000 169.830
64.68000 176.562
64.72000 170.892
64.76000 181.128
64.80000 176.294
64.84000 172.949
64.88000 186.590
64.92000 190.316
64.96000 185.726
65.00000 199.069
65.04000 199.255
65.08000 214.770
65.12000 226.776
65.16000 226.856
65.20000 224.643
65.24000 253.053
65.28000 282.831
65.32000 298.842
65.36000 343.308
65.40000 354.089
65.44000 399.947
65.48000 405.583
65.52000 439.070
65.56000 452.783
65.60000 466.180
65.64000 474.519
65.68000 550.013
65.72000 684.651
65.76000 930.203
65.80000 1175.574
65.84000 1292.510
65.88000 1317.222
65.92000 1264.872
65.96000 1094.276
66.00000 797.297
66.04000 531.410
66.08000 400.454
66.12000 333.297
66.16000 324.702
66.20000 321.898
66.24000 332.712
66.28000 355.492
66.32000 422.392
66.36000 475.764
66.40000 505.545
66.44000 508.702
66.48000 471.665
66.52000 427.045
66.56000 378.633
66.60000 359.072
66.64000 352.617
66.68000 335.772
66.72000 328.690
66.76000 324.355
66.80000 350.237
66.84000 345.647
66.88000 340.691
66.92000 362.614
66.96000 357.492
67.00000 373.647
67.04000 376.247
67.08000 377.466
67.12000 388.128
67.16000 367.437
67.20000 390.568
67.24000 395.070
67.28000 413.918
67.32000 422.196
67.36000 416.412
67.40000 407.601
67.44000 439.721
67.48000 439.952
67.52000 451.061
67.56000 453.068
67.60000 467.247
67.64000 482.125
67.68000 492.980
67.72000 478.740
67.76000 518.406
67.80000 523.609
67.84000 535.346
67.88000 549.211
67.92000 548.097
67.96000 567.850
68.00000 575.820
68.04000 578.770
68.08000 608.400
68.12000 635.263
68.16000 634.433
68.20000 624.200
68.24000 657.552
68.28000 655.102
68.32000 680.943
68.36000 725.620
68.40000 756.657
68.44000 759.670
68.48000 831.038
68.52000 865.047
68.56000 932.456
68.60000 1080.789
68.64000 1251.786
68.68000 1489.390
68.72000 1758.944
68.76000 1995.965
68.80000 2256.114
68.84000 2637.863
68.88000 3131.368
68.92000 5658.831
68.96000 13677.553
69.00000 34296.520
69.04000 58113.258
69.08000 71873.391
69.12000 74919.992
69.16000 77552.664
69.20000 78255.750
69.24000 67231.703
69.28000 52314.148
69.32000 42064.762
69.36000 37638.078
69.40000 31506.244
69.44000 20013.287
69.48000 9582.396
69.52000 4156.129
69.56000 2383.077
69.60000 1776.810
69.64000 1491.026
69.68000 1270.225
69.72000 1151.144
69.76000 1096.004
69.80000 976.854
69.84000 913.112
69.88000 851.715
69.92000 825.942
69.96000 786.233
70.00000 758.532