File: XRD/XRD/30-09-2025 Dep 1/XY Data/BTO_Mapping_Theta2Theta_30-09-2025_001_03_20-000_0-000.xy
20.00000 574.858
20.04000 580.518
20.08000 555.720
20.12000 547.446
20.16000 580.367
20.20000 556.073
20.24000 555.799
20.28000 574.068
20.32000 585.798
20.36000 561.846
20.40000 547.515
20.44000 567.051
20.48000 558.760
20.52000 553.468
20.56000 554.764
20.60000 550.419
20.64000 580.034
20.68000 550.869
20.72000 579.072
20.76000 563.885
20.80000 571.399
20.84000 585.812
20.88000 568.705
20.92000 558.109
20.96000 565.179
21.00000 544.555
21.04000 556.060
21.08000 540.328
21.12000 563.007
21.16000 541.289
21.20000 564.938
21.24000 575.928
21.28000 558.723
21.32000 561.147
21.36000 552.248
21.40000 562.463
21.44000 544.112
21.48000 561.857
21.52000 573.677
21.56000 562.375
21.60000 560.935
21.64000 578.757
21.68000 580.026
21.72000 573.021
21.76000 607.234
21.80000 621.127
21.84000 663.162
21.88000 695.355
21.92000 757.864
21.96000 802.911
22.00000 814.684
22.04000 827.371
22.08000 831.356
22.12000 794.762
22.16000 741.012
22.20000 690.425
22.24000 620.737
22.28000 606.762
22.32000 558.926
22.36000 585.951
22.40000 573.618
22.44000 551.980
22.48000 542.923
22.52000 528.726
22.56000 530.356
22.60000 528.538
22.64000 525.038
22.68000 555.962
22.72000 535.198
22.76000 526.517
22.80000 532.175
22.84000 519.736
22.88000 523.601
22.92000 530.844
22.96000 524.074
23.00000 528.839
23.04000 533.916
23.08000 519.859
23.12000 518.931
23.16000 511.743
23.20000 506.902
23.24000 516.274
23.28000 512.705
23.32000 537.176
23.36000 506.071
23.40000 522.928
23.44000 499.088
23.48000 498.615
23.52000 517.518
23.56000 523.582
23.60000 519.774
23.64000 491.196
23.68000 493.271
23.72000 484.350
23.76000 490.633
23.80000 530.380
23.84000 499.031
23.88000 507.035
23.92000 500.868
23.96000 507.077
24.00000 501.198
24.04000 498.012
24.08000 514.504
24.12000 495.115
24.16000 501.496
24.20000 491.894
24.24000 494.055
24.28000 500.734
24.32000 500.578
24.36000 499.728
24.40000 484.194
24.44000 492.502
24.48000 491.778
24.52000 479.636
24.56000 504.679
24.60000 492.960
24.64000 491.127
24.68000 492.415
24.72000 504.734
24.76000 499.430
24.80000 499.321
24.84000 478.535
24.88000 496.761
24.92000 490.233
24.96000 475.108
25.00000 487.225
25.04000 476.023
25.08000 467.643
25.12000 466.112
25.16000 472.677
25.20000 480.726
25.24000 479.585
25.28000 468.660
25.32000 464.254
25.36000 475.602
25.40000 466.695
25.44000 464.565
25.48000 466.424
25.52000 477.855
25.56000 466.388
25.60000 475.656
25.64000 478.986
25.68000 465.380
25.72000 457.682
25.76000 476.302
25.80000 469.116
25.84000 476.733
25.88000 461.323
25.92000 482.252
25.96000 480.473
26.00000 476.566
26.04000 463.117
26.08000 463.683
26.12000 458.128
26.16000 465.225
26.20000 451.654
26.24000 470.216
26.28000 454.934
26.32000 460.177
26.36000 457.014
26.40000 472.326
26.44000 457.886
26.48000 445.677
26.52000 468.933
26.56000 465.021
26.60000 455.026
26.64000 470.295
26.68000 454.752
26.72000 454.380
26.76000 465.989
26.80000 459.563
26.84000 454.455
26.88000 468.657
26.92000 443.716
26.96000 455.180
27.00000 445.439
27.04000 444.066
27.08000 437.643
27.12000 451.382
27.16000 452.353
27.20000 455.935
27.24000 442.048
27.28000 431.016
27.32000 458.388
27.36000 454.093
27.40000 443.617
27.44000 436.449
27.48000 454.095
27.52000 437.075
27.56000 449.256
27.60000 452.421
27.64000 439.293
27.68000 436.548
27.72000 446.634
27.76000 449.499
27.80000 425.000
27.84000 436.240
27.88000 434.255
27.92000 429.527
27.96000 452.179
28.00000 448.717
28.04000 456.606
28.08000 436.006
28.12000 430.884
28.16000 450.776
28.20000 445.836
28.24000 432.613
28.28000 453.798
28.32000 444.682
28.36000 439.902
28.40000 443.640
28.44000 426.735
28.48000 442.922
28.52000 432.768
28.56000 419.432
28.60000 417.027
28.64000 432.602
28.68000 436.146
28.72000 422.575
28.76000 420.703
28.80000 424.329
28.84000 425.588
28.88000 418.134
28.92000 413.534
28.96000 414.493
29.00000 403.093
29.04000 422.796
29.08000 420.402
29.12000 423.897
29.16000 424.789
29.20000 431.588
29.24000 415.080
29.28000 408.731
29.32000 416.870
29.36000 425.361
29.40000 422.815
29.44000 438.693
29.48000 418.895
29.52000 407.146
29.56000 425.884
29.60000 416.445
29.64000 418.077
29.68000 418.399
29.72000 425.018
29.76000 436.388
29.80000 438.370
29.84000 442.583
29.88000 438.733
29.92000 450.015
29.96000 459.857
30.00000 458.357
30.04000 443.129
30.08000 453.006
30.12000 460.919
30.16000 443.901
30.20000 440.297
30.24000 456.813
30.28000 453.128
30.32000 435.545
30.36000 440.855
30.40000 432.456
30.44000 441.880
30.48000 453.610
30.52000 449.607
30.56000 464.553
30.60000 436.062
30.64000 452.927
30.68000 431.555
30.72000 464.107
30.76000 461.286
30.80000 479.915
30.84000 487.692
30.88000 510.517
30.92000 512.445
30.96000 581.349
31.00000 609.426
31.04000 708.950
31.08000 888.361
31.12000 1141.700
31.16000 1558.616
31.20000 2043.335
31.24000 2684.174
31.28000 3328.265
31.32000 3842.200
31.36000 4049.710
31.40000 3973.950
31.44000 3509.722
31.48000 2866.687
31.52000 2227.907
31.56000 1616.590
31.60000 1173.208
31.64000 850.821
31.68000 684.530
31.72000 565.296
31.76000 520.680
31.80000 483.392
31.84000 476.537
31.88000 441.393
31.92000 453.762
31.96000 434.221
32.00000 416.135
32.04000 435.698
32.08000 412.516
32.12000 416.552
32.16000 421.597
32.20000 399.790
32.24000 407.277
32.28000 402.246
32.32000 408.341
32.36000 387.782
32.40000 400.138
32.44000 391.808
32.48000 398.139
32.52000 397.613
32.56000 382.567
32.60000 396.532
32.64000 362.286
32.68000 372.875
32.72000 382.908
32.76000 376.380
32.80000 375.242
32.84000 391.380
32.88000 409.102
32.92000 461.619
32.96000 445.355
33.00000 468.526
33.04000 465.605
33.08000 446.273
33.12000 424.594
33.16000 393.931
33.20000 373.640
33.24000 359.194
33.28000 346.072
33.32000 348.949
33.36000 342.351
33.40000 366.411
33.44000 355.449
33.48000 347.482
33.52000 351.133
33.56000 349.046
33.60000 352.062
33.64000 345.273
33.68000 340.493
33.72000 341.705
33.76000 341.256
33.80000 346.424
33.84000 350.453
33.88000 367.688
33.92000 335.343
33.96000 347.498
34.00000 338.998
34.04000 351.321
34.08000 337.212
34.12000 331.019
34.16000 322.890
34.20000 339.195
34.24000 336.511
34.28000 331.899
34.32000 337.382
34.36000 333.215
34.40000 335.387
34.44000 315.718
34.48000 334.996
34.52000 326.196
34.56000 322.725
34.60000 319.395
34.64000 334.404
34.68000 334.606
34.72000 346.789
34.76000 315.566
34.80000 317.347
34.84000 335.474
34.88000 327.534
34.92000 341.026
34.96000 336.548
35.00000 321.646
35.04000 328.207
35.08000 305.660
35.12000 328.806
35.16000 310.169
35.20000 327.949
35.24000 320.115
35.28000 310.147
35.32000 311.203
35.36000 326.743
35.40000 326.096
35.44000 304.185
35.48000 310.934
35.52000 316.390
35.56000 331.219
35.60000 310.136
35.64000 331.170
35.68000 317.534
35.72000 316.631
35.76000 311.415
35.80000 314.205
35.84000 305.015
35.88000 299.957
35.92000 314.870
35.96000 305.804
36.00000 310.250
36.04000 302.965
36.08000 312.472
36.12000 318.134
36.16000 305.982
36.20000 314.954
36.24000 312.492
36.28000 307.790
36.32000 305.779
36.36000 304.976
36.40000 302.050
36.44000 313.287
36.48000 297.432
36.52000 288.775
36.56000 304.007
36.60000 298.020
36.64000 304.473
36.68000 323.562
36.72000 307.352
36.76000 297.459
36.80000 305.371
36.84000 302.314
36.88000 309.073
36.92000 308.206
36.96000 304.406
37.00000 305.381
37.04000 312.556
37.08000 306.758
37.12000 298.010
37.16000 294.992
37.20000 304.278
37.24000 296.343
37.28000 316.378
37.32000 308.690
37.36000 298.101
37.40000 299.978
37.44000 313.141
37.48000 297.079
37.52000 298.851
37.56000 281.496
37.60000 301.932
37.64000 299.089
37.68000 286.590
37.72000 297.779
37.76000 302.923
37.80000 304.262
37.84000 299.872
37.88000 304.323
37.92000 288.462
37.96000 293.012
38.00000 295.929
38.04000 297.476
38.08000 290.323
38.12000 318.361
38.16000 305.658
38.20000 306.287
38.24000 300.257
38.28000 317.911
38.32000 325.132
38.36000 333.935
38.40000 360.487
38.44000 417.995
38.48000 437.728
38.52000 503.103
38.56000 580.894
38.60000 667.810
38.64000 741.391
38.68000 782.258
38.72000 805.475
38.76000 760.226
38.80000 683.128
38.84000 624.145
38.88000 539.771
38.92000 439.929
38.96000 406.692
39.00000 341.383
39.04000 322.143
39.08000 310.815
39.12000 295.614
39.16000 283.811
39.20000 291.299
39.24000 285.047
39.28000 273.887
39.32000 288.028
39.36000 294.793
39.40000 276.485
39.44000 284.544
39.48000 268.635
39.52000 281.989
39.56000 289.436
39.60000 268.497
39.64000 266.150
39.68000 266.124
39.72000 282.575
39.76000 270.508
39.80000 269.339
39.84000 283.295
39.88000 255.993
39.92000 258.140
39.96000 245.001
40.00000 261.930
40.04000 268.622
40.08000 262.814
40.12000 258.713
40.16000 254.302
40.20000 249.955
40.24000 263.189
40.28000 272.983
40.32000 264.598
40.36000 256.183
40.40000 250.957
40.44000 249.788
40.48000 259.621
40.52000 256.872
40.56000 260.891
40.60000 258.659
40.64000 260.879
40.68000 250.775
40.72000 242.285
40.76000 264.061
40.80000 245.577
40.84000 249.399
40.88000 263.425
40.92000 257.226
40.96000 265.784
41.00000 249.693
41.04000 251.407
41.08000 244.587
41.12000 241.857
41.16000 241.340
41.20000 243.300
41.24000 251.578
41.28000 247.052
41.32000 246.870
41.36000 237.569
41.40000 256.030
41.44000 258.013
41.48000 235.382
41.52000 232.436
41.56000 250.893
41.60000 248.932
41.64000 242.057
41.68000 239.385
41.72000 245.432
41.76000 237.848
41.80000 241.574
41.84000 241.347
41.88000 241.825
41.92000 251.311
41.96000 233.423
42.00000 236.905
42.04000 244.455
42.08000 239.032
42.12000 232.225
42.16000 239.007
42.20000 246.483
42.24000 234.055
42.28000 246.487
42.32000 254.650
42.36000 239.975
42.40000 236.870
42.44000 234.717
42.48000 237.311
42.52000 235.934
42.56000 245.528
42.60000 238.878
42.64000 234.396
42.68000 236.108
42.72000 230.343
42.76000 228.459
42.80000 232.993
42.84000 244.487
42.88000 240.958
42.92000 227.260
42.96000 247.851
43.00000 235.489
43.04000 230.610
43.08000 239.406
43.12000 229.163
43.16000 228.512
43.20000 234.227
43.24000 237.970
43.28000 232.023
43.32000 237.170
43.36000 222.575
43.40000 221.161
43.44000 213.418
43.48000 238.153
43.52000 229.742
43.56000 238.742
43.60000 231.578
43.64000 218.079
43.68000 226.671
43.72000 227.727
43.76000 218.095
43.80000 229.792
43.84000 223.723
43.88000 223.241
43.92000 228.533
43.96000 217.880
44.00000 221.062
44.04000 227.165
44.08000 232.356
44.12000 214.563
44.16000 217.768
44.20000 219.930
44.24000 238.340
44.28000 225.707
44.32000 232.551
44.36000 237.357
44.40000 238.844
44.44000 218.291
44.48000 231.112
44.52000 221.383
44.56000 235.006
44.60000 230.626
44.64000 237.848
44.68000 246.946
44.72000 259.845
44.76000 279.141
44.80000 295.156
44.84000 321.272
44.88000 356.499
44.92000 396.653
44.96000 453.398
45.00000 479.635
45.04000 478.775
45.08000 489.640
45.12000 469.383
45.16000 434.897
45.20000 397.342
45.24000 361.020
45.28000 324.802
45.32000 296.689
45.36000 277.150
45.40000 270.383
45.44000 245.028
45.48000 237.794
45.52000 237.651
45.56000 228.671
45.60000 234.562
45.64000 227.031
45.68000 207.763
45.72000 219.396
45.76000 224.466
45.80000 218.780
45.84000 209.917
45.88000 213.322
45.92000 216.066
45.96000 209.704
46.00000 201.954
46.04000 203.245
46.08000 208.793
46.12000 205.836
46.16000 209.979
46.20000 201.654
46.24000 207.934
46.28000 196.890
46.32000 211.830
46.36000 202.136
46.40000 196.048
46.44000 203.023
46.48000 191.890
46.52000 202.115
46.56000 208.259
46.60000 204.113
46.64000 195.871
46.68000 197.781
46.72000 196.814
46.76000 203.383
46.80000 197.243
46.84000 199.438
46.88000 200.029
46.92000 185.856
46.96000 195.729
47.00000 190.811
47.04000 203.502
47.08000 187.437
47.12000 186.825
47.16000 199.443
47.20000 192.617
47.24000 190.666
47.28000 179.006
47.32000 186.956
47.36000 198.697
47.40000 194.971
47.44000 198.216
47.48000 193.650
47.52000 190.202
47.56000 194.527
47.60000 192.744
47.64000 206.599
47.68000 190.385
47.72000 186.208
47.76000 183.101
47.80000 192.928
47.84000 186.042
47.88000 191.313
47.92000 180.397
47.96000 187.712
48.00000 176.618
48.04000 185.285
48.08000 205.558
48.12000 189.557
48.16000 180.992
48.20000 182.519
48.24000 186.735
48.28000 189.844
48.32000 177.616
48.36000 175.114
48.40000 183.748
48.44000 178.474
48.48000 189.787
48.52000 178.905
48.56000 188.704
48.60000 186.939
48.64000 182.547
48.68000 193.412
48.72000 194.009
48.76000 186.551
48.80000 184.536
48.84000 170.439
48.88000 176.026
48.92000 169.065
48.96000 185.601
49.00000 178.037
49.04000 181.349
49.08000 177.694
49.12000 179.412
49.16000 178.097
49.20000 180.302
49.24000 181.399
49.28000 189.871
49.32000 163.406
49.36000 173.744
49.40000 173.637
49.44000 179.005
49.48000 182.238
49.52000 172.701
49.56000 176.310
49.60000 187.397
49.64000 180.746
49.68000 182.637
49.72000 186.894
49.76000 181.489
49.80000 182.072
49.84000 173.014
49.88000 170.078
49.92000 184.656
49.96000 170.087
50.00000 178.819
50.04000 187.026
50.08000 177.355
50.12000 181.240
50.16000 184.376
50.20000 186.036
50.24000 188.273
50.28000 191.752
50.32000 189.718
50.36000 196.334
50.40000 205.815
50.44000 201.925
50.48000 234.289
50.52000 254.988
50.56000 245.923
50.60000 274.481
50.64000 292.349
50.68000 288.735
50.72000 289.646
50.76000 279.884
50.80000 261.775
50.84000 242.397
50.88000 227.991
50.92000 221.154
50.96000 198.763
51.00000 197.935
51.04000 189.220
51.08000 177.781
51.12000 171.048
51.16000 173.829
51.20000 175.000
51.24000 177.259
51.28000 179.989
51.32000 177.422
51.36000 156.596
51.40000 165.919
51.44000 170.528
51.48000 177.547
51.52000 160.729
51.56000 169.219
51.60000 171.433
51.64000 177.044
51.68000 173.136
51.72000 182.265
51.76000 181.916
51.80000 161.881
51.84000 161.032
51.88000 176.002
51.92000 161.659
51.96000 154.551
52.00000 166.539
52.04000 162.745
52.08000 160.794
52.12000 167.604
52.16000 174.882
52.20000 157.284
52.24000 167.413
52.28000 160.162
52.32000 164.304
52.36000 159.350
52.40000 168.556
52.44000 159.952
52.48000 151.959
52.52000 162.847
52.56000 165.640
52.60000 159.500
52.64000 159.219
52.68000 146.512
52.72000 168.600
52.76000 167.800
52.80000 145.585
52.84000 165.511
52.88000 170.173
52.92000 160.409
52.96000 176.578
53.00000 160.649
53.04000 154.131
53.08000 155.126
53.12000 158.315
53.16000 161.032
53.20000 156.406
53.24000 165.222
53.28000 159.870
53.32000 161.213
53.36000 164.710
53.40000 155.306
53.44000 156.684
53.48000 166.291
53.52000 156.760
53.56000 170.859
53.60000 164.896
53.64000 159.405
53.68000 160.167
53.72000 151.094
53.76000 151.262
53.80000 156.405
53.84000 156.997
53.88000 162.709
53.92000 144.388
53.96000 152.866
54.00000 164.436
54.04000 164.431
54.08000 146.153
54.12000 148.361
54.16000 151.130
54.20000 149.152
54.24000 153.090
54.28000 162.327
54.32000 157.410
54.36000 145.457
54.40000 162.585
54.44000 153.306
54.48000 154.675
54.52000 166.093
54.56000 159.072
54.60000 163.072
54.64000 166.828
54.68000 155.004
54.72000 153.713
54.76000 170.214
54.80000 158.412
54.84000 150.618
54.88000 156.768
54.92000 156.899
54.96000 160.784
55.00000 154.618
55.04000 156.313
55.08000 171.090
55.12000 156.414
55.16000 156.202
55.20000 180.852
55.24000 157.005
55.28000 163.648
55.32000 169.823
55.36000 174.464
55.40000 181.183
55.44000 177.780
55.48000 212.872
55.52000 209.640
55.56000 228.797
55.60000 237.938
55.64000 286.608
55.68000 328.573
55.72000 398.588
55.76000 460.657
55.80000 549.771
55.84000 614.167
55.88000 665.364
55.92000 661.825
55.96000 669.417
56.00000 629.805
56.04000 585.171
56.08000 519.778
56.12000 434.645
56.16000 375.520
56.20000 315.237
56.24000 293.222
56.28000 232.607
56.32000 210.536
56.36000 197.640
56.40000 187.976
56.44000 186.277
56.48000 172.066
56.52000 167.574
56.56000 166.231
56.60000 159.333
56.64000 162.668
56.68000 156.201
56.72000 155.581
56.76000 158.855
56.80000 149.346
56.84000 161.725
56.88000 159.755
56.92000 154.580
56.96000 150.503
57.00000 157.686
57.04000 144.020
57.08000 142.558
57.12000 144.860
57.16000 135.545
57.20000 147.433
57.24000 145.483
57.28000 153.186
57.32000 144.712
57.36000 138.875
57.40000 147.269
57.44000 150.498
57.48000 167.110
57.52000 145.195
57.56000 142.290
57.60000 143.038
57.64000 149.893
57.68000 134.513
57.72000 142.931
57.76000 148.252
57.80000 130.425
57.84000 141.429
57.88000 144.793
57.92000 138.342
57.96000 142.383
58.00000 141.599
58.04000 133.459
58.08000 130.161
58.12000 138.684
58.16000 141.517
58.20000 140.262
58.24000 140.693
58.28000 146.076
58.32000 138.935
58.36000 151.451
58.40000 131.445
58.44000 135.936
58.48000 137.521
58.52000 145.184
58.56000 141.945
58.60000 143.601
58.64000 140.145
58.68000 138.183
58.72000 126.520
58.76000 138.309
58.80000 138.534
58.84000 150.588
58.88000 141.695
58.92000 154.658
58.96000 132.230
59.00000 146.278
59.04000 143.790
59.08000 126.195
59.12000 132.613
59.16000 141.008
59.20000 131.856
59.24000 131.925
59.28000 132.449
59.32000 138.162
59.36000 137.770
59.40000 131.391
59.44000 133.031
59.48000 142.411
59.52000 132.141
59.56000 139.023
59.60000 142.762
59.64000 129.988
59.68000 129.424
59.72000 135.452
59.76000 130.628
59.80000 136.026
59.84000 136.098
59.88000 136.548
59.92000 134.079
59.96000 137.074
60.00000 136.935
60.04000 138.491
60.08000 139.487
60.12000 134.377
60.16000 123.571
60.20000 125.035
60.24000 126.211
60.28000 153.785
60.32000 133.747
60.36000 134.298
60.40000 141.925
60.44000 138.906
60.48000 140.229
60.52000 143.184
60.56000 139.308
60.60000 130.401
60.64000 131.146
60.68000 137.865
60.72000 138.944
60.76000 140.279
60.80000 134.826
60.84000 140.501
60.88000 130.426
60.92000 127.993
60.96000 131.389
61.00000 141.126
61.04000 135.950
61.08000 135.368
61.12000 132.826
61.16000 136.346
61.20000 141.504
61.24000 141.724
61.28000 138.138
61.32000 139.060
61.36000 133.412
61.40000 137.947
61.44000 137.278
61.48000 149.939
61.52000 181.936
61.56000 223.474
61.60000 284.256
61.64000 304.655
61.68000 322.883
61.72000 312.534
61.76000 299.522
61.80000 235.740
61.84000 194.014
61.88000 160.646
61.92000 155.296
61.96000 141.103
62.00000 150.226
62.04000 154.083
62.08000 130.868
62.12000 158.377
62.16000 148.642
62.20000 138.996
62.24000 129.262
62.28000 138.886
62.32000 148.538
62.36000 152.821
62.40000 149.609
62.44000 144.343
62.48000 148.465
62.52000 148.149
62.56000 146.034
62.60000 146.644
62.64000 147.868
62.68000 147.205
62.72000 153.773
62.76000 146.405
62.80000 144.040
62.84000 141.674
62.88000 129.246
62.92000 146.049
62.96000 152.181
63.00000 158.298
63.04000 149.863
63.08000 167.293
63.12000 152.330
63.16000 146.803
63.20000 146.270
63.24000 146.268
63.28000 144.894
63.32000 149.779
63.36000 147.828
63.40000 141.913
63.44000 154.123
63.48000 147.526
63.52000 150.422
63.56000 143.793
63.60000 143.657
63.64000 146.701
63.68000 148.429
63.72000 150.225
63.76000 162.650
63.80000 155.852
63.84000 160.144
63.88000 150.977
63.92000 158.741
63.96000 163.596
64.00000 165.557
64.04000 164.730
64.08000 162.230
64.12000 155.771
64.16000 156.030
64.20000 166.509
64.24000 162.728
64.28000 169.104
64.32000 173.280
64.36000 168.981
64.40000 160.192
64.44000 170.565
64.48000 176.055
64.52000 178.210
64.56000 164.345
64.60000 177.796
64.64000 175.763
64.68000 177.844
64.72000 187.449
64.76000 173.522
64.80000 186.719
64.84000 193.342
64.88000 192.530
64.92000 190.297
64.96000 187.205
65.00000 200.200
65.04000 211.414
65.08000 219.912
65.12000 213.545
65.16000 235.931
65.20000 242.191
65.24000 251.949
65.28000 283.349
65.32000 315.565
65.36000 335.771
65.40000 369.593
65.44000 404.787
65.48000 433.623
65.52000 446.364
65.56000 477.603
65.60000 494.740
65.64000 534.494
65.68000 609.703
65.72000 793.005
65.76000 1070.279
65.80000 1250.723
65.84000 1331.987
65.88000 1350.822
65.92000 1251.766
65.96000 1018.815
66.00000 701.324
66.04000 462.172
66.08000 378.025
66.12000 333.931
66.16000 326.399
66.20000 318.671
66.24000 337.941
66.28000 386.644
66.32000 427.705
66.36000 474.138
66.40000 503.694
66.44000 502.500
66.48000 466.011
66.52000 444.012
66.56000 395.253
66.60000 340.434
66.64000 339.650
66.68000 321.064
66.72000 337.815
66.76000 339.310
66.80000 312.822
66.84000 346.858
66.88000 335.325
66.92000 355.247
66.96000 362.202
67.00000 363.686
67.04000 378.730
67.08000 379.063
67.12000 397.766
67.16000 383.553
67.20000 415.448
67.24000 416.308
67.28000 417.893
67.32000 425.280
67.36000 420.390
67.40000 425.973
67.44000 462.544
67.48000 462.919
67.52000 441.862
67.56000 465.103
67.60000 476.668
67.64000 478.202
67.68000 480.585
67.72000 510.588
67.76000 516.610
67.80000 502.146
67.84000 538.598
67.88000 540.734
67.92000 564.294
67.96000 573.502
68.00000 575.675
68.04000 611.759
68.08000 608.515
68.12000 626.158
68.16000 617.762
68.20000 657.780
68.24000 652.032
68.28000 697.186
68.32000 718.311
68.36000 721.129
68.40000 764.319
68.44000 825.393
68.48000 841.226
68.52000 900.611
68.56000 980.243
68.60000 1138.446
68.64000 1339.321
68.68000 1610.451
68.72000 1852.468
68.76000 2112.817
68.80000 2424.924
68.84000 2853.353
68.88000 3585.838
68.92000 7924.189
68.96000 19899.006
69.00000 43409.074
69.04000 65035.004
69.08000 74291.727
69.12000 76510.320
69.16000 79229.156
69.20000 77087.188
69.24000 62928.512
69.28000 48602.617
69.32000 40707.586
69.36000 36325.137
69.40000 28437.482
69.44000 16270.765
69.48000 7254.329
69.52000 3400.672
69.56000 2110.092
69.60000 1645.426
69.64000 1414.274
69.68000 1244.411
69.72000 1121.468
69.76000 1045.391
69.80000 940.312
69.84000 922.259
69.88000 845.105
69.92000 825.269
69.96000 773.618
70.00000 722.532