File: XRD/XRD/30-09-2025 Dep 1/XY Data/BTO_Mapping_Theta2Theta_30-09-2025_001_51_6-180_-19-021.xy
20.00000 562.853
20.04000 577.769
20.08000 580.519
20.12000 576.686
20.16000 585.320
20.20000 589.568
20.24000 551.523
20.28000 556.012
20.32000 559.468
20.36000 572.912
20.40000 578.482
20.44000 580.654
20.48000 568.184
20.52000 580.925
20.56000 557.461
20.60000 571.323
20.64000 561.826
20.68000 546.075
20.72000 555.063
20.76000 575.679
20.80000 576.238
20.84000 559.967
20.88000 587.798
20.92000 566.528
20.96000 568.200
21.00000 580.481
21.04000 575.344
21.08000 588.427
21.12000 546.877
21.16000 557.776
21.20000 544.195
21.24000 568.443
21.28000 549.339
21.32000 542.938
21.36000 571.298
21.40000 546.736
21.44000 591.925
21.48000 562.655
21.52000 537.179
21.56000 565.132
21.60000 584.349
21.64000 588.249
21.68000 617.088
21.72000 603.701
21.76000 658.348
21.80000 711.946
21.84000 769.468
21.88000 817.982
21.92000 896.934
21.96000 958.784
22.00000 985.635
22.04000 975.091
22.08000 911.365
22.12000 837.218
22.16000 739.439
22.20000 707.901
22.24000 649.639
22.28000 592.996
22.32000 582.896
22.36000 574.490
22.40000 581.894
22.44000 551.431
22.48000 544.750
22.52000 562.529
22.56000 534.595
22.60000 533.786
22.64000 545.351
22.68000 539.721
22.72000 546.478
22.76000 535.105
22.80000 551.594
22.84000 543.671
22.88000 542.817
22.92000 536.695
22.96000 532.072
23.00000 562.834
23.04000 539.761
23.08000 534.446
23.12000 505.768
23.16000 536.122
23.20000 515.636
23.24000 514.964
23.28000 534.099
23.32000 514.885
23.36000 510.390
23.40000 506.459
23.44000 504.194
23.48000 518.187
23.52000 522.599
23.56000 505.024
23.60000 505.904
23.64000 502.817
23.68000 525.633
23.72000 507.914
23.76000 522.775
23.80000 511.079
23.84000 516.585
23.88000 519.730
23.92000 519.724
23.96000 499.875
24.00000 499.710
24.04000 516.652
24.08000 512.150
24.12000 512.330
24.16000 520.576
24.20000 486.871
24.24000 504.881
24.28000 497.102
24.32000 500.166
24.36000 474.082
24.40000 498.846
24.44000 499.903
24.48000 497.225
24.52000 505.951
24.56000 512.402
24.60000 497.973
24.64000 496.936
24.68000 495.941
24.72000 488.086
24.76000 477.604
24.80000 493.720
24.84000 484.398
24.88000 482.270
24.92000 488.933
24.96000 507.397
25.00000 498.960
25.04000 497.425
25.08000 483.797
25.12000 485.827
25.16000 492.921
25.20000 494.336
25.24000 470.209
25.28000 465.516
25.32000 486.362
25.36000 477.435
25.40000 478.200
25.44000 488.380
25.48000 475.275
25.52000 482.131
25.56000 471.010
25.60000 478.034
25.64000 485.098
25.68000 472.162
25.72000 483.108
25.76000 477.081
25.80000 491.886
25.84000 478.775
25.88000 498.056
25.92000 496.324
25.96000 478.061
26.00000 466.401
26.04000 476.086
26.08000 486.410
26.12000 472.605
26.16000 480.684
26.20000 466.580
26.24000 471.999
26.28000 459.540
26.32000 466.804
26.36000 461.160
26.40000 470.251
26.44000 469.148
26.48000 475.587
26.52000 446.754
26.56000 482.432
26.60000 467.634
26.64000 452.866
26.68000 457.994
26.72000 464.629
26.76000 473.418
26.80000 469.801
26.84000 448.223
26.88000 459.685
26.92000 472.660
26.96000 459.160
27.00000 480.475
27.04000 471.696
27.08000 454.959
27.12000 448.062
27.16000 429.024
27.20000 445.933
27.24000 471.802
27.28000 457.322
27.32000 450.053
27.36000 437.223
27.40000 447.290
27.44000 479.437
27.48000 453.339
27.52000 458.966
27.56000 445.287
27.60000 454.462
27.64000 449.248
27.68000 445.872
27.72000 441.728
27.76000 460.439
27.80000 430.182
27.84000 464.214
27.88000 442.148
27.92000 445.828
27.96000 432.518
28.00000 438.383
28.04000 437.954
28.08000 449.871
28.12000 455.202
28.16000 446.982
28.20000 445.292
28.24000 463.130
28.28000 423.998
28.32000 455.302
28.36000 448.254
28.40000 444.002
28.44000 417.790
28.48000 423.629
28.52000 443.452
28.56000 421.237
28.60000 449.911
28.64000 418.601
28.68000 421.175
28.72000 434.295
28.76000 436.297
28.80000 422.497
28.84000 430.557
28.88000 433.694
28.92000 440.567
28.96000 426.180
29.00000 418.559
29.04000 438.867
29.08000 420.780
29.12000 438.814
29.16000 433.442
29.20000 437.316
29.24000 425.096
29.28000 423.376
29.32000 452.739
29.36000 440.001
29.40000 435.981
29.44000 436.774
29.48000 431.096
29.52000 420.991
29.56000 423.823
29.60000 416.596
29.64000 447.412
29.68000 429.794
29.72000 431.201
29.76000 431.378
29.80000 420.498
29.84000 445.479
29.88000 469.886
29.92000 471.146
29.96000 476.031
30.00000 462.970
30.04000 447.022
30.08000 463.458
30.12000 461.397
30.16000 457.885
30.20000 443.767
30.24000 475.848
30.28000 458.549
30.32000 460.007
30.36000 440.970
30.40000 441.419
30.44000 453.438
30.48000 439.407
30.52000 454.039
30.56000 458.530
30.60000 456.279
30.64000 456.800
30.68000 474.985
30.72000 469.211
30.76000 493.053
30.80000 499.284
30.84000 522.052
30.88000 539.590
30.92000 564.317
30.96000 632.441
31.00000 724.115
31.04000 918.692
31.08000 1194.027
31.12000 1642.090
31.16000 2197.256
31.20000 2868.583
31.24000 3506.560
31.28000 3979.333
31.32000 4190.948
31.36000 4021.929
31.40000 3605.745
31.44000 2904.573
31.48000 2208.818
31.52000 1627.364
31.56000 1189.662
31.60000 845.721
31.64000 693.812
31.68000 593.910
31.72000 548.156
31.76000 516.801
31.80000 477.751
31.84000 472.032
31.88000 468.586
31.92000 451.798
31.96000 439.723
32.00000 443.249
32.04000 431.090
32.08000 435.074
32.12000 422.098
32.16000 417.741
32.20000 410.353
32.24000 418.406
32.28000 415.820
32.32000 397.278
32.36000 391.136
32.40000 396.505
32.44000 384.891
32.48000 397.876
32.52000 393.271
32.56000 399.913
32.60000 385.154
32.64000 369.722
32.68000 390.172
32.72000 388.474
32.76000 365.096
32.80000 386.316
32.84000 395.314
32.88000 421.768
32.92000 444.802
32.96000 469.498
33.00000 484.813
33.04000 483.496
33.08000 472.676
33.12000 451.552
33.16000 411.614
33.20000 379.270
33.24000 379.049
33.28000 369.155
33.32000 358.787
33.36000 355.569
33.40000 351.707
33.44000 356.263
33.48000 353.756
33.52000 364.523
33.56000 349.243
33.60000 343.603
33.64000 345.222
33.68000 371.019
33.72000 349.885
33.76000 334.336
33.80000 352.604
33.84000 340.713
33.88000 361.929
33.92000 346.360
33.96000 347.212
34.00000 328.368
34.04000 335.105
34.08000 358.754
34.12000 352.089
34.16000 346.485
34.20000 350.169
34.24000 340.338
34.28000 343.602
34.32000 347.549
34.36000 352.216
34.40000 327.581
34.44000 339.621
34.48000 328.432
34.52000 341.873
34.56000 334.651
34.60000 343.382
34.64000 328.971
34.68000 307.579
34.72000 333.884
34.76000 322.214
34.80000 335.944
34.84000 334.931
34.88000 319.793
34.92000 332.975
34.96000 343.314
35.00000 331.224
35.04000 328.565
35.08000 329.382
35.12000 313.408
35.16000 326.359
35.20000 330.887
35.24000 326.325
35.28000 328.238
35.32000 328.096
35.36000 330.893
35.40000 319.867
35.44000 320.123
35.48000 319.603
35.52000 321.267
35.56000 308.320
35.60000 313.242
35.64000 312.581
35.68000 317.916
35.72000 323.442
35.76000 312.599
35.80000 310.064
35.84000 302.294
35.88000 309.037
35.92000 310.987
35.96000 295.732
36.00000 306.423
36.04000 325.082
36.08000 312.166
36.12000 298.044
36.16000 312.960
36.20000 303.004
36.24000 293.827
36.28000 324.199
36.32000 321.532
36.36000 315.619
36.40000 296.608
36.44000 311.290
36.48000 318.151
36.52000 309.082
36.56000 298.961
36.60000 308.155
36.64000 298.886
36.68000 302.886
36.72000 298.873
36.76000 286.350
36.80000 301.363
36.84000 303.638
36.88000 312.766
36.92000 301.580
36.96000 301.787
37.00000 303.630
37.04000 296.396
37.08000 308.273
37.12000 311.273
37.16000 303.560
37.20000 287.081
37.24000 300.234
37.28000 307.351
37.32000 298.213
37.36000 304.754
37.40000 306.701
37.44000 293.145
37.48000 299.447
37.52000 304.552
37.56000 297.497
37.60000 292.089
37.64000 304.198
37.68000 296.673
37.72000 296.830
37.76000 294.953
37.80000 303.909
37.84000 292.262
37.88000 294.549
37.92000 318.530
37.96000 304.033
38.00000 286.454
38.04000 283.752
38.08000 302.635
38.12000 310.720
38.16000 304.246
38.20000 295.849
38.24000 323.147
38.28000 331.881
38.32000 318.797
38.36000 361.452
38.40000 376.387
38.44000 389.800
38.48000 448.691
38.52000 473.946
38.56000 539.606
38.60000 554.508
38.64000 551.448
38.68000 605.896
38.72000 557.601
38.76000 503.443
38.80000 467.203
38.84000 410.478
38.88000 382.383
38.92000 353.798
38.96000 323.894
39.00000 320.877
39.04000 311.448
39.08000 292.465
39.12000 309.475
39.16000 290.334
39.20000 288.247
39.24000 277.773
39.28000 284.815
39.32000 277.382
39.36000 274.051
39.40000 273.141
39.44000 286.675
39.48000 272.406
39.52000 279.751
39.56000 262.634
39.60000 270.194
39.64000 254.744
39.68000 279.308
39.72000 263.548
39.76000 276.101
39.80000 281.155
39.84000 256.663
39.88000 279.690
39.92000 258.141
39.96000 253.542
40.00000 250.579
40.04000 256.368
40.08000 251.763
40.12000 268.006
40.16000 261.429
40.20000 261.912
40.24000 266.574
40.28000 272.633
40.32000 263.047
40.36000 252.277
40.40000 270.241
40.44000 260.615
40.48000 265.049
40.52000 250.048
40.56000 266.772
40.60000 263.937
40.64000 261.811
40.68000 257.369
40.72000 261.346
40.76000 266.634
40.80000 261.721
40.84000 264.649
40.88000 269.694
40.92000 265.188
40.96000 264.223
41.00000 251.866
41.04000 247.155
41.08000 254.273
41.12000 247.910
41.16000 254.914
41.20000 267.055
41.24000 253.799
41.28000 249.902
41.32000 256.398
41.36000 249.404
41.40000 255.625
41.44000 252.047
41.48000 242.870
41.52000 247.142
41.56000 258.623
41.60000 252.655
41.64000 260.911
41.68000 238.710
41.72000 240.653
41.76000 254.284
41.80000 249.455
41.84000 238.729
41.88000 239.941
41.92000 260.012
41.96000 246.074
42.00000 252.292
42.04000 237.781
42.08000 237.959
42.12000 239.031
42.16000 240.983
42.20000 245.000
42.24000 247.862
42.28000 251.324
42.32000 258.599
42.36000 240.782
42.40000 238.502
42.44000 227.901
42.48000 232.630
42.52000 240.223
42.56000 227.969
42.60000 248.831
42.64000 232.369
42.68000 242.334
42.72000 235.368
42.76000 229.323
42.80000 245.548
42.84000 237.003
42.88000 235.640
42.92000 218.932
42.96000 244.865
43.00000 240.240
43.04000 237.609
43.08000 235.413
43.12000 244.364
43.16000 231.713
43.20000 238.667
43.24000 241.164
43.28000 237.297
43.32000 228.916
43.36000 223.080
43.40000 232.530
43.44000 227.587
43.48000 236.924
43.52000 231.793
43.56000 221.852
43.60000 233.339
43.64000 227.112
43.68000 232.441
43.72000 226.823
43.76000 221.976
43.80000 223.332
43.84000 222.950
43.88000 233.073
43.92000 230.452
43.96000 233.750
44.00000 226.124
44.04000 243.383
44.08000 224.323
44.12000 246.037
44.16000 230.987
44.20000 232.611
44.24000 235.607
44.28000 238.421
44.32000 231.519
44.36000 242.951
44.40000 247.358
44.44000 248.043
44.48000 248.684
44.52000 251.612
44.56000 274.498
44.60000 287.317
44.64000 284.370
44.68000 317.848
44.72000 355.521
44.76000 415.693
44.80000 460.495
44.84000 506.227
44.88000 556.991
44.92000 583.791
44.96000 582.808
45.00000 594.193
45.04000 555.556
45.08000 526.820
45.12000 473.623
45.16000 437.865
45.20000 384.288
45.24000 342.821
45.28000 314.490
45.32000 286.228
45.36000 279.652
45.40000 270.642
45.44000 255.448
45.48000 236.886
45.52000 244.279
45.56000 238.298
45.60000 234.244
45.64000 228.579
45.68000 238.518
45.72000 234.961
45.76000 234.891
45.80000 221.730
45.84000 219.585
45.88000 209.495
45.92000 222.185
45.96000 221.404
46.00000 200.721
46.04000 212.375
46.08000 216.451
46.12000 220.194
46.16000 217.953
46.20000 211.386
46.24000 217.944
46.28000 200.462
46.32000 206.920
46.36000 206.503
46.40000 207.348
46.44000 217.830
46.48000 207.145
46.52000 203.646
46.56000 206.354
46.60000 203.641
46.64000 202.991
46.68000 204.295
46.72000 205.644
46.76000 205.704
46.80000 207.142
46.84000 209.758
46.88000 213.175
46.92000 204.341
46.96000 196.343
47.00000 205.010
47.04000 203.483
47.08000 203.875
47.12000 199.924
47.16000 186.798
47.20000 186.320
47.24000 202.501
47.28000 197.576
47.32000 208.129
47.36000 209.307
47.40000 205.933
47.44000 207.526
47.48000 193.640
47.52000 207.172
47.56000 199.815
47.60000 203.877
47.64000 195.869
47.68000 195.970
47.72000 198.047
47.76000 201.175
47.80000 197.913
47.84000 200.481
47.88000 186.345
47.92000 186.122
47.96000 202.900
48.00000 188.467
48.04000 192.227
48.08000 187.629
48.12000 195.043
48.16000 193.158
48.20000 190.919
48.24000 191.542
48.28000 187.811
48.32000 188.152
48.36000 189.331
48.40000 189.834
48.44000 180.600
48.48000 182.966
48.52000 182.917
48.56000 199.631
48.60000 191.879
48.64000 178.587
48.68000 180.298
48.72000 184.516
48.76000 198.171
48.80000 188.055
48.84000 185.001
48.88000 185.686
48.92000 183.046
48.96000 178.910
49.00000 171.035
49.04000 181.652
49.08000 177.726
49.12000 180.640
49.16000 200.766
49.20000 198.274
49.24000 186.440
49.28000 189.267
49.32000 191.072
49.36000 184.638
49.40000 185.472
49.44000 176.543
49.48000 182.949
49.52000 186.306
49.56000 186.688
49.60000 200.125
49.64000 179.289
49.68000 193.269
49.72000 194.430
49.76000 181.552
49.80000 174.728
49.84000 194.021
49.88000 188.877
49.92000 169.357
49.96000 184.083
50.00000 179.267
50.04000 175.813
50.08000 180.979
50.12000 177.356
50.16000 186.968
50.20000 194.469
50.24000 205.900
50.28000 204.364
50.32000 213.729
50.36000 212.386
50.40000 235.618
50.44000 251.067
50.48000 286.592
50.52000 288.511
50.56000 295.769
50.60000 306.558
50.64000 309.355
50.68000 286.475
50.72000 274.548
50.76000 276.057
50.80000 255.627
50.84000 244.938
50.88000 221.309
50.92000 214.388
50.96000 211.590
51.00000 199.014
51.04000 196.833
51.08000 190.264
51.12000 185.844
51.16000 170.023
51.20000 179.863
51.24000 172.292
51.28000 181.992
51.32000 180.628
51.36000 168.627
51.40000 178.013
51.44000 170.272
51.48000 179.498
51.52000 172.459
51.56000 162.987
51.60000 175.845
51.64000 172.000
51.68000 175.495
51.72000 170.504
51.76000 169.199
51.80000 167.265
51.84000 164.460
51.88000 177.948
51.92000 168.761
51.96000 168.772
52.00000 176.481
52.04000 162.508
52.08000 169.196
52.12000 162.834
52.16000 162.339
52.20000 175.686
52.24000 165.318
52.28000 165.311
52.32000 159.376
52.36000 168.096
52.40000 163.187
52.44000 164.699
52.48000 166.859
52.52000 153.694
52.56000 171.143
52.60000 171.113
52.64000 158.200
52.68000 169.705
52.72000 158.931
52.76000 166.387
52.80000 162.911
52.84000 153.361
52.88000 167.644
52.92000 166.221
52.96000 160.871
53.00000 171.958
53.04000 166.223
53.08000 159.620
53.12000 160.274
53.16000 158.432
53.20000 161.145
53.24000 152.845
53.28000 175.250
53.32000 168.338
53.36000 167.340
53.40000 163.956
53.44000 173.939
53.48000 164.624
53.52000 157.139
53.56000 158.294
53.60000 167.591
53.64000 165.387
53.68000 155.537
53.72000 159.646
53.76000 163.722
53.80000 160.202
53.84000 165.196
53.88000 154.362
53.92000 167.429
53.96000 173.317
54.00000 161.185
54.04000 164.828
54.08000 153.951
54.12000 165.730
54.16000 162.226
54.20000 150.895
54.24000 161.982
54.28000 161.833
54.32000 163.046
54.36000 158.353
54.40000 163.579
54.44000 165.170
54.48000 167.522
54.52000 154.030
54.56000 162.535
54.60000 161.343
54.64000 160.645
54.68000 150.377
54.72000 164.555
54.76000 147.256
54.80000 173.439
54.84000 162.638
54.88000 168.496
54.92000 162.965
54.96000 169.472
55.00000 163.609
55.04000 171.204
55.08000 165.216
55.12000 166.689
55.16000 163.943
55.20000 168.870
55.24000 172.839
55.28000 179.947
55.32000 180.981
55.36000 190.820
55.40000 210.712
55.44000 223.804
55.48000 231.690
55.52000 248.441
55.56000 299.038
55.60000 364.832
55.64000 400.234
55.68000 460.007
55.72000 524.536
55.76000 593.335
55.80000 603.082
55.84000 642.330
55.88000 639.004
55.92000 582.688
55.96000 545.618
56.00000 472.704
56.04000 433.831
56.08000 359.137
56.12000 305.341
56.16000 269.922
56.20000 231.198
56.24000 211.427
56.28000 200.518
56.32000 186.776
56.36000 177.636
56.40000 171.800
56.44000 173.165
56.48000 166.402
56.52000 165.760
56.56000 151.954
56.60000 160.768
56.64000 160.287
56.68000 158.815
56.72000 156.325
56.76000 170.068
56.80000 156.651
56.84000 152.778
56.88000 162.020
56.92000 153.047
56.96000 151.085
57.00000 147.262
57.04000 144.447
57.08000 153.606
57.12000 148.987
57.16000 136.701
57.20000 144.673
57.24000 146.513
57.28000 158.276
57.32000 147.841
57.36000 140.615
57.40000 148.860
57.44000 159.200
57.48000 144.593
57.52000 150.103
57.56000 144.674
57.60000 152.764
57.64000 139.137
57.68000 140.288
57.72000 150.986
57.76000 154.258
57.80000 150.201
57.84000 146.825
57.88000 144.876
57.92000 142.941
57.96000 147.208
58.00000 145.785
58.04000 149.263
58.08000 139.718
58.12000 141.493
58.16000 140.032
58.20000 143.796
58.24000 140.550
58.28000 143.918
58.32000 148.414
58.36000 135.023
58.40000 146.598
58.44000 145.820
58.48000 143.970
58.52000 132.953
58.56000 134.462
58.60000 144.885
58.64000 140.327
58.68000 140.045
58.72000 134.252
58.76000 136.547
58.80000 134.712
58.84000 140.840
58.88000 130.975
58.92000 125.228
58.96000 141.333
59.00000 132.650
59.04000 143.628
59.08000 144.258
59.12000 130.042
59.16000 142.777
59.20000 135.453
59.24000 144.594
59.28000 139.307
59.32000 145.275
59.36000 139.095
59.40000 145.227
59.44000 137.160
59.48000 137.068
59.52000 141.940
59.56000 129.153
59.60000 134.302
59.64000 124.585
59.68000 131.627
59.72000 127.996
59.76000 130.001
59.80000 140.222
59.84000 127.131
59.88000 124.649
59.92000 132.463
59.96000 146.803
60.00000 132.486
60.04000 129.703
60.08000 144.598
60.12000 134.215
60.16000 145.432
60.20000 134.885
60.24000 133.433
60.28000 135.819
60.32000 135.980
60.36000 142.052
60.40000 138.381
60.44000 154.454
60.48000 147.193
60.52000 129.212
60.56000 125.203
60.60000 134.151
60.64000 131.103
60.68000 129.334
60.72000 134.497
60.76000 129.118
60.80000 135.235
60.84000 139.622
60.88000 135.611
60.92000 141.615
60.96000 146.338
61.00000 131.080
61.04000 139.218
61.08000 152.384
61.12000 133.602
61.16000 129.963
61.20000 136.664
61.24000 139.862
61.28000 139.884
61.32000 136.699
61.36000 139.499
61.40000 136.963
61.44000 145.192
61.48000 157.326
61.52000 175.018
61.56000 227.103
61.60000 280.072
61.64000 328.769
61.68000 337.879
61.72000 341.330
61.76000 331.575
61.80000 258.427
61.84000 204.478
61.88000 163.009
61.92000 140.912
61.96000 149.927
62.00000 153.455
62.04000 141.888
62.08000 147.960
62.12000 144.328
62.16000 153.105
62.20000 141.663
62.24000 142.857
62.28000 133.730
62.32000 142.360
62.36000 152.658
62.40000 129.698
62.44000 139.702
62.48000 138.089
62.52000 141.117
62.56000 139.284
62.60000 144.192
62.64000 147.717
62.68000 142.852
62.72000 153.170
62.76000 151.493
62.80000 149.119
62.84000 147.550
62.88000 150.167
62.92000 149.744
62.96000 149.567
63.00000 148.399
63.04000 151.835
63.08000 149.721
63.12000 146.529
63.16000 140.979
63.20000 140.474
63.24000 158.865
63.28000 146.744
63.32000 146.825
63.36000 158.819
63.40000 154.846
63.44000 158.523
63.48000 147.405
63.52000 147.468
63.56000 144.037
63.60000 155.202
63.64000 158.160
63.68000 154.148
63.72000 157.123
63.76000 161.696
63.80000 152.939
63.84000 149.232
63.88000 152.177
63.92000 160.517
63.96000 164.935
64.00000 158.301
64.04000 159.703
64.08000 154.168
64.12000 159.804
64.16000 164.664
64.20000 156.746
64.24000 160.826
64.28000 166.999
64.32000 170.450
64.36000 169.192
64.40000 167.083
64.44000 163.592
64.48000 174.861
64.52000 157.706
64.56000 169.210
64.60000 180.508
64.64000 172.770
64.68000 168.240
64.72000 191.338
64.76000 185.954
64.80000 186.778
64.84000 190.357
64.88000 201.546
64.92000 191.428
64.96000 202.682
65.00000 213.021
65.04000 224.562
65.08000 236.742
65.12000 255.888
65.16000 255.317
65.20000 301.239
65.24000 326.586
65.28000 358.997
65.32000 383.777
65.36000 420.522
65.40000 431.532
65.44000 454.161
65.48000 455.749
65.52000 474.556
65.56000 464.927
65.60000 463.691
65.64000 473.964
65.68000 543.213
65.72000 721.158
65.76000 991.539
65.80000 1212.340
65.84000 1304.856
65.88000 1367.526
65.92000 1317.327
65.96000 1106.443
66.00000 755.602
66.04000 508.688
66.08000 387.358
66.12000 344.628
66.16000 319.403
66.20000 326.187
66.24000 337.409
66.28000 372.673
66.32000 453.386
66.36000 491.755
66.40000 509.267
66.44000 511.582
66.48000 487.618
66.52000 467.396
66.56000 406.569
66.60000 364.731
66.64000 346.829
66.68000 325.448
66.72000 329.833
66.76000 350.717
66.80000 345.704
66.84000 353.647
66.88000 348.852
66.92000 361.034
66.96000 362.128
67.00000 378.299
67.04000 369.727
67.08000 382.785
67.12000 375.355
67.16000 378.872
67.20000 390.459
67.24000 404.239
67.28000 411.193
67.32000 428.179
67.36000 431.252
67.40000 423.348
67.44000 447.494
67.48000 454.461
67.52000 470.971
67.56000 470.776
67.60000 466.810
67.64000 508.512
67.68000 506.780
67.72000 507.296
67.76000 517.965
67.80000 535.397
67.84000 545.595
67.88000 557.291
67.92000 567.212
67.96000 589.785
68.00000 606.833
68.04000 605.159
68.08000 612.782
68.12000 619.699
68.16000 632.536
68.20000 669.643
68.24000 670.331
68.28000 711.628
68.32000 735.073
68.36000 763.989
68.40000 791.512
68.44000 824.297
68.48000 851.353
68.52000 911.927
68.56000 981.588
68.60000 1133.979
68.64000 1318.675
68.68000 1603.330
68.72000 1890.667
68.76000 2218.217
68.80000 2484.343
68.84000 2939.444
68.88000 3715.209
68.92000 7758.162
68.96000 18855.475
69.00000 42289.570
69.04000 65954.789
69.08000 77985.555
69.12000 80874.883
69.16000 83885.219
69.20000 82055.680
69.24000 69155.516
69.28000 53897.582
69.32000 44234.910
69.36000 39336.953
69.40000 31662.359
69.44000 19083.727
69.48000 8990.613
69.52000 4096.137
69.56000 2402.757
69.60000 1805.752
69.64000 1497.275
69.68000 1327.700
69.72000 1199.615
69.76000 1084.059
69.80000 982.522
69.84000 966.616
69.88000 912.994
69.92000 847.470
69.96000 813.824
70.00000 752.908