File: XRD/XRD/30-09-2025 Dep 1/XY Data/BTO_Mapping_Theta2Theta_30-09-2025_001_02_10-000_0-000.xy
20.00000 564.737
20.04000 570.122
20.08000 586.236
20.12000 563.038
20.16000 569.704
20.20000 580.469
20.24000 571.837
20.28000 562.078
20.32000 583.588
20.36000 544.817
20.40000 584.500
20.44000 559.346
20.48000 559.480
20.52000 548.802
20.56000 576.020
20.60000 560.488
20.64000 562.279
20.68000 555.398
20.72000 550.081
20.76000 558.517
20.80000 565.475
20.84000 560.385
20.88000 550.615
20.92000 552.068
20.96000 556.649
21.00000 547.281
21.04000 541.368
21.08000 563.040
21.12000 551.589
21.16000 543.083
21.20000 563.082
21.24000 547.435
21.28000 557.115
21.32000 562.265
21.36000 561.109
21.40000 584.489
21.44000 555.728
21.48000 550.742
21.52000 547.962
21.56000 539.973
21.60000 556.697
21.64000 558.016
21.68000 571.154
21.72000 595.052
21.76000 623.198
21.80000 622.656
21.84000 658.619
21.88000 690.075
21.92000 743.325
21.96000 777.090
22.00000 829.398
22.04000 867.005
22.08000 836.998
22.12000 786.143
22.16000 722.333
22.20000 692.923
22.24000 648.491
22.28000 600.082
22.32000 595.446
22.36000 582.017
22.40000 556.487
22.44000 550.058
22.48000 521.082
22.52000 555.227
22.56000 547.328
22.60000 540.484
22.64000 528.959
22.68000 531.464
22.72000 523.253
22.76000 512.487
22.80000 528.961
22.84000 528.395
22.88000 515.125
22.92000 536.695
22.96000 525.887
23.00000 545.613
23.04000 517.344
23.08000 504.102
23.12000 515.101
23.16000 500.490
23.20000 506.931
23.24000 516.180
23.28000 510.875
23.32000 499.412
23.36000 512.474
23.40000 492.399
23.44000 498.248
23.48000 495.285
23.52000 508.550
23.56000 505.956
23.60000 500.627
23.64000 518.524
23.68000 514.378
23.72000 513.599
23.76000 493.721
23.80000 499.841
23.84000 499.714
23.88000 492.963
23.92000 525.017
23.96000 494.957
24.00000 498.668
24.04000 487.953
24.08000 490.425
24.12000 503.484
24.16000 507.225
24.20000 491.468
24.24000 491.203
24.28000 517.027
24.32000 494.726
24.36000 487.138
24.40000 504.086
24.44000 484.710
24.48000 491.655
24.52000 486.406
24.56000 490.092
24.60000 500.627
24.64000 482.789
24.68000 479.611
24.72000 491.926
24.76000 501.771
24.80000 491.769
24.84000 487.257
24.88000 469.109
24.92000 475.215
24.96000 492.385
25.00000 486.095
25.04000 499.556
25.08000 489.618
25.12000 466.027
25.16000 465.792
25.20000 478.463
25.24000 470.973
25.28000 502.305
25.32000 494.990
25.36000 490.497
25.40000 484.032
25.44000 459.250
25.48000 473.333
25.52000 476.067
25.56000 481.781
25.60000 483.309
25.64000 473.479
25.68000 463.526
25.72000 472.739
25.76000 472.683
25.80000 470.935
25.84000 470.665
25.88000 493.956
25.92000 483.494
25.96000 476.392
26.00000 460.638
26.04000 455.632
26.08000 457.062
26.12000 488.046
26.16000 451.940
26.20000 446.231
26.24000 451.926
26.28000 452.146
26.32000 461.125
26.36000 452.585
26.40000 488.065
26.44000 457.117
26.48000 449.796
26.52000 472.162
26.56000 459.616
26.60000 471.320
26.64000 431.710
26.68000 465.813
26.72000 456.956
26.76000 455.830
26.80000 462.457
26.84000 454.468
26.88000 437.495
26.92000 443.718
26.96000 447.443
27.00000 455.397
27.04000 441.248
27.08000 437.588
27.12000 439.266
27.16000 437.064
27.20000 432.360
27.24000 464.108
27.28000 464.952
27.32000 458.806
27.36000 453.607
27.40000 454.316
27.44000 434.160
27.48000 448.732
27.52000 463.187
27.56000 443.459
27.60000 445.009
27.64000 449.202
27.68000 443.249
27.72000 443.652
27.76000 443.778
27.80000 452.670
27.84000 447.356
27.88000 438.197
27.92000 445.756
27.96000 441.036
28.00000 454.911
28.04000 434.420
28.08000 438.954
28.12000 429.343
28.16000 444.794
28.20000 453.870
28.24000 439.557
28.28000 427.290
28.32000 454.856
28.36000 438.484
28.40000 432.060
28.44000 428.469
28.48000 427.236
28.52000 431.340
28.56000 433.465
28.60000 436.494
28.64000 438.312
28.68000 424.799
28.72000 410.049
28.76000 424.049
28.80000 405.798
28.84000 421.496
28.88000 410.551
28.92000 434.849
28.96000 416.925
29.00000 405.534
29.04000 428.639
29.08000 419.868
29.12000 426.797
29.16000 437.303
29.20000 418.841
29.24000 423.505
29.28000 420.574
29.32000 415.344
29.36000 411.691
29.40000 429.312
29.44000 411.836
29.48000 418.286
29.52000 409.646
29.56000 421.554
29.60000 406.397
29.64000 427.901
29.68000 399.055
29.72000 427.292
29.76000 434.975
29.80000 446.392
29.84000 433.420
29.88000 429.774
29.92000 445.591
29.96000 447.472
30.00000 470.930
30.04000 465.751
30.08000 456.172
30.12000 446.125
30.16000 439.232
30.20000 452.862
30.24000 435.386
30.28000 450.858
30.32000 442.442
30.36000 435.725
30.40000 445.254
30.44000 449.774
30.48000 432.326
30.52000 434.991
30.56000 445.901
30.60000 438.453
30.64000 443.180
30.68000 473.078
30.72000 451.157
30.76000 494.088
30.80000 463.138
30.84000 480.530
30.88000 497.657
30.92000 521.315
30.96000 531.391
31.00000 592.162
31.04000 696.853
31.08000 848.202
31.12000 1077.944
31.16000 1448.742
31.20000 1945.413
31.24000 2523.213
31.28000 3143.293
31.32000 3657.851
31.36000 3872.140
31.40000 3709.777
31.44000 3414.335
31.48000 2836.144
31.52000 2203.641
31.56000 1606.300
31.60000 1158.901
31.64000 868.416
31.68000 678.745
31.72000 564.054
31.76000 532.036
31.80000 488.984
31.84000 456.544
31.88000 447.105
31.92000 463.933
31.96000 433.916
32.00000 433.935
32.04000 421.236
32.08000 418.620
32.12000 413.751
32.16000 405.123
32.20000 433.571
32.24000 404.122
32.28000 394.075
32.32000 416.025
32.36000 387.852
32.40000 406.856
32.44000 384.645
32.48000 394.527
32.52000 392.545
32.56000 388.275
32.60000 379.405
32.64000 388.504
32.68000 374.954
32.72000 390.173
32.76000 387.414
32.80000 372.713
32.84000 386.752
32.88000 406.014
32.92000 434.010
32.96000 436.041
33.00000 441.637
33.04000 460.132
33.08000 451.417
33.12000 413.676
33.16000 413.093
33.20000 379.534
33.24000 367.684
33.28000 350.195
33.32000 355.930
33.36000 356.123
33.40000 365.333
33.44000 350.815
33.48000 337.040
33.52000 334.492
33.56000 350.103
33.60000 350.687
33.64000 347.219
33.68000 349.328
33.72000 345.314
33.76000 338.306
33.80000 336.296
33.84000 333.623
33.88000 353.106
33.92000 355.877
33.96000 341.905
34.00000 333.145
34.04000 333.613
34.08000 337.846
34.12000 343.135
34.16000 332.098
34.20000 325.691
34.24000 334.184
34.28000 321.866
34.32000 304.298
34.36000 320.081
34.40000 326.210
34.44000 341.259
34.48000 335.037
34.52000 319.378
34.56000 328.933
34.60000 311.802
34.64000 337.431
34.68000 343.249
34.72000 329.613
34.76000 348.070
34.80000 325.805
34.84000 314.627
34.88000 330.903
34.92000 315.606
34.96000 325.734
35.00000 339.492
35.04000 330.902
35.08000 313.732
35.12000 332.192
35.16000 316.561
35.20000 310.858
35.24000 308.233
35.28000 316.402
35.32000 302.466
35.36000 316.692
35.40000 309.879
35.44000 328.919
35.48000 317.506
35.52000 317.743
35.56000 315.760
35.60000 307.087
35.64000 312.767
35.68000 320.891
35.72000 296.273
35.76000 302.462
35.80000 314.595
35.84000 298.380
35.88000 318.990
35.92000 307.391
35.96000 314.182
36.00000 306.491
36.04000 308.942
36.08000 308.618
36.12000 306.520
36.16000 303.243
36.20000 296.791
36.24000 299.230
36.28000 314.927
36.32000 303.191
36.36000 301.864
36.40000 303.932
36.44000 296.567
36.48000 317.056
36.52000 294.440
36.56000 303.890
36.60000 297.791
36.64000 290.492
36.68000 298.163
36.72000 303.016
36.76000 309.831
36.80000 303.510
36.84000 297.329
36.88000 307.573
36.92000 301.631
36.96000 309.315
37.00000 299.603
37.04000 313.691
37.08000 317.173
37.12000 310.228
37.16000 302.353
37.20000 298.737
37.24000 308.031
37.28000 310.231
37.32000 295.758
37.36000 298.094
37.40000 291.745
37.44000 300.506
37.48000 295.747
37.52000 293.311
37.56000 291.338
37.60000 284.355
37.64000 299.815
37.68000 294.430
37.72000 293.557
37.76000 293.947
37.80000 312.440
37.84000 292.594
37.88000 299.226
37.92000 301.027
37.96000 292.203
38.00000 298.724
38.04000 292.529
38.08000 292.759
38.12000 307.753
38.16000 309.098
38.20000 315.232
38.24000 296.311
38.28000 330.465
38.32000 341.165
38.36000 341.823
38.40000 357.976
38.44000 388.412
38.48000 425.853
38.52000 496.006
38.56000 594.960
38.60000 657.688
38.64000 741.560
38.68000 801.747
38.72000 812.372
38.76000 778.470
38.80000 706.490
38.84000 623.720
38.88000 524.329
38.92000 448.497
38.96000 403.129
39.00000 352.874
39.04000 292.768
39.08000 290.980
39.12000 280.345
39.16000 291.256
39.20000 288.049
39.24000 281.760
39.28000 271.764
39.32000 274.697
39.36000 278.566
39.40000 283.475
39.44000 272.224
39.48000 258.258
39.52000 273.821
39.56000 269.933
39.60000 264.630
39.64000 279.565
39.68000 267.834
39.72000 275.946
39.76000 267.423
39.80000 266.134
39.84000 277.076
39.88000 252.859
39.92000 278.931
39.96000 264.003
40.00000 271.296
40.04000 270.158
40.08000 261.330
40.12000 264.217
40.16000 261.464
40.20000 260.026
40.24000 258.282
40.28000 252.836
40.32000 266.394
40.36000 258.298
40.40000 268.257
40.44000 254.315
40.48000 262.821
40.52000 246.256
40.56000 248.643
40.60000 256.634
40.64000 252.886
40.68000 247.023
40.72000 247.388
40.76000 266.118
40.80000 244.399
40.84000 250.551
40.88000 232.191
40.92000 256.192
40.96000 246.440
41.00000 242.936
41.04000 240.324
41.08000 243.031
41.12000 250.156
41.16000 253.394
41.20000 248.127
41.24000 240.302
41.28000 257.652
41.32000 235.893
41.36000 249.950
41.40000 246.212
41.44000 236.677
41.48000 247.237
41.52000 261.967
41.56000 249.068
41.60000 236.833
41.64000 242.433
41.68000 238.766
41.72000 246.504
41.76000 244.366
41.80000 248.078
41.84000 238.299
41.88000 251.218
41.92000 242.318
41.96000 235.542
42.00000 252.313
42.04000 236.668
42.08000 239.927
42.12000 242.825
42.16000 225.093
42.20000 236.842
42.24000 244.414
42.28000 243.764
42.32000 241.012
42.36000 234.800
42.40000 238.039
42.44000 222.899
42.48000 247.535
42.52000 227.507
42.56000 235.522
42.60000 236.861
42.64000 249.550
42.68000 234.469
42.72000 223.031
42.76000 247.961
42.80000 229.021
42.84000 223.333
42.88000 238.900
42.92000 229.572
42.96000 235.584
43.00000 244.687
43.04000 233.445
43.08000 236.165
43.12000 233.885
43.16000 228.020
43.20000 253.389
43.24000 234.268
43.28000 222.806
43.32000 232.233
43.36000 229.776
43.40000 242.163
43.44000 230.427
43.48000 214.934
43.52000 222.117
43.56000 233.267
43.60000 235.104
43.64000 219.001
43.68000 232.044
43.72000 234.869
43.76000 225.969
43.80000 216.006
43.84000 227.230
43.88000 225.692
43.92000 225.110
43.96000 230.199
44.00000 227.606
44.04000 231.782
44.08000 217.735
44.12000 219.411
44.16000 222.813
44.20000 214.636
44.24000 217.146
44.28000 234.095
44.32000 223.572
44.36000 228.881
44.40000 233.641
44.44000 220.388
44.48000 226.130
44.52000 234.536
44.56000 231.402
44.60000 242.984
44.64000 242.522
44.68000 250.038
44.72000 246.890
44.76000 262.842
44.80000 291.132
44.84000 321.565
44.88000 358.375
44.92000 390.453
44.96000 432.276
45.00000 467.590
45.04000 491.994
45.08000 495.204
45.12000 466.316
45.16000 447.556
45.20000 403.394
45.24000 376.382
45.28000 333.149
45.32000 320.762
45.36000 284.963
45.40000 248.908
45.44000 254.776
45.48000 252.462
45.52000 232.331
45.56000 245.305
45.60000 210.484
45.64000 234.102
45.68000 222.722
45.72000 220.941
45.76000 216.468
45.80000 218.496
45.84000 219.784
45.88000 210.356
45.92000 204.493
45.96000 215.374
46.00000 210.763
46.04000 215.097
46.08000 206.320
46.12000 203.345
46.16000 204.173
46.20000 212.816
46.24000 198.264
46.28000 199.795
46.32000 208.461
46.36000 199.385
46.40000 194.272
46.44000 203.731
46.48000 211.187
46.52000 206.282
46.56000 198.294
46.60000 190.313
46.64000 199.907
46.68000 197.641
46.72000 197.395
46.76000 209.795
46.80000 201.898
46.84000 193.209
46.88000 197.856
46.92000 190.922
46.96000 196.398
47.00000 192.089
47.04000 193.702
47.08000 188.479
47.12000 188.442
47.16000 194.828
47.20000 206.452
47.24000 177.106
47.28000 185.510
47.32000 198.407
47.36000 210.731
47.40000 195.119
47.44000 191.548
47.48000 193.092
47.52000 190.340
47.56000 188.473
47.60000 195.840
47.64000 192.715
47.68000 191.243
47.72000 200.549
47.76000 189.991
47.80000 189.272
47.84000 189.370
47.88000 188.641
47.92000 197.202
47.96000 183.953
48.00000 171.802
48.04000 177.938
48.08000 182.396
48.12000 183.387
48.16000 176.205
48.20000 191.226
48.24000 180.241
48.28000 190.791
48.32000 178.076
48.36000 186.122
48.40000 191.918
48.44000 186.182
48.48000 189.053
48.52000 184.235
48.56000 192.726
48.60000 177.273
48.64000 176.526
48.68000 190.806
48.72000 184.091
48.76000 180.835
48.80000 175.017
48.84000 179.676
48.88000 182.968
48.92000 172.830
48.96000 167.493
49.00000 181.209
49.04000 175.578
49.08000 182.998
49.12000 169.114
49.16000 178.800
49.20000 177.669
49.24000 172.739
49.28000 182.734
49.32000 181.290
49.36000 178.157
49.40000 186.345
49.44000 178.997
49.48000 199.573
49.52000 166.908
49.56000 184.635
49.60000 184.259
49.64000 174.860
49.68000 186.905
49.72000 182.420
49.76000 186.441
49.80000 173.057
49.84000 175.190
49.88000 169.291
49.92000 174.517
49.96000 189.869
50.00000 181.016
50.04000 177.261
50.08000 180.490
50.12000 184.143
50.16000 181.935
50.20000 181.747
50.24000 197.277
50.28000 198.364
50.32000 186.773
50.36000 204.341
50.40000 210.077
50.44000 193.100
50.48000 223.471
50.52000 238.020
50.56000 247.892
50.60000 280.478
50.64000 274.604
50.68000 293.972
50.72000 293.457
50.76000 293.742
50.80000 256.386
50.84000 252.825
50.88000 235.005
50.92000 216.565
50.96000 202.411
51.00000 187.886
51.04000 185.280
51.08000 186.758
51.12000 175.937
51.16000 180.559
51.20000 180.782
51.24000 171.683
51.28000 170.520
51.32000 170.728
51.36000 182.177
51.40000 165.304
51.44000 167.020
51.48000 168.051
51.52000 171.141
51.56000 163.320
51.60000 170.791
51.64000 162.729
51.68000 168.156
51.72000 156.663
51.76000 163.625
51.80000 162.323
51.84000 155.480
51.88000 156.378
51.92000 167.093
51.96000 161.256
52.00000 158.631
52.04000 165.740
52.08000 168.805
52.12000 172.328
52.16000 159.614
52.20000 154.713
52.24000 163.611
52.28000 151.269
52.32000 157.540
52.36000 170.042
52.40000 175.562
52.44000 159.385
52.48000 158.380
52.52000 162.878
52.56000 160.984
52.60000 163.197
52.64000 170.712
52.68000 164.398
52.72000 159.580
52.76000 156.777
52.80000 167.897
52.84000 168.493
52.88000 162.798
52.92000 157.761
52.96000 167.873
53.00000 170.239
53.04000 154.705
53.08000 152.210
53.12000 159.606
53.16000 162.959
53.20000 161.014
53.24000 169.134
53.28000 158.474
53.32000 162.990
53.36000 166.336
53.40000 162.974
53.44000 164.316
53.48000 165.713
53.52000 169.600
53.56000 167.073
53.60000 162.687
53.64000 159.416
53.68000 159.081
53.72000 152.950
53.76000 161.012
53.80000 152.554
53.84000 163.854
53.88000 155.522
53.92000 153.549
53.96000 153.318
54.00000 155.821
54.04000 170.957
54.08000 157.397
54.12000 150.351
54.16000 155.357
54.20000 147.522
54.24000 152.048
54.28000 144.776
54.32000 161.533
54.36000 150.164
54.40000 162.581
54.44000 160.746
54.48000 156.147
54.52000 151.804
54.56000 156.893
54.60000 161.645
54.64000 156.925
54.68000 156.371
54.72000 160.943
54.76000 166.324
54.80000 157.907
54.84000 150.955
54.88000 164.903
54.92000 166.299
54.96000 165.830
55.00000 165.929
55.04000 165.511
55.08000 162.518
55.12000 148.876
55.16000 160.447
55.20000 159.869
55.24000 169.280
55.28000 161.790
55.32000 168.323
55.36000 172.567
55.40000 178.081
55.44000 188.549
55.48000 200.261
55.52000 211.085
55.56000 229.447
55.60000 253.313
55.64000 284.877
55.68000 317.044
55.72000 394.520
55.76000 457.501
55.80000 551.190
55.84000 593.937
55.88000 643.088
55.92000 669.127
55.96000 650.585
56.00000 618.519
56.04000 575.100
56.08000 503.751
56.12000 415.552
56.16000 371.679
56.20000 311.052
56.24000 287.385
56.28000 241.072
56.32000 212.364
56.36000 196.764
56.40000 184.983
56.44000 185.132
56.48000 174.616
56.52000 166.745
56.56000 161.207
56.60000 156.684
56.64000 154.686
56.68000 150.672
56.72000 160.943
56.76000 151.448
56.80000 158.009
56.84000 161.549
56.88000 152.513
56.92000 154.060
56.96000 153.097
57.00000 152.041
57.04000 141.883
57.08000 142.609
57.12000 150.831
57.16000 154.218
57.20000 149.963
57.24000 145.001
57.28000 154.713
57.32000 148.426
57.36000 156.204
57.40000 143.814
57.44000 149.552
57.48000 146.283
57.52000 143.684
57.56000 146.039
57.60000 150.433
57.64000 142.191
57.68000 139.012
57.72000 138.530
57.76000 139.675
57.80000 142.771
57.84000 151.829
57.88000 147.793
57.92000 141.750
57.96000 138.973
58.00000 138.103
58.04000 138.156
58.08000 136.916
58.12000 138.749
58.16000 133.641
58.20000 156.141
58.24000 136.456
58.28000 141.585
58.32000 131.619
58.36000 139.196
58.40000 147.261
58.44000 141.068
58.48000 136.352
58.52000 133.861
58.56000 134.950
58.60000 140.856
58.64000 141.796
58.68000 141.862
58.72000 134.427
58.76000 129.979
58.80000 133.571
58.84000 152.395
58.88000 135.330
58.92000 138.104
58.96000 133.096
59.00000 142.918
59.04000 135.143
59.08000 137.578
59.12000 134.852
59.16000 130.478
59.20000 136.372
59.24000 132.331
59.28000 133.944
59.32000 145.817
59.36000 135.140
59.40000 137.076
59.44000 130.037
59.48000 141.780
59.52000 140.283
59.56000 137.979
59.60000 133.026
59.64000 145.731
59.68000 130.404
59.72000 136.130
59.76000 136.281
59.80000 127.946
59.84000 133.319
59.88000 134.198
59.92000 129.242
59.96000 138.550
60.00000 130.866
60.04000 127.944
60.08000 129.636
60.12000 132.764
60.16000 137.910
60.20000 138.835
60.24000 136.178
60.28000 133.722
60.32000 134.003
60.36000 127.426
60.40000 130.996
60.44000 130.301
60.48000 136.447
60.52000 130.456
60.56000 140.675
60.60000 136.020
60.64000 137.863
60.68000 123.276
60.72000 129.872
60.76000 133.478
60.80000 139.243
60.84000 131.745
60.88000 134.482
60.92000 134.713
60.96000 128.133
61.00000 132.130
61.04000 130.187
61.08000 133.864
61.12000 139.863
61.16000 147.088
61.20000 134.821
61.24000 133.250
61.28000 146.106
61.32000 142.776
61.36000 135.208
61.40000 139.019
61.44000 141.389
61.48000 150.885
61.52000 178.227
61.56000 226.597
61.60000 281.606
61.64000 303.872
61.68000 311.508
61.72000 323.214
61.76000 295.378
61.80000 243.748
61.84000 189.803
61.88000 162.428
61.92000 161.093
61.96000 148.565
62.00000 147.181
62.04000 128.561
62.08000 140.065
62.12000 142.646
62.16000 146.567
62.20000 134.053
62.24000 135.724
62.28000 141.898
62.32000 147.628
62.36000 150.906
62.40000 143.344
62.44000 137.892
62.48000 143.662
62.52000 149.794
62.56000 151.886
62.60000 150.421
62.64000 148.439
62.68000 146.310
62.72000 140.208
62.76000 144.423
62.80000 161.149
62.84000 145.032
62.88000 142.838
62.92000 133.198
62.96000 144.868
63.00000 155.604
63.04000 153.463
63.08000 152.209
63.12000 155.061
63.16000 149.952
63.20000 143.092
63.24000 150.148
63.28000 145.008
63.32000 159.604
63.36000 143.776
63.40000 145.262
63.44000 144.012
63.48000 143.113
63.52000 149.228
63.56000 151.438
63.60000 146.542
63.64000 149.707
63.68000 153.676
63.72000 151.882
63.76000 151.365
63.80000 149.874
63.84000 155.434
63.88000 157.853
63.92000 153.470
63.96000 150.032
64.00000 154.587
64.04000 161.567
64.08000 155.620
64.12000 165.192
64.16000 167.359
64.20000 165.112
64.24000 168.045
64.28000 175.848
64.32000 155.456
64.36000 164.468
64.40000 177.644
64.44000 177.149
64.48000 169.031
64.52000 178.119
64.56000 172.550
64.60000 172.070
64.64000 181.802
64.68000 180.642
64.72000 177.380
64.76000 176.435
64.80000 183.522
64.84000 187.650
64.88000 179.892
64.92000 192.058
64.96000 186.394
65.00000 195.265
65.04000 220.268
65.08000 218.687
65.12000 229.639
65.16000 235.920
65.20000 263.069
65.24000 275.713
65.28000 275.973
65.32000 321.110
65.36000 352.900
65.40000 363.362
65.44000 404.344
65.48000 435.393
65.52000 437.387
65.56000 456.269
65.60000 466.321
65.64000 491.972
65.68000 576.581
65.72000 736.669
65.76000 953.441
65.80000 1203.287
65.84000 1292.463
65.88000 1304.202
65.92000 1231.941
65.96000 1077.266
66.00000 720.161
66.04000 488.986
66.08000 368.439
66.12000 329.192
66.16000 322.076
66.20000 297.309
66.24000 338.983
66.28000 380.156
66.32000 449.744
66.36000 475.461
66.40000 488.453
66.44000 506.823
66.48000 512.361
66.52000 484.333
66.56000 386.481
66.60000 342.686
66.64000 343.021
66.68000 320.112
66.72000 331.074
66.76000 344.985
66.80000 333.256
66.84000 351.782
66.88000 343.910
66.92000 361.565
66.96000 367.249
67.00000 378.630
67.04000 378.630
67.08000 366.633
67.12000 374.885
67.16000 390.484
67.20000 407.129
67.24000 411.478
67.28000 406.085
67.32000 412.357
67.36000 416.586
67.40000 437.796
67.44000 434.961
67.48000 438.931
67.52000 473.352
67.56000 459.650
67.60000 486.932
67.64000 483.755
67.68000 483.979
67.72000 505.903
67.76000 518.685
67.80000 527.784
67.84000 531.522
67.88000 546.536
67.92000 551.280
67.96000 562.366
68.00000 566.752
68.04000 583.651
68.08000 583.225
68.12000 619.887
68.16000 624.878
68.20000 642.282
68.24000 658.144
68.28000 681.188
68.32000 699.532
68.36000 717.378
68.40000 769.183
68.44000 806.955
68.48000 840.778
68.52000 862.798
68.56000 996.872
68.60000 1116.616
68.64000 1283.612
68.68000 1558.883
68.72000 1831.432
68.76000 2107.409
68.80000 2355.377
68.84000 2746.926
68.88000 3411.238
68.92000 6928.926
68.96000 17564.549
69.00000 40263.145
69.04000 62530.188
69.08000 73598.219
69.12000 75582.688
69.16000 78110.859
69.20000 77094.953
69.24000 63836.059
69.28000 49360.176
69.32000 40653.133
69.36000 36432.566
69.40000 29478.580
69.44000 17293.240
69.48000 7820.165
69.52000 3545.404
69.56000 2193.582
69.60000 1699.054
69.64000 1467.739
69.68000 1288.124
69.72000 1133.339
69.76000 1038.693
69.80000 950.837
69.84000 898.926
69.88000 843.204
69.92000 819.939
69.96000 774.776
70.00000 801.790