File: XRD/XRD/30-09-2025 Dep 1/XY Data/BTO_Mapping_Theta2Theta_30-09-2025_001_53_12-361_-38-042.xy
20.00000 598.029
20.04000 575.101
20.08000 598.753
20.12000 585.752
20.16000 572.706
20.20000 601.467
20.24000 552.797
20.28000 576.613
20.32000 567.088
20.36000 573.849
20.40000 569.187
20.44000 558.470
20.48000 577.459
20.52000 555.886
20.56000 569.560
20.60000 563.310
20.64000 555.996
20.68000 555.677
20.72000 572.315
20.76000 572.318
20.80000 547.694
20.84000 597.613
20.88000 575.103
20.92000 568.539
20.96000 578.766
21.00000 553.597
21.04000 575.027
21.08000 576.326
21.12000 559.912
21.16000 566.867
21.20000 574.545
21.24000 563.850
21.28000 574.479
21.32000 574.817
21.36000 549.719
21.40000 571.934
21.44000 569.334
21.48000 568.810
21.52000 582.131
21.56000 617.556
21.60000 635.126
21.64000 658.289
21.68000 717.734
21.72000 770.926
21.76000 856.403
21.80000 938.505
21.84000 977.018
21.88000 1070.060
21.92000 1109.821
21.96000 1095.369
22.00000 1040.320
22.04000 991.735
22.08000 893.627
22.12000 809.761
22.16000 726.847
22.20000 702.120
22.24000 637.120
22.28000 604.003
22.32000 585.270
22.36000 593.478
22.40000 551.724
22.44000 571.110
22.48000 589.922
22.52000 547.764
22.56000 565.669
22.60000 582.704
22.64000 557.447
22.68000 535.403
22.72000 566.334
22.76000 537.114
22.80000 544.563
22.84000 553.844
22.88000 537.605
22.92000 542.372
22.96000 526.439
23.00000 548.894
23.04000 543.868
23.08000 540.931
23.12000 519.987
23.16000 525.394
23.20000 558.354
23.24000 523.940
23.28000 532.213
23.32000 524.997
23.36000 514.224
23.40000 524.482
23.44000 525.151
23.48000 538.889
23.52000 506.829
23.56000 517.704
23.60000 514.706
23.64000 520.272
23.68000 528.616
23.72000 534.481
23.76000 533.333
23.80000 519.521
23.84000 503.705
23.88000 529.369
23.92000 530.000
23.96000 508.195
24.00000 516.505
24.04000 493.795
24.08000 508.154
24.12000 501.310
24.16000 534.137
24.20000 506.803
24.24000 520.065
24.28000 510.423
24.32000 509.370
24.36000 508.942
24.40000 499.608
24.44000 500.475
24.48000 499.975
24.52000 519.600
24.56000 498.994
24.60000 511.074
24.64000 514.448
24.68000 505.485
24.72000 489.539
24.76000 493.479
24.80000 499.981
24.84000 519.891
24.88000 530.584
24.92000 500.523
24.96000 498.930
25.00000 506.230
25.04000 489.783
25.08000 501.249
25.12000 502.559
25.16000 486.230
25.20000 500.895
25.24000 476.899
25.28000 501.333
25.32000 480.267
25.36000 477.318
25.40000 483.128
25.44000 504.707
25.48000 496.535
25.52000 498.623
25.56000 494.727
25.60000 485.088
25.64000 481.516
25.68000 503.344
25.72000 482.685
25.76000 484.999
25.80000 486.168
25.84000 492.415
25.88000 492.608
25.92000 483.521
25.96000 495.091
26.00000 495.525
26.04000 500.319
26.08000 473.643
26.12000 477.175
26.16000 477.860
26.20000 467.638
26.24000 479.041
26.28000 492.293
26.32000 495.484
26.36000 490.104
26.40000 478.313
26.44000 475.527
26.48000 483.043
26.52000 483.152
26.56000 469.980
26.60000 482.995
26.64000 469.102
26.68000 483.931
26.72000 477.042
26.76000 468.520
26.80000 462.261
26.84000 483.972
26.88000 478.420
26.92000 488.863
26.96000 465.353
27.00000 487.252
27.04000 454.218
27.08000 470.814
27.12000 477.632
27.16000 495.125
27.20000 477.068
27.24000 473.061
27.28000 479.990
27.32000 476.843
27.36000 477.551
27.40000 472.705
27.44000 470.423
27.48000 468.239
27.52000 451.042
27.56000 447.644
27.60000 461.728
27.64000 480.574
27.68000 475.162
27.72000 464.724
27.76000 464.784
27.80000 466.344
27.84000 451.136
27.88000 480.148
27.92000 443.566
27.96000 474.821
28.00000 469.676
28.04000 468.733
28.08000 471.814
28.12000 474.069
28.16000 485.286
28.20000 446.082
28.24000 457.654
28.28000 467.763
28.32000 477.700
28.36000 478.242
28.40000 448.068
28.44000 462.281
28.48000 445.663
28.52000 467.212
28.56000 456.357
28.60000 456.383
28.64000 441.365
28.68000 431.691
28.72000 452.759
28.76000 434.777
28.80000 447.677
28.84000 456.036
28.88000 464.091
28.92000 445.484
28.96000 444.284
29.00000 458.659
29.04000 448.729
29.08000 459.868
29.12000 431.879
29.16000 437.508
29.20000 457.562
29.24000 440.369
29.28000 456.992
29.32000 452.254
29.36000 447.908
29.40000 434.564
29.44000 448.649
29.48000 464.464
29.52000 449.392
29.56000 434.540
29.60000 433.985
29.64000 465.386
29.68000 462.437
29.72000 452.348
29.76000 487.327
29.80000 482.579
29.84000 498.960
29.88000 495.167
29.92000 517.481
29.96000 495.948
30.00000 470.515
30.04000 489.595
30.08000 482.138
30.12000 479.610
30.16000 468.027
30.20000 478.303
30.24000 462.922
30.28000 478.812
30.32000 475.638
30.36000 481.041
30.40000 461.441
30.44000 487.927
30.48000 484.028
30.52000 474.961
30.56000 487.568
30.60000 499.541
30.64000 507.259
30.68000 523.199
30.72000 527.223
30.76000 542.719
30.80000 604.138
30.84000 643.948
30.88000 748.849
30.92000 941.353
30.96000 1278.623
31.00000 1701.633
31.04000 2260.385
31.08000 3007.802
31.12000 3603.080
31.16000 4098.365
31.20000 4399.726
31.24000 4299.771
31.28000 3975.829
31.32000 3327.742
31.36000 2624.010
31.40000 2127.304
31.44000 1509.476
31.48000 1138.357
31.52000 872.650
31.56000 738.313
31.60000 650.330
31.64000 583.141
31.68000 556.115
31.72000 523.167
31.76000 497.798
31.80000 474.809
31.84000 467.391
31.88000 447.295
31.92000 471.187
31.96000 441.548
32.00000 457.232
32.04000 430.031
32.08000 428.716
32.12000 440.274
32.16000 417.379
32.20000 407.282
32.24000 417.048
32.28000 408.551
32.32000 425.028
32.36000 420.561
32.40000 415.783
32.44000 413.938
32.48000 403.740
32.52000 400.610
32.56000 410.652
32.60000 402.800
32.64000 400.630
32.68000 392.114
32.72000 375.431
32.76000 413.257
32.80000 404.763
32.84000 408.040
32.88000 453.486
32.92000 485.261
32.96000 521.063
33.00000 526.953
33.04000 499.531
33.08000 486.199
33.12000 462.771
33.16000 417.702
33.20000 396.552
33.24000 387.925
33.28000 377.382
33.32000 365.988
33.36000 352.111
33.40000 376.190
33.44000 368.673
33.48000 357.737
33.52000 361.169
33.56000 358.592
33.60000 363.352
33.64000 361.290
33.68000 359.890
33.72000 357.359
33.76000 355.674
33.80000 357.136
33.84000 354.260
33.88000 349.776
33.92000 349.426
33.96000 338.308
34.00000 360.112
34.04000 355.433
34.08000 345.912
34.12000 361.212
34.16000 363.732
34.20000 341.096
34.24000 358.076
34.28000 349.392
34.32000 336.598
34.36000 361.687
34.40000 347.429
34.44000 342.354
34.48000 329.412
34.52000 345.602
34.56000 332.950
34.60000 325.475
34.64000 338.420
34.68000 341.553
34.72000 326.530
34.76000 338.295
34.80000 335.525
34.84000 340.435
34.88000 327.939
34.92000 318.733
34.96000 319.761
35.00000 317.107
35.04000 328.467
35.08000 345.349
35.12000 358.819
35.16000 344.438
35.20000 339.401
35.24000 319.312
35.28000 333.695
35.32000 325.748
35.36000 328.176
35.40000 327.030
35.44000 334.631
35.48000 304.257
35.52000 313.186
35.56000 333.015
35.60000 322.031
35.64000 315.677
35.68000 323.063
35.72000 317.466
35.76000 321.405
35.80000 324.173
35.84000 322.074
35.88000 313.849
35.92000 322.882
35.96000 315.523
36.00000 327.686
36.04000 324.922
36.08000 309.472
36.12000 315.541
36.16000 316.957
36.20000 325.417
36.24000 331.138
36.28000 335.053
36.32000 316.411
36.36000 309.372
36.40000 306.872
36.44000 315.024
36.48000 335.044
36.52000 310.641
36.56000 309.242
36.60000 319.884
36.64000 317.824
36.68000 318.656
36.72000 330.904
36.76000 322.070
36.80000 316.332
36.84000 308.473
36.88000 331.029
36.92000 323.279
36.96000 301.213
37.00000 321.052
37.04000 301.407
37.08000 324.056
37.12000 314.989
37.16000 311.895
37.20000 301.181
37.24000 303.314
37.28000 303.015
37.32000 313.364
37.36000 303.255
37.40000 296.447
37.44000 295.494
37.48000 307.415
37.52000 296.893
37.56000 303.902
37.60000 286.138
37.64000 296.844
37.68000 316.478
37.72000 295.005
37.76000 298.325
37.80000 302.603
37.84000 305.559
37.88000 306.601
37.92000 332.348
37.96000 297.110
38.00000 302.417
38.04000 313.187
38.08000 320.823
38.12000 312.229
38.16000 324.458
38.20000 342.853
38.24000 344.993
38.28000 349.872
38.32000 374.521
38.36000 400.579
38.40000 418.183
38.44000 435.752
38.48000 462.965
38.52000 467.252
38.56000 469.307
38.60000 442.356
38.64000 457.414
38.68000 413.493
38.72000 393.017
38.76000 373.093
38.80000 356.347
38.84000 352.044
38.88000 334.011
38.92000 311.085
38.96000 308.469
39.00000 302.948
39.04000 313.127
39.08000 287.026
39.12000 296.075
39.16000 284.346
39.20000 299.839
39.24000 291.972
39.28000 298.615
39.32000 302.949
39.36000 291.750
39.40000 282.566
39.44000 283.047
39.48000 270.524
39.52000 275.753
39.56000 282.911
39.60000 265.071
39.64000 269.853
39.68000 291.225
39.72000 279.221
39.76000 281.331
39.80000 278.294
39.84000 281.120
39.88000 271.891
39.92000 283.324
39.96000 282.638
40.00000 261.492
40.04000 265.598
40.08000 278.709
40.12000 267.888
40.16000 275.230
40.20000 267.688
40.24000 260.327
40.28000 277.433
40.32000 266.991
40.36000 274.735
40.40000 276.672
40.44000 267.721
40.48000 272.134
40.52000 258.166
40.56000 260.397
40.60000 255.877
40.64000 258.651
40.68000 263.172
40.72000 253.046
40.76000 261.721
40.80000 267.874
40.84000 263.593
40.88000 253.776
40.92000 273.238
40.96000 255.536
41.00000 260.063
41.04000 264.314
41.08000 262.894
41.12000 256.462
41.16000 260.914
41.20000 266.147
41.24000 269.408
41.28000 255.339
41.32000 256.710
41.36000 254.822
41.40000 258.616
41.44000 255.675
41.48000 248.220
41.52000 245.017
41.56000 242.286
41.60000 246.275
41.64000 256.377
41.68000 255.184
41.72000 266.335
41.76000 264.509
41.80000 251.565
41.84000 248.540
41.88000 252.575
41.92000 247.272
41.96000 269.799
42.00000 227.045
42.04000 246.018
42.08000 237.641
42.12000 249.051
42.16000 249.111
42.20000 250.906
42.24000 256.265
42.28000 233.639
42.32000 251.477
42.36000 243.682
42.40000 239.925
42.44000 236.722
42.48000 246.221
42.52000 251.841
42.56000 245.784
42.60000 243.863
42.64000 254.382
42.68000 239.050
42.72000 247.247
42.76000 255.612
42.80000 242.715
42.84000 247.921
42.88000 257.255
42.92000 241.037
42.96000 232.965
43.00000 252.714
43.04000 253.160
43.08000 243.354
43.12000 242.768
43.16000 235.869
43.20000 250.116
43.24000 238.727
43.28000 245.470
43.32000 257.279
43.36000 248.208
43.40000 246.560
43.44000 245.485
43.48000 247.131
43.52000 234.041
43.56000 235.494
43.60000 248.658
43.64000 244.300
43.68000 232.790
43.72000 231.549
43.76000 235.081
43.80000 235.265
43.84000 244.055
43.88000 241.731
43.92000 241.175
43.96000 240.103
44.00000 245.960
44.04000 246.458
44.08000 260.720
44.12000 240.905
44.16000 243.381
44.20000 259.838
44.24000 259.454
44.28000 271.157
44.32000 264.466
44.36000 292.943
44.40000 296.108
44.44000 327.838
44.48000 353.938
44.52000 400.858
44.56000 452.780
44.60000 504.510
44.64000 562.012
44.68000 577.686
44.72000 638.963
44.76000 701.481
44.80000 728.344
44.84000 715.014
44.88000 717.326
44.92000 702.877
44.96000 646.754
45.00000 604.578
45.04000 552.227
45.08000 509.205
45.12000 437.046
45.16000 431.419
45.20000 370.970
45.24000 362.532
45.28000 315.990
45.32000 315.235
45.36000 288.676
45.40000 269.765
45.44000 261.144
45.48000 256.694
45.52000 252.490
45.56000 252.601
45.60000 241.817
45.64000 230.125
45.68000 238.034
45.72000 225.622
45.76000 222.409
45.80000 217.686
45.84000 232.561
45.88000 221.051
45.92000 224.266
45.96000 216.699
46.00000 211.632
46.04000 232.807
46.08000 210.690
46.12000 225.684
46.16000 218.048
46.20000 221.433
46.24000 215.886
46.28000 225.887
46.32000 209.218
46.36000 219.231
46.40000 231.910
46.44000 221.238
46.48000 204.441
46.52000 212.007
46.56000 198.409
46.60000 212.499
46.64000 207.165
46.68000 211.110
46.72000 223.782
46.76000 198.282
46.80000 228.503
46.84000 209.607
46.88000 213.609
46.92000 217.984
46.96000 215.229
47.00000 196.669
47.04000 202.647
47.08000 207.566
47.12000 197.235
47.16000 207.159
47.20000 204.268
47.24000 199.858
47.28000 199.647
47.32000 204.429
47.36000 190.260
47.40000 201.626
47.44000 186.504
47.48000 201.406
47.52000 202.973
47.56000 200.892
47.60000 200.748
47.64000 193.452
47.68000 191.845
47.72000 207.709
47.76000 202.265
47.80000 215.740
47.84000 192.163
47.88000 198.632
47.92000 208.172
47.96000 198.737
48.00000 191.403
48.04000 198.866
48.08000 209.692
48.12000 193.399
48.16000 205.621
48.20000 192.135
48.24000 195.695
48.28000 197.500
48.32000 205.067
48.36000 186.034
48.40000 187.362
48.44000 192.876
48.48000 190.001
48.52000 191.556
48.56000 204.863
48.60000 195.194
48.64000 189.120
48.68000 197.821
48.72000 195.785
48.76000 188.192
48.80000 187.313
48.84000 199.347
48.88000 201.616
48.92000 185.003
48.96000 198.433
49.00000 184.372
49.04000 193.938
49.08000 192.314
49.12000 189.375
49.16000 198.673
49.20000 205.784
49.24000 191.394
49.28000 189.255
49.32000 194.213
49.36000 187.025
49.40000 191.758
49.44000 195.828
49.48000 190.802
49.52000 191.568
49.56000 191.897
49.60000 176.124
49.64000 198.060
49.68000 182.762
49.72000 203.891
49.76000 184.801
49.80000 201.405
49.84000 189.272
49.88000 184.931
49.92000 184.207
49.96000 200.365
50.00000 214.214
50.04000 203.230
50.08000 205.238
50.12000 221.357
50.16000 213.693
50.20000 222.114
50.24000 247.657
50.28000 252.935
50.32000 265.785
50.36000 268.389
50.40000 287.324
50.44000 283.622
50.48000 299.889
50.52000 302.322
50.56000 280.457
50.60000 268.930
50.64000 269.465
50.68000 242.188
50.72000 239.814
50.76000 222.655
50.80000 212.555
50.84000 219.387
50.88000 199.282
50.92000 186.554
50.96000 185.650
51.00000 186.515
51.04000 184.752
51.08000 173.278
51.12000 185.637
51.16000 178.535
51.20000 183.355
51.24000 172.711
51.28000 182.184
51.32000 181.564
51.36000 180.591
51.40000 171.241
51.44000 173.214
51.48000 168.547
51.52000 173.983
51.56000 180.821
51.60000 164.987
51.64000 171.124
51.68000 174.184
51.72000 170.583
51.76000 169.600
51.80000 166.879
51.84000 170.576
51.88000 174.103
51.92000 166.911
51.96000 159.361
52.00000 170.664
52.04000 167.356
52.08000 180.668
52.12000 161.892
52.16000 169.214
52.20000 156.811
52.24000 171.133
52.28000 168.491
52.32000 177.809
52.36000 171.419
52.40000 166.127
52.44000 179.956
52.48000 169.225
52.52000 171.245
52.56000 171.721
52.60000 170.527
52.64000 168.248
52.68000 174.106
52.72000 169.485
52.76000 165.344
52.80000 168.764
52.84000 175.254
52.88000 174.117
52.92000 168.648
52.96000 162.785
53.00000 165.176
53.04000 163.778
53.08000 172.226
53.12000 170.428
53.16000 169.206
53.20000 165.645
53.24000 163.562
53.28000 169.693
53.32000 163.758
53.36000 178.881
53.40000 160.402
53.44000 162.086
53.48000 171.773
53.52000 165.552
53.56000 180.015
53.60000 158.996
53.64000 163.688
53.68000 174.292
53.72000 162.883
53.76000 158.832
53.80000 159.001
53.84000 160.276
53.88000 162.661
53.92000 165.203
53.96000 160.184
54.00000 166.108
54.04000 154.990
54.08000 175.960
54.12000 164.497
54.16000 175.006
54.20000 161.667
54.24000 162.573
54.28000 158.791
54.32000 167.278
54.36000 164.249
54.40000 170.568
54.44000 166.457
54.48000 157.547
54.52000 164.527
54.56000 170.883
54.60000 175.347
54.64000 160.229
54.68000 181.471
54.72000 170.445
54.76000 160.874
54.80000 170.179
54.84000 170.399
54.88000 163.227
54.92000 163.730
54.96000 171.832
55.00000 171.440
55.04000 173.905
55.08000 177.461
55.12000 187.249
55.16000 195.552
55.20000 202.048
55.24000 214.401
55.28000 226.285
55.32000 250.297
55.36000 286.635
55.40000 320.705
55.44000 374.062
55.48000 403.647
55.52000 448.569
55.56000 500.086
55.60000 526.192
55.64000 532.178
55.68000 532.281
55.72000 526.402
55.76000 485.647
55.80000 453.911
55.84000 419.633
55.88000 367.865
55.92000 328.039
55.96000 279.649
56.00000 277.882
56.04000 253.443
56.08000 228.584
56.12000 211.451
56.16000 199.854
56.20000 191.776
56.24000 183.305
56.28000 181.611
56.32000 185.902
56.36000 180.286
56.40000 171.609
56.44000 172.291
56.48000 170.674
56.52000 163.443
56.56000 158.499
56.60000 157.995
56.64000 155.682
56.68000 162.774
56.72000 151.280
56.76000 159.465
56.80000 160.107
56.84000 151.256
56.88000 152.193
56.92000 152.925
56.96000 150.406
57.00000 165.390
57.04000 155.223
57.08000 152.037
57.12000 154.861
57.16000 152.619
57.20000 147.179
57.24000 149.126
57.28000 150.138
57.32000 144.787
57.36000 159.057
57.40000 151.189
57.44000 152.604
57.48000 152.110
57.52000 145.562
57.56000 144.825
57.60000 157.102
57.64000 149.012
57.68000 148.543
57.72000 152.713
57.76000 148.286
57.80000 148.698
57.84000 146.039
57.88000 159.524
57.92000 142.820
57.96000 150.984
58.00000 155.729
58.04000 149.777
58.08000 134.774
58.12000 132.361
58.16000 145.356
58.20000 145.638
58.24000 138.902
58.28000 144.490
58.32000 134.388
58.36000 153.835
58.40000 149.088
58.44000 146.619
58.48000 130.516
58.52000 147.119
58.56000 141.656
58.60000 140.907
58.64000 144.474
58.68000 147.378
58.72000 137.107
58.76000 144.535
58.80000 141.880
58.84000 150.909
58.88000 144.923
58.92000 148.734
58.96000 145.006
59.00000 138.663
59.04000 139.865
59.08000 152.636
59.12000 148.495
59.16000 139.611
59.20000 137.333
59.24000 137.368
59.28000 142.242
59.32000 141.364
59.36000 134.755
59.40000 140.399
59.44000 144.387
59.48000 136.145
59.52000 131.271
59.56000 130.947
59.60000 138.702
59.64000 143.290
59.68000 144.628
59.72000 143.641
59.76000 142.294
59.80000 131.600
59.84000 139.771
59.88000 137.540
59.92000 145.939
59.96000 135.386
60.00000 141.929
60.04000 130.087
60.08000 144.683
60.12000 139.384
60.16000 138.167
60.20000 145.585
60.24000 150.770
60.28000 149.872
60.32000 133.937
60.36000 130.486
60.40000 129.799
60.44000 137.079
60.48000 137.408
60.52000 137.854
60.56000 139.956
60.60000 134.053
60.64000 126.698
60.68000 119.717
60.72000 132.376
60.76000 135.160
60.80000 141.293
60.84000 140.250
60.88000 138.427
60.92000 138.804
60.96000 133.348
61.00000 149.441
61.04000 141.258
61.08000 142.747
61.12000 139.181
61.16000 131.831
61.20000 138.108
61.24000 134.333
61.28000 148.672
61.32000 146.712
61.36000 145.481
61.40000 139.549
61.44000 143.711
61.48000 163.421
61.52000 192.655
61.56000 254.986
61.60000 326.694
61.64000 357.776
61.68000 368.547
61.72000 370.798
61.76000 331.691
61.80000 279.103
61.84000 192.477
61.88000 177.099
61.92000 159.723
61.96000 157.925
62.00000 151.335
62.04000 147.030
62.08000 148.162
62.12000 147.873
62.16000 138.498
62.20000 145.392
62.24000 146.288
62.28000 148.518
62.32000 154.363
62.36000 154.538
62.40000 140.862
62.44000 155.088
62.48000 151.376
62.52000 141.522
62.56000 150.852
62.60000 151.924
62.64000 148.041
62.68000 153.024
62.72000 149.951
62.76000 146.048
62.80000 148.980
62.84000 158.009
62.88000 154.961
62.92000 153.889
62.96000 158.180
63.00000 145.564
63.04000 159.463
63.08000 152.472
63.12000 152.586
63.16000 154.565
63.20000 151.112
63.24000 153.979
63.28000 147.129
63.32000 149.881
63.36000 146.089
63.40000 161.300
63.44000 142.328
63.48000 153.236
63.52000 153.945
63.56000 154.522
63.60000 148.279
63.64000 153.945
63.68000 153.402
63.72000 145.911
63.76000 160.691
63.80000 161.640
63.84000 157.368
63.88000 162.741
63.92000 160.715
63.96000 158.324
64.00000 166.061
64.04000 165.773
64.08000 160.023
64.12000 171.306
64.16000 168.993
64.20000 169.836
64.24000 181.772
64.28000 174.664
64.32000 176.176
64.36000 176.695
64.40000 178.032
64.44000 178.436
64.48000 171.124
64.52000 175.247
64.56000 187.536
64.60000 189.431
64.64000 185.853
64.68000 195.523
64.72000 196.918
64.76000 206.415
64.80000 212.609
64.84000 226.370
64.88000 242.854
64.92000 275.638
64.96000 295.572
65.00000 318.680
65.04000 352.358
65.08000 383.914
65.12000 408.348
65.16000 426.670
65.20000 425.174
65.24000 451.529
65.28000 419.228
65.32000 409.797
65.36000 411.441
65.40000 375.265
65.44000 373.058
65.48000 342.929
65.52000 337.295
65.56000 337.041
65.60000 353.062
65.64000 379.946
65.68000 500.874
65.72000 749.858
65.76000 1036.138
65.80000 1311.346
65.84000 1468.433
65.88000 1499.383
65.92000 1422.776
65.96000 1182.640
66.00000 816.539
66.04000 548.788
66.08000 417.104
66.12000 367.262
66.16000 349.278
66.20000 337.670
66.24000 359.577
66.28000 404.495
66.32000 477.490
66.36000 540.059
66.40000 532.291
66.44000 550.507
66.48000 539.178
66.52000 491.245
66.56000 418.888
66.60000 388.494
66.64000 354.229
66.68000 366.751
66.72000 341.166
66.76000 360.249
66.80000 359.707
66.84000 355.497
66.88000 372.766
66.92000 375.585
66.96000 401.908
67.00000 399.869
67.04000 403.300
67.08000 416.675
67.12000 422.581
67.16000 411.179
67.20000 402.893
67.24000 432.967
67.28000 438.837
67.32000 436.425
67.36000 469.412
67.40000 475.920
67.44000 472.876
67.48000 482.807
67.52000 497.819
67.56000 503.143
67.60000 502.930
67.64000 528.298
67.68000 525.545
67.72000 548.507
67.76000 557.414
67.80000 571.024
67.84000 559.958
67.88000 577.188
67.92000 591.404
67.96000 613.203
68.00000 613.979
68.04000 624.459
68.08000 661.328
68.12000 654.618
68.16000 671.775
68.20000 694.454
68.24000 723.255
68.28000 761.275
68.32000 766.614
68.36000 797.611
68.40000 835.705
68.44000 883.651
68.48000 955.662
68.52000 975.573
68.56000 1039.445
68.60000 1254.392
68.64000 1486.094
68.68000 1806.948
68.72000 2130.558
68.76000 2435.205
68.80000 2807.596
68.84000 3402.096
68.88000 4502.194
68.92000 9958.290
68.96000 23237.852
69.00000 49534.652
69.04000 75088.664
69.08000 88511.500
69.12000 92108.570
69.16000 95403.625
69.20000 92429.828
69.24000 77309.813
69.28000 61078.543
69.32000 50439.832
69.36000 44332.133
69.40000 35155.859
69.44000 21287.033
69.48000 10314.388
69.52000 4774.762
69.56000 2746.886
69.60000 2032.015
69.64000 1673.155
69.68000 1459.314
69.72000 1310.255
69.76000 1185.346
69.80000 1060.203
69.84000 991.904
69.88000 922.533
69.92000 868.101
69.96000 848.788
70.00000 800.620