File: XRD/XRD/30-09-2025 Dep 1/XY Data/BTO_Mapping_Theta2Theta_30-09-2025_001_27_-16-180_11-756.xy
20.00000 567.209
20.04000 568.551
20.08000 570.395
20.12000 573.973
20.16000 556.190
20.20000 580.458
20.24000 553.648
20.28000 545.690
20.32000 582.871
20.36000 561.415
20.40000 537.730
20.44000 548.670
20.48000 557.311
20.52000 541.992
20.56000 566.729
20.60000 548.281
20.64000 555.959
20.68000 551.657
20.72000 571.516
20.76000 553.833
20.80000 539.327
20.84000 558.998
20.88000 557.556
20.92000 549.514
20.96000 547.034
21.00000 559.812
21.04000 578.974
21.08000 551.012
21.12000 563.287
21.16000 553.557
21.20000 556.306
21.24000 537.858
21.28000 552.811
21.32000 552.257
21.36000 556.317
21.40000 542.842
21.44000 558.479
21.48000 559.983
21.52000 537.038
21.56000 541.020
21.60000 534.351
21.64000 556.565
21.68000 569.875
21.72000 537.324
21.76000 560.921
21.80000 554.960
21.84000 559.537
21.88000 557.841
21.92000 594.105
21.96000 595.614
22.00000 631.329
22.04000 660.792
22.08000 676.225
22.12000 664.156
22.16000 646.987
22.20000 617.775
22.24000 616.335
22.28000 581.571
22.32000 559.796
22.36000 546.202
22.40000 560.157
22.44000 572.178
22.48000 539.095
22.52000 531.545
22.56000 552.120
22.60000 546.587
22.64000 537.086
22.68000 518.156
22.72000 524.358
22.76000 514.901
22.80000 529.258
22.84000 523.514
22.88000 507.841
22.92000 525.844
22.96000 510.196
23.00000 535.433
23.04000 505.998
23.08000 529.454
23.12000 503.610
23.16000 504.332
23.20000 482.419
23.24000 527.156
23.28000 511.068
23.32000 513.755
23.36000 507.473
23.40000 510.747
23.44000 506.952
23.48000 520.368
23.52000 524.410
23.56000 506.005
23.60000 506.809
23.64000 497.516
23.68000 505.044
23.72000 520.599
23.76000 514.182
23.80000 500.720
23.84000 517.226
23.88000 518.246
23.92000 542.728
23.96000 526.444
24.00000 521.408
24.04000 503.538
24.08000 530.618
24.12000 546.495
24.16000 502.942
24.20000 522.783
24.24000 522.200
24.28000 506.449
24.32000 500.802
24.36000 502.540
24.40000 491.053
24.44000 481.758
24.48000 498.607
24.52000 499.625
24.56000 520.705
24.60000 483.653
24.64000 479.055
24.68000 491.657
24.72000 477.815
24.76000 466.185
24.80000 487.262
24.84000 471.756
24.88000 476.150
24.92000 475.818
24.96000 484.324
25.00000 487.894
25.04000 485.218
25.08000 474.111
25.12000 489.170
25.16000 490.673
25.20000 458.343
25.24000 464.599
25.28000 483.537
25.32000 468.496
25.36000 459.590
25.40000 482.217
25.44000 485.319
25.48000 491.704
25.52000 453.634
25.56000 460.289
25.60000 454.058
25.64000 467.866
25.68000 468.482
25.72000 471.580
25.76000 454.667
25.80000 479.519
25.84000 458.070
25.88000 452.350
25.92000 464.123
25.96000 479.829
26.00000 457.154
26.04000 457.371
26.08000 462.973
26.12000 440.422
26.16000 465.039
26.20000 457.653
26.24000 459.079
26.28000 453.313
26.32000 457.695
26.36000 452.442
26.40000 453.767
26.44000 449.840
26.48000 452.079
26.52000 476.347
26.56000 443.481
26.60000 447.292
26.64000 471.799
26.68000 467.567
26.72000 445.108
26.76000 449.755
26.80000 463.672
26.84000 460.657
26.88000 451.973
26.92000 429.643
26.96000 451.503
27.00000 434.708
27.04000 451.254
27.08000 446.001
27.12000 438.862
27.16000 432.723
27.20000 435.493
27.24000 430.101
27.28000 444.821
27.32000 436.124
27.36000 449.407
27.40000 435.672
27.44000 418.048
27.48000 439.015
27.52000 441.535
27.56000 449.530
27.60000 434.079
27.64000 436.734
27.68000 453.004
27.72000 471.114
27.76000 444.717
27.80000 445.688
27.84000 441.214
27.88000 443.921
27.92000 440.350
27.96000 422.153
28.00000 455.375
28.04000 437.922
28.08000 426.418
28.12000 442.136
28.16000 439.944
28.20000 445.878
28.24000 434.037
28.28000 448.423
28.32000 420.309
28.36000 445.294
28.40000 428.778
28.44000 425.781
28.48000 439.378
28.52000 411.241
28.56000 420.133
28.60000 420.335
28.64000 402.013
28.68000 405.311
28.72000 423.839
28.76000 437.463
28.80000 426.605
28.84000 414.894
28.88000 414.573
28.92000 418.958
28.96000 401.255
29.00000 407.689
29.04000 407.170
29.08000 420.769
29.12000 413.956
29.16000 411.505
29.20000 416.421
29.24000 421.234
29.28000 409.706
29.32000 408.839
29.36000 415.907
29.40000 405.714
29.44000 425.688
29.48000 409.859
29.52000 419.083
29.56000 420.014
29.60000 427.239
29.64000 416.005
29.68000 409.262
29.72000 422.615
29.76000 420.491
29.80000 415.303
29.84000 419.757
29.88000 415.642
29.92000 424.883
29.96000 445.716
30.00000 432.902
30.04000 435.871
30.08000 442.881
30.12000 427.595
30.16000 424.235
30.20000 419.448
30.24000 424.263
30.28000 427.676
30.32000 423.254
30.36000 434.662
30.40000 429.455
30.44000 444.683
30.48000 411.364
30.52000 412.142
30.56000 422.950
30.60000 428.622
30.64000 421.059
30.68000 424.815
30.72000 430.519
30.76000 439.138
30.80000 458.200
30.84000 479.204
30.88000 465.835
30.92000 470.256
30.96000 474.932
31.00000 525.535
31.04000 554.002
31.08000 613.742
31.12000 758.442
31.16000 939.187
31.20000 1264.119
31.24000 1660.755
31.28000 2128.413
31.32000 2548.576
31.36000 2826.634
31.40000 3114.523
31.44000 2928.438
31.48000 2600.607
31.52000 2282.352
31.56000 1737.348
31.60000 1326.946
31.64000 997.351
31.68000 752.322
31.72000 619.580
31.76000 517.012
31.80000 487.033
31.84000 457.170
31.88000 428.510
31.92000 405.711
31.96000 414.196
32.00000 434.834
32.04000 401.825
32.08000 401.302
32.12000 413.052
32.16000 403.606
32.20000 406.681
32.24000 403.645
32.28000 407.718
32.32000 391.089
32.36000 407.810
32.40000 389.763
32.44000 383.559
32.48000 382.342
32.52000 379.030
32.56000 372.922
32.60000 369.307
32.64000 383.364
32.68000 365.450
32.72000 372.180
32.76000 383.772
32.80000 371.260
32.84000 375.576
32.88000 378.055
32.92000 357.835
32.96000 377.862
33.00000 371.185
33.04000 379.177
33.08000 382.935
33.12000 371.961
33.16000 369.511
33.20000 348.006
33.24000 356.209
33.28000 359.286
33.32000 345.356
33.36000 357.675
33.40000 345.841
33.44000 348.225
33.48000 348.451
33.52000 351.083
33.56000 334.185
33.60000 349.796
33.64000 350.617
33.68000 354.063
33.72000 340.785
33.76000 344.645
33.80000 336.332
33.84000 351.742
33.88000 327.775
33.92000 352.085
33.96000 347.703
34.00000 343.076
34.04000 336.501
34.08000 341.196
34.12000 342.213
34.16000 352.157
34.20000 348.400
34.24000 351.223
34.28000 347.050
34.32000 360.754
34.36000 345.361
34.40000 364.245
34.44000 351.750
34.48000 347.280
34.52000 364.805
34.56000 371.377
34.60000 336.901
34.64000 348.660
34.68000 357.534
34.72000 341.277
34.76000 347.933
34.80000 339.504
34.84000 330.863
34.88000 329.483
34.92000 332.197
34.96000 334.366
35.00000 323.584
35.04000 329.835
35.08000 321.200
35.12000 328.547
35.16000 319.621
35.20000 324.778
35.24000 331.021
35.28000 331.964
35.32000 303.534
35.36000 304.750
35.40000 310.110
35.44000 329.165
35.48000 323.236
35.52000 315.893
35.56000 297.048
35.60000 306.350
35.64000 315.358
35.68000 296.045
35.72000 324.261
35.76000 303.848
35.80000 308.098
35.84000 312.794
35.88000 301.417
35.92000 300.195
35.96000 298.558
36.00000 314.935
36.04000 306.885
36.08000 301.978
36.12000 302.663
36.16000 310.335
36.20000 302.096
36.24000 296.485
36.28000 310.660
36.32000 304.512
36.36000 302.507
36.40000 308.927
36.44000 307.344
36.48000 307.840
36.52000 306.585
36.56000 299.861
36.60000 310.946
36.64000 299.671
36.68000 311.839
36.72000 309.751
36.76000 289.823
36.80000 303.066
36.84000 292.264
36.88000 303.726
36.92000 305.118
36.96000 290.322
37.00000 297.680
37.04000 296.513
37.08000 302.018
37.12000 299.191
37.16000 302.372
37.20000 304.769
37.24000 291.745
37.28000 277.965
37.32000 298.084
37.36000 297.450
37.40000 297.619
37.44000 280.098
37.48000 287.267
37.52000 290.275
37.56000 296.634
37.60000 282.825
37.64000 301.444
37.68000 309.295
37.72000 297.746
37.76000 296.867
37.80000 282.954
37.84000 289.251
37.88000 289.593
37.92000 290.882
37.96000 296.322
38.00000 297.505
38.04000 299.704
38.08000 299.211
38.12000 300.894
38.16000 306.070
38.20000 295.454
38.24000 311.163
38.28000 309.823
38.32000 318.742
38.36000 321.336
38.40000 341.875
38.44000 388.206
38.48000 412.176
38.52000 475.124
38.56000 574.072
38.60000 690.511
38.64000 803.465
38.68000 943.630
38.72000 1035.280
38.76000 1068.529
38.80000 1033.513
38.84000 916.489
38.88000 795.885
38.92000 632.967
38.96000 543.224
39.00000 445.295
39.04000 380.598
39.08000 329.341
39.12000 304.824
39.16000 300.208
39.20000 292.341
39.24000 290.397
39.28000 293.950
39.32000 287.659
39.36000 260.125
39.40000 268.768
39.44000 283.931
39.48000 274.232
39.52000 270.027
39.56000 258.891
39.60000 280.604
39.64000 274.658
39.68000 267.377
39.72000 271.133
39.76000 277.351
39.80000 253.155
39.84000 264.266
39.88000 272.444
39.92000 267.779
39.96000 260.735
40.00000 270.239
40.04000 263.892
40.08000 280.168
40.12000 264.158
40.16000 251.882
40.20000 255.431
40.24000 261.560
40.28000 264.461
40.32000 253.913
40.36000 258.169
40.40000 251.829
40.44000 262.216
40.48000 249.229
40.52000 255.635
40.56000 246.205
40.60000 249.988
40.64000 258.694
40.68000 256.952
40.72000 255.495
40.76000 246.213
40.80000 248.899
40.84000 259.709
40.88000 264.430
40.92000 254.132
40.96000 242.578
41.00000 245.263
41.04000 255.280
41.08000 259.027
41.12000 244.443
41.16000 252.071
41.20000 258.050
41.24000 247.210
41.28000 245.184
41.32000 256.358
41.36000 255.826
41.40000 251.338
41.44000 241.835
41.48000 235.678
41.52000 236.878
41.56000 245.922
41.60000 238.820
41.64000 242.293
41.68000 246.672
41.72000 244.137
41.76000 235.513
41.80000 244.821
41.84000 248.101
41.88000 237.763
41.92000 252.246
41.96000 236.228
42.00000 233.444
42.04000 215.749
42.08000 239.884
42.12000 234.626
42.16000 240.646
42.20000 250.168
42.24000 243.849
42.28000 238.209
42.32000 235.278
42.36000 229.805
42.40000 226.418
42.44000 239.375
42.48000 242.828
42.52000 233.725
42.56000 225.586
42.60000 241.014
42.64000 234.445
42.68000 223.801
42.72000 234.686
42.76000 239.422
42.80000 242.535
42.84000 233.269
42.88000 226.728
42.92000 228.465
42.96000 233.071
43.00000 234.775
43.04000 234.399
43.08000 222.237
43.12000 219.813
43.16000 239.779
43.20000 224.038
43.24000 241.316
43.28000 229.587
43.32000 228.651
43.36000 222.718
43.40000 232.241
43.44000 228.143
43.48000 232.595
43.52000 218.937
43.56000 225.049
43.60000 215.139
43.64000 215.568
43.68000 233.035
43.72000 222.431
43.76000 215.391
43.80000 220.752
43.84000 217.190
43.88000 211.502
43.92000 245.912
43.96000 226.125
44.00000 231.139
44.04000 226.818
44.08000 229.982
44.12000 213.194
44.16000 222.534
44.20000 223.392
44.24000 227.499
44.28000 219.605
44.32000 234.600
44.36000 231.972
44.40000 224.919
44.44000 215.047
44.48000 227.519
44.52000 222.197
44.56000 228.957
44.60000 212.935
44.64000 237.879
44.68000 251.643
44.72000 233.061
44.76000 257.951
44.80000 247.441
44.84000 258.597
44.88000 262.087
44.92000 265.172
44.96000 269.285
45.00000 297.466
45.04000 313.580
45.08000 324.025
45.12000 328.468
45.16000 330.067
45.20000 313.670
45.24000 306.996
45.28000 294.618
45.32000 282.153
45.36000 258.905
45.40000 244.310
45.44000 236.756
45.48000 231.070
45.52000 240.468
45.56000 236.344
45.60000 218.609
45.64000 217.593
45.68000 221.356
45.72000 219.677
45.76000 202.909
45.80000 208.506
45.84000 204.788
45.88000 198.963
45.92000 194.778
45.96000 196.749
46.00000 213.458
46.04000 216.947
46.08000 213.856
46.12000 209.653
46.16000 212.140
46.20000 212.506
46.24000 197.664
46.28000 190.312
46.32000 209.034
46.36000 207.194
46.40000 205.250
46.44000 202.673
46.48000 198.234
46.52000 202.618
46.56000 193.600
46.60000 202.047
46.64000 199.039
46.68000 195.448
46.72000 196.739
46.76000 199.382
46.80000 193.369
46.84000 198.000
46.88000 198.168
46.92000 192.330
46.96000 208.178
47.00000 192.552
47.04000 202.049
47.08000 198.460
47.12000 200.872
47.16000 194.984
47.20000 191.140
47.24000 205.532
47.28000 190.986
47.32000 201.108
47.36000 197.875
47.40000 196.620
47.44000 194.678
47.48000 192.471
47.52000 192.967
47.56000 182.400
47.60000 195.865
47.64000 196.079
47.68000 188.250
47.72000 198.827
47.76000 199.742
47.80000 191.195
47.84000 193.649
47.88000 182.374
47.92000 182.524
47.96000 193.927
48.00000 182.432
48.04000 185.937
48.08000 197.462
48.12000 193.467
48.16000 183.044
48.20000 177.675
48.24000 188.315
48.28000 182.562
48.32000 193.845
48.36000 182.278
48.40000 184.725
48.44000 178.749
48.48000 181.484
48.52000 173.721
48.56000 182.924
48.60000 180.187
48.64000 187.654
48.68000 191.040
48.72000 184.066
48.76000 183.618
48.80000 189.049
48.84000 174.434
48.88000 182.817
48.92000 185.334
48.96000 191.606
49.00000 183.854
49.04000 170.304
49.08000 183.642
49.12000 174.200
49.16000 184.410
49.20000 179.925
49.24000 176.315
49.28000 182.778
49.32000 174.681
49.36000 170.511
49.40000 183.015
49.44000 189.955
49.48000 178.198
49.52000 177.230
49.56000 181.888
49.60000 180.377
49.64000 171.013
49.68000 177.424
49.72000 177.266
49.76000 179.596
49.80000 176.391
49.84000 163.121
49.88000 171.783
49.92000 188.106
49.96000 166.233
50.00000 175.140
50.04000 171.787
50.08000 175.373
50.12000 192.085
50.16000 191.495
50.20000 180.370
50.24000 177.032
50.28000 185.719
50.32000 173.023
50.36000 174.496
50.40000 177.403
50.44000 185.566
50.48000 203.113
50.52000 212.758
50.56000 204.019
50.60000 243.353
50.64000 230.494
50.68000 245.471
50.72000 252.857
50.76000 242.844
50.80000 251.280
50.84000 237.980
50.88000 228.640
50.92000 228.441
50.96000 211.681
51.00000 208.558
51.04000 201.889
51.08000 185.865
51.12000 183.280
51.16000 171.150
51.20000 177.404
51.24000 171.361
51.28000 151.919
51.32000 165.147
51.36000 176.938
51.40000 164.796
51.44000 174.562
51.48000 168.282
51.52000 172.614
51.56000 163.321
51.60000 159.250
51.64000 164.240
51.68000 167.449
51.72000 170.889
51.76000 170.758
51.80000 163.819
51.84000 158.145
51.88000 161.133
51.92000 175.179
51.96000 163.596
52.00000 168.385
52.04000 152.925
52.08000 153.262
52.12000 157.588
52.16000 167.411
52.20000 147.663
52.24000 157.809
52.28000 163.515
52.32000 154.363
52.36000 161.323
52.40000 159.021
52.44000 162.121
52.48000 167.597
52.52000 171.115
52.56000 151.408
52.60000 163.828
52.64000 164.570
52.68000 171.419
52.72000 159.741
52.76000 160.717
52.80000 154.458
52.84000 164.846
52.88000 169.144
52.92000 171.416
52.96000 161.257
53.00000 162.270
53.04000 157.453
53.08000 147.293
53.12000 159.805
53.16000 160.608
53.20000 157.009
53.24000 152.469
53.28000 164.363
53.32000 159.661
53.36000 169.948
53.40000 160.052
53.44000 162.426
53.48000 161.138
53.52000 154.316
53.56000 157.625
53.60000 144.666
53.64000 163.710
53.68000 155.484
53.72000 161.051
53.76000 156.884
53.80000 157.928
53.84000 154.057
53.88000 153.878
53.92000 146.202
53.96000 162.078
54.00000 160.941
54.04000 161.341
54.08000 160.757
54.12000 164.244
54.16000 154.670
54.20000 151.293
54.24000 163.234
54.28000 156.034
54.32000 153.791
54.36000 152.180
54.40000 142.309
54.44000 146.944
54.48000 157.257
54.52000 158.545
54.56000 161.748
54.60000 157.399
54.64000 159.754
54.68000 162.009
54.72000 162.176
54.76000 161.831
54.80000 147.877
54.84000 160.174
54.88000 153.851
54.92000 161.303
54.96000 157.791
55.00000 169.432
55.04000 161.507
55.08000 161.902
55.12000 162.117
55.16000 157.303
55.20000 157.744
55.24000 161.765
55.28000 160.702
55.32000 177.744
55.36000 174.417
55.40000 159.344
55.44000 172.831
55.48000 184.205
55.52000 190.400
55.56000 203.785
55.60000 214.496
55.64000 235.885
55.68000 265.108
55.72000 315.415
55.76000 365.966
55.80000 433.777
55.84000 502.160
55.88000 573.826
55.92000 601.700
55.96000 614.399
56.00000 620.078
56.04000 610.816
56.08000 547.962
56.12000 485.620
56.16000 427.205
56.20000 374.599
56.24000 312.579
56.28000 286.520
56.32000 244.428
56.36000 210.984
56.40000 197.556
56.44000 193.252
56.48000 179.859
56.52000 184.537
56.56000 158.474
56.60000 147.694
56.64000 169.430
56.68000 158.163
56.72000 153.341
56.76000 170.875
56.80000 148.050
56.84000 155.337
56.88000 150.902
56.92000 138.899
56.96000 139.314
57.00000 147.569
57.04000 147.087
57.08000 155.393
57.12000 151.182
57.16000 152.267
57.20000 148.213
57.24000 145.506
57.28000 137.222
57.32000 154.659
57.36000 152.878
57.40000 139.500
57.44000 148.907
57.48000 150.316
57.52000 151.226
57.56000 147.820
57.60000 144.537
57.64000 150.128
57.68000 145.545
57.72000 149.816
57.76000 137.633
57.80000 148.300
57.84000 137.394
57.88000 143.931
57.92000 146.220
57.96000 138.417
58.00000 143.991
58.04000 129.241
58.08000 145.728
58.12000 141.677
58.16000 146.492
58.20000 143.795
58.24000 140.090
58.28000 149.684
58.32000 146.122
58.36000 146.294
58.40000 136.670
58.44000 144.550
58.48000 137.967
58.52000 134.347
58.56000 147.286
58.60000 136.906
58.64000 143.860
58.68000 148.070
58.72000 133.538
58.76000 142.399
58.80000 138.548
58.84000 148.113
58.88000 139.843
58.92000 135.869
58.96000 148.198
59.00000 144.084
59.04000 127.446
59.08000 139.694
59.12000 137.793
59.16000 138.935
59.20000 134.689
59.24000 131.657
59.28000 123.905
59.32000 124.539
59.36000 128.236
59.40000 126.681
59.44000 133.070
59.48000 135.924
59.52000 138.193
59.56000 132.366
59.60000 142.402
59.64000 135.478
59.68000 131.923
59.72000 131.667
59.76000 133.980
59.80000 140.787
59.84000 133.295
59.88000 130.856
59.92000 133.648
59.96000 129.750
60.00000 128.175
60.04000 121.053
60.08000 128.200
60.12000 135.827
60.16000 127.731
60.20000 136.368
60.24000 138.777
60.28000 135.594
60.32000 130.733
60.36000 133.368
60.40000 125.317
60.44000 135.436
60.48000 134.332
60.52000 132.445
60.56000 138.456
60.60000 131.894
60.64000 134.922
60.68000 138.400
60.72000 127.090
60.76000 138.810
60.80000 138.456
60.84000 142.174
60.88000 138.983
60.92000 132.372
60.96000 130.059
61.00000 132.640
61.04000 131.704
61.08000 131.627
61.12000 136.051
61.16000 128.183
61.20000 132.971
61.24000 142.080
61.28000 141.375
61.32000 142.347
61.36000 141.347
61.40000 137.372
61.44000 133.111
61.48000 140.789
61.52000 148.667
61.56000 175.338
61.60000 214.799
61.64000 230.115
61.68000 231.856
61.72000 254.802
61.76000 247.369
61.80000 208.851
61.84000 171.184
61.88000 154.912
61.92000 144.302
61.96000 148.774
62.00000 148.082
62.04000 147.224
62.08000 137.132
62.12000 133.960
62.16000 150.651
62.20000 143.288
62.24000 140.493
62.28000 148.848
62.32000 140.085
62.36000 139.278
62.40000 145.684
62.44000 152.745
62.48000 145.480
62.52000 149.134
62.56000 131.184
62.60000 143.427
62.64000 140.349
62.68000 135.160
62.72000 137.415
62.76000 143.415
62.80000 140.952
62.84000 140.234
62.88000 143.669
62.92000 141.537
62.96000 150.665
63.00000 153.182
63.04000 141.460
63.08000 146.567
63.12000 143.832
63.16000 162.132
63.20000 147.682
63.24000 142.894
63.28000 144.396
63.32000 143.577
63.36000 143.600
63.40000 139.171
63.44000 148.033
63.48000 149.946
63.52000 149.150
63.56000 139.904
63.60000 149.691
63.64000 142.286
63.68000 154.789
63.72000 138.908
63.76000 137.426
63.80000 157.301
63.84000 150.520
63.88000 165.566
63.92000 146.405
63.96000 148.750
64.00000 145.192
64.04000 148.240
64.08000 154.514
64.12000 146.873
64.16000 163.713
64.20000 164.478
64.24000 155.828
64.28000 158.951
64.32000 153.982
64.36000 163.531
64.40000 165.380
64.44000 166.911
64.48000 152.813
64.52000 165.431
64.56000 170.279
64.60000 159.136
64.64000 159.352
64.68000 167.819
64.72000 169.257
64.76000 173.635
64.80000 172.972
64.84000 180.691
64.88000 183.925
64.92000 183.146
64.96000 167.225
65.00000 172.436
65.04000 191.847
65.08000 177.727
65.12000 189.472
65.16000 203.978
65.20000 208.622
65.24000 220.491
65.28000 232.021
65.32000 249.015
65.36000 274.217
65.40000 299.215
65.44000 314.472
65.48000 335.184
65.52000 365.625
65.56000 359.858
65.60000 376.855
65.64000 400.178
65.68000 433.683
65.72000 518.543
65.76000 659.522
65.80000 794.361
65.84000 894.469
65.88000 922.379
65.92000 904.907
65.96000 790.858
66.00000 604.458
66.04000 445.153
66.08000 337.308
66.12000 299.079
66.16000 278.457
66.20000 281.110
66.24000 279.947
66.28000 289.769
66.32000 330.969
66.36000 372.784
66.40000 410.605
66.44000 382.996
66.48000 401.825
66.52000 364.409
66.56000 330.955
66.60000 309.709
66.64000 297.857
66.68000 292.033
66.72000 288.054
66.76000 295.052
66.80000 286.837
66.84000 306.182
66.88000 305.422
66.92000 315.106
66.96000 313.032
67.00000 337.004
67.04000 328.185
67.08000 340.616
67.12000 328.254
67.16000 334.075
67.20000 327.477
67.24000 351.801
67.28000 342.983
67.32000 361.721
67.36000 366.020
67.40000 359.798
67.44000 375.648
67.48000 392.620
67.52000 378.011
67.56000 385.806
67.60000 402.646
67.64000 397.301
67.68000 417.030
67.72000 422.615
67.76000 439.437
67.80000 434.680
67.84000 445.061
67.88000 459.516
67.92000 477.475
67.96000 480.156
68.00000 483.679
68.04000 467.473
68.08000 501.796
68.12000 521.290
68.16000 530.208
68.20000 551.081
68.24000 553.305
68.28000 573.760
68.32000 586.154
68.36000 573.041
68.40000 607.153
68.44000 648.577
68.48000 669.500
68.52000 687.689
68.56000 752.077
68.60000 842.201
68.64000 970.137
68.68000 1119.110
68.72000 1281.591
68.76000 1414.507
68.80000 1636.634
68.84000 1879.182
68.88000 2138.630
68.92000 3306.019
68.96000 7327.294
69.00000 19282.121
69.04000 34767.676
69.08000 44730.395
69.12000 46465.520
69.16000 47702.609
69.20000 49325.230
69.24000 43297.477
69.28000 33720.711
69.32000 26564.879
69.36000 23768.557
69.40000 20641.197
69.44000 13682.628
69.48000 6810.603
69.52000 2974.528
69.56000 1756.688
69.60000 1291.625
69.64000 1134.588
69.68000 975.849
69.72000 924.052
69.76000 834.896
69.80000 797.385
69.84000 725.241
69.88000 708.203
69.92000 702.615
69.96000 644.831
70.00000 627.532