File: XRD/XRD/30-09-2025 Dep 1/XY Data/BTO_Mapping_Theta2Theta_30-09-2025_001_12_20-074_22-294.xy
20.00000 556.393
20.04000 552.199
20.08000 578.496
20.12000 584.317
20.16000 569.126
20.20000 569.203
20.24000 563.990
20.28000 559.646
20.32000 550.013
20.36000 555.599
20.40000 575.392
20.44000 549.427
20.48000 560.655
20.52000 592.225
20.56000 543.446
20.60000 568.901
20.64000 544.800
20.68000 571.068
20.72000 555.368
20.76000 552.326
20.80000 552.713
20.84000 585.754
20.88000 570.366
20.92000 556.349
20.96000 544.046
21.00000 544.960
21.04000 547.285
21.08000 550.816
21.12000 537.370
21.16000 571.340
21.20000 545.637
21.24000 545.516
21.28000 533.244
21.32000 545.535
21.36000 540.516
21.40000 554.867
21.44000 560.009
21.48000 538.290
21.52000 545.430
21.56000 563.377
21.60000 553.014
21.64000 546.765
21.68000 552.110
21.72000 553.365
21.76000 573.458
21.80000 565.126
21.84000 578.769
21.88000 597.651
21.92000 614.866
21.96000 636.614
22.00000 643.186
22.04000 667.416
22.08000 639.624
22.12000 658.479
22.16000 625.093
22.20000 606.517
22.24000 601.538
22.28000 583.441
22.32000 547.700
22.36000 556.794
22.40000 539.660
22.44000 541.661
22.48000 550.673
22.52000 533.999
22.56000 539.676
22.60000 530.037
22.64000 532.257
22.68000 510.882
22.72000 524.165
22.76000 509.133
22.80000 515.234
22.84000 522.065
22.88000 537.039
22.92000 524.933
22.96000 523.744
23.00000 512.290
23.04000 518.254
23.08000 526.418
23.12000 523.371
23.16000 516.643
23.20000 508.095
23.24000 532.623
23.28000 526.091
23.32000 503.408
23.36000 526.949
23.40000 516.150
23.44000 514.550
23.48000 512.786
23.52000 491.560
23.56000 514.145
23.60000 496.904
23.64000 500.817
23.68000 512.017
23.72000 512.962
23.76000 503.771
23.80000 522.794
23.84000 496.476
23.88000 499.133
23.92000 530.025
23.96000 503.759
24.00000 527.399
24.04000 517.705
24.08000 513.880
24.12000 505.025
24.16000 507.241
24.20000 511.099
24.24000 495.530
24.28000 496.696
24.32000 488.939
24.36000 511.908
24.40000 507.442
24.44000 533.371
24.48000 499.097
24.52000 484.529
24.56000 495.659
24.60000 497.609
24.64000 506.547
24.68000 472.103
24.72000 488.541
24.76000 475.396
24.80000 491.388
24.84000 484.132
24.88000 484.033
24.92000 475.121
24.96000 498.933
25.00000 478.580
25.04000 485.120
25.08000 471.460
25.12000 474.728
25.16000 467.716
25.20000 474.958
25.24000 462.145
25.28000 489.964
25.32000 479.800
25.36000 466.637
25.40000 472.957
25.44000 477.942
25.48000 463.478
25.52000 465.384
25.56000 475.520
25.60000 484.296
25.64000 466.559
25.68000 477.515
25.72000 459.575
25.76000 461.111
25.80000 451.016
25.84000 469.899
25.88000 462.500
25.92000 458.484
25.96000 458.855
26.00000 455.819
26.04000 462.570
26.08000 460.431
26.12000 463.206
26.16000 459.406
26.20000 455.063
26.24000 450.598
26.28000 448.594
26.32000 453.368
26.36000 458.597
26.40000 445.960
26.44000 450.936
26.48000 453.736
26.52000 441.169
26.56000 435.235
26.60000 444.653
26.64000 455.131
26.68000 452.360
26.72000 443.955
26.76000 440.192
26.80000 457.730
26.84000 458.402
26.88000 452.465
26.92000 444.729
26.96000 437.406
27.00000 462.224
27.04000 468.271
27.08000 432.033
27.12000 436.289
27.16000 409.669
27.20000 448.844
27.24000 465.524
27.28000 438.630
27.32000 430.811
27.36000 428.480
27.40000 448.680
27.44000 450.194
27.48000 436.544
27.52000 432.242
27.56000 445.379
27.60000 438.607
27.64000 444.850
27.68000 441.938
27.72000 428.683
27.76000 436.757
27.80000 420.368
27.84000 434.376
27.88000 426.050
27.92000 436.196
27.96000 418.884
28.00000 423.568
28.04000 420.538
28.08000 468.687
28.12000 432.887
28.16000 428.673
28.20000 419.766
28.24000 419.957
28.28000 411.452
28.32000 453.110
28.36000 420.332
28.40000 437.146
28.44000 443.798
28.48000 423.834
28.52000 427.787
28.56000 426.708
28.60000 433.103
28.64000 429.702
28.68000 427.147
28.72000 429.121
28.76000 426.807
28.80000 402.068
28.84000 417.946
28.88000 414.530
28.92000 403.092
28.96000 413.793
29.00000 410.750
29.04000 413.924
29.08000 404.177
29.12000 426.014
29.16000 423.443
29.20000 423.946
29.24000 415.705
29.28000 421.078
29.32000 416.216
29.36000 403.990
29.40000 380.420
29.44000 426.569
29.48000 413.161
29.52000 408.316
29.56000 417.387
29.60000 420.667
29.64000 411.206
29.68000 426.110
29.72000 420.833
29.76000 412.387
29.80000 417.811
29.84000 432.364
29.88000 421.347
29.92000 406.854
29.96000 439.528
30.00000 436.103
30.04000 433.858
30.08000 429.760
30.12000 435.199
30.16000 428.953
30.20000 439.684
30.24000 424.867
30.28000 420.821
30.32000 428.789
30.36000 402.655
30.40000 411.811
30.44000 424.441
30.48000 419.892
30.52000 416.916
30.56000 420.770
30.60000 427.177
30.64000 421.026
30.68000 420.156
30.72000 429.778
30.76000 447.027
30.80000 446.938
30.84000 453.532
30.88000 456.370
30.92000 493.693
30.96000 481.340
31.00000 516.559
31.04000 571.881
31.08000 675.437
31.12000 832.098
31.16000 1058.718
31.20000 1399.479
31.24000 1823.656
31.28000 2289.349
31.32000 2666.616
31.36000 2988.373
31.40000 3071.037
31.44000 2880.123
31.48000 2530.574
31.52000 2054.247
31.56000 1615.334
31.60000 1170.688
31.64000 898.365
31.68000 710.018
31.72000 609.040
31.76000 526.828
31.80000 474.992
31.84000 466.482
31.88000 455.624
31.92000 410.284
31.96000 421.302
32.00000 405.234
32.04000 405.253
32.08000 409.343
32.12000 390.569
32.16000 401.732
32.20000 420.598
32.24000 414.637
32.28000 399.698
32.32000 390.014
32.36000 399.901
32.40000 393.991
32.44000 383.226
32.48000 380.209
32.52000 372.691
32.56000 378.419
32.60000 369.801
32.64000 371.432
32.68000 374.627
32.72000 359.644
32.76000 369.069
32.80000 372.691
32.84000 354.047
32.88000 374.372
32.92000 378.975
32.96000 369.468
33.00000 389.695
33.04000 379.281
33.08000 367.628
33.12000 363.955
33.16000 366.021
33.20000 362.481
33.24000 347.339
33.28000 365.962
33.32000 351.582
33.36000 355.324
33.40000 335.366
33.44000 336.592
33.48000 346.787
33.52000 342.408
33.56000 363.810
33.60000 328.058
33.64000 341.184
33.68000 335.863
33.72000 341.560
33.76000 342.823
33.80000 343.143
33.84000 336.797
33.88000 367.586
33.92000 330.171
33.96000 344.347
34.00000 357.032
34.04000 327.835
34.08000 338.569
34.12000 341.339
34.16000 345.141
34.20000 358.158
34.24000 352.256
34.28000 353.082
34.32000 366.711
34.36000 360.725
34.40000 362.124
34.44000 345.967
34.48000 362.544
34.52000 366.467
34.56000 343.028
34.60000 368.002
34.64000 346.078
34.68000 341.072
34.72000 333.788
34.76000 330.638
34.80000 340.197
34.84000 328.292
34.88000 337.083
34.92000 338.193
34.96000 330.050
35.00000 317.270
35.04000 323.932
35.08000 328.128
35.12000 324.473
35.16000 325.785
35.20000 315.832
35.24000 316.147
35.28000 308.483
35.32000 310.317
35.36000 318.858
35.40000 317.241
35.44000 318.304
35.48000 321.122
35.52000 333.417
35.56000 302.033
35.60000 302.807
35.64000 300.226
35.68000 311.834
35.72000 316.075
35.76000 303.113
35.80000 307.281
35.84000 310.446
35.88000 290.984
35.92000 296.104
35.96000 299.353
36.00000 298.962
36.04000 304.627
36.08000 296.392
36.12000 300.947
36.16000 302.780
36.20000 300.817
36.24000 312.547
36.28000 283.877
36.32000 294.379
36.36000 317.502
36.40000 301.611
36.44000 300.721
36.48000 306.979
36.52000 293.030
36.56000 316.498
36.60000 299.054
36.64000 293.548
36.68000 302.624
36.72000 312.269
36.76000 291.893
36.80000 317.371
36.84000 300.923
36.88000 291.869
36.92000 295.962
36.96000 295.417
37.00000 314.292
37.04000 298.913
37.08000 299.852
37.12000 308.002
37.16000 302.874
37.20000 304.640
37.24000 292.020
37.28000 284.106
37.32000 289.107
37.36000 288.311
37.40000 293.548
37.44000 289.277
37.48000 309.822
37.52000 280.810
37.56000 284.418
37.60000 281.822
37.64000 294.508
37.68000 288.497
37.72000 295.753
37.76000 280.680
37.80000 301.337
37.84000 295.471
37.88000 308.584
37.92000 301.551
37.96000 309.400
38.00000 301.141
38.04000 290.893
38.08000 308.065
38.12000 311.772
38.16000 306.620
38.20000 311.472
38.24000 300.512
38.28000 323.645
38.32000 311.244
38.36000 330.693
38.40000 356.727
38.44000 387.072
38.48000 454.259
38.52000 502.818
38.56000 611.983
38.60000 729.377
38.64000 883.705
38.68000 973.757
38.72000 1036.307
38.76000 1065.937
38.80000 1036.284
38.84000 884.452
38.88000 761.162
38.92000 621.543
38.96000 501.594
39.00000 409.628
39.04000 357.053
39.08000 323.570
39.12000 317.673
39.16000 317.419
39.20000 284.060
39.24000 288.642
39.28000 286.390
39.32000 294.209
39.36000 291.988
39.40000 278.144
39.44000 267.390
39.48000 271.065
39.52000 277.778
39.56000 288.783
39.60000 272.681
39.64000 272.501
39.68000 272.068
39.72000 269.674
39.76000 258.759
39.80000 258.779
39.84000 270.772
39.88000 249.803
39.92000 270.262
39.96000 259.361
40.00000 265.439
40.04000 260.848
40.08000 262.940
40.12000 276.285
40.16000 279.381
40.20000 254.631
40.24000 264.475
40.28000 284.492
40.32000 259.916
40.36000 261.420
40.40000 257.227
40.44000 268.456
40.48000 256.246
40.52000 252.327
40.56000 257.780
40.60000 267.382
40.64000 260.479
40.68000 254.225
40.72000 238.659
40.76000 244.974
40.80000 244.510
40.84000 238.193
40.88000 244.593
40.92000 247.918
40.96000 249.846
41.00000 243.460
41.04000 244.317
41.08000 240.227
41.12000 244.904
41.16000 248.765
41.20000 248.870
41.24000 246.613
41.28000 253.414
41.32000 232.389
41.36000 230.173
41.40000 232.329
41.44000 243.074
41.48000 253.580
41.52000 234.680
41.56000 242.162
41.60000 249.014
41.64000 254.217
41.68000 240.995
41.72000 230.441
41.76000 224.742
41.80000 245.421
41.84000 233.996
41.88000 237.131
41.92000 239.070
41.96000 237.816
42.00000 238.167
42.04000 232.436
42.08000 247.693
42.12000 240.133
42.16000 233.762
42.20000 245.400
42.24000 246.330
42.28000 231.566
42.32000 232.537
42.36000 240.511
42.40000 235.114
42.44000 234.837
42.48000 240.047
42.52000 242.209
42.56000 230.447
42.60000 228.887
42.64000 235.301
42.68000 230.097
42.72000 232.202
42.76000 233.248
42.80000 234.440
42.84000 241.355
42.88000 242.620
42.92000 229.088
42.96000 237.642
43.00000 234.269
43.04000 228.929
43.08000 219.993
43.12000 221.238
43.16000 230.162
43.20000 240.474
43.24000 223.489
43.28000 233.896
43.32000 218.667
43.36000 238.302
43.40000 225.255
43.44000 223.628
43.48000 213.028
43.52000 212.394
43.56000 225.270
43.60000 216.088
43.64000 222.569
43.68000 216.038
43.72000 229.525
43.76000 222.432
43.80000 212.183
43.84000 232.254
43.88000 234.513
43.92000 230.121
43.96000 228.545
44.00000 224.886
44.04000 209.713
44.08000 221.868
44.12000 217.058
44.16000 223.754
44.20000 218.332
44.24000 225.298
44.28000 229.435
44.32000 222.416
44.36000 216.552
44.40000 219.264
44.44000 224.814
44.48000 218.988
44.52000 234.494
44.56000 231.373
44.60000 225.441
44.64000 233.654
44.68000 239.216
44.72000 240.018
44.76000 251.554
44.80000 255.629
44.84000 244.001
44.88000 254.403
44.92000 267.840
44.96000 278.633
45.00000 288.004
45.04000 304.693
45.08000 299.774
45.12000 325.661
45.16000 292.864
45.20000 306.733
45.24000 303.970
45.28000 283.932
45.32000 276.418
45.36000 257.336
45.40000 255.404
45.44000 242.406
45.48000 235.874
45.52000 232.683
45.56000 225.390
45.60000 217.227
45.64000 222.938
45.68000 221.120
45.72000 214.727
45.76000 196.976
45.80000 208.826
45.84000 203.190
45.88000 216.374
45.92000 206.473
45.96000 204.431
46.00000 202.822
46.04000 206.015
46.08000 197.053
46.12000 213.485
46.16000 210.427
46.20000 215.183
46.24000 199.077
46.28000 200.407
46.32000 212.723
46.36000 205.704
46.40000 207.403
46.44000 208.733
46.48000 207.276
46.52000 206.163
46.56000 192.071
46.60000 214.518
46.64000 204.106
46.68000 204.006
46.72000 195.187
46.76000 204.509
46.80000 203.224
46.84000 198.455
46.88000 209.644
46.92000 207.217
46.96000 192.971
47.00000 184.072
47.04000 197.484
47.08000 190.117
47.12000 194.576
47.16000 196.133
47.20000 199.695
47.24000 200.545
47.28000 187.445
47.32000 194.166
47.36000 203.107
47.40000 197.435
47.44000 193.670
47.48000 191.242
47.52000 192.153
47.56000 180.388
47.60000 187.514
47.64000 187.893
47.68000 191.235
47.72000 181.417
47.76000 203.688
47.80000 188.840
47.84000 192.089
47.88000 185.452
47.92000 177.771
47.96000 180.709
48.00000 187.692
48.04000 182.409
48.08000 200.640
48.12000 195.957
48.16000 184.520
48.20000 183.178
48.24000 194.519
48.28000 185.873
48.32000 190.452
48.36000 176.727
48.40000 187.271
48.44000 180.303
48.48000 182.853
48.52000 175.822
48.56000 184.683
48.60000 176.618
48.64000 178.190
48.68000 194.454
48.72000 176.220
48.76000 179.234
48.80000 179.832
48.84000 181.293
48.88000 184.930
48.92000 183.973
48.96000 175.285
49.00000 166.898
49.04000 178.903
49.08000 193.448
49.12000 176.636
49.16000 182.852
49.20000 181.166
49.24000 178.507
49.28000 181.823
49.32000 194.965
49.36000 183.968
49.40000 178.306
49.44000 186.650
49.48000 173.237
49.52000 174.981
49.56000 184.101
49.60000 170.467
49.64000 185.166
49.68000 184.166
49.72000 173.374
49.76000 175.479
49.80000 173.396
49.84000 181.040
49.88000 170.312
49.92000 186.312
49.96000 176.301
50.00000 177.619
50.04000 171.586
50.08000 175.151
50.12000 175.117
50.16000 173.443
50.20000 178.063
50.24000 188.243
50.28000 187.284
50.32000 186.383
50.36000 176.851
50.40000 176.733
50.44000 198.596
50.48000 203.202
50.52000 203.394
50.56000 220.567
50.60000 220.281
50.64000 234.302
50.68000 247.797
50.72000 256.324
50.76000 264.668
50.80000 232.612
50.84000 231.325
50.88000 212.254
50.92000 208.867
50.96000 211.318
51.00000 201.832
51.04000 185.891
51.08000 186.267
51.12000 184.823
51.16000 182.767
51.20000 175.590
51.24000 178.031
51.28000 160.895
51.32000 170.300
51.36000 171.225
51.40000 165.933
51.44000 168.592
51.48000 173.885
51.52000 177.556
51.56000 163.963
51.60000 164.358
51.64000 159.910
51.68000 168.054
51.72000 169.617
51.76000 166.278
51.80000 164.265
51.84000 174.105
51.88000 160.587
51.92000 164.680
51.96000 168.941
52.00000 170.080
52.04000 148.027
52.08000 166.066
52.12000 154.642
52.16000 164.305
52.20000 157.191
52.24000 164.149
52.28000 156.645
52.32000 166.147
52.36000 168.774
52.40000 160.762
52.44000 156.073
52.48000 157.176
52.52000 166.791
52.56000 166.350
52.60000 157.575
52.64000 166.833
52.68000 171.142
52.72000 157.359
52.76000 161.205
52.80000 151.528
52.84000 163.334
52.88000 156.738
52.92000 166.693
52.96000 160.390
53.00000 162.882
53.04000 161.046
53.08000 162.053
53.12000 150.000
53.16000 164.128
53.20000 173.395
53.24000 159.277
53.28000 158.289
53.32000 157.195
53.36000 161.374
53.40000 162.139
53.44000 169.966
53.48000 159.244
53.52000 163.724
53.56000 163.282
53.60000 156.788
53.64000 146.101
53.68000 159.034
53.72000 159.014
53.76000 149.254
53.80000 159.661
53.84000 170.363
53.88000 153.698
53.92000 151.547
53.96000 158.602
54.00000 159.936
54.04000 169.515
54.08000 147.884
54.12000 159.858
54.16000 159.973
54.20000 158.889
54.24000 158.893
54.28000 154.101
54.32000 162.074
54.36000 157.758
54.40000 157.802
54.44000 158.369
54.48000 148.167
54.52000 161.308
54.56000 160.566
54.60000 153.990
54.64000 158.670
54.68000 162.413
54.72000 163.762
54.76000 152.522
54.80000 151.510
54.84000 153.421
54.88000 148.655
54.92000 158.832
54.96000 162.015
55.00000 159.188
55.04000 159.953
55.08000 169.733
55.12000 169.623
55.16000 162.377
55.20000 158.121
55.24000 162.450
55.28000 165.759
55.32000 158.922
55.36000 169.663
55.40000 171.988
55.44000 183.369
55.48000 182.841
55.52000 199.693
55.56000 204.124
55.60000 228.130
55.64000 247.216
55.68000 273.853
55.72000 326.465
55.76000 385.062
55.80000 441.892
55.84000 505.452
55.88000 578.068
55.92000 611.162
55.96000 630.269
56.00000 638.026
56.04000 600.171
56.08000 554.451
56.12000 484.221
56.16000 430.460
56.20000 346.093
56.24000 320.309
56.28000 264.838
56.32000 233.217
56.36000 204.686
56.40000 196.198
56.44000 182.425
56.48000 177.240
56.52000 169.076
56.56000 157.820
56.60000 159.413
56.64000 151.470
56.68000 155.223
56.72000 154.942
56.76000 154.997
56.80000 155.016
56.84000 148.374
56.88000 149.236
56.92000 152.012
56.96000 149.103
57.00000 141.793
57.04000 137.572
57.08000 136.279
57.12000 140.394
57.16000 141.873
57.20000 148.311
57.24000 143.768
57.28000 149.961
57.32000 155.676
57.36000 151.852
57.40000 145.754
57.44000 149.726
57.48000 150.191
57.52000 142.151
57.56000 136.480
57.60000 149.287
57.64000 138.502
57.68000 135.609
57.72000 141.006
57.76000 147.490
57.80000 150.752
57.84000 137.516
57.88000 143.704
57.92000 152.288
57.96000 142.967
58.00000 146.659
58.04000 149.845
58.08000 141.705
58.12000 138.821
58.16000 147.565
58.20000 140.847
58.24000 132.216
58.28000 138.593
58.32000 132.791
58.36000 135.732
58.40000 143.483
58.44000 143.325
58.48000 129.634
58.52000 135.703
58.56000 137.015
58.60000 140.945
58.64000 145.076
58.68000 142.756
58.72000 140.453
58.76000 142.432
58.80000 140.014
58.84000 143.474
58.88000 128.619
58.92000 130.080
58.96000 138.453
59.00000 121.954
59.04000 144.203
59.08000 132.325
59.12000 124.894
59.16000 137.118
59.20000 144.236
59.24000 134.599
59.28000 137.256
59.32000 133.783
59.36000 129.681
59.40000 130.623
59.44000 128.660
59.48000 138.076
59.52000 126.408
59.56000 121.657
59.60000 123.339
59.64000 130.803
59.68000 121.466
59.72000 130.947
59.76000 133.169
59.80000 126.424
59.84000 141.683
59.88000 135.895
59.92000 137.011
59.96000 136.602
60.00000 129.570
60.04000 130.326
60.08000 133.208
60.12000 138.878
60.16000 145.646
60.20000 138.244
60.24000 138.305
60.28000 129.077
60.32000 132.457
60.36000 129.130
60.40000 127.714
60.44000 137.850
60.48000 132.916
60.52000 130.576
60.56000 132.759
60.60000 133.209
60.64000 135.739
60.68000 131.801
60.72000 137.397
60.76000 133.253
60.80000 138.122
60.84000 139.085
60.88000 137.851
60.92000 142.893
60.96000 135.393
61.00000 127.288
61.04000 134.844
61.08000 136.465
61.12000 141.848
61.16000 139.452
61.20000 143.832
61.24000 140.358
61.28000 132.209
61.32000 136.875
61.36000 133.581
61.40000 128.234
61.44000 133.251
61.48000 141.620
61.52000 148.951
61.56000 195.495
61.60000 216.152
61.64000 241.989
61.68000 242.659
61.72000 255.559
61.76000 236.414
61.80000 212.538
61.84000 169.168
61.88000 151.568
61.92000 152.595
61.96000 139.752
62.00000 140.397
62.04000 156.842
62.08000 140.954
62.12000 145.391
62.16000 136.964
62.20000 136.105
62.24000 141.093
62.28000 139.476
62.32000 148.322
62.36000 142.528
62.40000 150.004
62.44000 130.842
62.48000 143.858
62.52000 138.660
62.56000 136.604
62.60000 150.116
62.64000 141.710
62.68000 139.571
62.72000 144.031
62.76000 137.631
62.80000 146.589
62.84000 147.817
62.88000 149.685
62.92000 150.481
62.96000 140.550
63.00000 141.907
63.04000 136.673
63.08000 150.757
63.12000 152.534
63.16000 149.845
63.20000 149.376
63.24000 153.079
63.28000 138.959
63.32000 156.173
63.36000 157.908
63.40000 145.094
63.44000 142.589
63.48000 140.065
63.52000 137.661
63.56000 150.845
63.60000 147.268
63.64000 142.414
63.68000 153.504
63.72000 148.494
63.76000 149.919
63.80000 154.733
63.84000 152.399
63.88000 148.993
63.92000 162.278
63.96000 146.710
64.00000 153.872
64.04000 154.261
64.08000 149.711
64.12000 154.014
64.16000 161.074
64.20000 163.683
64.24000 164.603
64.28000 156.330
64.32000 168.601
64.36000 164.443
64.40000 148.712
64.44000 166.068
64.48000 164.236
64.52000 163.739
64.56000 164.328
64.60000 172.839
64.64000 168.293
64.68000 161.147
64.72000 173.443
64.76000 177.110
64.80000 183.834
64.84000 181.915
64.88000 182.848
64.92000 182.441
64.96000 175.794
65.00000 191.098
65.04000 177.368
65.08000 186.870
65.12000 195.049
65.16000 210.721
65.20000 225.844
65.24000 221.251
65.28000 238.709
65.32000 250.008
65.36000 276.762
65.40000 293.027
65.44000 307.514
65.48000 349.151
65.52000 359.260
65.56000 367.455
65.60000 393.642
65.64000 410.953
65.68000 475.020
65.72000 566.529
65.76000 729.075
65.80000 850.821
65.84000 880.930
65.88000 917.489
65.92000 864.086
65.96000 719.155
66.00000 539.487
66.04000 395.594
66.08000 314.279
66.12000 292.209
66.16000 305.762
66.20000 285.254
66.24000 290.488
66.28000 310.159
66.32000 344.113
66.36000 369.445
66.40000 398.136
66.44000 389.788
66.48000 376.604
66.52000 360.284
66.56000 313.599
66.60000 312.195
66.64000 299.873
66.68000 298.442
66.72000 300.513
66.76000 288.857
66.80000 292.610
66.84000 298.120
66.88000 310.251
66.92000 318.363
66.96000 328.180
67.00000 330.850
67.04000 320.868
67.08000 325.389
67.12000 332.660
67.16000 334.604
67.20000 334.036
67.24000 358.974
67.28000 350.624
67.32000 373.106
67.36000 368.033
67.40000 365.867
67.44000 392.050
67.48000 393.088
67.52000 403.179
67.56000 408.981
67.60000 404.477
67.64000 399.328
67.68000 425.605
67.72000 448.659
67.76000 434.535
67.80000 442.427
67.84000 459.329
67.88000 459.428
67.92000 457.055
67.96000 468.550
68.00000 462.029
68.04000 507.327
68.08000 509.960
68.12000 530.323
68.16000 541.581
68.20000 559.987
68.24000 535.920
68.28000 569.480
68.32000 602.779
68.36000 597.402
68.40000 650.805
68.44000 661.144
68.48000 698.709
68.52000 718.235
68.56000 775.138
68.60000 877.718
68.64000 1045.903
68.68000 1199.674
68.72000 1349.000
68.76000 1554.572
68.80000 1701.723
68.84000 2020.088
68.88000 2400.103
68.92000 4468.260
68.96000 11080.354
69.00000 25741.293
69.04000 39975.184
69.08000 46385.902
69.12000 47373.223
69.16000 49444.594
69.20000 48919.379
69.24000 40074.801
69.28000 30278.320
69.32000 25470.008
69.36000 23102.252
69.40000 18617.514
69.44000 10778.158
69.48000 4756.582
69.52000 2324.572
69.56000 1501.352
69.60000 1254.431
69.64000 1079.809
69.68000 962.163
69.72000 891.907
69.76000 816.397
69.80000 793.345
69.84000 716.271
69.88000 661.547
69.92000 671.073
69.96000 672.679
70.00000 628.583