File: XRD/XRD/30-09-2025 Dep 1/XY Data/BTO_Mapping_Theta2Theta_30-09-2025_001_17_12-361_38-042.xy
20.00000 565.529
20.04000 551.767
20.08000 541.024
20.12000 544.753
20.16000 570.335
20.20000 561.585
20.24000 569.324
20.28000 558.577
20.32000 595.858
20.36000 560.930
20.40000 560.846
20.44000 557.971
20.48000 548.157
20.52000 554.843
20.56000 563.795
20.60000 554.251
20.64000 542.751
20.68000 572.710
20.72000 551.869
20.76000 580.786
20.80000 574.771
20.84000 575.333
20.88000 572.207
20.92000 566.515
20.96000 557.966
21.00000 554.464
21.04000 553.853
21.08000 567.740
21.12000 544.746
21.16000 541.017
21.20000 549.370
21.24000 560.676
21.28000 543.822
21.32000 536.876
21.36000 565.453
21.40000 546.804
21.44000 581.358
21.48000 572.594
21.52000 557.058
21.56000 573.175
21.60000 563.141
21.64000 550.052
21.68000 561.639
21.72000 580.672
21.76000 553.784
21.80000 590.426
21.84000 598.731
21.88000 615.463
21.92000 664.415
21.96000 669.106
22.00000 667.848
22.04000 681.411
22.08000 690.947
22.12000 680.857
22.16000 679.744
22.20000 643.774
22.24000 616.214
22.28000 585.381
22.32000 570.493
22.36000 553.498
22.40000 540.353
22.44000 560.232
22.48000 549.852
22.52000 537.396
22.56000 543.236
22.60000 522.932
22.64000 536.781
22.68000 528.289
22.72000 522.681
22.76000 523.216
22.80000 529.607
22.84000 523.203
22.88000 538.401
22.92000 517.542
22.96000 502.108
23.00000 515.582
23.04000 535.550
23.08000 503.144
23.12000 503.860
23.16000 498.431
23.20000 512.713
23.24000 506.465
23.28000 507.922
23.32000 514.127
23.36000 523.455
23.40000 519.494
23.44000 500.154
23.48000 497.994
23.52000 519.526
23.56000 516.409
23.60000 517.050
23.64000 505.405
23.68000 519.367
23.72000 536.328
23.76000 513.215
23.80000 519.082
23.84000 557.703
23.88000 552.821
23.92000 560.516
23.96000 521.069
24.00000 532.673
24.04000 556.501
24.08000 548.411
24.12000 531.874
24.16000 539.105
24.20000 529.526
24.24000 517.560
24.28000 522.073
24.32000 518.871
24.36000 537.141
24.40000 500.401
24.44000 495.282
24.48000 495.637
24.52000 499.873
24.56000 477.940
24.60000 497.385
24.64000 482.848
24.68000 480.337
24.72000 510.783
24.76000 492.217
24.80000 478.806
24.84000 470.183
24.88000 486.500
24.92000 478.909
24.96000 469.477
25.00000 477.879
25.04000 479.472
25.08000 461.077
25.12000 484.404
25.16000 483.097
25.20000 485.154
25.24000 486.749
25.28000 478.880
25.32000 488.835
25.36000 487.330
25.40000 482.104
25.44000 474.080
25.48000 467.251
25.52000 467.926
25.56000 475.065
25.60000 474.744
25.64000 471.232
25.68000 481.242
25.72000 458.067
25.76000 476.800
25.80000 463.736
25.84000 471.275
25.88000 456.572
25.92000 467.087
25.96000 471.890
26.00000 441.519
26.04000 457.801
26.08000 451.973
26.12000 445.375
26.16000 461.324
26.20000 474.316
26.24000 441.165
26.28000 457.186
26.32000 438.225
26.36000 462.533
26.40000 465.128
26.44000 455.350
26.48000 446.190
26.52000 442.128
26.56000 460.462
26.60000 451.576
26.64000 442.778
26.68000 463.405
26.72000 469.251
26.76000 457.384
26.80000 441.265
26.84000 457.911
26.88000 440.064
26.92000 455.113
26.96000 426.961
27.00000 435.819
27.04000 452.116
27.08000 448.938
27.12000 440.951
27.16000 454.996
27.20000 447.620
27.24000 428.855
27.28000 441.929
27.32000 437.649
27.36000 467.892
27.40000 440.674
27.44000 424.445
27.48000 446.588
27.52000 429.990
27.56000 420.773
27.60000 441.420
27.64000 454.396
27.68000 444.859
27.72000 442.670
27.76000 438.230
27.80000 440.559
27.84000 429.795
27.88000 437.466
27.92000 443.957
27.96000 440.442
28.00000 426.588
28.04000 434.772
28.08000 421.787
28.12000 440.378
28.16000 449.537
28.20000 417.897
28.24000 432.491
28.28000 436.925
28.32000 413.825
28.36000 436.340
28.40000 434.132
28.44000 434.266
28.48000 419.691
28.52000 430.193
28.56000 415.841
28.60000 428.980
28.64000 422.635
28.68000 415.858
28.72000 409.715
28.76000 425.839
28.80000 413.933
28.84000 417.016
28.88000 406.774
28.92000 407.177
28.96000 419.478
29.00000 418.922
29.04000 408.959
29.08000 414.291
29.12000 407.510
29.16000 395.350
29.20000 418.463
29.24000 407.855
29.28000 402.807
29.32000 397.844
29.36000 406.599
29.40000 402.855
29.44000 410.565
29.48000 418.110
29.52000 409.584
29.56000 394.055
29.60000 408.451
29.64000 416.280
29.68000 406.343
29.72000 432.834
29.76000 416.299
29.80000 413.544
29.84000 420.608
29.88000 417.528
29.92000 435.672
29.96000 421.843
30.00000 419.770
30.04000 425.540
30.08000 418.069
30.12000 432.744
30.16000 423.381
30.20000 433.897
30.24000 421.302
30.28000 419.983
30.32000 401.916
30.36000 403.952
30.40000 421.211
30.44000 426.469
30.48000 403.963
30.52000 405.765
30.56000 394.292
30.60000 414.103
30.64000 415.457
30.68000 428.838
30.72000 409.117
30.76000 422.185
30.80000 432.961
30.84000 428.081
30.88000 435.864
30.92000 443.658
30.96000 472.171
31.00000 494.150
31.04000 515.849
31.08000 576.662
31.12000 685.494
31.16000 785.073
31.20000 971.640
31.24000 1187.008
31.28000 1415.924
31.32000 1638.224
31.36000 1757.615
31.40000 1820.529
31.44000 1738.186
31.48000 1585.603
31.52000 1365.698
31.56000 1130.167
31.60000 932.076
31.64000 741.576
31.68000 637.629
31.72000 546.631
31.76000 484.825
31.80000 451.501
31.84000 433.330
31.88000 413.772
31.92000 423.225
31.96000 411.079
32.00000 417.679
32.04000 401.854
32.08000 408.440
32.12000 405.209
32.16000 396.287
32.20000 400.859
32.24000 398.968
32.28000 393.996
32.32000 383.187
32.36000 382.817
32.40000 382.677
32.44000 382.257
32.48000 396.077
32.52000 384.501
32.56000 378.698
32.60000 389.513
32.64000 386.936
32.68000 369.345
32.72000 361.941
32.76000 356.911
32.80000 354.280
32.84000 359.450
32.88000 369.588
32.92000 356.995
32.96000 374.956
33.00000 396.117
33.04000 385.348
33.08000 393.749
33.12000 385.775
33.16000 364.287
33.20000 361.324
33.24000 359.026
33.28000 359.929
33.32000 350.102
33.36000 343.183
33.40000 349.639
33.44000 333.505
33.48000 343.745
33.52000 345.671
33.56000 341.085
33.60000 346.405
33.64000 339.404
33.68000 341.883
33.72000 356.521
33.76000 347.013
33.80000 339.255
33.84000 332.388
33.88000 363.119
33.92000 344.619
33.96000 354.707
34.00000 355.577
34.04000 365.905
34.08000 368.158
34.12000 361.266
34.16000 373.228
34.20000 379.509
34.24000 367.036
34.28000 366.005
34.32000 361.044
34.36000 365.770
34.40000 367.304
34.44000 363.359
34.48000 368.458
34.52000 364.413
34.56000 354.729
34.60000 346.938
34.64000 350.253
34.68000 340.175
34.72000 349.095
34.76000 334.071
34.80000 333.998
34.84000 325.415
34.88000 330.400
34.92000 338.037
34.96000 340.733
35.00000 325.062
35.04000 337.790
35.08000 326.412
35.12000 315.919
35.16000 324.741
35.20000 309.016
35.24000 322.712
35.28000 306.951
35.32000 295.961
35.36000 315.807
35.40000 319.959
35.44000 296.937
35.48000 302.752
35.52000 321.986
35.56000 308.080
35.60000 306.684
35.64000 321.184
35.68000 312.598
35.72000 311.309
35.76000 321.012
35.80000 317.591
35.84000 294.917
35.88000 301.719
35.92000 300.486
35.96000 303.485
36.00000 313.295
36.04000 299.578
36.08000 306.966
36.12000 294.714
36.16000 324.023
36.20000 310.813
36.24000 295.032
36.28000 304.325
36.32000 301.994
36.36000 297.987
36.40000 296.659
36.44000 296.068
36.48000 299.871
36.52000 299.644
36.56000 291.540
36.60000 293.161
36.64000 300.547
36.68000 313.826
36.72000 295.538
36.76000 289.917
36.80000 289.566
36.84000 293.535
36.88000 302.133
36.92000 293.356
36.96000 316.912
37.00000 311.501
37.04000 303.173
37.08000 320.989
37.12000 291.091
37.16000 286.758
37.20000 301.074
37.24000 299.351
37.28000 287.756
37.32000 301.505
37.36000 275.431
37.40000 297.393
37.44000 303.295
37.48000 302.216
37.52000 277.924
37.56000 291.190
37.60000 287.797
37.64000 275.199
37.68000 298.478
37.72000 303.057
37.76000 277.317
37.80000 295.695
37.84000 291.699
37.88000 298.643
37.92000 298.643
37.96000 298.140
38.00000 318.279
38.04000 312.821
38.08000 290.788
38.12000 293.612
38.16000 295.328
38.20000 307.443
38.24000 297.599
38.28000 303.042
38.32000 313.752
38.36000 321.892
38.40000 355.180
38.44000 346.705
38.48000 412.232
38.52000 476.147
38.56000 563.956
38.60000 670.261
38.64000 805.547
38.68000 880.414
38.72000 988.369
38.76000 947.294
38.80000 922.070
38.84000 842.946
38.88000 743.847
38.92000 617.161
38.96000 508.643
39.00000 420.250
39.04000 384.802
39.08000 318.732
39.12000 320.821
39.16000 280.391
39.20000 296.629
39.24000 290.026
39.28000 284.456
39.32000 274.624
39.36000 278.872
39.40000 288.135
39.44000 282.835
39.48000 273.201
39.52000 284.009
39.56000 280.667
39.60000 281.488
39.64000 278.701
39.68000 268.343
39.72000 275.296
39.76000 263.502
39.80000 268.036
39.84000 273.717
39.88000 252.673
39.92000 270.365
39.96000 269.050
40.00000 266.543
40.04000 268.315
40.08000 244.205
40.12000 257.900
40.16000 264.228
40.20000 250.821
40.24000 253.506
40.28000 267.380
40.32000 255.158
40.36000 258.265
40.40000 256.292
40.44000 245.187
40.48000 263.817
40.52000 240.278
40.56000 259.025
40.60000 252.093
40.64000 255.351
40.68000 253.036
40.72000 255.742
40.76000 241.511
40.80000 243.565
40.84000 241.661
40.88000 250.934
40.92000 237.137
40.96000 250.195
41.00000 251.613
41.04000 255.989
41.08000 249.653
41.12000 252.148
41.16000 253.008
41.20000 248.323
41.24000 242.332
41.28000 234.949
41.32000 264.104
41.36000 244.450
41.40000 247.125
41.44000 238.917
41.48000 247.576
41.52000 245.651
41.56000 248.862
41.60000 240.487
41.64000 251.065
41.68000 237.845
41.72000 233.795
41.76000 237.376
41.80000 238.334
41.84000 237.011
41.88000 234.260
41.92000 230.262
41.96000 236.737
42.00000 241.803
42.04000 237.848
42.08000 243.136
42.12000 242.650
42.16000 244.703
42.20000 240.581
42.24000 262.023
42.28000 237.221
42.32000 244.792
42.36000 230.929
42.40000 241.152
42.44000 253.795
42.48000 236.910
42.52000 235.385
42.56000 239.162
42.60000 234.294
42.64000 241.050
42.68000 243.347
42.72000 243.024
42.76000 233.398
42.80000 239.917
42.84000 244.067
42.88000 228.791
42.92000 231.014
42.96000 235.612
43.00000 236.852
43.04000 235.019
43.08000 241.053
43.12000 241.545
43.16000 233.958
43.20000 233.625
43.24000 222.391
43.28000 226.069
43.32000 226.443
43.36000 229.323
43.40000 227.321
43.44000 235.475
43.48000 224.607
43.52000 221.276
43.56000 217.547
43.60000 215.858
43.64000 233.955
43.68000 226.008
43.72000 233.566
43.76000 221.684
43.80000 216.715
43.84000 219.440
43.88000 225.449
43.92000 217.114
43.96000 226.778
44.00000 222.098
44.04000 224.895
44.08000 207.634
44.12000 216.121
44.16000 210.288
44.20000 228.629
44.24000 219.988
44.28000 214.642
44.32000 236.450
44.36000 228.131
44.40000 238.676
44.44000 235.773
44.48000 236.728
44.52000 237.618
44.56000 244.539
44.60000 236.591
44.64000 228.777
44.68000 244.848
44.72000 258.039
44.76000 268.063
44.80000 266.776
44.84000 268.018
44.88000 267.956
44.92000 285.719
44.96000 297.961
45.00000 324.429
45.04000 322.887
45.08000 347.165
45.12000 328.047
45.16000 338.271
45.20000 336.921
45.24000 331.135
45.28000 300.911
45.32000 301.189
45.36000 275.103
45.40000 259.299
45.44000 236.827
45.48000 239.542
45.52000 238.499
45.56000 221.128
45.60000 233.401
45.64000 237.364
45.68000 213.718
45.72000 218.236
45.76000 216.864
45.80000 213.538
45.84000 215.533
45.88000 210.350
45.92000 219.069
45.96000 219.422
46.00000 219.160
46.04000 211.955
46.08000 214.594
46.12000 210.819
46.16000 206.297
46.20000 198.965
46.24000 205.886
46.28000 192.803
46.32000 204.295
46.36000 210.852
46.40000 202.461
46.44000 208.281
46.48000 204.742
46.52000 199.369
46.56000 209.787
46.60000 201.538
46.64000 194.366
46.68000 201.211
46.72000 205.761
46.76000 203.230
46.80000 209.322
46.84000 208.960
46.88000 191.376
46.92000 204.798
46.96000 191.492
47.00000 208.144
47.04000 195.491
47.08000 196.118
47.12000 189.827
47.16000 199.577
47.20000 188.537
47.24000 198.767
47.28000 198.954
47.32000 185.711
47.36000 196.739
47.40000 189.929
47.44000 186.524
47.48000 184.233
47.52000 195.078
47.56000 178.217
47.60000 190.113
47.64000 203.075
47.68000 193.800
47.72000 184.733
47.76000 187.642
47.80000 195.241
47.84000 189.966
47.88000 193.388
47.92000 187.655
47.96000 181.537
48.00000 195.494
48.04000 190.119
48.08000 190.369
48.12000 192.521
48.16000 179.667
48.20000 172.661
48.24000 182.224
48.28000 182.410
48.32000 193.954
48.36000 189.111
48.40000 189.573
48.44000 190.219
48.48000 182.773
48.52000 186.695
48.56000 184.847
48.60000 188.002
48.64000 187.971
48.68000 186.894
48.72000 182.763
48.76000 182.092
48.80000 180.870
48.84000 180.405
48.88000 192.583
48.92000 179.934
48.96000 178.503
49.00000 184.547
49.04000 173.706
49.08000 175.481
49.12000 179.652
49.16000 180.859
49.20000 175.185
49.24000 185.123
49.28000 178.697
49.32000 183.519
49.36000 184.425
49.40000 182.576
49.44000 177.401
49.48000 178.178
49.52000 183.441
49.56000 177.975
49.60000 189.696
49.64000 185.707
49.68000 171.094
49.72000 187.343
49.76000 167.801
49.80000 179.232
49.84000 162.137
49.88000 178.205
49.92000 168.409
49.96000 181.611
50.00000 181.961
50.04000 167.329
50.08000 169.246
50.12000 186.277
50.16000 167.876
50.20000 169.187
50.24000 184.443
50.28000 177.411
50.32000 169.293
50.36000 181.313
50.40000 197.461
50.44000 190.716
50.48000 188.599
50.52000 194.350
50.56000 216.796
50.60000 211.125
50.64000 223.044
50.68000 221.072
50.72000 207.435
50.76000 218.852
50.80000 213.139
50.84000 209.108
50.88000 205.320
50.92000 205.175
50.96000 200.821
51.00000 187.155
51.04000 181.861
51.08000 181.831
51.12000 175.291
51.16000 181.539
51.20000 176.268
51.24000 173.485
51.28000 148.415
51.32000 162.229
51.36000 160.969
51.40000 166.430
51.44000 160.441
51.48000 166.620
51.52000 177.635
51.56000 168.885
51.60000 165.320
51.64000 156.571
51.68000 160.331
51.72000 163.918
51.76000 155.100
51.80000 175.494
51.84000 167.268
51.88000 167.476
51.92000 178.342
51.96000 167.318
52.00000 168.833
52.04000 167.008
52.08000 166.198
52.12000 155.877
52.16000 156.745
52.20000 167.695
52.24000 169.665
52.28000 161.340
52.32000 170.026
52.36000 169.354
52.40000 172.924
52.44000 149.280
52.48000 152.394
52.52000 159.595
52.56000 163.979
52.60000 162.954
52.64000 155.647
52.68000 163.301
52.72000 153.573
52.76000 153.860
52.80000 155.526
52.84000 159.615
52.88000 165.251
52.92000 154.086
52.96000 165.279
53.00000 170.381
53.04000 151.920
53.08000 161.144
53.12000 165.118
53.16000 153.014
53.20000 151.502
53.24000 147.995
53.28000 164.636
53.32000 158.571
53.36000 164.917
53.40000 159.802
53.44000 168.559
53.48000 168.564
53.52000 162.676
53.56000 159.187
53.60000 158.183
53.64000 158.968
53.68000 159.405
53.72000 163.135
53.76000 154.638
53.80000 165.086
53.84000 159.129
53.88000 158.163
53.92000 161.936
53.96000 152.898
54.00000 157.287
54.04000 154.486
54.08000 155.759
54.12000 156.603
54.16000 159.481
54.20000 157.883
54.24000 151.222
54.28000 160.746
54.32000 161.261
54.36000 169.483
54.40000 153.221
54.44000 154.626
54.48000 146.050
54.52000 152.478
54.56000 155.957
54.60000 155.828
54.64000 158.183
54.68000 165.560
54.72000 143.403
54.76000 155.880
54.80000 160.663
54.84000 155.441
54.88000 167.749
54.92000 153.604
54.96000 157.040
55.00000 162.795
55.04000 156.896
55.08000 158.436
55.12000 157.069
55.16000 167.709
55.20000 158.092
55.24000 157.651
55.28000 156.611
55.32000 173.261
55.36000 162.237
55.40000 177.105
55.44000 183.873
55.48000 183.881
55.52000 192.058
55.56000 202.997
55.60000 225.563
55.64000 249.425
55.68000 276.315
55.72000 320.544
55.76000 359.337
55.80000 457.112
55.84000 464.981
55.88000 515.649
55.92000 546.807
55.96000 570.243
56.00000 567.643
56.04000 524.617
56.08000 480.730
56.12000 434.753
56.16000 402.979
56.20000 329.186
56.24000 285.237
56.28000 282.157
56.32000 240.534
56.36000 219.748
56.40000 191.342
56.44000 184.302
56.48000 176.715
56.52000 162.744
56.56000 165.968
56.60000 167.708
56.64000 168.844
56.68000 157.606
56.72000 157.111
56.76000 162.005
56.80000 139.789
56.84000 158.860
56.88000 146.743
56.92000 150.743
56.96000 154.578
57.00000 155.086
57.04000 156.888
57.08000 156.161
57.12000 149.485
57.16000 140.174
57.20000 152.230
57.24000 142.747
57.28000 143.299
57.32000 138.051
57.36000 149.468
57.40000 143.236
57.44000 134.468
57.48000 150.761
57.52000 152.263
57.56000 147.807
57.60000 152.060
57.64000 141.449
57.68000 140.607
57.72000 139.676
57.76000 144.148
57.80000 143.375
57.84000 139.905
57.88000 136.346
57.92000 151.554
57.96000 143.424
58.00000 144.825
58.04000 142.522
58.08000 139.692
58.12000 144.713
58.16000 142.887
58.20000 146.755
58.24000 147.114
58.28000 140.540
58.32000 135.091
58.36000 138.679
58.40000 130.998
58.44000 137.923
58.48000 137.416
58.52000 138.740
58.56000 133.704
58.60000 127.217
58.64000 138.359
58.68000 134.456
58.72000 128.225
58.76000 139.752
58.80000 126.168
58.84000 137.548
58.88000 134.423
58.92000 130.104
58.96000 129.318
59.00000 132.698
59.04000 125.473
59.08000 141.791
59.12000 130.437
59.16000 125.602
59.20000 129.247
59.24000 137.903
59.28000 134.077
59.32000 145.179
59.36000 139.471
59.40000 128.156
59.44000 122.281
59.48000 137.662
59.52000 139.045
59.56000 133.808
59.60000 140.231
59.64000 131.615
59.68000 135.449
59.72000 129.633
59.76000 139.367
59.80000 137.720
59.84000 130.503
59.88000 137.843
59.92000 131.946
59.96000 126.951
60.00000 140.737
60.04000 134.598
60.08000 139.440
60.12000 134.515
60.16000 124.061
60.20000 139.212
60.24000 133.223
60.28000 128.617
60.32000 136.841
60.36000 133.320
60.40000 125.261
60.44000 133.636
60.48000 139.247
60.52000 133.786
60.56000 137.522
60.60000 127.591
60.64000 129.467
60.68000 141.281
60.72000 137.464
60.76000 141.335
60.80000 122.275
60.84000 138.812
60.88000 137.354
60.92000 135.105
60.96000 133.989
61.00000 138.049
61.04000 133.800
61.08000 142.973
61.12000 137.534
61.16000 132.860
61.20000 143.319
61.24000 133.560
61.28000 134.530
61.32000 130.659
61.36000 134.338
61.40000 136.169
61.44000 137.376
61.48000 149.292
61.52000 146.727
61.56000 193.143
61.60000 218.693
61.64000 244.258
61.68000 250.306
61.72000 247.948
61.76000 239.031
61.80000 208.836
61.84000 175.062
61.88000 155.867
61.92000 142.329
61.96000 136.800
62.00000 144.301
62.04000 131.689
62.08000 145.302
62.12000 163.314
62.16000 149.262
62.20000 142.762
62.24000 145.908
62.28000 145.900
62.32000 137.914
62.36000 141.782
62.40000 131.712
62.44000 134.395
62.48000 141.769
62.52000 140.516
62.56000 141.871
62.60000 141.548
62.64000 139.096
62.68000 140.354
62.72000 142.360
62.76000 144.988
62.80000 150.772
62.84000 141.336
62.88000 145.936
62.92000 137.027
62.96000 141.801
63.00000 140.714
63.04000 140.002
63.08000 141.842
63.12000 150.836
63.16000 160.402
63.20000 152.350
63.24000 143.201
63.28000 145.334
63.32000 139.018
63.36000 147.254
63.40000 150.936
63.44000 144.049
63.48000 133.998
63.52000 143.027
63.56000 140.901
63.60000 153.937
63.64000 150.500
63.68000 145.109
63.72000 149.903
63.76000 152.951
63.80000 139.098
63.84000 156.342
63.88000 152.239
63.92000 156.218
63.96000 156.772
64.00000 152.762
64.04000 155.735
64.08000 159.425
64.12000 154.988
64.16000 157.778
64.20000 151.432
64.24000 161.435
64.28000 148.654
64.32000 153.601
64.36000 158.775
64.40000 154.988
64.44000 155.320
64.48000 160.697
64.52000 166.934
64.56000 157.371
64.60000 161.137
64.64000 162.568
64.68000 171.060
64.72000 168.735
64.76000 167.610
64.80000 170.518
64.84000 177.557
64.88000 179.593
64.92000 178.943
64.96000 177.264
65.00000 175.079
65.04000 204.080
65.08000 198.730
65.12000 200.177
65.16000 210.512
65.20000 200.439
65.24000 208.842
65.28000 218.123
65.32000 239.770
65.36000 239.610
65.40000 263.513
65.44000 262.320
65.48000 272.339
65.52000 312.205
65.56000 297.658
65.60000 303.356
65.64000 344.126
65.68000 405.377
65.72000 488.876
65.76000 661.847
65.80000 826.646
65.84000 880.924
65.88000 899.892
65.92000 879.701
65.96000 758.486
66.00000 567.370
66.04000 400.082
66.08000 323.713
66.12000 293.214
66.16000 292.640
66.20000 261.773
66.24000 284.884
66.28000 336.080
66.32000 355.929
66.36000 376.282
66.40000 396.524
66.44000 403.297
66.48000 400.459
66.52000 368.850
66.56000 338.760
66.60000 311.660
66.64000 306.054
66.68000 319.945
66.72000 314.904
66.76000 314.771
66.80000 306.602
66.84000 309.076
66.88000 312.340
66.92000 331.712
66.96000 331.964
67.00000 324.518
67.04000 324.663
67.08000 314.926
67.12000 340.161
67.16000 345.724
67.20000 356.674
67.24000 363.118
67.28000 351.658
67.32000 369.289
67.36000 359.751
67.40000 375.470
67.44000 384.142
67.48000 380.790
67.52000 389.547
67.56000 423.572
67.60000 401.943
67.64000 419.491
67.68000 442.157
67.72000 445.533
67.76000 459.247
67.80000 467.807
67.84000 453.117
67.88000 467.806
67.92000 478.586
67.96000 496.876
68.00000 501.148
68.04000 505.669
68.08000 510.985
68.12000 515.740
68.16000 548.141
68.20000 555.515
68.24000 573.020
68.28000 584.066
68.32000 609.958
68.36000 612.109
68.40000 650.422
68.44000 696.662
68.48000 707.923
68.52000 745.171
68.56000 814.947
68.60000 870.655
68.64000 1024.976
68.68000 1185.280
68.72000 1368.574
68.76000 1540.677
68.80000 1748.625
68.84000 2021.468
68.88000 2373.542
68.92000 4143.138
68.96000 10000.614
69.00000 24411.668
69.04000 39854.891
69.08000 47655.961
69.12000 49000.938
69.16000 50702.699
69.20000 50984.414
69.24000 42801.664
69.28000 32589.027
69.32000 26795.164
69.36000 24223.650
69.40000 20120.740
69.44000 12278.337
69.48000 5639.583
69.52000 2607.695
69.56000 1674.327
69.60000 1339.093
69.64000 1147.645
69.68000 1009.559
69.72000 912.569
69.76000 872.996
69.80000 803.861
69.84000 752.568
69.88000 724.084
69.92000 676.079
69.96000 663.039
70.00000 651.568