File: XRD/XRD/30-09-2025 Dep 1/XY Data/BTO_Mapping_Theta2Theta_30-09-2025_001_01_0-000_0-000.xy
20.00000 566.421
20.04000 571.473
20.08000 576.633
20.12000 583.536
20.16000 570.570
20.20000 559.202
20.24000 557.537
20.28000 556.960
20.32000 554.377
20.36000 554.320
20.40000 593.848
20.44000 575.312
20.48000 553.720
20.52000 588.419
20.56000 571.236
20.60000 564.600
20.64000 554.895
20.68000 529.607
20.72000 543.137
20.76000 525.882
20.80000 558.153
20.84000 561.329
20.88000 554.560
20.92000 566.378
20.96000 548.850
21.00000 560.287
21.04000 570.739
21.08000 550.428
21.12000 570.699
21.16000 573.731
21.20000 565.339
21.24000 575.105
21.28000 532.504
21.32000 521.095
21.36000 543.766
21.40000 541.413
21.44000 561.376
21.48000 566.009
21.52000 556.260
21.56000 572.196
21.60000 545.103
21.64000 563.440
21.68000 590.900
21.72000 572.184
21.76000 589.881
21.80000 615.490
21.84000 628.006
21.88000 679.442
21.92000 703.940
21.96000 752.557
22.00000 782.519
22.04000 820.990
22.08000 792.254
22.12000 779.964
22.16000 744.501
22.20000 681.679
22.24000 655.350
22.28000 592.373
22.32000 576.300
22.36000 580.873
22.40000 552.792
22.44000 544.230
22.48000 528.357
22.52000 555.701
22.56000 556.136
22.60000 540.313
22.64000 535.215
22.68000 525.133
22.72000 531.269
22.76000 536.894
22.80000 531.123
22.84000 524.495
22.88000 533.848
22.92000 519.066
22.96000 505.723
23.00000 529.979
23.04000 506.028
23.08000 513.943
23.12000 524.745
23.16000 506.809
23.20000 508.853
23.24000 513.136
23.28000 530.828
23.32000 508.911
23.36000 504.117
23.40000 490.286
23.44000 516.194
23.48000 509.451
23.52000 498.825
23.56000 493.301
23.60000 510.975
23.64000 511.520
23.68000 511.607
23.72000 525.633
23.76000 500.106
23.80000 511.671
23.84000 502.514
23.88000 507.924
23.92000 494.527
23.96000 530.610
24.00000 500.735
24.04000 513.992
24.08000 526.744
24.12000 515.535
24.16000 517.130
24.20000 510.647
24.24000 491.440
24.28000 500.747
24.32000 506.973
24.36000 495.959
24.40000 504.668
24.44000 494.703
24.48000 494.305
24.52000 493.860
24.56000 507.551
24.60000 499.678
24.64000 497.902
24.68000 477.612
24.72000 496.293
24.76000 480.619
24.80000 495.631
24.84000 500.839
24.88000 496.427
24.92000 468.652
24.96000 483.484
25.00000 496.472
25.04000 484.791
25.08000 488.186
25.12000 487.882
25.16000 482.781
25.20000 466.444
25.24000 454.530
25.28000 475.581
25.32000 481.509
25.36000 480.481
25.40000 467.373
25.44000 454.270
25.48000 478.377
25.52000 496.010
25.56000 469.753
25.60000 463.847
25.64000 464.701
25.68000 482.024
25.72000 468.591
25.76000 472.981
25.80000 462.156
25.84000 440.756
25.88000 447.669
25.92000 445.933
25.96000 452.286
26.00000 452.437
26.04000 457.031
26.08000 480.807
26.12000 470.457
26.16000 471.703
26.20000 450.165
26.24000 465.296
26.28000 462.759
26.32000 473.102
26.36000 453.440
26.40000 482.380
26.44000 469.222
26.48000 471.823
26.52000 462.762
26.56000 465.639
26.60000 479.739
26.64000 444.935
26.68000 455.097
26.72000 450.875
26.76000 447.487
26.80000 445.302
26.84000 447.214
26.88000 450.285
26.92000 458.331
26.96000 446.398
27.00000 458.088
27.04000 448.452
27.08000 437.894
27.12000 465.930
27.16000 448.494
27.20000 455.789
27.24000 452.427
27.28000 456.429
27.32000 450.426
27.36000 451.711
27.40000 439.045
27.44000 424.356
27.48000 441.999
27.52000 435.736
27.56000 436.417
27.60000 444.485
27.64000 442.000
27.68000 427.384
27.72000 436.488
27.76000 437.123
27.80000 435.739
27.84000 453.870
27.88000 437.298
27.92000 430.889
27.96000 446.618
28.00000 432.792
28.04000 431.309
28.08000 438.779
28.12000 428.472
28.16000 445.252
28.20000 427.304
28.24000 456.310
28.28000 447.207
28.32000 432.797
28.36000 435.795
28.40000 438.728
28.44000 431.425
28.48000 419.412
28.52000 403.499
28.56000 413.279
28.60000 432.822
28.64000 410.046
28.68000 404.781
28.72000 430.804
28.76000 428.405
28.80000 434.125
28.84000 420.205
28.88000 438.560
28.92000 420.064
28.96000 432.503
29.00000 421.435
29.04000 424.264
29.08000 406.534
29.12000 409.123
29.16000 415.757
29.20000 404.366
29.24000 416.404
29.28000 415.908
29.32000 413.584
29.36000 416.877
29.40000 400.294
29.44000 406.204
29.48000 423.511
29.52000 409.370
29.56000 426.727
29.60000 424.157
29.64000 408.080
29.68000 417.552
29.72000 415.542
29.76000 412.179
29.80000 433.199
29.84000 426.727
29.88000 445.075
29.92000 454.038
29.96000 440.828
30.00000 477.063
30.04000 430.226
30.08000 443.921
30.12000 441.206
30.16000 463.217
30.20000 436.079
30.24000 427.713
30.28000 439.029
30.32000 428.511
30.36000 429.680
30.40000 438.569
30.44000 431.000
30.48000 442.438
30.52000 423.464
30.56000 433.006
30.60000 457.309
30.64000 451.661
30.68000 454.464
30.72000 439.730
30.76000 467.039
30.80000 466.397
30.84000 475.665
30.88000 511.599
30.92000 531.615
30.96000 537.419
31.00000 603.177
31.04000 679.802
31.08000 813.773
31.12000 1023.947
31.16000 1341.010
31.20000 1837.451
31.24000 2398.548
31.28000 2967.980
31.32000 3413.254
31.36000 3664.985
31.40000 3640.952
31.44000 3269.052
31.48000 2734.010
31.52000 2119.294
31.56000 1559.816
31.60000 1167.113
31.64000 862.080
31.68000 677.137
31.72000 577.810
31.76000 528.073
31.80000 493.127
31.84000 473.252
31.88000 462.562
31.92000 448.245
31.96000 423.272
32.00000 409.170
32.04000 431.268
32.08000 423.326
32.12000 396.181
32.16000 404.398
32.20000 413.404
32.24000 401.598
32.28000 402.767
32.32000 392.369
32.36000 408.167
32.40000 392.307
32.44000 390.622
32.48000 365.874
32.52000 380.884
32.56000 390.585
32.60000 388.260
32.64000 387.020
32.68000 381.449
32.72000 379.485
32.76000 368.234
32.80000 383.463
32.84000 384.945
32.88000 396.629
32.92000 423.416
32.96000 429.515
33.00000 440.672
33.04000 441.721
33.08000 415.872
33.12000 423.496
33.16000 392.820
33.20000 372.617
33.24000 337.087
33.28000 352.199
33.32000 355.301
33.36000 359.728
33.40000 353.745
33.44000 354.212
33.48000 332.927
33.52000 355.012
33.56000 358.427
33.60000 343.195
33.64000 349.861
33.68000 359.611
33.72000 334.674
33.76000 328.402
33.80000 334.206
33.84000 338.975
33.88000 344.334
33.92000 319.163
33.96000 341.710
34.00000 342.889
34.04000 337.929
34.08000 347.843
34.12000 337.382
34.16000 352.834
34.20000 336.264
34.24000 326.227
34.28000 328.739
34.32000 322.712
34.36000 333.358
34.40000 332.698
34.44000 338.083
34.48000 336.601
34.52000 333.410
34.56000 339.072
34.60000 317.830
34.64000 327.946
34.68000 327.106
34.72000 316.506
34.76000 319.249
34.80000 334.580
34.84000 324.954
34.88000 341.547
34.92000 317.187
34.96000 307.235
35.00000 320.893
35.04000 330.962
35.08000 336.741
35.12000 315.245
35.16000 326.489
35.20000 318.860
35.24000 316.118
35.28000 312.974
35.32000 329.130
35.36000 327.720
35.40000 309.712
35.44000 303.259
35.48000 310.627
35.52000 319.617
35.56000 306.784
35.60000 318.983
35.64000 308.394
35.68000 321.337
35.72000 317.310
35.76000 305.846
35.80000 315.443
35.84000 316.682
35.88000 294.741
35.92000 315.885
35.96000 312.548
36.00000 306.124
36.04000 287.982
36.08000 309.792
36.12000 304.491
36.16000 322.705
36.20000 302.764
36.24000 308.203
36.28000 300.526
36.32000 280.567
36.36000 294.272
36.40000 295.953
36.44000 296.948
36.48000 285.130
36.52000 308.371
36.56000 301.380
36.60000 304.177
36.64000 289.600
36.68000 306.162
36.72000 295.052
36.76000 285.553
36.80000 304.036
36.84000 305.501
36.88000 310.662
36.92000 309.180
36.96000 308.653
37.00000 307.778
37.04000 302.416
37.08000 284.558
37.12000 312.997
37.16000 297.283
37.20000 288.526
37.24000 294.292
37.28000 305.710
37.32000 291.159
37.36000 286.697
37.40000 295.179
37.44000 288.345
37.48000 298.749
37.52000 288.469
37.56000 299.906
37.60000 321.941
37.64000 300.070
37.68000 294.917
37.72000 290.543
37.76000 304.665
37.80000 303.232
37.84000 289.728
37.88000 295.813
37.92000 304.679
37.96000 299.506
38.00000 296.226
38.04000 292.396
38.08000 297.434
38.12000 287.041
38.16000 300.725
38.20000 322.836
38.24000 321.724
38.28000 307.824
38.32000 316.817
38.36000 344.221
38.40000 348.793
38.44000 390.122
38.48000 432.350
38.52000 496.408
38.56000 586.553
38.60000 681.568
38.64000 765.796
38.68000 812.954
38.72000 849.160
38.76000 818.345
38.80000 734.121
38.84000 663.083
38.88000 563.894
38.92000 470.227
38.96000 409.988
39.00000 365.488
39.04000 331.991
39.08000 296.345
39.12000 299.079
39.16000 295.961
39.20000 289.468
39.24000 292.873
39.28000 281.485
39.32000 280.943
39.36000 276.431
39.40000 273.014
39.44000 279.676
39.48000 264.629
39.52000 282.753
39.56000 274.833
39.60000 272.818
39.64000 272.568
39.68000 279.840
39.72000 270.316
39.76000 259.083
39.80000 265.668
39.84000 270.263
39.88000 274.673
39.92000 267.164
39.96000 270.168
40.00000 260.990
40.04000 262.482
40.08000 272.645
40.12000 262.283
40.16000 284.818
40.20000 259.226
40.24000 268.426
40.28000 264.152
40.32000 252.008
40.36000 256.065
40.40000 267.655
40.44000 250.499
40.48000 255.362
40.52000 266.287
40.56000 263.400
40.60000 256.863
40.64000 260.454
40.68000 258.110
40.72000 269.089
40.76000 258.666
40.80000 257.617
40.84000 255.731
40.88000 250.719
40.92000 248.814
40.96000 260.468
41.00000 237.085
41.04000 249.616
41.08000 244.696
41.12000 259.787
41.16000 244.567
41.20000 248.860
41.24000 257.668
41.28000 246.378
41.32000 240.451
41.36000 253.813
41.40000 257.305
41.44000 246.295
41.48000 232.545
41.52000 240.167
41.56000 248.071
41.60000 247.155
41.64000 244.557
41.68000 243.045
41.72000 248.369
41.76000 226.019
41.80000 236.071
41.84000 249.907
41.88000 247.739
41.92000 236.137
41.96000 233.151
42.00000 240.451
42.04000 234.561
42.08000 233.374
42.12000 233.689
42.16000 232.094
42.20000 239.919
42.24000 254.070
42.28000 231.282
42.32000 226.870
42.36000 231.433
42.40000 245.342
42.44000 237.134
42.48000 232.063
42.52000 233.050
42.56000 223.748
42.60000 233.883
42.64000 229.797
42.68000 226.071
42.72000 239.480
42.76000 235.635
42.80000 222.554
42.84000 229.015
42.88000 225.441
42.92000 239.334
42.96000 218.045
43.00000 237.146
43.04000 228.888
43.08000 234.197
43.12000 240.110
43.16000 237.878
43.20000 234.010
43.24000 228.394
43.28000 218.762
43.32000 224.871
43.36000 224.650
43.40000 213.582
43.44000 224.379
43.48000 236.133
43.52000 227.917
43.56000 234.784
43.60000 229.920
43.64000 224.485
43.68000 234.941
43.72000 210.218
43.76000 218.647
43.80000 213.636
43.84000 228.257
43.88000 218.323
43.92000 236.202
43.96000 221.614
44.00000 233.423
44.04000 227.370
44.08000 223.232
44.12000 211.875
44.16000 224.699
44.20000 229.757
44.24000 222.380
44.28000 228.250
44.32000 206.423
44.36000 231.957
44.40000 233.843
44.44000 227.351
44.48000 239.909
44.52000 242.647
44.56000 236.660
44.60000 241.833
44.64000 243.260
44.68000 250.034
44.72000 255.628
44.76000 263.346
44.80000 289.716
44.84000 297.681
44.88000 355.953
44.92000 399.870
44.96000 409.838
45.00000 443.358
45.04000 445.191
45.08000 471.425
45.12000 438.461
45.16000 434.142
45.20000 398.470
45.24000 350.839
45.28000 318.262
45.32000 302.201
45.36000 275.388
45.40000 267.083
45.44000 257.946
45.48000 239.629
45.52000 239.788
45.56000 244.292
45.60000 218.754
45.64000 217.449
45.68000 229.851
45.72000 218.820
45.76000 222.443
45.80000 202.506
45.84000 222.720
45.88000 199.945
45.92000 221.345
45.96000 216.911
46.00000 217.493
46.04000 213.781
46.08000 203.861
46.12000 211.341
46.16000 208.658
46.20000 197.127
46.24000 197.999
46.28000 209.765
46.32000 216.130
46.36000 210.772
46.40000 200.747
46.44000 205.043
46.48000 208.986
46.52000 203.145
46.56000 205.756
46.60000 199.521
46.64000 191.743
46.68000 190.806
46.72000 204.788
46.76000 203.522
46.80000 209.014
46.84000 202.384
46.88000 201.210
46.92000 200.608
46.96000 195.110
47.00000 196.864
47.04000 201.080
47.08000 197.832
47.12000 196.711
47.16000 198.044
47.20000 196.948
47.24000 189.812
47.28000 201.945
47.32000 203.977
47.36000 203.347
47.40000 206.146
47.44000 192.250
47.48000 192.544
47.52000 192.046
47.56000 182.894
47.60000 179.945
47.64000 196.941
47.68000 200.040
47.72000 185.842
47.76000 187.548
47.80000 188.747
47.84000 187.499
47.88000 189.503
47.92000 187.434
47.96000 194.221
48.00000 182.910
48.04000 190.525
48.08000 184.914
48.12000 190.404
48.16000 185.269
48.20000 183.897
48.24000 187.062
48.28000 185.609
48.32000 183.644
48.36000 191.345
48.40000 185.123
48.44000 182.995
48.48000 189.981
48.52000 185.184
48.56000 201.770
48.60000 191.681
48.64000 180.481
48.68000 179.298
48.72000 190.269
48.76000 186.361
48.80000 183.274
48.84000 183.088
48.88000 182.666
48.92000 176.661
48.96000 179.313
49.00000 188.984
49.04000 190.430
49.08000 186.228
49.12000 184.429
49.16000 171.229
49.20000 183.582
49.24000 183.127
49.28000 188.014
49.32000 181.586
49.36000 173.882
49.40000 178.344
49.44000 179.596
49.48000 181.172
49.52000 180.095
49.56000 180.601
49.60000 189.628
49.64000 161.367
49.68000 175.714
49.72000 185.200
49.76000 180.338
49.80000 189.830
49.84000 185.327
49.88000 183.426
49.92000 176.372
49.96000 166.173
50.00000 172.388
50.04000 169.691
50.08000 181.606
50.12000 189.301
50.16000 176.805
50.20000 167.585
50.24000 173.393
50.28000 177.808
50.32000 190.067
50.36000 197.385
50.40000 192.154
50.44000 209.690
50.48000 226.610
50.52000 218.182
50.56000 252.286
50.60000 260.588
50.64000 284.302
50.68000 270.754
50.72000 276.595
50.76000 280.140
50.80000 275.386
50.84000 225.315
50.88000 224.413
50.92000 215.637
50.96000 226.185
51.00000 198.280
51.04000 184.573
51.08000 187.675
51.12000 178.910
51.16000 179.480
51.20000 163.522
51.24000 174.621
51.28000 179.400
51.32000 168.964
51.36000 175.307
51.40000 158.160
51.44000 160.204
51.48000 187.510
51.52000 177.731
51.56000 173.568
51.60000 168.074
51.64000 175.927
51.68000 162.935
51.72000 169.174
51.76000 163.661
51.80000 156.140
51.84000 166.451
51.88000 172.847
51.92000 173.907
51.96000 164.705
52.00000 169.270
52.04000 161.976
52.08000 169.176
52.12000 170.643
52.16000 172.700
52.20000 167.666
52.24000 160.210
52.28000 164.653
52.32000 156.802
52.36000 164.015
52.40000 153.782
52.44000 168.760
52.48000 171.398
52.52000 158.878
52.56000 160.202
52.60000 166.378
52.64000 162.092
52.68000 155.703
52.72000 161.724
52.76000 166.167
52.80000 163.772
52.84000 164.479
52.88000 161.975
52.92000 156.461
52.96000 161.182
53.00000 153.663
53.04000 182.655
53.08000 150.888
53.12000 154.462
53.16000 158.407
53.20000 164.485
53.24000 153.268
53.28000 157.446
53.32000 165.418
53.36000 167.307
53.40000 161.549
53.44000 169.697
53.48000 170.767
53.52000 176.020
53.56000 139.355
53.60000 155.593
53.64000 158.430
53.68000 150.440
53.72000 154.606
53.76000 153.509
53.80000 158.440
53.84000 148.039
53.88000 160.670
53.92000 156.636
53.96000 161.779
54.00000 152.352
54.04000 157.482
54.08000 151.529
54.12000 155.404
54.16000 159.456
54.20000 165.567
54.24000 153.082
54.28000 153.531
54.32000 151.151
54.36000 155.011
54.40000 150.751
54.44000 154.783
54.48000 163.310
54.52000 158.800
54.56000 155.404
54.60000 154.387
54.64000 162.869
54.68000 159.088
54.72000 159.300
54.76000 162.053
54.80000 146.675
54.84000 146.222
54.88000 168.341
54.92000 167.033
54.96000 162.635
55.00000 163.544
55.04000 164.230
55.08000 155.176
55.12000 170.366
55.16000 160.385
55.20000 172.263
55.24000 160.828
55.28000 173.400
55.32000 164.278
55.36000 173.173
55.40000 173.515
55.44000 181.571
55.48000 192.013
55.52000 193.885
55.56000 218.124
55.60000 243.320
55.64000 282.901
55.68000 320.138
55.72000 371.395
55.76000 419.560
55.80000 498.106
55.84000 595.533
55.88000 648.733
55.92000 627.868
55.96000 667.810
56.00000 620.390
56.04000 565.249
56.08000 503.906
56.12000 412.470
56.16000 351.724
56.20000 303.808
56.24000 276.394
56.28000 225.666
56.32000 214.488
56.36000 195.166
56.40000 174.508
56.44000 183.523
56.48000 164.201
56.52000 163.179
56.56000 163.513
56.60000 155.477
56.64000 173.498
56.68000 157.077
56.72000 155.829
56.76000 159.043
56.80000 157.009
56.84000 150.990
56.88000 138.149
56.92000 146.092
56.96000 141.009
57.00000 139.484
57.04000 141.957
57.08000 147.787
57.12000 149.339
57.16000 144.315
57.20000 151.453
57.24000 144.134
57.28000 136.955
57.32000 150.512
57.36000 147.743
57.40000 137.506
57.44000 161.045
57.48000 145.502
57.52000 139.437
57.56000 130.301
57.60000 131.543
57.64000 139.481
57.68000 145.918
57.72000 142.316
57.76000 140.450
57.80000 151.717
57.84000 144.363
57.88000 144.119
57.92000 146.333
57.96000 146.829
58.00000 143.326
58.04000 146.141
58.08000 135.495
58.12000 133.387
58.16000 150.174
58.20000 150.964
58.24000 140.663
58.28000 148.081
58.32000 148.076
58.36000 140.159
58.40000 140.712
58.44000 134.282
58.48000 120.175
58.52000 141.238
58.56000 136.083
58.60000 141.226
58.64000 136.432
58.68000 141.195
58.72000 131.835
58.76000 134.564
58.80000 134.939
58.84000 137.657
58.88000 134.441
58.92000 131.077
58.96000 136.484
59.00000 135.849
59.04000 142.008
59.08000 135.728
59.12000 137.378
59.16000 136.958
59.20000 143.483
59.24000 137.008
59.28000 136.135
59.32000 127.661
59.36000 134.897
59.40000 132.734
59.44000 140.086
59.48000 132.884
59.52000 132.210
59.56000 128.393
59.60000 127.911
59.64000 144.413
59.68000 129.577
59.72000 132.525
59.76000 133.885
59.80000 135.040
59.84000 137.351
59.88000 132.862
59.92000 142.991
59.96000 124.271
60.00000 130.225
60.04000 129.680
60.08000 137.574
60.12000 137.216
60.16000 132.926
60.20000 140.986
60.24000 144.946
60.28000 135.817
60.32000 137.636
60.36000 140.433
60.40000 132.159
60.44000 132.033
60.48000 133.223
60.52000 142.584
60.56000 137.635
60.60000 143.815
60.64000 142.089
60.68000 128.843
60.72000 123.019
60.76000 135.469
60.80000 136.327
60.84000 135.677
60.88000 143.072
60.92000 131.469
60.96000 134.813
61.00000 138.155
61.04000 137.399
61.08000 141.707
61.12000 137.666
61.16000 145.645
61.20000 131.221
61.24000 142.087
61.28000 139.643
61.32000 125.897
61.36000 133.989
61.40000 144.213
61.44000 146.690
61.48000 154.716
61.52000 169.242
61.56000 220.461
61.60000 264.269
61.64000 287.600
61.68000 317.438
61.72000 305.349
61.76000 308.769
61.80000 253.523
61.84000 189.504
61.88000 162.040
61.92000 157.692
61.96000 155.927
62.00000 146.024
62.04000 149.143
62.08000 143.070
62.12000 142.244
62.16000 153.926
62.20000 140.354
62.24000 132.829
62.28000 147.661
62.32000 135.155
62.36000 146.738
62.40000 143.456
62.44000 149.190
62.48000 141.141
62.52000 141.531
62.56000 154.356
62.60000 149.170
62.64000 143.784
62.68000 142.374
62.72000 142.744
62.76000 147.617
62.80000 147.876
62.84000 149.695
62.88000 150.500
62.92000 146.138
62.96000 154.020
63.00000 154.534
63.04000 144.677
63.08000 147.327
63.12000 151.840
63.16000 164.605
63.20000 153.447
63.24000 142.957
63.28000 146.073
63.32000 150.271
63.36000 164.856
63.40000 147.094
63.44000 146.223
63.48000 152.050
63.52000 153.426
63.56000 159.767
63.60000 157.628
63.64000 147.519
63.68000 154.749
63.72000 150.130
63.76000 160.250
63.80000 161.350
63.84000 156.611
63.88000 155.156
63.92000 163.114
63.96000 169.611
64.00000 156.494
64.04000 160.950
64.08000 153.620
64.12000 157.588
64.16000 145.815
64.20000 161.595
64.24000 169.554
64.28000 166.672
64.32000 178.509
64.36000 162.500
64.40000 154.552
64.44000 159.261
64.48000 167.791
64.52000 172.927
64.56000 172.348
64.60000 179.542
64.64000 173.952
64.68000 177.982
64.72000 183.930
64.76000 178.284
64.80000 185.063
64.84000 178.323
64.88000 179.276
64.92000 185.255
64.96000 197.332
65.00000 196.214
65.04000 206.695
65.08000 196.126
65.12000 204.237
65.16000 242.707
65.20000 239.869
65.24000 254.738
65.28000 275.904
65.32000 307.803
65.36000 331.472
65.40000 358.705
65.44000 388.673
65.48000 417.639
65.52000 430.553
65.56000 443.080
65.60000 470.461
65.64000 500.578
65.68000 536.987
65.72000 697.713
65.76000 911.921
65.80000 1124.230
65.84000 1272.642
65.88000 1276.536
65.92000 1219.346
65.96000 1060.771
66.00000 768.472
66.04000 506.074
66.08000 397.878
66.12000 334.955
66.16000 320.279
66.20000 313.458
66.24000 316.578
66.28000 342.753
66.32000 410.988
66.36000 494.909
66.40000 482.095
66.44000 504.057
66.48000 503.582
66.52000 465.580
66.56000 374.906
66.60000 336.207
66.64000 336.848
66.68000 321.829
66.72000 326.107
66.76000 322.437
66.80000 337.768
66.84000 357.228
66.88000 355.777
66.92000 351.958
66.96000 356.352
67.00000 372.645
67.04000 379.298
67.08000 371.624
67.12000 367.014
67.16000 378.972
67.20000 393.772
67.24000 392.575
67.28000 407.382
67.32000 426.338
67.36000 421.884
67.40000 417.272
67.44000 433.411
67.48000 445.697
67.52000 459.069
67.56000 458.004
67.60000 473.925
67.64000 476.580
67.68000 493.618
67.72000 490.586
67.76000 499.541
67.80000 520.490
67.84000 546.083
67.88000 525.772
67.92000 530.641
67.96000 526.200
68.00000 547.743
68.04000 586.469
68.08000 597.643
68.12000 607.029
68.16000 609.545
68.20000 632.962
68.24000 661.507
68.28000 686.239
68.32000 693.915
68.36000 714.765
68.40000 737.527
68.44000 772.370
68.48000 814.468
68.52000 859.010
68.56000 944.400
68.60000 1060.606
68.64000 1240.985
68.68000 1489.269
68.72000 1748.294
68.76000 1994.915
68.80000 2292.210
68.84000 2616.182
68.88000 3139.976
68.92000 5947.120
68.96000 15002.197
69.00000 36398.133
69.04000 59202.309
69.08000 71156.352
69.12000 72804.711
69.16000 75717.695
69.20000 75845.602
69.24000 63710.559
69.28000 48747.941
69.32000 39906.336
69.36000 35883.477
69.40000 29702.043
69.44000 17961.725
69.48000 8207.859
69.52000 3619.729
69.56000 2175.604
69.60000 1683.786
69.64000 1449.276
69.68000 1254.215
69.72000 1126.127
69.76000 1033.725
69.80000 933.603
69.84000 894.759
69.88000 848.821
69.92000 823.680
69.96000 778.129
70.00000 742.678