File: XRD/XRD/30-09-2025 Dep 1/XY Data/BTO_Mapping_Theta2Theta_30-09-2025_001_33_-39-126_8-316.xy
20.00000 571.883
20.04000 562.067
20.08000 571.497
20.12000 574.985
20.16000 570.654
20.20000 559.027
20.24000 570.927
20.28000 568.275
20.32000 550.109
20.36000 559.094
20.40000 566.635
20.44000 538.870
20.48000 551.670
20.52000 556.789
20.56000 548.183
20.60000 541.053
20.64000 558.460
20.68000 571.828
20.72000 555.819
20.76000 545.817
20.80000 550.016
20.84000 541.331
20.88000 548.771
20.92000 553.959
20.96000 566.874
21.00000 558.106
21.04000 556.535
21.08000 550.757
21.12000 553.412
21.16000 522.140
21.20000 547.263
21.24000 522.372
21.28000 543.508
21.32000 545.412
21.36000 539.199
21.40000 555.601
21.44000 558.193
21.48000 541.748
21.52000 531.208
21.56000 545.953
21.60000 533.714
21.64000 549.905
21.68000 550.182
21.72000 560.693
21.76000 539.960
21.80000 561.799
21.84000 587.864
21.88000 580.442
21.92000 584.802
21.96000 599.861
22.00000 631.740
22.04000 641.565
22.08000 641.822
22.12000 647.948
22.16000 633.866
22.20000 628.330
22.24000 619.216
22.28000 585.211
22.32000 580.185
22.36000 547.788
22.40000 560.107
22.44000 559.115
22.48000 534.969
22.52000 554.759
22.56000 537.095
22.60000 539.794
22.64000 525.793
22.68000 513.147
22.72000 510.549
22.76000 540.610
22.80000 532.877
22.84000 516.210
22.88000 523.894
22.92000 506.093
22.96000 495.365
23.00000 504.218
23.04000 513.198
23.08000 512.171
23.12000 501.511
23.16000 503.840
23.20000 502.064
23.24000 519.392
23.28000 521.237
23.32000 502.776
23.36000 509.267
23.40000 518.775
23.44000 502.786
23.48000 515.437
23.52000 516.623
23.56000 501.460
23.60000 506.233
23.64000 518.238
23.68000 494.751
23.72000 490.690
23.76000 515.583
23.80000 507.924
23.84000 528.794
23.88000 524.978
23.92000 528.778
23.96000 507.320
24.00000 520.515
24.04000 512.457
24.08000 524.147
24.12000 524.628
24.16000 527.835
24.20000 539.004
24.24000 518.374
24.28000 509.245
24.32000 510.734
24.36000 507.646
24.40000 501.024
24.44000 493.371
24.48000 490.654
24.52000 488.693
24.56000 484.607
24.60000 493.427
24.64000 476.038
24.68000 483.415
24.72000 480.157
24.76000 474.405
24.80000 480.285
24.84000 492.259
24.88000 489.344
24.92000 471.046
24.96000 447.808
25.00000 480.813
25.04000 483.097
25.08000 477.896
25.12000 470.830
25.16000 472.973
25.20000 457.937
25.24000 466.996
25.28000 490.519
25.32000 471.525
25.36000 476.806
25.40000 452.434
25.44000 467.520
25.48000 455.276
25.52000 456.817
25.56000 458.347
25.60000 479.345
25.64000 460.071
25.68000 454.173
25.72000 474.484
25.76000 459.185
25.80000 477.612
25.84000 470.971
25.88000 436.019
25.92000 467.323
25.96000 448.071
26.00000 453.430
26.04000 450.078
26.08000 436.213
26.12000 447.138
26.16000 445.360
26.20000 447.827
26.24000 464.645
26.28000 463.753
26.32000 458.413
26.36000 469.823
26.40000 463.114
26.44000 452.716
26.48000 469.230
26.52000 455.993
26.56000 456.795
26.60000 459.160
26.64000 457.955
26.68000 435.724
26.72000 420.641
26.76000 460.453
26.80000 471.751
26.84000 475.400
26.88000 445.057
26.92000 449.855
26.96000 445.130
27.00000 447.068
27.04000 432.242
27.08000 447.431
27.12000 450.367
27.16000 434.289
27.20000 425.473
27.24000 457.830
27.28000 447.973
27.32000 432.444
27.36000 443.515
27.40000 437.500
27.44000 447.000
27.48000 435.964
27.52000 449.342
27.56000 421.044
27.60000 440.955
27.64000 425.417
27.68000 446.834
27.72000 440.894
27.76000 415.832
27.80000 433.572
27.84000 429.690
27.88000 429.145
27.92000 424.929
27.96000 432.935
28.00000 408.796
28.04000 412.222
28.08000 433.980
28.12000 429.556
28.16000 429.903
28.20000 453.372
28.24000 430.568
28.28000 410.654
28.32000 442.742
28.36000 432.624
28.40000 422.059
28.44000 412.226
28.48000 439.731
28.52000 425.551
28.56000 433.782
28.60000 423.490
28.64000 414.511
28.68000 414.986
28.72000 428.564
28.76000 433.588
28.80000 395.876
28.84000 423.307
28.88000 426.586
28.92000 397.490
28.96000 409.875
29.00000 410.752
29.04000 417.568
29.08000 430.604
29.12000 426.679
29.16000 409.060
29.20000 405.813
29.24000 420.882
29.28000 430.807
29.32000 417.918
29.36000 398.367
29.40000 415.634
29.44000 416.966
29.48000 395.421
29.52000 394.478
29.56000 413.052
29.60000 406.913
29.64000 415.800
29.68000 414.122
29.72000 396.762
29.76000 413.351
29.80000 416.192
29.84000 425.329
29.88000 398.808
29.92000 432.834
29.96000 415.415
30.00000 431.059
30.04000 433.682
30.08000 414.586
30.12000 431.836
30.16000 452.465
30.20000 433.577
30.24000 410.602
30.28000 421.250
30.32000 405.199
30.36000 426.989
30.40000 409.041
30.44000 405.009
30.48000 422.223
30.52000 413.411
30.56000 424.043
30.60000 410.789
30.64000 403.228
30.68000 411.092
30.72000 425.274
30.76000 420.748
30.80000 434.482
30.84000 433.920
30.88000 445.499
30.92000 454.757
30.96000 468.979
31.00000 463.318
31.04000 485.693
31.08000 552.659
31.12000 624.603
31.16000 720.402
31.20000 913.124
31.24000 1163.262
31.28000 1444.335
31.32000 1804.121
31.36000 2114.769
31.40000 2239.069
31.44000 2270.045
31.48000 2129.978
31.52000 1849.532
31.56000 1543.710
31.60000 1222.261
31.64000 938.693
31.68000 734.887
31.72000 602.427
31.76000 544.862
31.80000 476.849
31.84000 447.203
31.88000 434.813
31.92000 410.309
31.96000 404.276
32.00000 419.142
32.04000 404.173
32.08000 396.603
32.12000 375.667
32.16000 389.702
32.20000 387.367
32.24000 400.904
32.28000 389.139
32.32000 395.479
32.36000 394.411
32.40000 392.847
32.44000 398.865
32.48000 391.019
32.52000 392.480
32.56000 372.632
32.60000 384.301
32.64000 380.039
32.68000 374.893
32.72000 381.580
32.76000 372.082
32.80000 370.392
32.84000 391.133
32.88000 362.366
32.92000 378.376
32.96000 381.745
33.00000 379.660
33.04000 409.868
33.08000 394.924
33.12000 383.751
33.16000 368.474
33.20000 368.929
33.24000 361.286
33.28000 362.473
33.32000 346.891
33.36000 344.677
33.40000 353.045
33.44000 361.674
33.48000 352.419
33.52000 342.453
33.56000 337.014
33.60000 344.992
33.64000 343.827
33.68000 352.912
33.72000 339.372
33.76000 340.383
33.80000 336.677
33.84000 343.244
33.88000 328.108
33.92000 352.394
33.96000 355.936
34.00000 350.432
34.04000 345.817
34.08000 342.705
34.12000 355.772
34.16000 365.427
34.20000 337.227
34.24000 361.733
34.28000 355.717
34.32000 349.446
34.36000 367.703
34.40000 360.265
34.44000 355.636
34.48000 356.847
34.52000 363.810
34.56000 362.250
34.60000 350.880
34.64000 351.661
34.68000 340.395
34.72000 356.506
34.76000 343.191
34.80000 341.813
34.84000 323.937
34.88000 326.429
34.92000 343.028
34.96000 332.868
35.00000 332.314
35.04000 328.384
35.08000 315.841
35.12000 334.834
35.16000 320.541
35.20000 302.946
35.24000 328.293
35.28000 319.199
35.32000 319.118
35.36000 310.438
35.40000 310.912
35.44000 318.872
35.48000 311.125
35.52000 311.066
35.56000 310.884
35.60000 306.493
35.64000 315.430
35.68000 314.886
35.72000 304.138
35.76000 306.864
35.80000 306.552
35.84000 284.242
35.88000 295.891
35.92000 293.543
35.96000 324.271
36.00000 307.547
36.04000 311.804
36.08000 311.866
36.12000 315.771
36.16000 314.977
36.20000 296.085
36.24000 289.531
36.28000 308.460
36.32000 305.330
36.36000 311.440
36.40000 298.380
36.44000 306.911
36.48000 291.987
36.52000 293.924
36.56000 303.535
36.60000 296.205
36.64000 294.710
36.68000 308.013
36.72000 294.082
36.76000 302.029
36.80000 294.247
36.84000 308.561
36.88000 285.166
36.92000 299.272
36.96000 313.663
37.00000 299.224
37.04000 307.854
37.08000 317.053
37.12000 307.035
37.16000 301.632
37.20000 288.301
37.24000 302.456
37.28000 307.879
37.32000 283.332
37.36000 302.443
37.40000 292.714
37.44000 299.245
37.48000 291.371
37.52000 305.035
37.56000 299.042
37.60000 300.950
37.64000 295.298
37.68000 279.036
37.72000 295.461
37.76000 284.213
37.80000 281.082
37.84000 291.112
37.88000 280.690
37.92000 281.411
37.96000 294.703
38.00000 291.873
38.04000 282.904
38.08000 284.653
38.12000 305.782
38.16000 300.548
38.20000 296.866
38.24000 294.449
38.28000 306.745
38.32000 303.431
38.36000 322.556
38.40000 353.452
38.44000 349.054
38.48000 372.498
38.52000 440.290
38.56000 528.112
38.60000 639.997
38.64000 779.455
38.68000 915.853
38.72000 1039.600
38.76000 1077.924
38.80000 1101.371
38.84000 1041.987
38.88000 948.697
38.92000 787.266
38.96000 653.718
39.00000 535.443
39.04000 436.215
39.08000 368.100
39.12000 329.258
39.16000 304.223
39.20000 287.766
39.24000 294.241
39.28000 297.783
39.32000 289.130
39.36000 293.837
39.40000 283.604
39.44000 273.744
39.48000 279.966
39.52000 286.089
39.56000 275.806
39.60000 264.098
39.64000 276.988
39.68000 273.667
39.72000 272.301
39.76000 270.609
39.80000 270.897
39.84000 274.791
39.88000 279.925
39.92000 270.995
39.96000 278.893
40.00000 263.535
40.04000 262.769
40.08000 258.644
40.12000 259.970
40.16000 254.236
40.20000 267.564
40.24000 259.737
40.28000 249.817
40.32000 249.824
40.36000 266.367
40.40000 236.988
40.44000 250.864
40.48000 262.734
40.52000 267.580
40.56000 258.744
40.60000 246.652
40.64000 240.361
40.68000 243.949
40.72000 244.670
40.76000 240.260
40.80000 252.195
40.84000 245.264
40.88000 261.300
40.92000 245.186
40.96000 240.330
41.00000 261.815
41.04000 264.292
41.08000 244.663
41.12000 242.817
41.16000 238.155
41.20000 241.857
41.24000 245.386
41.28000 257.486
41.32000 243.419
41.36000 232.720
41.40000 244.990
41.44000 252.346
41.48000 239.477
41.52000 247.112
41.56000 251.565
41.60000 239.391
41.64000 247.898
41.68000 235.972
41.72000 246.601
41.76000 250.957
41.80000 251.023
41.84000 236.989
41.88000 250.514
41.92000 238.846
41.96000 239.605
42.00000 244.141
42.04000 246.075
42.08000 258.805
42.12000 242.864
42.16000 252.579
42.20000 238.204
42.24000 243.248
42.28000 248.830
42.32000 229.399
42.36000 226.694
42.40000 251.889
42.44000 240.723
42.48000 252.431
42.52000 230.671
42.56000 247.686
42.60000 240.999
42.64000 253.710
42.68000 222.175
42.72000 228.598
42.76000 233.468
42.80000 225.926
42.84000 231.076
42.88000 256.859
42.92000 242.438
42.96000 225.463
43.00000 216.091
43.04000 245.066
43.08000 242.031
43.12000 228.203
43.16000 228.560
43.20000 226.483
43.24000 222.122
43.28000 223.670
43.32000 222.743
43.36000 222.388
43.40000 222.421
43.44000 226.102
43.48000 216.351
43.52000 226.913
43.56000 221.210
43.60000 233.085
43.64000 220.904
43.68000 236.451
43.72000 241.110
43.76000 231.098
43.80000 228.465
43.84000 222.808
43.88000 211.889
43.92000 218.464
43.96000 226.797
44.00000 223.603
44.04000 219.422
44.08000 226.012
44.12000 211.145
44.16000 226.618
44.20000 219.656
44.24000 226.628
44.28000 228.930
44.32000 216.525
44.36000 222.569
44.40000 232.900
44.44000 216.836
44.48000 223.310
44.52000 220.685
44.56000 231.788
44.60000 226.098
44.64000 233.167
44.68000 244.629
44.72000 233.350
44.76000 233.667
44.80000 245.414
44.84000 255.878
44.88000 250.783
44.92000 256.306
44.96000 260.920
45.00000 274.846
45.04000 297.063
45.08000 292.789
45.12000 298.516
45.16000 314.993
45.20000 292.858
45.24000 293.446
45.28000 290.492
45.32000 271.571
45.36000 270.313
45.40000 251.682
45.44000 245.831
45.48000 235.741
45.52000 230.643
45.56000 222.954
45.60000 225.146
45.64000 214.328
45.68000 213.955
45.72000 224.194
45.76000 215.435
45.80000 213.213
45.84000 214.038
45.88000 204.980
45.92000 208.157
45.96000 201.041
46.00000 197.208
46.04000 207.434
46.08000 209.065
46.12000 204.144
46.16000 215.133
46.20000 201.572
46.24000 203.296
46.28000 211.451
46.32000 199.744
46.36000 200.717
46.40000 211.621
46.44000 202.626
46.48000 199.573
46.52000 204.078
46.56000 205.078
46.60000 210.454
46.64000 203.429
46.68000 205.051
46.72000 208.154
46.76000 195.257
46.80000 213.236
46.84000 207.831
46.88000 195.567
46.92000 203.326
46.96000 209.715
47.00000 197.947
47.04000 219.399
47.08000 197.642
47.12000 210.408
47.16000 214.921
47.20000 194.003
47.24000 194.180
47.28000 194.811
47.32000 184.638
47.36000 192.561
47.40000 180.962
47.44000 182.230
47.48000 184.207
47.52000 186.312
47.56000 194.859
47.60000 180.074
47.64000 187.918
47.68000 197.684
47.72000 180.804
47.76000 181.464
47.80000 186.643
47.84000 191.759
47.88000 172.771
47.92000 172.285
47.96000 176.625
48.00000 187.510
48.04000 190.044
48.08000 181.231
48.12000 190.628
48.16000 186.944
48.20000 190.049
48.24000 185.988
48.28000 177.341
48.32000 182.007
48.36000 183.737
48.40000 188.677
48.44000 181.650
48.48000 177.837
48.52000 189.496
48.56000 176.015
48.60000 180.233
48.64000 184.535
48.68000 183.868
48.72000 183.627
48.76000 178.421
48.80000 177.433
48.84000 189.669
48.88000 184.016
48.92000 184.318
48.96000 184.643
49.00000 172.867
49.04000 177.961
49.08000 191.197
49.12000 190.787
49.16000 189.461
49.20000 177.836
49.24000 170.374
49.28000 182.118
49.32000 177.962
49.36000 177.204
49.40000 181.071
49.44000 181.772
49.48000 179.552
49.52000 170.918
49.56000 177.128
49.60000 167.082
49.64000 167.492
49.68000 172.542
49.72000 179.411
49.76000 177.610
49.80000 173.001
49.84000 168.224
49.88000 166.826
49.92000 163.465
49.96000 178.383
50.00000 172.915
50.04000 176.298
50.08000 172.305
50.12000 185.458
50.16000 178.334
50.20000 190.598
50.24000 178.369
50.28000 173.674
50.32000 184.489
50.36000 178.160
50.40000 184.783
50.44000 183.976
50.48000 192.205
50.52000 201.564
50.56000 201.978
50.60000 220.777
50.64000 205.294
50.68000 221.034
50.72000 229.551
50.76000 224.517
50.80000 230.082
50.84000 215.721
50.88000 212.889
50.92000 211.118
50.96000 212.535
51.00000 194.744
51.04000 185.796
51.08000 166.563
51.12000 175.545
51.16000 182.490
51.20000 167.020
51.24000 167.135
51.28000 166.310
51.32000 170.649
51.36000 160.846
51.40000 170.587
51.44000 156.534
51.48000 165.331
51.52000 161.426
51.56000 172.276
51.60000 166.678
51.64000 158.026
51.68000 182.357
51.72000 157.732
51.76000 163.561
51.80000 157.730
51.84000 162.836
51.88000 171.061
51.92000 165.718
51.96000 160.094
52.00000 143.721
52.04000 167.161
52.08000 172.643
52.12000 169.948
52.16000 157.498
52.20000 159.435
52.24000 164.676
52.28000 162.513
52.32000 166.498
52.36000 162.618
52.40000 153.613
52.44000 159.000
52.48000 152.804
52.52000 151.237
52.56000 155.330
52.60000 150.674
52.64000 165.721
52.68000 160.935
52.72000 151.888
52.76000 164.423
52.80000 164.452
52.84000 165.268
52.88000 157.860
52.92000 157.148
52.96000 154.747
53.00000 163.724
53.04000 158.049
53.08000 167.312
53.12000 152.151
53.16000 156.838
53.20000 162.780
53.24000 170.893
53.28000 158.329
53.32000 162.656
53.36000 157.383
53.40000 160.869
53.44000 161.605
53.48000 160.743
53.52000 168.443
53.56000 167.529
53.60000 161.330
53.64000 158.011
53.68000 167.943
53.72000 153.738
53.76000 166.093
53.80000 158.252
53.84000 158.019
53.88000 155.533
53.92000 154.000
53.96000 147.882
54.00000 152.684
54.04000 172.024
54.08000 157.589
54.12000 153.779
54.16000 161.096
54.20000 155.487
54.24000 148.372
54.28000 157.345
54.32000 159.163
54.36000 157.569
54.40000 164.666
54.44000 164.766
54.48000 164.028
54.52000 161.807
54.56000 152.149
54.60000 154.477
54.64000 149.053
54.68000 143.177
54.72000 158.939
54.76000 161.808
54.80000 152.212
54.84000 152.193
54.88000 142.482
54.92000 158.973
54.96000 162.573
55.00000 154.988
55.04000 149.507
55.08000 157.206
55.12000 158.411
55.16000 160.544
55.20000 169.504
55.24000 155.895
55.28000 166.266
55.32000 163.807
55.36000 171.689
55.40000 180.777
55.44000 175.736
55.48000 176.246
55.52000 180.724
55.56000 183.396
55.60000 214.628
55.64000 226.656
55.68000 253.586
55.72000 302.165
55.76000 343.793
55.80000 386.185
55.84000 458.617
55.88000 521.453
55.92000 554.021
55.96000 595.922
56.00000 614.098
56.04000 594.258
56.08000 575.044
56.12000 520.483
56.16000 466.985
56.20000 401.839
56.24000 342.576
56.28000 306.368
56.32000 253.531
56.36000 233.549
56.40000 207.710
56.44000 193.457
56.48000 185.358
56.52000 178.981
56.56000 174.215
56.60000 168.211
56.64000 159.100
56.68000 160.695
56.72000 162.263
56.76000 149.420
56.80000 149.593
56.84000 156.790
56.88000 155.523
56.92000 144.304
56.96000 150.475
57.00000 150.070
57.04000 148.555
57.08000 140.017
57.12000 145.671
57.16000 142.623
57.20000 148.690
57.24000 138.290
57.28000 148.103
57.32000 149.086
57.36000 140.685
57.40000 143.325
57.44000 146.708
57.48000 145.772
57.52000 145.024
57.56000 131.321
57.60000 136.478
57.64000 152.502
57.68000 136.287
57.72000 145.024
57.76000 145.358
57.80000 141.135
57.84000 142.400
57.88000 153.113
57.92000 133.211
57.96000 135.458
58.00000 132.222
58.04000 152.644
58.08000 139.349
58.12000 144.477
58.16000 145.347
58.20000 134.044
58.24000 140.529
58.28000 135.257
58.32000 137.083
58.36000 134.853
58.40000 137.898
58.44000 143.978
58.48000 128.936
58.52000 127.519
58.56000 144.848
58.60000 138.482
58.64000 142.514
58.68000 131.985
58.72000 135.695
58.76000 133.712
58.80000 148.239
58.84000 136.200
58.88000 135.145
58.92000 130.182
58.96000 130.021
59.00000 138.872
59.04000 135.911
59.08000 136.339
59.12000 146.153
59.16000 141.572
59.20000 137.944
59.24000 141.343
59.28000 127.693
59.32000 131.331
59.36000 124.376
59.40000 127.756
59.44000 132.730
59.48000 140.288
59.52000 137.278
59.56000 133.367
59.60000 126.389
59.64000 138.904
59.68000 126.391
59.72000 140.607
59.76000 131.625
59.80000 139.548
59.84000 132.145
59.88000 140.100
59.92000 137.029
59.96000 132.716
60.00000 129.034
60.04000 134.996
60.08000 129.228
60.12000 134.772
60.16000 138.986
60.20000 135.275
60.24000 137.446
60.28000 122.803
60.32000 128.804
60.36000 143.482
60.40000 122.230
60.44000 137.867
60.48000 125.406
60.52000 135.543
60.56000 124.725
60.60000 133.252
60.64000 135.295
60.68000 131.252
60.72000 137.833
60.76000 140.771
60.80000 131.080
60.84000 133.376
60.88000 132.585
60.92000 135.306
60.96000 142.601
61.00000 136.225
61.04000 144.717
61.08000 138.285
61.12000 134.635
61.16000 134.092
61.20000 140.031
61.24000 128.208
61.28000 136.642
61.32000 135.294
61.36000 142.855
61.40000 140.596
61.44000 141.575
61.48000 142.416
61.52000 149.507
61.56000 169.888
61.60000 206.138
61.64000 221.645
61.68000 247.379
61.72000 258.602
61.76000 242.837
61.80000 223.930
61.84000 204.859
61.88000 161.400
61.92000 143.454
61.96000 152.167
62.00000 142.478
62.04000 151.262
62.08000 143.428
62.12000 143.817
62.16000 137.394
62.20000 144.641
62.24000 145.679
62.28000 132.895
62.32000 131.263
62.36000 139.691
62.40000 137.237
62.44000 147.140
62.48000 142.682
62.52000 136.286
62.56000 129.181
62.60000 147.775
62.64000 136.490
62.68000 141.876
62.72000 147.086
62.76000 143.462
62.80000 141.928
62.84000 154.125
62.88000 134.687
62.92000 135.799
62.96000 142.391
63.00000 147.208
63.04000 142.588
63.08000 136.809
63.12000 147.693
63.16000 147.993
63.20000 147.402
63.24000 152.544
63.28000 150.721
63.32000 152.293
63.36000 147.372
63.40000 146.848
63.44000 156.861
63.48000 156.323
63.52000 142.292
63.56000 145.467
63.60000 147.394
63.64000 156.495
63.68000 147.445
63.72000 144.825
63.76000 148.722
63.80000 138.140
63.84000 137.435
63.88000 151.464
63.92000 164.303
63.96000 153.632
64.00000 158.337
64.04000 148.658
64.08000 157.693
64.12000 157.246
64.16000 154.841
64.20000 161.295
64.24000 161.480
64.28000 164.293
64.32000 152.372
64.36000 162.849
64.40000 162.795
64.44000 166.562
64.48000 162.963
64.52000 166.307
64.56000 169.740
64.60000 169.177
64.64000 162.200
64.68000 168.937
64.72000 179.046
64.76000 178.243
64.80000 160.825
64.84000 161.276
64.88000 173.131
64.92000 168.191
64.96000 165.164
65.00000 185.469
65.04000 191.293
65.08000 190.514
65.12000 189.234
65.16000 190.722
65.20000 209.654
65.24000 221.830
65.28000 206.133
65.32000 223.021
65.36000 240.386
65.40000 254.606
65.44000 269.283
65.48000 277.951
65.52000 319.022
65.56000 321.717
65.60000 345.953
65.64000 356.585
65.68000 380.078
65.72000 435.792
65.76000 533.740
65.80000 733.231
65.84000 859.202
65.88000 902.642
65.92000 883.218
65.96000 860.480
66.00000 701.672
66.04000 491.350
66.08000 368.407
66.12000 302.066
66.16000 289.842
66.20000 268.862
66.24000 283.427
66.28000 311.791
66.32000 325.231
66.36000 355.568
66.40000 387.060
66.44000 394.010
66.48000 400.236
66.52000 378.128
66.56000 365.813
66.60000 319.134
66.64000 290.713
66.68000 293.071
66.72000 286.799
66.76000 287.001
66.80000 280.987
66.84000 303.827
66.88000 300.537
66.92000 295.765
66.96000 321.239
67.00000 328.960
67.04000 320.854
67.08000 331.426
67.12000 326.737
67.16000 340.845
67.20000 361.931
67.24000 347.800
67.28000 348.451
67.32000 368.784
67.36000 385.298
67.40000 371.318
67.44000 368.064
67.48000 382.398
67.52000 383.218
67.56000 406.396
67.60000 396.964
67.64000 415.616
67.68000 428.314
67.72000 418.542
67.76000 435.914
67.80000 438.210
67.84000 454.180
67.88000 454.343
67.92000 461.928
67.96000 479.308
68.00000 487.685
68.04000 503.331
68.08000 505.548
68.12000 536.064
68.16000 534.368
68.20000 544.504
68.24000 552.075
68.28000 565.440
68.32000 570.277
68.36000 603.208
68.40000 620.716
68.44000 666.217
68.48000 675.792
68.52000 696.270
68.56000 762.937
68.60000 813.168
68.64000 921.036
68.68000 1057.459
68.72000 1224.585
68.76000 1373.164
68.80000 1581.665
68.84000 1740.089
68.88000 2006.398
68.92000 2742.519
68.96000 5047.355
69.00000 14194.185
69.04000 29487.217
69.08000 42947.941
69.12000 46945.797
69.16000 47803.125
69.20000 49816.926
69.24000 46959.195
69.28000 38327.785
69.32000 29366.475
69.36000 24919.354
69.40000 22517.068
69.44000 16718.209
69.48000 9420.164
69.52000 4119.892
69.56000 2048.612
69.60000 1470.586
69.64000 1217.655
69.68000 1044.518
69.72000 987.465
69.76000 908.848
69.80000 791.289
69.84000 760.483
69.88000 720.945
69.92000 688.635
69.96000 670.834
70.00000 636.313