File: XRD/XRD/30-09-2025 Dep 1/XY Data/BTO_Mapping_Theta2Theta_30-09-2025_001_49_-4-181_-39-781.xy
20.00000 563.057
20.04000 577.172
20.08000 584.361
20.12000 571.518
20.16000 582.131
20.20000 600.742
20.24000 568.995
20.28000 568.572
20.32000 600.164
20.36000 595.742
20.40000 562.152
20.44000 547.097
20.48000 574.570
20.52000 594.721
20.56000 572.789
20.60000 571.611
20.64000 573.131
20.68000 574.038
20.72000 553.280
20.76000 575.217
20.80000 569.693
20.84000 556.664
20.88000 576.061
20.92000 574.895
20.96000 589.762
21.00000 565.180
21.04000 589.546
21.08000 572.542
21.12000 568.398
21.16000 572.499
21.20000 549.882
21.24000 565.939
21.28000 561.911
21.32000 573.512
21.36000 553.147
21.40000 552.425
21.44000 560.163
21.48000 571.021
21.52000 604.670
21.56000 605.865
21.60000 619.140
21.64000 653.954
21.68000 683.693
21.72000 728.600
21.76000 785.838
21.80000 866.443
21.84000 959.639
21.88000 1038.090
21.92000 1100.745
21.96000 1104.221
22.00000 1088.861
22.04000 1028.654
22.08000 966.757
22.12000 834.469
22.16000 785.864
22.20000 689.587
22.24000 644.789
22.28000 608.257
22.32000 589.034
22.36000 598.886
22.40000 553.189
22.44000 562.944
22.48000 571.522
22.52000 571.404
22.56000 548.424
22.60000 566.827
22.64000 558.552
22.68000 543.903
22.72000 529.735
22.76000 530.829
22.80000 547.763
22.84000 529.416
22.88000 537.421
22.92000 508.095
22.96000 525.988
23.00000 548.201
23.04000 535.840
23.08000 533.987
23.12000 536.460
23.16000 537.773
23.20000 524.521
23.24000 538.520
23.28000 538.353
23.32000 538.122
23.36000 519.297
23.40000 523.523
23.44000 510.142
23.48000 511.992
23.52000 533.617
23.56000 533.808
23.60000 530.075
23.64000 526.023
23.68000 520.284
23.72000 498.998
23.76000 525.143
23.80000 524.890
23.84000 532.089
23.88000 516.108
23.92000 511.102
23.96000 494.469
24.00000 506.876
24.04000 497.449
24.08000 526.953
24.12000 530.492
24.16000 509.095
24.20000 499.505
24.24000 505.516
24.28000 518.532
24.32000 510.765
24.36000 520.577
24.40000 511.970
24.44000 496.954
24.48000 507.506
24.52000 505.680
24.56000 497.386
24.60000 496.623
24.64000 489.539
24.68000 498.881
24.72000 484.462
24.76000 495.003
24.80000 504.555
24.84000 501.093
24.88000 489.440
24.92000 500.141
24.96000 490.301
25.00000 487.783
25.04000 485.840
25.08000 510.486
25.12000 504.028
25.16000 501.615
25.20000 493.184
25.24000 498.189
25.28000 502.935
25.32000 469.364
25.36000 493.775
25.40000 494.036
25.44000 479.198
25.48000 484.390
25.52000 497.307
25.56000 501.377
25.60000 487.064
25.64000 492.722
25.68000 502.014
25.72000 477.265
25.76000 486.471
25.80000 495.955
25.84000 488.169
25.88000 480.941
25.92000 484.249
25.96000 498.917
26.00000 474.619
26.04000 481.818
26.08000 482.957
26.12000 483.980
26.16000 486.509
26.20000 481.447
26.24000 468.286
26.28000 463.172
26.32000 494.090
26.36000 481.745
26.40000 475.991
26.44000 487.163
26.48000 485.858
26.52000 474.062
26.56000 472.764
26.60000 469.551
26.64000 466.018
26.68000 484.301
26.72000 462.655
26.76000 478.736
26.80000 471.085
26.84000 475.370
26.88000 472.232
26.92000 482.395
26.96000 467.040
27.00000 481.303
27.04000 475.487
27.08000 499.677
27.12000 457.374
27.16000 457.844
27.20000 483.745
27.24000 459.230
27.28000 476.211
27.32000 459.425
27.36000 470.589
27.40000 471.872
27.44000 468.238
27.48000 476.408
27.52000 444.748
27.56000 470.200
27.60000 470.582
27.64000 467.272
27.68000 458.485
27.72000 464.010
27.76000 478.186
27.80000 465.705
27.84000 469.493
27.88000 465.545
27.92000 475.124
27.96000 451.899
28.00000 473.535
28.04000 472.925
28.08000 461.567
28.12000 462.739
28.16000 468.061
28.20000 466.995
28.24000 470.284
28.28000 438.646
28.32000 468.186
28.36000 470.091
28.40000 453.877
28.44000 450.247
28.48000 455.313
28.52000 440.106
28.56000 439.872
28.60000 462.477
28.64000 443.783
28.68000 454.869
28.72000 449.718
28.76000 445.461
28.80000 449.386
28.84000 456.814
28.88000 427.539
28.92000 442.161
28.96000 446.375
29.00000 445.974
29.04000 426.749
29.08000 454.422
29.12000 448.200
29.16000 435.982
29.20000 455.326
29.24000 438.918
29.28000 441.194
29.32000 435.428
29.36000 436.057
29.40000 445.661
29.44000 461.068
29.48000 448.397
29.52000 440.101
29.56000 436.736
29.60000 435.884
29.64000 445.374
29.68000 449.229
29.72000 445.266
29.76000 465.343
29.80000 479.420
29.84000 483.746
29.88000 476.535
29.92000 487.613
29.96000 483.895
30.00000 480.797
30.04000 468.627
30.08000 467.024
30.12000 445.398
30.16000 491.887
30.20000 457.377
30.24000 480.564
30.28000 462.363
30.32000 459.133
30.36000 458.420
30.40000 461.392
30.44000 480.445
30.48000 453.876
30.52000 478.126
30.56000 490.815
30.60000 480.435
30.64000 483.577
30.68000 507.779
30.72000 495.558
30.76000 524.583
30.80000 556.057
30.84000 582.570
30.88000 641.966
30.92000 744.197
30.96000 920.978
31.00000 1215.514
31.04000 1639.487
31.08000 2237.481
31.12000 2776.330
31.16000 3437.458
31.20000 3858.259
31.24000 4053.021
31.28000 3963.559
31.32000 3660.666
31.36000 3087.825
31.40000 2476.302
31.44000 1812.343
31.48000 1355.911
31.52000 1032.231
31.56000 807.299
31.60000 689.443
31.64000 601.536
31.68000 565.713
31.72000 521.196
31.76000 508.287
31.80000 488.592
31.84000 484.703
31.88000 466.589
31.92000 462.922
31.96000 460.061
32.00000 420.241
32.04000 447.296
32.08000 427.798
32.12000 430.446
32.16000 440.814
32.20000 418.915
32.24000 436.095
32.28000 417.472
32.32000 446.355
32.36000 409.413
32.40000 422.268
32.44000 420.071
32.48000 414.098
32.52000 401.823
32.56000 394.907
32.60000 391.199
32.64000 416.956
32.68000 395.193
32.72000 401.266
32.76000 393.876
32.80000 401.863
32.84000 419.542
32.88000 447.052
32.92000 464.793
32.96000 497.934
33.00000 512.819
33.04000 526.309
33.08000 502.372
33.12000 469.549
33.16000 457.980
33.20000 412.005
33.24000 392.733
33.28000 372.797
33.32000 355.828
33.36000 361.153
33.40000 358.696
33.44000 374.813
33.48000 365.409
33.52000 353.776
33.56000 364.691
33.60000 351.600
33.64000 348.581
33.68000 347.330
33.72000 350.556
33.76000 344.490
33.80000 350.352
33.84000 347.238
33.88000 349.999
33.92000 345.877
33.96000 335.943
34.00000 335.276
34.04000 338.226
34.08000 341.634
34.12000 352.629
34.16000 340.406
34.20000 344.535
34.24000 354.384
34.28000 352.119
34.32000 348.557
34.36000 334.178
34.40000 347.213
34.44000 352.207
34.48000 339.564
34.52000 333.669
34.56000 344.006
34.60000 337.653
34.64000 335.921
34.68000 330.802
34.72000 317.986
34.76000 315.530
34.80000 334.430
34.84000 330.424
34.88000 344.318
34.92000 337.368
34.96000 326.204
35.00000 342.936
35.04000 318.187
35.08000 340.151
35.12000 301.995
35.16000 328.536
35.20000 314.824
35.24000 327.418
35.28000 327.968
35.32000 318.268
35.36000 317.357
35.40000 314.870
35.44000 320.397
35.48000 318.967
35.52000 303.385
35.56000 314.567
35.60000 324.910
35.64000 337.107
35.68000 316.127
35.72000 321.169
35.76000 329.040
35.80000 319.811
35.84000 294.012
35.88000 314.111
35.92000 324.431
35.96000 317.687
36.00000 327.811
36.04000 330.954
36.08000 317.564
36.12000 314.695
36.16000 316.373
36.20000 315.554
36.24000 305.933
36.28000 312.453
36.32000 316.359
36.36000 312.184
36.40000 310.100
36.44000 315.688
36.48000 306.858
36.52000 299.927
36.56000 312.394
36.60000 320.161
36.64000 301.522
36.68000 321.673
36.72000 311.414
36.76000 317.581
36.80000 312.379
36.84000 307.795
36.88000 336.186
36.92000 318.461
36.96000 310.013
37.00000 325.471
37.04000 314.592
37.08000 313.676
37.12000 310.909
37.16000 302.791
37.20000 310.236
37.24000 308.938
37.28000 304.817
37.32000 304.644
37.36000 305.432
37.40000 296.281
37.44000 299.560
37.48000 289.605
37.52000 313.469
37.56000 299.534
37.60000 307.948
37.64000 301.501
37.68000 298.401
37.72000 303.719
37.76000 288.454
37.80000 310.986
37.84000 300.939
37.88000 304.633
37.92000 315.085
37.96000 293.246
38.00000 291.363
38.04000 295.700
38.08000 304.513
38.12000 323.275
38.16000 311.362
38.20000 326.400
38.24000 334.380
38.28000 352.089
38.32000 349.251
38.36000 398.326
38.40000 410.229
38.44000 409.935
38.48000 446.782
38.52000 476.232
38.56000 474.122
38.60000 479.916
38.64000 458.741
38.68000 439.881
38.72000 418.735
38.76000 374.173
38.80000 351.242
38.84000 348.729
38.88000 328.295
38.92000 305.345
38.96000 317.167
39.00000 303.280
39.04000 296.686
39.08000 303.800
39.12000 288.074
39.16000 272.382
39.20000 291.000
39.24000 291.217
39.28000 289.970
39.32000 289.923
39.36000 297.064
39.40000 274.722
39.44000 279.188
39.48000 290.247
39.52000 269.037
39.56000 263.717
39.60000 280.423
39.64000 281.550
39.68000 267.416
39.72000 271.314
39.76000 277.031
39.80000 274.744
39.84000 264.897
39.88000 273.529
39.92000 273.501
39.96000 270.191
40.00000 256.797
40.04000 270.546
40.08000 264.434
40.12000 265.254
40.16000 265.791
40.20000 251.330
40.24000 265.152
40.28000 274.561
40.32000 269.013
40.36000 267.581
40.40000 250.107
40.44000 267.313
40.48000 255.696
40.52000 269.628
40.56000 242.660
40.60000 262.835
40.64000 271.986
40.68000 272.726
40.72000 254.795
40.76000 256.982
40.80000 257.185
40.84000 252.202
40.88000 263.624
40.92000 261.945
40.96000 269.964
41.00000 265.298
41.04000 253.525
41.08000 265.562
41.12000 260.474
41.16000 255.134
41.20000 256.380
41.24000 251.288
41.28000 250.447
41.32000 252.271
41.36000 263.396
41.40000 244.781
41.44000 244.327
41.48000 250.681
41.52000 247.623
41.56000 271.675
41.60000 248.469
41.64000 248.042
41.68000 255.446
41.72000 256.294
41.76000 267.311
41.80000 251.882
41.84000 258.445
41.88000 261.149
41.92000 254.601
41.96000 237.419
42.00000 243.554
42.04000 243.176
42.08000 245.063
42.12000 241.265
42.16000 241.137
42.20000 250.069
42.24000 249.011
42.28000 241.062
42.32000 242.136
42.36000 245.617
42.40000 236.590
42.44000 240.215
42.48000 246.447
42.52000 245.615
42.56000 244.231
42.60000 243.821
42.64000 242.769
42.68000 240.912
42.72000 238.189
42.76000 246.287
42.80000 255.980
42.84000 251.629
42.88000 256.925
42.92000 251.286
42.96000 245.096
43.00000 247.730
43.04000 249.300
43.08000 234.944
43.12000 249.183
43.16000 236.645
43.20000 237.641
43.24000 233.839
43.28000 244.406
43.32000 245.840
43.36000 240.411
43.40000 231.127
43.44000 232.602
43.48000 247.168
43.52000 238.073
43.56000 236.328
43.60000 238.431
43.64000 239.632
43.68000 246.625
43.72000 226.802
43.76000 223.320
43.80000 239.291
43.84000 236.271
43.88000 229.476
43.92000 247.276
43.96000 234.951
44.00000 240.441
44.04000 242.556
44.08000 244.607
44.12000 238.977
44.16000 243.402
44.20000 244.337
44.24000 263.159
44.28000 263.281
44.32000 251.835
44.36000 282.789
44.40000 295.435
44.44000 301.797
44.48000 307.294
44.52000 353.380
44.56000 390.317
44.60000 428.713
44.64000 487.484
44.68000 548.667
44.72000 602.347
44.76000 667.198
44.80000 719.590
44.84000 720.733
44.88000 724.733
44.92000 713.229
44.96000 662.409
45.00000 639.601
45.04000 600.197
45.08000 512.439
45.12000 484.179
45.16000 432.145
45.20000 403.491
45.24000 355.634
45.28000 330.034
45.32000 321.173
45.36000 319.126
45.40000 287.498
45.44000 267.454
45.48000 244.360
45.52000 241.792
45.56000 243.382
45.60000 247.791
45.64000 244.796
45.68000 237.219
45.72000 228.500
45.76000 223.623
45.80000 221.491
45.84000 224.775
45.88000 216.604
45.92000 212.445
45.96000 219.864
46.00000 220.974
46.04000 212.170
46.08000 227.529
46.12000 237.132
46.16000 215.719
46.20000 212.348
46.24000 218.024
46.28000 224.790
46.32000 230.362
46.36000 221.324
46.40000 206.346
46.44000 218.560
46.48000 232.376
46.52000 209.704
46.56000 203.262
46.60000 206.547
46.64000 211.805
46.68000 204.156
46.72000 210.397
46.76000 208.133
46.80000 210.097
46.84000 200.700
46.88000 211.525
46.92000 211.586
46.96000 202.614
47.00000 210.950
47.04000 213.624
47.08000 199.612
47.12000 221.832
47.16000 200.238
47.20000 203.336
47.24000 199.660
47.28000 200.882
47.32000 211.603
47.36000 199.465
47.40000 198.246
47.44000 197.081
47.48000 191.346
47.52000 199.760
47.56000 195.888
47.60000 191.845
47.64000 199.847
47.68000 205.336
47.72000 204.859
47.76000 200.104
47.80000 195.076
47.84000 183.199
47.88000 189.306
47.92000 195.713
47.96000 194.438
48.00000 189.681
48.04000 187.850
48.08000 188.212
48.12000 197.090
48.16000 186.451
48.20000 201.732
48.24000 193.190
48.28000 191.005
48.32000 187.746
48.36000 199.921
48.40000 202.689
48.44000 195.198
48.48000 185.284
48.52000 185.935
48.56000 190.163
48.60000 183.829
48.64000 185.015
48.68000 195.792
48.72000 200.757
48.76000 186.173
48.80000 192.011
48.84000 182.042
48.88000 190.787
48.92000 192.936
48.96000 199.943
49.00000 193.288
49.04000 191.326
49.08000 192.792
49.12000 196.655
49.16000 191.268
49.20000 183.598
49.24000 177.626
49.28000 180.241
49.32000 196.592
49.36000 183.072
49.40000 192.439
49.44000 187.364
49.48000 178.504
49.52000 191.545
49.56000 189.901
49.60000 197.274
49.64000 176.215
49.68000 185.652
49.72000 178.737
49.76000 190.255
49.80000 189.842
49.84000 194.494
49.88000 191.724
49.92000 194.753
49.96000 195.406
50.00000 187.061
50.04000 193.393
50.08000 185.572
50.12000 207.322
50.16000 208.779
50.20000 220.491
50.24000 229.198
50.28000 253.889
50.32000 252.988
50.36000 267.193
50.40000 269.259
50.44000 271.901
50.48000 292.078
50.52000 289.408
50.56000 272.483
50.60000 276.412
50.64000 278.807
50.68000 256.264
50.72000 247.869
50.76000 231.357
50.80000 233.528
50.84000 209.575
50.88000 207.394
50.92000 208.320
50.96000 202.384
51.00000 199.539
51.04000 181.800
51.08000 178.288
51.12000 175.769
51.16000 174.728
51.20000 182.444
51.24000 179.097
51.28000 180.434
51.32000 175.800
51.36000 165.254
51.40000 170.405
51.44000 172.737
51.48000 162.908
51.52000 170.563
51.56000 176.159
51.60000 174.826
51.64000 169.449
51.68000 175.874
51.72000 174.079
51.76000 167.610
51.80000 181.720
51.84000 173.406
51.88000 162.619
51.92000 173.192
51.96000 171.845
52.00000 171.599
52.04000 169.650
52.08000 168.308
52.12000 170.909
52.16000 158.837
52.20000 168.486
52.24000 168.589
52.28000 170.556
52.32000 176.624
52.36000 162.539
52.40000 167.133
52.44000 167.441
52.48000 176.085
52.52000 159.393
52.56000 161.229
52.60000 169.764
52.64000 159.227
52.68000 169.185
52.72000 177.819
52.76000 166.109
52.80000 168.994
52.84000 164.255
52.88000 169.477
52.92000 179.628
52.96000 171.740
53.00000 165.654
53.04000 167.533
53.08000 165.630
53.12000 162.581
53.16000 168.308
53.20000 165.541
53.24000 169.086
53.28000 169.275
53.32000 163.137
53.36000 167.157
53.40000 169.048
53.44000 152.971
53.48000 170.887
53.52000 158.304
53.56000 158.762
53.60000 159.376
53.64000 168.323
53.68000 155.576
53.72000 167.327
53.76000 163.055
53.80000 162.478
53.84000 166.558
53.88000 158.491
53.92000 162.648
53.96000 162.231
54.00000 160.995
54.04000 159.456
54.08000 162.705
54.12000 163.908
54.16000 162.349
54.20000 165.606
54.24000 165.068
54.28000 166.004
54.32000 162.974
54.36000 163.116
54.40000 160.745
54.44000 166.396
54.48000 163.417
54.52000 163.442
54.56000 168.212
54.60000 172.586
54.64000 163.934
54.68000 158.906
54.72000 160.718
54.76000 164.266
54.80000 162.176
54.84000 167.626
54.88000 160.120
54.92000 171.333
54.96000 168.423
55.00000 168.561
55.04000 173.408
55.08000 176.624
55.12000 171.456
55.16000 178.939
55.20000 186.273
55.24000 198.581
55.28000 215.029
55.32000 222.698
55.36000 245.516
55.40000 281.453
55.44000 302.387
55.48000 343.812
55.52000 399.115
55.56000 438.231
55.60000 505.686
55.64000 520.518
55.68000 551.530
55.72000 526.666
55.76000 521.317
55.80000 484.659
55.84000 452.236
55.88000 420.667
55.92000 386.544
55.96000 344.089
56.00000 296.967
56.04000 279.898
56.08000 249.383
56.12000 231.623
56.16000 216.896
56.20000 194.886
56.24000 198.177
56.28000 186.105
56.32000 186.133
56.36000 176.756
56.40000 179.740
56.44000 174.470
56.48000 170.804
56.52000 161.015
56.56000 159.006
56.60000 158.217
56.64000 162.547
56.68000 154.920
56.72000 162.793
56.76000 147.695
56.80000 153.509
56.84000 147.199
56.88000 167.124
56.92000 153.364
56.96000 166.313
57.00000 156.050
57.04000 154.789
57.08000 146.233
57.12000 143.472
57.16000 151.207
57.20000 142.521
57.24000 155.815
57.28000 153.649
57.32000 148.839
57.36000 154.892
57.40000 152.809
57.44000 150.400
57.48000 144.614
57.52000 138.747
57.56000 144.086
57.60000 138.866
57.64000 146.361
57.68000 137.238
57.72000 140.454
57.76000 151.658
57.80000 135.149
57.84000 145.909
57.88000 142.974
57.92000 143.000
57.96000 153.902
58.00000 141.980
58.04000 141.758
58.08000 144.970
58.12000 150.633
58.16000 144.960
58.20000 147.334
58.24000 140.527
58.28000 143.889
58.32000 131.151
58.36000 134.270
58.40000 146.040
58.44000 133.775
58.48000 142.686
58.52000 140.562
58.56000 146.695
58.60000 143.667
58.64000 143.722
58.68000 143.977
58.72000 146.349
58.76000 140.848
58.80000 140.502
58.84000 138.620
58.88000 136.486
58.92000 137.698
58.96000 137.940
59.00000 127.489
59.04000 152.409
59.08000 141.412
59.12000 141.984
59.16000 142.056
59.20000 148.561
59.24000 138.449
59.28000 133.007
59.32000 127.903
59.36000 138.646
59.40000 138.932
59.44000 138.596
59.48000 142.271
59.52000 139.854
59.56000 132.784
59.60000 137.333
59.64000 135.548
59.68000 127.916
59.72000 141.612
59.76000 145.100
59.80000 144.837
59.84000 135.522
59.88000 132.273
59.92000 139.563
59.96000 140.871
60.00000 139.767
60.04000 142.101
60.08000 130.585
60.12000 137.875
60.16000 134.473
60.20000 134.959
60.24000 138.800
60.28000 140.642
60.32000 137.885
60.36000 135.869
60.40000 143.114
60.44000 138.260
60.48000 142.773
60.52000 134.371
60.56000 133.412
60.60000 141.341
60.64000 140.406
60.68000 133.490
60.72000 139.115
60.76000 136.046
60.80000 143.739
60.84000 141.080
60.88000 133.904
60.92000 129.801
60.96000 134.070
61.00000 146.109
61.04000 141.443
61.08000 145.194
61.12000 142.339
61.16000 140.079
61.20000 144.598
61.24000 146.198
61.28000 145.819
61.32000 150.591
61.36000 143.481
61.40000 148.340
61.44000 141.733
61.48000 152.290
61.52000 174.646
61.56000 225.411
61.60000 288.718
61.64000 342.091
61.68000 364.538
61.72000 362.179
61.76000 351.284
61.80000 292.236
61.84000 213.355
61.88000 170.220
61.92000 164.451
61.96000 147.994
62.00000 155.089
62.04000 153.333
62.08000 151.817
62.12000 148.162
62.16000 138.768
62.20000 153.459
62.24000 144.545
62.28000 144.460
62.32000 144.867
62.36000 150.487
62.40000 154.438
62.44000 145.624
62.48000 141.168
62.52000 141.678
62.56000 144.243
62.60000 144.195
62.64000 138.369
62.68000 141.839
62.72000 141.143
62.76000 144.660
62.80000 145.161
62.84000 132.858
62.88000 142.176
62.92000 143.121
62.96000 152.397
63.00000 157.863
63.04000 156.164
63.08000 156.569
63.12000 150.384
63.16000 162.093
63.20000 148.493
63.24000 157.907
63.28000 149.531
63.32000 148.183
63.36000 156.740
63.40000 150.646
63.44000 154.172
63.48000 146.210
63.52000 152.754
63.56000 153.769
63.60000 166.848
63.64000 153.788
63.68000 153.786
63.72000 149.104
63.76000 158.040
63.80000 149.229
63.84000 158.487
63.88000 150.802
63.92000 158.821
63.96000 164.275
64.00000 155.858
64.04000 161.333
64.08000 166.591
64.12000 165.072
64.16000 163.138
64.20000 172.851
64.24000 174.197
64.28000 172.983
64.32000 177.720
64.36000 172.992
64.40000 174.551
64.44000 181.637
64.48000 173.367
64.52000 182.627
64.56000 178.015
64.60000 184.311
64.64000 185.460
64.68000 187.336
64.72000 199.481
64.76000 194.964
64.80000 209.008
64.84000 208.361
64.88000 217.103
64.92000 230.877
64.96000 244.225
65.00000 287.595
65.04000 289.928
65.08000 337.147
65.12000 369.009
65.16000 398.147
65.20000 409.315
65.24000 406.715
65.28000 426.043
65.32000 408.261
65.36000 402.742
65.40000 394.405
65.44000 367.923
65.48000 366.933
65.52000 361.008
65.56000 356.743
65.60000 362.189
65.64000 382.843
65.68000 473.899
65.72000 684.750
65.76000 927.265
65.80000 1242.742
65.84000 1403.916
65.88000 1441.054
65.92000 1395.879
65.96000 1238.146
66.00000 875.113
66.04000 597.825
66.08000 442.861
66.12000 358.877
66.16000 316.498
66.20000 335.874
66.24000 349.829
66.28000 381.155
66.32000 452.034
66.36000 508.508
66.40000 530.798
66.44000 543.491
66.48000 534.940
66.52000 502.264
66.56000 447.057
66.60000 386.465
66.64000 353.590
66.68000 370.770
66.72000 356.381
66.76000 359.763
66.80000 342.927
66.84000 354.539
66.88000 361.545
66.92000 365.953
66.96000 383.629
67.00000 385.020
67.04000 407.831
67.08000 396.228
67.12000 402.756
67.16000 418.524
67.20000 428.510
67.24000 420.151
67.28000 419.788
67.32000 422.249
67.36000 443.667
67.40000 442.260
67.44000 443.412
67.48000 461.335
67.52000 489.283
67.56000 478.691
67.60000 487.772
67.64000 499.389
67.68000 518.033
67.72000 537.477
67.76000 547.162
67.80000 561.578
67.84000 571.060
67.88000 570.980
67.92000 589.404
67.96000 586.623
68.00000 609.311
68.04000 592.002
68.08000 628.125
68.12000 627.406
68.16000 662.127
68.20000 699.290
68.24000 718.627
68.28000 713.637
68.32000 739.864
68.36000 768.963
68.40000 830.154
68.44000 863.210
68.48000 881.696
68.52000 963.791
68.56000 1011.067
68.60000 1188.834
68.64000 1369.181
68.68000 1670.674
68.72000 1962.274
68.76000 2276.795
68.80000 2594.177
68.84000 3102.403
68.88000 3848.520
68.92000 7748.722
68.96000 17973.016
69.00000 41715.156
69.04000 67724.930
69.08000 83396.883
69.12000 88005.375
69.16000 91141.281
69.20000 90618.203
69.24000 78602.242
69.28000 61809.137
69.32000 50366.707
69.36000 43881.164
69.40000 36314.715
69.44000 23404.160
69.48000 11860.288
69.52000 5404.151
69.56000 2943.491
69.60000 2060.919
69.64000 1693.176
69.68000 1447.738
69.72000 1302.587
69.76000 1190.169
69.80000 1115.660
69.84000 1016.737
69.88000 921.826
69.92000 839.604
69.96000 832.694
70.00000 795.301