File: XRD/XRD/30-09-2025 Dep 1/XY Data/BTO_Mapping_Theta2Theta_30-09-2025_001_34_-9-781_-2-079.xy
20.00000 572.017
20.04000 573.211
20.08000 557.726
20.12000 560.261
20.16000 581.135
20.20000 537.392
20.24000 537.118
20.28000 543.495
20.32000 545.638
20.36000 583.765
20.40000 558.298
20.44000 567.687
20.48000 559.301
20.52000 566.038
20.56000 567.771
20.60000 538.186
20.64000 551.810
20.68000 557.042
20.72000 559.335
20.76000 563.440
20.80000 545.326
20.84000 536.870
20.88000 566.509
20.92000 564.271
20.96000 575.026
21.00000 552.366
21.04000 548.904
21.08000 569.607
21.12000 583.948
21.16000 568.306
21.20000 581.543
21.24000 548.408
21.28000 546.168
21.32000 539.638
21.36000 544.602
21.40000 557.958
21.44000 561.240
21.48000 547.272
21.52000 550.859
21.56000 576.830
21.60000 539.909
21.64000 549.148
21.68000 572.699
21.72000 569.239
21.76000 580.736
21.80000 624.822
21.84000 648.039
21.88000 645.270
21.92000 702.057
21.96000 759.511
22.00000 768.122
22.04000 789.975
22.08000 780.535
22.12000 784.597
22.16000 715.732
22.20000 705.191
22.24000 629.431
22.28000 584.826
22.32000 598.487
22.36000 577.376
22.40000 542.636
22.44000 534.568
22.48000 560.476
22.52000 530.812
22.56000 539.875
22.60000 539.570
22.64000 552.308
22.68000 525.742
22.72000 538.776
22.76000 536.086
22.80000 516.306
22.84000 525.794
22.88000 503.328
22.92000 528.934
22.96000 541.520
23.00000 516.226
23.04000 522.789
23.08000 515.730
23.12000 498.327
23.16000 505.526
23.20000 499.900
23.24000 508.186
23.28000 510.118
23.32000 507.892
23.36000 525.078
23.40000 518.955
23.44000 512.706
23.48000 530.273
23.52000 503.037
23.56000 499.742
23.60000 495.306
23.64000 503.302
23.68000 507.060
23.72000 520.048
23.76000 506.878
23.80000 513.514
23.84000 522.634
23.88000 525.161
23.92000 521.028
23.96000 531.828
24.00000 528.462
24.04000 529.004
24.08000 531.141
24.12000 514.036
24.16000 515.625
24.20000 533.262
24.24000 540.726
24.28000 526.181
24.32000 514.443
24.36000 513.135
24.40000 489.919
24.44000 520.605
24.48000 506.411
24.52000 494.588
24.56000 499.199
24.60000 493.543
24.64000 493.544
24.68000 480.854
24.72000 486.181
24.76000 492.134
24.80000 487.789
24.84000 477.810
24.88000 461.983
24.92000 491.727
24.96000 490.949
25.00000 487.421
25.04000 473.961
25.08000 504.502
25.12000 484.332
25.16000 462.858
25.20000 492.205
25.24000 495.653
25.28000 477.092
25.32000 471.705
25.36000 477.466
25.40000 495.842
25.44000 484.226
25.48000 477.285
25.52000 467.546
25.56000 464.964
25.60000 482.533
25.64000 472.070
25.68000 453.458
25.72000 476.434
25.76000 464.680
25.80000 468.384
25.84000 472.807
25.88000 469.395
25.92000 475.488
25.96000 468.778
26.00000 453.719
26.04000 482.842
26.08000 448.746
26.12000 454.052
26.16000 473.351
26.20000 483.830
26.24000 471.887
26.28000 466.724
26.32000 471.863
26.36000 472.666
26.40000 444.378
26.44000 465.626
26.48000 451.104
26.52000 467.203
26.56000 450.405
26.60000 462.193
26.64000 477.197
26.68000 447.760
26.72000 467.676
26.76000 466.562
26.80000 446.275
26.84000 426.871
26.88000 449.586
26.92000 464.438
26.96000 437.156
27.00000 454.258
27.04000 461.612
27.08000 463.594
27.12000 446.346
27.16000 441.507
27.20000 466.847
27.24000 459.210
27.28000 449.112
27.32000 457.901
27.36000 457.490
27.40000 435.635
27.44000 447.846
27.48000 430.396
27.52000 431.673
27.56000 429.476
27.60000 440.919
27.64000 443.841
27.68000 449.578
27.72000 432.935
27.76000 442.513
27.80000 438.455
27.84000 440.087
27.88000 444.670
27.92000 425.989
27.96000 425.367
28.00000 439.671
28.04000 444.881
28.08000 435.678
28.12000 435.812
28.16000 431.698
28.20000 435.112
28.24000 443.865
28.28000 457.395
28.32000 429.510
28.36000 432.637
28.40000 436.960
28.44000 416.024
28.48000 417.642
28.52000 430.140
28.56000 446.991
28.60000 445.307
28.64000 431.921
28.68000 421.551
28.72000 430.717
28.76000 421.546
28.80000 408.514
28.84000 416.685
28.88000 419.026
28.92000 433.056
28.96000 433.073
29.00000 417.075
29.04000 413.648
29.08000 420.724
29.12000 433.818
29.16000 425.105
29.20000 416.605
29.24000 431.138
29.28000 428.770
29.32000 426.490
29.36000 423.654
29.40000 421.488
29.44000 431.087
29.48000 427.612
29.52000 420.947
29.56000 412.457
29.60000 417.249
29.64000 420.013
29.68000 425.140
29.72000 416.308
29.76000 418.738
29.80000 427.501
29.84000 442.296
29.88000 429.052
29.92000 437.525
29.96000 458.647
30.00000 466.654
30.04000 444.927
30.08000 456.137
30.12000 441.627
30.16000 437.547
30.20000 436.918
30.24000 436.912
30.28000 428.973
30.32000 435.250
30.36000 415.702
30.40000 423.552
30.44000 448.488
30.48000 440.646
30.52000 450.270
30.56000 440.940
30.60000 438.240
30.64000 442.693
30.68000 439.904
30.72000 443.541
30.76000 459.812
30.80000 457.183
30.84000 479.829
30.88000 492.267
30.92000 503.126
30.96000 540.899
31.00000 574.211
31.04000 691.342
31.08000 778.004
31.12000 956.449
31.16000 1254.496
31.20000 1685.661
31.24000 2191.688
31.28000 2828.300
31.32000 3369.158
31.36000 3600.875
31.40000 3650.946
31.44000 3337.646
31.48000 2887.228
31.52000 2298.240
31.56000 1708.618
31.60000 1239.760
31.64000 895.792
31.68000 714.825
31.72000 579.041
31.76000 541.109
31.80000 501.887
31.84000 457.867
31.88000 454.934
31.92000 464.107
31.96000 445.130
32.00000 416.812
32.04000 426.524
32.08000 430.206
32.12000 423.854
32.16000 423.792
32.20000 397.511
32.24000 400.080
32.28000 409.448
32.32000 403.277
32.36000 400.604
32.40000 396.941
32.44000 398.586
32.48000 379.973
32.52000 382.274
32.56000 391.591
32.60000 367.401
32.64000 373.588
32.68000 384.926
32.72000 387.536
32.76000 364.604
32.80000 374.295
32.84000 372.660
32.88000 399.074
32.92000 412.270
32.96000 442.136
33.00000 464.277
33.04000 455.028
33.08000 430.200
33.12000 410.781
33.16000 398.172
33.20000 382.058
33.24000 375.500
33.28000 349.929
33.32000 355.060
33.36000 365.998
33.40000 354.873
33.44000 340.431
33.48000 337.901
33.52000 356.678
33.56000 348.541
33.60000 356.039
33.64000 354.231
33.68000 355.302
33.72000 343.967
33.76000 377.443
33.80000 362.086
33.84000 357.159
33.88000 338.063
33.92000 342.597
33.96000 316.152
34.00000 341.560
34.04000 342.953
34.08000 340.911
34.12000 337.976
34.16000 336.005
34.20000 348.940
34.24000 342.263
34.28000 336.850
34.32000 350.763
34.36000 343.296
34.40000 351.861
34.44000 334.019
34.48000 324.793
34.52000 335.760
34.56000 328.179
34.60000 333.820
34.64000 337.269
34.68000 347.316
34.72000 328.035
34.76000 328.836
34.80000 328.652
34.84000 338.016
34.88000 328.102
34.92000 316.687
34.96000 320.177
35.00000 308.962
35.04000 324.097
35.08000 321.051
35.12000 323.347
35.16000 332.531
35.20000 321.245
35.24000 316.892
35.28000 316.179
35.32000 325.118
35.36000 311.099
35.40000 324.597
35.44000 316.216
35.48000 326.100
35.52000 324.982
35.56000 320.965
35.60000 309.712
35.64000 314.348
35.68000 315.781
35.72000 311.507
35.76000 308.622
35.80000 306.786
35.84000 299.042
35.88000 321.708
35.92000 315.657
35.96000 300.682
36.00000 304.246
36.04000 311.601
36.08000 299.891
36.12000 315.605
36.16000 294.608
36.20000 310.833
36.24000 296.858
36.28000 293.099
36.32000 296.811
36.36000 309.768
36.40000 306.471
36.44000 303.763
36.48000 305.060
36.52000 290.716
36.56000 306.840
36.60000 316.770
36.64000 304.528
36.68000 310.583
36.72000 292.199
36.76000 320.004
36.80000 303.614
36.84000 296.490
36.88000 310.078
36.92000 314.699
36.96000 305.750
37.00000 301.965
37.04000 304.641
37.08000 310.258
37.12000 303.262
37.16000 312.150
37.20000 290.598
37.24000 304.304
37.28000 299.715
37.32000 318.999
37.36000 312.556
37.40000 287.940
37.44000 297.456
37.48000 284.441
37.52000 297.582
37.56000 284.363
37.60000 290.301
37.64000 282.569
37.68000 297.635
37.72000 303.603
37.76000 289.801
37.80000 299.091
37.84000 291.922
37.88000 280.682
37.92000 305.837
37.96000 295.511
38.00000 285.289
38.04000 290.517
38.08000 295.655
38.12000 303.331
38.16000 295.592
38.20000 313.279
38.24000 296.346
38.28000 317.707
38.32000 328.126
38.36000 334.601
38.40000 348.494
38.44000 356.753
38.48000 415.476
38.52000 487.108
38.56000 564.646
38.60000 646.320
38.64000 750.078
38.68000 815.717
38.72000 849.581
38.76000 835.892
38.80000 748.752
38.84000 685.353
38.88000 588.790
38.92000 497.563
38.96000 425.013
39.00000 379.739
39.04000 337.645
39.08000 317.054
39.12000 305.884
39.16000 292.588
39.20000 282.114
39.24000 284.288
39.28000 278.358
39.32000 286.206
39.36000 273.174
39.40000 271.631
39.44000 272.018
39.48000 267.566
39.52000 276.352
39.56000 272.403
39.60000 272.134
39.64000 258.669
39.68000 284.166
39.72000 270.010
39.76000 275.035
39.80000 275.984
39.84000 265.142
39.88000 282.737
39.92000 272.638
39.96000 276.107
40.00000 258.498
40.04000 258.761
40.08000 257.720
40.12000 257.997
40.16000 249.532
40.20000 266.909
40.24000 263.241
40.28000 270.148
40.32000 252.596
40.36000 264.331
40.40000 241.030
40.44000 255.349
40.48000 240.071
40.52000 255.926
40.56000 246.921
40.60000 243.353
40.64000 265.266
40.68000 247.790
40.72000 256.333
40.76000 252.809
40.80000 271.117
40.84000 248.901
40.88000 250.657
40.92000 249.904
40.96000 268.001
41.00000 251.632
41.04000 254.552
41.08000 244.567
41.12000 237.048
41.16000 245.615
41.20000 251.491
41.24000 243.919
41.28000 233.872
41.32000 242.483
41.36000 244.953
41.40000 245.546
41.44000 241.745
41.48000 242.934
41.52000 246.599
41.56000 252.195
41.60000 239.672
41.64000 241.102
41.68000 237.641
41.72000 244.392
41.76000 233.909
41.80000 249.573
41.84000 241.424
41.88000 253.291
41.92000 240.298
41.96000 226.234
42.00000 228.709
42.04000 223.632
42.08000 238.406
42.12000 240.460
42.16000 242.565
42.20000 244.133
42.24000 240.229
42.28000 235.611
42.32000 238.592
42.36000 233.035
42.40000 244.984
42.44000 225.937
42.48000 228.323
42.52000 230.007
42.56000 233.721
42.60000 237.026
42.64000 233.620
42.68000 235.987
42.72000 233.965
42.76000 244.549
42.80000 227.037
42.84000 240.739
42.88000 234.811
42.92000 227.979
42.96000 237.378
43.00000 229.329
43.04000 233.873
43.08000 242.383
43.12000 235.721
43.16000 230.018
43.20000 227.709
43.24000 221.177
43.28000 230.098
43.32000 226.351
43.36000 228.077
43.40000 231.396
43.44000 225.831
43.48000 235.724
43.52000 234.976
43.56000 238.476
43.60000 210.329
43.64000 225.607
43.68000 229.490
43.72000 233.881
43.76000 215.479
43.80000 231.721
43.84000 216.678
43.88000 218.546
43.92000 223.025
43.96000 220.945
44.00000 225.551
44.04000 226.025
44.08000 217.348
44.12000 235.342
44.16000 218.661
44.20000 223.188
44.24000 237.557
44.28000 233.471
44.32000 233.245
44.36000 225.986
44.40000 235.854
44.44000 225.928
44.48000 241.912
44.52000 230.017
44.56000 234.422
44.60000 248.405
44.64000 235.114
44.68000 256.416
44.72000 252.575
44.76000 260.919
44.80000 287.803
44.84000 280.342
44.88000 325.992
44.92000 354.367
44.96000 389.469
45.00000 411.318
45.04000 444.886
45.08000 451.179
45.12000 455.382
45.16000 433.382
45.20000 387.165
45.24000 373.378
45.28000 327.738
45.32000 298.016
45.36000 280.750
45.40000 263.947
45.44000 251.741
45.48000 231.195
45.52000 231.549
45.56000 233.547
45.60000 224.241
45.64000 219.627
45.68000 232.021
45.72000 220.058
45.76000 221.597
45.80000 220.278
45.84000 216.843
45.88000 211.789
45.92000 212.260
45.96000 201.344
46.00000 201.260
46.04000 217.932
46.08000 201.806
46.12000 217.438
46.16000 202.508
46.20000 203.062
46.24000 210.795
46.28000 196.830
46.32000 199.756
46.36000 211.495
46.40000 207.316
46.44000 200.303
46.48000 205.089
46.52000 196.030
46.56000 204.298
46.60000 199.269
46.64000 211.461
46.68000 202.268
46.72000 214.259
46.76000 209.017
46.80000 198.915
46.84000 201.178
46.88000 191.732
46.92000 196.583
46.96000 196.753
47.00000 193.929
47.04000 198.717
47.08000 191.859
47.12000 194.558
47.16000 191.514
47.20000 188.704
47.24000 194.952
47.28000 182.423
47.32000 193.098
47.36000 193.954
47.40000 194.783
47.44000 177.546
47.48000 195.187
47.52000 194.823
47.56000 191.959
47.60000 194.783
47.64000 195.023
47.68000 188.640
47.72000 193.857
47.76000 192.113
47.80000 193.895
47.84000 193.039
47.88000 196.478
47.92000 185.404
47.96000 193.283
48.00000 186.532
48.04000 184.063
48.08000 182.094
48.12000 189.026
48.16000 192.217
48.20000 183.864
48.24000 184.360
48.28000 182.157
48.32000 198.258
48.36000 191.023
48.40000 173.741
48.44000 168.364
48.48000 176.932
48.52000 184.079
48.56000 180.163
48.60000 180.991
48.64000 188.316
48.68000 185.096
48.72000 189.722
48.76000 189.277
48.80000 186.963
48.84000 184.172
48.88000 180.905
48.92000 182.766
48.96000 177.924
49.00000 188.640
49.04000 175.288
49.08000 181.656
49.12000 179.504
49.16000 177.535
49.20000 186.369
49.24000 183.706
49.28000 182.891
49.32000 179.845
49.36000 187.004
49.40000 166.949
49.44000 178.132
49.48000 178.819
49.52000 162.564
49.56000 173.540
49.60000 163.781
49.64000 178.365
49.68000 184.312
49.72000 173.623
49.76000 182.046
49.80000 182.389
49.84000 176.189
49.88000 175.691
49.92000 161.010
49.96000 183.059
50.00000 174.668
50.04000 189.486
50.08000 176.633
50.12000 190.213
50.16000 176.262
50.20000 184.860
50.24000 169.921
50.28000 180.023
50.32000 186.237
50.36000 200.144
50.40000 205.377
50.44000 203.195
50.48000 215.998
50.52000 233.692
50.56000 237.836
50.60000 257.537
50.64000 269.789
50.68000 277.983
50.72000 270.542
50.76000 272.550
50.80000 256.943
50.84000 262.296
50.88000 233.773
50.92000 218.101
50.96000 207.827
51.00000 194.930
51.04000 196.473
51.08000 181.663
51.12000 173.421
51.16000 183.562
51.20000 180.439
51.24000 178.325
51.28000 165.793
51.32000 174.477
51.36000 160.027
51.40000 171.017
51.44000 168.987
51.48000 174.064
51.52000 161.035
51.56000 163.171
51.60000 165.670
51.64000 169.458
51.68000 168.510
51.72000 169.914
51.76000 169.007
51.80000 165.903
51.84000 161.137
51.88000 164.894
51.92000 166.598
51.96000 165.816
52.00000 168.792
52.04000 175.403
52.08000 156.478
52.12000 162.657
52.16000 160.309
52.20000 149.518
52.24000 171.352
52.28000 161.056
52.32000 162.072
52.36000 174.072
52.40000 153.581
52.44000 169.732
52.48000 169.033
52.52000 160.059
52.56000 159.694
52.60000 169.268
52.64000 162.510
52.68000 166.701
52.72000 167.435
52.76000 159.433
52.80000 165.112
52.84000 158.063
52.88000 167.292
52.92000 163.060
52.96000 158.305
53.00000 153.324
53.04000 166.559
53.08000 164.140
53.12000 162.343
53.16000 157.367
53.20000 163.768
53.24000 166.945
53.28000 167.093
53.32000 171.353
53.36000 160.244
53.40000 158.139
53.44000 169.640
53.48000 156.598
53.52000 160.542
53.56000 153.910
53.60000 160.769
53.64000 151.034
53.68000 152.681
53.72000 150.286
53.76000 158.926
53.80000 162.397
53.84000 154.629
53.88000 159.240
53.92000 154.696
53.96000 156.891
54.00000 154.543
54.04000 159.384
54.08000 152.252
54.12000 152.671
54.16000 154.694
54.20000 150.685
54.24000 152.883
54.28000 149.829
54.32000 152.269
54.36000 151.238
54.40000 151.664
54.44000 151.263
54.48000 157.913
54.52000 155.064
54.56000 158.951
54.60000 161.663
54.64000 153.183
54.68000 154.147
54.72000 158.069
54.76000 161.556
54.80000 173.832
54.84000 161.826
54.88000 159.650
54.92000 155.511
54.96000 157.853
55.00000 167.148
55.04000 168.142
55.08000 163.892
55.12000 151.828
55.16000 166.810
55.20000 152.325
55.24000 159.688
55.28000 167.837
55.32000 166.551
55.36000 174.926
55.40000 177.780
55.44000 182.720
55.48000 190.735
55.52000 200.784
55.56000 213.516
55.60000 230.639
55.64000 265.829
55.68000 300.849
55.72000 342.613
55.76000 416.341
55.80000 494.306
55.84000 583.959
55.88000 612.132
55.92000 636.406
55.96000 642.479
56.00000 616.914
56.04000 561.235
56.08000 495.191
56.12000 439.439
56.16000 376.454
56.20000 327.283
56.24000 272.419
56.28000 235.282
56.32000 217.266
56.36000 190.162
56.40000 189.690
56.44000 182.392
56.48000 174.038
56.52000 167.762
56.56000 167.484
56.60000 166.896
56.64000 159.029
56.68000 160.536
56.72000 157.778
56.76000 158.978
56.80000 148.170
56.84000 142.837
56.88000 155.845
56.92000 151.701
56.96000 160.619
57.00000 144.762
57.04000 140.272
57.08000 149.757
57.12000 148.262
57.16000 143.841
57.20000 150.041
57.24000 137.024
57.28000 149.782
57.32000 147.395
57.36000 135.789
57.40000 140.868
57.44000 143.520
57.48000 148.673
57.52000 144.220
57.56000 150.732
57.60000 148.885
57.64000 140.525
57.68000 146.233
57.72000 147.111
57.76000 141.947
57.80000 129.909
57.84000 142.658
57.88000 133.087
57.92000 143.621
57.96000 143.757
58.00000 140.798
58.04000 140.105
58.08000 133.545
58.12000 140.622
58.16000 138.096
58.20000 140.191
58.24000 133.542
58.28000 137.478
58.32000 148.828
58.36000 133.669
58.40000 124.036
58.44000 142.024
58.48000 132.604
58.52000 145.401
58.56000 137.407
58.60000 142.492
58.64000 139.648
58.68000 146.972
58.72000 144.218
58.76000 140.389
58.80000 135.926
58.84000 123.500
58.88000 139.673
58.92000 131.227
58.96000 135.999
59.00000 138.676
59.04000 135.701
59.08000 136.246
59.12000 140.960
59.16000 139.110
59.20000 138.982
59.24000 132.145
59.28000 138.491
59.32000 133.256
59.36000 130.636
59.40000 128.896
59.44000 130.487
59.48000 134.338
59.52000 131.764
59.56000 134.884
59.60000 136.714
59.64000 142.715
59.68000 147.837
59.72000 134.893
59.76000 125.476
59.80000 137.091
59.84000 128.625
59.88000 143.857
59.92000 138.662
59.96000 131.878
60.00000 140.259
60.04000 136.024
60.08000 128.184
60.12000 139.228
60.16000 134.283
60.20000 133.692
60.24000 128.492
60.28000 137.814
60.32000 136.353
60.36000 129.867
60.40000 130.900
60.44000 146.124
60.48000 132.032
60.52000 128.553
60.56000 143.818
60.60000 144.082
60.64000 131.982
60.68000 145.362
60.72000 133.407
60.76000 129.336
60.80000 130.080
60.84000 138.599
60.88000 133.711
60.92000 131.185
60.96000 137.027
61.00000 135.077
61.04000 131.741
61.08000 133.582
61.12000 132.029
61.16000 130.525
61.20000 125.496
61.24000 139.233
61.28000 130.927
61.32000 139.255
61.36000 133.851
61.40000 141.979
61.44000 140.742
61.48000 139.788
61.52000 170.675
61.56000 205.968
61.60000 256.860
61.64000 281.961
61.68000 288.694
61.72000 314.808
61.76000 293.058
61.80000 252.213
61.84000 189.623
61.88000 168.970
61.92000 143.851
61.96000 148.257
62.00000 143.786
62.04000 127.080
62.08000 131.320
62.12000 143.308
62.16000 140.139
62.20000 150.159
62.24000 136.341
62.28000 146.545
62.32000 142.531
62.36000 148.818
62.40000 148.389
62.44000 142.201
62.48000 149.000
62.52000 147.824
62.56000 142.441
62.60000 143.826
62.64000 142.237
62.68000 153.911
62.72000 151.990
62.76000 144.218
62.80000 145.454
62.84000 137.472
62.88000 151.886
62.92000 149.976
62.96000 145.355
63.00000 153.891
63.04000 157.020
63.08000 136.698
63.12000 150.742
63.16000 151.081
63.20000 149.980
63.24000 150.704
63.28000 147.556
63.32000 147.474
63.36000 152.095
63.40000 148.867
63.44000 149.326
63.48000 150.084
63.52000 152.006
63.56000 157.137
63.60000 147.558
63.64000 152.479
63.68000 169.222
63.72000 152.464
63.76000 157.318
63.80000 161.886
63.84000 156.352
63.88000 147.504
63.92000 158.095
63.96000 154.993
64.00000 153.666
64.04000 164.148
64.08000 166.967
64.12000 151.572
64.16000 150.225
64.20000 164.926
64.24000 168.808
64.28000 165.114
64.32000 174.483
64.36000 165.413
64.40000 161.945
64.44000 172.646
64.48000 167.190
64.52000 170.313
64.56000 181.664
64.60000 181.554
64.64000 164.425
64.68000 164.166
64.72000 166.847
64.76000 179.841
64.80000 174.079
64.84000 185.843
64.88000 192.246
64.92000 190.189
64.96000 184.509
65.00000 196.036
65.04000 209.402
65.08000 212.576
65.12000 216.113
65.16000 222.953
65.20000 239.534
65.24000 261.381
65.28000 269.294
65.32000 296.071
65.36000 329.808
65.40000 351.582
65.44000 378.633
65.48000 412.847
65.52000 420.660
65.56000 450.583
65.60000 455.542
65.64000 464.793
65.68000 523.484
65.72000 667.735
65.76000 880.909
65.80000 1086.882
65.84000 1205.645
65.88000 1253.538
65.92000 1239.038
65.96000 1047.787
66.00000 754.844
66.04000 532.149
66.08000 364.922
66.12000 335.570
66.16000 310.822
66.20000 301.879
66.24000 325.573
66.28000 362.088
66.32000 407.902
66.36000 419.937
66.40000 471.248
66.44000 483.240
66.48000 484.659
66.52000 441.176
66.56000 382.309
66.60000 347.791
66.64000 335.466
66.68000 327.687
66.72000 313.935
66.76000 327.853
66.80000 337.516
66.84000 342.773
66.88000 345.212
66.92000 339.850
66.96000 357.466
67.00000 340.087
67.04000 360.958
67.08000 377.746
67.12000 382.445
67.16000 395.536
67.20000 374.764
67.24000 402.557
67.28000 413.342
67.32000 395.194
67.36000 419.468
67.40000 425.611
67.44000 438.850
67.48000 423.416
67.52000 435.498
67.56000 468.122
67.60000 470.126
67.64000 467.761
67.68000 479.532
67.72000 495.896
67.76000 495.922
67.80000 501.996
67.84000 510.027
67.88000 503.689
67.92000 528.565
67.96000 533.452
68.00000 560.885
68.04000 570.982
68.08000 577.353
68.12000 581.303
68.16000 603.786
68.20000 623.069
68.24000 649.134
68.28000 661.798
68.32000 672.245
68.36000 724.258
68.40000 728.484
68.44000 740.126
68.48000 811.945
68.52000 844.281
68.56000 951.171
68.60000 1048.924
68.64000 1205.038
68.68000 1419.112
68.72000 1684.355
68.76000 1936.352
68.80000 2152.229
68.84000 2505.829
68.88000 2883.040
68.92000 4982.286
68.96000 12028.105
69.00000 31207.750
69.04000 54356.449
69.08000 67715.609
69.12000 70074.938
69.16000 72630.789
69.20000 73588.625
69.24000 63674.926
69.28000 49206.207
69.32000 39341.465
69.36000 35220.344
69.40000 30042.785
69.44000 19035.170
69.48000 9101.013
69.52000 3876.939
69.56000 2214.173
69.60000 1691.093
69.64000 1433.608
69.68000 1235.730
69.72000 1104.238
69.76000 1018.209
69.80000 969.328
69.84000 878.262
69.88000 833.752
69.92000 783.369
69.96000 757.947
70.00000 753.028