File: XRD/XRD/30-09-2025 Dep 1/XY Data/BTO_Mapping_Theta2Theta_30-09-2025_001_04_30-000_0-000.xy
20.00000 542.244
20.04000 563.622
20.08000 563.581
20.12000 569.482
20.16000 565.135
20.20000 563.714
20.24000 563.133
20.28000 573.753
20.32000 579.047
20.36000 577.520
20.40000 589.259
20.44000 543.418
20.48000 573.635
20.52000 563.186
20.56000 549.835
20.60000 543.528
20.64000 549.979
20.68000 550.092
20.72000 532.610
20.76000 538.368
20.80000 538.220
20.84000 585.621
20.88000 539.569
20.92000 559.624
20.96000 560.944
21.00000 552.687
21.04000 557.263
21.08000 571.911
21.12000 553.373
21.16000 558.262
21.20000 545.209
21.24000 535.192
21.28000 563.476
21.32000 555.342
21.36000 543.158
21.40000 562.711
21.44000 539.569
21.48000 554.906
21.52000 548.116
21.56000 571.655
21.60000 559.345
21.64000 565.895
21.68000 591.172
21.72000 578.683
21.76000 601.713
21.80000 602.716
21.84000 633.528
21.88000 722.283
21.92000 729.121
21.96000 809.224
22.00000 817.892
22.04000 833.846
22.08000 816.154
22.12000 779.572
22.16000 708.399
22.20000 690.153
22.24000 633.252
22.28000 593.626
22.32000 579.256
22.36000 562.488
22.40000 556.787
22.44000 553.828
22.48000 548.619
22.52000 537.660
22.56000 539.776
22.60000 545.564
22.64000 527.365
22.68000 527.174
22.72000 526.047
22.76000 526.888
22.80000 518.427
22.84000 522.175
22.88000 517.234
22.92000 544.747
22.96000 529.637
23.00000 496.011
23.04000 502.294
23.08000 519.872
23.12000 502.915
23.16000 504.266
23.20000 512.849
23.24000 536.359
23.28000 512.598
23.32000 514.978
23.36000 522.714
23.40000 516.817
23.44000 514.059
23.48000 508.309
23.52000 507.105
23.56000 512.172
23.60000 509.969
23.64000 521.784
23.68000 513.075
23.72000 527.646
23.76000 502.904
23.80000 503.469
23.84000 498.724
23.88000 486.983
23.92000 489.222
23.96000 502.175
24.00000 510.252
24.04000 529.349
24.08000 496.195
24.12000 507.510
24.16000 502.651
24.20000 494.453
24.24000 494.147
24.28000 501.749
24.32000 505.553
24.36000 490.610
24.40000 504.271
24.44000 511.189
24.48000 488.923
24.52000 473.479
24.56000 479.268
24.60000 496.224
24.64000 500.025
24.68000 482.319
24.72000 479.354
24.76000 479.725
24.80000 508.321
24.84000 491.028
24.88000 497.254
24.92000 477.044
24.96000 475.938
25.00000 479.899
25.04000 488.387
25.08000 486.351
25.12000 494.109
25.16000 476.585
25.20000 486.467
25.24000 470.585
25.28000 483.982
25.32000 477.061
25.36000 480.221
25.40000 491.051
25.44000 474.404
25.48000 476.517
25.52000 487.225
25.56000 460.497
25.60000 470.568
25.64000 454.077
25.68000 471.954
25.72000 469.197
25.76000 476.251
25.80000 460.495
25.84000 477.304
25.88000 440.165
25.92000 460.427
25.96000 464.861
26.00000 456.142
26.04000 461.693
26.08000 487.258
26.12000 455.454
26.16000 475.964
26.20000 473.378
26.24000 459.741
26.28000 472.533
26.32000 454.170
26.36000 458.123
26.40000 436.402
26.44000 446.034
26.48000 453.984
26.52000 450.540
26.56000 443.153
26.60000 467.259
26.64000 477.479
26.68000 456.454
26.72000 473.871
26.76000 466.162
26.80000 444.204
26.84000 454.310
26.88000 470.760
26.92000 448.791
26.96000 459.376
27.00000 455.193
27.04000 446.334
27.08000 452.935
27.12000 449.988
27.16000 422.142
27.20000 441.484
27.24000 436.449
27.28000 456.663
27.32000 455.030
27.36000 441.610
27.40000 438.968
27.44000 442.769
27.48000 432.451
27.52000 419.860
27.56000 425.400
27.60000 461.049
27.64000 447.269
27.68000 434.485
27.72000 447.771
27.76000 448.151
27.80000 434.767
27.84000 436.230
27.88000 447.419
27.92000 443.548
27.96000 432.741
28.00000 428.042
28.04000 470.495
28.08000 437.089
28.12000 444.199
28.16000 461.007
28.20000 443.732
28.24000 445.440
28.28000 448.034
28.32000 428.168
28.36000 447.084
28.40000 438.412
28.44000 437.985
28.48000 436.635
28.52000 433.998
28.56000 435.965
28.60000 411.717
28.64000 426.779
28.68000 409.489
28.72000 429.062
28.76000 409.782
28.80000 429.518
28.84000 427.326
28.88000 436.794
28.92000 420.906
28.96000 435.892
29.00000 419.966
29.04000 422.825
29.08000 420.523
29.12000 417.561
29.16000 424.044
29.20000 430.253
29.24000 447.352
29.28000 422.790
29.32000 428.244
29.36000 418.985
29.40000 432.746
29.44000 419.563
29.48000 423.161
29.52000 426.124
29.56000 404.085
29.60000 431.335
29.64000 408.186
29.68000 410.203
29.72000 442.642
29.76000 425.470
29.80000 428.859
29.84000 429.146
29.88000 463.738
29.92000 444.967
29.96000 456.152
30.00000 455.997
30.04000 466.012
30.08000 471.272
30.12000 465.954
30.16000 441.973
30.20000 442.858
30.24000 423.981
30.28000 439.903
30.32000 442.294
30.36000 424.704
30.40000 438.666
30.44000 442.449
30.48000 425.360
30.52000 438.439
30.56000 436.185
30.60000 450.701
30.64000 449.236
30.68000 458.786
30.72000 477.247
30.76000 449.573
30.80000 477.499
30.84000 496.359
30.88000 492.911
30.92000 530.587
30.96000 564.102
31.00000 642.555
31.04000 736.905
31.08000 907.314
31.12000 1180.692
31.16000 1586.580
31.20000 2117.973
31.24000 2771.690
31.28000 3462.240
31.32000 3959.345
31.36000 4133.321
31.40000 4048.323
31.44000 3613.035
31.48000 3018.549
31.52000 2305.907
31.56000 1652.659
31.60000 1180.012
31.64000 888.731
31.68000 674.443
31.72000 596.097
31.76000 551.546
31.80000 498.583
31.84000 464.607
31.88000 447.992
31.92000 410.037
31.96000 440.014
32.00000 424.741
32.04000 409.133
32.08000 416.800
32.12000 411.902
32.16000 406.809
32.20000 401.925
32.24000 422.202
32.28000 409.093
32.32000 397.708
32.36000 384.180
32.40000 386.907
32.44000 382.864
32.48000 400.539
32.52000 397.055
32.56000 387.019
32.60000 381.983
32.64000 376.052
32.68000 384.280
32.72000 387.587
32.76000 393.850
32.80000 382.700
32.84000 373.155
32.88000 403.759
32.92000 448.929
32.96000 450.785
33.00000 463.194
33.04000 444.895
33.08000 421.382
33.12000 411.442
33.16000 397.338
33.20000 385.525
33.24000 369.535
33.28000 355.634
33.32000 355.902
33.36000 328.402
33.40000 346.237
33.44000 353.767
33.48000 348.869
33.52000 342.738
33.56000 329.739
33.60000 336.423
33.64000 319.167
33.68000 335.314
33.72000 337.301
33.76000 338.426
33.80000 348.605
33.84000 357.648
33.88000 342.834
33.92000 330.263
33.96000 334.360
34.00000 345.824
34.04000 327.800
34.08000 347.453
34.12000 331.936
34.16000 332.469
34.20000 349.635
34.24000 339.707
34.28000 341.193
34.32000 346.905
34.36000 337.470
34.40000 347.203
34.44000 335.855
34.48000 323.245
34.52000 330.034
34.56000 327.028
34.60000 334.747
34.64000 324.507
34.68000 333.200
34.72000 329.467
34.76000 325.819
34.80000 332.583
34.84000 330.242
34.88000 319.414
34.92000 322.112
34.96000 316.281
35.00000 308.622
35.04000 316.682
35.08000 322.084
35.12000 322.209
35.16000 320.651
35.20000 317.389
35.24000 323.948
35.28000 324.158
35.32000 314.130
35.36000 316.376
35.40000 313.173
35.44000 318.542
35.48000 317.902
35.52000 314.899
35.56000 329.917
35.60000 321.658
35.64000 320.169
35.68000 301.489
35.72000 323.170
35.76000 309.820
35.80000 312.217
35.84000 312.767
35.88000 309.098
35.92000 315.527
35.96000 304.516
36.00000 291.899
36.04000 311.803
36.08000 298.519
36.12000 302.891
36.16000 301.149
36.20000 298.734
36.24000 300.576
36.28000 292.976
36.32000 296.658
36.36000 306.063
36.40000 295.140
36.44000 311.717
36.48000 302.379
36.52000 292.973
36.56000 310.846
36.60000 306.635
36.64000 314.493
36.68000 312.707
36.72000 315.476
36.76000 313.394
36.80000 296.199
36.84000 297.145
36.88000 308.672
36.92000 303.164
36.96000 305.497
37.00000 306.387
37.04000 301.138
37.08000 318.035
37.12000 311.096
37.16000 297.180
37.20000 299.578
37.24000 311.496
37.28000 310.909
37.32000 295.950
37.36000 304.874
37.40000 293.219
37.44000 295.311
37.48000 317.054
37.52000 310.281
37.56000 302.051
37.60000 286.034
37.64000 287.135
37.68000 274.287
37.72000 274.990
37.76000 282.465
37.80000 287.122
37.84000 292.372
37.88000 287.470
37.92000 288.747
37.96000 302.790
38.00000 299.646
38.04000 292.136
38.08000 310.000
38.12000 291.815
38.16000 292.465
38.20000 307.700
38.24000 308.541
38.28000 297.103
38.32000 330.121
38.36000 352.279
38.40000 364.878
38.44000 383.105
38.48000 437.548
38.52000 497.145
38.56000 570.687
38.60000 656.478
38.64000 731.813
38.68000 786.943
38.72000 812.534
38.76000 788.576
38.80000 709.950
38.84000 640.062
38.88000 535.226
38.92000 463.399
38.96000 374.422
39.00000 359.022
39.04000 322.667
39.08000 304.999
39.12000 301.999
39.16000 307.972
39.20000 280.583
39.24000 280.229
39.28000 293.453
39.32000 281.038
39.36000 283.209
39.40000 268.399
39.44000 264.610
39.48000 272.746
39.52000 260.329
39.56000 263.451
39.60000 266.875
39.64000 265.722
39.68000 259.986
39.72000 259.586
39.76000 272.393
39.80000 264.924
39.84000 275.592
39.88000 274.627
39.92000 268.577
39.96000 256.987
40.00000 264.271
40.04000 258.627
40.08000 253.800
40.12000 258.310
40.16000 264.692
40.20000 253.477
40.24000 252.526
40.28000 257.615
40.32000 248.463
40.36000 244.239
40.40000 251.365
40.44000 260.525
40.48000 267.575
40.52000 244.859
40.56000 256.524
40.60000 250.328
40.64000 254.333
40.68000 239.088
40.72000 256.025
40.76000 261.057
40.80000 259.524
40.84000 260.054
40.88000 242.146
40.92000 237.889
40.96000 247.267
41.00000 245.936
41.04000 250.163
41.08000 254.245
41.12000 257.398
41.16000 259.437
41.20000 254.337
41.24000 244.716
41.28000 238.755
41.32000 242.066
41.36000 247.336
41.40000 244.357
41.44000 249.392
41.48000 252.193
41.52000 250.252
41.56000 248.975
41.60000 246.362
41.64000 230.382
41.68000 238.067
41.72000 246.676
41.76000 231.040
41.80000 238.679
41.84000 241.523
41.88000 225.951
41.92000 241.948
41.96000 253.538
42.00000 237.106
42.04000 229.587
42.08000 235.751
42.12000 231.782
42.16000 249.162
42.20000 236.865
42.24000 228.062
42.28000 240.033
42.32000 235.135
42.36000 252.564
42.40000 230.241
42.44000 233.748
42.48000 231.281
42.52000 236.653
42.56000 239.548
42.60000 233.705
42.64000 230.639
42.68000 232.742
42.72000 229.443
42.76000 227.061
42.80000 221.850
42.84000 234.158
42.88000 250.345
42.92000 237.184
42.96000 238.027
43.00000 232.097
43.04000 225.031
43.08000 222.030
43.12000 225.818
43.16000 229.277
43.20000 238.989
43.24000 236.205
43.28000 213.955
43.32000 226.147
43.36000 226.652
43.40000 238.122
43.44000 223.548
43.48000 232.728
43.52000 215.477
43.56000 222.701
43.60000 210.787
43.64000 233.745
43.68000 226.538
43.72000 226.062
43.76000 227.876
43.80000 235.128
43.84000 233.122
43.88000 231.175
43.92000 228.300
43.96000 226.169
44.00000 233.149
44.04000 229.597
44.08000 217.599
44.12000 216.441
44.16000 231.084
44.20000 218.297
44.24000 232.431
44.28000 228.226
44.32000 234.734
44.36000 220.690
44.40000 227.306
44.44000 238.483
44.48000 222.652
44.52000 230.490
44.56000 235.833
44.60000 245.668
44.64000 242.293
44.68000 248.183
44.72000 269.934
44.76000 277.934
44.80000 306.998
44.84000 321.048
44.88000 354.158
44.92000 397.784
44.96000 426.116
45.00000 441.246
45.04000 475.659
45.08000 470.405
45.12000 442.061
45.16000 424.566
45.20000 377.672
45.24000 335.488
45.28000 323.119
45.32000 310.732
45.36000 274.208
45.40000 256.445
45.44000 239.763
45.48000 238.401
45.52000 245.851
45.56000 232.556
45.60000 224.753
45.64000 218.834
45.68000 219.799
45.72000 214.431
45.76000 209.165
45.80000 212.179
45.84000 213.974
45.88000 222.860
45.92000 222.046
45.96000 203.422
46.00000 193.276
46.04000 197.691
46.08000 219.993
46.12000 211.898
46.16000 212.123
46.20000 218.048
46.24000 208.524
46.28000 210.332
46.32000 214.856
46.36000 207.969
46.40000 205.519
46.44000 207.693
46.48000 206.761
46.52000 211.052
46.56000 215.164
46.60000 203.821
46.64000 202.663
46.68000 189.230
46.72000 199.500
46.76000 194.377
46.80000 191.531
46.84000 195.520
46.88000 203.396
46.92000 186.384
46.96000 189.483
47.00000 182.330
47.04000 184.341
47.08000 193.947
47.12000 196.133
47.16000 199.906
47.20000 209.195
47.24000 178.670
47.28000 189.418
47.32000 182.315
47.36000 191.334
47.40000 191.747
47.44000 205.287
47.48000 198.420
47.52000 192.794
47.56000 186.814
47.60000 182.378
47.64000 192.192
47.68000 190.763
47.72000 181.341
47.76000 190.237
47.80000 195.074
47.84000 200.279
47.88000 190.824
47.92000 182.978
47.96000 191.156
48.00000 185.860
48.04000 193.106
48.08000 189.320
48.12000 191.041
48.16000 183.097
48.20000 180.284
48.24000 194.752
48.28000 184.905
48.32000 197.910
48.36000 170.142
48.40000 177.125
48.44000 178.042
48.48000 187.777
48.52000 188.545
48.56000 181.215
48.60000 192.214
48.64000 197.832
48.68000 195.982
48.72000 172.798
48.76000 180.009
48.80000 182.303
48.84000 178.468
48.88000 195.349
48.92000 180.125
48.96000 170.448
49.00000 186.798
49.04000 186.300
49.08000 186.996
49.12000 189.380
49.16000 186.777
49.20000 192.152
49.24000 185.521
49.28000 177.312
49.32000 170.029
49.36000 170.174
49.40000 179.949
49.44000 183.621
49.48000 184.363
49.52000 171.875
49.56000 173.749
49.60000 179.409
49.64000 181.028
49.68000 188.736
49.72000 183.979
49.76000 181.849
49.80000 177.818
49.84000 175.346
49.88000 175.407
49.92000 183.322
49.96000 181.368
50.00000 173.894
50.04000 174.802
50.08000 177.986
50.12000 175.923
50.16000 178.174
50.20000 187.053
50.24000 191.473
50.28000 194.437
50.32000 196.127
50.36000 188.270
50.40000 192.484
50.44000 221.362
50.48000 226.682
50.52000 235.352
50.56000 262.348
50.60000 264.072
50.64000 291.544
50.68000 293.135
50.72000 277.369
50.76000 265.543
50.80000 267.751
50.84000 253.085
50.88000 236.848
50.92000 220.494
50.96000 212.319
51.00000 198.530
51.04000 182.518
51.08000 187.408
51.12000 181.954
51.16000 177.906
51.20000 173.538
51.24000 167.539
51.28000 166.349
51.32000 178.256
51.36000 170.297
51.40000 176.001
51.44000 177.119
51.48000 169.311
51.52000 163.831
51.56000 162.147
51.60000 178.712
51.64000 162.191
51.68000 168.476
51.72000 169.417
51.76000 167.264
51.80000 165.226
51.84000 166.691
51.88000 167.657
51.92000 156.811
51.96000 162.091
52.00000 168.657
52.04000 169.959
52.08000 172.800
52.12000 147.188
52.16000 167.949
52.20000 172.724
52.24000 173.443
52.28000 166.226
52.32000 164.224
52.36000 159.962
52.40000 160.350
52.44000 159.124
52.48000 162.208
52.52000 169.208
52.56000 163.952
52.60000 155.533
52.64000 172.179
52.68000 156.104
52.72000 166.066
52.76000 157.604
52.80000 154.599
52.84000 162.281
52.88000 164.553
52.92000 162.113
52.96000 154.599
53.00000 160.880
53.04000 171.231
53.08000 156.252
53.12000 167.365
53.16000 160.755
53.20000 165.290
53.24000 171.412
53.28000 168.884
53.32000 160.355
53.36000 165.938
53.40000 161.682
53.44000 167.690
53.48000 174.313
53.52000 157.600
53.56000 154.968
53.60000 161.723
53.64000 162.168
53.68000 157.670
53.72000 156.387
53.76000 157.610
53.80000 155.419
53.84000 156.317
53.88000 164.523
53.92000 163.296
53.96000 145.992
54.00000 151.308
54.04000 149.508
54.08000 146.067
54.12000 160.351
54.16000 149.538
54.20000 161.057
54.24000 154.706
54.28000 151.116
54.32000 155.122
54.36000 160.941
54.40000 149.674
54.44000 154.423
54.48000 162.643
54.52000 148.940
54.56000 158.457
54.60000 144.003
54.64000 159.793
54.68000 176.743
54.72000 153.631
54.76000 153.950
54.80000 156.713
54.84000 154.042
54.88000 162.926
54.92000 156.672
54.96000 171.440
55.00000 170.614
55.04000 164.154
55.08000 156.865
55.12000 159.257
55.16000 156.465
55.20000 154.680
55.24000 156.014
55.28000 159.602
55.32000 165.808
55.36000 171.933
55.40000 190.709
55.44000 177.093
55.48000 190.796
55.52000 190.694
55.56000 226.054
55.60000 250.400
55.64000 284.775
55.68000 336.707
55.72000 403.552
55.76000 461.905
55.80000 535.762
55.84000 596.927
55.88000 663.883
55.92000 661.580
55.96000 655.680
56.00000 649.324
56.04000 579.704
56.08000 502.668
56.12000 450.439
56.16000 365.463
56.20000 323.724
56.24000 276.539
56.28000 240.907
56.32000 206.604
56.36000 219.072
56.40000 183.080
56.44000 184.953
56.48000 158.172
56.52000 168.801
56.56000 165.509
56.60000 164.345
56.64000 156.084
56.68000 157.250
56.72000 155.274
56.76000 160.944
56.80000 156.700
56.84000 149.273
56.88000 152.070
56.92000 156.092
56.96000 153.174
57.00000 145.541
57.04000 147.179
57.08000 144.644
57.12000 142.589
57.16000 139.518
57.20000 151.476
57.24000 146.266
57.28000 132.056
57.32000 147.769
57.36000 151.061
57.40000 145.035
57.44000 152.424
57.48000 140.085
57.52000 139.534
57.56000 146.085
57.60000 144.585
57.64000 149.421
57.68000 141.238
57.72000 149.839
57.76000 142.868
57.80000 149.241
57.84000 149.929
57.88000 136.785
57.92000 135.232
57.96000 140.323
58.00000 132.401
58.04000 144.569
58.08000 151.139
58.12000 139.100
58.16000 148.668
58.20000 139.999
58.24000 140.690
58.28000 132.216
58.32000 143.817
58.36000 151.497
58.40000 132.410
58.44000 139.853
58.48000 148.479
58.52000 126.492
58.56000 143.830
58.60000 137.258
58.64000 133.623
58.68000 134.237
58.72000 138.262
58.76000 128.482
58.80000 137.009
58.84000 131.814
58.88000 148.395
58.92000 126.094
58.96000 127.750
59.00000 133.942
59.04000 134.197
59.08000 126.651
59.12000 138.620
59.16000 140.709
59.20000 140.872
59.24000 139.928
59.28000 128.306
59.32000 137.242
59.36000 136.780
59.40000 140.261
59.44000 144.771
59.48000 137.349
59.52000 140.256
59.56000 133.752
59.60000 142.529
59.64000 136.864
59.68000 130.307
59.72000 130.562
59.76000 134.480
59.80000 134.919
59.84000 141.097
59.88000 130.025
59.92000 138.205
59.96000 136.509
60.00000 130.637
60.04000 129.260
60.08000 135.947
60.12000 129.487
60.16000 140.797
60.20000 129.358
60.24000 136.766
60.28000 129.701
60.32000 137.522
60.36000 133.915
60.40000 126.992
60.44000 127.858
60.48000 131.444
60.52000 136.303
60.56000 140.420
60.60000 131.474
60.64000 131.462
60.68000 136.313
60.72000 140.325
60.76000 130.992
60.80000 130.497
60.84000 136.747
60.88000 145.461
60.92000 140.650
60.96000 130.714
61.00000 128.023
61.04000 132.956
61.08000 145.029
61.12000 133.135
61.16000 141.946
61.20000 138.836
61.24000 134.343
61.28000 134.087
61.32000 138.088
61.36000 135.494
61.40000 139.757
61.44000 146.095
61.48000 158.421
61.52000 190.600
61.56000 235.946
61.60000 267.946
61.64000 313.720
61.68000 337.957
61.72000 331.934
61.76000 288.300
61.80000 231.386
61.84000 180.600
61.88000 157.425
61.92000 146.521
61.96000 142.150
62.00000 140.583
62.04000 161.203
62.08000 149.340
62.12000 142.411
62.16000 150.814
62.20000 141.562
62.24000 141.732
62.28000 138.450
62.32000 134.209
62.36000 145.848
62.40000 150.356
62.44000 148.368
62.48000 140.728
62.52000 140.950
62.56000 140.847
62.60000 143.344
62.64000 140.025
62.68000 140.582
62.72000 133.039
62.76000 147.314
62.80000 149.529
62.84000 147.780
62.88000 133.841
62.92000 146.250
62.96000 141.740
63.00000 147.708
63.04000 152.293
63.08000 152.582
63.12000 143.374
63.16000 149.844
63.20000 145.675
63.24000 145.357
63.28000 149.345
63.32000 153.247
63.36000 145.572
63.40000 147.908
63.44000 152.229
63.48000 146.724
63.52000 142.406
63.56000 152.402
63.60000 149.565
63.64000 149.613
63.68000 154.483
63.72000 150.146
63.76000 152.871
63.80000 157.821
63.84000 158.134
63.88000 170.603
63.92000 155.258
63.96000 163.150
64.00000 162.970
64.04000 149.804
64.08000 160.728
64.12000 164.562
64.16000 162.539
64.20000 166.083
64.24000 168.186
64.28000 165.774
64.32000 168.106
64.36000 159.487
64.40000 166.422
64.44000 161.557
64.48000 163.399
64.52000 168.942
64.56000 181.912
64.60000 174.762
64.64000 162.090
64.68000 174.131
64.72000 180.521
64.76000 167.080
64.80000 180.896
64.84000 193.564
64.88000 186.115
64.92000 189.607
64.96000 200.025
65.00000 202.322
65.04000 199.422
65.08000 212.239
65.12000 220.939
65.16000 235.263
65.20000 251.586
65.24000 267.771
65.28000 297.131
65.32000 305.186
65.36000 338.654
65.40000 391.384
65.44000 399.409
65.48000 457.091
65.52000 467.259
65.56000 499.455
65.60000 485.646
65.64000 541.807
65.68000 652.876
65.72000 800.509
65.76000 1065.288
65.80000 1246.006
65.84000 1335.095
65.88000 1353.219
65.92000 1243.976
65.96000 978.438
66.00000 689.101
66.04000 462.524
66.08000 365.592
66.12000 340.579
66.16000 321.827
66.20000 312.832
66.24000 347.663
66.28000 376.123
66.32000 443.197
66.36000 506.539
66.40000 485.974
66.44000 495.049
66.48000 466.788
66.52000 418.160
66.56000 382.505
66.60000 340.545
66.64000 325.279
66.68000 345.122
66.72000 338.941
66.76000 341.401
66.80000 341.510
66.84000 346.728
66.88000 366.396
66.92000 358.512
66.96000 358.605
67.00000 359.583
67.04000 380.357
67.08000 361.551
67.12000 391.815
67.16000 377.646
67.20000 414.776
67.24000 410.594
67.28000 415.455
67.32000 401.627
67.36000 429.921
67.40000 432.155
67.44000 440.104
67.48000 444.369
67.52000 463.363
67.56000 459.459
67.60000 463.392
67.64000 493.042
67.68000 498.085
67.72000 525.465
67.76000 503.281
67.80000 518.120
67.84000 513.852
67.88000 543.056
67.92000 553.993
67.96000 569.216
68.00000 577.106
68.04000 576.627
68.08000 586.570
68.12000 626.982
68.16000 628.998
68.20000 664.186
68.24000 670.716
68.28000 707.360
68.32000 715.506
68.36000 741.809
68.40000 780.078
68.44000 815.466
68.48000 840.788
68.52000 913.034
68.56000 1001.541
68.60000 1170.189
68.64000 1376.694
68.68000 1605.474
68.72000 1870.236
68.76000 2149.466
68.80000 2454.817
68.84000 2956.254
68.88000 3939.019
68.92000 8882.417
68.96000 21803.471
69.00000 45889.723
69.04000 66280.180
69.08000 74891.789
69.12000 76999.258
69.16000 79769.109
69.20000 76340.617
69.24000 61492.426
69.28000 47509.418
69.32000 40328.945
69.36000 35889.008
69.40000 27621.113
69.44000 15475.170
69.48000 6743.373
69.52000 3249.001
69.56000 2083.111
69.60000 1655.866
69.64000 1411.253
69.68000 1252.726
69.72000 1136.599
69.76000 1036.196
69.80000 970.433
69.84000 884.989
69.88000 875.533
69.92000 816.262
69.96000 776.268
70.00000 760.456