File: XRD/XRD/30-09-2025 Dep 1/XY Data/BTO_Mapping_Theta2Theta_30-09-2025_001_08_27-406_12-202.xy
20.00000 572.466
20.04000 568.035
20.08000 561.284
20.12000 556.494
20.16000 547.243
20.20000 573.344
20.24000 564.077
20.28000 559.946
20.32000 585.419
20.36000 561.684
20.40000 560.920
20.44000 562.116
20.48000 542.902
20.52000 562.857
20.56000 566.949
20.60000 579.837
20.64000 537.670
20.68000 551.317
20.72000 554.253
20.76000 557.581
20.80000 560.580
20.84000 535.316
20.88000 577.512
20.92000 578.696
20.96000 555.054
21.00000 557.059
21.04000 550.878
21.08000 546.756
21.12000 559.316
21.16000 546.988
21.20000 545.224
21.24000 576.200
21.28000 534.767
21.32000 545.483
21.36000 535.266
21.40000 545.622
21.44000 585.455
21.48000 566.723
21.52000 552.172
21.56000 565.092
21.60000 544.858
21.64000 564.852
21.68000 544.346
21.72000 581.489
21.76000 580.633
21.80000 575.529
21.84000 603.667
21.88000 631.010
21.92000 663.563
21.96000 692.565
22.00000 695.954
22.04000 713.989
22.08000 702.239
22.12000 693.356
22.16000 678.411
22.20000 647.406
22.24000 628.324
22.28000 599.693
22.32000 567.177
22.36000 547.408
22.40000 563.758
22.44000 539.815
22.48000 562.448
22.52000 528.436
22.56000 535.010
22.60000 529.482
22.64000 534.752
22.68000 536.077
22.72000 521.134
22.76000 515.997
22.80000 533.334
22.84000 527.567
22.88000 518.930
22.92000 514.873
22.96000 523.691
23.00000 523.179
23.04000 501.516
23.08000 506.149
23.12000 519.243
23.16000 508.869
23.20000 525.287
23.24000 512.590
23.28000 503.271
23.32000 499.332
23.36000 508.010
23.40000 514.136
23.44000 515.733
23.48000 508.309
23.52000 502.298
23.56000 503.238
23.60000 506.723
23.64000 497.707
23.68000 506.242
23.72000 531.748
23.76000 505.486
23.80000 477.908
23.84000 526.773
23.88000 511.757
23.92000 527.677
23.96000 527.851
24.00000 520.534
24.04000 511.907
24.08000 511.043
24.12000 519.480
24.16000 515.113
24.20000 533.044
24.24000 512.123
24.28000 497.141
24.32000 497.698
24.36000 528.233
24.40000 499.971
24.44000 495.056
24.48000 509.347
24.52000 495.604
24.56000 507.104
24.60000 476.091
24.64000 474.072
24.68000 486.223
24.72000 496.543
24.76000 499.277
24.80000 491.896
24.84000 481.076
24.88000 490.370
24.92000 478.250
24.96000 487.274
25.00000 491.575
25.04000 486.865
25.08000 484.331
25.12000 459.312
25.16000 471.868
25.20000 472.867
25.24000 470.670
25.28000 482.994
25.32000 468.724
25.36000 466.849
25.40000 458.796
25.44000 466.422
25.48000 466.724
25.52000 470.199
25.56000 478.612
25.60000 454.972
25.64000 457.144
25.68000 458.671
25.72000 458.525
25.76000 469.845
25.80000 447.134
25.84000 480.261
25.88000 490.945
25.92000 462.865
25.96000 463.932
26.00000 464.154
26.04000 466.296
26.08000 464.644
26.12000 459.431
26.16000 465.425
26.20000 459.748
26.24000 478.785
26.28000 476.099
26.32000 483.650
26.36000 464.332
26.40000 465.136
26.44000 444.281
26.48000 468.114
26.52000 459.522
26.56000 443.643
26.60000 449.341
26.64000 466.600
26.68000 446.902
26.72000 465.554
26.76000 443.445
26.80000 445.585
26.84000 450.343
26.88000 452.835
26.92000 441.680
26.96000 454.654
27.00000 451.305
27.04000 444.934
27.08000 443.335
27.12000 450.764
27.16000 440.646
27.20000 451.521
27.24000 422.814
27.28000 446.697
27.32000 447.747
27.36000 443.586
27.40000 443.079
27.44000 437.905
27.48000 436.875
27.52000 420.753
27.56000 444.158
27.60000 440.664
27.64000 453.939
27.68000 434.092
27.72000 442.934
27.76000 445.559
27.80000 435.623
27.84000 435.009
27.88000 420.697
27.92000 437.454
27.96000 408.226
28.00000 440.960
28.04000 443.500
28.08000 440.196
28.12000 445.219
28.16000 430.388
28.20000 431.912
28.24000 439.084
28.28000 430.133
28.32000 425.877
28.36000 424.602
28.40000 438.323
28.44000 431.979
28.48000 421.203
28.52000 429.686
28.56000 417.975
28.60000 418.229
28.64000 436.377
28.68000 422.092
28.72000 419.860
28.76000 417.653
28.80000 422.378
28.84000 442.131
28.88000 431.832
28.92000 410.245
28.96000 408.057
29.00000 396.729
29.04000 418.212
29.08000 424.681
29.12000 410.756
29.16000 414.002
29.20000 393.683
29.24000 418.562
29.28000 423.180
29.32000 430.445
29.36000 425.263
29.40000 404.737
29.44000 406.320
29.48000 418.338
29.52000 431.232
29.56000 422.294
29.60000 408.386
29.64000 400.445
29.68000 422.839
29.72000 404.587
29.76000 426.080
29.80000 418.489
29.84000 435.959
29.88000 428.338
29.92000 449.596
29.96000 447.618
30.00000 444.960
30.04000 436.958
30.08000 453.511
30.12000 434.683
30.16000 435.600
30.20000 436.957
30.24000 437.896
30.28000 438.897
30.32000 431.041
30.36000 423.826
30.40000 424.065
30.44000 430.939
30.48000 452.034
30.52000 441.823
30.56000 442.539
30.60000 422.293
30.64000 415.815
30.68000 449.043
30.72000 445.701
30.76000 450.964
30.80000 449.142
30.84000 484.873
30.88000 483.528
30.92000 509.437
30.96000 533.173
31.00000 572.719
31.04000 656.020
31.08000 745.259
31.12000 970.564
31.16000 1287.258
31.20000 1674.461
31.24000 2245.521
31.28000 2809.176
31.32000 3290.500
31.36000 3550.285
31.40000 3610.817
31.44000 3369.563
31.48000 2780.844
31.52000 2274.491
31.56000 1660.616
31.60000 1243.881
31.64000 897.001
31.68000 694.708
31.72000 576.375
31.76000 529.185
31.80000 490.216
31.84000 452.157
31.88000 443.261
31.92000 431.760
31.96000 401.620
32.00000 410.153
32.04000 416.302
32.08000 407.395
32.12000 418.808
32.16000 409.189
32.20000 399.987
32.24000 400.906
32.28000 404.975
32.32000 390.139
32.36000 394.169
32.40000 390.057
32.44000 375.954
32.48000 391.174
32.52000 394.766
32.56000 393.342
32.60000 380.819
32.64000 369.709
32.68000 380.354
32.72000 388.415
32.76000 369.890
32.80000 369.507
32.84000 378.023
32.88000 381.144
32.92000 402.402
32.96000 416.981
33.00000 419.621
33.04000 409.243
33.08000 397.612
33.12000 379.600
33.16000 390.447
33.20000 349.910
33.24000 352.039
33.28000 347.085
33.32000 354.177
33.36000 351.613
33.40000 350.843
33.44000 348.827
33.48000 355.391
33.52000 354.969
33.56000 319.059
33.60000 336.021
33.64000 344.905
33.68000 328.154
33.72000 333.736
33.76000 347.051
33.80000 348.209
33.84000 347.696
33.88000 348.817
33.92000 348.588
33.96000 334.478
34.00000 331.566
34.04000 323.675
34.08000 342.650
34.12000 333.139
34.16000 326.380
34.20000 351.380
34.24000 354.132
34.28000 345.558
34.32000 347.567
34.36000 348.882
34.40000 334.174
34.44000 346.476
34.48000 316.241
34.52000 344.669
34.56000 348.825
34.60000 355.078
34.64000 338.719
34.68000 346.191
34.72000 326.749
34.76000 336.311
34.80000 322.858
34.84000 316.273
34.88000 333.348
34.92000 334.120
34.96000 331.175
35.00000 310.136
35.04000 321.550
35.08000 314.995
35.12000 318.009
35.16000 322.720
35.20000 316.750
35.24000 329.993
35.28000 297.814
35.32000 309.636
35.36000 323.110
35.40000 316.156
35.44000 322.545
35.48000 315.506
35.52000 301.366
35.56000 319.061
35.60000 321.787
35.64000 294.281
35.68000 303.423
35.72000 312.891
35.76000 302.075
35.80000 313.217
35.84000 311.609
35.88000 305.056
35.92000 299.187
35.96000 302.361
36.00000 297.215
36.04000 307.018
36.08000 307.043
36.12000 310.064
36.16000 308.852
36.20000 295.797
36.24000 295.855
36.28000 313.583
36.32000 306.698
36.36000 290.589
36.40000 289.074
36.44000 282.648
36.48000 299.208
36.52000 311.491
36.56000 310.580
36.60000 301.449
36.64000 305.354
36.68000 297.784
36.72000 291.144
36.76000 298.440
36.80000 289.403
36.84000 301.351
36.88000 306.755
36.92000 311.823
36.96000 327.695
37.00000 289.687
37.04000 287.910
37.08000 314.938
37.12000 296.422
37.16000 302.575
37.20000 311.677
37.24000 297.459
37.28000 322.101
37.32000 308.796
37.36000 299.659
37.40000 291.354
37.44000 287.553
37.48000 292.756
37.52000 298.257
37.56000 304.525
37.60000 286.172
37.64000 285.595
37.68000 295.061
37.72000 291.584
37.76000 299.652
37.80000 302.128
37.84000 294.835
37.88000 296.714
37.92000 290.874
37.96000 301.852
38.00000 301.409
38.04000 295.998
38.08000 306.812
38.12000 285.162
38.16000 298.227
38.20000 305.404
38.24000 305.983
38.28000 312.482
38.32000 335.886
38.36000 341.096
38.40000 360.765
38.44000 394.329
38.48000 436.240
38.52000 514.736
38.56000 602.443
38.60000 700.987
38.64000 816.360
38.68000 892.548
38.72000 944.212
38.76000 944.217
38.80000 865.009
38.84000 767.734
38.88000 671.583
38.92000 541.064
38.96000 446.452
39.00000 383.921
39.04000 325.898
39.08000 327.757
39.12000 313.435
39.16000 296.712
39.20000 285.265
39.24000 275.910
39.28000 303.848
39.32000 264.654
39.36000 284.892
39.40000 282.073
39.44000 271.106
39.48000 264.059
39.52000 274.965
39.56000 268.725
39.60000 268.979
39.64000 274.225
39.68000 274.690
39.72000 275.102
39.76000 259.268
39.80000 275.417
39.84000 268.921
39.88000 259.655
39.92000 270.954
39.96000 261.401
40.00000 272.868
40.04000 259.144
40.08000 251.149
40.12000 249.873
40.16000 262.919
40.20000 256.844
40.24000 265.074
40.28000 265.837
40.32000 255.523
40.36000 254.434
40.40000 262.355
40.44000 252.354
40.48000 253.299
40.52000 277.944
40.56000 258.059
40.60000 252.781
40.64000 272.396
40.68000 249.728
40.72000 260.386
40.76000 259.654
40.80000 253.050
40.84000 250.636
40.88000 238.398
40.92000 259.411
40.96000 246.490
41.00000 263.676
41.04000 261.082
41.08000 254.196
41.12000 236.302
41.16000 258.617
41.20000 248.446
41.24000 242.904
41.28000 241.536
41.32000 238.522
41.36000 256.391
41.40000 250.409
41.44000 244.283
41.48000 247.927
41.52000 248.120
41.56000 243.401
41.60000 240.576
41.64000 239.832
41.68000 248.984
41.72000 233.074
41.76000 256.304
41.80000 239.452
41.84000 237.191
41.88000 242.269
41.92000 230.170
41.96000 250.696
42.00000 232.525
42.04000 229.514
42.08000 249.174
42.12000 243.970
42.16000 232.650
42.20000 225.060
42.24000 246.858
42.28000 234.267
42.32000 241.797
42.36000 238.204
42.40000 235.718
42.44000 228.131
42.48000 238.941
42.52000 232.291
42.56000 229.942
42.60000 234.688
42.64000 227.034
42.68000 235.844
42.72000 233.491
42.76000 237.718
42.80000 231.289
42.84000 221.726
42.88000 224.702
42.92000 229.655
42.96000 219.020
43.00000 236.422
43.04000 227.466
43.08000 236.765
43.12000 226.177
43.16000 218.238
43.20000 229.665
43.24000 230.356
43.28000 223.886
43.32000 229.609
43.36000 224.225
43.40000 235.251
43.44000 225.452
43.48000 232.030
43.52000 218.828
43.56000 224.069
43.60000 231.586
43.64000 229.538
43.68000 213.788
43.72000 211.932
43.76000 232.768
43.80000 219.704
43.84000 216.473
43.88000 220.089
43.92000 237.745
43.96000 221.792
44.00000 227.576
44.04000 211.124
44.08000 236.688
44.12000 224.143
44.16000 218.129
44.20000 217.222
44.24000 228.095
44.28000 218.715
44.32000 241.543
44.36000 232.547
44.40000 237.570
44.44000 231.358
44.48000 232.124
44.52000 226.729
44.56000 220.824
44.60000 239.547
44.64000 242.447
44.68000 236.524
44.72000 241.485
44.76000 231.098
44.80000 263.855
44.84000 264.853
44.88000 296.783
44.92000 301.441
44.96000 338.911
45.00000 355.668
45.04000 346.164
45.08000 363.094
45.12000 373.881
45.16000 373.832
45.20000 347.690
45.24000 328.547
45.28000 318.040
45.32000 304.096
45.36000 257.987
45.40000 268.472
45.44000 252.502
45.48000 250.342
45.52000 245.613
45.56000 226.340
45.60000 231.226
45.64000 219.739
45.68000 216.560
45.72000 211.224
45.76000 211.493
45.80000 217.067
45.84000 208.740
45.88000 221.843
45.92000 218.512
45.96000 202.870
46.00000 212.786
46.04000 223.398
46.08000 198.229
46.12000 207.163
46.16000 207.573
46.20000 197.549
46.24000 195.983
46.28000 205.147
46.32000 206.726
46.36000 204.635
46.40000 209.325
46.44000 208.876
46.48000 199.908
46.52000 204.785
46.56000 204.643
46.60000 220.989
46.64000 207.337
46.68000 206.382
46.72000 206.329
46.76000 184.014
46.80000 199.531
46.84000 205.508
46.88000 196.917
46.92000 205.031
46.96000 188.029
47.00000 203.168
47.04000 189.856
47.08000 189.690
47.12000 190.056
47.16000 193.584
47.20000 187.452
47.24000 187.890
47.28000 199.038
47.32000 188.538
47.36000 189.948
47.40000 192.869
47.44000 193.798
47.48000 198.523
47.52000 194.665
47.56000 190.576
47.60000 189.314
47.64000 186.330
47.68000 193.126
47.72000 185.762
47.76000 181.893
47.80000 180.621
47.84000 185.441
47.88000 188.699
47.92000 198.426
47.96000 188.500
48.00000 189.134
48.04000 186.170
48.08000 194.881
48.12000 193.766
48.16000 180.025
48.20000 183.297
48.24000 189.074
48.28000 189.217
48.32000 196.026
48.36000 178.668
48.40000 186.213
48.44000 175.612
48.48000 189.960
48.52000 182.558
48.56000 177.436
48.60000 185.821
48.64000 195.358
48.68000 175.290
48.72000 181.169
48.76000 176.259
48.80000 179.865
48.84000 176.270
48.88000 172.394
48.92000 180.132
48.96000 180.856
49.00000 183.873
49.04000 183.958
49.08000 190.716
49.12000 176.272
49.16000 186.264
49.20000 182.069
49.24000 174.589
49.28000 169.581
49.32000 181.959
49.36000 180.793
49.40000 181.088
49.44000 181.751
49.48000 193.900
49.52000 170.453
49.56000 176.990
49.60000 181.408
49.64000 179.723
49.68000 166.391
49.72000 182.251
49.76000 187.790
49.80000 169.322
49.84000 180.246
49.88000 181.189
49.92000 182.103
49.96000 174.455
50.00000 174.697
50.04000 181.966
50.08000 181.552
50.12000 163.810
50.16000 177.381
50.20000 178.017
50.24000 187.762
50.28000 180.367
50.32000 185.210
50.36000 191.366
50.40000 194.138
50.44000 208.000
50.48000 209.353
50.52000 217.843
50.56000 240.459
50.60000 259.495
50.64000 263.349
50.68000 276.861
50.72000 271.695
50.76000 279.031
50.80000 259.012
50.84000 245.648
50.88000 227.231
50.92000 219.443
50.96000 204.621
51.00000 186.700
51.04000 190.603
51.08000 178.768
51.12000 179.969
51.16000 174.425
51.20000 175.897
51.24000 162.485
51.28000 172.835
51.32000 178.266
51.36000 163.154
51.40000 163.253
51.44000 178.977
51.48000 160.431
51.52000 168.443
51.56000 169.978
51.60000 158.698
51.64000 171.372
51.68000 166.732
51.72000 156.248
51.76000 172.787
51.80000 160.817
51.84000 160.491
51.88000 156.294
51.92000 162.072
51.96000 170.544
52.00000 151.112
52.04000 169.547
52.08000 167.984
52.12000 171.505
52.16000 162.619
52.20000 172.233
52.24000 161.976
52.28000 164.630
52.32000 161.284
52.36000 169.993
52.40000 164.632
52.44000 159.022
52.48000 164.254
52.52000 155.788
52.56000 160.022
52.60000 150.640
52.64000 160.585
52.68000 156.259
52.72000 166.091
52.76000 162.142
52.80000 147.265
52.84000 173.905
52.88000 166.777
52.92000 163.680
52.96000 164.280
53.00000 155.688
53.04000 163.471
53.08000 156.966
53.12000 168.730
53.16000 163.485
53.20000 162.405
53.24000 161.297
53.28000 163.472
53.32000 164.866
53.36000 167.703
53.40000 167.946
53.44000 165.966
53.48000 171.574
53.52000 149.030
53.56000 136.765
53.60000 160.978
53.64000 150.978
53.68000 163.113
53.72000 162.682
53.76000 155.368
53.80000 165.689
53.84000 166.940
53.88000 149.159
53.92000 142.413
53.96000 157.648
54.00000 164.110
54.04000 147.918
54.08000 154.748
54.12000 149.246
54.16000 150.847
54.20000 153.732
54.24000 161.190
54.28000 160.278
54.32000 163.290
54.36000 154.959
54.40000 154.055
54.44000 152.921
54.48000 144.957
54.52000 154.438
54.56000 161.454
54.60000 161.306
54.64000 164.968
54.68000 166.058
54.72000 155.064
54.76000 160.969
54.80000 152.745
54.84000 160.574
54.88000 159.524
54.92000 163.169
54.96000 156.046
55.00000 160.201
55.04000 149.340
55.08000 161.009
55.12000 147.985
55.16000 161.929
55.20000 166.824
55.24000 163.159
55.28000 166.440
55.32000 170.956
55.36000 165.316
55.40000 177.373
55.44000 176.045
55.48000 193.699
55.52000 207.282
55.56000 212.254
55.60000 210.973
55.64000 264.871
55.68000 284.421
55.72000 325.296
55.76000 409.652
55.80000 474.924
55.84000 538.224
55.88000 591.755
55.92000 638.475
55.96000 638.873
56.00000 636.925
56.04000 606.679
56.08000 543.318
56.12000 487.638
56.16000 422.329
56.20000 359.741
56.24000 315.062
56.28000 272.952
56.32000 234.984
56.36000 196.266
56.40000 186.147
56.44000 178.890
56.48000 180.077
56.52000 160.106
56.56000 151.364
56.60000 163.652
56.64000 155.327
56.68000 153.853
56.72000 152.564
56.76000 146.866
56.80000 151.067
56.84000 148.546
56.88000 153.334
56.92000 158.659
56.96000 142.898
57.00000 138.314
57.04000 136.424
57.08000 149.578
57.12000 154.091
57.16000 142.961
57.20000 146.706
57.24000 140.070
57.28000 149.078
57.32000 140.736
57.36000 144.174
57.40000 150.331
57.44000 152.004
57.48000 153.856
57.52000 149.897
57.56000 157.740
57.60000 148.843
57.64000 139.258
57.68000 138.141
57.72000 141.590
57.76000 140.736
57.80000 140.711
57.84000 139.823
57.88000 143.252
57.92000 147.866
57.96000 146.048
58.00000 136.887
58.04000 151.809
58.08000 147.506
58.12000 137.518
58.16000 135.706
58.20000 126.273
58.24000 135.345
58.28000 148.716
58.32000 146.774
58.36000 148.508
58.40000 136.235
58.44000 130.614
58.48000 135.863
58.52000 129.110
58.56000 131.656
58.60000 130.592
58.64000 141.464
58.68000 135.208
58.72000 130.073
58.76000 134.549
58.80000 136.923
58.84000 147.310
58.88000 132.686
58.92000 122.472
58.96000 133.460
59.00000 131.494
59.04000 137.105
59.08000 130.557
59.12000 142.282
59.16000 129.548
59.20000 133.950
59.24000 129.765
59.28000 137.543
59.32000 131.536
59.36000 137.874
59.40000 135.071
59.44000 126.785
59.48000 137.314
59.52000 134.018
59.56000 121.203
59.60000 128.166
59.64000 140.303
59.68000 126.488
59.72000 134.603
59.76000 138.743
59.80000 131.694
59.84000 136.236
59.88000 132.359
59.92000 137.758
59.96000 147.106
60.00000 139.714
60.04000 135.492
60.08000 140.188
60.12000 135.221
60.16000 137.315
60.20000 130.944
60.24000 131.720
60.28000 135.217
60.32000 136.418
60.36000 138.144
60.40000 128.086
60.44000 131.063
60.48000 143.676
60.52000 137.074
60.56000 134.223
60.60000 130.613
60.64000 136.389
60.68000 122.305
60.72000 130.808
60.76000 132.382
60.80000 123.949
60.84000 124.863
60.88000 136.389
60.92000 134.602
60.96000 141.323
61.00000 147.970
61.04000 128.971
61.08000 149.566
61.12000 150.629
61.16000 139.452
61.20000 139.021
61.24000 128.487
61.28000 137.679
61.32000 135.511
61.36000 128.557
61.40000 135.835
61.44000 140.190
61.48000 153.525
61.52000 177.211
61.56000 227.039
61.60000 266.194
61.64000 283.935
61.68000 284.414
61.72000 296.253
61.76000 267.993
61.80000 213.699
61.84000 170.657
61.88000 162.220
61.92000 147.709
61.96000 134.832
62.00000 140.295
62.04000 137.619
62.08000 147.619
62.12000 136.895
62.16000 142.857
62.20000 141.407
62.24000 129.964
62.28000 140.041
62.32000 146.621
62.36000 151.249
62.40000 133.916
62.44000 130.269
62.48000 150.044
62.52000 142.499
62.56000 152.985
62.60000 143.938
62.64000 137.736
62.68000 140.940
62.72000 139.921
62.76000 150.202
62.80000 148.643
62.84000 137.740
62.88000 146.311
62.92000 143.353
62.96000 137.034
63.00000 145.207
63.04000 152.209
63.08000 135.152
63.12000 138.567
63.16000 143.110
63.20000 146.205
63.24000 146.327
63.28000 149.963
63.32000 150.288
63.36000 141.548
63.40000 141.438
63.44000 137.252
63.48000 142.936
63.52000 159.137
63.56000 137.087
63.60000 152.467
63.64000 146.064
63.68000 159.196
63.72000 155.800
63.76000 156.799
63.80000 155.107
63.84000 159.553
63.88000 150.266
63.92000 142.048
63.96000 158.817
64.00000 145.884
64.04000 154.085
64.08000 161.500
64.12000 163.464
64.16000 158.616
64.20000 171.829
64.24000 168.124
64.28000 164.130
64.32000 150.261
64.36000 163.952
64.40000 166.156
64.44000 163.638
64.48000 180.717
64.52000 169.517
64.56000 178.923
64.60000 173.777
64.64000 170.348
64.68000 171.582
64.72000 181.547
64.76000 172.997
64.80000 180.077
64.84000 182.482
64.88000 184.634
64.92000 180.207
64.96000 197.668
65.00000 189.828
65.04000 199.433
65.08000 205.258
65.12000 201.179
65.16000 206.401
65.20000 233.321
65.24000 252.963
65.28000 261.496
65.32000 290.070
65.36000 295.231
65.40000 332.870
65.44000 368.638
65.48000 393.686
65.52000 417.534
65.56000 420.179
65.60000 460.045
65.64000 485.200
65.68000 567.106
65.72000 720.384
65.76000 931.304
65.80000 1112.029
65.84000 1142.805
65.88000 1162.232
65.92000 1078.668
65.96000 906.764
66.00000 628.813
66.04000 426.725
66.08000 346.571
66.12000 314.900
66.16000 301.884
66.20000 298.587
66.24000 322.455
66.28000 358.828
66.32000 406.611
66.36000 428.764
66.40000 437.895
66.44000 462.725
66.48000 428.570
66.52000 395.736
66.56000 355.606
66.60000 324.526
66.64000 313.305
66.68000 324.948
66.72000 338.839
66.76000 341.923
66.80000 353.889
66.84000 322.962
66.88000 324.801
66.92000 327.596
66.96000 337.888
67.00000 346.186
67.04000 354.695
67.08000 360.182
67.12000 369.586
67.16000 387.955
67.20000 381.884
67.24000 380.589
67.28000 385.594
67.32000 381.992
67.36000 412.913
67.40000 415.069
67.44000 411.566
67.48000 415.707
67.52000 410.975
67.56000 440.944
67.60000 425.246
67.64000 455.118
67.68000 465.016
67.72000 450.263
67.76000 484.204
67.80000 490.884
67.84000 502.881
67.88000 519.576
67.92000 516.170
67.96000 524.408
68.00000 532.924
68.04000 536.906
68.08000 566.806
68.12000 588.900
68.16000 589.173
68.20000 604.266
68.24000 622.826
68.28000 648.917
68.32000 666.253
68.36000 692.508
68.40000 728.330
68.44000 742.715
68.48000 793.038
68.52000 821.446
68.56000 898.721
68.60000 1016.186
68.64000 1208.515
68.68000 1410.649
68.72000 1646.328
68.76000 1915.269
68.80000 2127.176
68.84000 2485.635
68.88000 3062.558
68.92000 6346.977
68.96000 16408.342
69.00000 36912.734
69.04000 55441.137
69.08000 62993.598
69.12000 63990.598
69.16000 66826.648
69.20000 65253.234
69.24000 52411.965
69.28000 39918.410
69.32000 33902.277
69.36000 30728.211
69.40000 24195.035
69.44000 13433.070
69.48000 5787.806
69.52000 2721.582
69.56000 1817.661
69.60000 1413.313
69.64000 1262.510
69.68000 1116.402
69.72000 1017.068
69.76000 941.727
69.80000 843.770
69.84000 809.317
69.88000 786.313
69.92000 753.689
69.96000 731.193
70.00000 692.838