File: XRD/XRD/30-09-2025 Dep 1/XY Data/BTO_Mapping_Theta2Theta_30-09-2025_001_21_-4-181_39-781.xy
20.00000 578.865
20.04000 566.811
20.08000 575.533
20.12000 590.657
20.16000 558.667
20.20000 553.428
20.24000 572.373
20.28000 578.333
20.32000 569.897
20.36000 575.165
20.40000 566.780
20.44000 579.696
20.48000 562.106
20.52000 552.271
20.56000 557.957
20.60000 585.563
20.64000 570.428
20.68000 574.380
20.72000 561.203
20.76000 559.086
20.80000 547.010
20.84000 563.646
20.88000 553.375
20.92000 560.149
20.96000 547.615
21.00000 537.870
21.04000 549.627
21.08000 554.005
21.12000 560.282
21.16000 541.724
21.20000 556.629
21.24000 558.426
21.28000 536.074
21.32000 545.564
21.36000 559.067
21.40000 544.709
21.44000 550.703
21.48000 548.229
21.52000 553.216
21.56000 551.796
21.60000 550.580
21.64000 559.208
21.68000 569.773
21.72000 556.026
21.76000 585.393
21.80000 586.832
21.84000 586.322
21.88000 630.848
21.92000 641.501
21.96000 658.384
22.00000 664.239
22.04000 649.905
22.08000 689.506
22.12000 676.424
22.16000 658.138
22.20000 646.539
22.24000 623.236
22.28000 606.152
22.32000 589.092
22.36000 557.259
22.40000 551.147
22.44000 550.867
22.48000 536.465
22.52000 529.378
22.56000 516.296
22.60000 538.568
22.64000 519.467
22.68000 545.865
22.72000 531.292
22.76000 528.926
22.80000 528.739
22.84000 512.637
22.88000 536.642
22.92000 511.663
22.96000 521.790
23.00000 512.798
23.04000 499.787
23.08000 513.502
23.12000 515.231
23.16000 523.976
23.20000 505.851
23.24000 519.645
23.28000 514.162
23.32000 502.847
23.36000 511.042
23.40000 516.102
23.44000 507.633
23.48000 501.245
23.52000 533.399
23.56000 515.903
23.60000 510.582
23.64000 517.135
23.68000 515.444
23.72000 525.104
23.76000 513.682
23.80000 516.901
23.84000 554.349
23.88000 538.078
23.92000 541.818
23.96000 570.305
24.00000 537.033
24.04000 562.966
24.08000 552.601
24.12000 562.615
24.16000 536.170
24.20000 535.899
24.24000 528.886
24.28000 518.904
24.32000 520.962
24.36000 500.893
24.40000 502.912
24.44000 509.251
24.48000 495.251
24.52000 500.214
24.56000 515.056
24.60000 502.342
24.64000 500.366
24.68000 501.228
24.72000 482.808
24.76000 483.852
24.80000 492.216
24.84000 480.348
24.88000 485.761
24.92000 493.464
24.96000 472.304
25.00000 467.872
25.04000 479.713
25.08000 482.932
25.12000 481.652
25.16000 475.939
25.20000 497.135
25.24000 478.314
25.28000 466.760
25.32000 483.812
25.36000 478.857
25.40000 471.804
25.44000 464.888
25.48000 474.578
25.52000 462.064
25.56000 479.619
25.60000 478.456
25.64000 469.342
25.68000 486.140
25.72000 461.256
25.76000 470.770
25.80000 457.470
25.84000 469.737
25.88000 472.498
25.92000 466.978
25.96000 462.583
26.00000 465.479
26.04000 464.458
26.08000 463.880
26.12000 487.405
26.16000 458.677
26.20000 449.499
26.24000 462.215
26.28000 469.376
26.32000 441.762
26.36000 449.611
26.40000 447.634
26.44000 445.137
26.48000 438.799
26.52000 456.536
26.56000 465.973
26.60000 453.458
26.64000 456.151
26.68000 449.311
26.72000 459.765
26.76000 449.322
26.80000 449.048
26.84000 466.483
26.88000 448.697
26.92000 468.573
26.96000 422.013
27.00000 454.405
27.04000 438.989
27.08000 452.758
27.12000 437.971
27.16000 463.465
27.20000 456.236
27.24000 434.542
27.28000 437.465
27.32000 431.708
27.36000 438.005
27.40000 447.622
27.44000 448.524
27.48000 450.223
27.52000 442.267
27.56000 441.631
27.60000 434.404
27.64000 443.923
27.68000 444.656
27.72000 452.855
27.76000 449.985
27.80000 443.925
27.84000 441.216
27.88000 431.899
27.92000 443.456
27.96000 420.742
28.00000 437.086
28.04000 446.520
28.08000 430.078
28.12000 433.478
28.16000 429.611
28.20000 429.596
28.24000 419.503
28.28000 455.334
28.32000 418.906
28.36000 434.385
28.40000 439.842
28.44000 443.046
28.48000 433.278
28.52000 427.790
28.56000 429.622
28.60000 404.451
28.64000 419.215
28.68000 418.401
28.72000 422.999
28.76000 420.811
28.80000 413.985
28.84000 408.019
28.88000 401.319
28.92000 419.113
28.96000 417.438
29.00000 420.383
29.04000 414.611
29.08000 407.244
29.12000 411.722
29.16000 412.226
29.20000 426.479
29.24000 410.840
29.28000 419.830
29.32000 425.436
29.36000 421.871
29.40000 412.020
29.44000 393.838
29.48000 408.002
29.52000 403.957
29.56000 400.744
29.60000 401.495
29.64000 416.744
29.68000 416.821
29.72000 411.296
29.76000 397.743
29.80000 421.313
29.84000 422.370
29.88000 405.306
29.92000 424.762
29.96000 415.258
30.00000 412.666
30.04000 420.501
30.08000 416.781
30.12000 422.596
30.16000 401.363
30.20000 412.881
30.24000 419.548
30.28000 410.049
30.32000 403.968
30.36000 438.199
30.40000 410.312
30.44000 406.690
30.48000 411.824
30.52000 400.488
30.56000 414.289
30.60000 421.519
30.64000 399.159
30.68000 440.086
30.72000 413.857
30.76000 434.694
30.80000 426.511
30.84000 429.095
30.88000 447.664
30.92000 455.903
30.96000 479.325
31.00000 493.500
31.04000 509.843
31.08000 548.393
31.12000 639.039
31.16000 717.328
31.20000 842.995
31.24000 1038.603
31.28000 1231.679
31.32000 1386.920
31.36000 1547.571
31.40000 1576.305
31.44000 1503.361
31.48000 1378.758
31.52000 1198.629
31.56000 1027.643
31.60000 866.775
31.64000 708.213
31.68000 608.676
31.72000 565.366
31.76000 505.603
31.80000 465.049
31.84000 447.453
31.88000 446.876
31.92000 441.374
31.96000 414.637
32.00000 396.661
32.04000 419.687
32.08000 439.625
32.12000 395.881
32.16000 390.516
32.20000 399.768
32.24000 412.858
32.28000 391.792
32.32000 378.755
32.36000 385.821
32.40000 376.293
32.44000 382.842
32.48000 385.587
32.52000 396.520
32.56000 376.661
32.60000 361.001
32.64000 358.167
32.68000 371.352
32.72000 368.774
32.76000 374.040
32.80000 359.965
32.84000 355.961
32.88000 364.349
32.92000 369.816
32.96000 406.836
33.00000 389.879
33.04000 399.201
33.08000 390.189
33.12000 377.659
33.16000 366.387
33.20000 364.514
33.24000 350.477
33.28000 362.273
33.32000 342.622
33.36000 362.981
33.40000 343.252
33.44000 342.122
33.48000 357.977
33.52000 339.890
33.56000 335.440
33.60000 334.731
33.64000 331.229
33.68000 355.359
33.72000 354.836
33.76000 339.908
33.80000 350.956
33.84000 359.700
33.88000 337.736
33.92000 352.092
33.96000 358.892
34.00000 363.869
34.04000 362.434
34.08000 388.001
34.12000 346.697
34.16000 359.627
34.20000 359.257
34.24000 370.177
34.28000 369.125
34.32000 374.607
34.36000 378.878
34.40000 355.306
34.44000 366.177
34.48000 357.708
34.52000 370.482
34.56000 362.073
34.60000 366.417
34.64000 342.290
34.68000 362.945
34.72000 349.911
34.76000 336.548
34.80000 347.071
34.84000 313.408
34.88000 321.304
34.92000 348.096
34.96000 341.544
35.00000 340.285
35.04000 312.750
35.08000 323.501
35.12000 312.026
35.16000 318.715
35.20000 327.447
35.24000 320.214
35.28000 319.534
35.32000 315.905
35.36000 315.954
35.40000 309.799
35.44000 329.188
35.48000 318.492
35.52000 327.161
35.56000 300.360
35.60000 315.726
35.64000 288.498
35.68000 299.434
35.72000 303.889
35.76000 298.038
35.80000 314.595
35.84000 321.009
35.88000 292.015
35.92000 322.198
35.96000 304.547
36.00000 299.820
36.04000 284.988
36.08000 298.907
36.12000 299.771
36.16000 301.919
36.20000 309.683
36.24000 305.382
36.28000 317.127
36.32000 304.373
36.36000 296.401
36.40000 300.531
36.44000 288.660
36.48000 302.469
36.52000 298.103
36.56000 295.098
36.60000 287.088
36.64000 312.456
36.68000 279.689
36.72000 292.707
36.76000 301.489
36.80000 309.470
36.84000 305.831
36.88000 284.995
36.92000 302.221
36.96000 291.732
37.00000 285.917
37.04000 302.486
37.08000 307.710
37.12000 299.504
37.16000 299.834
37.20000 294.534
37.24000 288.910
37.28000 275.851
37.32000 296.321
37.36000 291.938
37.40000 303.154
37.44000 308.598
37.48000 294.709
37.52000 299.687
37.56000 296.291
37.60000 299.115
37.64000 293.159
37.68000 302.797
37.72000 296.151
37.76000 290.054
37.80000 266.606
37.84000 288.865
37.88000 290.202
37.92000 282.142
37.96000 293.225
38.00000 284.392
38.04000 292.999
38.08000 283.368
38.12000 286.798
38.16000 302.453
38.20000 305.754
38.24000 293.431
38.28000 306.911
38.32000 302.555
38.36000 318.077
38.40000 350.205
38.44000 362.827
38.48000 410.885
38.52000 459.021
38.56000 555.842
38.60000 658.235
38.64000 770.995
38.68000 849.143
38.72000 926.445
38.76000 926.009
38.80000 881.439
38.84000 817.576
38.88000 695.045
38.92000 566.195
38.96000 500.181
39.00000 421.723
39.04000 373.650
39.08000 326.211
39.12000 314.178
39.16000 296.015
39.20000 294.168
39.24000 299.475
39.28000 282.055
39.32000 297.132
39.36000 279.204
39.40000 270.169
39.44000 254.312
39.48000 278.298
39.52000 271.992
39.56000 269.874
39.60000 278.037
39.64000 266.650
39.68000 272.925
39.72000 275.442
39.76000 277.467
39.80000 281.323
39.84000 261.794
39.88000 259.544
39.92000 272.145
39.96000 262.227
40.00000 265.825
40.04000 273.557
40.08000 276.269
40.12000 261.851
40.16000 248.966
40.20000 266.166
40.24000 254.910
40.28000 267.460
40.32000 255.668
40.36000 255.711
40.40000 263.026
40.44000 259.483
40.48000 252.832
40.52000 267.789
40.56000 265.972
40.60000 240.670
40.64000 253.159
40.68000 244.638
40.72000 239.435
40.76000 250.599
40.80000 245.265
40.84000 258.308
40.88000 254.708
40.92000 256.839
40.96000 247.111
41.00000 240.794
41.04000 241.107
41.08000 240.773
41.12000 234.290
41.16000 251.542
41.20000 246.023
41.24000 255.352
41.28000 247.997
41.32000 244.742
41.36000 236.904
41.40000 242.615
41.44000 247.336
41.48000 251.467
41.52000 243.000
41.56000 248.592
41.60000 251.140
41.64000 232.860
41.68000 237.947
41.72000 246.743
41.76000 246.674
41.80000 240.823
41.84000 247.289
41.88000 253.189
41.92000 244.673
41.96000 250.207
42.00000 251.462
42.04000 248.863
42.08000 245.180
42.12000 242.657
42.16000 242.956
42.20000 242.294
42.24000 254.218
42.28000 238.542
42.32000 240.748
42.36000 240.389
42.40000 240.048
42.44000 231.453
42.48000 265.285
42.52000 247.671
42.56000 241.283
42.60000 241.295
42.64000 249.862
42.68000 230.266
42.72000 240.618
42.76000 236.861
42.80000 234.023
42.84000 245.048
42.88000 248.654
42.92000 232.869
42.96000 226.739
43.00000 240.229
43.04000 238.925
43.08000 238.580
43.12000 231.780
43.16000 228.409
43.20000 233.514
43.24000 228.832
43.28000 224.935
43.32000 237.077
43.36000 224.461
43.40000 228.011
43.44000 228.810
43.48000 222.890
43.52000 233.046
43.56000 223.485
43.60000 214.677
43.64000 219.398
43.68000 229.130
43.72000 216.091
43.76000 218.592
43.80000 239.399
43.84000 225.735
43.88000 231.680
43.92000 221.886
43.96000 225.897
44.00000 231.495
44.04000 228.080
44.08000 230.858
44.12000 229.785
44.16000 225.750
44.20000 233.838
44.24000 224.043
44.28000 215.040
44.32000 199.116
44.36000 222.663
44.40000 236.093
44.44000 230.707
44.48000 227.739
44.52000 241.376
44.56000 244.320
44.60000 226.766
44.64000 242.611
44.68000 236.796
44.72000 248.131
44.76000 246.977
44.80000 267.639
44.84000 276.863
44.88000 284.176
44.92000 292.254
44.96000 285.260
45.00000 322.838
45.04000 322.385
45.08000 332.863
45.12000 337.725
45.16000 326.581
45.20000 314.352
45.24000 305.514
45.28000 302.331
45.32000 278.924
45.36000 278.990
45.40000 265.555
45.44000 254.486
45.48000 249.142
45.52000 246.044
45.56000 226.269
45.60000 233.038
45.64000 229.964
45.68000 225.684
45.72000 221.354
45.76000 206.566
45.80000 231.072
45.84000 221.901
45.88000 227.919
45.92000 213.816
45.96000 205.235
46.00000 212.293
46.04000 214.922
46.08000 220.875
46.12000 202.894
46.16000 207.081
46.20000 217.467
46.24000 217.624
46.28000 211.305
46.32000 208.921
46.36000 209.349
46.40000 213.596
46.44000 217.372
46.48000 190.499
46.52000 199.033
46.56000 205.145
46.60000 208.110
46.64000 191.236
46.68000 192.322
46.72000 186.899
46.76000 190.368
46.80000 200.969
46.84000 205.651
46.88000 206.108
46.92000 204.702
46.96000 211.370
47.00000 206.358
47.04000 206.973
47.08000 203.694
47.12000 197.299
47.16000 197.294
47.20000 195.105
47.24000 199.280
47.28000 193.338
47.32000 202.694
47.36000 184.989
47.40000 187.276
47.44000 195.965
47.48000 193.052
47.52000 185.172
47.56000 186.854
47.60000 187.482
47.64000 178.272
47.68000 189.703
47.72000 191.647
47.76000 181.452
47.80000 177.494
47.84000 186.003
47.88000 195.766
47.92000 191.104
47.96000 193.694
48.00000 188.760
48.04000 199.111
48.08000 184.355
48.12000 191.822
48.16000 182.997
48.20000 189.199
48.24000 189.512
48.28000 178.783
48.32000 184.426
48.36000 183.474
48.40000 191.974
48.44000 179.420
48.48000 182.453
48.52000 175.947
48.56000 193.725
48.60000 186.283
48.64000 184.250
48.68000 187.244
48.72000 185.242
48.76000 173.930
48.80000 166.769
48.84000 183.600
48.88000 183.581
48.92000 183.392
48.96000 169.700
49.00000 186.396
49.04000 172.571
49.08000 183.311
49.12000 186.939
49.16000 179.980
49.20000 176.999
49.24000 175.546
49.28000 179.809
49.32000 170.747
49.36000 181.021
49.40000 181.513
49.44000 187.695
49.48000 197.885
49.52000 172.122
49.56000 170.615
49.60000 166.941
49.64000 180.295
49.68000 179.407
49.72000 182.087
49.76000 165.131
49.80000 171.115
49.84000 175.586
49.88000 176.009
49.92000 167.815
49.96000 174.590
50.00000 175.772
50.04000 190.384
50.08000 184.337
50.12000 168.559
50.16000 171.753
50.20000 178.624
50.24000 174.419
50.28000 181.403
50.32000 181.640
50.36000 181.997
50.40000 175.689
50.44000 172.462
50.48000 185.198
50.52000 190.745
50.56000 204.580
50.60000 204.217
50.64000 202.940
50.68000 207.743
50.72000 210.054
50.76000 210.021
50.80000 196.315
50.84000 187.385
50.88000 195.378
50.92000 190.097
50.96000 196.581
51.00000 189.329
51.04000 183.665
51.08000 177.463
51.12000 180.197
51.16000 172.698
51.20000 174.744
51.24000 177.677
51.28000 167.001
51.32000 160.470
51.36000 182.953
51.40000 174.029
51.44000 166.609
51.48000 169.017
51.52000 171.199
51.56000 163.138
51.60000 165.977
51.64000 170.256
51.68000 168.327
51.72000 159.628
51.76000 162.113
51.80000 158.293
51.84000 172.738
51.88000 159.595
51.92000 158.614
51.96000 167.329
52.00000 156.149
52.04000 158.327
52.08000 149.960
52.12000 158.506
52.16000 155.902
52.20000 171.613
52.24000 168.439
52.28000 161.127
52.32000 158.103
52.36000 153.688
52.40000 157.264
52.44000 158.150
52.48000 165.209
52.52000 169.225
52.56000 166.142
52.60000 168.314
52.64000 152.568
52.68000 160.009
52.72000 150.021
52.76000 158.201
52.80000 165.003
52.84000 156.228
52.88000 163.453
52.92000 169.411
52.96000 164.215
53.00000 159.082
53.04000 156.839
53.08000 158.658
53.12000 155.110
53.16000 157.822
53.20000 168.099
53.24000 159.665
53.28000 159.643
53.32000 164.796
53.36000 166.972
53.40000 159.734
53.44000 159.259
53.48000 167.708
53.52000 156.315
53.56000 164.405
53.60000 160.259
53.64000 168.205
53.68000 160.249
53.72000 148.958
53.76000 155.951
53.80000 161.382
53.84000 160.545
53.88000 154.793
53.92000 152.726
53.96000 148.393
54.00000 146.018
54.04000 147.916
54.08000 157.367
54.12000 156.988
54.16000 150.690
54.20000 153.417
54.24000 148.289
54.28000 158.689
54.32000 156.180
54.36000 158.413
54.40000 156.552
54.44000 154.322
54.48000 153.105
54.52000 166.265
54.56000 166.994
54.60000 162.331
54.64000 165.783
54.68000 137.836
54.72000 151.953
54.76000 161.667
54.80000 162.505
54.84000 157.733
54.88000 152.347
54.92000 154.929
54.96000 155.679
55.00000 153.465
55.04000 167.476
55.08000 162.456
55.12000 161.875
55.16000 165.638
55.20000 164.616
55.24000 157.969
55.28000 165.157
55.32000 169.486
55.36000 177.803
55.40000 181.578
55.44000 174.759
55.48000 195.826
55.52000 205.016
55.56000 205.659
55.60000 220.937
55.64000 240.868
55.68000 279.466
55.72000 301.704
55.76000 361.004
55.80000 392.868
55.84000 460.291
55.88000 490.916
55.92000 498.244
55.96000 526.814
56.00000 511.491
56.04000 510.722
56.08000 454.075
56.12000 413.556
56.16000 381.079
56.20000 336.726
56.24000 290.089
56.28000 254.133
56.32000 237.614
56.36000 214.508
56.40000 191.826
56.44000 190.831
56.48000 178.151
56.52000 171.814
56.56000 173.550
56.60000 165.382
56.64000 160.194
56.68000 164.492
56.72000 162.638
56.76000 159.230
56.80000 149.771
56.84000 140.865
56.88000 148.408
56.92000 144.731
56.96000 152.436
57.00000 150.890
57.04000 156.387
57.08000 147.331
57.12000 143.392
57.16000 144.134
57.20000 149.898
57.24000 142.689
57.28000 160.066
57.32000 157.130
57.36000 153.781
57.40000 154.487
57.44000 152.285
57.48000 148.792
57.52000 142.972
57.56000 142.458
57.60000 147.148
57.64000 145.678
57.68000 145.737
57.72000 145.071
57.76000 142.326
57.80000 140.147
57.84000 135.381
57.88000 143.158
57.92000 149.404
57.96000 147.518
58.00000 139.061
58.04000 137.783
58.08000 155.434
58.12000 144.015
58.16000 146.569
58.20000 141.510
58.24000 139.963
58.28000 141.092
58.32000 139.775
58.36000 149.100
58.40000 131.591
58.44000 137.804
58.48000 132.161
58.52000 139.297
58.56000 139.836
58.60000 138.768
58.64000 137.599
58.68000 138.403
58.72000 150.749
58.76000 140.819
58.80000 135.171
58.84000 147.675
58.88000 140.584
58.92000 145.404
58.96000 149.331
59.00000 135.544
59.04000 122.477
59.08000 133.649
59.12000 135.802
59.16000 136.680
59.20000 134.650
59.24000 145.270
59.28000 136.785
59.32000 132.778
59.36000 149.482
59.40000 136.887
59.44000 137.525
59.48000 137.291
59.52000 135.292
59.56000 135.980
59.60000 136.948
59.64000 130.974
59.68000 148.657
59.72000 142.262
59.76000 136.315
59.80000 130.711
59.84000 134.022
59.88000 134.698
59.92000 136.926
59.96000 135.744
60.00000 137.655
60.04000 137.985
60.08000 130.014
60.12000 123.877
60.16000 127.295
60.20000 134.629
60.24000 132.984
60.28000 133.844
60.32000 129.067
60.36000 126.615
60.40000 137.434
60.44000 134.000
60.48000 142.183
60.52000 128.589
60.56000 122.204
60.60000 139.099
60.64000 129.681
60.68000 125.991
60.72000 136.787
60.76000 136.459
60.80000 132.246
60.84000 138.198
60.88000 133.103
60.92000 134.465
60.96000 134.764
61.00000 126.723
61.04000 139.537
61.08000 143.984
61.12000 139.348
61.16000 141.850
61.20000 129.540
61.24000 134.615
61.28000 138.229
61.32000 130.064
61.36000 140.731
61.40000 134.983
61.44000 143.545
61.48000 142.274
61.52000 166.904
61.56000 186.924
61.60000 219.309
61.64000 225.975
61.68000 243.543
61.72000 242.558
61.76000 245.347
61.80000 220.526
61.84000 170.598
61.88000 158.442
61.92000 155.457
61.96000 147.295
62.00000 148.560
62.04000 138.267
62.08000 139.216
62.12000 140.735
62.16000 145.665
62.20000 141.646
62.24000 137.446
62.28000 134.467
62.32000 133.035
62.36000 144.233
62.40000 140.274
62.44000 138.790
62.48000 138.137
62.52000 142.040
62.56000 141.417
62.60000 147.840
62.64000 138.523
62.68000 140.506
62.72000 135.547
62.76000 132.207
62.80000 140.423
62.84000 148.114
62.88000 147.284
62.92000 141.196
62.96000 135.521
63.00000 142.750
63.04000 144.465
63.08000 154.414
63.12000 143.512
63.16000 145.254
63.20000 141.342
63.24000 142.760
63.28000 142.607
63.32000 144.371
63.36000 143.449
63.40000 146.766
63.44000 145.276
63.48000 147.018
63.52000 150.853
63.56000 138.991
63.60000 147.541
63.64000 145.379
63.68000 149.464
63.72000 156.944
63.76000 159.397
63.80000 149.703
63.84000 140.486
63.88000 139.019
63.92000 153.693
63.96000 151.611
64.00000 146.552
64.04000 161.336
64.08000 148.115
64.12000 166.139
64.16000 154.611
64.20000 158.125
64.24000 157.089
64.28000 159.267
64.32000 160.500
64.36000 171.606
64.40000 161.470
64.44000 152.037
64.48000 161.663
64.52000 160.712
64.56000 171.991
64.60000 173.576
64.64000 170.837
64.68000 174.600
64.72000 189.035
64.76000 174.770
64.80000 178.720
64.84000 181.980
64.88000 176.348
64.92000 179.569
64.96000 184.143
65.00000 190.257
65.04000 178.852
65.08000 196.579
65.12000 179.555
65.16000 180.741
65.20000 191.415
65.24000 214.018
65.28000 212.030
65.32000 229.066
65.36000 234.619
65.40000 235.922
65.44000 243.183
65.48000 276.101
65.52000 281.268
65.56000 281.841
65.60000 317.628
65.64000 328.583
65.68000 363.393
65.72000 454.964
65.76000 643.210
65.80000 801.709
65.84000 881.150
65.88000 899.399
65.92000 879.716
65.96000 782.195
66.00000 590.236
66.04000 416.094
66.08000 333.812
66.12000 302.365
66.16000 285.039
66.20000 280.269
66.24000 286.631
66.28000 296.322
66.32000 343.868
66.36000 370.711
66.40000 401.157
66.44000 408.414
66.48000 394.353
66.52000 380.005
66.56000 338.846
66.60000 322.790
66.64000 296.248
66.68000 285.299
66.72000 299.686
66.76000 307.549
66.80000 295.419
66.84000 309.142
66.88000 307.415
66.92000 316.247
66.96000 326.005
67.00000 326.290
67.04000 342.249
67.08000 328.060
67.12000 341.462
67.16000 356.638
67.20000 364.240
67.24000 353.632
67.28000 364.666
67.32000 377.324
67.36000 366.831
67.40000 388.126
67.44000 400.601
67.48000 391.563
67.52000 399.120
67.56000 416.689
67.60000 400.205
67.64000 430.000
67.68000 436.552
67.72000 450.737
67.76000 447.127
67.80000 440.172
67.84000 441.819
67.88000 468.754
67.92000 472.658
67.96000 491.930
68.00000 513.914
68.04000 498.369
68.08000 518.304
68.12000 532.041
68.16000 532.801
68.20000 554.273
68.24000 589.482
68.28000 615.686
68.32000 608.968
68.36000 603.536
68.40000 648.516
68.44000 666.700
68.48000 697.051
68.52000 746.567
68.56000 780.360
68.60000 881.076
68.64000 989.406
68.68000 1163.920
68.72000 1335.789
68.76000 1530.275
68.80000 1713.328
68.84000 1940.431
68.88000 2228.558
68.92000 3620.533
68.96000 8272.864
69.00000 21553.529
69.04000 37463.852
69.08000 47397.055
69.12000 48975.195
69.16000 50608.547
69.20000 51672.762
69.24000 45079.781
69.28000 34472.250
69.32000 27634.051
69.36000 24645.727
69.40000 21308.256
69.44000 13833.743
69.48000 6607.316
69.52000 2947.791
69.56000 1717.305
69.60000 1366.357
69.64000 1173.697
69.68000 1040.759
69.72000 938.732
69.76000 869.227
69.80000 807.376
69.84000 777.234
69.88000 742.211
69.92000 709.388
69.96000 670.587
70.00000 651.947