File: XRD/XRD/30-09-2025 Dep 1/XY Data/BTO_Mapping_Theta2Theta_30-09-2025_001_35_-19-563_-4-158.xy
20.00000 557.472
20.04000 566.157
20.08000 544.458
20.12000 569.203
20.16000 590.435
20.20000 578.316
20.24000 552.296
20.28000 561.900
20.32000 556.443
20.36000 568.258
20.40000 550.773
20.44000 564.442
20.48000 566.213
20.52000 538.870
20.56000 550.450
20.60000 550.334
20.64000 542.988
20.68000 559.689
20.72000 565.210
20.76000 551.588
20.80000 566.204
20.84000 552.101
20.88000 547.010
20.92000 555.726
20.96000 547.787
21.00000 557.461
21.04000 551.344
21.08000 571.992
21.12000 567.574
21.16000 551.052
21.20000 551.403
21.24000 557.097
21.28000 552.767
21.32000 559.811
21.36000 580.274
21.40000 550.140
21.44000 527.143
21.48000 542.735
21.52000 538.527
21.56000 570.672
21.60000 544.560
21.64000 556.970
21.68000 544.072
21.72000 569.542
21.76000 582.849
21.80000 574.043
21.84000 609.478
21.88000 609.780
21.92000 653.672
21.96000 673.873
22.00000 719.122
22.04000 738.526
22.08000 765.489
22.12000 742.120
22.16000 719.618
22.20000 673.469
22.24000 632.134
22.28000 600.146
22.32000 582.195
22.36000 553.585
22.40000 536.515
22.44000 552.983
22.48000 532.996
22.52000 545.986
22.56000 538.949
22.60000 544.782
22.64000 526.021
22.68000 522.050
22.72000 520.364
22.76000 508.427
22.80000 534.496
22.84000 514.410
22.88000 513.761
22.92000 520.861
22.96000 525.968
23.00000 519.431
23.04000 509.020
23.08000 508.130
23.12000 499.097
23.16000 511.676
23.20000 526.320
23.24000 503.160
23.28000 516.935
23.32000 528.285
23.36000 511.926
23.40000 493.903
23.44000 502.078
23.48000 512.388
23.52000 537.252
23.56000 500.318
23.60000 507.181
23.64000 509.233
23.68000 514.240
23.72000 516.084
23.76000 507.371
23.80000 503.797
23.84000 520.202
23.88000 519.442
23.92000 512.593
23.96000 543.588
24.00000 531.000
24.04000 535.088
24.08000 535.221
24.12000 538.208
24.16000 529.831
24.20000 517.216
24.24000 503.870
24.28000 500.316
24.32000 495.089
24.36000 502.584
24.40000 492.401
24.44000 510.953
24.48000 496.855
24.52000 494.746
24.56000 497.110
24.60000 503.948
24.64000 501.337
24.68000 486.307
24.72000 496.188
24.76000 493.677
24.80000 477.855
24.84000 469.921
24.88000 503.541
24.92000 499.374
24.96000 490.859
25.00000 479.657
25.04000 482.352
25.08000 483.258
25.12000 472.340
25.16000 474.926
25.20000 489.765
25.24000 472.313
25.28000 501.454
25.32000 482.333
25.36000 481.885
25.40000 468.093
25.44000 508.379
25.48000 466.129
25.52000 464.859
25.56000 478.179
25.60000 483.817
25.64000 465.549
25.68000 455.828
25.72000 449.372
25.76000 476.244
25.80000 471.270
25.84000 471.464
25.88000 476.951
25.92000 462.175
25.96000 465.681
26.00000 472.744
26.04000 476.492
26.08000 467.478
26.12000 467.825
26.16000 461.256
26.20000 456.883
26.24000 464.353
26.28000 473.525
26.32000 461.950
26.36000 452.982
26.40000 461.732
26.44000 467.211
26.48000 463.473
26.52000 446.748
26.56000 449.297
26.60000 448.211
26.64000 461.708
26.68000 448.768
26.72000 429.548
26.76000 465.424
26.80000 448.411
26.84000 449.981
26.88000 458.976
26.92000 463.689
26.96000 442.999
27.00000 446.645
27.04000 445.005
27.08000 450.006
27.12000 429.862
27.16000 439.665
27.20000 453.080
27.24000 439.890
27.28000 460.997
27.32000 457.473
27.36000 444.564
27.40000 447.338
27.44000 441.473
27.48000 432.523
27.52000 433.049
27.56000 439.134
27.60000 437.097
27.64000 435.783
27.68000 427.317
27.72000 438.174
27.76000 437.974
27.80000 435.449
27.84000 421.757
27.88000 424.791
27.92000 426.739
27.96000 444.827
28.00000 437.442
28.04000 414.604
28.08000 436.631
28.12000 443.646
28.16000 434.983
28.20000 434.587
28.24000 434.292
28.28000 442.115
28.32000 431.802
28.36000 427.789
28.40000 441.422
28.44000 443.229
28.48000 414.635
28.52000 418.870
28.56000 436.839
28.60000 436.368
28.64000 440.532
28.68000 430.361
28.72000 428.753
28.76000 399.855
28.80000 434.255
28.84000 433.065
28.88000 422.574
28.92000 411.861
28.96000 423.874
29.00000 420.420
29.04000 410.631
29.08000 406.390
29.12000 412.004
29.16000 416.045
29.20000 420.257
29.24000 418.131
29.28000 417.823
29.32000 430.209
29.36000 411.673
29.40000 421.115
29.44000 412.106
29.48000 418.076
29.52000 406.360
29.56000 421.888
29.60000 411.473
29.64000 397.940
29.68000 405.347
29.72000 414.981
29.76000 424.330
29.80000 422.583
29.84000 421.924
29.88000 420.026
29.92000 443.622
29.96000 431.410
30.00000 436.959
30.04000 440.905
30.08000 463.809
30.12000 447.506
30.16000 473.846
30.20000 433.702
30.24000 428.277
30.28000 435.856
30.32000 431.858
30.36000 419.331
30.40000 439.943
30.44000 439.460
30.48000 434.900
30.52000 420.387
30.56000 431.796
30.60000 436.125
30.64000 445.791
30.68000 451.596
30.72000 442.629
30.76000 455.162
30.80000 457.073
30.84000 465.809
30.88000 482.960
30.92000 486.298
30.96000 515.385
31.00000 571.174
31.04000 616.479
31.08000 736.427
31.12000 870.956
31.16000 1122.762
31.20000 1524.012
31.24000 2052.052
31.28000 2577.356
31.32000 3147.474
31.36000 3526.292
31.40000 3783.761
31.44000 3501.104
31.48000 3017.125
31.52000 2446.211
31.56000 1906.713
31.60000 1356.623
31.64000 979.023
31.68000 756.111
31.72000 654.590
31.76000 551.236
31.80000 521.697
31.84000 476.825
31.88000 443.887
31.92000 462.737
31.96000 425.611
32.00000 433.581
32.04000 417.353
32.08000 434.652
32.12000 417.357
32.16000 411.934
32.20000 422.151
32.24000 407.876
32.28000 386.053
32.32000 408.834
32.36000 397.257
32.40000 385.847
32.44000 387.135
32.48000 390.377
32.52000 393.689
32.56000 389.232
32.60000 391.849
32.64000 395.409
32.68000 389.132
32.72000 375.918
32.76000 373.120
32.80000 377.663
32.84000 381.331
32.88000 381.830
32.92000 402.371
32.96000 412.419
33.00000 435.069
33.04000 429.359
33.08000 427.884
33.12000 413.534
33.16000 391.682
33.20000 370.273
33.24000 364.987
33.28000 351.581
33.32000 344.341
33.36000 356.609
33.40000 349.233
33.44000 363.679
33.48000 357.395
33.52000 349.832
33.56000 335.144
33.60000 352.397
33.64000 341.713
33.68000 340.390
33.72000 352.802
33.76000 346.092
33.80000 337.117
33.84000 348.841
33.88000 337.640
33.92000 333.349
33.96000 339.945
34.00000 346.211
34.04000 335.127
34.08000 351.274
34.12000 341.242
34.16000 336.307
34.20000 347.987
34.24000 339.194
34.28000 332.399
34.32000 336.735
34.36000 334.199
34.40000 328.141
34.44000 340.514
34.48000 336.032
34.52000 336.169
34.56000 326.891
34.60000 335.157
34.64000 342.264
34.68000 335.813
34.72000 323.764
34.76000 328.768
34.80000 341.768
34.84000 328.726
34.88000 339.794
34.92000 314.589
34.96000 337.785
35.00000 331.233
35.04000 341.242
35.08000 328.102
35.12000 323.037
35.16000 316.791
35.20000 320.342
35.24000 329.826
35.28000 316.822
35.32000 316.018
35.36000 326.500
35.40000 311.062
35.44000 322.486
35.48000 322.160
35.52000 308.685
35.56000 312.373
35.60000 308.852
35.64000 340.928
35.68000 320.530
35.72000 306.533
35.76000 324.923
35.80000 320.448
35.84000 322.920
35.88000 319.742
35.92000 311.352
35.96000 308.328
36.00000 315.898
36.04000 299.274
36.08000 302.818
36.12000 327.499
36.16000 311.861
36.20000 303.858
36.24000 313.639
36.28000 304.178
36.32000 306.028
36.36000 309.003
36.40000 311.070
36.44000 302.169
36.48000 299.832
36.52000 293.212
36.56000 299.797
36.60000 308.245
36.64000 310.104
36.68000 291.900
36.72000 308.905
36.76000 317.684
36.80000 308.688
36.84000 314.277
36.88000 289.915
36.92000 301.427
36.96000 318.423
37.00000 309.180
37.04000 311.095
37.08000 296.523
37.12000 291.623
37.16000 293.289
37.20000 304.508
37.24000 298.910
37.28000 303.762
37.32000 293.754
37.36000 289.531
37.40000 320.176
37.44000 289.765
37.48000 287.832
37.52000 289.722
37.56000 296.554
37.60000 300.526
37.64000 306.960
37.68000 289.344
37.72000 288.953
37.76000 300.379
37.80000 293.604
37.84000 287.904
37.88000 309.292
37.92000 287.632
37.96000 291.978
38.00000 298.026
38.04000 297.048
38.08000 302.907
38.12000 299.736
38.16000 286.786
38.20000 288.575
38.24000 301.818
38.28000 294.026
38.32000 328.980
38.36000 322.739
38.40000 338.494
38.44000 359.007
38.48000 395.777
38.52000 442.532
38.56000 511.584
38.60000 612.977
38.64000 736.841
38.68000 810.888
38.72000 885.539
38.76000 850.572
38.80000 802.449
38.84000 715.853
38.88000 625.815
38.92000 532.895
38.96000 435.682
39.00000 386.461
39.04000 335.417
39.08000 314.579
39.12000 297.038
39.16000 286.094
39.20000 297.728
39.24000 285.022
39.28000 292.046
39.32000 287.298
39.36000 279.360
39.40000 268.186
39.44000 276.470
39.48000 267.885
39.52000 272.714
39.56000 281.547
39.60000 267.654
39.64000 262.061
39.68000 277.219
39.72000 267.205
39.76000 270.477
39.80000 263.566
39.84000 270.949
39.88000 275.535
39.92000 259.725
39.96000 265.009
40.00000 264.041
40.04000 274.695
40.08000 262.771
40.12000 265.480
40.16000 254.711
40.20000 263.915
40.24000 247.939
40.28000 267.444
40.32000 258.097
40.36000 251.588
40.40000 251.834
40.44000 250.253
40.48000 250.863
40.52000 255.136
40.56000 265.648
40.60000 253.761
40.64000 251.635
40.68000 259.055
40.72000 250.484
40.76000 250.781
40.80000 254.399
40.84000 256.413
40.88000 245.705
40.92000 247.768
40.96000 253.655
41.00000 245.138
41.04000 259.596
41.08000 253.717
41.12000 238.477
41.16000 249.970
41.20000 240.554
41.24000 246.425
41.28000 242.318
41.32000 229.704
41.36000 250.393
41.40000 243.654
41.44000 245.271
41.48000 240.123
41.52000 242.828
41.56000 230.599
41.60000 252.322
41.64000 249.678
41.68000 241.544
41.72000 246.334
41.76000 243.935
41.80000 234.945
41.84000 228.198
41.88000 253.185
41.92000 242.355
41.96000 233.693
42.00000 229.562
42.04000 230.379
42.08000 237.520
42.12000 233.815
42.16000 239.901
42.20000 224.664
42.24000 237.537
42.28000 240.422
42.32000 242.987
42.36000 223.803
42.40000 226.315
42.44000 232.158
42.48000 224.890
42.52000 236.158
42.56000 232.148
42.60000 239.304
42.64000 233.464
42.68000 233.853
42.72000 238.726
42.76000 229.724
42.80000 241.625
42.84000 231.115
42.88000 236.877
42.92000 226.083
42.96000 227.344
43.00000 230.705
43.04000 231.806
43.08000 227.104
43.12000 221.485
43.16000 237.087
43.20000 223.621
43.24000 224.150
43.28000 216.953
43.32000 232.307
43.36000 226.619
43.40000 227.200
43.44000 223.531
43.48000 233.972
43.52000 230.253
43.56000 212.046
43.60000 215.474
43.64000 232.605
43.68000 238.972
43.72000 215.899
43.76000 216.051
43.80000 226.243
43.84000 220.557
43.88000 227.333
43.92000 226.397
43.96000 224.871
44.00000 222.625
44.04000 220.195
44.08000 227.023
44.12000 213.044
44.16000 225.877
44.20000 214.942
44.24000 224.784
44.28000 240.391
44.32000 236.097
44.36000 224.213
44.40000 230.433
44.44000 228.075
44.48000 230.097
44.52000 236.489
44.56000 243.223
44.60000 234.244
44.64000 236.907
44.68000 230.624
44.72000 248.687
44.76000 255.544
44.80000 253.316
44.84000 282.159
44.88000 288.058
44.92000 327.018
44.96000 361.702
45.00000 376.701
45.04000 400.704
45.08000 411.051
45.12000 417.937
45.16000 419.515
45.20000 391.318
45.24000 350.792
45.28000 335.740
45.32000 311.521
45.36000 296.053
45.40000 263.500
45.44000 254.568
45.48000 246.763
45.52000 252.867
45.56000 237.535
45.60000 239.005
45.64000 230.146
45.68000 215.121
45.72000 225.552
45.76000 217.833
45.80000 215.770
45.84000 204.528
45.88000 209.913
45.92000 215.110
45.96000 207.486
46.00000 210.038
46.04000 212.584
46.08000 208.562
46.12000 201.001
46.16000 213.689
46.20000 203.891
46.24000 207.768
46.28000 204.655
46.32000 195.779
46.36000 209.149
46.40000 206.707
46.44000 209.387
46.48000 212.464
46.52000 208.252
46.56000 196.396
46.60000 196.339
46.64000 204.720
46.68000 214.638
46.72000 209.530
46.76000 198.177
46.80000 204.188
46.84000 212.962
46.88000 197.011
46.92000 193.732
46.96000 199.721
47.00000 199.137
47.04000 191.037
47.08000 198.930
47.12000 206.679
47.16000 187.086
47.20000 191.578
47.24000 208.776
47.28000 194.190
47.32000 186.579
47.36000 194.054
47.40000 201.012
47.44000 200.299
47.48000 201.345
47.52000 194.689
47.56000 194.890
47.60000 194.660
47.64000 181.760
47.68000 195.491
47.72000 196.250
47.76000 180.298
47.80000 195.736
47.84000 190.505
47.88000 193.568
47.92000 197.420
47.96000 181.026
48.00000 181.750
48.04000 185.112
48.08000 182.566
48.12000 179.636
48.16000 186.944
48.20000 189.132
48.24000 191.543
48.28000 179.897
48.32000 192.004
48.36000 199.941
48.40000 189.863
48.44000 186.426
48.48000 193.267
48.52000 183.273
48.56000 186.164
48.60000 185.807
48.64000 186.548
48.68000 187.256
48.72000 179.035
48.76000 175.207
48.80000 176.130
48.84000 185.411
48.88000 177.971
48.92000 185.706
48.96000 180.105
49.00000 184.949
49.04000 179.046
49.08000 181.820
49.12000 181.884
49.16000 173.176
49.20000 174.860
49.24000 183.133
49.28000 175.864
49.32000 179.320
49.36000 178.015
49.40000 177.245
49.44000 194.595
49.48000 175.295
49.52000 184.924
49.56000 175.938
49.60000 193.898
49.64000 176.874
49.68000 183.286
49.72000 174.154
49.76000 177.015
49.80000 176.701
49.84000 172.957
49.88000 190.404
49.92000 195.890
49.96000 185.850
50.00000 177.389
50.04000 173.289
50.08000 176.521
50.12000 178.820
50.16000 180.962
50.20000 172.020
50.24000 181.644
50.28000 180.475
50.32000 188.410
50.36000 198.885
50.40000 197.768
50.44000 203.375
50.48000 209.600
50.52000 236.649
50.56000 231.334
50.60000 256.735
50.64000 260.302
50.68000 280.763
50.72000 273.315
50.76000 271.494
50.80000 269.249
50.84000 250.687
50.88000 249.497
50.92000 224.535
50.96000 208.769
51.00000 196.633
51.04000 185.661
51.08000 203.129
51.12000 187.344
51.16000 186.891
51.20000 172.442
51.24000 173.290
51.28000 164.950
51.32000 169.156
51.36000 176.231
51.40000 168.190
51.44000 168.158
51.48000 168.004
51.52000 164.901
51.56000 162.639
51.60000 175.119
51.64000 163.499
51.68000 163.793
51.72000 155.183
51.76000 164.450
51.80000 159.866
51.84000 162.948
51.88000 165.685
51.92000 169.249
51.96000 170.133
52.00000 169.510
52.04000 162.564
52.08000 178.382
52.12000 165.258
52.16000 163.050
52.20000 161.998
52.24000 164.258
52.28000 154.749
52.32000 159.225
52.36000 152.524
52.40000 160.755
52.44000 157.579
52.48000 171.841
52.52000 160.111
52.56000 160.717
52.60000 154.792
52.64000 165.118
52.68000 166.203
52.72000 157.723
52.76000 156.290
52.80000 154.168
52.84000 160.344
52.88000 159.218
52.92000 161.720
52.96000 156.573
53.00000 156.085
53.04000 151.385
53.08000 163.516
53.12000 160.252
53.16000 165.656
53.20000 175.966
53.24000 156.334
53.28000 161.210
53.32000 169.253
53.36000 149.077
53.40000 160.856
53.44000 159.781
53.48000 165.506
53.52000 169.819
53.56000 157.465
53.60000 161.747
53.64000 159.685
53.68000 165.974
53.72000 159.128
53.76000 157.267
53.80000 153.796
53.84000 156.357
53.88000 148.106
53.92000 165.990
53.96000 155.583
54.00000 167.533
54.04000 169.857
54.08000 162.347
54.12000 162.610
54.16000 146.306
54.20000 159.297
54.24000 154.296
54.28000 152.680
54.32000 147.481
54.36000 145.471
54.40000 156.196
54.44000 153.136
54.48000 160.876
54.52000 163.026
54.56000 155.413
54.60000 162.435
54.64000 163.171
54.68000 161.452
54.72000 151.149
54.76000 154.631
54.80000 162.991
54.84000 161.591
54.88000 157.724
54.92000 154.732
54.96000 154.840
55.00000 151.599
55.04000 156.305
55.08000 156.815
55.12000 169.973
55.16000 156.128
55.20000 155.192
55.24000 161.533
55.28000 153.211
55.32000 190.658
55.36000 160.455
55.40000 175.184
55.44000 175.028
55.48000 186.770
55.52000 200.064
55.56000 200.064
55.60000 220.510
55.64000 251.420
55.68000 274.621
55.72000 333.176
55.76000 388.775
55.80000 463.626
55.84000 514.013
55.88000 582.484
55.92000 610.971
55.96000 648.288
56.00000 644.429
56.04000 585.908
56.08000 541.489
56.12000 458.729
56.16000 393.381
56.20000 338.604
56.24000 296.300
56.28000 254.986
56.32000 226.547
56.36000 197.784
56.40000 183.535
56.44000 170.502
56.48000 165.537
56.52000 161.334
56.56000 156.392
56.60000 158.760
56.64000 164.619
56.68000 154.086
56.72000 153.119
56.76000 161.055
56.80000 152.287
56.84000 160.391
56.88000 156.067
56.92000 151.402
56.96000 151.917
57.00000 152.807
57.04000 151.301
57.08000 138.904
57.12000 156.843
57.16000 149.773
57.20000 148.354
57.24000 152.535
57.28000 134.477
57.32000 139.692
57.36000 140.667
57.40000 144.909
57.44000 154.414
57.48000 146.086
57.52000 136.597
57.56000 147.890
57.60000 131.997
57.64000 140.569
57.68000 144.189
57.72000 140.790
57.76000 144.552
57.80000 145.425
57.84000 127.885
57.88000 135.425
57.92000 141.179
57.96000 139.164
58.00000 138.973
58.04000 143.170
58.08000 148.514
58.12000 142.539
58.16000 142.092
58.20000 139.812
58.24000 132.818
58.28000 135.180
58.32000 135.141
58.36000 140.997
58.40000 144.277
58.44000 143.912
58.48000 139.382
58.52000 138.390
58.56000 138.167
58.60000 135.016
58.64000 144.743
58.68000 133.688
58.72000 120.626
58.76000 130.473
58.80000 133.386
58.84000 144.625
58.88000 131.526
58.92000 143.660
58.96000 138.234
59.00000 133.605
59.04000 135.656
59.08000 140.237
59.12000 135.235
59.16000 133.565
59.20000 134.650
59.24000 135.660
59.28000 140.585
59.32000 136.062
59.36000 142.112
59.40000 141.467
59.44000 144.622
59.48000 136.183
59.52000 138.265
59.56000 137.192
59.60000 136.005
59.64000 141.416
59.68000 129.034
59.72000 129.213
59.76000 133.230
59.80000 136.112
59.84000 135.077
59.88000 131.093
59.92000 127.423
59.96000 130.235
60.00000 140.151
60.04000 138.501
60.08000 135.545
60.12000 139.099
60.16000 132.828
60.20000 133.324
60.24000 140.753
60.28000 125.388
60.32000 134.723
60.36000 131.492
60.40000 131.797
60.44000 134.661
60.48000 133.356
60.52000 133.624
60.56000 132.564
60.60000 136.368
60.64000 141.553
60.68000 139.686
60.72000 135.599
60.76000 141.475
60.80000 131.237
60.84000 133.044
60.88000 138.515
60.92000 143.093
60.96000 144.074
61.00000 146.194
61.04000 138.348
61.08000 139.194
61.12000 137.224
61.16000 132.406
61.20000 126.284
61.24000 137.349
61.28000 134.516
61.32000 138.178
61.36000 143.923
61.40000 131.022
61.44000 141.014
61.48000 147.138
61.52000 152.031
61.56000 191.916
61.60000 239.253
61.64000 277.868
61.68000 298.018
61.72000 299.239
61.76000 289.712
61.80000 249.330
61.84000 209.968
61.88000 168.219
61.92000 151.730
61.96000 144.613
62.00000 145.916
62.04000 141.659
62.08000 145.343
62.12000 141.038
62.16000 137.484
62.20000 142.638
62.24000 140.667
62.28000 147.052
62.32000 147.624
62.36000 142.495
62.40000 149.575
62.44000 154.388
62.48000 139.044
62.52000 150.186
62.56000 134.988
62.60000 139.981
62.64000 137.782
62.68000 135.109
62.72000 147.320
62.76000 141.798
62.80000 143.150
62.84000 144.668
62.88000 144.017
62.92000 145.094
62.96000 152.716
63.00000 149.279
63.04000 144.817
63.08000 152.882
63.12000 144.861
63.16000 145.372
63.20000 148.390
63.24000 147.570
63.28000 157.969
63.32000 150.776
63.36000 148.823
63.40000 150.401
63.44000 150.645
63.48000 138.844
63.52000 147.732
63.56000 151.454
63.60000 149.845
63.64000 156.418
63.68000 150.552
63.72000 151.509
63.76000 160.148
63.80000 152.627
63.84000 153.051
63.88000 161.670
63.92000 157.096
63.96000 158.091
64.00000 145.098
64.04000 150.820
64.08000 157.670
64.12000 150.657
64.16000 155.695
64.20000 156.045
64.24000 163.468
64.28000 178.325
64.32000 159.876
64.36000 151.956
64.40000 157.508
64.44000 163.754
64.48000 170.594
64.52000 167.504
64.56000 160.299
64.60000 173.964
64.64000 177.020
64.68000 171.328
64.72000 161.238
64.76000 180.432
64.80000 168.077
64.84000 171.688
64.88000 176.999
64.92000 175.735
64.96000 187.489
65.00000 189.452
65.04000 206.484
65.08000 196.510
65.12000 210.305
65.16000 211.107
65.20000 227.025
65.24000 241.798
65.28000 257.423
65.32000 264.768
65.36000 316.153
65.40000 339.227
65.44000 371.030
65.48000 385.556
65.52000 430.717
65.56000 441.737
65.60000 459.308
65.64000 470.211
65.68000 512.495
65.72000 604.981
65.76000 814.092
65.80000 1033.944
65.84000 1155.931
65.88000 1163.622
65.92000 1142.025
65.96000 1049.693
66.00000 800.242
66.04000 546.690
66.08000 380.456
66.12000 329.803
66.16000 324.422
66.20000 316.019
66.24000 302.240
66.28000 332.639
66.32000 393.753
66.36000 407.623
66.40000 465.030
66.44000 468.051
66.48000 444.738
66.52000 447.719
66.56000 394.615
66.60000 338.025
66.64000 324.546
66.68000 321.191
66.72000 329.143
66.76000 321.746
66.80000 303.238
66.84000 317.823
66.88000 330.745
66.92000 335.000
66.96000 341.480
67.00000 350.693
67.04000 347.693
67.08000 353.727
67.12000 361.259
67.16000 373.157
67.20000 375.758
67.24000 382.807
67.28000 391.852
67.32000 389.928
67.36000 389.543
67.40000 407.511
67.44000 415.366
67.48000 423.715
67.52000 446.001
67.56000 436.455
67.60000 460.323
67.64000 459.770
67.68000 466.965
67.72000 476.880
67.76000 505.888
67.80000 510.073
67.84000 495.222
67.88000 514.398
67.92000 502.775
67.96000 509.629
68.00000 559.601
68.04000 570.247
68.08000 562.039
68.12000 587.099
68.16000 596.655
68.20000 603.805
68.24000 605.406
68.28000 656.600
68.32000 659.680
68.36000 704.588
68.40000 703.727
68.44000 728.743
68.48000 776.515
68.52000 802.960
68.56000 883.476
68.60000 958.711
68.64000 1086.027
68.68000 1340.379
68.72000 1563.368
68.76000 1783.742
68.80000 2012.457
68.84000 2271.553
68.88000 2658.667
68.92000 4123.523
68.96000 9407.271
69.00000 25826.787
69.04000 47927.559
69.08000 62571.191
69.12000 65862.172
69.16000 67555.484
69.20000 69491.430
69.24000 61941.730
69.28000 48509.992
69.32000 38278.105
69.36000 33806.742
69.40000 29329.943
69.44000 19690.051
69.48000 9902.872
69.52000 4183.600
69.56000 2232.595
69.60000 1683.110
69.64000 1406.049
69.68000 1229.643
69.72000 1066.394
69.76000 1000.904
69.80000 931.310
69.84000 870.331
69.88000 823.748
69.92000 779.036
69.96000 761.516
70.00000 721.081