File: XRD/XRD/30-09-2025 Dep 1/XY Data/BTO_Mapping_Theta2Theta_30-09-2025_001_57_26-765_-29-726.xy
20.00000 589.187
20.04000 564.744
20.08000 562.505
20.12000 573.569
20.16000 579.500
20.20000 579.042
20.24000 575.470
20.28000 568.931
20.32000 558.091
20.36000 569.363
20.40000 569.513
20.44000 570.405
20.48000 569.031
20.52000 555.749
20.56000 565.593
20.60000 582.531
20.64000 555.768
20.68000 575.956
20.72000 568.325
20.76000 553.895
20.80000 563.544
20.84000 552.191
20.88000 586.668
20.92000 569.167
20.96000 572.876
21.00000 568.331
21.04000 541.760
21.08000 573.717
21.12000 582.657
21.16000 568.680
21.20000 561.388
21.24000 563.398
21.28000 545.018
21.32000 554.645
21.36000 562.795
21.40000 594.706
21.44000 569.719
21.48000 560.061
21.52000 596.749
21.56000 609.204
21.60000 639.012
21.64000 653.732
21.68000 724.771
21.72000 773.619
21.76000 844.826
21.80000 909.775
21.84000 1007.562
21.88000 1068.851
21.92000 1140.390
21.96000 1163.112
22.00000 1092.899
22.04000 984.396
22.08000 943.336
22.12000 832.230
22.16000 749.867
22.20000 682.775
22.24000 647.434
22.28000 604.925
22.32000 590.743
22.36000 602.059
22.40000 589.526
22.44000 556.041
22.48000 544.222
22.52000 552.560
22.56000 535.737
22.60000 535.342
22.64000 534.013
22.68000 548.271
22.72000 537.394
22.76000 542.343
22.80000 536.170
22.84000 525.878
22.88000 532.602
22.92000 539.164
22.96000 536.240
23.00000 533.992
23.04000 527.626
23.08000 527.582
23.12000 518.531
23.16000 505.736
23.20000 500.313
23.24000 542.529
23.28000 532.840
23.32000 524.519
23.36000 519.297
23.40000 536.615
23.44000 528.444
23.48000 519.048
23.52000 548.688
23.56000 526.615
23.60000 529.964
23.64000 508.176
23.68000 515.164
23.72000 526.882
23.76000 529.299
23.80000 514.922
23.84000 530.804
23.88000 501.877
23.92000 508.347
23.96000 507.834
24.00000 498.452
24.04000 512.717
24.08000 506.861
24.12000 512.679
24.16000 498.476
24.20000 511.620
24.24000 498.777
24.28000 522.782
24.32000 516.648
24.36000 501.887
24.40000 497.777
24.44000 514.427
24.48000 499.139
24.52000 503.901
24.56000 485.448
24.60000 509.772
24.64000 510.101
24.68000 500.540
24.72000 520.704
24.76000 507.254
24.80000 506.061
24.84000 486.788
24.88000 506.958
24.92000 500.178
24.96000 507.467
25.00000 512.958
25.04000 500.992
25.08000 489.155
25.12000 496.763
25.16000 491.803
25.20000 491.864
25.24000 511.640
25.28000 491.930
25.32000 505.221
25.36000 499.625
25.40000 480.277
25.44000 493.269
25.48000 491.799
25.52000 485.855
25.56000 469.685
25.60000 467.341
25.64000 498.064
25.68000 493.235
25.72000 494.370
25.76000 490.170
25.80000 463.006
25.84000 479.142
25.88000 488.493
25.92000 483.779
25.96000 478.081
26.00000 473.306
26.04000 477.575
26.08000 481.556
26.12000 487.494
26.16000 487.352
26.20000 489.806
26.24000 488.723
26.28000 464.677
26.32000 471.005
26.36000 482.891
26.40000 463.842
26.44000 465.134
26.48000 462.524
26.52000 459.970
26.56000 487.411
26.60000 487.625
26.64000 464.349
26.68000 467.172
26.72000 472.796
26.76000 472.890
26.80000 468.195
26.84000 478.854
26.88000 458.874
26.92000 466.553
26.96000 457.653
27.00000 466.603
27.04000 477.898
27.08000 459.214
27.12000 478.599
27.16000 457.644
27.20000 466.692
27.24000 454.649
27.28000 470.809
27.32000 454.544
27.36000 452.028
27.40000 464.498
27.44000 461.766
27.48000 465.504
27.52000 468.190
27.56000 447.061
27.60000 466.625
27.64000 466.715
27.68000 462.911
27.72000 441.135
27.76000 451.276
27.80000 458.057
27.84000 443.486
27.88000 458.953
27.92000 458.182
27.96000 475.234
28.00000 443.677
28.04000 461.148
28.08000 453.593
28.12000 459.876
28.16000 440.612
28.20000 460.242
28.24000 445.580
28.28000 454.163
28.32000 451.763
28.36000 450.165
28.40000 425.819
28.44000 445.157
28.48000 446.305
28.52000 453.280
28.56000 463.298
28.60000 472.869
28.64000 440.749
28.68000 448.952
28.72000 441.042
28.76000 438.679
28.80000 451.311
28.84000 433.829
28.88000 419.431
28.92000 442.305
28.96000 448.611
29.00000 442.067
29.04000 442.857
29.08000 435.650
29.12000 448.237
29.16000 436.608
29.20000 446.240
29.24000 446.749
29.28000 440.843
29.32000 445.379
29.36000 434.258
29.40000 446.372
29.44000 439.517
29.48000 444.006
29.52000 439.344
29.56000 443.198
29.60000 445.714
29.64000 443.127
29.68000 462.353
29.72000 461.665
29.76000 458.418
29.80000 478.591
29.84000 474.051
29.88000 496.444
29.92000 482.241
29.96000 479.543
30.00000 477.269
30.04000 458.076
30.08000 454.464
30.12000 445.987
30.16000 463.635
30.20000 453.774
30.24000 460.972
30.28000 468.925
30.32000 462.537
30.36000 457.545
30.40000 452.302
30.44000 477.812
30.48000 467.067
30.52000 485.459
30.56000 495.190
30.60000 480.788
30.64000 488.321
30.68000 512.872
30.72000 522.766
30.76000 536.250
30.80000 580.569
30.84000 604.102
30.88000 694.362
30.92000 873.864
30.96000 1201.035
31.00000 1571.532
31.04000 2157.571
31.08000 2863.638
31.12000 3567.587
31.16000 4103.073
31.20000 4389.234
31.24000 4411.152
31.28000 4071.912
31.32000 3511.115
31.36000 2822.003
31.40000 2229.833
31.44000 1603.422
31.48000 1186.564
31.52000 918.787
31.56000 740.736
31.60000 661.924
31.64000 569.751
31.68000 549.629
31.72000 509.286
31.76000 486.592
31.80000 474.089
31.84000 468.019
31.88000 463.504
31.92000 455.529
31.96000 449.750
32.00000 427.895
32.04000 429.442
32.08000 440.235
32.12000 430.214
32.16000 430.949
32.20000 424.034
32.24000 396.647
32.28000 413.216
32.32000 394.193
32.36000 407.222
32.40000 417.814
32.44000 409.377
32.48000 411.217
32.52000 396.369
32.56000 396.293
32.60000 382.551
32.64000 370.649
32.68000 399.396
32.72000 392.312
32.76000 400.701
32.80000 411.127
32.84000 428.256
32.88000 453.554
32.92000 459.321
32.96000 497.371
33.00000 507.053
33.04000 499.420
33.08000 494.257
33.12000 461.578
33.16000 410.430
33.20000 385.191
33.24000 361.307
33.28000 369.681
33.32000 374.039
33.36000 365.405
33.40000 368.129
33.44000 362.120
33.48000 358.032
33.52000 357.415
33.56000 367.276
33.60000 362.839
33.64000 359.448
33.68000 346.902
33.72000 356.171
33.76000 359.570
33.80000 350.010
33.84000 368.468
33.88000 350.606
33.92000 350.189
33.96000 364.407
34.00000 361.050
34.04000 349.498
34.08000 345.243
34.12000 354.083
34.16000 350.336
34.20000 342.381
34.24000 350.329
34.28000 344.458
34.32000 342.739
34.36000 331.736
34.40000 334.504
34.44000 321.426
34.48000 327.504
34.52000 334.365
34.56000 347.251
34.60000 345.963
34.64000 340.179
34.68000 341.847
34.72000 351.046
34.76000 335.479
34.80000 320.486
34.84000 327.342
34.88000 331.830
34.92000 345.935
34.96000 326.830
35.00000 335.994
35.04000 339.416
35.08000 325.130
35.12000 334.941
35.16000 329.698
35.20000 327.685
35.24000 308.298
35.28000 321.716
35.32000 334.437
35.36000 318.121
35.40000 313.979
35.44000 319.057
35.48000 332.954
35.52000 328.286
35.56000 319.343
35.60000 321.488
35.64000 311.423
35.68000 315.265
35.72000 324.627
35.76000 309.559
35.80000 309.612
35.84000 319.519
35.88000 306.228
35.92000 307.948
35.96000 319.250
36.00000 302.134
36.04000 314.239
36.08000 319.684
36.12000 317.862
36.16000 308.641
36.20000 308.454
36.24000 307.738
36.28000 306.972
36.32000 320.044
36.36000 322.223
36.40000 314.344
36.44000 317.667
36.48000 313.428
36.52000 311.540
36.56000 321.549
36.60000 318.062
36.64000 329.467
36.68000 312.616
36.72000 305.698
36.76000 312.054
36.80000 317.794
36.84000 320.015
36.88000 316.703
36.92000 320.119
36.96000 320.719
37.00000 320.114
37.04000 317.349
37.08000 329.476
37.12000 303.809
37.16000 306.555
37.20000 296.726
37.24000 304.658
37.28000 318.947
37.32000 300.066
37.36000 304.631
37.40000 310.512
37.44000 296.191
37.48000 301.065
37.52000 298.569
37.56000 301.078
37.60000 318.052
37.64000 301.734
37.68000 301.238
37.72000 315.964
37.76000 301.230
37.80000 289.570
37.84000 314.614
37.88000 302.109
37.92000 306.698
37.96000 300.360
38.00000 316.516
38.04000 309.790
38.08000 317.423
38.12000 313.899
38.16000 321.664
38.20000 334.797
38.24000 327.155
38.28000 342.662
38.32000 357.245
38.36000 392.402
38.40000 422.699
38.44000 428.035
38.48000 437.992
38.52000 455.757
38.56000 481.923
38.60000 462.500
38.64000 457.948
38.68000 426.407
38.72000 376.477
38.76000 375.109
38.80000 349.856
38.84000 331.064
38.88000 311.864
38.92000 309.641
38.96000 307.484
39.00000 298.215
39.04000 294.344
39.08000 303.821
39.12000 301.925
39.16000 296.016
39.20000 276.466
39.24000 291.452
39.28000 297.835
39.32000 281.496
39.36000 283.692
39.40000 275.236
39.44000 275.518
39.48000 256.138
39.52000 271.279
39.56000 265.384
39.60000 281.645
39.64000 261.720
39.68000 289.308
39.72000 276.707
39.76000 279.300
39.80000 253.265
39.84000 270.537
39.88000 263.339
39.92000 268.672
39.96000 281.804
40.00000 289.349
40.04000 274.920
40.08000 270.250
40.12000 276.799
40.16000 278.084
40.20000 269.145
40.24000 270.179
40.28000 263.771
40.32000 268.980
40.36000 269.989
40.40000 279.320
40.44000 266.858
40.48000 251.205
40.52000 249.986
40.56000 255.831
40.60000 272.589
40.64000 263.394
40.68000 271.696
40.72000 261.156
40.76000 256.925
40.80000 247.009
40.84000 263.437
40.88000 258.485
40.92000 252.771
40.96000 254.694
41.00000 252.669
41.04000 269.776
41.08000 242.175
41.12000 255.494
41.16000 257.949
41.20000 268.993
41.24000 258.028
41.28000 257.306
41.32000 250.227
41.36000 258.301
41.40000 265.178
41.44000 256.746
41.48000 269.088
41.52000 253.464
41.56000 237.755
41.60000 252.178
41.64000 254.613
41.68000 252.661
41.72000 248.301
41.76000 254.544
41.80000 264.766
41.84000 226.747
41.88000 233.770
41.92000 243.393
41.96000 235.264
42.00000 249.542
42.04000 255.905
42.08000 257.694
42.12000 257.703
42.16000 238.372
42.20000 247.553
42.24000 258.089
42.28000 231.484
42.32000 247.480
42.36000 234.950
42.40000 244.321
42.44000 239.483
42.48000 247.521
42.52000 244.145
42.56000 250.466
42.60000 255.427
42.64000 246.939
42.68000 242.688
42.72000 244.067
42.76000 250.087
42.80000 234.201
42.84000 241.851
42.88000 233.476
42.92000 249.631
42.96000 252.053
43.00000 239.243
43.04000 234.702
43.08000 240.336
43.12000 235.649
43.16000 234.980
43.20000 246.924
43.24000 242.361
43.28000 257.063
43.32000 248.122
43.36000 240.677
43.40000 232.617
43.44000 239.162
43.48000 236.633
43.52000 238.950
43.56000 236.718
43.60000 236.729
43.64000 227.978
43.68000 237.791
43.72000 238.560
43.76000 243.701
43.80000 246.366
43.84000 234.103
43.88000 225.746
43.92000 241.133
43.96000 250.722
44.00000 243.579
44.04000 222.697
44.08000 244.522
44.12000 242.172
44.16000 251.268
44.20000 236.837
44.24000 252.306
44.28000 247.872
44.32000 269.326
44.36000 286.576
44.40000 308.819
44.44000 323.477
44.48000 340.754
44.52000 354.915
44.56000 402.930
44.60000 437.710
44.64000 523.138
44.68000 599.723
44.72000 646.131
44.76000 696.750
44.80000 728.177
44.84000 756.556
44.88000 733.245
44.92000 707.906
44.96000 686.681
45.00000 601.185
45.04000 572.215
45.08000 523.695
45.12000 458.087
45.16000 416.752
45.20000 368.138
45.24000 335.342
45.28000 315.088
45.32000 303.840
45.36000 276.531
45.40000 260.656
45.44000 251.004
45.48000 257.464
45.52000 254.781
45.56000 238.050
45.60000 232.496
45.64000 239.008
45.68000 229.211
45.72000 239.349
45.76000 222.226
45.80000 215.691
45.84000 227.267
45.88000 205.554
45.92000 220.411
45.96000 222.667
46.00000 212.029
46.04000 219.411
46.08000 203.508
46.12000 218.899
46.16000 221.512
46.20000 220.459
46.24000 215.916
46.28000 213.342
46.32000 220.229
46.36000 212.209
46.40000 213.725
46.44000 219.741
46.48000 222.267
46.52000 216.797
46.56000 219.381
46.60000 200.164
46.64000 204.448
46.68000 204.729
46.72000 211.113
46.76000 214.383
46.80000 206.376
46.84000 195.689
46.88000 212.555
46.92000 209.009
46.96000 191.469
47.00000 197.671
47.04000 206.381
47.08000 195.529
47.12000 196.731
47.16000 197.950
47.20000 204.842
47.24000 192.226
47.28000 200.553
47.32000 192.543
47.36000 193.586
47.40000 201.866
47.44000 197.023
47.48000 199.718
47.52000 205.702
47.56000 194.159
47.60000 190.945
47.64000 198.308
47.68000 196.949
47.72000 201.366
47.76000 195.378
47.80000 197.460
47.84000 189.285
47.88000 187.678
47.92000 202.856
47.96000 187.554
48.00000 196.408
48.04000 194.913
48.08000 194.302
48.12000 186.220
48.16000 195.281
48.20000 183.887
48.24000 197.408
48.28000 192.262
48.32000 188.353
48.36000 183.344
48.40000 187.404
48.44000 184.233
48.48000 179.948
48.52000 189.699
48.56000 189.592
48.60000 198.334
48.64000 194.160
48.68000 173.761
48.72000 178.746
48.76000 196.423
48.80000 186.513
48.84000 192.341
48.88000 186.820
48.92000 175.553
48.96000 189.557
49.00000 194.752
49.04000 204.131
49.08000 179.691
49.12000 195.976
49.16000 190.611
49.20000 195.654
49.24000 189.867
49.28000 192.820
49.32000 194.829
49.36000 188.366
49.40000 179.228
49.44000 186.756
49.48000 189.355
49.52000 180.136
49.56000 187.670
49.60000 182.771
49.64000 182.667
49.68000 189.046
49.72000 189.686
49.76000 191.090
49.80000 193.796
49.84000 184.244
49.88000 185.752
49.92000 184.530
49.96000 192.573
50.00000 190.036
50.04000 189.180
50.08000 202.956
50.12000 200.396
50.16000 208.642
50.20000 229.360
50.24000 240.914
50.28000 242.410
50.32000 265.628
50.36000 275.358
50.40000 293.217
50.44000 296.021
50.48000 292.137
50.52000 286.442
50.56000 285.693
50.60000 282.151
50.64000 253.775
50.68000 262.599
50.72000 252.469
50.76000 235.403
50.80000 217.111
50.84000 198.796
50.88000 200.888
50.92000 191.604
50.96000 188.272
51.00000 188.103
51.04000 177.155
51.08000 184.409
51.12000 189.283
51.16000 181.831
51.20000 180.321
51.24000 181.273
51.28000 181.477
51.32000 175.393
51.36000 173.900
51.40000 172.607
51.44000 167.708
51.48000 188.610
51.52000 175.836
51.56000 168.215
51.60000 181.717
51.64000 169.999
51.68000 171.528
51.72000 174.057
51.76000 183.107
51.80000 168.420
51.84000 163.386
51.88000 173.303
51.92000 171.239
51.96000 177.815
52.00000 162.117
52.04000 164.534
52.08000 173.168
52.12000 179.366
52.16000 165.836
52.20000 171.025
52.24000 179.538
52.28000 174.146
52.32000 163.284
52.36000 162.611
52.40000 164.938
52.44000 165.047
52.48000 179.425
52.52000 176.213
52.56000 164.517
52.60000 179.250
52.64000 153.755
52.68000 168.159
52.72000 173.547
52.76000 166.784
52.80000 177.399
52.84000 162.415
52.88000 171.741
52.92000 179.051
52.96000 154.810
53.00000 172.933
53.04000 158.605
53.08000 166.699
53.12000 171.363
53.16000 171.394
53.20000 171.942
53.24000 165.466
53.28000 165.402
53.32000 169.993
53.36000 164.118
53.40000 166.870
53.44000 153.227
53.48000 168.271
53.52000 165.325
53.56000 173.009
53.60000 166.984
53.64000 171.608
53.68000 165.117
53.72000 156.942
53.76000 170.685
53.80000 163.648
53.84000 158.942
53.88000 163.800
53.92000 169.250
53.96000 153.023
54.00000 157.195
54.04000 159.369
54.08000 162.705
54.12000 158.978
54.16000 169.086
54.20000 158.822
54.24000 157.690
54.28000 170.175
54.32000 169.974
54.36000 161.338
54.40000 160.798
54.44000 157.080
54.48000 153.266
54.52000 166.170
54.56000 165.353
54.60000 166.355
54.64000 166.594
54.68000 152.245
54.72000 172.572
54.76000 160.331
54.80000 166.633
54.84000 168.977
54.88000 163.854
54.92000 173.839
54.96000 168.817
55.00000 174.337
55.04000 173.142
55.08000 178.224
55.12000 170.743
55.16000 182.797
55.20000 199.683
55.24000 205.301
55.28000 218.578
55.32000 238.549
55.36000 248.727
55.40000 295.998
55.44000 340.065
55.48000 371.478
55.52000 433.950
55.56000 466.837
55.60000 487.752
55.64000 526.691
55.68000 530.916
55.72000 555.801
55.76000 520.714
55.80000 496.408
55.84000 451.399
55.88000 411.119
55.92000 351.816
55.96000 329.083
56.00000 279.679
56.04000 263.257
56.08000 236.885
56.12000 207.499
56.16000 213.352
56.20000 205.333
56.24000 182.035
56.28000 194.546
56.32000 181.643
56.36000 182.127
56.40000 173.534
56.44000 152.640
56.48000 162.584
56.52000 150.679
56.56000 157.015
56.60000 159.926
56.64000 149.297
56.68000 159.197
56.72000 168.629
56.76000 149.674
56.80000 154.419
56.84000 148.028
56.88000 160.243
56.92000 156.651
56.96000 150.467
57.00000 153.905
57.04000 144.690
57.08000 152.178
57.12000 148.568
57.16000 155.212
57.20000 152.990
57.24000 142.956
57.28000 154.656
57.32000 153.642
57.36000 145.189
57.40000 144.961
57.44000 142.058
57.48000 147.463
57.52000 159.485
57.56000 152.527
57.60000 143.171
57.64000 149.615
57.68000 136.456
57.72000 150.942
57.76000 147.652
57.80000 151.623
57.84000 143.116
57.88000 140.580
57.92000 148.074
57.96000 149.077
58.00000 147.205
58.04000 144.146
58.08000 134.499
58.12000 146.773
58.16000 158.336
58.20000 147.161
58.24000 138.858
58.28000 145.409
58.32000 153.455
58.36000 129.219
58.40000 140.231
58.44000 146.103
58.48000 143.023
58.52000 141.042
58.56000 144.912
58.60000 127.376
58.64000 135.211
58.68000 141.462
58.72000 139.304
58.76000 139.354
58.80000 140.483
58.84000 147.157
58.88000 147.968
58.92000 127.920
58.96000 135.003
59.00000 141.910
59.04000 146.414
59.08000 145.116
59.12000 135.313
59.16000 135.834
59.20000 141.197
59.24000 129.759
59.28000 139.901
59.32000 139.265
59.36000 134.715
59.40000 142.927
59.44000 142.755
59.48000 135.382
59.52000 147.861
59.56000 145.454
59.60000 148.997
59.64000 134.151
59.68000 133.047
59.72000 130.858
59.76000 135.990
59.80000 133.687
59.84000 144.343
59.88000 129.776
59.92000 136.075
59.96000 126.257
60.00000 135.184
60.04000 128.561
60.08000 134.981
60.12000 131.244
60.16000 126.293
60.20000 134.668
60.24000 138.286
60.28000 138.705
60.32000 140.417
60.36000 132.024
60.40000 137.504
60.44000 141.513
60.48000 134.684
60.52000 145.066
60.56000 137.624
60.60000 139.573
60.64000 131.848
60.68000 135.891
60.72000 127.574
60.76000 137.095
60.80000 134.919
60.84000 133.581
60.88000 139.360
60.92000 143.573
60.96000 143.336
61.00000 156.452
61.04000 142.977
61.08000 144.439
61.12000 145.863
61.16000 136.530
61.20000 144.472
61.24000 144.476
61.28000 147.804
61.32000 143.713
61.36000 148.631
61.40000 134.672
61.44000 147.148
61.48000 158.884
61.52000 206.242
61.56000 253.366
61.60000 308.787
61.64000 345.452
61.68000 374.820
61.72000 360.650
61.76000 318.123
61.80000 246.940
61.84000 205.151
61.88000 169.183
61.92000 155.647
61.96000 158.341
62.00000 156.062
62.04000 144.316
62.08000 149.964
62.12000 152.165
62.16000 152.150
62.20000 148.440
62.24000 157.321
62.28000 145.251
62.32000 146.628
62.36000 145.065
62.40000 145.343
62.44000 139.106
62.48000 153.844
62.52000 151.641
62.56000 151.706
62.60000 148.456
62.64000 136.964
62.68000 145.723
62.72000 151.840
62.76000 153.771
62.80000 145.687
62.84000 151.237
62.88000 150.824
62.92000 153.007
62.96000 152.534
63.00000 143.704
63.04000 148.318
63.08000 157.301
63.12000 151.278
63.16000 152.014
63.20000 165.297
63.24000 155.515
63.28000 154.961
63.32000 146.723
63.36000 146.307
63.40000 157.669
63.44000 153.281
63.48000 156.770
63.52000 154.693
63.56000 149.126
63.60000 154.731
63.64000 158.341
63.68000 149.149
63.72000 148.680
63.76000 161.812
63.80000 159.696
63.84000 168.647
63.88000 162.554
63.92000 161.716
63.96000 159.892
64.00000 174.196
64.04000 171.418
64.08000 155.299
64.12000 169.460
64.16000 164.636
64.20000 164.928
64.24000 163.918
64.28000 168.116
64.32000 179.338
64.36000 173.260
64.40000 166.826
64.44000 170.636
64.48000 172.582
64.52000 172.805
64.56000 180.216
64.60000 176.609
64.64000 179.010
64.68000 184.869
64.72000 194.401
64.76000 184.017
64.80000 204.860
64.84000 219.512
64.88000 227.055
64.92000 228.936
64.96000 264.793
65.00000 303.889
65.04000 313.428
65.08000 365.028
65.12000 380.220
65.16000 399.953
65.20000 419.170
65.24000 420.391
65.28000 420.727
65.32000 426.591
65.36000 398.551
65.40000 393.134
65.44000 388.193
65.48000 365.157
65.52000 353.955
65.56000 360.334
65.60000 371.467
65.64000 402.597
65.68000 526.880
65.72000 788.378
65.76000 1094.445
65.80000 1330.525
65.84000 1456.220
65.88000 1459.938
65.92000 1379.010
65.96000 1101.287
66.00000 756.155
66.04000 513.835
66.08000 397.728
66.12000 353.984
66.16000 347.531
66.20000 318.617
66.24000 349.650
66.28000 417.755
66.32000 477.671
66.36000 529.244
66.40000 547.530
66.44000 557.845
66.48000 554.394
66.52000 476.106
66.56000 394.901
66.60000 372.139
66.64000 357.267
66.68000 348.962
66.72000 357.434
66.76000 364.050
66.80000 346.404
66.84000 369.115
66.88000 354.373
66.92000 371.342
66.96000 374.847
67.00000 377.518
67.04000 406.396
67.08000 414.401
67.12000 409.150
67.16000 410.219
67.20000 409.428
67.24000 435.403
67.28000 432.670
67.32000 435.803
67.36000 460.338
67.40000 462.035
67.44000 482.772
67.48000 488.992
67.52000 482.121
67.56000 497.275
67.60000 508.727
67.64000 507.164
67.68000 529.850
67.72000 545.994
67.76000 550.484
67.80000 557.574
67.84000 564.105
67.88000 589.987
67.92000 612.842
67.96000 605.958
68.00000 598.788
68.04000 621.189
68.08000 643.253
68.12000 674.147
68.16000 677.391
68.20000 707.753
68.24000 716.619
68.28000 729.243
68.32000 776.686
68.36000 774.027
68.40000 817.827
68.44000 887.420
68.48000 899.471
68.52000 987.962
68.56000 1091.984
68.60000 1234.156
68.64000 1523.665
68.68000 1878.913
68.72000 2152.399
68.76000 2396.868
68.80000 2812.118
68.84000 3434.619
68.88000 4739.528
68.92000 11217.626
68.96000 26547.930
69.00000 53140.492
69.04000 76636.078
69.08000 87247.758
69.12000 90640.703
69.16000 93377.242
69.20000 89181.094
69.24000 72692.367
69.28000 56990.727
69.32000 48066.020
69.36000 41989.109
69.40000 32319.566
69.44000 18654.326
69.48000 8626.062
69.52000 4126.674
69.56000 2514.207
69.60000 1897.388
69.64000 1611.927
69.68000 1384.267
69.72000 1281.166
69.76000 1119.046
69.80000 1074.620
69.84000 1001.131
69.88000 906.802
69.92000 879.959
69.96000 831.293
70.00000 813.090