File: XRD/XRD/30-09-2025 Dep 1/XY Data/BTO_Mapping_Theta2Theta_30-09-2025_001_18_-1-045_9-945.xy
20.00000 562.578
20.04000 562.789
20.08000 569.345
20.12000 578.341
20.16000 575.021
20.20000 566.950
20.24000 564.878
20.28000 570.815
20.32000 582.904
20.36000 548.541
20.40000 575.735
20.44000 566.443
20.48000 555.868
20.52000 560.647
20.56000 546.764
20.60000 555.775
20.64000 560.833
20.68000 569.757
20.72000 541.523
20.76000 567.321
20.80000 574.898
20.84000 569.364
20.88000 567.325
20.92000 557.043
20.96000 550.086
21.00000 546.651
21.04000 542.568
21.08000 565.462
21.12000 545.458
21.16000 519.281
21.20000 543.975
21.24000 544.698
21.28000 556.028
21.32000 551.197
21.36000 544.855
21.40000 547.542
21.44000 525.423
21.48000 543.184
21.52000 545.327
21.56000 529.274
21.60000 546.365
21.64000 575.136
21.68000 535.563
21.72000 555.385
21.76000 569.120
21.80000 581.614
21.84000 617.150
21.88000 604.974
21.92000 630.026
21.96000 658.174
22.00000 685.487
22.04000 713.755
22.08000 711.356
22.12000 688.905
22.16000 686.287
22.20000 654.780
22.24000 619.097
22.28000 601.461
22.32000 567.423
22.36000 561.868
22.40000 530.882
22.44000 528.120
22.48000 543.037
22.52000 526.495
22.56000 535.948
22.60000 528.560
22.64000 530.681
22.68000 513.515
22.72000 512.333
22.76000 523.036
22.80000 521.985
22.84000 538.083
22.88000 510.818
22.92000 525.478
22.96000 532.959
23.00000 533.428
23.04000 526.008
23.08000 515.389
23.12000 538.586
23.16000 536.091
23.20000 552.836
23.24000 502.909
23.28000 513.389
23.32000 502.628
23.36000 507.131
23.40000 517.005
23.44000 494.194
23.48000 494.515
23.52000 491.796
23.56000 537.002
23.60000 537.779
23.64000 498.343
23.68000 496.902
23.72000 516.951
23.76000 507.542
23.80000 517.974
23.84000 541.254
23.88000 504.354
23.92000 544.916
23.96000 521.662
24.00000 535.707
24.04000 555.278
24.08000 533.368
24.12000 543.290
24.16000 510.620
24.20000 529.031
24.24000 511.512
24.28000 520.410
24.32000 512.701
24.36000 517.935
24.40000 501.906
24.44000 494.155
24.48000 499.711
24.52000 504.175
24.56000 489.438
24.60000 482.494
24.64000 492.097
24.68000 490.876
24.72000 496.950
24.76000 491.802
24.80000 489.488
24.84000 484.043
24.88000 488.607
24.92000 472.584
24.96000 481.571
25.00000 494.645
25.04000 484.837
25.08000 478.914
25.12000 462.737
25.16000 473.323
25.20000 478.875
25.24000 473.957
25.28000 466.837
25.32000 481.697
25.36000 466.498
25.40000 455.805
25.44000 485.201
25.48000 473.539
25.52000 488.354
25.56000 476.143
25.60000 469.367
25.64000 458.052
25.68000 460.871
25.72000 471.433
25.76000 458.212
25.80000 458.646
25.84000 473.059
25.88000 456.085
25.92000 469.403
25.96000 457.472
26.00000 467.132
26.04000 459.117
26.08000 438.256
26.12000 474.410
26.16000 455.393
26.20000 437.332
26.24000 462.533
26.28000 467.467
26.32000 458.512
26.36000 457.002
26.40000 468.351
26.44000 464.379
26.48000 447.222
26.52000 443.948
26.56000 456.311
26.60000 462.343
26.64000 458.560
26.68000 461.595
26.72000 464.405
26.76000 447.641
26.80000 445.303
26.84000 434.064
26.88000 446.293
26.92000 471.832
26.96000 462.216
27.00000 438.966
27.04000 440.460
27.08000 430.536
27.12000 445.218
27.16000 461.254
27.20000 447.937
27.24000 453.767
27.28000 427.122
27.32000 436.332
27.36000 431.930
27.40000 445.839
27.44000 415.511
27.48000 441.153
27.52000 452.291
27.56000 429.863
27.60000 432.416
27.64000 440.897
27.68000 428.699
27.72000 431.988
27.76000 437.787
27.80000 452.368
27.84000 437.329
27.88000 420.397
27.92000 421.688
27.96000 446.110
28.00000 439.723
28.04000 417.419
28.08000 439.773
28.12000 443.445
28.16000 422.904
28.20000 436.025
28.24000 438.039
28.28000 416.316
28.32000 432.823
28.36000 431.992
28.40000 431.708
28.44000 442.992
28.48000 423.215
28.52000 428.404
28.56000 436.511
28.60000 414.474
28.64000 418.285
28.68000 427.059
28.72000 443.323
28.76000 418.347
28.80000 414.928
28.84000 429.082
28.88000 428.076
28.92000 410.576
28.96000 424.621
29.00000 401.609
29.04000 420.921
29.08000 422.582
29.12000 439.767
29.16000 427.826
29.20000 398.415
29.24000 426.318
29.28000 421.569
29.32000 411.932
29.36000 431.819
29.40000 429.106
29.44000 428.367
29.48000 411.803
29.52000 403.652
29.56000 423.634
29.60000 404.273
29.64000 405.180
29.68000 413.459
29.72000 406.342
29.76000 418.243
29.80000 413.261
29.84000 416.706
29.88000 434.159
29.92000 440.491
29.96000 432.097
30.00000 448.313
30.04000 461.433
30.08000 444.835
30.12000 423.518
30.16000 451.694
30.20000 453.004
30.24000 428.268
30.28000 436.467
30.32000 427.509
30.36000 429.320
30.40000 416.206
30.44000 433.980
30.48000 413.908
30.52000 420.824
30.56000 423.326
30.60000 434.642
30.64000 416.630
30.68000 442.537
30.72000 441.052
30.76000 432.478
30.80000 463.146
30.84000 450.647
30.88000 492.578
30.92000 497.657
30.96000 496.218
31.00000 549.391
31.04000 593.054
31.08000 708.644
31.12000 854.246
31.16000 1119.365
31.20000 1510.655
31.24000 1973.871
31.28000 2577.994
31.32000 3017.036
31.36000 3339.262
31.40000 3420.007
31.44000 3174.528
31.48000 2748.150
31.52000 2214.409
31.56000 1696.516
31.60000 1229.147
31.64000 898.979
31.68000 726.790
31.72000 601.845
31.76000 522.271
31.80000 487.880
31.84000 457.041
31.88000 469.813
31.92000 425.183
31.96000 422.421
32.00000 411.913
32.04000 413.010
32.08000 419.433
32.12000 399.058
32.16000 392.365
32.20000 398.603
32.24000 398.921
32.28000 396.327
32.32000 389.602
32.36000 406.594
32.40000 393.695
32.44000 388.768
32.48000 391.711
32.52000 377.507
32.56000 387.289
32.60000 370.611
32.64000 380.290
32.68000 387.907
32.72000 362.962
32.76000 378.926
32.80000 367.004
32.84000 348.821
32.88000 363.306
32.92000 365.486
32.96000 390.712
33.00000 393.093
33.04000 380.427
33.08000 390.702
33.12000 376.161
33.16000 365.606
33.20000 372.077
33.24000 362.871
33.28000 346.928
33.32000 345.622
33.36000 365.133
33.40000 347.994
33.44000 358.726
33.48000 354.340
33.52000 356.481
33.56000 358.533
33.60000 341.498
33.64000 341.215
33.68000 337.169
33.72000 336.795
33.76000 346.092
33.80000 337.450
33.84000 333.066
33.88000 339.392
33.92000 336.690
33.96000 344.715
34.00000 348.674
34.04000 338.404
34.08000 335.788
34.12000 331.473
34.16000 342.476
34.20000 361.911
34.24000 338.972
34.28000 342.706
34.32000 357.562
34.36000 347.038
34.40000 333.664
34.44000 350.495
34.48000 347.595
34.52000 353.486
34.56000 338.382
34.60000 339.974
34.64000 346.314
34.68000 359.658
34.72000 328.031
34.76000 323.484
34.80000 329.758
34.84000 347.633
34.88000 347.555
34.92000 320.594
34.96000 324.588
35.00000 323.632
35.04000 319.578
35.08000 316.273
35.12000 312.205
35.16000 334.765
35.20000 313.900
35.24000 309.821
35.28000 312.555
35.32000 312.737
35.36000 302.881
35.40000 294.665
35.44000 301.020
35.48000 300.813
35.52000 289.474
35.56000 317.866
35.60000 312.532
35.64000 290.795
35.68000 302.629
35.72000 313.192
35.76000 310.377
35.80000 317.723
35.84000 300.774
35.88000 304.253
35.92000 316.687
35.96000 297.175
36.00000 306.548
36.04000 309.750
36.08000 300.935
36.12000 313.705
36.16000 306.971
36.20000 314.926
36.24000 301.896
36.28000 302.218
36.32000 303.842
36.36000 308.284
36.40000 300.895
36.44000 300.719
36.48000 309.667
36.52000 295.721
36.56000 300.208
36.60000 300.935
36.64000 299.487
36.68000 292.931
36.72000 311.537
36.76000 303.055
36.80000 302.688
36.84000 301.581
36.88000 287.441
36.92000 293.661
36.96000 303.030
37.00000 309.892
37.04000 301.301
37.08000 310.274
37.12000 306.067
37.16000 298.808
37.20000 302.480
37.24000 293.948
37.28000 309.428
37.32000 295.176
37.36000 298.254
37.40000 295.572
37.44000 285.147
37.48000 295.336
37.52000 305.252
37.56000 287.817
37.60000 310.396
37.64000 297.478
37.68000 297.430
37.72000 301.897
37.76000 290.020
37.80000 299.901
37.84000 289.223
37.88000 291.017
37.92000 286.626
37.96000 283.166
38.00000 279.471
38.04000 296.510
38.08000 308.408
38.12000 308.977
38.16000 307.328
38.20000 313.090
38.24000 299.912
38.28000 310.274
38.32000 326.358
38.36000 340.110
38.40000 347.260
38.44000 378.852
38.48000 418.630
38.52000 464.807
38.56000 572.029
38.60000 695.109
38.64000 789.573
38.68000 887.528
38.72000 938.041
38.76000 961.657
38.80000 896.193
38.84000 812.000
38.88000 672.472
38.92000 538.838
38.96000 454.888
39.00000 388.294
39.04000 356.234
39.08000 325.800
39.12000 301.930
39.16000 285.829
39.20000 291.743
39.24000 276.466
39.28000 272.931
39.32000 290.063
39.36000 274.800
39.40000 272.947
39.44000 270.025
39.48000 268.055
39.52000 282.227
39.56000 283.004
39.60000 265.010
39.64000 263.842
39.68000 256.434
39.72000 276.773
39.76000 264.588
39.80000 261.708
39.84000 272.696
39.88000 265.379
39.92000 258.768
39.96000 269.432
40.00000 274.940
40.04000 265.359
40.08000 261.819
40.12000 258.477
40.16000 262.231
40.20000 267.747
40.24000 264.334
40.28000 251.055
40.32000 258.200
40.36000 265.965
40.40000 243.811
40.44000 253.039
40.48000 258.132
40.52000 258.596
40.56000 253.473
40.60000 246.413
40.64000 244.133
40.68000 261.776
40.72000 257.391
40.76000 264.770
40.80000 250.555
40.84000 259.957
40.88000 257.438
40.92000 242.113
40.96000 255.544
41.00000 248.412
41.04000 244.713
41.08000 259.033
41.12000 235.509
41.16000 239.095
41.20000 249.231
41.24000 239.747
41.28000 254.509
41.32000 259.057
41.36000 237.936
41.40000 251.629
41.44000 237.294
41.48000 252.377
41.52000 243.070
41.56000 257.988
41.60000 241.637
41.64000 245.722
41.68000 243.593
41.72000 241.502
41.76000 242.175
41.80000 229.785
41.84000 253.770
41.88000 230.049
41.92000 254.838
41.96000 231.440
42.00000 250.748
42.04000 240.704
42.08000 244.556
42.12000 235.795
42.16000 231.940
42.20000 237.801
42.24000 249.708
42.28000 243.252
42.32000 233.948
42.36000 248.253
42.40000 239.395
42.44000 226.759
42.48000 223.985
42.52000 242.105
42.56000 241.844
42.60000 234.812
42.64000 238.298
42.68000 238.651
42.72000 242.713
42.76000 229.780
42.80000 230.300
42.84000 230.813
42.88000 234.651
42.92000 228.711
42.96000 233.073
43.00000 235.579
43.04000 231.437
43.08000 233.189
43.12000 227.371
43.16000 227.570
43.20000 240.228
43.24000 220.814
43.28000 233.238
43.32000 224.249
43.36000 237.515
43.40000 236.021
43.44000 225.032
43.48000 216.479
43.52000 228.358
43.56000 231.996
43.60000 233.582
43.64000 222.000
43.68000 220.557
43.72000 220.226
43.76000 220.621
43.80000 218.215
43.84000 230.318
43.88000 223.698
43.92000 241.108
43.96000 228.239
44.00000 225.777
44.04000 230.920
44.08000 224.321
44.12000 210.420
44.16000 223.000
44.20000 215.953
44.24000 218.895
44.28000 227.253
44.32000 216.633
44.36000 228.234
44.40000 244.465
44.44000 233.045
44.48000 227.420
44.52000 238.740
44.56000 240.668
44.60000 244.638
44.64000 243.829
44.68000 245.580
44.72000 259.243
44.76000 238.204
44.80000 273.359
44.84000 272.082
44.88000 271.453
44.92000 304.174
44.96000 310.974
45.00000 326.568
45.04000 355.079
45.08000 361.910
45.12000 370.476
45.16000 364.036
45.20000 352.126
45.24000 316.469
45.28000 319.522
45.32000 285.567
45.36000 275.754
45.40000 269.608
45.44000 246.142
45.48000 227.385
45.52000 239.401
45.56000 227.308
45.60000 240.655
45.64000 218.105
45.68000 204.520
45.72000 233.342
45.76000 213.240
45.80000 213.357
45.84000 217.118
45.88000 196.377
45.92000 211.706
45.96000 206.561
46.00000 203.768
46.04000 215.882
46.08000 218.594
46.12000 206.595
46.16000 203.880
46.20000 200.809
46.24000 194.531
46.28000 204.987
46.32000 201.036
46.36000 217.472
46.40000 206.365
46.44000 212.265
46.48000 206.210
46.52000 202.640
46.56000 210.542
46.60000 213.641
46.64000 204.265
46.68000 197.223
46.72000 206.446
46.76000 204.265
46.80000 202.560
46.84000 198.048
46.88000 201.457
46.92000 192.714
46.96000 201.768
47.00000 191.681
47.04000 191.372
47.08000 188.579
47.12000 203.226
47.16000 190.348
47.20000 194.279
47.24000 177.868
47.28000 200.262
47.32000 200.770
47.36000 188.975
47.40000 187.689
47.44000 184.720
47.48000 195.573
47.52000 185.739
47.56000 193.904
47.60000 196.250
47.64000 179.903
47.68000 193.280
47.72000 176.393
47.76000 175.033
47.80000 185.296
47.84000 188.875
47.88000 180.526
47.92000 187.020
47.96000 180.724
48.00000 183.469
48.04000 172.448
48.08000 191.678
48.12000 188.246
48.16000 194.877
48.20000 194.772
48.24000 198.452
48.28000 182.485
48.32000 183.099
48.36000 185.121
48.40000 187.434
48.44000 189.021
48.48000 178.590
48.52000 185.194
48.56000 190.961
48.60000 187.833
48.64000 184.554
48.68000 186.802
48.72000 184.644
48.76000 171.944
48.80000 175.873
48.84000 186.091
48.88000 192.032
48.92000 190.617
48.96000 182.428
49.00000 185.320
49.04000 182.338
49.08000 182.240
49.12000 186.916
49.16000 175.796
49.20000 180.137
49.24000 177.224
49.28000 175.322
49.32000 189.325
49.36000 182.533
49.40000 166.638
49.44000 170.380
49.48000 175.695
49.52000 175.392
49.56000 180.677
49.60000 190.821
49.64000 176.225
49.68000 180.552
49.72000 173.705
49.76000 178.696
49.80000 184.046
49.84000 179.963
49.88000 174.624
49.92000 179.208
49.96000 173.444
50.00000 182.449
50.04000 177.664
50.08000 173.662
50.12000 173.305
50.16000 176.798
50.20000 174.240
50.24000 170.348
50.28000 182.244
50.32000 186.788
50.36000 190.271
50.40000 191.393
50.44000 198.210
50.48000 208.898
50.52000 237.501
50.56000 224.346
50.60000 238.552
50.64000 259.151
50.68000 256.718
50.72000 254.745
50.76000 262.981
50.80000 253.799
50.84000 247.732
50.88000 222.334
50.92000 207.849
50.96000 195.211
51.00000 186.998
51.04000 171.183
51.08000 199.367
51.12000 187.180
51.16000 179.766
51.20000 169.247
51.24000 175.761
51.28000 173.149
51.32000 162.057
51.36000 185.254
51.40000 174.965
51.44000 169.844
51.48000 153.830
51.52000 167.319
51.56000 159.119
51.60000 162.003
51.64000 173.852
51.68000 159.792
51.72000 160.628
51.76000 164.887
51.80000 172.903
51.84000 162.174
51.88000 170.175
51.92000 162.703
51.96000 161.421
52.00000 171.646
52.04000 162.356
52.08000 159.914
52.12000 152.640
52.16000 163.450
52.20000 155.667
52.24000 155.727
52.28000 157.628
52.32000 162.314
52.36000 167.441
52.40000 149.780
52.44000 153.867
52.48000 155.812
52.52000 151.807
52.56000 160.426
52.60000 165.807
52.64000 168.158
52.68000 157.437
52.72000 163.777
52.76000 154.397
52.80000 161.833
52.84000 158.982
52.88000 150.111
52.92000 155.356
52.96000 157.423
53.00000 168.080
53.04000 152.050
53.08000 157.593
53.12000 151.970
53.16000 159.593
53.20000 171.649
53.24000 159.535
53.28000 172.334
53.32000 163.519
53.36000 166.187
53.40000 167.989
53.44000 152.977
53.48000 163.860
53.52000 148.212
53.56000 163.958
53.60000 160.573
53.64000 151.508
53.68000 154.320
53.72000 154.786
53.76000 143.863
53.80000 152.235
53.84000 160.174
53.88000 149.763
53.92000 166.487
53.96000 156.244
54.00000 156.358
54.04000 153.079
54.08000 154.556
54.12000 151.904
54.16000 151.944
54.20000 151.633
54.24000 156.323
54.28000 146.840
54.32000 149.325
54.36000 155.856
54.40000 156.874
54.44000 159.519
54.48000 150.109
54.52000 142.403
54.56000 165.655
54.60000 162.132
54.64000 162.245
54.68000 163.113
54.72000 152.924
54.76000 151.668
54.80000 162.682
54.84000 161.753
54.88000 168.229
54.92000 160.415
54.96000 156.937
55.00000 162.408
55.04000 151.726
55.08000 170.027
55.12000 167.033
55.16000 166.259
55.20000 166.027
55.24000 157.863
55.28000 162.094
55.32000 166.765
55.36000 172.786
55.40000 183.636
55.44000 173.446
55.48000 170.574
55.52000 180.686
55.56000 200.861
55.60000 227.234
55.64000 243.107
55.68000 271.498
55.72000 322.416
55.76000 387.937
55.80000 468.928
55.84000 549.157
55.88000 611.504
55.92000 633.931
55.96000 651.548
56.00000 633.322
56.04000 598.441
56.08000 544.873
56.12000 490.651
56.16000 409.377
56.20000 354.781
56.24000 289.486
56.28000 259.366
56.32000 216.228
56.36000 199.973
56.40000 195.818
56.44000 173.582
56.48000 167.566
56.52000 165.861
56.56000 160.665
56.60000 154.449
56.64000 149.645
56.68000 155.882
56.72000 147.792
56.76000 145.337
56.80000 153.853
56.84000 162.455
56.88000 161.062
56.92000 145.851
56.96000 145.803
57.00000 151.977
57.04000 142.695
57.08000 137.373
57.12000 147.846
57.16000 145.515
57.20000 145.553
57.24000 133.290
57.28000 144.196
57.32000 135.011
57.36000 144.108
57.40000 138.688
57.44000 146.341
57.48000 136.248
57.52000 150.456
57.56000 150.518
57.60000 142.087
57.64000 144.812
57.68000 128.712
57.72000 136.647
57.76000 134.211
57.80000 158.108
57.84000 145.962
57.88000 144.807
57.92000 134.379
57.96000 144.981
58.00000 140.270
58.04000 141.139
58.08000 137.436
58.12000 130.016
58.16000 131.923
58.20000 132.538
58.24000 144.606
58.28000 134.800
58.32000 128.939
58.36000 136.609
58.40000 133.344
58.44000 135.794
58.48000 140.595
58.52000 139.541
58.56000 138.344
58.60000 142.288
58.64000 132.317
58.68000 134.095
58.72000 145.599
58.76000 132.925
58.80000 126.601
58.84000 135.850
58.88000 131.548
58.92000 147.403
58.96000 140.020
59.00000 131.241
59.04000 151.589
59.08000 134.632
59.12000 144.949
59.16000 136.042
59.20000 128.583
59.24000 148.343
59.28000 135.882
59.32000 139.960
59.36000 133.521
59.40000 135.679
59.44000 129.937
59.48000 134.557
59.52000 134.035
59.56000 133.839
59.60000 126.581
59.64000 124.362
59.68000 138.363
59.72000 137.988
59.76000 137.423
59.80000 137.777
59.84000 139.045
59.88000 139.826
59.92000 139.256
59.96000 132.536
60.00000 142.660
60.04000 132.366
60.08000 134.312
60.12000 139.227
60.16000 124.646
60.20000 126.357
60.24000 133.380
60.28000 128.917
60.32000 132.281
60.36000 135.597
60.40000 130.870
60.44000 130.964
60.48000 129.049
60.52000 137.711
60.56000 126.918
60.60000 133.340
60.64000 128.199
60.68000 136.454
60.72000 126.012
60.76000 129.273
60.80000 141.873
60.84000 137.991
60.88000 134.838
60.92000 132.727
60.96000 137.718
61.00000 130.050
61.04000 130.494
61.08000 128.982
61.12000 139.670
61.16000 137.314
61.20000 142.808
61.24000 132.924
61.28000 140.192
61.32000 127.449
61.36000 131.635
61.40000 145.082
61.44000 147.345
61.48000 144.607
61.52000 153.548
61.56000 175.675
61.60000 215.115
61.64000 246.282
61.68000 244.432
61.72000 243.200
61.76000 239.920
61.80000 206.326
61.84000 169.767
61.88000 150.976
61.92000 143.870
61.96000 143.471
62.00000 142.083
62.04000 137.967
62.08000 145.204
62.12000 146.207
62.16000 142.413
62.20000 139.280
62.24000 140.614
62.28000 139.415
62.32000 135.436
62.36000 137.527
62.40000 144.281
62.44000 135.129
62.48000 143.011
62.52000 147.176
62.56000 145.096
62.60000 144.634
62.64000 150.225
62.68000 148.322
62.72000 138.401
62.76000 158.939
62.80000 141.948
62.84000 138.641
62.88000 142.115
62.92000 142.261
62.96000 147.934
63.00000 141.469
63.04000 146.143
63.08000 133.341
63.12000 145.367
63.16000 153.835
63.20000 134.398
63.24000 133.660
63.28000 143.013
63.32000 148.491
63.36000 155.320
63.40000 156.926
63.44000 149.747
63.48000 154.032
63.52000 153.442
63.56000 153.057
63.60000 150.804
63.64000 155.632
63.68000 146.370
63.72000 145.970
63.76000 143.015
63.80000 143.001
63.84000 153.606
63.88000 147.829
63.92000 154.233
63.96000 143.944
64.00000 155.619
64.04000 158.122
64.08000 144.988
64.12000 157.209
64.16000 152.602
64.20000 140.814
64.24000 166.199
64.28000 157.176
64.32000 152.219
64.36000 157.014
64.40000 155.009
64.44000 157.965
64.48000 165.339
64.52000 178.933
64.56000 170.939
64.60000 174.311
64.64000 170.786
64.68000 175.285
64.72000 170.153
64.76000 179.253
64.80000 185.528
64.84000 169.766
64.88000 167.526
64.92000 187.951
64.96000 180.049
65.00000 177.367
65.04000 192.380
65.08000 204.087
65.12000 201.934
65.16000 221.441
65.20000 225.680
65.24000 247.181
65.28000 245.291
65.32000 272.706
65.36000 287.796
65.40000 319.513
65.44000 341.137
65.48000 360.991
65.52000 393.755
65.56000 397.810
65.60000 407.619
65.64000 451.056
65.68000 465.669
65.72000 565.124
65.76000 692.305
65.80000 860.051
65.84000 939.224
65.88000 941.322
65.92000 910.545
65.96000 788.261
66.00000 585.744
66.04000 415.708
66.08000 314.517
66.12000 292.586
66.16000 289.454
66.20000 273.269
66.24000 279.594
66.28000 321.229
66.32000 343.501
66.36000 360.985
66.40000 393.245
66.44000 402.368
66.48000 384.685
66.52000 364.466
66.56000 336.896
66.60000 309.856
66.64000 301.930
66.68000 295.744
66.72000 302.545
66.76000 287.163
66.80000 307.120
66.84000 314.369
66.88000 310.402
66.92000 316.241
66.96000 317.615
67.00000 332.873
67.04000 339.633
67.08000 335.732
67.12000 327.984
67.16000 336.740
67.20000 346.561
67.24000 349.917
67.28000 345.597
67.32000 347.859
67.36000 360.957
67.40000 378.884
67.44000 391.271
67.48000 373.236
67.52000 392.640
67.56000 394.096
67.60000 404.064
67.64000 423.505
67.68000 437.365
67.72000 444.488
67.76000 459.963
67.80000 449.124
67.84000 432.450
67.88000 469.632
67.92000 476.508
67.96000 482.717
68.00000 507.124
68.04000 499.680
68.08000 507.945
68.12000 523.740
68.16000 538.720
68.20000 545.748
68.24000 535.028
68.28000 595.005
68.32000 592.674
68.36000 614.865
68.40000 633.661
68.44000 665.502
68.48000 675.074
68.52000 727.927
68.56000 778.728
68.60000 855.979
68.64000 982.625
68.68000 1152.085
68.72000 1339.352
68.76000 1537.415
68.80000 1666.073
68.84000 1971.897
68.88000 2313.475
68.92000 3924.263
68.96000 9332.052
69.00000 23199.025
69.04000 38858.961
69.08000 47255.238
69.12000 48460.203
69.16000 50206.762
69.20000 50629.445
69.24000 43019.328
69.28000 33046.227
69.32000 26822.752
69.36000 24045.436
69.40000 20247.455
69.44000 12598.559
69.48000 5895.358
69.52000 2674.454
69.56000 1613.379
69.60000 1289.107
69.64000 1114.180
69.68000 1004.297
69.72000 908.230
69.76000 820.963
69.80000 786.274
69.84000 739.405
69.88000 699.492
69.92000 681.919
69.96000 654.206
70.00000 618.906