File: XRD/XRD/30-09-2025 Dep 1/XY Data/BTO_Mapping_Theta2Theta_30-09-2025_001_37_-39-126_-8-316.xy
20.00000 560.056
20.04000 564.705
20.08000 561.887
20.12000 586.991
20.16000 561.163
20.20000 605.249
20.24000 559.274
20.28000 569.150
20.32000 562.451
20.36000 563.777
20.40000 540.022
20.44000 565.499
20.48000 559.240
20.52000 558.419
20.56000 555.231
20.60000 578.615
20.64000 564.736
20.68000 563.242
20.72000 541.492
20.76000 564.835
20.80000 567.542
20.84000 545.726
20.88000 566.700
20.92000 554.740
20.96000 541.587
21.00000 555.294
21.04000 543.510
21.08000 560.589
21.12000 544.255
21.16000 540.388
21.20000 566.237
21.24000 557.118
21.28000 548.221
21.32000 541.976
21.36000 578.086
21.40000 556.507
21.44000 546.734
21.48000 555.051
21.52000 545.187
21.56000 553.419
21.60000 553.140
21.64000 546.716
21.68000 522.679
21.72000 547.923
21.76000 557.126
21.80000 576.840
21.84000 568.492
21.88000 565.972
21.92000 601.524
21.96000 628.442
22.00000 649.111
22.04000 647.160
22.08000 654.839
22.12000 684.055
22.16000 686.764
22.20000 662.507
22.24000 648.856
22.28000 609.338
22.32000 578.207
22.36000 592.445
22.40000 525.073
22.44000 549.995
22.48000 542.921
22.52000 539.912
22.56000 536.560
22.60000 528.895
22.64000 538.094
22.68000 528.422
22.72000 544.051
22.76000 532.830
22.80000 499.102
22.84000 508.021
22.88000 520.973
22.92000 507.656
22.96000 515.570
23.00000 505.817
23.04000 532.010
23.08000 518.366
23.12000 507.139
23.16000 510.369
23.20000 512.334
23.24000 510.071
23.28000 496.359
23.32000 516.030
23.36000 498.375
23.40000 504.722
23.44000 520.369
23.48000 522.010
23.52000 502.910
23.56000 495.545
23.60000 506.747
23.64000 516.090
23.68000 509.794
23.72000 500.274
23.76000 519.190
23.80000 483.744
23.84000 499.189
23.88000 509.813
23.92000 519.156
23.96000 511.197
24.00000 523.448
24.04000 538.435
24.08000 499.517
24.12000 526.344
24.16000 512.277
24.20000 495.541
24.24000 506.044
24.28000 511.905
24.32000 487.413
24.36000 484.161
24.40000 484.700
24.44000 490.199
24.48000 492.669
24.52000 483.503
24.56000 495.791
24.60000 496.367
24.64000 468.886
24.68000 490.900
24.72000 475.845
24.76000 492.283
24.80000 488.389
24.84000 489.323
24.88000 468.399
24.92000 479.286
24.96000 483.035
25.00000 486.505
25.04000 487.077
25.08000 490.279
25.12000 477.620
25.16000 480.540
25.20000 456.618
25.24000 481.960
25.28000 471.916
25.32000 463.870
25.36000 489.005
25.40000 497.657
25.44000 474.216
25.48000 450.390
25.52000 477.580
25.56000 478.736
25.60000 454.882
25.64000 456.561
25.68000 473.351
25.72000 464.107
25.76000 482.699
25.80000 458.401
25.84000 469.846
25.88000 489.639
25.92000 466.440
25.96000 444.458
26.00000 466.004
26.04000 460.387
26.08000 465.828
26.12000 467.716
26.16000 459.161
26.20000 468.583
26.24000 466.318
26.28000 457.016
26.32000 436.911
26.36000 451.085
26.40000 479.036
26.44000 444.848
26.48000 448.599
26.52000 444.165
26.56000 437.121
26.60000 445.215
26.64000 476.402
26.68000 456.240
26.72000 443.055
26.76000 452.754
26.80000 457.798
26.84000 431.170
26.88000 442.844
26.92000 426.279
26.96000 458.594
27.00000 445.333
27.04000 449.161
27.08000 451.032
27.12000 456.557
27.16000 448.371
27.20000 430.527
27.24000 445.630
27.28000 457.277
27.32000 438.528
27.36000 431.448
27.40000 450.266
27.44000 466.012
27.48000 429.903
27.52000 453.167
27.56000 446.490
27.60000 433.997
27.64000 433.094
27.68000 446.269
27.72000 468.126
27.76000 418.936
27.80000 434.916
27.84000 446.445
27.88000 440.820
27.92000 429.280
27.96000 433.892
28.00000 430.925
28.04000 444.938
28.08000 426.594
28.12000 416.117
28.16000 399.987
28.20000 405.071
28.24000 424.482
28.28000 436.051
28.32000 420.209
28.36000 431.818
28.40000 449.218
28.44000 435.133
28.48000 420.050
28.52000 425.188
28.56000 435.798
28.60000 412.040
28.64000 417.483
28.68000 416.081
28.72000 423.760
28.76000 417.483
28.80000 418.471
28.84000 428.812
28.88000 424.775
28.92000 432.670
28.96000 408.048
29.00000 415.784
29.04000 411.914
29.08000 418.129
29.12000 404.206
29.16000 426.002
29.20000 426.858
29.24000 411.916
29.28000 429.767
29.32000 404.118
29.36000 414.179
29.40000 402.571
29.44000 416.851
29.48000 406.716
29.52000 403.923
29.56000 441.238
29.60000 412.908
29.64000 387.644
29.68000 415.661
29.72000 411.535
29.76000 431.433
29.80000 434.834
29.84000 403.319
29.88000 440.063
29.92000 426.501
29.96000 427.978
30.00000 446.078
30.04000 465.101
30.08000 458.324
30.12000 446.313
30.16000 462.162
30.20000 429.761
30.24000 412.999
30.28000 444.228
30.32000 421.621
30.36000 445.546
30.40000 430.194
30.44000 415.351
30.48000 429.383
30.52000 434.809
30.56000 416.096
30.60000 423.639
30.64000 421.360
30.68000 436.028
30.72000 427.511
30.76000 446.561
30.80000 457.232
30.84000 456.209
30.88000 451.829
30.92000 473.063
30.96000 491.295
31.00000 522.519
31.04000 556.638
31.08000 614.868
31.12000 745.028
31.16000 891.612
31.20000 1184.178
31.24000 1598.386
31.28000 2103.624
31.32000 2669.026
31.36000 3191.023
31.40000 3545.086
31.44000 3562.496
31.48000 3442.871
31.52000 2938.226
31.56000 2402.388
31.60000 1769.418
31.64000 1281.480
31.68000 953.139
31.72000 734.999
31.76000 605.001
31.80000 531.265
31.84000 485.511
31.88000 491.844
31.92000 463.434
31.96000 438.185
32.00000 419.367
32.04000 424.528
32.08000 413.901
32.12000 421.918
32.16000 416.023
32.20000 404.999
32.24000 427.658
32.28000 388.288
32.32000 395.918
32.36000 403.800
32.40000 397.472
32.44000 388.457
32.48000 384.601
32.52000 394.253
32.56000 376.025
32.60000 369.725
32.64000 378.933
32.68000 371.236
32.72000 353.019
32.76000 358.932
32.80000 362.985
32.84000 356.898
32.88000 388.313
32.92000 389.032
32.96000 391.303
33.00000 398.793
33.04000 402.905
33.08000 392.115
33.12000 389.239
33.16000 368.055
33.20000 361.384
33.24000 351.306
33.28000 360.720
33.32000 345.801
33.36000 362.606
33.40000 363.067
33.44000 361.371
33.48000 339.854
33.52000 358.892
33.56000 335.902
33.60000 344.420
33.64000 347.278
33.68000 338.666
33.72000 343.155
33.76000 338.603
33.80000 361.707
33.84000 333.366
33.88000 368.457
33.92000 342.447
33.96000 341.135
34.00000 344.772
34.04000 337.620
34.08000 335.319
34.12000 345.604
34.16000 344.858
34.20000 332.088
34.24000 337.644
34.28000 338.304
34.32000 343.908
34.36000 348.911
34.40000 361.174
34.44000 352.878
34.48000 327.044
34.52000 346.305
34.56000 347.841
34.60000 350.689
34.64000 330.993
34.68000 351.620
34.72000 342.347
34.76000 341.031
34.80000 330.852
34.84000 331.470
34.88000 328.570
34.92000 326.720
34.96000 324.137
35.00000 308.304
35.04000 326.667
35.08000 328.279
35.12000 304.855
35.16000 319.050
35.20000 317.310
35.24000 323.089
35.28000 321.108
35.32000 307.199
35.36000 316.732
35.40000 321.318
35.44000 304.519
35.48000 315.846
35.52000 322.197
35.56000 312.138
35.60000 318.814
35.64000 315.908
35.68000 304.371
35.72000 302.100
35.76000 313.687
35.80000 318.547
35.84000 314.968
35.88000 306.256
35.92000 312.858
35.96000 324.104
36.00000 309.692
36.04000 291.008
36.08000 292.349
36.12000 305.491
36.16000 297.043
36.20000 297.210
36.24000 307.375
36.28000 297.972
36.32000 310.831
36.36000 298.417
36.40000 309.925
36.44000 303.373
36.48000 294.454
36.52000 301.718
36.56000 307.014
36.60000 295.362
36.64000 287.559
36.68000 281.957
36.72000 305.634
36.76000 317.164
36.80000 308.733
36.84000 303.529
36.88000 301.574
36.92000 295.766
36.96000 296.179
37.00000 307.359
37.04000 297.548
37.08000 306.230
37.12000 297.365
37.16000 302.700
37.20000 318.836
37.24000 296.865
37.28000 303.405
37.32000 299.286
37.36000 288.164
37.40000 292.982
37.44000 294.265
37.48000 290.241
37.52000 303.923
37.56000 304.410
37.60000 286.702
37.64000 285.870
37.68000 294.128
37.72000 263.499
37.76000 292.111
37.80000 290.511
37.84000 295.224
37.88000 293.202
37.92000 280.647
37.96000 284.863
38.00000 297.791
38.04000 278.886
38.08000 309.965
38.12000 290.080
38.16000 299.214
38.20000 316.541
38.24000 310.525
38.28000 301.203
38.32000 295.701
38.36000 311.889
38.40000 328.722
38.44000 337.321
38.48000 379.194
38.52000 412.217
38.56000 482.726
38.60000 554.587
38.64000 637.282
38.68000 734.948
38.72000 837.890
38.76000 877.000
38.80000 880.943
38.84000 848.545
38.88000 776.805
38.92000 629.086
38.96000 533.587
39.00000 452.869
39.04000 379.399
39.08000 329.986
39.12000 305.387
39.16000 288.514
39.20000 296.697
39.24000 296.013
39.28000 295.880
39.32000 287.757
39.36000 275.173
39.40000 273.914
39.44000 271.664
39.48000 272.299
39.52000 271.096
39.56000 280.746
39.60000 281.399
39.64000 259.158
39.68000 273.461
39.72000 263.897
39.76000 268.858
39.80000 268.841
39.84000 251.753
39.88000 272.302
39.92000 256.956
39.96000 266.445
40.00000 260.418
40.04000 259.674
40.08000 261.395
40.12000 275.030
40.16000 260.915
40.20000 260.752
40.24000 258.110
40.28000 261.701
40.32000 249.430
40.36000 257.205
40.40000 245.010
40.44000 255.111
40.48000 244.971
40.52000 254.989
40.56000 257.579
40.60000 261.352
40.64000 252.357
40.68000 238.973
40.72000 253.929
40.76000 251.945
40.80000 252.094
40.84000 241.957
40.88000 236.554
40.92000 247.336
40.96000 258.153
41.00000 253.569
41.04000 259.821
41.08000 246.654
41.12000 254.534
41.16000 239.076
41.20000 240.802
41.24000 251.375
41.28000 249.945
41.32000 238.107
41.36000 246.355
41.40000 245.578
41.44000 246.226
41.48000 243.566
41.52000 242.582
41.56000 247.841
41.60000 242.666
41.64000 247.081
41.68000 253.076
41.72000 235.086
41.76000 231.202
41.80000 234.251
41.84000 245.309
41.88000 229.984
41.92000 244.075
41.96000 234.651
42.00000 238.372
42.04000 239.113
42.08000 230.688
42.12000 235.168
42.16000 236.157
42.20000 238.328
42.24000 239.638
42.28000 232.817
42.32000 241.493
42.36000 244.236
42.40000 241.152
42.44000 237.983
42.48000 237.773
42.52000 242.075
42.56000 249.985
42.60000 233.384
42.64000 228.908
42.68000 232.396
42.72000 230.480
42.76000 233.761
42.80000 222.601
42.84000 220.306
42.88000 223.429
42.92000 235.561
42.96000 228.326
43.00000 221.475
43.04000 222.362
43.08000 235.856
43.12000 229.954
43.16000 231.312
43.20000 230.466
43.24000 225.432
43.28000 238.884
43.32000 211.572
43.36000 227.205
43.40000 243.478
43.44000 217.722
43.48000 236.711
43.52000 221.795
43.56000 208.939
43.60000 227.438
43.64000 229.983
43.68000 208.203
43.72000 217.838
43.76000 218.802
43.80000 223.880
43.84000 230.878
43.88000 222.936
43.92000 232.733
43.96000 239.344
44.00000 228.648
44.04000 218.433
44.08000 227.035
44.12000 230.563
44.16000 215.318
44.20000 222.506
44.24000 229.286
44.28000 215.381
44.32000 213.319
44.36000 228.879
44.40000 229.790
44.44000 226.662
44.48000 224.504
44.52000 214.728
44.56000 227.053
44.60000 229.585
44.64000 227.961
44.68000 235.271
44.72000 231.273
44.76000 230.786
44.80000 243.969
44.84000 252.271
44.88000 258.366
44.92000 274.772
44.96000 275.256
45.00000 300.594
45.04000 305.321
45.08000 334.514
45.12000 331.848
45.16000 331.181
45.20000 340.273
45.24000 322.272
45.28000 294.451
45.32000 305.342
45.36000 273.748
45.40000 264.923
45.44000 246.453
45.48000 248.839
45.52000 239.228
45.56000 237.811
45.60000 235.207
45.64000 235.033
45.68000 225.015
45.72000 206.971
45.76000 224.441
45.80000 216.266
45.84000 211.778
45.88000 226.689
45.92000 214.916
45.96000 211.107
46.00000 212.106
46.04000 215.289
46.08000 215.106
46.12000 210.219
46.16000 214.659
46.20000 201.915
46.24000 208.334
46.28000 212.537
46.32000 197.646
46.36000 198.007
46.40000 198.995
46.44000 200.860
46.48000 207.104
46.52000 205.288
46.56000 196.121
46.60000 203.274
46.64000 214.444
46.68000 203.813
46.72000 203.253
46.76000 203.925
46.80000 205.556
46.84000 188.269
46.88000 185.267
46.92000 190.679
46.96000 205.666
47.00000 190.886
47.04000 202.314
47.08000 191.328
47.12000 187.567
47.16000 198.832
47.20000 199.973
47.24000 185.971
47.28000 187.661
47.32000 195.566
47.36000 193.472
47.40000 184.777
47.44000 185.998
47.48000 191.113
47.52000 196.839
47.56000 197.911
47.60000 195.349
47.64000 201.815
47.68000 182.235
47.72000 176.979
47.76000 187.996
47.80000 194.236
47.84000 192.420
47.88000 183.241
47.92000 187.534
47.96000 171.173
48.00000 186.734
48.04000 184.041
48.08000 178.490
48.12000 180.257
48.16000 183.622
48.20000 197.056
48.24000 187.803
48.28000 191.826
48.32000 178.728
48.36000 178.381
48.40000 181.550
48.44000 194.030
48.48000 179.648
48.52000 191.464
48.56000 170.070
48.60000 186.680
48.64000 179.868
48.68000 175.726
48.72000 174.460
48.76000 181.468
48.80000 184.910
48.84000 170.211
48.88000 175.656
48.92000 179.880
48.96000 191.946
49.00000 184.573
49.04000 180.323
49.08000 174.654
49.12000 185.558
49.16000 177.892
49.20000 171.799
49.24000 179.095
49.28000 172.965
49.32000 181.199
49.36000 186.121
49.40000 182.088
49.44000 182.779
49.48000 181.021
49.52000 185.729
49.56000 172.468
49.60000 172.682
49.64000 164.574
49.68000 167.264
49.72000 175.525
49.76000 181.146
49.80000 179.524
49.84000 178.743
49.88000 181.361
49.92000 184.101
49.96000 178.341
50.00000 177.130
50.04000 182.811
50.08000 185.232
50.12000 180.062
50.16000 185.210
50.20000 186.498
50.24000 191.990
50.28000 179.465
50.32000 182.489
50.36000 181.579
50.40000 183.213
50.44000 186.319
50.48000 192.830
50.52000 194.239
50.56000 208.676
50.60000 229.038
50.64000 242.816
50.68000 250.155
50.72000 249.258
50.76000 262.261
50.80000 249.229
50.84000 257.959
50.88000 251.395
50.92000 235.428
50.96000 207.370
51.00000 203.143
51.04000 179.156
51.08000 185.152
51.12000 187.337
51.16000 183.658
51.20000 184.109
51.24000 180.112
51.28000 169.411
51.32000 170.479
51.36000 171.810
51.40000 160.868
51.44000 165.162
51.48000 158.988
51.52000 176.426
51.56000 165.956
51.60000 170.314
51.64000 162.956
51.68000 163.741
51.72000 167.030
51.76000 160.482
51.80000 173.121
51.84000 170.880
51.88000 176.497
51.92000 165.245
51.96000 162.638
52.00000 174.992
52.04000 167.631
52.08000 159.253
52.12000 161.031
52.16000 164.326
52.20000 167.425
52.24000 157.325
52.28000 172.766
52.32000 171.583
52.36000 160.310
52.40000 164.785
52.44000 165.164
52.48000 163.944
52.52000 162.137
52.56000 151.692
52.60000 166.269
52.64000 152.751
52.68000 165.069
52.72000 161.871
52.76000 164.022
52.80000 147.328
52.84000 152.659
52.88000 157.324
52.92000 153.640
52.96000 163.660
53.00000 158.351
53.04000 158.857
53.08000 162.799
53.12000 159.025
53.16000 170.426
53.20000 165.135
53.24000 165.020
53.28000 165.479
53.32000 158.968
53.36000 161.389
53.40000 159.433
53.44000 170.118
53.48000 164.608
53.52000 165.452
53.56000 157.203
53.60000 160.733
53.64000 174.661
53.68000 151.000
53.72000 162.741
53.76000 157.659
53.80000 155.764
53.84000 152.431
53.88000 165.426
53.92000 162.782
53.96000 158.665
54.00000 155.798
54.04000 154.969
54.08000 155.882
54.12000 163.616
54.16000 151.710
54.20000 165.716
54.24000 159.385
54.28000 154.531
54.32000 153.793
54.36000 158.371
54.40000 157.120
54.44000 156.094
54.48000 166.615
54.52000 149.157
54.56000 144.312
54.60000 153.947
54.64000 156.615
54.68000 156.325
54.72000 151.160
54.76000 159.398
54.80000 157.223
54.84000 149.419
54.88000 156.376
54.92000 160.735
54.96000 143.445
55.00000 150.408
55.04000 160.350
55.08000 163.149
55.12000 159.990
55.16000 154.551
55.20000 169.193
55.24000 164.962
55.28000 173.455
55.32000 168.896
55.36000 166.341
55.40000 159.823
55.44000 168.273
55.48000 175.494
55.52000 189.501
55.56000 188.554
55.60000 215.035
55.64000 204.466
55.68000 245.218
55.72000 285.768
55.76000 336.764
55.80000 396.806
55.84000 465.747
55.88000 531.834
55.92000 576.543
55.96000 618.171
56.00000 662.517
56.04000 613.642
56.08000 603.417
56.12000 549.618
56.16000 470.393
56.20000 414.813
56.24000 356.124
56.28000 287.992
56.32000 257.090
56.36000 229.583
56.40000 195.644
56.44000 185.765
56.48000 174.379
56.52000 172.363
56.56000 176.073
56.60000 163.822
56.64000 160.859
56.68000 158.600
56.72000 154.380
56.76000 161.195
56.80000 148.849
56.84000 160.442
56.88000 154.719
56.92000 160.432
56.96000 138.646
57.00000 144.366
57.04000 143.217
57.08000 141.076
57.12000 152.842
57.16000 146.017
57.20000 151.500
57.24000 138.686
57.28000 152.730
57.32000 141.276
57.36000 140.561
57.40000 144.955
57.44000 142.268
57.48000 143.318
57.52000 134.761
57.56000 142.664
57.60000 146.631
57.64000 144.988
57.68000 163.072
57.72000 140.799
57.76000 145.317
57.80000 139.029
57.84000 137.452
57.88000 137.875
57.92000 148.669
57.96000 153.412
58.00000 143.005
58.04000 146.590
58.08000 142.205
58.12000 136.542
58.16000 145.594
58.20000 140.850
58.24000 139.099
58.28000 147.503
58.32000 141.491
58.36000 139.964
58.40000 127.309
58.44000 140.869
58.48000 143.357
58.52000 137.957
58.56000 137.375
58.60000 132.590
58.64000 138.576
58.68000 150.543
58.72000 139.148
58.76000 145.750
58.80000 137.047
58.84000 133.019
58.88000 138.292
58.92000 132.889
58.96000 133.262
59.00000 127.664
59.04000 138.956
59.08000 139.395
59.12000 127.314
59.16000 135.020
59.20000 144.996
59.24000 122.446
59.28000 130.357
59.32000 133.844
59.36000 131.724
59.40000 135.516
59.44000 127.288
59.48000 135.510
59.52000 130.718
59.56000 138.268
59.60000 128.022
59.64000 133.964
59.68000 137.813
59.72000 134.189
59.76000 126.890
59.80000 131.228
59.84000 143.652
59.88000 130.637
59.92000 137.873
59.96000 126.363
60.00000 132.901
60.04000 130.346
60.08000 138.858
60.12000 133.112
60.16000 130.215
60.20000 135.974
60.24000 130.280
60.28000 125.300
60.32000 129.353
60.36000 130.037
60.40000 133.905
60.44000 133.825
60.48000 136.153
60.52000 134.536
60.56000 133.099
60.60000 138.482
60.64000 141.330
60.68000 121.929
60.72000 137.301
60.76000 127.828
60.80000 131.940
60.84000 129.611
60.88000 134.705
60.92000 130.841
60.96000 129.330
61.00000 128.056
61.04000 138.217
61.08000 132.649
61.12000 136.563
61.16000 143.621
61.20000 138.850
61.24000 134.433
61.28000 138.277
61.32000 134.199
61.36000 133.048
61.40000 134.029
61.44000 126.597
61.48000 147.671
61.52000 157.378
61.56000 176.868
61.60000 202.887
61.64000 226.369
61.68000 247.055
61.72000 257.400
61.76000 252.855
61.80000 233.914
61.84000 198.482
61.88000 163.433
61.92000 144.373
61.96000 137.317
62.00000 135.798
62.04000 142.812
62.08000 140.560
62.12000 123.296
62.16000 144.306
62.20000 138.066
62.24000 134.172
62.28000 133.314
62.32000 143.289
62.36000 137.400
62.40000 141.241
62.44000 138.203
62.48000 134.896
62.52000 136.283
62.56000 138.743
62.60000 141.998
62.64000 145.560
62.68000 137.411
62.72000 148.688
62.76000 147.452
62.80000 140.955
62.84000 138.651
62.88000 148.528
62.92000 154.225
62.96000 136.837
63.00000 150.990
63.04000 152.477
63.08000 134.381
63.12000 150.123
63.16000 148.766
63.20000 153.952
63.24000 141.394
63.28000 149.291
63.32000 154.497
63.36000 140.926
63.40000 137.256
63.44000 151.914
63.48000 144.404
63.52000 140.349
63.56000 145.272
63.60000 157.168
63.64000 144.794
63.68000 157.696
63.72000 152.349
63.76000 150.215
63.80000 156.149
63.84000 150.616
63.88000 152.925
63.92000 149.755
63.96000 154.623
64.00000 162.141
64.04000 153.796
64.08000 156.590
64.12000 142.724
64.16000 153.789
64.20000 155.988
64.24000 155.790
64.28000 157.109
64.32000 157.824
64.36000 163.259
64.40000 164.264
64.44000 160.456
64.48000 165.512
64.52000 169.355
64.56000 156.065
64.60000 174.610
64.64000 160.884
64.68000 169.532
64.72000 164.285
64.76000 177.415
64.80000 173.809
64.84000 178.001
64.88000 189.176
64.92000 167.853
64.96000 182.059
65.00000 185.830
65.04000 188.032
65.08000 196.989
65.12000 209.437
65.16000 198.362
65.20000 212.141
65.24000 218.195
65.28000 228.439
65.32000 258.283
65.36000 261.758
65.40000 279.468
65.44000 327.315
65.48000 359.251
65.52000 372.617
65.56000 402.651
65.60000 423.958
65.64000 449.079
65.68000 464.965
65.72000 527.833
65.76000 642.888
65.80000 812.704
65.84000 908.026
65.88000 959.578
65.92000 970.121
65.96000 898.070
66.00000 719.827
66.04000 519.374
66.08000 380.068
66.12000 318.182
66.16000 284.079
66.20000 290.497
66.24000 290.364
66.28000 288.391
66.32000 313.804
66.36000 356.930
66.40000 388.750
66.44000 390.693
66.48000 401.871
66.52000 392.975
66.56000 359.187
66.60000 331.790
66.64000 303.947
66.68000 287.809
66.72000 294.659
66.76000 288.945
66.80000 292.461
66.84000 304.382
66.88000 317.901
66.92000 302.761
66.96000 306.196
67.00000 314.665
67.04000 309.238
67.08000 316.622
67.12000 330.013
67.16000 339.187
67.20000 331.517
67.24000 354.481
67.28000 342.259
67.32000 365.330
67.36000 363.991
67.40000 372.739
67.44000 392.678
67.48000 388.327
67.52000 374.940
67.56000 391.900
67.60000 414.240
67.64000 405.550
67.68000 432.326
67.72000 406.121
67.76000 423.916
67.80000 444.025
67.84000 476.244
67.88000 450.067
67.92000 470.915
67.96000 493.490
68.00000 484.706
68.04000 496.927
68.08000 508.408
68.12000 523.858
68.16000 538.315
68.20000 565.102
68.24000 552.481
68.28000 578.420
68.32000 575.154
68.36000 615.168
68.40000 610.432
68.44000 644.597
68.48000 669.111
68.52000 712.088
68.56000 750.107
68.60000 812.192
68.64000 933.884
68.68000 1071.735
68.72000 1250.826
68.76000 1414.434
68.80000 1617.423
68.84000 1834.325
68.88000 2051.912
68.92000 2806.645
68.96000 5129.626
69.00000 14629.291
69.04000 30525.525
69.08000 44794.848
69.12000 49103.156
69.16000 50140.512
69.20000 52410.332
69.24000 49614.215
69.28000 40477.934
69.32000 30980.439
69.36000 26070.740
69.40000 23617.598
69.44000 17637.168
69.48000 10098.067
69.52000 4336.182
69.56000 2103.809
69.60000 1450.016
69.64000 1247.374
69.68000 1052.871
69.72000 957.242
69.76000 899.624
69.80000 825.145
69.84000 762.000
69.88000 748.276
69.92000 694.536
69.96000 662.435
70.00000 644.145