File: XRD/XRD/30-09-2025 Dep 1/XY Data/BTO_Mapping_Theta2Theta_30-09-2025_001_58_9-135_-4-067.xy
20.00000 579.765
20.04000 596.214
20.08000 554.060
20.12000 568.284
20.16000 596.622
20.20000 555.044
20.24000 580.982
20.28000 558.973
20.32000 578.162
20.36000 577.659
20.40000 566.460
20.44000 552.768
20.48000 569.932
20.52000 559.092
20.56000 559.385
20.60000 565.602
20.64000 560.796
20.68000 569.752
20.72000 565.023
20.76000 569.463
20.80000 562.961
20.84000 561.691
20.88000 553.378
20.92000 580.931
20.96000 554.750
21.00000 563.017
21.04000 553.353
21.08000 546.986
21.12000 555.526
21.16000 558.160
21.20000 547.187
21.24000 557.545
21.28000 553.882
21.32000 542.649
21.36000 567.217
21.40000 551.190
21.44000 569.672
21.48000 555.493
21.52000 557.422
21.56000 556.743
21.60000 566.901
21.64000 574.648
21.68000 571.038
21.72000 606.203
21.76000 616.865
21.80000 627.600
21.84000 680.948
21.88000 743.700
21.92000 779.514
21.96000 841.990
22.00000 862.642
22.04000 871.031
22.08000 913.100
22.12000 811.418
22.16000 756.605
22.20000 709.064
22.24000 664.765
22.28000 597.765
22.32000 582.647
22.36000 577.891
22.40000 563.410
22.44000 565.425
22.48000 578.708
22.52000 544.194
22.56000 544.517
22.60000 543.152
22.64000 534.166
22.68000 553.652
22.72000 556.957
22.76000 536.361
22.80000 503.517
22.84000 521.128
22.88000 529.234
22.92000 502.776
22.96000 534.220
23.00000 519.791
23.04000 524.082
23.08000 518.962
23.12000 522.364
23.16000 533.797
23.20000 538.509
23.24000 522.313
23.28000 517.725
23.32000 524.738
23.36000 510.103
23.40000 495.473
23.44000 495.467
23.48000 501.428
23.52000 517.509
23.56000 504.266
23.60000 513.222
23.64000 528.127
23.68000 521.260
23.72000 496.171
23.76000 510.996
23.80000 493.248
23.84000 535.379
23.88000 497.944
23.92000 495.556
23.96000 487.804
24.00000 487.786
24.04000 507.716
24.08000 495.058
24.12000 504.680
24.16000 494.996
24.20000 498.613
24.24000 495.511
24.28000 485.585
24.32000 483.362
24.36000 505.932
24.40000 491.426
24.44000 513.789
24.48000 479.968
24.52000 490.262
24.56000 513.868
24.60000 481.802
24.64000 507.671
24.68000 497.997
24.72000 491.837
24.76000 510.258
24.80000 496.062
24.84000 473.640
24.88000 482.848
24.92000 489.399
24.96000 475.829
25.00000 492.401
25.04000 486.607
25.08000 466.012
25.12000 482.546
25.16000 490.412
25.20000 481.603
25.24000 473.928
25.28000 470.192
25.32000 482.475
25.36000 471.983
25.40000 489.430
25.44000 479.295
25.48000 464.692
25.52000 480.140
25.56000 488.153
25.60000 476.021
25.64000 484.534
25.68000 472.187
25.72000 481.818
25.76000 477.440
25.80000 458.187
25.84000 472.311
25.88000 484.254
25.92000 460.881
25.96000 464.118
26.00000 468.778
26.04000 462.546
26.08000 473.015
26.12000 479.160
26.16000 467.264
26.20000 453.364
26.24000 456.090
26.28000 460.121
26.32000 470.486
26.36000 446.123
26.40000 469.563
26.44000 468.280
26.48000 478.294
26.52000 463.316
26.56000 460.386
26.60000 458.223
26.64000 455.463
26.68000 451.950
26.72000 450.021
26.76000 445.495
26.80000 450.044
26.84000 429.863
26.88000 461.164
26.92000 462.120
26.96000 455.233
27.00000 437.007
27.04000 468.242
27.08000 435.351
27.12000 433.240
27.16000 439.969
27.20000 461.815
27.24000 431.833
27.28000 456.045
27.32000 452.309
27.36000 431.626
27.40000 456.825
27.44000 464.829
27.48000 440.322
27.52000 449.491
27.56000 447.530
27.60000 452.970
27.64000 455.575
27.68000 459.194
27.72000 437.715
27.76000 448.775
27.80000 442.876
27.84000 446.424
27.88000 432.733
27.92000 432.910
27.96000 434.961
28.00000 439.928
28.04000 430.085
28.08000 435.628
28.12000 453.779
28.16000 441.603
28.20000 431.509
28.24000 438.991
28.28000 446.690
28.32000 438.508
28.36000 428.713
28.40000 442.922
28.44000 432.411
28.48000 414.379
28.52000 435.870
28.56000 428.273
28.60000 423.343
28.64000 438.722
28.68000 435.597
28.72000 439.946
28.76000 440.590
28.80000 429.078
28.84000 423.593
28.88000 432.768
28.92000 434.448
28.96000 443.084
29.00000 424.869
29.04000 416.671
29.08000 422.245
29.12000 418.113
29.16000 436.157
29.20000 435.177
29.24000 427.388
29.28000 434.736
29.32000 441.440
29.36000 418.284
29.40000 407.784
29.44000 440.109
29.48000 422.600
29.52000 419.316
29.56000 417.562
29.60000 421.815
29.64000 415.483
29.68000 422.797
29.72000 427.061
29.76000 421.473
29.80000 419.314
29.84000 462.579
29.88000 447.509
29.92000 454.355
29.96000 454.549
30.00000 453.685
30.04000 452.100
30.08000 470.495
30.12000 462.494
30.16000 456.868
30.20000 442.509
30.24000 435.732
30.28000 423.264
30.32000 440.771
30.36000 436.486
30.40000 438.050
30.44000 423.661
30.48000 441.536
30.52000 440.688
30.56000 443.888
30.60000 456.306
30.64000 455.871
30.68000 456.724
30.72000 472.185
30.76000 478.395
30.80000 490.124
30.84000 491.137
30.88000 522.148
30.92000 527.045
30.96000 548.127
31.00000 633.799
31.04000 738.485
31.08000 861.708
31.12000 1122.686
31.16000 1491.017
31.20000 2015.079
31.24000 2638.234
31.28000 3275.201
31.32000 3757.288
31.36000 3947.946
31.40000 3912.569
31.44000 3419.606
31.48000 2826.332
31.52000 2164.342
31.56000 1588.056
31.60000 1110.843
31.64000 851.095
31.68000 669.123
31.72000 583.896
31.76000 534.448
31.80000 515.180
31.84000 474.404
31.88000 458.982
31.92000 463.873
31.96000 432.139
32.00000 440.341
32.04000 431.306
32.08000 427.011
32.12000 437.096
32.16000 424.259
32.20000 407.522
32.24000 422.558
32.28000 411.454
32.32000 389.939
32.36000 402.912
32.40000 408.534
32.44000 401.634
32.48000 387.654
32.52000 378.705
32.56000 391.186
32.60000 372.107
32.64000 409.112
32.68000 383.041
32.72000 396.267
32.76000 370.109
32.80000 376.038
32.84000 372.227
32.88000 401.230
32.92000 441.853
32.96000 475.532
33.00000 484.592
33.04000 491.821
33.08000 464.196
33.12000 430.684
33.16000 416.216
33.20000 377.984
33.24000 360.760
33.28000 377.000
33.32000 340.821
33.36000 361.897
33.40000 352.350
33.44000 349.415
33.48000 349.389
33.52000 340.861
33.56000 351.005
33.60000 336.210
33.64000 358.603
33.68000 331.366
33.72000 347.724
33.76000 361.344
33.80000 343.741
33.84000 352.987
33.88000 353.834
33.92000 340.116
33.96000 344.327
34.00000 351.207
34.04000 337.542
34.08000 344.433
34.12000 334.291
34.16000 331.391
34.20000 344.561
34.24000 342.017
34.28000 337.301
34.32000 332.166
34.36000 327.825
34.40000 332.041
34.44000 335.416
34.48000 338.791
34.52000 329.134
34.56000 335.925
34.60000 346.187
34.64000 326.629
34.68000 324.790
34.72000 330.268
34.76000 319.624
34.80000 339.966
34.84000 316.988
34.88000 316.306
34.92000 317.911
34.96000 330.893
35.00000 321.777
35.04000 328.648
35.08000 315.110
35.12000 333.111
35.16000 323.510
35.20000 310.157
35.24000 302.956
35.28000 322.027
35.32000 321.519
35.36000 315.968
35.40000 314.068
35.44000 313.276
35.48000 308.977
35.52000 321.082
35.56000 308.565
35.60000 322.808
35.64000 306.707
35.68000 317.015
35.72000 318.084
35.76000 317.820
35.80000 314.095
35.84000 313.515
35.88000 321.967
35.92000 324.759
35.96000 324.905
36.00000 312.535
36.04000 315.461
36.08000 302.391
36.12000 310.166
36.16000 297.403
36.20000 302.816
36.24000 291.606
36.28000 296.703
36.32000 311.123
36.36000 309.531
36.40000 300.465
36.44000 310.570
36.48000 301.717
36.52000 289.227
36.56000 299.409
36.60000 319.011
36.64000 313.391
36.68000 294.517
36.72000 309.205
36.76000 295.352
36.80000 297.638
36.84000 296.040
36.88000 293.666
36.92000 302.082
36.96000 311.755
37.00000 306.666
37.04000 306.594
37.08000 302.845
37.12000 316.665
37.16000 307.939
37.20000 318.333
37.24000 308.511
37.28000 298.432
37.32000 314.594
37.36000 303.117
37.40000 302.186
37.44000 302.328
37.48000 292.316
37.52000 309.732
37.56000 298.407
37.60000 320.680
37.64000 294.589
37.68000 281.009
37.72000 302.618
37.76000 291.292
37.80000 307.655
37.84000 295.270
37.88000 296.815
37.92000 304.369
37.96000 296.160
38.00000 300.701
38.04000 292.642
38.08000 304.486
38.12000 277.667
38.16000 296.961
38.20000 311.567
38.24000 311.253
38.28000 313.921
38.32000 330.455
38.36000 340.535
38.40000 362.605
38.44000 401.536
38.48000 443.999
38.52000 502.953
38.56000 552.015
38.60000 627.963
38.64000 730.969
38.68000 754.262
38.72000 753.365
38.76000 699.210
38.80000 651.719
38.84000 596.390
38.88000 508.974
38.92000 428.813
38.96000 370.586
39.00000 348.805
39.04000 323.369
39.08000 294.629
39.12000 288.432
39.16000 285.039
39.20000 287.665
39.24000 301.348
39.28000 288.106
39.32000 273.737
39.36000 276.978
39.40000 285.042
39.44000 273.737
39.48000 271.575
39.52000 276.062
39.56000 276.659
39.60000 276.481
39.64000 278.231
39.68000 270.166
39.72000 264.784
39.76000 262.452
39.80000 257.705
39.84000 262.065
39.88000 272.143
39.92000 274.186
39.96000 274.732
40.00000 262.385
40.04000 267.805
40.08000 264.442
40.12000 267.529
40.16000 281.364
40.20000 266.071
40.24000 265.831
40.28000 276.685
40.32000 243.468
40.36000 254.895
40.40000 259.746
40.44000 254.170
40.48000 265.240
40.52000 268.599
40.56000 263.634
40.60000 245.558
40.64000 262.239
40.68000 257.378
40.72000 260.971
40.76000 247.196
40.80000 247.340
40.84000 251.934
40.88000 263.693
40.92000 261.102
40.96000 254.096
41.00000 253.247
41.04000 260.735
41.08000 250.126
41.12000 246.195
41.16000 257.058
41.20000 250.508
41.24000 244.304
41.28000 238.131
41.32000 240.670
41.36000 253.588
41.40000 246.906
41.44000 251.120
41.48000 252.514
41.52000 255.570
41.56000 250.409
41.60000 250.615
41.64000 255.274
41.68000 241.259
41.72000 257.661
41.76000 230.762
41.80000 237.589
41.84000 250.634
41.88000 247.198
41.92000 240.707
41.96000 246.970
42.00000 238.909
42.04000 255.050
42.08000 240.871
42.12000 234.897
42.16000 248.116
42.20000 236.136
42.24000 221.729
42.28000 229.198
42.32000 225.002
42.36000 248.576
42.40000 229.162
42.44000 253.888
42.48000 228.446
42.52000 234.338
42.56000 237.125
42.60000 233.826
42.64000 242.437
42.68000 244.522
42.72000 235.884
42.76000 248.594
42.80000 237.741
42.84000 242.515
42.88000 227.787
42.92000 224.498
42.96000 231.339
43.00000 234.904
43.04000 245.525
43.08000 238.237
43.12000 230.899
43.16000 242.187
43.20000 231.046
43.24000 243.467
43.28000 222.331
43.32000 224.694
43.36000 231.422
43.40000 217.848
43.44000 238.732
43.48000 230.131
43.52000 228.036
43.56000 225.270
43.60000 220.227
43.64000 215.809
43.68000 230.058
43.72000 235.089
43.76000 221.428
43.80000 227.036
43.84000 229.055
43.88000 237.435
43.92000 231.831
43.96000 222.231
44.00000 245.716
44.04000 225.808
44.08000 239.552
44.12000 230.008
44.16000 237.482
44.20000 223.946
44.24000 233.991
44.28000 226.508
44.32000 232.771
44.36000 227.072
44.40000 227.548
44.44000 234.255
44.48000 231.669
44.52000 235.014
44.56000 230.997
44.60000 241.072
44.64000 244.182
44.68000 257.820
44.72000 256.461
44.76000 298.185
44.80000 318.205
44.84000 360.304
44.88000 384.828
44.92000 439.564
44.96000 502.042
45.00000 506.367
45.04000 510.951
45.08000 526.504
45.12000 487.435
45.16000 431.479
45.20000 398.927
45.24000 344.958
45.28000 316.921
45.32000 301.047
45.36000 273.319
45.40000 266.821
45.44000 258.494
45.48000 238.651
45.52000 237.482
45.56000 222.042
45.60000 233.872
45.64000 227.363
45.68000 224.025
45.72000 228.913
45.76000 225.227
45.80000 209.389
45.84000 219.932
45.88000 201.699
45.92000 225.186
45.96000 219.014
46.00000 217.726
46.04000 225.734
46.08000 211.490
46.12000 209.108
46.16000 202.267
46.20000 218.042
46.24000 207.837
46.28000 208.710
46.32000 183.362
46.36000 200.141
46.40000 198.911
46.44000 208.381
46.48000 209.292
46.52000 198.923
46.56000 207.422
46.60000 200.976
46.64000 205.688
46.68000 203.021
46.72000 192.599
46.76000 210.816
46.80000 197.280
46.84000 190.385
46.88000 192.774
46.92000 204.397
46.96000 205.024
47.00000 198.401
47.04000 203.273
47.08000 191.417
47.12000 211.907
47.16000 195.086
47.20000 190.826
47.24000 199.028
47.28000 191.478
47.32000 181.233
47.36000 186.632
47.40000 189.322
47.44000 198.329
47.48000 198.468
47.52000 184.502
47.56000 193.093
47.60000 182.445
47.64000 185.172
47.68000 197.140
47.72000 186.680
47.76000 192.263
47.80000 192.435
47.84000 187.890
47.88000 180.746
47.92000 180.308
47.96000 181.912
48.00000 185.983
48.04000 184.759
48.08000 192.279
48.12000 184.293
48.16000 165.181
48.20000 192.892
48.24000 189.098
48.28000 198.157
48.32000 190.686
48.36000 186.731
48.40000 177.674
48.44000 198.112
48.48000 174.054
48.52000 185.717
48.56000 179.005
48.60000 197.623
48.64000 185.087
48.68000 188.239
48.72000 191.299
48.76000 174.020
48.80000 194.744
48.84000 186.281
48.88000 187.613
48.92000 177.630
48.96000 188.835
49.00000 190.437
49.04000 192.338
49.08000 182.160
49.12000 183.463
49.16000 177.758
49.20000 187.049
49.24000 172.259
49.28000 184.334
49.32000 181.888
49.36000 178.463
49.40000 182.904
49.44000 183.239
49.48000 191.679
49.52000 179.397
49.56000 178.347
49.60000 190.445
49.64000 182.971
49.68000 183.627
49.72000 185.374
49.76000 183.026
49.80000 171.942
49.84000 189.902
49.88000 182.945
49.92000 173.483
49.96000 179.198
50.00000 180.628
50.04000 173.535
50.08000 185.631
50.12000 183.651
50.16000 182.879
50.20000 191.485
50.24000 189.400
50.28000 190.472
50.32000 200.620
50.36000 201.219
50.40000 202.388
50.44000 210.335
50.48000 236.661
50.52000 252.442
50.56000 257.641
50.60000 282.332
50.64000 296.651
50.68000 285.186
50.72000 300.739
50.76000 261.729
50.80000 262.971
50.84000 276.316
50.88000 230.909
50.92000 210.955
50.96000 220.594
51.00000 200.296
51.04000 196.971
51.08000 185.902
51.12000 188.670
51.16000 180.934
51.20000 167.613
51.24000 187.781
51.28000 181.007
51.32000 176.482
51.36000 181.879
51.40000 161.400
51.44000 165.139
51.48000 172.650
51.52000 164.305
51.56000 166.468
51.60000 165.928
51.64000 168.462
51.68000 158.398
51.72000 170.344
51.76000 165.905
51.80000 178.859
51.84000 164.256
51.88000 180.862
51.92000 159.774
51.96000 172.592
52.00000 174.788
52.04000 170.676
52.08000 165.449
52.12000 164.481
52.16000 163.471
52.20000 157.459
52.24000 170.491
52.28000 167.485
52.32000 180.028
52.36000 176.050
52.40000 151.628
52.44000 162.578
52.48000 153.012
52.52000 167.735
52.56000 167.740
52.60000 155.851
52.64000 156.647
52.68000 174.976
52.72000 158.511
52.76000 161.853
52.80000 163.034
52.84000 170.798
52.88000 158.847
52.92000 164.775
52.96000 151.163
53.00000 152.694
53.04000 155.088
53.08000 162.322
53.12000 154.728
53.16000 163.384
53.20000 164.497
53.24000 169.053
53.28000 166.973
53.32000 176.042
53.36000 160.932
53.40000 170.028
53.44000 172.315
53.48000 159.942
53.52000 162.001
53.56000 153.130
53.60000 153.975
53.64000 161.060
53.68000 161.809
53.72000 173.099
53.76000 156.489
53.80000 165.808
53.84000 148.081
53.88000 171.468
53.92000 165.150
53.96000 157.552
54.00000 151.575
54.04000 156.543
54.08000 163.755
54.12000 150.111
54.16000 165.575
54.20000 161.160
54.24000 160.803
54.28000 152.129
54.32000 158.258
54.36000 153.760
54.40000 158.970
54.44000 163.427
54.48000 150.395
54.52000 163.400
54.56000 160.154
54.60000 162.324
54.64000 153.930
54.68000 160.091
54.72000 157.310
54.76000 164.344
54.80000 162.794
54.84000 154.326
54.88000 156.838
54.92000 159.358
54.96000 170.913
55.00000 166.212
55.04000 162.590
55.08000 159.307
55.12000 165.693
55.16000 171.663
55.20000 168.759
55.24000 164.802
55.28000 174.735
55.32000 178.187
55.36000 184.204
55.40000 172.539
55.44000 193.926
55.48000 191.217
55.52000 206.583
55.56000 230.295
55.60000 251.562
55.64000 284.855
55.68000 339.788
55.72000 403.577
55.76000 501.928
55.80000 554.732
55.84000 617.170
55.88000 665.468
55.92000 683.531
55.96000 642.495
56.00000 601.543
56.04000 539.649
56.08000 476.475
56.12000 407.033
56.16000 352.377
56.20000 303.197
56.24000 264.292
56.28000 228.359
56.32000 202.568
56.36000 185.750
56.40000 177.371
56.44000 184.974
56.48000 170.286
56.52000 158.343
56.56000 159.312
56.60000 149.762
56.64000 159.593
56.68000 160.937
56.72000 169.841
56.76000 163.424
56.80000 151.871
56.84000 150.249
56.88000 157.432
56.92000 146.898
56.96000 152.911
57.00000 144.844
57.04000 151.141
57.08000 142.058
57.12000 138.793
57.16000 153.352
57.20000 135.119
57.24000 150.011
57.28000 139.583
57.32000 139.536
57.36000 142.253
57.40000 154.218
57.44000 151.152
57.48000 151.378
57.52000 143.482
57.56000 145.612
57.60000 146.033
57.64000 131.411
57.68000 143.700
57.72000 159.129
57.76000 140.776
57.80000 155.063
57.84000 155.797
57.88000 148.965
57.92000 149.481
57.96000 147.095
58.00000 139.479
58.04000 143.354
58.08000 158.914
58.12000 152.990
58.16000 140.166
58.20000 138.217
58.24000 139.326
58.28000 143.360
58.32000 138.764
58.36000 141.884
58.40000 143.131
58.44000 145.362
58.48000 135.842
58.52000 134.036
58.56000 141.483
58.60000 138.169
58.64000 133.610
58.68000 141.708
58.72000 148.462
58.76000 142.189
58.80000 136.377
58.84000 144.196
58.88000 141.892
58.92000 138.483
58.96000 135.203
59.00000 135.709
59.04000 137.692
59.08000 133.686
59.12000 131.165
59.16000 136.997
59.20000 137.778
59.24000 135.766
59.28000 139.061
59.32000 154.282
59.36000 127.363
59.40000 135.803
59.44000 139.333
59.48000 137.816
59.52000 135.540
59.56000 137.173
59.60000 130.443
59.64000 141.760
59.68000 132.109
59.72000 131.888
59.76000 130.316
59.80000 133.305
59.84000 141.869
59.88000 136.922
59.92000 141.510
59.96000 129.030
60.00000 141.886
60.04000 126.702
60.08000 139.434
60.12000 138.900
60.16000 133.653
60.20000 134.075
60.24000 137.788
60.28000 135.531
60.32000 125.260
60.36000 129.413
60.40000 131.642
60.44000 141.713
60.48000 125.235
60.52000 142.408
60.56000 135.524
60.60000 139.280
60.64000 132.832
60.68000 133.120
60.72000 136.173
60.76000 146.354
60.80000 138.975
60.84000 127.974
60.88000 130.637
60.92000 129.797
60.96000 135.374
61.00000 135.722
61.04000 141.289
61.08000 141.813
61.12000 150.591
61.16000 142.706
61.20000 139.495
61.24000 137.945
61.28000 130.765
61.32000 133.101
61.36000 136.606
61.40000 133.328
61.44000 143.696
61.48000 155.123
61.52000 178.076
61.56000 215.416
61.60000 269.289
61.64000 311.108
61.68000 330.351
61.72000 355.683
61.76000 312.160
61.80000 254.867
61.84000 195.404
61.88000 165.850
61.92000 148.129
61.96000 151.796
62.00000 143.181
62.04000 146.312
62.08000 137.674
62.12000 145.774
62.16000 138.311
62.20000 142.774
62.24000 148.898
62.28000 140.585
62.32000 145.502
62.36000 146.797
62.40000 151.646
62.44000 145.030
62.48000 144.305
62.52000 154.212
62.56000 147.072
62.60000 144.607
62.64000 147.633
62.68000 149.641
62.72000 144.722
62.76000 150.246
62.80000 152.672
62.84000 141.504
62.88000 152.725
62.92000 142.291
62.96000 158.226
63.00000 155.654
63.04000 151.596
63.08000 143.639
63.12000 151.777
63.16000 154.937
63.20000 155.584
63.24000 140.471
63.28000 151.492
63.32000 144.236
63.36000 139.376
63.40000 154.935
63.44000 142.169
63.48000 136.044
63.52000 148.891
63.56000 139.802
63.60000 144.749
63.64000 166.855
63.68000 160.308
63.72000 155.548
63.76000 155.006
63.80000 142.266
63.84000 150.007
63.88000 157.340
63.92000 153.346
63.96000 150.468
64.00000 164.377
64.04000 160.493
64.08000 153.954
64.12000 169.452
64.16000 162.104
64.20000 161.308
64.24000 162.774
64.28000 162.665
64.32000 156.685
64.36000 170.367
64.40000 176.024
64.44000 161.699
64.48000 165.348
64.52000 172.617
64.56000 170.017
64.60000 175.550
64.64000 180.648
64.68000 178.534
64.72000 170.313
64.76000 184.212
64.80000 184.732
64.84000 182.713
64.88000 191.743
64.92000 176.302
64.96000 184.018
65.00000 207.138
65.04000 206.027
65.08000 212.679
65.12000 219.419
65.16000 232.679
65.20000 242.229
65.24000 260.351
65.28000 283.094
65.32000 320.984
65.36000 338.630
65.40000 373.898
65.44000 410.996
65.48000 419.845
65.52000 463.530
65.56000 461.751
65.60000 495.511
65.64000 511.085
65.68000 566.424
65.72000 747.086
65.76000 1007.277
65.80000 1195.884
65.84000 1322.643
65.88000 1330.028
65.92000 1245.598
65.96000 1071.553
66.00000 736.492
66.04000 518.785
66.08000 388.449
66.12000 330.686
66.16000 291.690
66.20000 315.015
66.24000 322.978
66.28000 375.748
66.32000 421.023
66.36000 456.819
66.40000 515.218
66.44000 507.036
66.48000 496.362
66.52000 460.936
66.56000 397.737
66.60000 355.510
66.64000 345.057
66.68000 337.596
66.72000 331.761
66.76000 327.727
66.80000 338.461
66.84000 332.873
66.88000 354.710
66.92000 350.278
66.96000 362.352
67.00000 370.284
67.04000 368.454
67.08000 386.361
67.12000 379.185
67.16000 387.195
67.20000 396.726
67.24000 403.267
67.28000 412.795
67.32000 415.722
67.36000 418.356
67.40000 431.024
67.44000 424.745
67.48000 453.070
67.52000 457.587
67.56000 497.995
67.60000 499.314
67.64000 491.954
67.68000 492.383
67.72000 510.559
67.76000 514.223
67.80000 519.357
67.84000 533.153
67.88000 552.594
67.92000 537.644
67.96000 574.866
68.00000 581.350
68.04000 573.012
68.08000 610.923
68.12000 624.072
68.16000 611.973
68.20000 651.968
68.24000 662.097
68.28000 696.830
68.32000 701.108
68.36000 715.611
68.40000 769.667
68.44000 773.507
68.48000 840.509
68.52000 909.347
68.56000 954.013
68.60000 1115.549
68.64000 1318.281
68.68000 1585.900
68.72000 1804.436
68.76000 2106.476
68.80000 2381.809
68.84000 2799.480
68.88000 3485.192
68.92000 7008.534
68.96000 17198.264
69.00000 39886.766
69.04000 62878.152
69.08000 74550.992
69.12000 76805.445
69.16000 79771.914
69.20000 78744.852
69.24000 65967.398
69.28000 50882.242
69.32000 41726.316
69.36000 37272.301
69.40000 30381.328
69.44000 18254.029
69.48000 8365.499
69.52000 3676.682
69.56000 2227.484
69.60000 1738.224
69.64000 1498.326
69.68000 1305.400
69.72000 1165.875
69.76000 1050.025
69.80000 966.512
69.84000 925.892
69.88000 869.677
69.92000 827.506
69.96000 790.606
70.00000 768.564