File: XRD/XRD/30-09-2025 Dep 1/XY Data/BTO_Mapping_Theta2Theta_30-09-2025_001_42_-5-000_-8-660.xy
20.00000 569.223
20.04000 576.018
20.08000 571.433
20.12000 573.091
20.16000 576.711
20.20000 589.647
20.24000 567.278
20.28000 556.713
20.32000 577.354
20.36000 564.808
20.40000 581.861
20.44000 555.049
20.48000 567.492
20.52000 572.711
20.56000 562.733
20.60000 581.400
20.64000 578.753
20.68000 570.351
20.72000 537.494
20.76000 547.364
20.80000 542.585
20.84000 561.835
20.88000 565.944
20.92000 555.348
20.96000 560.850
21.00000 551.812
21.04000 560.205
21.08000 557.709
21.12000 561.761
21.16000 557.669
21.20000 546.250
21.24000 556.408
21.28000 570.619
21.32000 564.259
21.36000 540.758
21.40000 555.306
21.44000 566.446
21.48000 556.976
21.52000 546.689
21.56000 555.751
21.60000 553.152
21.64000 559.253
21.68000 579.467
21.72000 592.594
21.76000 581.280
21.80000 625.166
21.84000 664.460
21.88000 711.833
21.92000 787.508
21.96000 824.672
22.00000 855.649
22.04000 876.846
22.08000 848.616
22.12000 837.555
22.16000 795.169
22.20000 720.360
22.24000 688.066
22.28000 605.988
22.32000 584.996
22.36000 557.474
22.40000 568.783
22.44000 553.707
22.48000 556.336
22.52000 541.088
22.56000 553.599
22.60000 517.028
22.64000 545.647
22.68000 538.917
22.72000 539.080
22.76000 525.164
22.80000 538.914
22.84000 523.576
22.88000 539.422
22.92000 536.416
22.96000 531.472
23.00000 498.264
23.04000 515.405
23.08000 517.550
23.12000 514.291
23.16000 524.367
23.20000 525.397
23.24000 515.003
23.28000 543.133
23.32000 479.332
23.36000 507.621
23.40000 513.851
23.44000 505.956
23.48000 510.302
23.52000 512.127
23.56000 523.936
23.60000 518.678
23.64000 528.815
23.68000 499.236
23.72000 493.500
23.76000 500.980
23.80000 492.823
23.84000 510.248
23.88000 514.625
23.92000 508.589
23.96000 500.711
24.00000 491.670
24.04000 504.465
24.08000 492.765
24.12000 488.845
24.16000 509.146
24.20000 492.009
24.24000 488.566
24.28000 501.214
24.32000 481.612
24.36000 506.228
24.40000 508.367
24.44000 501.054
24.48000 494.843
24.52000 523.964
24.56000 477.277
24.60000 494.310
24.64000 496.287
24.68000 480.403
24.72000 494.904
24.76000 495.586
24.80000 489.824
24.84000 497.792
24.88000 469.131
24.92000 493.499
24.96000 503.928
25.00000 476.334
25.04000 476.560
25.08000 501.973
25.12000 489.544
25.16000 487.363
25.20000 498.051
25.24000 477.779
25.28000 474.749
25.32000 474.021
25.36000 477.338
25.40000 476.869
25.44000 478.646
25.48000 468.452
25.52000 467.666
25.56000 475.443
25.60000 511.556
25.64000 476.744
25.68000 454.096
25.72000 480.904
25.76000 477.812
25.80000 497.043
25.84000 463.599
25.88000 469.451
25.92000 490.251
25.96000 470.209
26.00000 496.398
26.04000 474.102
26.08000 454.657
26.12000 483.503
26.16000 465.855
26.20000 470.938
26.24000 473.801
26.28000 469.231
26.32000 465.463
26.36000 464.172
26.40000 473.137
26.44000 463.260
26.48000 461.219
26.52000 453.419
26.56000 459.491
26.60000 479.416
26.64000 455.113
26.68000 454.776
26.72000 459.592
26.76000 466.164
26.80000 451.408
26.84000 473.358
26.88000 449.922
26.92000 448.367
26.96000 455.451
27.00000 463.929
27.04000 452.984
27.08000 461.575
27.12000 445.842
27.16000 475.662
27.20000 466.834
27.24000 445.394
27.28000 441.486
27.32000 437.507
27.36000 431.604
27.40000 450.076
27.44000 434.038
27.48000 431.996
27.52000 443.205
27.56000 449.733
27.60000 427.745
27.64000 446.881
27.68000 456.770
27.72000 447.557
27.76000 441.016
27.80000 442.805
27.84000 443.829
27.88000 438.025
27.92000 444.870
27.96000 419.790
28.00000 444.516
28.04000 440.684
28.08000 436.975
28.12000 434.951
28.16000 427.664
28.20000 432.969
28.24000 433.397
28.28000 431.720
28.32000 427.207
28.36000 430.285
28.40000 434.819
28.44000 447.714
28.48000 443.260
28.52000 420.241
28.56000 433.478
28.60000 415.873
28.64000 410.759
28.68000 429.123
28.72000 428.627
28.76000 436.963
28.80000 430.357
28.84000 420.012
28.88000 431.577
28.92000 429.084
28.96000 430.095
29.00000 423.676
29.04000 428.600
29.08000 423.576
29.12000 417.018
29.16000 423.558
29.20000 424.405
29.24000 429.127
29.28000 410.486
29.32000 411.680
29.36000 418.252
29.40000 427.716
29.44000 422.038
29.48000 418.198
29.52000 433.532
29.56000 417.579
29.60000 427.442
29.64000 434.590
29.68000 420.236
29.72000 419.139
29.76000 418.897
29.80000 430.525
29.84000 439.950
29.88000 439.140
29.92000 425.860
29.96000 474.859
30.00000 473.833
30.04000 460.241
30.08000 447.480
30.12000 454.663
30.16000 451.085
30.20000 456.728
30.24000 438.031
30.28000 435.556
30.32000 451.728
30.36000 457.138
30.40000 446.671
30.44000 437.596
30.48000 441.645
30.52000 440.353
30.56000 436.870
30.60000 459.718
30.64000 466.890
30.68000 462.834
30.72000 473.596
30.76000 458.704
30.80000 467.269
30.84000 480.084
30.88000 475.266
30.92000 542.433
30.96000 575.421
31.00000 609.520
31.04000 692.311
31.08000 816.324
31.12000 1051.837
31.16000 1426.085
31.20000 1895.970
31.24000 2504.901
31.28000 3084.630
31.32000 3615.538
31.36000 3822.376
31.40000 3795.606
31.44000 3414.390
31.48000 2846.719
31.52000 2206.400
31.56000 1618.695
31.60000 1161.784
31.64000 839.404
31.68000 693.602
31.72000 579.962
31.76000 524.221
31.80000 496.405
31.84000 467.078
31.88000 465.818
31.92000 466.373
31.96000 442.535
32.00000 420.407
32.04000 438.023
32.08000 432.291
32.12000 437.502
32.16000 426.944
32.20000 433.727
32.24000 422.485
32.28000 388.668
32.32000 386.206
32.36000 399.451
32.40000 397.948
32.44000 385.823
32.48000 397.423
32.52000 400.513
32.56000 390.758
32.60000 382.659
32.64000 379.595
32.68000 388.300
32.72000 379.955
32.76000 390.166
32.80000 377.603
32.84000 377.675
32.88000 407.368
32.92000 431.651
32.96000 464.221
33.00000 471.167
33.04000 498.107
33.08000 472.253
33.12000 446.103
33.16000 411.660
33.20000 372.373
33.24000 365.432
33.28000 363.001
33.32000 349.235
33.36000 354.997
33.40000 338.906
33.44000 349.204
33.48000 335.176
33.52000 362.532
33.56000 333.603
33.60000 348.926
33.64000 369.218
33.68000 348.725
33.72000 355.569
33.76000 338.263
33.80000 343.655
33.84000 353.611
33.88000 330.271
33.92000 347.385
33.96000 352.820
34.00000 358.442
34.04000 344.887
34.08000 326.104
34.12000 343.932
34.16000 339.683
34.20000 332.368
34.24000 323.067
34.28000 324.703
34.32000 343.091
34.36000 347.499
34.40000 344.743
34.44000 341.018
34.48000 341.230
34.52000 333.055
34.56000 333.470
34.60000 338.941
34.64000 332.758
34.68000 346.345
34.72000 332.974
34.76000 335.062
34.80000 329.220
34.84000 328.422
34.88000 319.529
34.92000 334.858
34.96000 313.862
35.00000 327.081
35.04000 326.980
35.08000 327.127
35.12000 317.677
35.16000 314.523
35.20000 317.764
35.24000 312.213
35.28000 312.831
35.32000 300.639
35.36000 326.415
35.40000 313.648
35.44000 310.866
35.48000 312.388
35.52000 306.740
35.56000 318.904
35.60000 303.019
35.64000 311.062
35.68000 318.290
35.72000 297.179
35.76000 315.697
35.80000 316.618
35.84000 329.575
35.88000 318.951
35.92000 297.097
35.96000 307.762
36.00000 308.016
36.04000 298.753
36.08000 300.954
36.12000 304.419
36.16000 325.953
36.20000 288.225
36.24000 286.773
36.28000 292.632
36.32000 306.008
36.36000 310.981
36.40000 302.179
36.44000 310.135
36.48000 303.569
36.52000 300.054
36.56000 294.839
36.60000 303.797
36.64000 305.031
36.68000 303.050
36.72000 306.789
36.76000 300.307
36.80000 311.408
36.84000 305.646
36.88000 306.911
36.92000 306.767
36.96000 297.291
37.00000 324.548
37.04000 312.316
37.08000 303.200
37.12000 312.120
37.16000 309.975
37.20000 301.966
37.24000 290.856
37.28000 289.177
37.32000 290.447
37.36000 290.983
37.40000 313.154
37.44000 312.255
37.48000 304.771
37.52000 305.287
37.56000 299.283
37.60000 311.216
37.64000 294.520
37.68000 306.234
37.72000 287.056
37.76000 303.458
37.80000 293.883
37.84000 302.779
37.88000 289.168
37.92000 301.022
37.96000 310.828
38.00000 302.919
38.04000 289.031
38.08000 291.318
38.12000 305.102
38.16000 311.910
38.20000 331.564
38.24000 301.437
38.28000 304.653
38.32000 331.334
38.36000 332.279
38.40000 357.184
38.44000 389.855
38.48000 431.171
38.52000 475.183
38.56000 525.912
38.60000 619.469
38.64000 682.118
38.68000 734.366
38.72000 744.180
38.76000 713.999
38.80000 663.683
38.84000 582.167
38.88000 515.832
38.92000 436.628
38.96000 377.703
39.00000 345.651
39.04000 318.659
39.08000 300.199
39.12000 307.920
39.16000 289.545
39.20000 295.893
39.24000 280.638
39.28000 288.274
39.32000 281.451
39.36000 291.673
39.40000 276.820
39.44000 274.407
39.48000 289.095
39.52000 282.217
39.56000 268.037
39.60000 267.229
39.64000 277.852
39.68000 268.049
39.72000 281.285
39.76000 270.088
39.80000 270.807
39.84000 266.919
39.88000 269.316
39.92000 273.056
39.96000 265.339
40.00000 260.147
40.04000 265.879
40.08000 254.935
40.12000 271.104
40.16000 279.659
40.20000 255.854
40.24000 270.935
40.28000 259.365
40.32000 262.651
40.36000 250.856
40.40000 254.038
40.44000 259.360
40.48000 255.545
40.52000 263.121
40.56000 259.569
40.60000 255.903
40.64000 266.629
40.68000 245.796
40.72000 243.892
40.76000 250.053
40.80000 248.611
40.84000 249.443
40.88000 249.285
40.92000 248.504
40.96000 245.332
41.00000 249.505
41.04000 250.075
41.08000 245.361
41.12000 257.533
41.16000 241.472
41.20000 246.596
41.24000 246.094
41.28000 250.430
41.32000 244.465
41.36000 243.103
41.40000 244.776
41.44000 234.309
41.48000 245.486
41.52000 237.717
41.56000 246.213
41.60000 257.776
41.64000 246.550
41.68000 238.929
41.72000 251.945
41.76000 264.847
41.80000 241.588
41.84000 258.267
41.88000 246.342
41.92000 243.022
41.96000 233.996
42.00000 236.620
42.04000 244.958
42.08000 249.268
42.12000 251.808
42.16000 239.309
42.20000 237.553
42.24000 249.521
42.28000 230.649
42.32000 233.073
42.36000 227.254
42.40000 250.422
42.44000 237.971
42.48000 224.414
42.52000 233.539
42.56000 228.056
42.60000 233.641
42.64000 233.724
42.68000 231.672
42.72000 232.653
42.76000 236.368
42.80000 232.901
42.84000 228.206
42.88000 234.786
42.92000 238.050
42.96000 230.873
43.00000 235.452
43.04000 233.896
43.08000 228.904
43.12000 237.159
43.16000 238.074
43.20000 232.823
43.24000 229.690
43.28000 225.253
43.32000 220.446
43.36000 219.550
43.40000 229.526
43.44000 230.818
43.48000 221.724
43.52000 243.401
43.56000 230.585
43.60000 229.178
43.64000 225.638
43.68000 223.676
43.72000 226.700
43.76000 220.047
43.80000 234.939
43.84000 225.102
43.88000 229.831
43.92000 229.834
43.96000 227.391
44.00000 229.850
44.04000 222.320
44.08000 228.282
44.12000 222.404
44.16000 219.985
44.20000 223.103
44.24000 217.667
44.28000 224.427
44.32000 234.029
44.36000 234.663
44.40000 238.288
44.44000 236.822
44.48000 241.097
44.52000 239.785
44.56000 222.683
44.60000 242.399
44.64000 262.797
44.68000 257.365
44.72000 271.464
44.76000 280.881
44.80000 305.803
44.84000 339.992
44.88000 373.747
44.92000 434.603
44.96000 490.842
45.00000 512.737
45.04000 522.539
45.08000 527.194
45.12000 498.714
45.16000 473.603
45.20000 415.693
45.24000 363.960
45.28000 320.749
45.32000 316.229
45.36000 289.657
45.40000 263.102
45.44000 255.313
45.48000 248.523
45.52000 242.988
45.56000 242.810
45.60000 235.843
45.64000 237.891
45.68000 215.182
45.72000 227.064
45.76000 219.460
45.80000 222.266
45.84000 207.520
45.88000 226.812
45.92000 217.760
45.96000 217.759
46.00000 215.953
46.04000 214.917
46.08000 208.091
46.12000 204.220
46.16000 210.802
46.20000 214.769
46.24000 211.230
46.28000 214.808
46.32000 206.646
46.36000 216.299
46.40000 204.768
46.44000 211.151
46.48000 205.460
46.52000 213.652
46.56000 203.756
46.60000 204.402
46.64000 205.542
46.68000 216.214
46.72000 199.473
46.76000 207.944
46.80000 209.581
46.84000 200.282
46.88000 189.865
46.92000 203.333
46.96000 199.053
47.00000 199.363
47.04000 194.398
47.08000 192.601
47.12000 201.693
47.16000 194.599
47.20000 192.578
47.24000 199.135
47.28000 197.998
47.32000 193.658
47.36000 196.399
47.40000 198.949
47.44000 187.587
47.48000 196.443
47.52000 194.245
47.56000 188.854
47.60000 197.603
47.64000 190.131
47.68000 185.025
47.72000 183.682
47.76000 174.139
47.80000 187.619
47.84000 195.213
47.88000 189.561
47.92000 186.227
47.96000 189.232
48.00000 182.600
48.04000 191.375
48.08000 198.066
48.12000 183.099
48.16000 191.191
48.20000 189.630
48.24000 192.420
48.28000 190.147
48.32000 182.976
48.36000 196.005
48.40000 195.061
48.44000 190.661
48.48000 189.833
48.52000 186.202
48.56000 175.989
48.60000 186.878
48.64000 187.658
48.68000 183.665
48.72000 184.624
48.76000 181.187
48.80000 166.606
48.84000 172.627
48.88000 192.918
48.92000 174.591
48.96000 174.995
49.00000 186.070
49.04000 189.140
49.08000 173.502
49.12000 179.889
49.16000 186.891
49.20000 176.486
49.24000 186.850
49.28000 184.470
49.32000 178.710
49.36000 182.684
49.40000 185.020
49.44000 174.284
49.48000 183.822
49.52000 181.133
49.56000 179.791
49.60000 176.428
49.64000 173.266
49.68000 174.001
49.72000 190.301
49.76000 177.154
49.80000 179.319
49.84000 175.717
49.88000 184.489
49.92000 166.143
49.96000 177.004
50.00000 168.081
50.04000 177.173
50.08000 183.029
50.12000 192.104
50.16000 182.185
50.20000 186.444
50.24000 197.637
50.28000 194.695
50.32000 195.846
50.36000 203.217
50.40000 198.018
50.44000 215.678
50.48000 223.877
50.52000 243.394
50.56000 266.364
50.60000 274.585
50.64000 300.619
50.68000 283.888
50.72000 288.256
50.76000 290.628
50.80000 265.794
50.84000 249.680
50.88000 215.116
50.92000 210.149
50.96000 196.074
51.00000 196.484
51.04000 201.041
51.08000 174.507
51.12000 177.332
51.16000 171.875
51.20000 174.536
51.24000 164.409
51.28000 165.479
51.32000 162.637
51.36000 165.477
51.40000 173.649
51.44000 175.521
51.48000 167.122
51.52000 176.116
51.56000 164.604
51.60000 171.280
51.64000 164.229
51.68000 170.833
51.72000 168.215
51.76000 171.004
51.80000 170.375
51.84000 169.364
51.88000 176.899
51.92000 170.649
51.96000 177.764
52.00000 166.904
52.04000 167.640
52.08000 158.799
52.12000 155.854
52.16000 157.177
52.20000 160.083
52.24000 164.196
52.28000 159.374
52.32000 156.861
52.36000 161.379
52.40000 156.961
52.44000 165.801
52.48000 163.562
52.52000 172.679
52.56000 158.697
52.60000 160.248
52.64000 159.167
52.68000 160.580
52.72000 172.267
52.76000 161.728
52.80000 163.634
52.84000 162.362
52.88000 156.370
52.92000 155.920
52.96000 155.456
53.00000 159.865
53.04000 160.211
53.08000 167.590
53.12000 170.734
53.16000 158.767
53.20000 158.241
53.24000 162.393
53.28000 163.002
53.32000 155.001
53.36000 171.080
53.40000 165.455
53.44000 171.008
53.48000 162.274
53.52000 163.980
53.56000 161.132
53.60000 156.459
53.64000 160.578
53.68000 154.341
53.72000 164.645
53.76000 160.952
53.80000 157.640
53.84000 154.455
53.88000 148.471
53.92000 161.463
53.96000 153.732
54.00000 156.564
54.04000 157.942
54.08000 152.440
54.12000 160.593
54.16000 144.872
54.20000 156.253
54.24000 162.606
54.28000 149.513
54.32000 159.411
54.36000 150.576
54.40000 164.959
54.44000 155.839
54.48000 157.554
54.52000 153.606
54.56000 156.589
54.60000 159.536
54.64000 165.160
54.68000 170.012
54.72000 149.903
54.76000 154.645
54.80000 163.671
54.84000 172.328
54.88000 163.335
54.92000 153.141
54.96000 171.129
55.00000 155.327
55.04000 161.341
55.08000 157.622
55.12000 154.539
55.16000 158.639
55.20000 172.313
55.24000 173.837
55.28000 164.713
55.32000 177.775
55.36000 179.960
55.40000 183.092
55.44000 183.191
55.48000 197.487
55.52000 217.247
55.56000 222.989
55.60000 228.840
55.64000 290.027
55.68000 331.111
55.72000 377.429
55.76000 485.028
55.80000 544.887
55.84000 600.394
55.88000 632.254
55.92000 645.164
55.96000 634.821
56.00000 609.578
56.04000 544.585
56.08000 466.487
56.12000 393.637
56.16000 352.276
56.20000 309.635
56.24000 251.565
56.28000 237.922
56.32000 212.884
56.36000 195.728
56.40000 177.997
56.44000 184.023
56.48000 184.838
56.52000 160.924
56.56000 165.195
56.60000 158.434
56.64000 153.149
56.68000 151.966
56.72000 160.315
56.76000 156.152
56.80000 156.207
56.84000 161.452
56.88000 146.679
56.92000 152.972
56.96000 136.172
57.00000 152.278
57.04000 145.029
57.08000 143.005
57.12000 141.580
57.16000 144.535
57.20000 151.275
57.24000 143.416
57.28000 158.166
57.32000 158.221
57.36000 153.037
57.40000 149.127
57.44000 151.818
57.48000 149.976
57.52000 145.529
57.56000 150.091
57.60000 132.664
57.64000 135.418
57.68000 147.734
57.72000 143.902
57.76000 147.724
57.80000 143.883
57.84000 151.412
57.88000 146.219
57.92000 138.510
57.96000 137.627
58.00000 141.087
58.04000 140.711
58.08000 140.861
58.12000 147.596
58.16000 145.797
58.20000 154.137
58.24000 139.583
58.28000 136.961
58.32000 141.084
58.36000 139.432
58.40000 133.847
58.44000 145.942
58.48000 135.712
58.52000 149.374
58.56000 141.848
58.60000 138.458
58.64000 136.220
58.68000 138.252
58.72000 141.312
58.76000 134.535
58.80000 139.174
58.84000 137.864
58.88000 138.330
58.92000 137.054
58.96000 137.765
59.00000 143.483
59.04000 129.158
59.08000 138.024
59.12000 139.062
59.16000 135.385
59.20000 143.635
59.24000 132.436
59.28000 129.649
59.32000 141.466
59.36000 139.266
59.40000 134.094
59.44000 138.492
59.48000 137.893
59.52000 132.892
59.56000 139.650
59.60000 136.202
59.64000 137.880
59.68000 135.824
59.72000 128.244
59.76000 140.450
59.80000 131.446
59.84000 121.478
59.88000 134.179
59.92000 136.129
59.96000 143.272
60.00000 129.984
60.04000 141.425
60.08000 136.316
60.12000 124.715
60.16000 131.427
60.20000 130.545
60.24000 133.965
60.28000 129.540
60.32000 139.273
60.36000 135.313
60.40000 141.422
60.44000 135.548
60.48000 128.430
60.52000 123.138
60.56000 128.955
60.60000 140.620
60.64000 141.647
60.68000 141.847
60.72000 130.747
60.76000 135.999
60.80000 138.693
60.84000 137.568
60.88000 123.011
60.92000 138.427
60.96000 146.613
61.00000 117.881
61.04000 149.342
61.08000 140.814
61.12000 144.520
61.16000 133.664
61.20000 133.082
61.24000 133.970
61.28000 131.333
61.32000 142.297
61.36000 139.168
61.40000 143.051
61.44000 140.683
61.48000 155.420
61.52000 159.830
61.56000 207.509
61.60000 273.862
61.64000 310.823
61.68000 325.768
61.72000 323.835
61.76000 307.201
61.80000 259.026
61.84000 201.463
61.88000 157.327
61.92000 152.992
61.96000 143.068
62.00000 142.100
62.04000 143.871
62.08000 146.273
62.12000 141.728
62.16000 145.301
62.20000 146.781
62.24000 139.376
62.28000 142.298
62.32000 145.075
62.36000 145.951
62.40000 145.242
62.44000 139.514
62.48000 145.082
62.52000 153.062
62.56000 142.851
62.60000 144.409
62.64000 145.129
62.68000 147.793
62.72000 143.552
62.76000 136.515
62.80000 146.084
62.84000 140.482
62.88000 143.376
62.92000 141.485
62.96000 128.137
63.00000 154.767
63.04000 149.199
63.08000 142.987
63.12000 140.536
63.16000 144.746
63.20000 142.480
63.24000 148.184
63.28000 141.309
63.32000 148.446
63.36000 161.211
63.40000 156.018
63.44000 151.526
63.48000 156.163
63.52000 149.019
63.56000 151.216
63.60000 144.282
63.64000 143.601
63.68000 148.631
63.72000 157.873
63.76000 151.305
63.80000 152.321
63.84000 156.591
63.88000 166.463
63.92000 147.666
63.96000 148.484
64.00000 159.239
64.04000 161.760
64.08000 164.738
64.12000 159.828
64.16000 165.259
64.20000 158.294
64.24000 159.932
64.28000 158.010
64.32000 154.197
64.36000 165.049
64.40000 183.753
64.44000 173.222
64.48000 167.064
64.52000 163.006
64.56000 164.177
64.60000 170.767
64.64000 168.835
64.68000 176.318
64.72000 181.744
64.76000 178.128
64.80000 189.713
64.84000 188.444
64.88000 196.923
64.92000 186.744
64.96000 203.399
65.00000 196.199
65.04000 193.877
65.08000 217.701
65.12000 231.477
65.16000 233.012
65.20000 245.197
65.24000 278.385
65.28000 293.978
65.32000 303.202
65.36000 341.219
65.40000 374.117
65.44000 394.540
65.48000 423.038
65.52000 468.597
65.56000 461.764
65.60000 459.284
65.64000 495.156
65.68000 571.196
65.72000 727.626
65.76000 901.766
65.80000 1174.108
65.84000 1307.459
65.88000 1319.660
65.92000 1254.039
65.96000 1105.577
66.00000 782.572
66.04000 528.470
66.08000 385.833
66.12000 336.337
66.16000 322.740
66.20000 319.058
66.24000 331.365
66.28000 366.211
66.32000 414.234
66.36000 458.434
66.40000 495.839
66.44000 524.168
66.48000 523.311
66.52000 461.975
66.56000 397.727
66.60000 362.892
66.64000 344.696
66.68000 341.579
66.72000 335.729
66.76000 325.610
66.80000 348.361
66.84000 349.723
66.88000 343.795
66.92000 352.391
66.96000 357.627
67.00000 374.145
67.04000 376.319
67.08000 388.550
67.12000 405.925
67.16000 401.059
67.20000 408.537
67.24000 388.519
67.28000 398.912
67.32000 420.077
67.36000 413.024
67.40000 442.412
67.44000 438.120
67.48000 460.915
67.52000 454.804
67.56000 468.399
67.60000 469.134
67.64000 479.112
67.68000 493.502
67.72000 512.112
67.76000 493.264
67.80000 504.066
67.84000 544.284
67.88000 544.153
67.92000 572.910
67.96000 581.160
68.00000 582.881
68.04000 607.045
68.08000 597.136
68.12000 608.037
68.16000 634.430
68.20000 652.087
68.24000 677.040
68.28000 681.755
68.32000 721.280
68.36000 727.388
68.40000 775.367
68.44000 801.096
68.48000 830.491
68.52000 896.975
68.56000 941.522
68.60000 1123.534
68.64000 1282.891
68.68000 1556.998
68.72000 1834.178
68.76000 2049.346
68.80000 2356.905
68.84000 2683.604
68.88000 3225.950
68.92000 6214.447
68.96000 14754.014
69.00000 36296.719
69.04000 60028.824
69.08000 74004.648
69.12000 76428.664
69.16000 79308.898
69.20000 79162.523
69.24000 67641.047
69.28000 52825.402
69.32000 42716.715
69.36000 37907.832
69.40000 31756.061
69.44000 19852.771
69.48000 9520.296
69.52000 4128.203
69.56000 2347.100
69.60000 1775.149
69.64000 1490.298
69.68000 1330.122
69.72000 1178.546
69.76000 1054.340
69.80000 987.073
69.84000 920.490
69.88000 887.290
69.92000 838.464
69.96000 811.386
70.00000 759.072