File: XRD/XRD/30-09-2025 Dep 1/XY Data/BTO_Mapping_Theta2Theta_30-09-2025_001_45_-20-000_-34-641.xy
20.00000 569.226
20.04000 578.458
20.08000 543.718
20.12000 552.356
20.16000 571.849
20.20000 562.615
20.24000 577.072
20.28000 572.819
20.32000 552.046
20.36000 570.421
20.40000 581.984
20.44000 551.902
20.48000 549.948
20.52000 554.249
20.56000 561.690
20.60000 569.354
20.64000 566.317
20.68000 562.461
20.72000 580.280
20.76000 572.227
20.80000 561.489
20.84000 549.492
20.88000 549.285
20.92000 561.277
20.96000 571.796
21.00000 568.801
21.04000 549.175
21.08000 548.186
21.12000 565.828
21.16000 555.862
21.20000 550.017
21.24000 559.599
21.28000 554.338
21.32000 560.109
21.36000 545.776
21.40000 554.031
21.44000 531.216
21.48000 559.380
21.52000 561.908
21.56000 573.479
21.60000 572.531
21.64000 556.287
21.68000 597.557
21.72000 613.743
21.76000 625.063
21.80000 661.444
21.84000 721.693
21.88000 761.350
21.92000 825.359
21.96000 873.673
22.00000 916.579
22.04000 921.257
22.08000 881.586
22.12000 821.947
22.16000 746.960
22.20000 720.179
22.24000 656.155
22.28000 601.242
22.32000 592.685
22.36000 574.012
22.40000 557.824
22.44000 549.426
22.48000 544.991
22.52000 529.923
22.56000 544.357
22.60000 534.407
22.64000 530.872
22.68000 533.534
22.72000 543.471
22.76000 524.867
22.80000 517.948
22.84000 532.518
22.88000 534.249
22.92000 533.256
22.96000 513.302
23.00000 558.401
23.04000 528.456
23.08000 521.299
23.12000 543.348
23.16000 523.472
23.20000 528.775
23.24000 533.035
23.28000 520.769
23.32000 513.289
23.36000 500.222
23.40000 491.700
23.44000 505.329
23.48000 511.278
23.52000 515.994
23.56000 515.412
23.60000 493.123
23.64000 524.426
23.68000 499.528
23.72000 507.698
23.76000 517.003
23.80000 500.174
23.84000 506.050
23.88000 499.912
23.92000 518.340
23.96000 522.783
24.00000 492.053
24.04000 497.696
24.08000 500.062
24.12000 510.484
24.16000 486.148
24.20000 497.852
24.24000 497.617
24.28000 478.002
24.32000 504.756
24.36000 487.134
24.40000 496.470
24.44000 493.859
24.48000 490.747
24.52000 501.525
24.56000 512.122
24.60000 483.002
24.64000 500.964
24.68000 485.503
24.72000 499.251
24.76000 484.632
24.80000 494.836
24.84000 486.628
24.88000 511.707
24.92000 470.444
24.96000 483.207
25.00000 497.505
25.04000 482.708
25.08000 486.016
25.12000 489.756
25.16000 496.867
25.20000 475.173
25.24000 488.965
25.28000 462.881
25.32000 485.081
25.36000 477.152
25.40000 483.357
25.44000 461.225
25.48000 498.428
25.52000 469.351
25.56000 479.519
25.60000 464.276
25.64000 481.569
25.68000 483.870
25.72000 466.864
25.76000 474.244
25.80000 476.430
25.84000 480.473
25.88000 472.449
25.92000 469.278
25.96000 472.294
26.00000 479.730
26.04000 462.273
26.08000 473.635
26.12000 450.627
26.16000 483.307
26.20000 472.653
26.24000 467.548
26.28000 463.774
26.32000 470.141
26.36000 457.679
26.40000 461.440
26.44000 460.805
26.48000 466.199
26.52000 457.337
26.56000 449.815
26.60000 464.750
26.64000 453.591
26.68000 458.044
26.72000 469.477
26.76000 443.795
26.80000 467.292
26.84000 459.756
26.88000 446.543
26.92000 453.509
26.96000 455.002
27.00000 450.850
27.04000 457.486
27.08000 453.825
27.12000 461.993
27.16000 451.924
27.20000 440.077
27.24000 454.088
27.28000 431.808
27.32000 444.220
27.36000 439.588
27.40000 452.828
27.44000 441.918
27.48000 449.299
27.52000 460.065
27.56000 438.388
27.60000 451.612
27.64000 439.820
27.68000 439.502
27.72000 458.980
27.76000 444.415
27.80000 451.481
27.84000 444.608
27.88000 432.731
27.92000 440.798
27.96000 473.182
28.00000 440.655
28.04000 445.426
28.08000 431.158
28.12000 435.921
28.16000 451.280
28.20000 448.440
28.24000 448.757
28.28000 470.402
28.32000 456.735
28.36000 456.085
28.40000 435.729
28.44000 435.826
28.48000 430.054
28.52000 422.235
28.56000 434.748
28.60000 438.306
28.64000 439.080
28.68000 423.853
28.72000 432.305
28.76000 439.869
28.80000 454.779
28.84000 434.846
28.88000 437.702
28.92000 440.101
28.96000 443.216
29.00000 428.232
29.04000 430.679
29.08000 424.714
29.12000 407.435
29.16000 425.015
29.20000 416.720
29.24000 449.337
29.28000 421.915
29.32000 415.709
29.36000 412.545
29.40000 432.961
29.44000 423.880
29.48000 423.660
29.52000 421.052
29.56000 417.157
29.60000 430.478
29.64000 434.760
29.68000 418.614
29.72000 414.545
29.76000 426.861
29.80000 434.329
29.84000 441.246
29.88000 455.282
29.92000 450.231
29.96000 475.518
30.00000 482.050
30.04000 479.565
30.08000 453.068
30.12000 459.525
30.16000 446.242
30.20000 436.913
30.24000 439.044
30.28000 441.417
30.32000 447.711
30.36000 456.147
30.40000 433.060
30.44000 465.863
30.48000 441.179
30.52000 452.033
30.56000 451.512
30.60000 460.897
30.64000 460.335
30.68000 468.580
30.72000 470.533
30.76000 475.201
30.80000 497.357
30.84000 500.066
30.88000 493.488
30.92000 531.007
30.96000 570.413
31.00000 660.482
31.04000 782.114
31.08000 958.485
31.12000 1299.328
31.16000 1813.606
31.20000 2441.508
31.24000 3113.507
31.28000 3776.429
31.32000 4159.834
31.36000 4261.754
31.40000 4062.752
31.44000 3455.119
31.48000 2780.256
31.52000 2033.311
31.56000 1449.508
31.60000 1057.674
31.64000 800.412
31.68000 673.290
31.72000 554.648
31.76000 510.212
31.80000 488.278
31.84000 477.193
31.88000 442.026
31.92000 439.865
31.96000 445.946
32.00000 431.400
32.04000 436.600
32.08000 430.585
32.12000 406.165
32.16000 415.878
32.20000 403.412
32.24000 410.806
32.28000 407.899
32.32000 409.118
32.36000 411.359
32.40000 412.009
32.44000 400.347
32.48000 390.235
32.52000 389.945
32.56000 390.703
32.60000 388.668
32.64000 394.412
32.68000 393.409
32.72000 379.906
32.76000 388.639
32.80000 385.899
32.84000 384.564
32.88000 434.000
32.92000 448.531
32.96000 479.866
33.00000 507.826
33.04000 504.493
33.08000 488.062
33.12000 464.163
33.16000 441.686
33.20000 403.875
33.24000 358.086
33.28000 362.390
33.32000 361.535
33.36000 380.346
33.40000 353.802
33.44000 361.615
33.48000 351.776
33.52000 349.971
33.56000 342.773
33.60000 346.045
33.64000 348.696
33.68000 340.164
33.72000 365.824
33.76000 360.606
33.80000 352.293
33.84000 356.461
33.88000 344.711
33.92000 368.405
33.96000 349.686
34.00000 327.636
34.04000 337.203
34.08000 341.792
34.12000 353.477
34.16000 341.451
34.20000 344.030
34.24000 344.090
34.28000 346.107
34.32000 334.306
34.36000 321.762
34.40000 343.327
34.44000 343.981
34.48000 341.619
34.52000 328.928
34.56000 325.930
34.60000 333.830
34.64000 335.797
34.68000 320.725
34.72000 315.501
34.76000 324.051
34.80000 347.521
34.84000 319.214
34.88000 337.807
34.92000 331.428
34.96000 328.129
35.00000 333.120
35.04000 314.643
35.08000 324.248
35.12000 329.888
35.16000 327.280
35.20000 313.877
35.24000 320.879
35.28000 319.377
35.32000 310.809
35.36000 315.695
35.40000 316.461
35.44000 320.204
35.48000 326.345
35.52000 301.165
35.56000 319.229
35.60000 325.986
35.64000 330.799
35.68000 311.828
35.72000 324.617
35.76000 313.412
35.80000 312.125
35.84000 298.476
35.88000 318.129
35.92000 306.317
35.96000 310.610
36.00000 314.524
36.04000 311.900
36.08000 314.608
36.12000 317.381
36.16000 295.566
36.20000 316.515
36.24000 310.092
36.28000 301.245
36.32000 303.468
36.36000 289.025
36.40000 295.974
36.44000 314.257
36.48000 296.329
36.52000 304.380
36.56000 292.586
36.60000 306.653
36.64000 304.622
36.68000 293.269
36.72000 303.879
36.76000 308.991
36.80000 314.813
36.84000 311.845
36.88000 303.534
36.92000 304.283
36.96000 298.214
37.00000 307.304
37.04000 301.302
37.08000 322.485
37.12000 306.881
37.16000 292.636
37.20000 327.348
37.24000 302.328
37.28000 307.930
37.32000 318.666
37.36000 302.080
37.40000 301.320
37.44000 294.915
37.48000 296.190
37.52000 304.131
37.56000 306.174
37.60000 296.348
37.64000 277.086
37.68000 289.981
37.72000 291.606
37.76000 305.801
37.80000 287.909
37.84000 283.504
37.88000 288.336
37.92000 302.928
37.96000 310.012
38.00000 302.702
38.04000 304.239
38.08000 286.135
38.12000 315.933
38.16000 301.344
38.20000 299.627
38.24000 323.971
38.28000 317.670
38.32000 318.448
38.36000 350.827
38.40000 375.563
38.44000 377.148
38.48000 395.705
38.52000 428.976
38.56000 488.158
38.60000 521.390
38.64000 545.579
38.68000 563.140
38.72000 552.685
38.76000 557.739
38.80000 518.154
38.84000 462.684
38.88000 390.016
38.92000 361.589
38.96000 337.235
39.00000 318.532
39.04000 317.420
39.08000 298.258
39.12000 296.834
39.16000 311.164
39.20000 292.762
39.24000 291.432
39.28000 278.671
39.32000 280.010
39.36000 288.103
39.40000 267.272
39.44000 283.203
39.48000 270.997
39.52000 277.843
39.56000 265.323
39.60000 258.784
39.64000 266.011
39.68000 276.958
39.72000 269.110
39.76000 272.938
39.80000 262.306
39.84000 271.786
39.88000 272.372
39.92000 272.244
39.96000 254.368
40.00000 288.136
40.04000 263.896
40.08000 280.646
40.12000 267.933
40.16000 260.281
40.20000 272.136
40.24000 255.694
40.28000 256.337
40.32000 258.299
40.36000 255.448
40.40000 271.715
40.44000 262.749
40.48000 256.635
40.52000 262.374
40.56000 250.824
40.60000 249.475
40.64000 266.288
40.68000 252.146
40.72000 251.923
40.76000 263.865
40.80000 256.238
40.84000 254.187
40.88000 266.828
40.92000 241.711
40.96000 260.796
41.00000 244.211
41.04000 251.135
41.08000 246.819
41.12000 258.846
41.16000 249.319
41.20000 256.454
41.24000 245.905
41.28000 258.048
41.32000 265.223
41.36000 249.154
41.40000 247.239
41.44000 257.126
41.48000 256.870
41.52000 263.511
41.56000 241.825
41.60000 238.187
41.64000 245.698
41.68000 233.916
41.72000 247.885
41.76000 248.010
41.80000 233.895
41.84000 235.364
41.88000 239.996
41.92000 242.529
41.96000 221.036
42.00000 243.092
42.04000 238.724
42.08000 242.514
42.12000 234.693
42.16000 243.482
42.20000 247.508
42.24000 243.099
42.28000 242.919
42.32000 234.942
42.36000 239.598
42.40000 234.406
42.44000 241.906
42.48000 228.309
42.52000 241.869
42.56000 226.950
42.60000 246.016
42.64000 231.154
42.68000 241.172
42.72000 230.910
42.76000 242.743
42.80000 234.965
42.84000 236.220
42.88000 248.057
42.92000 231.698
42.96000 232.730
43.00000 238.900
43.04000 242.333
43.08000 235.088
43.12000 238.818
43.16000 232.856
43.20000 240.546
43.24000 235.988
43.28000 229.867
43.32000 241.859
43.36000 224.047
43.40000 224.794
43.44000 217.879
43.48000 234.743
43.52000 227.726
43.56000 229.381
43.60000 221.442
43.64000 236.916
43.68000 217.297
43.72000 226.189
43.76000 229.431
43.80000 231.669
43.84000 232.811
43.88000 236.588
43.92000 230.691
43.96000 235.787
44.00000 228.434
44.04000 221.391
44.08000 224.012
44.12000 238.766
44.16000 220.496
44.20000 230.679
44.24000 233.581
44.28000 233.650
44.32000 227.980
44.36000 229.438
44.40000 223.004
44.44000 226.377
44.48000 239.572
44.52000 250.620
44.56000 240.992
44.60000 268.973
44.64000 257.085
44.68000 277.364
44.72000 302.826
44.76000 346.397
44.80000 382.257
44.84000 438.435
44.88000 473.766
44.92000 525.172
44.96000 550.398
45.00000 566.406
45.04000 541.183
45.08000 527.376
45.12000 483.690
45.16000 443.340
45.20000 399.618
45.24000 356.434
45.28000 332.933
45.32000 302.220
45.36000 275.709
45.40000 270.734
45.44000 261.958
45.48000 253.490
45.52000 228.690
45.56000 233.817
45.60000 238.635
45.64000 226.220
45.68000 226.073
45.72000 224.258
45.76000 219.370
45.80000 222.745
45.84000 225.824
45.88000 231.808
45.92000 229.683
45.96000 215.083
46.00000 204.014
46.04000 217.499
46.08000 207.782
46.12000 204.751
46.16000 215.173
46.20000 215.316
46.24000 211.884
46.28000 203.287
46.32000 215.345
46.36000 219.277
46.40000 209.017
46.44000 207.952
46.48000 194.252
46.52000 212.881
46.56000 206.176
46.60000 201.326
46.64000 211.177
46.68000 204.377
46.72000 207.069
46.76000 203.687
46.80000 197.671
46.84000 202.225
46.88000 205.194
46.92000 202.748
46.96000 192.054
47.00000 190.276
47.04000 201.873
47.08000 190.541
47.12000 192.021
47.16000 195.082
47.20000 197.128
47.24000 180.546
47.28000 198.672
47.32000 207.442
47.36000 197.120
47.40000 190.097
47.44000 200.096
47.48000 201.627
47.52000 202.857
47.56000 186.018
47.60000 191.709
47.64000 190.855
47.68000 180.370
47.72000 189.223
47.76000 194.564
47.80000 185.894
47.84000 183.739
47.88000 193.126
47.92000 194.448
47.96000 179.675
48.00000 181.995
48.04000 181.249
48.08000 180.830
48.12000 184.426
48.16000 196.220
48.20000 182.880
48.24000 185.167
48.28000 195.417
48.32000 185.556
48.36000 194.202
48.40000 188.329
48.44000 190.981
48.48000 196.788
48.52000 186.557
48.56000 188.965
48.60000 180.909
48.64000 187.344
48.68000 178.549
48.72000 186.751
48.76000 190.785
48.80000 181.322
48.84000 176.317
48.88000 182.975
48.92000 182.304
48.96000 189.305
49.00000 193.360
49.04000 177.983
49.08000 182.408
49.12000 191.089
49.16000 186.435
49.20000 193.710
49.24000 182.555
49.28000 182.392
49.32000 192.356
49.36000 178.909
49.40000 182.484
49.44000 190.286
49.48000 196.078
49.52000 190.096
49.56000 181.694
49.60000 173.963
49.64000 179.759
49.68000 180.873
49.72000 190.135
49.76000 183.272
49.80000 174.294
49.84000 184.212
49.88000 179.535
49.92000 182.389
49.96000 193.429
50.00000 176.324
50.04000 169.990
50.08000 183.608
50.12000 188.175
50.16000 183.701
50.20000 174.965
50.24000 185.067
50.28000 198.097
50.32000 206.103
50.36000 218.345
50.40000 228.119
50.44000 247.009
50.48000 253.558
50.52000 265.531
50.56000 284.636
50.60000 304.448
50.64000 300.616
50.68000 300.342
50.72000 285.844
50.76000 282.842
50.80000 271.535
50.84000 253.189
50.88000 243.825
50.92000 217.348
50.96000 198.703
51.00000 192.208
51.04000 182.137
51.08000 178.250
51.12000 188.912
51.16000 183.828
51.20000 175.294
51.24000 172.885
51.28000 180.296
51.32000 178.507
51.36000 172.555
51.40000 169.254
51.44000 171.072
51.48000 169.023
51.52000 171.833
51.56000 161.675
51.60000 176.927
51.64000 165.895
51.68000 156.197
51.72000 168.920
51.76000 167.924
51.80000 159.597
51.84000 174.467
51.88000 168.122
51.92000 162.582
51.96000 167.208
52.00000 160.153
52.04000 168.510
52.08000 167.922
52.12000 168.858
52.16000 173.215
52.20000 175.233
52.24000 167.574
52.28000 177.355
52.32000 156.185
52.36000 170.744
52.40000 179.872
52.44000 171.125
52.48000 174.481
52.52000 172.992
52.56000 162.937
52.60000 168.329
52.64000 166.363
52.68000 167.156
52.72000 159.644
52.76000 159.146
52.80000 152.572
52.84000 162.406
52.88000 166.247
52.92000 166.123
52.96000 170.903
53.00000 162.631
53.04000 154.185
53.08000 171.365
53.12000 175.737
53.16000 178.053
53.20000 161.690
53.24000 170.803
53.28000 167.912
53.32000 151.483
53.36000 164.288
53.40000 165.427
53.44000 164.558
53.48000 158.327
53.52000 157.675
53.56000 168.069
53.60000 169.204
53.64000 161.570
53.68000 150.427
53.72000 159.791
53.76000 155.814
53.80000 156.628
53.84000 166.358
53.88000 155.320
53.92000 157.493
53.96000 155.594
54.00000 161.839
54.04000 165.382
54.08000 152.688
54.12000 159.826
54.16000 162.532
54.20000 156.600
54.24000 152.557
54.28000 154.864
54.32000 154.619
54.36000 160.771
54.40000 146.700
54.44000 155.346
54.48000 157.451
54.52000 159.995
54.56000 165.294
54.60000 153.959
54.64000 161.065
54.68000 167.461
54.72000 157.471
54.76000 149.438
54.80000 155.749
54.84000 162.540
54.88000 158.267
54.92000 161.205
54.96000 155.376
55.00000 164.286
55.04000 159.979
55.08000 165.191
55.12000 169.325
55.16000 166.300
55.20000 171.254
55.24000 176.735
55.28000 183.840
55.32000 175.683
55.36000 180.471
55.40000 194.635
55.44000 194.887
55.48000 218.591
55.52000 252.229
55.56000 272.456
55.60000 296.432
55.64000 351.548
55.68000 428.153
55.72000 500.449
55.76000 555.110
55.80000 600.703
55.84000 629.710
55.88000 662.867
55.92000 640.258
55.96000 587.522
56.00000 529.214
56.04000 485.896
56.08000 409.026
56.12000 361.641
56.16000 299.780
56.20000 260.059
56.24000 236.407
56.28000 207.474
56.32000 183.628
56.36000 181.113
56.40000 173.010
56.44000 182.808
56.48000 173.032
56.52000 164.626
56.56000 157.965
56.60000 151.810
56.64000 163.205
56.68000 154.013
56.72000 163.799
56.76000 149.200
56.80000 158.889
56.84000 151.448
56.88000 146.206
56.92000 155.874
56.96000 143.899
57.00000 145.663
57.04000 156.961
57.08000 150.947
57.12000 149.002
57.16000 145.032
57.20000 149.285
57.24000 150.825
57.28000 151.484
57.32000 144.852
57.36000 141.391
57.40000 152.969
57.44000 148.707
57.48000 145.753
57.52000 149.985
57.56000 151.299
57.60000 145.025
57.64000 147.272
57.68000 149.416
57.72000 141.519
57.76000 145.429
57.80000 145.075
57.84000 149.969
57.88000 150.629
57.92000 141.294
57.96000 149.395
58.00000 138.774
58.04000 138.882
58.08000 140.603
58.12000 144.034
58.16000 137.957
58.20000 128.932
58.24000 132.737
58.28000 141.866
58.32000 142.948
58.36000 135.819
58.40000 141.218
58.44000 136.652
58.48000 141.432
58.52000 121.619
58.56000 135.649
58.60000 143.457
58.64000 144.478
58.68000 136.504
58.72000 137.337
58.76000 140.643
58.80000 145.543
58.84000 135.503
58.88000 130.409
58.92000 147.361
58.96000 143.280
59.00000 134.560
59.04000 136.958
59.08000 138.523
59.12000 128.898
59.16000 136.434
59.20000 142.366
59.24000 128.914
59.28000 134.917
59.32000 121.211
59.36000 136.550
59.40000 138.867
59.44000 147.289
59.48000 137.748
59.52000 131.106
59.56000 129.848
59.60000 136.102
59.64000 138.318
59.68000 134.898
59.72000 136.771
59.76000 132.648
59.80000 135.929
59.84000 123.822
59.88000 123.463
59.92000 138.977
59.96000 134.369
60.00000 132.689
60.04000 141.611
60.08000 133.679
60.12000 137.625
60.16000 127.889
60.20000 133.852
60.24000 135.525
60.28000 136.365
60.32000 131.594
60.36000 132.769
60.40000 137.520
60.44000 135.755
60.48000 132.379
60.52000 127.602
60.56000 137.425
60.60000 129.799
60.64000 126.612
60.68000 130.190
60.72000 133.153
60.76000 136.236
60.80000 143.224
60.84000 136.205
60.88000 135.306
60.92000 136.397
60.96000 132.974
61.00000 140.905
61.04000 142.810
61.08000 139.000
61.12000 146.432
61.16000 144.527
61.20000 140.508
61.24000 150.623
61.28000 145.905
61.32000 143.348
61.36000 146.891
61.40000 147.888
61.44000 137.965
61.48000 143.310
61.52000 169.100
61.56000 219.806
61.60000 270.012
61.64000 313.853
61.68000 344.671
61.72000 356.720
61.76000 333.333
61.80000 286.648
61.84000 221.276
61.88000 176.839
61.92000 154.510
61.96000 155.673
62.00000 142.957
62.04000 158.251
62.08000 139.404
62.12000 145.723
62.16000 150.965
62.20000 146.281
62.24000 152.864
62.28000 137.266
62.32000 142.109
62.36000 144.714
62.40000 145.112
62.44000 153.176
62.48000 141.722
62.52000 143.645
62.56000 139.345
62.60000 152.106
62.64000 153.392
62.68000 145.250
62.72000 145.585
62.76000 148.747
62.80000 147.430
62.84000 144.418
62.88000 154.414
62.92000 144.971
62.96000 139.333
63.00000 147.994
63.04000 156.044
63.08000 131.787
63.12000 136.662
63.16000 146.224
63.20000 143.641
63.24000 161.151
63.28000 147.406
63.32000 143.686
63.36000 179.679
63.40000 159.535
63.44000 149.461
63.48000 154.225
63.52000 158.497
63.56000 156.111
63.60000 165.344
63.64000 139.765
63.68000 156.676
63.72000 152.418
63.76000 154.414
63.80000 158.344
63.84000 155.736
63.88000 151.385
63.92000 156.775
63.96000 159.514
64.00000 171.935
64.04000 167.642
64.08000 161.418
64.12000 149.145
64.16000 150.580
64.20000 157.213
64.24000 166.081
64.28000 174.455
64.32000 165.075
64.36000 174.271
64.40000 168.010
64.44000 181.139
64.48000 169.211
64.52000 180.592
64.56000 172.454
64.60000 180.131
64.64000 173.843
64.68000 177.409
64.72000 183.790
64.76000 191.353
64.80000 183.383
64.84000 201.179
64.88000 194.047
64.92000 196.007
64.96000 193.203
65.00000 207.123
65.04000 216.098
65.08000 236.804
65.12000 228.900
65.16000 246.941
65.20000 269.528
65.24000 304.951
65.28000 349.763
65.32000 354.423
65.36000 410.726
65.40000 433.961
65.44000 441.150
65.48000 478.785
65.52000 482.314
65.56000 465.670
65.60000 474.154
65.64000 489.596
65.68000 528.275
65.72000 662.802
65.76000 895.165
65.80000 1185.466
65.84000 1363.936
65.88000 1418.441
65.92000 1376.275
65.96000 1236.326
66.00000 920.938
66.04000 620.430
66.08000 442.906
66.12000 375.981
66.16000 330.824
66.20000 326.287
66.24000 330.967
66.28000 369.065
66.32000 437.244
66.36000 500.444
66.40000 506.532
66.44000 531.824
66.48000 511.191
66.52000 491.986
66.56000 421.912
66.60000 383.288
66.64000 351.853
66.68000 350.530
66.72000 335.702
66.76000 337.877
66.80000 342.336
66.84000 348.787
66.88000 351.398
66.92000 353.217
66.96000 364.786
67.00000 386.424
67.04000 373.353
67.08000 385.471
67.12000 405.403
67.16000 411.181
67.20000 407.099
67.24000 406.888
67.28000 410.394
67.32000 416.970
67.36000 441.145
67.40000 452.615
67.44000 464.411
67.48000 467.731
67.52000 466.019
67.56000 471.329
67.60000 477.040
67.64000 484.082
67.68000 507.364
67.72000 484.742
67.76000 532.714
67.80000 538.035
67.84000 551.088
67.88000 584.303
67.92000 544.411
67.96000 580.892
68.00000 592.635
68.04000 593.597
68.08000 609.126
68.12000 641.800
68.16000 650.712
68.20000 662.568
68.24000 682.802
68.28000 706.733
68.32000 730.317
68.36000 721.973
68.40000 775.356
68.44000 788.251
68.48000 858.502
68.52000 931.017
68.56000 989.875
68.60000 1116.521
68.64000 1300.497
68.68000 1551.510
68.72000 1867.703
68.76000 2137.730
68.80000 2476.034
68.84000 2794.709
68.88000 3434.676
68.92000 6112.146
68.96000 13827.107
69.00000 33943.570
69.04000 59897.098
69.08000 78003.172
69.12000 83539.086
69.16000 86085.656
69.20000 87505.250
69.24000 78228.883
69.28000 62994.297
69.32000 49760.590
69.36000 43075.359
69.40000 36644.918
69.44000 25072.016
69.48000 13351.462
69.52000 5885.184
69.56000 3043.822
69.60000 2072.540
69.64000 1706.121
69.68000 1401.701
69.72000 1279.540
69.76000 1139.160
69.80000 1107.373
69.84000 985.885
69.88000 916.884
69.92000 884.899
69.96000 853.360
70.00000 821.075