File: XRD/XRD/30-09-2025 Dep 1/XY Data/BTO_Mapping_Theta2Theta_30-09-2025_001_56_20-074_-22-294.xy
20.00000 559.309
20.04000 588.303
20.08000 585.753
20.12000 567.503
20.16000 562.204
20.20000 581.432
20.24000 589.554
20.28000 583.871
20.32000 574.940
20.36000 576.413
20.40000 565.348
20.44000 539.004
20.48000 558.012
20.52000 552.257
20.56000 568.708
20.60000 544.286
20.64000 572.990
20.68000 571.646
20.72000 549.641
20.76000 570.845
20.80000 569.317
20.84000 554.027
20.88000 583.491
20.92000 550.108
20.96000 558.526
21.00000 576.923
21.04000 580.760
21.08000 581.430
21.12000 563.776
21.16000 568.099
21.20000 557.948
21.24000 541.666
21.28000 555.587
21.32000 558.861
21.36000 568.635
21.40000 579.173
21.44000 559.636
21.48000 583.276
21.52000 566.430
21.56000 585.852
21.60000 607.687
21.64000 624.323
21.68000 637.889
21.72000 684.246
21.76000 762.531
21.80000 846.183
21.84000 930.307
21.88000 945.580
21.92000 1039.208
21.96000 1064.386
22.00000 1057.850
22.04000 997.041
22.08000 899.453
22.12000 817.747
22.16000 730.130
22.20000 691.875
22.24000 607.645
22.28000 590.237
22.32000 588.569
22.36000 595.252
22.40000 555.052
22.44000 554.020
22.48000 563.526
22.52000 541.961
22.56000 562.687
22.60000 541.507
22.64000 558.765
22.68000 527.045
22.72000 524.689
22.76000 548.589
22.80000 531.141
22.84000 514.370
22.88000 536.396
22.92000 528.242
22.96000 510.106
23.00000 529.474
23.04000 525.889
23.08000 514.544
23.12000 516.409
23.16000 507.446
23.20000 545.239
23.24000 518.706
23.28000 524.745
23.32000 535.822
23.36000 515.011
23.40000 515.470
23.44000 508.810
23.48000 524.001
23.52000 502.766
23.56000 522.228
23.60000 515.911
23.64000 521.203
23.68000 516.931
23.72000 524.429
23.76000 508.386
23.80000 499.561
23.84000 503.977
23.88000 512.171
23.92000 510.792
23.96000 500.332
24.00000 502.389
24.04000 501.505
24.08000 498.359
24.12000 494.293
24.16000 503.957
24.20000 507.840
24.24000 524.063
24.28000 511.410
24.32000 496.342
24.36000 500.001
24.40000 502.331
24.44000 497.750
24.48000 508.909
24.52000 515.902
24.56000 504.276
24.60000 498.535
24.64000 492.905
24.68000 501.816
24.72000 499.613
24.76000 497.735
24.80000 482.102
24.84000 492.983
24.88000 498.179
24.92000 494.863
24.96000 465.684
25.00000 472.389
25.04000 503.635
25.08000 478.742
25.12000 500.019
25.16000 500.035
25.20000 482.690
25.24000 482.153
25.28000 498.436
25.32000 491.138
25.36000 494.208
25.40000 481.736
25.44000 468.513
25.48000 482.981
25.52000 493.847
25.56000 477.137
25.60000 469.272
25.64000 473.564
25.68000 469.154
25.72000 478.289
25.76000 485.814
25.80000 484.726
25.84000 475.972
25.88000 487.370
25.92000 481.697
25.96000 464.848
26.00000 480.578
26.04000 472.783
26.08000 479.650
26.12000 467.993
26.16000 468.429
26.20000 480.045
26.24000 481.899
26.28000 483.975
26.32000 470.087
26.36000 471.351
26.40000 447.853
26.44000 469.660
26.48000 475.408
26.52000 471.740
26.56000 472.515
26.60000 468.679
26.64000 473.517
26.68000 466.124
26.72000 463.016
26.76000 466.777
26.80000 453.336
26.84000 454.090
26.88000 466.479
26.92000 457.164
26.96000 481.846
27.00000 476.330
27.04000 448.838
27.08000 460.162
27.12000 455.911
27.16000 458.599
27.20000 464.268
27.24000 454.127
27.28000 461.770
27.32000 450.050
27.36000 459.834
27.40000 453.876
27.44000 466.822
27.48000 472.845
27.52000 466.355
27.56000 465.956
27.60000 462.072
27.64000 458.045
27.68000 447.984
27.72000 462.455
27.76000 443.851
27.80000 448.767
27.84000 449.139
27.88000 443.684
27.92000 449.317
27.96000 445.134
28.00000 448.931
28.04000 448.004
28.08000 461.648
28.12000 456.101
28.16000 446.962
28.20000 463.810
28.24000 453.711
28.28000 431.086
28.32000 444.893
28.36000 451.204
28.40000 450.529
28.44000 439.531
28.48000 438.395
28.52000 442.100
28.56000 444.752
28.60000 454.643
28.64000 446.601
28.68000 437.729
28.72000 420.417
28.76000 442.179
28.80000 446.409
28.84000 450.089
28.88000 438.850
28.92000 437.003
28.96000 441.941
29.00000 445.909
29.04000 440.686
29.08000 440.843
29.12000 441.347
29.16000 446.868
29.20000 454.011
29.24000 435.479
29.28000 432.448
29.32000 430.282
29.36000 423.945
29.40000 442.699
29.44000 445.018
29.48000 436.041
29.52000 428.854
29.56000 435.761
29.60000 451.621
29.64000 430.627
29.68000 435.954
29.72000 445.654
29.76000 471.418
29.80000 476.671
29.84000 492.089
29.88000 480.694
29.92000 482.077
29.96000 462.979
30.00000 484.296
30.04000 466.211
30.08000 455.626
30.12000 462.150
30.16000 467.322
30.20000 456.036
30.24000 458.719
30.28000 454.339
30.32000 448.386
30.36000 467.386
30.40000 458.187
30.44000 468.387
30.48000 456.181
30.52000 450.800
30.56000 465.658
30.60000 458.774
30.64000 476.269
30.68000 470.335
30.72000 476.910
30.76000 507.873
30.80000 522.263
30.84000 529.744
30.88000 572.260
30.92000 657.587
30.96000 758.189
31.00000 1015.656
31.04000 1385.713
31.08000 1888.980
31.12000 2497.019
31.16000 3195.256
31.20000 3842.366
31.24000 4188.715
31.28000 4226.145
31.32000 4069.395
31.36000 3575.897
31.40000 2902.753
31.44000 2185.457
31.48000 1571.699
31.52000 1155.087
31.56000 861.406
31.60000 690.914
31.64000 604.203
31.68000 549.470
31.72000 509.712
31.76000 492.797
31.80000 479.072
31.84000 480.639
31.88000 451.034
31.92000 452.248
31.96000 446.717
32.00000 429.770
32.04000 423.037
32.08000 391.505
32.12000 434.733
32.16000 406.690
32.20000 431.916
32.24000 410.927
32.28000 413.848
32.32000 422.070
32.36000 407.957
32.40000 395.591
32.44000 391.193
32.48000 385.860
32.52000 415.834
32.56000 401.750
32.60000 382.784
32.64000 374.575
32.68000 399.593
32.72000 381.513
32.76000 383.723
32.80000 396.955
32.84000 398.714
32.88000 445.484
32.92000 465.686
32.96000 496.410
33.00000 501.229
33.04000 491.400
33.08000 453.811
33.12000 431.736
33.16000 408.176
33.20000 381.297
33.24000 371.621
33.28000 374.190
33.32000 370.352
33.36000 357.360
33.40000 374.902
33.44000 365.548
33.48000 350.578
33.52000 365.362
33.56000 354.059
33.60000 347.525
33.64000 363.199
33.68000 359.647
33.72000 343.784
33.76000 342.717
33.80000 357.215
33.84000 339.145
33.88000 353.322
33.92000 342.449
33.96000 333.627
34.00000 343.103
34.04000 349.084
34.08000 350.072
34.12000 329.290
34.16000 348.165
34.20000 336.397
34.24000 348.233
34.28000 350.003
34.32000 339.204
34.36000 344.967
34.40000 341.672
34.44000 339.496
34.48000 343.832
34.52000 334.190
34.56000 336.302
34.60000 319.980
34.64000 335.907
34.68000 327.154
34.72000 350.982
34.76000 337.640
34.80000 334.339
34.84000 332.291
34.88000 341.068
34.92000 335.539
34.96000 325.858
35.00000 326.047
35.04000 328.504
35.08000 311.536
35.12000 315.289
35.16000 328.776
35.20000 341.358
35.24000 322.712
35.28000 324.432
35.32000 328.074
35.36000 335.811
35.40000 323.575
35.44000 325.482
35.48000 317.980
35.52000 313.972
35.56000 328.180
35.60000 327.697
35.64000 313.690
35.68000 310.785
35.72000 335.542
35.76000 315.795
35.80000 300.388
35.84000 321.519
35.88000 312.234
35.92000 295.095
35.96000 326.686
36.00000 324.067
36.04000 317.998
36.08000 323.435
36.12000 317.375
36.16000 323.695
36.20000 292.954
36.24000 311.466
36.28000 305.140
36.32000 304.778
36.36000 320.333
36.40000 308.196
36.44000 304.047
36.48000 316.935
36.52000 304.173
36.56000 302.410
36.60000 315.567
36.64000 298.264
36.68000 300.465
36.72000 307.994
36.76000 296.546
36.80000 289.971
36.84000 321.169
36.88000 309.269
36.92000 313.680
36.96000 309.393
37.00000 298.309
37.04000 298.516
37.08000 315.877
37.12000 308.060
37.16000 307.670
37.20000 300.329
37.24000 308.111
37.28000 316.480
37.32000 294.416
37.36000 294.596
37.40000 306.237
37.44000 312.737
37.48000 326.924
37.52000 306.857
37.56000 289.555
37.60000 296.801
37.64000 309.652
37.68000 319.859
37.72000 283.382
37.76000 317.219
37.80000 297.425
37.84000 293.632
37.88000 295.746
37.92000 304.973
37.96000 302.234
38.00000 313.070
38.04000 301.448
38.08000 305.403
38.12000 309.130
38.16000 308.753
38.20000 295.217
38.24000 315.043
38.28000 329.978
38.32000 355.019
38.36000 363.266
38.40000 398.855
38.44000 437.019
38.48000 470.151
38.52000 482.896
38.56000 515.388
38.60000 510.139
38.64000 510.156
38.68000 480.499
38.72000 466.821
38.76000 433.480
38.80000 390.636
38.84000 364.616
38.88000 332.037
38.92000 307.046
38.96000 287.410
39.00000 300.050
39.04000 290.507
39.08000 290.099
39.12000 280.623
39.16000 273.821
39.20000 294.235
39.24000 285.483
39.28000 278.571
39.32000 284.326
39.36000 288.733
39.40000 275.353
39.44000 275.456
39.48000 280.561
39.52000 278.640
39.56000 282.353
39.60000 285.752
39.64000 274.773
39.68000 271.979
39.72000 266.066
39.76000 272.630
39.80000 272.466
39.84000 261.051
39.88000 274.562
39.92000 276.451
39.96000 278.622
40.00000 277.633
40.04000 282.620
40.08000 277.762
40.12000 259.424
40.16000 264.372
40.20000 276.134
40.24000 261.522
40.28000 271.033
40.32000 266.489
40.36000 272.437
40.40000 255.868
40.44000 259.643
40.48000 268.169
40.52000 262.770
40.56000 256.037
40.60000 253.200
40.64000 270.327
40.68000 262.793
40.72000 255.752
40.76000 255.171
40.80000 257.153
40.84000 252.841
40.88000 265.361
40.92000 249.015
40.96000 261.157
41.00000 256.135
41.04000 252.376
41.08000 237.831
41.12000 253.451
41.16000 260.188
41.20000 254.286
41.24000 254.596
41.28000 259.305
41.32000 268.272
41.36000 259.348
41.40000 257.384
41.44000 241.167
41.48000 257.039
41.52000 252.541
41.56000 248.323
41.60000 249.125
41.64000 244.556
41.68000 229.786
41.72000 247.131
41.76000 259.051
41.80000 243.269
41.84000 246.274
41.88000 246.584
41.92000 250.763
41.96000 255.645
42.00000 248.315
42.04000 242.559
42.08000 247.507
42.12000 240.179
42.16000 240.731
42.20000 242.566
42.24000 233.849
42.28000 238.177
42.32000 226.924
42.36000 247.635
42.40000 227.926
42.44000 231.818
42.48000 242.202
42.52000 250.869
42.56000 237.481
42.60000 240.820
42.64000 229.633
42.68000 242.877
42.72000 239.432
42.76000 246.699
42.80000 251.332
42.84000 240.231
42.88000 252.257
42.92000 239.868
42.96000 246.601
43.00000 247.111
43.04000 239.397
43.08000 248.922
43.12000 229.257
43.16000 238.467
43.20000 230.022
43.24000 236.247
43.28000 225.200
43.32000 234.483
43.36000 242.786
43.40000 219.468
43.44000 220.679
43.48000 230.573
43.52000 227.470
43.56000 241.805
43.60000 217.972
43.64000 232.070
43.68000 235.698
43.72000 237.587
43.76000 237.993
43.80000 221.098
43.84000 231.651
43.88000 238.430
43.92000 238.595
43.96000 237.508
44.00000 246.756
44.04000 232.749
44.08000 244.001
44.12000 254.976
44.16000 221.877
44.20000 235.101
44.24000 246.067
44.28000 243.508
44.32000 249.246
44.36000 255.201
44.40000 257.613
44.44000 258.014
44.48000 268.405
44.52000 284.272
44.56000 300.575
44.60000 337.911
44.64000 362.925
44.68000 420.593
44.72000 463.802
44.76000 531.423
44.80000 563.251
44.84000 620.820
44.88000 651.519
44.92000 681.559
44.96000 656.518
45.00000 605.392
45.04000 553.941
45.08000 495.990
45.12000 458.922
45.16000 407.336
45.20000 375.017
45.24000 351.711
45.28000 319.478
45.32000 283.919
45.36000 278.110
45.40000 262.010
45.44000 241.658
45.48000 241.556
45.52000 252.248
45.56000 232.872
45.60000 227.513
45.64000 229.444
45.68000 226.530
45.72000 226.376
45.76000 227.027
45.80000 219.492
45.84000 217.987
45.88000 217.724
45.92000 212.615
45.96000 219.661
46.00000 208.609
46.04000 214.355
46.08000 217.508
46.12000 218.542
46.16000 219.658
46.20000 215.111
46.24000 223.926
46.28000 217.746
46.32000 207.490
46.36000 209.619
46.40000 217.872
46.44000 210.847
46.48000 202.067
46.52000 207.661
46.56000 215.858
46.60000 220.550
46.64000 203.517
46.68000 197.617
46.72000 209.764
46.76000 201.640
46.80000 197.445
46.84000 214.985
46.88000 190.136
46.92000 200.815
46.96000 207.823
47.00000 190.305
47.04000 193.451
47.08000 202.730
47.12000 211.868
47.16000 197.023
47.20000 203.157
47.24000 192.280
47.28000 200.297
47.32000 207.690
47.36000 190.622
47.40000 191.281
47.44000 189.152
47.48000 196.254
47.52000 191.036
47.56000 201.243
47.60000 191.070
47.64000 192.515
47.68000 196.717
47.72000 196.283
47.76000 211.000
47.80000 194.228
47.84000 181.586
47.88000 205.964
47.92000 193.892
47.96000 193.135
48.00000 185.489
48.04000 191.196
48.08000 190.837
48.12000 205.513
48.16000 193.279
48.20000 197.006
48.24000 186.406
48.28000 193.728
48.32000 183.627
48.36000 182.079
48.40000 187.675
48.44000 191.977
48.48000 174.842
48.52000 194.533
48.56000 196.895
48.60000 186.845
48.64000 190.719
48.68000 194.686
48.72000 185.491
48.76000 179.548
48.80000 197.683
48.84000 187.780
48.88000 187.962
48.92000 192.730
48.96000 183.958
49.00000 194.152
49.04000 185.011
49.08000 172.618
49.12000 180.172
49.16000 185.206
49.20000 195.997
49.24000 178.805
49.28000 193.111
49.32000 180.103
49.36000 176.631
49.40000 180.839
49.44000 175.574
49.48000 184.264
49.52000 171.479
49.56000 176.755
49.60000 178.301
49.64000 185.092
49.68000 185.902
49.72000 177.513
49.76000 184.162
49.80000 167.805
49.84000 197.374
49.88000 184.681
49.92000 187.405
49.96000 180.495
50.00000 191.917
50.04000 192.702
50.08000 198.182
50.12000 192.897
50.16000 193.514
50.20000 201.313
50.24000 192.795
50.28000 206.231
50.32000 219.897
50.36000 236.651
50.40000 271.724
50.44000 280.074
50.48000 289.593
50.52000 300.381
50.56000 285.973
50.60000 295.540
50.64000 286.425
50.68000 286.594
50.72000 261.104
50.76000 242.497
50.80000 228.106
50.84000 202.349
50.88000 211.882
50.92000 200.856
50.96000 190.064
51.00000 194.906
51.04000 178.489
51.08000 191.941
51.12000 182.805
51.16000 176.025
51.20000 175.567
51.24000 186.499
51.28000 171.361
51.32000 173.296
51.36000 175.467
51.40000 165.877
51.44000 163.928
51.48000 175.407
51.52000 160.039
51.56000 173.048
51.60000 173.127
51.64000 170.126
51.68000 168.498
51.72000 173.541
51.76000 175.065
51.80000 171.524
51.84000 168.998
51.88000 172.392
51.92000 166.865
51.96000 185.158
52.00000 163.803
52.04000 171.656
52.08000 155.438
52.12000 169.212
52.16000 174.405
52.20000 168.467
52.24000 170.441
52.28000 167.984
52.32000 157.463
52.36000 173.347
52.40000 167.689
52.44000 160.851
52.48000 166.345
52.52000 167.179
52.56000 160.112
52.60000 156.131
52.64000 171.856
52.68000 158.045
52.72000 157.066
52.76000 163.807
52.80000 158.478
52.84000 164.388
52.88000 168.884
52.92000 171.800
52.96000 151.608
53.00000 159.726
53.04000 156.440
53.08000 166.307
53.12000 161.892
53.16000 167.200
53.20000 162.989
53.24000 166.606
53.28000 161.693
53.32000 164.831
53.36000 160.047
53.40000 152.519
53.44000 153.326
53.48000 161.966
53.52000 160.626
53.56000 165.904
53.60000 171.322
53.64000 159.741
53.68000 165.048
53.72000 166.965
53.76000 169.023
53.80000 163.387
53.84000 168.210
53.88000 150.630
53.92000 154.474
53.96000 164.490
54.00000 154.921
54.04000 154.050
54.08000 155.088
54.12000 158.012
54.16000 159.032
54.20000 161.627
54.24000 159.260
54.28000 159.482
54.32000 160.839
54.36000 154.432
54.40000 169.091
54.44000 166.594
54.48000 155.403
54.52000 163.935
54.56000 163.664
54.60000 172.795
54.64000 158.247
54.68000 152.041
54.72000 159.732
54.76000 156.893
54.80000 162.992
54.84000 158.739
54.88000 162.064
54.92000 167.003
54.96000 166.626
55.00000 158.688
55.04000 167.677
55.08000 171.647
55.12000 172.717
55.16000 166.287
55.20000 192.340
55.24000 177.985
55.28000 183.224
55.32000 199.551
55.36000 223.965
55.40000 252.583
55.44000 266.232
55.48000 301.647
55.52000 348.404
55.56000 395.497
55.60000 467.156
55.64000 515.325
55.68000 559.875
55.72000 590.796
55.76000 591.011
55.80000 591.866
55.84000 565.123
55.88000 531.351
55.92000 465.056
55.96000 406.286
56.00000 357.295
56.04000 335.329
56.08000 282.446
56.12000 242.168
56.16000 229.072
56.20000 215.585
56.24000 191.712
56.28000 193.845
56.32000 180.078
56.36000 183.423
56.40000 176.650
56.44000 177.100
56.48000 160.886
56.52000 166.481
56.56000 166.498
56.60000 164.819
56.64000 153.606
56.68000 165.696
56.72000 167.502
56.76000 162.857
56.80000 163.145
56.84000 155.476
56.88000 153.924
56.92000 152.580
56.96000 152.565
57.00000 153.945
57.04000 151.877
57.08000 144.293
57.12000 150.227
57.16000 149.048
57.20000 148.128
57.24000 158.880
57.28000 145.461
57.32000 142.314
57.36000 148.543
57.40000 150.013
57.44000 144.498
57.48000 145.897
57.52000 158.866
57.56000 147.863
57.60000 150.960
57.64000 147.489
57.68000 147.371
57.72000 140.462
57.76000 146.995
57.80000 154.771
57.84000 148.107
57.88000 143.640
57.92000 148.315
57.96000 153.905
58.00000 143.758
58.04000 149.112
58.08000 152.742
58.12000 153.253
58.16000 139.374
58.20000 145.447
58.24000 140.184
58.28000 147.355
58.32000 144.090
58.36000 143.540
58.40000 138.037
58.44000 146.154
58.48000 149.520
58.52000 134.024
58.56000 133.451
58.60000 136.344
58.64000 149.011
58.68000 138.445
58.72000 136.504
58.76000 131.185
58.80000 138.516
58.84000 148.693
58.88000 143.827
58.92000 138.368
58.96000 137.073
59.00000 125.372
59.04000 139.894
59.08000 136.966
59.12000 127.826
59.16000 140.347
59.20000 138.382
59.24000 131.330
59.28000 131.375
59.32000 142.094
59.36000 139.655
59.40000 144.896
59.44000 147.294
59.48000 147.306
59.52000 140.951
59.56000 133.147
59.60000 135.480
59.64000 133.952
59.68000 134.239
59.72000 129.299
59.76000 144.255
59.80000 139.717
59.84000 137.096
59.88000 125.907
59.92000 131.613
59.96000 125.561
60.00000 141.603
60.04000 124.821
60.08000 141.948
60.12000 132.658
60.16000 136.126
60.20000 138.289
60.24000 136.057
60.28000 143.793
60.32000 129.510
60.36000 143.295
60.40000 134.337
60.44000 141.444
60.48000 124.306
60.52000 134.053
60.56000 136.434
60.60000 144.806
60.64000 135.623
60.68000 134.727
60.72000 142.393
60.76000 138.251
60.80000 134.951
60.84000 134.428
60.88000 128.881
60.92000 133.326
60.96000 127.068
61.00000 136.615
61.04000 141.938
61.08000 142.825
61.12000 139.398
61.16000 139.358
61.20000 139.651
61.24000 142.703
61.28000 138.166
61.32000 144.706
61.36000 141.940
61.40000 141.450
61.44000 158.867
61.48000 166.450
61.52000 176.782
61.56000 250.747
61.60000 297.241
61.64000 333.239
61.68000 354.298
61.72000 324.429
61.76000 309.888
61.80000 241.465
61.84000 200.334
61.88000 168.854
61.92000 163.194
61.96000 148.756
62.00000 147.804
62.04000 139.789
62.08000 150.203
62.12000 154.749
62.16000 147.018
62.20000 142.896
62.24000 150.162
62.28000 143.392
62.32000 152.418
62.36000 150.107
62.40000 139.475
62.44000 148.766
62.48000 147.041
62.52000 148.635
62.56000 147.029
62.60000 143.365
62.64000 152.630
62.68000 156.159
62.72000 149.210
62.76000 144.820
62.80000 149.808
62.84000 159.155
62.88000 152.528
62.92000 136.324
62.96000 141.580
63.00000 148.912
63.04000 143.710
63.08000 142.821
63.12000 146.612
63.16000 156.011
63.20000 158.855
63.24000 162.021
63.28000 148.121
63.32000 149.640
63.36000 152.129
63.40000 150.790
63.44000 140.835
63.48000 149.411
63.52000 148.507
63.56000 157.353
63.60000 152.266
63.64000 156.005
63.68000 155.229
63.72000 167.304
63.76000 149.425
63.80000 162.229
63.84000 158.302
63.88000 160.584
63.92000 161.064
63.96000 163.260
64.00000 162.201
64.04000 170.670
64.08000 163.170
64.12000 154.445
64.16000 159.690
64.20000 163.416
64.24000 169.193
64.28000 163.405
64.32000 178.291
64.36000 164.694
64.40000 165.649
64.44000 163.869
64.48000 179.467
64.52000 171.493
64.56000 184.344
64.60000 180.639
64.64000 178.797
64.68000 177.832
64.72000 177.352
64.76000 192.380
64.80000 192.152
64.84000 202.120
64.88000 203.246
64.92000 205.253
64.96000 231.810
65.00000 240.472
65.04000 251.148
65.08000 270.772
65.12000 316.684
65.16000 338.127
65.20000 371.977
65.24000 408.728
65.28000 420.982
65.32000 427.667
65.36000 436.610
65.40000 431.748
65.44000 435.213
65.48000 416.925
65.52000 394.091
65.56000 387.171
65.60000 399.853
65.64000 449.121
65.68000 517.160
65.72000 745.788
65.76000 1011.810
65.80000 1232.212
65.84000 1348.120
65.88000 1405.564
65.92000 1315.836
65.96000 1071.023
66.00000 744.371
66.04000 506.025
66.08000 393.717
66.12000 338.129
66.16000 306.807
66.20000 336.778
66.24000 350.759
66.28000 421.804
66.32000 462.807
66.36000 497.617
66.40000 512.506
66.44000 535.603
66.48000 533.609
66.52000 460.766
66.56000 408.853
66.60000 349.030
66.64000 333.731
66.68000 343.338
66.72000 340.023
66.76000 339.348
66.80000 374.817
66.84000 355.247
66.88000 348.031
66.92000 381.594
66.96000 379.903
67.00000 379.108
67.04000 390.817
67.08000 396.652
67.12000 390.945
67.16000 405.649
67.20000 411.409
67.24000 421.205
67.28000 425.142
67.32000 428.593
67.36000 446.341
67.40000 441.428
67.44000 450.602
67.48000 454.388
67.52000 462.043
67.56000 472.492
67.60000 489.817
67.64000 495.856
67.68000 504.528
67.72000 503.151
67.76000 504.482
67.80000 541.688
67.84000 533.440
67.88000 555.009
67.92000 557.002
67.96000 593.240
68.00000 595.936
68.04000 623.104
68.08000 625.075
68.12000 628.041
68.16000 661.050
68.20000 679.295
68.24000 721.547
68.28000 720.796
68.32000 749.366
68.36000 752.885
68.40000 800.670
68.44000 857.675
68.48000 877.181
68.52000 956.765
68.56000 1061.193
68.60000 1198.757
68.64000 1433.897
68.68000 1692.530
68.72000 2000.100
68.76000 2290.788
68.80000 2590.105
68.84000 3129.505
68.88000 4121.000
68.92000 9491.166
68.96000 22871.801
69.00000 48205.105
69.04000 70877.289
69.08000 81821.578
69.12000 84674.555
69.16000 87480.617
69.20000 84178.438
69.24000 69111.039
69.28000 53848.773
69.32000 45131.738
69.36000 39831.258
69.40000 30978.414
69.44000 18022.648
69.48000 8422.181
69.52000 3927.801
69.56000 2391.668
69.60000 1834.273
69.64000 1547.174
69.68000 1328.158
69.72000 1241.244
69.76000 1117.287
69.80000 987.820
69.84000 953.391
69.88000 896.463
69.92000 856.491
69.96000 810.473
70.00000 773.974