File: XRD/XRD/30-09-2025 Dep 1/XY Data/BTO_Mapping_Theta2Theta_30-09-2025_001_23_-10-000_17-321.xy
20.00000 574.312
20.04000 574.400
20.08000 563.338
20.12000 556.093
20.16000 545.443
20.20000 549.108
20.24000 593.293
20.28000 566.847
20.32000 545.888
20.36000 573.685
20.40000 563.172
20.44000 555.915
20.48000 564.204
20.52000 544.154
20.56000 562.101
20.60000 550.110
20.64000 555.245
20.68000 562.956
20.72000 558.538
20.76000 557.376
20.80000 548.289
20.84000 567.510
20.88000 556.188
20.92000 543.739
20.96000 552.707
21.00000 552.048
21.04000 564.642
21.08000 544.407
21.12000 544.905
21.16000 558.848
21.20000 540.369
21.24000 546.778
21.28000 555.590
21.32000 537.002
21.36000 527.046
21.40000 544.128
21.44000 540.263
21.48000 550.858
21.52000 542.659
21.56000 540.011
21.60000 544.336
21.64000 540.738
21.68000 530.071
21.72000 561.853
21.76000 559.354
21.80000 573.827
21.84000 550.412
21.88000 599.406
21.92000 620.772
21.96000 619.134
22.00000 640.460
22.04000 649.063
22.08000 629.446
22.12000 646.520
22.16000 619.278
22.20000 613.028
22.24000 587.586
22.28000 562.372
22.32000 579.822
22.36000 562.720
22.40000 565.171
22.44000 546.338
22.48000 550.209
22.52000 548.380
22.56000 546.725
22.60000 503.930
22.64000 511.295
22.68000 537.114
22.72000 514.952
22.76000 524.188
22.80000 525.157
22.84000 531.085
22.88000 524.045
22.92000 535.730
22.96000 525.195
23.00000 520.296
23.04000 528.791
23.08000 522.469
23.12000 508.785
23.16000 504.863
23.20000 505.982
23.24000 494.321
23.28000 531.030
23.32000 496.284
23.36000 519.422
23.40000 533.598
23.44000 500.120
23.48000 515.309
23.52000 507.388
23.56000 503.193
23.60000 486.718
23.64000 518.279
23.68000 522.255
23.72000 518.407
23.76000 516.852
23.80000 515.322
23.84000 524.116
23.88000 507.481
23.92000 526.988
23.96000 532.670
24.00000 552.487
24.04000 547.072
24.08000 528.174
24.12000 527.257
24.16000 516.031
24.20000 507.187
24.24000 504.541
24.28000 511.566
24.32000 520.834
24.36000 493.363
24.40000 479.080
24.44000 487.884
24.48000 496.699
24.52000 491.199
24.56000 490.581
24.60000 485.652
24.64000 475.068
24.68000 484.772
24.72000 484.467
24.76000 480.218
24.80000 479.588
24.84000 472.782
24.88000 469.141
24.92000 482.536
24.96000 481.917
25.00000 468.131
25.04000 475.572
25.08000 475.209
25.12000 476.436
25.16000 486.888
25.20000 487.597
25.24000 469.726
25.28000 474.768
25.32000 469.496
25.36000 472.719
25.40000 475.544
25.44000 463.474
25.48000 457.275
25.52000 465.236
25.56000 473.292
25.60000 472.385
25.64000 467.483
25.68000 466.003
25.72000 458.808
25.76000 469.959
25.80000 458.005
25.84000 468.105
25.88000 465.987
25.92000 470.160
25.96000 464.410
26.00000 454.607
26.04000 453.424
26.08000 453.220
26.12000 476.944
26.16000 452.461
26.20000 444.338
26.24000 455.678
26.28000 466.374
26.32000 447.041
26.36000 445.516
26.40000 432.768
26.44000 455.877
26.48000 448.282
26.52000 437.234
26.56000 461.078
26.60000 447.473
26.64000 447.938
26.68000 444.521
26.72000 463.490
26.76000 446.721
26.80000 451.803
26.84000 459.343
26.88000 466.397
26.92000 442.880
26.96000 448.659
27.00000 447.005
27.04000 443.537
27.08000 436.281
27.12000 446.121
27.16000 447.176
27.20000 427.683
27.24000 461.049
27.28000 448.207
27.32000 447.474
27.36000 451.893
27.40000 431.313
27.44000 434.530
27.48000 437.750
27.52000 430.087
27.56000 456.755
27.60000 450.424
27.64000 448.484
27.68000 462.222
27.72000 444.496
27.76000 457.295
27.80000 433.094
27.84000 436.275
27.88000 435.684
27.92000 433.135
27.96000 452.235
28.00000 414.737
28.04000 418.347
28.08000 440.143
28.12000 433.145
28.16000 423.187
28.20000 436.967
28.24000 428.516
28.28000 413.997
28.32000 437.482
28.36000 429.826
28.40000 422.031
28.44000 420.202
28.48000 429.533
28.52000 430.155
28.56000 412.458
28.60000 408.010
28.64000 417.300
28.68000 396.126
28.72000 414.230
28.76000 424.194
28.80000 447.714
28.84000 427.351
28.88000 408.300
28.92000 429.041
28.96000 420.132
29.00000 405.188
29.04000 415.995
29.08000 424.122
29.12000 405.413
29.16000 405.328
29.20000 422.260
29.24000 419.576
29.28000 400.926
29.32000 427.267
29.36000 419.497
29.40000 413.036
29.44000 419.744
29.48000 427.519
29.52000 423.359
29.56000 426.994
29.60000 422.105
29.64000 411.888
29.68000 411.833
29.72000 426.311
29.76000 419.710
29.80000 420.441
29.84000 400.027
29.88000 434.834
29.92000 422.488
29.96000 424.856
30.00000 449.847
30.04000 434.630
30.08000 429.451
30.12000 424.205
30.16000 431.983
30.20000 434.585
30.24000 426.688
30.28000 418.161
30.32000 427.944
30.36000 422.118
30.40000 435.630
30.44000 415.885
30.48000 406.941
30.52000 405.999
30.56000 403.233
30.60000 426.841
30.64000 416.913
30.68000 428.111
30.72000 419.158
30.76000 439.172
30.80000 441.306
30.84000 451.756
30.88000 437.972
30.92000 466.439
30.96000 483.410
31.00000 513.715
31.04000 555.542
31.08000 617.407
31.12000 724.697
31.16000 925.096
31.20000 1227.681
31.24000 1559.216
31.28000 2017.780
31.32000 2376.229
31.36000 2695.461
31.40000 2850.191
31.44000 2736.027
31.48000 2473.942
31.52000 2109.584
31.56000 1633.851
31.60000 1230.896
31.64000 912.854
31.68000 741.217
31.72000 594.914
31.76000 524.751
31.80000 487.023
31.84000 459.176
31.88000 422.308
31.92000 417.363
31.96000 416.294
32.00000 405.227
32.04000 426.658
32.08000 407.061
32.12000 414.556
32.16000 400.400
32.20000 402.863
32.24000 386.925
32.28000 394.441
32.32000 396.348
32.36000 396.173
32.40000 399.600
32.44000 377.284
32.48000 383.807
32.52000 379.870
32.56000 385.738
32.60000 390.799
32.64000 387.238
32.68000 363.169
32.72000 362.039
32.76000 370.108
32.80000 366.951
32.84000 373.272
32.88000 367.449
32.92000 369.038
32.96000 414.656
33.00000 384.453
33.04000 379.493
33.08000 380.038
33.12000 368.381
33.16000 383.101
33.20000 357.288
33.24000 346.988
33.28000 336.815
33.32000 339.734
33.36000 345.194
33.40000 347.363
33.44000 355.987
33.48000 350.333
33.52000 360.474
33.56000 369.815
33.60000 327.533
33.64000 335.202
33.68000 334.886
33.72000 337.549
33.76000 322.770
33.80000 342.837
33.84000 340.625
33.88000 332.728
33.92000 337.103
33.96000 340.374
34.00000 360.084
34.04000 354.955
34.08000 339.619
34.12000 346.116
34.16000 347.332
34.20000 343.173
34.24000 352.191
34.28000 353.625
34.32000 357.989
34.36000 337.556
34.40000 344.326
34.44000 358.979
34.48000 356.000
34.52000 339.592
34.56000 355.554
34.60000 351.399
34.64000 362.308
34.68000 348.495
34.72000 340.537
34.76000 352.131
34.80000 348.710
34.84000 336.461
34.88000 330.576
34.92000 323.504
34.96000 331.407
35.00000 323.559
35.04000 327.526
35.08000 317.642
35.12000 334.131
35.16000 310.456
35.20000 321.867
35.24000 318.672
35.28000 318.835
35.32000 304.747
35.36000 318.863
35.40000 316.631
35.44000 318.302
35.48000 317.668
35.52000 315.126
35.56000 319.815
35.60000 313.225
35.64000 286.792
35.68000 330.773
35.72000 308.764
35.76000 317.974
35.80000 313.882
35.84000 310.521
35.88000 304.463
35.92000 297.300
35.96000 322.992
36.00000 305.892
36.04000 291.494
36.08000 307.000
36.12000 299.200
36.16000 287.748
36.20000 304.777
36.24000 307.301
36.28000 307.715
36.32000 294.220
36.36000 297.696
36.40000 306.439
36.44000 316.622
36.48000 300.206
36.52000 304.010
36.56000 297.451
36.60000 291.053
36.64000 298.342
36.68000 304.935
36.72000 294.127
36.76000 315.566
36.80000 301.043
36.84000 297.850
36.88000 292.731
36.92000 295.431
36.96000 301.582
37.00000 313.556
37.04000 308.127
37.08000 303.924
37.12000 302.836
37.16000 285.223
37.20000 290.097
37.24000 292.299
37.28000 293.262
37.32000 292.524
37.36000 306.489
37.40000 318.830
37.44000 290.967
37.48000 273.885
37.52000 296.183
37.56000 295.861
37.60000 298.292
37.64000 301.011
37.68000 284.836
37.72000 289.398
37.76000 293.505
37.80000 301.868
37.84000 290.584
37.88000 288.511
37.92000 295.151
37.96000 299.682
38.00000 307.849
38.04000 299.436
38.08000 306.100
38.12000 285.758
38.16000 304.244
38.20000 314.336
38.24000 324.321
38.28000 323.355
38.32000 333.204
38.36000 338.994
38.40000 359.975
38.44000 384.882
38.48000 414.999
38.52000 487.468
38.56000 629.410
38.60000 740.982
38.64000 853.141
38.68000 1007.801
38.72000 1114.551
38.76000 1119.176
38.80000 1074.946
38.84000 970.800
38.88000 851.091
38.92000 677.450
38.96000 526.061
39.00000 464.637
39.04000 389.881
39.08000 341.630
39.12000 312.448
39.16000 318.472
39.20000 297.142
39.24000 297.524
39.28000 282.934
39.32000 279.684
39.36000 288.465
39.40000 274.377
39.44000 271.847
39.48000 275.273
39.52000 289.247
39.56000 284.508
39.60000 281.771
39.64000 263.927
39.68000 283.184
39.72000 267.175
39.76000 259.459
39.80000 270.504
39.84000 270.387
39.88000 276.521
39.92000 271.884
39.96000 271.649
40.00000 242.575
40.04000 264.271
40.08000 251.722
40.12000 256.981
40.16000 264.479
40.20000 261.985
40.24000 249.398
40.28000 281.297
40.32000 277.853
40.36000 257.003
40.40000 245.746
40.44000 249.764
40.48000 249.718
40.52000 256.475
40.56000 255.857
40.60000 252.182
40.64000 255.159
40.68000 255.290
40.72000 253.336
40.76000 240.750
40.80000 244.247
40.84000 261.890
40.88000 263.285
40.92000 243.548
40.96000 246.315
41.00000 243.159
41.04000 250.806
41.08000 248.592
41.12000 249.607
41.16000 257.125
41.20000 244.872
41.24000 246.497
41.28000 251.933
41.32000 247.402
41.36000 245.118
41.40000 251.412
41.44000 231.714
41.48000 235.719
41.52000 246.525
41.56000 245.078
41.60000 235.962
41.64000 256.487
41.68000 242.829
41.72000 247.945
41.76000 231.685
41.80000 236.860
41.84000 242.567
41.88000 249.453
41.92000 233.775
41.96000 239.112
42.00000 251.603
42.04000 229.446
42.08000 237.743
42.12000 246.523
42.16000 238.109
42.20000 237.416
42.24000 237.504
42.28000 238.678
42.32000 243.178
42.36000 235.727
42.40000 239.772
42.44000 240.209
42.48000 247.615
42.52000 244.509
42.56000 251.836
42.60000 233.969
42.64000 243.268
42.68000 242.684
42.72000 234.476
42.76000 229.623
42.80000 236.239
42.84000 235.403
42.88000 221.744
42.92000 228.499
42.96000 221.189
43.00000 224.893
43.04000 229.735
43.08000 240.095
43.12000 223.290
43.16000 239.353
43.20000 249.554
43.24000 235.635
43.28000 222.868
43.32000 230.917
43.36000 226.773
43.40000 219.358
43.44000 223.773
43.48000 213.036
43.52000 216.426
43.56000 215.629
43.60000 220.934
43.64000 237.143
43.68000 224.410
43.72000 215.690
43.76000 210.708
43.80000 229.608
43.84000 222.009
43.88000 216.920
43.92000 222.498
43.96000 212.004
44.00000 215.734
44.04000 211.590
44.08000 220.373
44.12000 214.862
44.16000 218.758
44.20000 216.460
44.24000 221.795
44.28000 220.422
44.32000 236.607
44.36000 225.192
44.40000 230.981
44.44000 218.423
44.48000 218.793
44.52000 230.830
44.56000 234.143
44.60000 237.605
44.64000 226.096
44.68000 223.123
44.72000 234.201
44.76000 243.517
44.80000 245.877
44.84000 258.787
44.88000 257.007
44.92000 261.032
44.96000 275.794
45.00000 288.207
45.04000 293.390
45.08000 306.639
45.12000 302.804
45.16000 299.943
45.20000 320.032
45.24000 305.182
45.28000 294.451
45.32000 274.978
45.36000 254.288
45.40000 239.786
45.44000 242.529
45.48000 239.404
45.52000 236.344
45.56000 219.455
45.60000 221.228
45.64000 204.347
45.68000 212.059
45.72000 218.652
45.76000 212.570
45.80000 207.770
45.84000 216.209
45.88000 213.984
45.92000 207.029
45.96000 202.922
46.00000 212.945
46.04000 203.372
46.08000 200.477
46.12000 193.710
46.16000 201.484
46.20000 200.040
46.24000 195.817
46.28000 199.174
46.32000 203.171
46.36000 194.086
46.40000 215.224
46.44000 201.586
46.48000 184.950
46.52000 201.515
46.56000 211.633
46.60000 212.459
46.64000 206.321
46.68000 196.358
46.72000 202.009
46.76000 199.871
46.80000 204.690
46.84000 200.658
46.88000 196.530
46.92000 203.146
46.96000 196.891
47.00000 190.264
47.04000 190.073
47.08000 188.105
47.12000 208.537
47.16000 193.042
47.20000 202.363
47.24000 202.142
47.28000 197.130
47.32000 199.643
47.36000 184.719
47.40000 184.784
47.44000 198.605
47.48000 184.260
47.52000 190.737
47.56000 189.722
47.60000 199.257
47.64000 192.780
47.68000 200.876
47.72000 184.356
47.76000 177.511
47.80000 185.659
47.84000 181.801
47.88000 191.734
47.92000 185.612
47.96000 185.428
48.00000 184.942
48.04000 192.661
48.08000 193.546
48.12000 192.711
48.16000 185.082
48.20000 184.845
48.24000 176.393
48.28000 188.745
48.32000 186.225
48.36000 182.901
48.40000 190.504
48.44000 198.936
48.48000 199.532
48.52000 202.864
48.56000 185.496
48.60000 185.972
48.64000 178.934
48.68000 190.948
48.72000 186.805
48.76000 184.583
48.80000 179.573
48.84000 180.665
48.88000 185.169
48.92000 181.986
48.96000 176.714
49.00000 181.524
49.04000 185.085
49.08000 185.873
49.12000 185.002
49.16000 187.874
49.20000 174.915
49.24000 183.097
49.28000 176.639
49.32000 183.098
49.36000 175.050
49.40000 179.535
49.44000 178.977
49.48000 180.663
49.52000 182.509
49.56000 168.363
49.60000 173.760
49.64000 178.384
49.68000 161.720
49.72000 174.838
49.76000 182.849
49.80000 168.433
49.84000 177.294
49.88000 186.276
49.92000 173.237
49.96000 167.209
50.00000 174.725
50.04000 177.022
50.08000 173.925
50.12000 176.748
50.16000 184.963
50.20000 179.307
50.24000 171.461
50.28000 173.829
50.32000 187.000
50.36000 190.667
50.40000 182.073
50.44000 184.080
50.48000 202.923
50.52000 202.923
50.56000 209.668
50.60000 216.022
50.64000 222.746
50.68000 247.410
50.72000 245.923
50.76000 234.538
50.80000 249.581
50.84000 225.564
50.88000 218.522
50.92000 224.389
50.96000 216.262
51.00000 192.405
51.04000 189.681
51.08000 181.060
51.12000 172.154
51.16000 180.545
51.20000 177.252
51.24000 172.158
51.28000 162.624
51.32000 169.353
51.36000 175.860
51.40000 165.279
51.44000 151.509
51.48000 166.897
51.52000 155.321
51.56000 169.493
51.60000 162.184
51.64000 161.902
51.68000 155.087
51.72000 165.865
51.76000 162.549
51.80000 160.369
51.84000 169.074
51.88000 158.744
51.92000 161.315
51.96000 170.875
52.00000 162.632
52.04000 156.263
52.08000 156.823
52.12000 157.936
52.16000 161.980
52.20000 183.297
52.24000 168.235
52.28000 167.689
52.32000 165.308
52.36000 161.299
52.40000 145.253
52.44000 162.013
52.48000 170.907
52.52000 167.165
52.56000 156.972
52.60000 154.201
52.64000 159.196
52.68000 152.185
52.72000 147.811
52.76000 159.531
52.80000 151.525
52.84000 166.311
52.88000 163.383
52.92000 159.333
52.96000 161.329
53.00000 159.808
53.04000 169.707
53.08000 164.302
53.12000 156.953
53.16000 164.389
53.20000 163.433
53.24000 166.908
53.28000 159.264
53.32000 158.192
53.36000 156.883
53.40000 164.352
53.44000 167.311
53.48000 154.993
53.52000 168.127
53.56000 167.816
53.60000 156.010
53.64000 166.745
53.68000 159.299
53.72000 156.143
53.76000 164.030
53.80000 156.552
53.84000 155.873
53.88000 150.213
53.92000 165.499
53.96000 167.300
54.00000 151.012
54.04000 147.810
54.08000 170.796
54.12000 153.437
54.16000 161.431
54.20000 152.514
54.24000 151.639
54.28000 154.634
54.32000 146.498
54.36000 147.339
54.40000 156.826
54.44000 152.988
54.48000 156.150
54.52000 161.593
54.56000 151.435
54.60000 152.223
54.64000 159.156
54.68000 159.318
54.72000 150.555
54.76000 153.032
54.80000 156.919
54.84000 143.290
54.88000 157.434
54.92000 157.925
54.96000 162.009
55.00000 158.934
55.04000 164.012
55.08000 150.892
55.12000 161.695
55.16000 162.577
55.20000 170.009
55.24000 161.232
55.28000 173.423
55.32000 165.988
55.36000 175.907
55.40000 169.229
55.44000 180.150
55.48000 184.846
55.52000 181.999
55.56000 209.291
55.60000 210.532
55.64000 235.737
55.68000 270.308
55.72000 313.473
55.76000 378.499
55.80000 448.011
55.84000 498.812
55.88000 557.169
55.92000 600.195
55.96000 617.970
56.00000 618.453
56.04000 578.986
56.08000 546.215
56.12000 499.682
56.16000 423.144
56.20000 368.880
56.24000 338.094
56.28000 280.766
56.32000 236.500
56.36000 221.031
56.40000 201.597
56.44000 186.132
56.48000 169.499
56.52000 163.882
56.56000 166.640
56.60000 151.423
56.64000 162.161
56.68000 156.515
56.72000 157.378
56.76000 150.633
56.80000 152.918
56.84000 154.913
56.88000 150.860
56.92000 136.613
56.96000 148.891
57.00000 148.516
57.04000 139.389
57.08000 142.687
57.12000 135.641
57.16000 136.570
57.20000 139.225
57.24000 145.256
57.28000 133.138
57.32000 151.216
57.36000 146.779
57.40000 144.487
57.44000 143.593
57.48000 144.717
57.52000 138.561
57.56000 145.284
57.60000 143.061
57.64000 145.636
57.68000 145.278
57.72000 138.113
57.76000 147.122
57.80000 142.517
57.84000 139.903
57.88000 146.385
57.92000 139.785
57.96000 144.220
58.00000 153.242
58.04000 133.610
58.08000 149.252
58.12000 144.348
58.16000 133.444
58.20000 146.979
58.24000 137.397
58.28000 140.121
58.32000 128.006
58.36000 140.827
58.40000 142.463
58.44000 140.045
58.48000 122.825
58.52000 130.670
58.56000 141.481
58.60000 133.111
58.64000 144.440
58.68000 126.724
58.72000 146.163
58.76000 137.283
58.80000 136.121
58.84000 136.303
58.88000 137.856
58.92000 135.255
58.96000 126.374
59.00000 136.102
59.04000 135.287
59.08000 138.157
59.12000 135.906
59.16000 137.267
59.20000 125.282
59.24000 133.325
59.28000 139.716
59.32000 145.657
59.36000 141.696
59.40000 134.656
59.44000 135.081
59.48000 129.957
59.52000 128.313
59.56000 129.456
59.60000 130.021
59.64000 137.090
59.68000 131.339
59.72000 134.487
59.76000 128.230
59.80000 141.573
59.84000 137.561
59.88000 140.394
59.92000 132.482
59.96000 136.474
60.00000 128.878
60.04000 135.166
60.08000 134.231
60.12000 133.925
60.16000 129.969
60.20000 146.102
60.24000 142.354
60.28000 132.860
60.32000 131.197
60.36000 141.140
60.40000 126.029
60.44000 138.222
60.48000 131.225
60.52000 134.913
60.56000 133.007
60.60000 131.239
60.64000 132.188
60.68000 126.959
60.72000 133.090
60.76000 140.260
60.80000 123.176
60.84000 132.715
60.88000 125.165
60.92000 139.177
60.96000 128.675
61.00000 136.747
61.04000 127.659
61.08000 146.783
61.12000 132.484
61.16000 133.033
61.20000 138.485
61.24000 134.764
61.28000 134.478
61.32000 134.402
61.36000 137.125
61.40000 134.180
61.44000 136.957
61.48000 137.373
61.52000 155.982
61.56000 176.045
61.60000 212.270
61.64000 230.554
61.68000 253.273
61.72000 262.643
61.76000 237.527
61.80000 217.290
61.84000 177.961
61.88000 156.932
61.92000 144.196
61.96000 142.368
62.00000 138.939
62.04000 147.233
62.08000 141.183
62.12000 139.917
62.16000 139.060
62.20000 133.425
62.24000 143.765
62.28000 141.381
62.32000 140.375
62.36000 143.050
62.40000 141.416
62.44000 137.376
62.48000 145.171
62.52000 138.570
62.56000 139.269
62.60000 147.954
62.64000 146.373
62.68000 135.131
62.72000 138.093
62.76000 153.530
62.80000 145.234
62.84000 138.349
62.88000 139.947
62.92000 146.132
62.96000 135.054
63.00000 145.524
63.04000 146.349
63.08000 133.427
63.12000 142.984
63.16000 141.647
63.20000 149.505
63.24000 145.600
63.28000 136.699
63.32000 139.623
63.36000 139.140
63.40000 151.299
63.44000 152.210
63.48000 142.522
63.52000 144.530
63.56000 139.470
63.60000 150.295
63.64000 142.702
63.68000 131.305
63.72000 144.896
63.76000 146.293
63.80000 159.612
63.84000 154.898
63.88000 148.981
63.92000 154.224
63.96000 156.778
64.00000 158.101
64.04000 151.927
64.08000 153.643
64.12000 150.084
64.16000 164.526
64.20000 160.702
64.24000 160.676
64.28000 165.316
64.32000 155.178
64.36000 155.188
64.40000 162.996
64.44000 162.389
64.48000 157.688
64.52000 170.404
64.56000 160.677
64.60000 162.435
64.64000 165.771
64.68000 166.740
64.72000 176.780
64.76000 171.278
64.80000 182.122
64.84000 172.140
64.88000 180.461
64.92000 181.708
64.96000 187.888
65.00000 179.141
65.04000 186.511
65.08000 185.046
65.12000 201.538
65.16000 213.650
65.20000 209.390
65.24000 232.402
65.28000 234.457
65.32000 253.896
65.36000 274.572
65.40000 288.578
65.44000 298.588
65.48000 329.422
65.52000 345.837
65.56000 348.936
65.60000 379.387
65.64000 400.043
65.68000 425.413
65.72000 522.223
65.76000 673.907
65.80000 815.283
65.84000 878.207
65.88000 928.646
65.92000 872.579
65.96000 792.718
66.00000 600.836
66.04000 423.024
66.08000 334.492
66.12000 291.452
66.16000 286.080
66.20000 272.227
66.24000 278.353
66.28000 305.749
66.32000 331.919
66.36000 361.390
66.40000 379.341
66.44000 391.011
66.48000 394.433
66.52000 367.549
66.56000 332.019
66.60000 312.404
66.64000 309.290
66.68000 284.267
66.72000 301.238
66.76000 297.482
66.80000 293.434
66.84000 291.877
66.88000 302.746
66.92000 312.005
66.96000 308.832
67.00000 309.038
67.04000 329.505
67.08000 346.851
67.12000 331.053
67.16000 347.809
67.20000 353.278
67.24000 336.897
67.28000 356.301
67.32000 359.247
67.36000 359.570
67.40000 377.028
67.44000 390.975
67.48000 410.767
67.52000 377.214
67.56000 381.140
67.60000 419.168
67.64000 405.830
67.68000 411.042
67.72000 436.339
67.76000 436.689
67.80000 441.833
67.84000 449.570
67.88000 461.386
67.92000 457.426
67.96000 471.122
68.00000 488.631
68.04000 473.104
68.08000 504.958
68.12000 487.923
68.16000 519.337
68.20000 552.735
68.24000 556.251
68.28000 580.759
68.32000 593.610
68.36000 601.022
68.40000 606.685
68.44000 642.992
68.48000 684.659
68.52000 707.545
68.56000 758.336
68.60000 835.738
68.64000 929.909
68.68000 1124.272
68.72000 1267.508
68.76000 1462.423
68.80000 1638.296
68.84000 1860.131
68.88000 2191.674
68.92000 3477.734
68.96000 7675.504
69.00000 20092.422
69.04000 35571.703
69.08000 45117.027
69.12000 46908.871
69.16000 48200.813
69.20000 49422.738
69.24000 43155.523
69.28000 33370.867
69.32000 26660.730
69.36000 23854.734
69.40000 20403.363
69.44000 13354.147
69.48000 6492.045
69.52000 2910.894
69.56000 1698.624
69.60000 1342.514
69.64000 1133.073
69.68000 993.743
69.72000 923.733
69.76000 840.327
69.80000 799.038
69.84000 746.256
69.88000 709.706
69.92000 697.053
69.96000 647.671
70.00000 630.743