File: XRD/XRD/30-09-2025 Dep 1/XY Data/BTO_Mapping_Theta2Theta_30-09-2025_001_36_-29-344_-6-237.xy
20.00000 580.497
20.04000 595.086
20.08000 581.984
20.12000 550.387
20.16000 556.493
20.20000 554.873
20.24000 552.920
20.28000 580.878
20.32000 598.978
20.36000 557.951
20.40000 542.418
20.44000 584.712
20.48000 548.825
20.52000 557.522
20.56000 550.968
20.60000 560.369
20.64000 552.516
20.68000 552.047
20.72000 548.928
20.76000 555.993
20.80000 553.403
20.84000 552.648
20.88000 549.588
20.92000 568.887
20.96000 546.911
21.00000 555.637
21.04000 543.965
21.08000 558.306
21.12000 554.176
21.16000 552.304
21.20000 550.080
21.24000 522.750
21.28000 549.339
21.32000 536.442
21.36000 545.758
21.40000 536.149
21.44000 543.366
21.48000 547.052
21.52000 535.268
21.56000 561.154
21.60000 564.667
21.64000 554.372
21.68000 550.271
21.72000 577.704
21.76000 554.442
21.80000 578.067
21.84000 601.563
21.88000 588.558
21.92000 632.519
21.96000 662.239
22.00000 684.899
22.04000 698.437
22.08000 706.037
22.12000 714.373
22.16000 704.518
22.20000 675.577
22.24000 624.534
22.28000 598.995
22.32000 585.060
22.36000 557.645
22.40000 531.295
22.44000 546.343
22.48000 538.783
22.52000 541.196
22.56000 513.692
22.60000 539.629
22.64000 540.105
22.68000 543.141
22.72000 510.101
22.76000 528.729
22.80000 521.384
22.84000 517.021
22.88000 505.610
22.92000 520.478
22.96000 518.745
23.00000 522.335
23.04000 522.778
23.08000 514.839
23.12000 519.830
23.16000 517.990
23.20000 519.869
23.24000 517.928
23.28000 518.611
23.32000 498.539
23.36000 519.208
23.40000 524.807
23.44000 482.124
23.48000 522.806
23.52000 496.384
23.56000 507.156
23.60000 514.231
23.64000 495.487
23.68000 511.384
23.72000 488.426
23.76000 519.221
23.80000 507.166
23.84000 522.425
23.88000 509.759
23.92000 502.789
23.96000 518.498
24.00000 501.226
24.04000 510.835
24.08000 523.534
24.12000 510.446
24.16000 498.297
24.20000 510.419
24.24000 514.226
24.28000 522.616
24.32000 500.416
24.36000 511.991
24.40000 495.132
24.44000 503.062
24.48000 503.331
24.52000 498.236
24.56000 508.260
24.60000 472.273
24.64000 491.819
24.68000 489.829
24.72000 496.699
24.76000 497.224
24.80000 488.077
24.84000 483.764
24.88000 473.297
24.92000 472.539
24.96000 467.511
25.00000 477.501
25.04000 493.946
25.08000 483.421
25.12000 473.823
25.16000 477.850
25.20000 466.788
25.24000 471.241
25.28000 483.628
25.32000 484.206
25.36000 477.828
25.40000 480.987
25.44000 463.696
25.48000 461.720
25.52000 474.823
25.56000 476.859
25.60000 474.515
25.64000 463.169
25.68000 456.288
25.72000 463.199
25.76000 478.586
25.80000 449.988
25.84000 444.695
25.88000 469.668
25.92000 487.334
25.96000 462.083
26.00000 466.444
26.04000 470.042
26.08000 460.263
26.12000 466.011
26.16000 473.703
26.20000 475.300
26.24000 473.309
26.28000 457.810
26.32000 454.149
26.36000 472.089
26.40000 450.186
26.44000 457.824
26.48000 455.551
26.52000 444.172
26.56000 447.417
26.60000 441.138
26.64000 467.752
26.68000 434.970
26.72000 452.742
26.76000 431.943
26.80000 446.013
26.84000 428.190
26.88000 464.008
26.92000 456.047
26.96000 466.479
27.00000 446.869
27.04000 437.774
27.08000 451.461
27.12000 449.702
27.16000 446.879
27.20000 436.118
27.24000 427.794
27.28000 442.696
27.32000 452.734
27.36000 441.858
27.40000 433.585
27.44000 445.338
27.48000 442.063
27.52000 447.173
27.56000 435.865
27.60000 434.298
27.64000 439.742
27.68000 443.532
27.72000 439.410
27.76000 424.918
27.80000 431.881
27.84000 430.288
27.88000 437.132
27.92000 442.996
27.96000 435.935
28.00000 435.315
28.04000 430.717
28.08000 435.433
28.12000 430.301
28.16000 436.778
28.20000 432.812
28.24000 449.772
28.28000 424.404
28.32000 441.579
28.36000 446.604
28.40000 424.636
28.44000 439.239
28.48000 455.711
28.52000 407.053
28.56000 428.968
28.60000 412.282
28.64000 417.703
28.68000 403.058
28.72000 431.970
28.76000 424.510
28.80000 430.806
28.84000 441.778
28.88000 438.620
28.92000 420.156
28.96000 429.333
29.00000 415.529
29.04000 411.219
29.08000 412.868
29.12000 412.144
29.16000 427.184
29.20000 413.888
29.24000 403.572
29.28000 411.179
29.32000 416.377
29.36000 437.398
29.40000 408.893
29.44000 424.152
29.48000 415.869
29.52000 421.117
29.56000 406.345
29.60000 407.308
29.64000 422.656
29.68000 425.906
29.72000 420.577
29.76000 424.354
29.80000 438.262
29.84000 412.380
29.88000 418.175
29.92000 432.848
29.96000 441.282
30.00000 439.047
30.04000 452.049
30.08000 449.043
30.12000 443.090
30.16000 433.848
30.20000 452.593
30.24000 427.679
30.28000 427.120
30.32000 432.506
30.36000 427.622
30.40000 427.437
30.44000 432.679
30.48000 433.792
30.52000 437.696
30.56000 429.480
30.60000 431.180
30.64000 443.926
30.68000 432.812
30.72000 436.914
30.76000 441.983
30.80000 471.213
30.84000 471.233
30.88000 472.494
30.92000 478.566
30.96000 520.739
31.00000 546.936
31.04000 575.281
31.08000 650.369
31.12000 804.095
31.16000 1016.380
31.20000 1346.982
31.24000 1792.997
31.28000 2353.422
31.32000 2956.821
31.36000 3377.323
31.40000 3680.806
31.44000 3595.556
31.48000 3247.003
31.52000 2729.381
31.56000 2137.855
31.60000 1569.177
31.64000 1106.987
31.68000 843.856
31.72000 662.356
31.76000 572.908
31.80000 522.515
31.84000 478.678
31.88000 464.399
31.92000 423.495
31.96000 424.836
32.00000 430.670
32.04000 416.526
32.08000 422.487
32.12000 411.109
32.16000 400.951
32.20000 406.717
32.24000 427.144
32.28000 404.296
32.32000 395.121
32.36000 399.629
32.40000 392.427
32.44000 374.950
32.48000 380.997
32.52000 402.222
32.56000 366.881
32.60000 389.262
32.64000 381.205
32.68000 374.126
32.72000 383.163
32.76000 353.437
32.80000 363.810
32.84000 360.100
32.88000 397.477
32.92000 390.915
32.96000 401.373
33.00000 424.771
33.04000 429.001
33.08000 423.534
33.12000 420.614
33.16000 376.860
33.20000 373.970
33.24000 355.748
33.28000 368.734
33.32000 347.141
33.36000 352.309
33.40000 359.259
33.44000 345.146
33.48000 351.941
33.52000 343.236
33.56000 359.268
33.60000 343.765
33.64000 340.177
33.68000 343.603
33.72000 340.446
33.76000 340.263
33.80000 345.599
33.84000 341.498
33.88000 327.940
33.92000 337.143
33.96000 326.529
34.00000 332.791
34.04000 334.816
34.08000 339.616
34.12000 355.136
34.16000 339.620
34.20000 370.192
34.24000 336.756
34.28000 352.301
34.32000 359.025
34.36000 349.974
34.40000 341.603
34.44000 345.972
34.48000 338.948
34.52000 348.433
34.56000 344.331
34.60000 350.427
34.64000 353.894
34.68000 355.378
34.72000 350.097
34.76000 336.219
34.80000 319.086
34.84000 335.309
34.88000 324.195
34.92000 320.547
34.96000 316.285
35.00000 318.867
35.04000 305.686
35.08000 320.354
35.12000 328.172
35.16000 329.156
35.20000 309.195
35.24000 332.847
35.28000 327.264
35.32000 317.987
35.36000 320.020
35.40000 332.945
35.44000 309.581
35.48000 314.783
35.52000 330.840
35.56000 313.795
35.60000 311.826
35.64000 319.165
35.68000 302.961
35.72000 305.387
35.76000 308.938
35.80000 310.463
35.84000 310.654
35.88000 312.586
35.92000 319.423
35.96000 314.235
36.00000 327.203
36.04000 291.843
36.08000 318.571
36.12000 306.779
36.16000 316.751
36.20000 313.984
36.24000 309.861
36.28000 327.094
36.32000 311.622
36.36000 318.860
36.40000 303.660
36.44000 305.321
36.48000 293.405
36.52000 295.658
36.56000 304.810
36.60000 311.105
36.64000 314.180
36.68000 295.091
36.72000 292.112
36.76000 297.297
36.80000 294.002
36.84000 306.017
36.88000 314.320
36.92000 309.575
36.96000 309.092
37.00000 305.300
37.04000 302.259
37.08000 308.034
37.12000 296.588
37.16000 302.797
37.20000 297.025
37.24000 300.422
37.28000 307.282
37.32000 282.184
37.36000 280.426
37.40000 302.442
37.44000 296.151
37.48000 285.350
37.52000 280.663
37.56000 275.705
37.60000 297.594
37.64000 302.476
37.68000 286.232
37.72000 287.781
37.76000 302.205
37.80000 291.299
37.84000 289.787
37.88000 293.284
37.92000 288.962
37.96000 291.418
38.00000 299.440
38.04000 291.787
38.08000 291.920
38.12000 296.266
38.16000 306.892
38.20000 292.755
38.24000 305.702
38.28000 318.229
38.32000 305.626
38.36000 310.894
38.40000 340.483
38.44000 350.684
38.48000 365.914
38.52000 416.334
38.56000 490.321
38.60000 588.344
38.64000 679.878
38.68000 768.029
38.72000 833.272
38.76000 872.996
38.80000 856.467
38.84000 786.057
38.88000 677.213
38.92000 572.715
38.96000 485.031
39.00000 410.829
39.04000 360.191
39.08000 316.665
39.12000 299.290
39.16000 294.086
39.20000 284.064
39.24000 290.382
39.28000 276.265
39.32000 270.455
39.36000 279.110
39.40000 278.567
39.44000 274.456
39.48000 262.770
39.52000 269.183
39.56000 279.163
39.60000 264.118
39.64000 268.898
39.68000 278.112
39.72000 273.129
39.76000 259.098
39.80000 266.319
39.84000 268.344
39.88000 248.597
39.92000 254.941
39.96000 286.287
40.00000 258.661
40.04000 269.772
40.08000 255.837
40.12000 275.778
40.16000 270.129
40.20000 266.442
40.24000 258.189
40.28000 275.848
40.32000 257.235
40.36000 259.032
40.40000 279.602
40.44000 267.049
40.48000 256.788
40.52000 257.610
40.56000 262.928
40.60000 253.861
40.64000 255.588
40.68000 244.526
40.72000 261.795
40.76000 262.362
40.80000 257.403
40.84000 264.063
40.88000 243.212
40.92000 253.912
40.96000 243.241
41.00000 265.800
41.04000 239.353
41.08000 234.911
41.12000 245.637
41.16000 243.832
41.20000 243.342
41.24000 228.217
41.28000 246.526
41.32000 235.930
41.36000 240.697
41.40000 246.533
41.44000 253.795
41.48000 247.054
41.52000 243.034
41.56000 239.056
41.60000 241.097
41.64000 234.791
41.68000 236.275
41.72000 225.899
41.76000 244.222
41.80000 244.057
41.84000 228.978
41.88000 236.850
41.92000 234.721
41.96000 234.228
42.00000 237.532
42.04000 222.804
42.08000 228.255
42.12000 247.375
42.16000 246.772
42.20000 234.521
42.24000 240.601
42.28000 245.871
42.32000 240.993
42.36000 233.772
42.40000 245.376
42.44000 232.419
42.48000 236.416
42.52000 234.569
42.56000 237.535
42.60000 250.488
42.64000 224.945
42.68000 228.154
42.72000 240.881
42.76000 223.858
42.80000 245.260
42.84000 232.878
42.88000 231.945
42.92000 222.138
42.96000 222.128
43.00000 209.056
43.04000 218.268
43.08000 237.791
43.12000 240.099
43.16000 228.928
43.20000 222.005
43.24000 225.689
43.28000 220.940
43.32000 235.888
43.36000 220.888
43.40000 236.363
43.44000 222.419
43.48000 231.347
43.52000 223.084
43.56000 227.022
43.60000 218.161
43.64000 216.417
43.68000 212.629
43.72000 216.458
43.76000 236.763
43.80000 220.427
43.84000 224.257
43.88000 233.860
43.92000 235.167
43.96000 227.304
44.00000 221.790
44.04000 216.554
44.08000 218.978
44.12000 231.130
44.16000 228.875
44.20000 225.138
44.24000 221.547
44.28000 229.247
44.32000 227.792
44.36000 219.868
44.40000 230.688
44.44000 223.336
44.48000 219.368
44.52000 220.904
44.56000 226.810
44.60000 238.802
44.64000 248.697
44.68000 240.667
44.72000 237.044
44.76000 238.800
44.80000 251.933
44.84000 259.018
44.88000 266.625
44.92000 288.218
44.96000 310.704
45.00000 339.491
45.04000 352.705
45.08000 365.626
45.12000 362.772
45.16000 374.480
45.20000 363.242
45.24000 352.716
45.28000 346.132
45.32000 308.963
45.36000 278.715
45.40000 269.680
45.44000 259.162
45.48000 259.113
45.52000 243.443
45.56000 233.246
45.60000 240.365
45.64000 217.719
45.68000 218.953
45.72000 226.244
45.76000 215.370
45.80000 222.770
45.84000 214.776
45.88000 220.395
45.92000 205.937
45.96000 206.841
46.00000 221.627
46.04000 209.306
46.08000 209.786
46.12000 211.721
46.16000 208.481
46.20000 197.606
46.24000 201.690
46.28000 194.630
46.32000 199.008
46.36000 206.454
46.40000 203.509
46.44000 206.032
46.48000 210.049
46.52000 214.175
46.56000 205.017
46.60000 203.760
46.64000 200.045
46.68000 191.236
46.72000 201.927
46.76000 199.081
46.80000 207.155
46.84000 200.417
46.88000 207.907
46.92000 178.697
46.96000 189.696
47.00000 192.666
47.04000 198.708
47.08000 192.934
47.12000 203.221
47.16000 198.408
47.20000 195.983
47.24000 203.453
47.28000 191.647
47.32000 197.596
47.36000 189.025
47.40000 200.580
47.44000 201.676
47.48000 182.987
47.52000 186.814
47.56000 194.448
47.60000 191.861
47.64000 199.390
47.68000 195.741
47.72000 181.970
47.76000 181.879
47.80000 192.342
47.84000 190.871
47.88000 188.269
47.92000 177.659
47.96000 184.035
48.00000 180.074
48.04000 189.720
48.08000 183.410
48.12000 184.964
48.16000 187.031
48.20000 187.972
48.24000 200.751
48.28000 187.306
48.32000 185.918
48.36000 182.178
48.40000 186.488
48.44000 185.823
48.48000 186.456
48.52000 190.175
48.56000 181.631
48.60000 182.858
48.64000 183.914
48.68000 185.991
48.72000 187.706
48.76000 171.745
48.80000 185.020
48.84000 185.095
48.88000 189.293
48.92000 170.940
48.96000 183.327
49.00000 179.065
49.04000 175.531
49.08000 168.407
49.12000 170.783
49.16000 190.081
49.20000 196.122
49.24000 177.549
49.28000 170.175
49.32000 186.739
49.36000 178.191
49.40000 175.618
49.44000 178.606
49.48000 185.538
49.52000 192.961
49.56000 180.630
49.60000 170.919
49.64000 192.002
49.68000 181.418
49.72000 169.969
49.76000 171.009
49.80000 178.650
49.84000 177.237
49.88000 170.851
49.92000 192.169
49.96000 184.938
50.00000 191.273
50.04000 169.900
50.08000 174.262
50.12000 181.944
50.16000 171.672
50.20000 175.155
50.24000 196.801
50.28000 199.929
50.32000 186.949
50.36000 184.270
50.40000 176.406
50.44000 190.658
50.48000 201.532
50.52000 226.400
50.56000 222.030
50.60000 242.642
50.64000 263.715
50.68000 262.738
50.72000 273.289
50.76000 264.628
50.80000 258.970
50.84000 259.695
50.88000 240.578
50.92000 230.065
50.96000 218.765
51.00000 201.869
51.04000 191.522
51.08000 186.792
51.12000 184.070
51.16000 179.311
51.20000 184.439
51.24000 178.704
51.28000 165.844
51.32000 168.085
51.36000 156.202
51.40000 180.040
51.44000 179.027
51.48000 159.187
51.52000 162.053
51.56000 176.426
51.60000 171.112
51.64000 174.402
51.68000 164.127
51.72000 164.077
51.76000 164.599
51.80000 164.513
51.84000 165.984
51.88000 166.821
51.92000 172.316
51.96000 159.904
52.00000 154.155
52.04000 155.110
52.08000 160.800
52.12000 153.154
52.16000 168.199
52.20000 165.831
52.24000 158.204
52.28000 175.463
52.32000 162.494
52.36000 163.962
52.40000 157.245
52.44000 160.538
52.48000 161.489
52.52000 165.686
52.56000 163.296
52.60000 170.570
52.64000 165.300
52.68000 158.128
52.72000 157.764
52.76000 158.730
52.80000 164.391
52.84000 151.902
52.88000 161.631
52.92000 164.397
52.96000 161.643
53.00000 159.208
53.04000 170.408
53.08000 151.498
53.12000 154.913
53.16000 156.069
53.20000 146.854
53.24000 156.435
53.28000 163.653
53.32000 160.793
53.36000 170.209
53.40000 166.923
53.44000 175.174
53.48000 164.633
53.52000 158.470
53.56000 160.813
53.60000 158.460
53.64000 171.213
53.68000 161.702
53.72000 158.398
53.76000 160.614
53.80000 158.385
53.84000 165.313
53.88000 162.530
53.92000 153.018
53.96000 154.478
54.00000 159.893
54.04000 159.893
54.08000 160.497
54.12000 163.644
54.16000 151.289
54.20000 155.015
54.24000 166.765
54.28000 154.186
54.32000 155.916
54.36000 139.341
54.40000 159.751
54.44000 154.417
54.48000 152.950
54.52000 154.724
54.56000 155.682
54.60000 147.833
54.64000 153.599
54.68000 145.187
54.72000 148.570
54.76000 144.820
54.80000 134.207
54.84000 165.074
54.88000 166.970
54.92000 152.961
54.96000 152.447
55.00000 153.122
55.04000 160.336
55.08000 149.120
55.12000 148.356
55.16000 168.187
55.20000 159.615
55.24000 165.723
55.28000 158.352
55.32000 178.916
55.36000 168.092
55.40000 168.960
55.44000 183.523
55.48000 180.455
55.52000 191.021
55.56000 198.174
55.60000 206.221
55.64000 240.391
55.68000 256.569
55.72000 290.486
55.76000 353.688
55.80000 397.176
55.84000 487.337
55.88000 553.100
55.92000 611.230
55.96000 656.130
56.00000 646.175
56.04000 616.233
56.08000 566.926
56.12000 511.446
56.16000 436.182
56.20000 367.372
56.24000 326.750
56.28000 269.285
56.32000 237.581
56.36000 209.209
56.40000 191.309
56.44000 180.075
56.48000 177.402
56.52000 173.992
56.56000 161.524
56.60000 154.554
56.64000 161.180
56.68000 151.384
56.72000 156.912
56.76000 141.836
56.80000 153.224
56.84000 143.370
56.88000 155.853
56.92000 159.763
56.96000 150.823
57.00000 158.708
57.04000 151.598
57.08000 153.759
57.12000 146.497
57.16000 136.835
57.20000 147.746
57.24000 155.040
57.28000 153.143
57.32000 156.663
57.36000 135.877
57.40000 140.381
57.44000 135.837
57.48000 143.872
57.52000 148.849
57.56000 151.802
57.60000 145.353
57.64000 143.944
57.68000 143.524
57.72000 146.851
57.76000 141.532
57.80000 162.481
57.84000 142.015
57.88000 148.788
57.92000 148.413
57.96000 154.023
58.00000 141.757
58.04000 141.546
58.08000 144.644
58.12000 133.239
58.16000 128.289
58.20000 146.805
58.24000 143.913
58.28000 131.115
58.32000 138.607
58.36000 147.169
58.40000 147.278
58.44000 139.872
58.48000 145.210
58.52000 135.054
58.56000 135.514
58.60000 134.160
58.64000 141.818
58.68000 137.413
58.72000 145.639
58.76000 137.950
58.80000 137.819
58.84000 142.186
58.88000 135.143
58.92000 140.800
58.96000 141.992
59.00000 133.749
59.04000 137.529
59.08000 140.718
59.12000 141.570
59.16000 138.456
59.20000 144.674
59.24000 145.283
59.28000 129.260
59.32000 139.185
59.36000 128.201
59.40000 137.225
59.44000 140.241
59.48000 134.104
59.52000 133.000
59.56000 139.577
59.60000 127.923
59.64000 129.067
59.68000 128.124
59.72000 135.979
59.76000 135.856
59.80000 138.484
59.84000 136.370
59.88000 142.202
59.92000 133.449
59.96000 135.754
60.00000 138.025
60.04000 136.330
60.08000 127.619
60.12000 125.961
60.16000 145.440
60.20000 130.954
60.24000 140.086
60.28000 135.302
60.32000 134.077
60.36000 138.524
60.40000 132.306
60.44000 137.803
60.48000 125.687
60.52000 132.677
60.56000 129.200
60.60000 130.775
60.64000 131.148
60.68000 136.703
60.72000 132.644
60.76000 131.220
60.80000 141.732
60.84000 133.194
60.88000 127.602
60.92000 133.158
60.96000 130.584
61.00000 134.263
61.04000 136.312
61.08000 133.836
61.12000 135.153
61.16000 136.259
61.20000 131.349
61.24000 147.998
61.28000 141.898
61.32000 139.172
61.36000 147.607
61.40000 134.390
61.44000 128.183
61.48000 144.067
61.52000 138.760
61.56000 187.638
61.60000 219.533
61.64000 262.308
61.68000 267.216
61.72000 282.935
61.76000 269.057
61.80000 244.179
61.84000 189.930
61.88000 164.513
61.92000 154.921
61.96000 137.239
62.00000 137.810
62.04000 138.371
62.08000 140.066
62.12000 142.597
62.16000 142.162
62.20000 136.046
62.24000 154.657
62.28000 145.317
62.32000 155.436
62.36000 138.070
62.40000 151.635
62.44000 135.277
62.48000 143.553
62.52000 133.117
62.56000 138.272
62.60000 139.711
62.64000 140.307
62.68000 141.050
62.72000 136.620
62.76000 133.867
62.80000 134.560
62.84000 139.902
62.88000 141.513
62.92000 147.408
62.96000 156.365
63.00000 151.184
63.04000 148.728
63.08000 150.664
63.12000 152.822
63.16000 156.028
63.20000 141.298
63.24000 149.718
63.28000 139.614
63.32000 139.389
63.36000 143.419
63.40000 157.950
63.44000 149.546
63.48000 146.682
63.52000 138.479
63.56000 151.380
63.60000 138.912
63.64000 145.962
63.68000 148.640
63.72000 150.955
63.76000 143.203
63.80000 157.958
63.84000 150.412
63.88000 157.142
63.92000 154.565
63.96000 149.526
64.00000 159.702
64.04000 158.240
64.08000 155.302
64.12000 161.076
64.16000 158.316
64.20000 159.952
64.24000 158.728
64.28000 163.302
64.32000 157.925
64.36000 162.934
64.40000 188.647
64.44000 165.872
64.48000 166.453
64.52000 164.604
64.56000 161.482
64.60000 174.940
64.64000 165.066
64.68000 168.413
64.72000 158.487
64.76000 168.574
64.80000 178.502
64.84000 183.826
64.88000 181.341
64.92000 193.412
64.96000 181.406
65.00000 186.717
65.04000 196.873
65.08000 206.408
65.12000 212.676
65.16000 216.317
65.20000 224.281
65.24000 243.280
65.28000 253.666
65.32000 268.352
65.36000 289.028
65.40000 313.073
65.44000 337.101
65.48000 378.789
65.52000 400.207
65.56000 444.490
65.60000 457.221
65.64000 465.421
65.68000 508.206
65.72000 574.367
65.76000 749.738
65.80000 915.430
65.84000 1052.554
65.88000 1083.254
65.92000 1103.065
65.96000 987.449
66.00000 780.347
66.04000 536.246
66.08000 392.468
66.12000 318.398
66.16000 290.430
66.20000 281.520
66.24000 292.414
66.28000 313.814
66.32000 339.670
66.36000 390.040
66.40000 422.555
66.44000 425.826
66.48000 437.765
66.52000 420.429
66.56000 383.272
66.60000 354.701
66.64000 321.646
66.68000 319.670
66.72000 306.235
66.76000 298.855
66.80000 317.606
66.84000 303.946
66.88000 323.754
66.92000 316.302
66.96000 329.294
67.00000 314.083
67.04000 338.742
67.08000 350.337
67.12000 352.274
67.16000 360.949
67.20000 366.968
67.24000 378.053
67.28000 373.705
67.32000 385.241
67.36000 393.836
67.40000 382.337
67.44000 391.570
67.48000 395.064
67.52000 407.872
67.56000 424.392
67.60000 422.411
67.64000 429.567
67.68000 440.624
67.72000 453.475
67.76000 444.816
67.80000 450.507
67.84000 469.478
67.88000 481.582
67.92000 504.456
67.96000 508.023
68.00000 542.044
68.04000 538.630
68.08000 554.562
68.12000 578.855
68.16000 571.921
68.20000 587.795
68.24000 574.418
68.28000 625.487
68.32000 644.918
68.36000 640.190
68.40000 676.898
68.44000 682.434
68.48000 733.817
68.52000 778.880
68.56000 811.258
68.60000 903.316
68.64000 1006.929
68.68000 1200.872
68.72000 1447.375
68.76000 1635.186
68.80000 1818.262
68.84000 2071.165
68.88000 2377.161
68.92000 3420.107
68.96000 7002.346
69.00000 19927.375
69.04000 39702.602
69.08000 54777.668
69.12000 58682.625
69.16000 60059.871
69.20000 62309.594
69.24000 57144.484
69.28000 45857.102
69.32000 35363.027
69.36000 30644.900
69.40000 27466.008
69.44000 19405.904
69.48000 10336.186
69.52000 4364.588
69.56000 2199.723
69.60000 1620.053
69.64000 1338.738
69.68000 1163.598
69.72000 1078.844
69.76000 951.106
69.80000 881.684
69.84000 825.903
69.88000 801.809
69.92000 743.680
69.96000 725.645
70.00000 723.326