File: XRD/XRD/30-09-2025 Dep 1/XY Data/BTO_Mapping_Theta2Theta_30-09-2025_001_54_6-691_-7-431.xy
20.00000 591.459
20.04000 571.919
20.08000 560.384
20.12000 573.792
20.16000 577.450
20.20000 572.914
20.24000 552.039
20.28000 582.754
20.32000 560.496
20.36000 564.858
20.40000 581.541
20.44000 571.125
20.48000 558.187
20.52000 566.316
20.56000 552.755
20.60000 566.131
20.64000 571.721
20.68000 565.644
20.72000 580.969
20.76000 561.528
20.80000 551.564
20.84000 548.041
20.88000 555.196
20.92000 545.270
20.96000 553.330
21.00000 560.015
21.04000 561.809
21.08000 556.255
21.12000 577.885
21.16000 561.081
21.20000 536.547
21.24000 548.157
21.28000 534.470
21.32000 555.977
21.36000 571.076
21.40000 560.880
21.44000 555.038
21.48000 554.839
21.52000 546.735
21.56000 544.400
21.60000 545.514
21.64000 544.451
21.68000 607.226
21.72000 600.057
21.76000 613.380
21.80000 655.780
21.84000 707.961
21.88000 723.161
21.92000 784.723
21.96000 854.348
22.00000 889.017
22.04000 897.045
22.08000 897.348
22.12000 839.685
22.16000 785.039
22.20000 703.498
22.24000 651.219
22.28000 581.555
22.32000 588.595
22.36000 556.959
22.40000 577.206
22.44000 557.872
22.48000 559.878
22.52000 545.626
22.56000 527.595
22.60000 525.063
22.64000 542.484
22.68000 524.576
22.72000 530.859
22.76000 536.414
22.80000 533.689
22.84000 539.731
22.88000 528.303
22.92000 517.707
22.96000 516.102
23.00000 527.511
23.04000 526.410
23.08000 529.251
23.12000 522.522
23.16000 518.560
23.20000 510.643
23.24000 518.715
23.28000 510.418
23.32000 521.445
23.36000 498.921
23.40000 502.499
23.44000 501.853
23.48000 514.336
23.52000 509.263
23.56000 528.688
23.60000 522.913
23.64000 517.545
23.68000 499.965
23.72000 501.756
23.76000 518.458
23.80000 509.270
23.84000 495.482
23.88000 508.786
23.92000 508.464
23.96000 486.247
24.00000 506.246
24.04000 501.979
24.08000 486.090
24.12000 494.071
24.16000 501.898
24.20000 506.495
24.24000 494.365
24.28000 494.280
24.32000 499.141
24.36000 470.849
24.40000 495.822
24.44000 473.264
24.48000 471.144
24.52000 489.040
24.56000 482.569
24.60000 484.027
24.64000 500.237
24.68000 504.404
24.72000 476.315
24.76000 498.010
24.80000 497.975
24.84000 487.773
24.88000 476.170
24.92000 482.743
24.96000 471.391
25.00000 489.622
25.04000 495.464
25.08000 502.258
25.12000 478.389
25.16000 480.198
25.20000 472.640
25.24000 471.350
25.28000 483.249
25.32000 484.349
25.36000 476.353
25.40000 501.928
25.44000 483.151
25.48000 488.740
25.52000 475.191
25.56000 475.031
25.60000 473.326
25.64000 473.585
25.68000 491.414
25.72000 476.855
25.76000 491.533
25.80000 479.784
25.84000 472.103
25.88000 491.599
25.92000 473.819
25.96000 475.848
26.00000 490.814
26.04000 457.775
26.08000 466.828
26.12000 484.947
26.16000 482.381
26.20000 465.452
26.24000 460.212
26.28000 452.991
26.32000 459.649
26.36000 478.605
26.40000 463.125
26.44000 449.771
26.48000 458.652
26.52000 451.316
26.56000 454.051
26.60000 474.679
26.64000 479.182
26.68000 467.749
26.72000 440.194
26.76000 449.020
26.80000 461.056
26.84000 447.112
26.88000 450.687
26.92000 451.543
26.96000 465.619
27.00000 455.786
27.04000 452.316
27.08000 445.589
27.12000 456.367
27.16000 444.790
27.20000 451.294
27.24000 446.188
27.28000 442.693
27.32000 452.628
27.36000 458.428
27.40000 465.834
27.44000 460.053
27.48000 459.410
27.52000 437.109
27.56000 441.905
27.60000 455.183
27.64000 449.417
27.68000 436.385
27.72000 445.177
27.76000 427.630
27.80000 441.191
27.84000 426.357
27.88000 442.429
27.92000 439.633
27.96000 437.605
28.00000 437.116
28.04000 444.789
28.08000 449.133
28.12000 431.593
28.16000 450.800
28.20000 438.355
28.24000 443.660
28.28000 448.587
28.32000 447.065
28.36000 433.601
28.40000 424.358
28.44000 425.747
28.48000 417.987
28.52000 428.329
28.56000 418.406
28.60000 431.667
28.64000 425.543
28.68000 425.553
28.72000 450.002
28.76000 428.996
28.80000 425.897
28.84000 429.013
28.88000 411.057
28.92000 422.177
28.96000 433.385
29.00000 424.655
29.04000 421.708
29.08000 414.965
29.12000 430.777
29.16000 422.113
29.20000 426.784
29.24000 421.431
29.28000 428.348
29.32000 417.063
29.36000 432.049
29.40000 426.496
29.44000 416.302
29.48000 422.064
29.52000 437.336
29.56000 420.334
29.60000 409.429
29.64000 405.379
29.68000 413.982
29.72000 412.116
29.76000 439.128
29.80000 457.499
29.84000 455.568
29.88000 452.645
29.92000 463.262
29.96000 475.162
30.00000 464.067
30.04000 462.794
30.08000 476.898
30.12000 457.764
30.16000 447.762
30.20000 448.434
30.24000 457.176
30.28000 443.109
30.32000 441.380
30.36000 447.759
30.40000 440.256
30.44000 433.332
30.48000 446.176
30.52000 439.081
30.56000 451.915
30.60000 468.837
30.64000 464.123
30.68000 479.907
30.72000 474.762
30.76000 466.182
30.80000 482.633
30.84000 488.284
30.88000 513.669
30.92000 534.119
30.96000 556.812
31.00000 630.069
31.04000 729.622
31.08000 901.609
31.12000 1151.310
31.16000 1552.996
31.20000 2129.270
31.24000 2729.365
31.28000 3346.266
31.32000 3832.564
31.36000 3987.915
31.40000 3834.286
31.44000 3421.634
31.48000 2804.529
31.52000 2087.560
31.56000 1528.672
31.60000 1095.876
31.64000 806.357
31.68000 639.190
31.72000 584.836
31.76000 516.339
31.80000 510.452
31.84000 479.124
31.88000 456.201
31.92000 459.275
31.96000 440.639
32.00000 430.709
32.04000 435.238
32.08000 427.198
32.12000 428.460
32.16000 424.607
32.20000 428.525
32.24000 412.708
32.28000 393.820
32.32000 407.784
32.36000 395.293
32.40000 396.039
32.44000 411.923
32.48000 397.339
32.52000 406.149
32.56000 388.292
32.60000 396.058
32.64000 386.497
32.68000 375.484
32.72000 374.339
32.76000 377.974
32.80000 386.698
32.84000 410.322
32.88000 418.748
32.92000 459.482
32.96000 489.381
33.00000 494.129
33.04000 486.378
33.08000 466.730
33.12000 457.816
33.16000 408.163
33.20000 380.034
33.24000 370.886
33.28000 351.055
33.32000 348.019
33.36000 340.953
33.40000 345.469
33.44000 357.935
33.48000 359.203
33.52000 354.504
33.56000 348.682
33.60000 347.915
33.64000 349.168
33.68000 338.053
33.72000 330.106
33.76000 356.065
33.80000 337.953
33.84000 350.598
33.88000 329.419
33.92000 346.687
33.96000 359.819
34.00000 325.820
34.04000 334.279
34.08000 308.802
34.12000 332.467
34.16000 342.033
34.20000 322.093
34.24000 339.310
34.28000 346.331
34.32000 315.120
34.36000 328.915
34.40000 327.992
34.44000 322.464
34.48000 337.122
34.52000 338.824
34.56000 335.352
34.60000 349.180
34.64000 338.114
34.68000 339.958
34.72000 340.000
34.76000 339.150
34.80000 338.547
34.84000 325.503
34.88000 330.286
34.92000 344.241
34.96000 328.470
35.00000 319.746
35.04000 325.406
35.08000 316.311
35.12000 326.232
35.16000 316.090
35.20000 329.240
35.24000 311.319
35.28000 320.373
35.32000 325.589
35.36000 318.498
35.40000 328.572
35.44000 324.894
35.48000 315.450
35.52000 299.498
35.56000 328.886
35.60000 308.047
35.64000 297.899
35.68000 309.091
35.72000 306.886
35.76000 305.947
35.80000 307.296
35.84000 297.384
35.88000 302.080
35.92000 305.115
35.96000 320.567
36.00000 289.956
36.04000 315.269
36.08000 310.837
36.12000 312.324
36.16000 313.410
36.20000 301.101
36.24000 314.793
36.28000 310.162
36.32000 309.459
36.36000 316.745
36.40000 304.777
36.44000 312.225
36.48000 306.325
36.52000 294.238
36.56000 307.404
36.60000 306.794
36.64000 310.262
36.68000 314.345
36.72000 294.024
36.76000 313.872
36.80000 304.485
36.84000 306.264
36.88000 304.776
36.92000 307.675
36.96000 316.250
37.00000 307.947
37.04000 311.881
37.08000 309.232
37.12000 309.693
37.16000 304.392
37.20000 310.720
37.24000 297.696
37.28000 290.221
37.32000 305.189
37.36000 296.973
37.40000 294.584
37.44000 299.414
37.48000 292.788
37.52000 281.360
37.56000 294.137
37.60000 304.056
37.64000 298.949
37.68000 289.069
37.72000 303.584
37.76000 297.488
37.80000 300.444
37.84000 311.221
37.88000 295.787
37.92000 295.489
37.96000 305.182
38.00000 277.413
38.04000 287.121
38.08000 282.258
38.12000 279.796
38.16000 302.876
38.20000 305.887
38.24000 303.668
38.28000 323.755
38.32000 339.274
38.36000 349.626
38.40000 357.090
38.44000 382.486
38.48000 430.348
38.52000 478.744
38.56000 545.257
38.60000 620.658
38.64000 662.223
38.68000 714.390
38.72000 707.908
38.76000 684.803
38.80000 630.632
38.84000 554.531
38.88000 469.934
38.92000 423.631
38.96000 357.425
39.00000 343.823
39.04000 317.401
39.08000 312.376
39.12000 301.693
39.16000 288.192
39.20000 283.176
39.24000 282.973
39.28000 269.058
39.32000 284.804
39.36000 262.844
39.40000 299.481
39.44000 287.061
39.48000 270.438
39.52000 280.174
39.56000 282.927
39.60000 272.265
39.64000 286.639
39.68000 292.822
39.72000 268.808
39.76000 269.801
39.80000 269.908
39.84000 275.057
39.88000 262.998
39.92000 262.698
39.96000 258.656
40.00000 271.922
40.04000 263.184
40.08000 269.894
40.12000 260.133
40.16000 272.724
40.20000 259.461
40.24000 252.286
40.28000 276.137
40.32000 260.622
40.36000 270.434
40.40000 258.960
40.44000 254.286
40.48000 259.951
40.52000 266.904
40.56000 259.503
40.60000 252.251
40.64000 260.425
40.68000 246.921
40.72000 255.776
40.76000 256.646
40.80000 264.174
40.84000 261.083
40.88000 254.284
40.92000 258.636
40.96000 245.151
41.00000 261.453
41.04000 239.586
41.08000 243.200
41.12000 253.488
41.16000 242.242
41.20000 246.133
41.24000 253.783
41.28000 248.932
41.32000 263.076
41.36000 238.270
41.40000 247.170
41.44000 249.572
41.48000 241.991
41.52000 234.787
41.56000 243.445
41.60000 244.029
41.64000 240.651
41.68000 229.698
41.72000 246.306
41.76000 256.269
41.80000 244.422
41.84000 245.420
41.88000 235.716
41.92000 241.343
41.96000 214.615
42.00000 243.661
42.04000 237.712
42.08000 236.684
42.12000 251.447
42.16000 247.811
42.20000 234.968
42.24000 227.017
42.28000 229.112
42.32000 236.406
42.36000 253.285
42.40000 241.690
42.44000 225.347
42.48000 244.708
42.52000 231.396
42.56000 234.823
42.60000 234.233
42.64000 232.553
42.68000 231.139
42.72000 231.247
42.76000 226.649
42.80000 226.559
42.84000 226.908
42.88000 232.733
42.92000 237.337
42.96000 232.707
43.00000 246.949
43.04000 243.792
43.08000 230.261
43.12000 228.065
43.16000 239.143
43.20000 215.177
43.24000 228.167
43.28000 223.733
43.32000 225.541
43.36000 217.248
43.40000 238.190
43.44000 242.561
43.48000 239.950
43.52000 228.223
43.56000 222.241
43.60000 221.013
43.64000 222.298
43.68000 226.876
43.72000 232.900
43.76000 226.872
43.80000 213.217
43.84000 225.651
43.88000 232.700
43.92000 229.188
43.96000 207.119
44.00000 230.274
44.04000 228.997
44.08000 225.092
44.12000 231.182
44.16000 228.518
44.20000 230.441
44.24000 222.716
44.28000 237.169
44.32000 237.908
44.36000 232.170
44.40000 223.787
44.44000 235.790
44.48000 232.792
44.52000 232.241
44.56000 248.800
44.60000 238.323
44.64000 245.022
44.68000 270.852
44.72000 276.098
44.76000 314.086
44.80000 312.762
44.84000 357.272
44.88000 412.277
44.92000 466.954
44.96000 501.686
45.00000 539.511
45.04000 545.720
45.08000 525.332
45.12000 509.359
45.16000 433.708
45.20000 396.165
45.24000 376.594
45.28000 325.380
45.32000 293.776
45.36000 266.106
45.40000 264.993
45.44000 261.031
45.48000 237.316
45.52000 239.724
45.56000 219.813
45.60000 238.138
45.64000 230.330
45.68000 216.982
45.72000 225.740
45.76000 207.169
45.80000 217.349
45.84000 211.700
45.88000 228.581
45.92000 221.448
45.96000 224.914
46.00000 201.255
46.04000 208.509
46.08000 207.499
46.12000 204.335
46.16000 199.713
46.20000 206.552
46.24000 203.470
46.28000 212.040
46.32000 207.707
46.36000 202.199
46.40000 217.894
46.44000 217.442
46.48000 206.467
46.52000 201.619
46.56000 192.131
46.60000 203.279
46.64000 197.538
46.68000 205.788
46.72000 203.531
46.76000 200.777
46.80000 193.505
46.84000 200.372
46.88000 198.206
46.92000 202.347
46.96000 196.281
47.00000 198.048
47.04000 200.284
47.08000 193.002
47.12000 189.553
47.16000 185.385
47.20000 195.443
47.24000 190.491
47.28000 197.330
47.32000 191.497
47.36000 200.776
47.40000 198.525
47.44000 198.131
47.48000 193.440
47.52000 198.684
47.56000 194.324
47.60000 196.953
47.64000 188.810
47.68000 194.412
47.72000 205.470
47.76000 190.683
47.80000 199.516
47.84000 192.235
47.88000 191.680
47.92000 190.265
47.96000 188.053
48.00000 191.253
48.04000 195.318
48.08000 180.386
48.12000 187.063
48.16000 183.687
48.20000 187.814
48.24000 187.007
48.28000 191.031
48.32000 187.281
48.36000 184.038
48.40000 195.423
48.44000 182.991
48.48000 197.672
48.52000 183.584
48.56000 184.367
48.60000 187.247
48.64000 190.579
48.68000 197.722
48.72000 199.831
48.76000 177.821
48.80000 183.983
48.84000 188.349
48.88000 189.369
48.92000 186.090
48.96000 191.989
49.00000 187.280
49.04000 188.550
49.08000 181.117
49.12000 184.508
49.16000 180.672
49.20000 180.305
49.24000 179.431
49.28000 195.813
49.32000 177.475
49.36000 181.189
49.40000 175.399
49.44000 178.201
49.48000 183.021
49.52000 173.339
49.56000 172.156
49.60000 185.941
49.64000 177.726
49.68000 184.394
49.72000 180.277
49.76000 183.461
49.80000 180.769
49.84000 182.120
49.88000 179.624
49.92000 186.235
49.96000 175.936
50.00000 184.803
50.04000 177.543
50.08000 184.320
50.12000 188.231
50.16000 175.798
50.20000 196.765
50.24000 194.017
50.28000 192.348
50.32000 204.535
50.36000 195.440
50.40000 213.701
50.44000 215.954
50.48000 237.626
50.52000 256.115
50.56000 274.700
50.60000 290.357
50.64000 294.738
50.68000 299.494
50.72000 285.324
50.76000 269.356
50.80000 267.896
50.84000 247.386
50.88000 234.616
50.92000 220.244
50.96000 193.165
51.00000 210.723
51.04000 184.574
51.08000 176.648
51.12000 182.710
51.16000 185.129
51.20000 172.485
51.24000 182.962
51.28000 184.274
51.32000 175.304
51.36000 183.165
51.40000 174.304
51.44000 162.388
51.48000 174.998
51.52000 175.684
51.56000 170.801
51.60000 173.981
51.64000 167.139
51.68000 166.399
51.72000 167.257
51.76000 176.728
51.80000 155.010
51.84000 170.457
51.88000 162.256
51.92000 168.098
51.96000 157.675
52.00000 156.395
52.04000 171.081
52.08000 168.477
52.12000 186.518
52.16000 154.438
52.20000 167.422
52.24000 166.043
52.28000 167.795
52.32000 156.311
52.36000 165.660
52.40000 161.725
52.44000 162.788
52.48000 161.496
52.52000 157.933
52.56000 152.117
52.60000 173.613
52.64000 156.695
52.68000 167.119
52.72000 159.655
52.76000 168.468
52.80000 170.609
52.84000 168.717
52.88000 163.991
52.92000 175.421
52.96000 168.610
53.00000 161.327
53.04000 151.182
53.08000 165.517
53.12000 162.702
53.16000 157.623
53.20000 161.101
53.24000 165.293
53.28000 151.033
53.32000 171.545
53.36000 173.362
53.40000 163.843
53.44000 158.254
53.48000 164.169
53.52000 149.265
53.56000 170.214
53.60000 151.034
53.64000 161.443
53.68000 162.543
53.72000 157.934
53.76000 163.116
53.80000 152.146
53.84000 155.579
53.88000 157.014
53.92000 164.867
53.96000 148.766
54.00000 156.435
54.04000 156.699
54.08000 150.935
54.12000 159.328
54.16000 152.386
54.20000 164.351
54.24000 157.141
54.28000 169.486
54.32000 158.160
54.36000 163.485
54.40000 147.798
54.44000 143.895
54.48000 149.256
54.52000 154.519
54.56000 156.148
54.60000 156.831
54.64000 153.658
54.68000 156.193
54.72000 161.724
54.76000 166.921
54.80000 155.577
54.84000 163.229
54.88000 151.711
54.92000 162.069
54.96000 158.052
55.00000 168.550
55.04000 157.908
55.08000 173.710
55.12000 164.547
55.16000 162.757
55.20000 168.939
55.24000 166.368
55.28000 169.736
55.32000 170.375
55.36000 178.362
55.40000 187.062
55.44000 198.302
55.48000 195.382
55.52000 221.017
55.56000 238.079
55.60000 273.672
55.64000 307.118
55.68000 385.506
55.72000 408.194
55.76000 490.393
55.80000 573.435
55.84000 604.980
55.88000 665.929
55.92000 658.701
55.96000 653.773
56.00000 602.105
56.04000 528.222
56.08000 466.589
56.12000 389.584
56.16000 344.194
56.20000 294.670
56.24000 248.042
56.28000 224.726
56.32000 199.506
56.36000 196.488
56.40000 184.306
56.44000 172.166
56.48000 170.032
56.52000 164.240
56.56000 156.614
56.60000 153.647
56.64000 154.524
56.68000 154.196
56.72000 162.799
56.76000 155.670
56.80000 154.334
56.84000 143.288
56.88000 145.813
56.92000 142.689
56.96000 150.028
57.00000 144.881
57.04000 145.977
57.08000 151.774
57.12000 143.210
57.16000 139.114
57.20000 155.366
57.24000 150.853
57.28000 145.587
57.32000 148.459
57.36000 151.725
57.40000 144.910
57.44000 149.384
57.48000 149.941
57.52000 138.253
57.56000 139.961
57.60000 150.980
57.64000 151.708
57.68000 150.389
57.72000 148.028
57.76000 144.423
57.80000 153.471
57.84000 147.740
57.88000 143.349
57.92000 149.077
57.96000 141.145
58.00000 145.013
58.04000 131.901
58.08000 132.781
58.12000 144.528
58.16000 138.928
58.20000 144.165
58.24000 146.100
58.28000 143.969
58.32000 150.649
58.36000 142.842
58.40000 144.631
58.44000 141.210
58.48000 140.826
58.52000 137.092
58.56000 143.575
58.60000 142.813
58.64000 133.512
58.68000 134.921
58.72000 140.135
58.76000 148.023
58.80000 133.046
58.84000 133.305
58.88000 140.677
58.92000 130.585
58.96000 143.144
59.00000 140.605
59.04000 140.595
59.08000 138.281
59.12000 127.396
59.16000 131.371
59.20000 142.883
59.24000 138.632
59.28000 137.792
59.32000 135.298
59.36000 133.285
59.40000 138.672
59.44000 134.449
59.48000 138.689
59.52000 141.610
59.56000 137.674
59.60000 146.976
59.64000 139.698
59.68000 129.575
59.72000 126.696
59.76000 141.039
59.80000 131.344
59.84000 121.042
59.88000 131.015
59.92000 122.085
59.96000 149.411
60.00000 138.280
60.04000 135.165
60.08000 128.730
60.12000 135.615
60.16000 119.547
60.20000 132.657
60.24000 135.122
60.28000 122.877
60.32000 138.788
60.36000 137.426
60.40000 134.651
60.44000 133.246
60.48000 145.016
60.52000 141.504
60.56000 133.706
60.60000 131.648
60.64000 134.969
60.68000 126.203
60.72000 128.523
60.76000 129.445
60.80000 134.870
60.84000 137.103
60.88000 134.246
60.92000 120.968
60.96000 137.381
61.00000 126.141
61.04000 137.457
61.08000 129.940
61.12000 140.968
61.16000 146.319
61.20000 138.136
61.24000 135.540
61.28000 130.461
61.32000 132.697
61.36000 137.509
61.40000 141.934
61.44000 137.197
61.48000 149.589
61.52000 178.561
61.56000 221.585
61.60000 270.920
61.64000 313.150
61.68000 330.299
61.72000 318.362
61.76000 315.291
61.80000 252.871
61.84000 197.766
61.88000 169.502
61.92000 151.799
61.96000 140.890
62.00000 139.581
62.04000 144.426
62.08000 139.662
62.12000 144.203
62.16000 139.068
62.20000 140.302
62.24000 140.407
62.28000 145.303
62.32000 153.578
62.36000 146.212
62.40000 146.361
62.44000 141.138
62.48000 144.295
62.52000 153.609
62.56000 148.330
62.60000 141.542
62.64000 146.069
62.68000 135.811
62.72000 147.117
62.76000 149.961
62.80000 136.983
62.84000 142.977
62.88000 142.592
62.92000 148.777
62.96000 154.516
63.00000 153.336
63.04000 150.016
63.08000 154.215
63.12000 159.763
63.16000 156.759
63.20000 144.242
63.24000 154.744
63.28000 144.481
63.32000 151.094
63.36000 161.373
63.40000 148.022
63.44000 154.849
63.48000 162.667
63.52000 148.089
63.56000 157.440
63.60000 170.196
63.64000 147.304
63.68000 151.733
63.72000 151.578
63.76000 153.758
63.80000 154.928
63.84000 158.794
63.88000 154.361
63.92000 156.201
63.96000 153.856
64.00000 161.314
64.04000 164.187
64.08000 166.510
64.12000 159.914
64.16000 167.911
64.20000 159.780
64.24000 163.890
64.28000 161.225
64.32000 169.391
64.36000 160.672
64.40000 163.698
64.44000 169.675
64.48000 164.883
64.52000 169.837
64.56000 169.631
64.60000 166.372
64.64000 178.900
64.68000 177.298
64.72000 169.854
64.76000 178.256
64.80000 172.564
64.84000 186.347
64.88000 192.021
64.92000 186.141
64.96000 205.207
65.00000 209.823
65.04000 197.880
65.08000 219.748
65.12000 219.706
65.16000 243.421
65.20000 245.899
65.24000 280.133
65.28000 296.999
65.32000 335.975
65.36000 337.548
65.40000 404.779
65.44000 421.447
65.48000 449.163
65.52000 460.980
65.56000 472.694
65.60000 481.374
65.64000 494.112
65.68000 586.612
65.72000 739.698
65.76000 984.113
65.80000 1186.020
65.84000 1322.017
65.88000 1343.477
65.92000 1262.875
65.96000 1083.316
66.00000 732.851
66.04000 500.750
66.08000 385.919
66.12000 347.716
66.16000 320.615
66.20000 319.783
66.24000 344.030
66.28000 356.030
66.32000 440.474
66.36000 472.310
66.40000 488.137
66.44000 506.091
66.48000 497.973
66.52000 450.274
66.56000 396.093
66.60000 354.297
66.64000 328.148
66.68000 332.250
66.72000 337.343
66.76000 337.743
66.80000 352.211
66.84000 344.533
66.88000 352.806
66.92000 369.069
66.96000 374.123
67.00000 374.269
67.04000 377.145
67.08000 389.927
67.12000 381.181
67.16000 392.099
67.20000 412.569
67.24000 398.793
67.28000 421.298
67.32000 421.314
67.36000 437.195
67.40000 436.293
67.44000 440.986
67.48000 462.456
67.52000 458.730
67.56000 457.272
67.60000 468.849
67.64000 473.213
67.68000 509.967
67.72000 499.733
67.76000 519.008
67.80000 518.550
67.84000 521.758
67.88000 552.925
67.92000 554.667
67.96000 574.589
68.00000 587.618
68.04000 620.191
68.08000 624.112
68.12000 602.678
68.16000 619.273
68.20000 635.829
68.24000 698.833
68.28000 686.751
68.32000 699.521
68.36000 724.978
68.40000 749.973
68.44000 813.412
68.48000 849.757
68.52000 921.421
68.56000 992.028
68.60000 1102.561
68.64000 1278.791
68.68000 1587.458
68.72000 1855.436
68.76000 2087.065
68.80000 2423.966
68.84000 2772.881
68.88000 3493.316
68.92000 7149.567
68.96000 17336.818
69.00000 39938.906
69.04000 63352.813
69.08000 75343.945
69.12000 77957.211
69.16000 80492.117
69.20000 79513.102
69.24000 66901.320
69.28000 51779.004
69.32000 42486.441
69.36000 37982.695
69.40000 30963.830
69.44000 18645.707
69.48000 8644.113
69.52000 3835.635
69.56000 2265.025
69.60000 1788.203
69.64000 1459.243
69.68000 1287.944
69.72000 1136.785
69.76000 1079.555
69.80000 971.665
69.84000 915.369
69.88000 875.745
69.92000 848.566
69.96000 815.968
70.00000 805.439