File: XRD/XRD/30-09-2025 Dep 1/XY Data/BTO_Mapping_Theta2Theta_30-09-2025_001_14_3-090_9-511.xy
20.00000 568.523
20.04000 569.982
20.08000 567.735
20.12000 578.620
20.16000 553.100
20.20000 565.123
20.24000 544.618
20.28000 554.359
20.32000 592.803
20.36000 570.474
20.40000 553.340
20.44000 572.057
20.48000 577.505
20.52000 563.845
20.56000 554.573
20.60000 558.036
20.64000 561.829
20.68000 557.789
20.72000 544.946
20.76000 574.214
20.80000 568.550
20.84000 557.107
20.88000 545.485
20.92000 549.538
20.96000 565.642
21.00000 547.334
21.04000 562.772
21.08000 524.795
21.12000 569.707
21.16000 543.674
21.20000 532.566
21.24000 560.142
21.28000 550.143
21.32000 550.184
21.36000 558.046
21.40000 540.868
21.44000 541.906
21.48000 553.689
21.52000 562.465
21.56000 575.783
21.60000 556.524
21.64000 556.715
21.68000 559.522
21.72000 563.600
21.76000 555.630
21.80000 583.006
21.84000 615.178
21.88000 621.187
21.92000 639.915
21.96000 665.626
22.00000 705.698
22.04000 697.167
22.08000 709.279
22.12000 698.245
22.16000 677.412
22.20000 655.253
22.24000 626.708
22.28000 593.415
22.32000 570.810
22.36000 556.932
22.40000 559.494
22.44000 544.806
22.48000 524.828
22.52000 536.550
22.56000 545.242
22.60000 555.602
22.64000 518.228
22.68000 515.199
22.72000 525.700
22.76000 523.953
22.80000 513.885
22.84000 510.767
22.88000 526.209
22.92000 512.025
22.96000 517.897
23.00000 495.279
23.04000 521.213
23.08000 516.863
23.12000 515.999
23.16000 517.862
23.20000 522.724
23.24000 514.637
23.28000 502.802
23.32000 489.743
23.36000 519.458
23.40000 506.573
23.44000 521.646
23.48000 511.229
23.52000 498.448
23.56000 518.202
23.60000 511.301
23.64000 504.997
23.68000 503.125
23.72000 511.036
23.76000 508.975
23.80000 520.632
23.84000 531.847
23.88000 530.331
23.92000 527.509
23.96000 538.915
24.00000 552.967
24.04000 550.083
24.08000 530.146
24.12000 536.549
24.16000 532.675
24.20000 532.103
24.24000 531.078
24.28000 525.359
24.32000 532.950
24.36000 522.192
24.40000 505.690
24.44000 491.234
24.48000 504.858
24.52000 501.391
24.56000 466.042
24.60000 493.303
24.64000 480.073
24.68000 496.793
24.72000 502.296
24.76000 504.903
24.80000 474.290
24.84000 474.610
24.88000 490.630
24.92000 483.244
24.96000 494.017
25.00000 469.651
25.04000 491.819
25.08000 506.800
25.12000 475.928
25.16000 486.361
25.20000 466.407
25.24000 471.721
25.28000 468.173
25.32000 472.660
25.36000 462.854
25.40000 490.549
25.44000 476.849
25.48000 478.995
25.52000 472.273
25.56000 479.287
25.60000 457.896
25.64000 485.668
25.68000 460.626
25.72000 444.390
25.76000 459.890
25.80000 476.816
25.84000 467.600
25.88000 474.683
25.92000 457.659
25.96000 458.478
26.00000 456.471
26.04000 458.376
26.08000 462.369
26.12000 477.920
26.16000 463.150
26.20000 461.128
26.24000 471.092
26.28000 450.588
26.32000 453.301
26.36000 481.169
26.40000 448.956
26.44000 454.462
26.48000 454.474
26.52000 477.752
26.56000 474.149
26.60000 451.277
26.64000 457.265
26.68000 448.043
26.72000 441.309
26.76000 449.197
26.80000 456.449
26.84000 473.901
26.88000 455.032
26.92000 436.385
26.96000 454.090
27.00000 445.194
27.04000 453.165
27.08000 428.454
27.12000 445.473
27.16000 446.793
27.20000 434.961
27.24000 457.726
27.28000 453.025
27.32000 424.673
27.36000 428.834
27.40000 418.974
27.44000 426.321
27.48000 451.739
27.52000 438.309
27.56000 435.014
27.60000 458.618
27.64000 451.955
27.68000 443.226
27.72000 440.092
27.76000 428.137
27.80000 432.781
27.84000 429.948
27.88000 445.155
27.92000 422.300
27.96000 425.641
28.00000 416.846
28.04000 446.631
28.08000 425.709
28.12000 440.924
28.16000 428.232
28.20000 421.078
28.24000 417.433
28.28000 436.705
28.32000 437.818
28.36000 423.656
28.40000 438.084
28.44000 428.334
28.48000 405.021
28.52000 420.699
28.56000 417.815
28.60000 432.005
28.64000 425.648
28.68000 432.817
28.72000 434.851
28.76000 409.831
28.80000 411.299
28.84000 421.089
28.88000 420.624
28.92000 419.839
28.96000 417.080
29.00000 427.075
29.04000 440.020
29.08000 416.638
29.12000 432.017
29.16000 413.947
29.20000 396.347
29.24000 406.612
29.28000 396.728
29.32000 403.389
29.36000 406.124
29.40000 412.887
29.44000 421.294
29.48000 421.814
29.52000 418.930
29.56000 406.126
29.60000 407.643
29.64000 429.713
29.68000 415.997
29.72000 416.320
29.76000 398.201
29.80000 394.233
29.84000 433.400
29.88000 425.793
29.92000 420.106
29.96000 448.886
30.00000 461.620
30.04000 467.416
30.08000 467.110
30.12000 451.367
30.16000 432.905
30.20000 447.334
30.24000 441.806
30.28000 426.543
30.32000 422.016
30.36000 426.583
30.40000 438.805
30.44000 413.927
30.48000 420.012
30.52000 437.795
30.56000 421.307
30.60000 447.677
30.64000 446.004
30.68000 443.311
30.72000 454.183
30.76000 452.934
30.80000 457.802
30.84000 459.114
30.88000 461.883
30.92000 499.803
30.96000 502.411
31.00000 555.697
31.04000 631.022
31.08000 705.229
31.12000 907.856
31.16000 1152.572
31.20000 1566.558
31.24000 2089.072
31.28000 2624.737
31.32000 3084.207
31.36000 3430.668
31.40000 3449.628
31.44000 3177.070
31.48000 2786.442
31.52000 2220.051
31.56000 1651.365
31.60000 1180.458
31.64000 898.888
31.68000 701.672
31.72000 590.865
31.76000 535.222
31.80000 497.131
31.84000 454.446
31.88000 444.427
31.92000 432.877
31.96000 437.726
32.00000 420.979
32.04000 415.640
32.08000 411.901
32.12000 414.492
32.16000 399.348
32.20000 392.558
32.24000 404.438
32.28000 403.257
32.32000 403.338
32.36000 410.626
32.40000 401.832
32.44000 368.012
32.48000 389.706
32.52000 397.378
32.56000 367.156
32.60000 389.499
32.64000 376.630
32.68000 369.723
32.72000 374.958
32.76000 370.892
32.80000 360.182
32.84000 367.282
32.88000 375.827
32.92000 386.900
32.96000 423.046
33.00000 400.395
33.04000 390.476
33.08000 394.902
33.12000 375.150
33.16000 376.039
33.20000 366.114
33.24000 355.877
33.28000 349.520
33.32000 371.508
33.36000 327.773
33.40000 350.814
33.44000 343.768
33.48000 357.708
33.52000 342.988
33.56000 347.546
33.60000 340.380
33.64000 339.923
33.68000 350.121
33.72000 328.585
33.76000 339.849
33.80000 345.801
33.84000 351.357
33.88000 340.399
33.92000 341.971
33.96000 348.716
34.00000 336.633
34.04000 346.699
34.08000 351.424
34.12000 335.001
34.16000 346.924
34.20000 349.382
34.24000 337.316
34.28000 360.935
34.32000 358.686
34.36000 343.447
34.40000 338.272
34.44000 346.272
34.48000 329.957
34.52000 342.964
34.56000 339.876
34.60000 351.775
34.64000 339.157
34.68000 361.932
34.72000 334.849
34.76000 333.659
34.80000 332.257
34.84000 337.810
34.88000 326.744
34.92000 334.830
34.96000 331.259
35.00000 338.802
35.04000 332.513
35.08000 325.601
35.12000 324.890
35.16000 319.548
35.20000 317.845
35.24000 326.811
35.28000 314.108
35.32000 318.328
35.36000 308.473
35.40000 323.280
35.44000 305.444
35.48000 321.514
35.52000 311.422
35.56000 318.618
35.60000 328.953
35.64000 306.039
35.68000 310.598
35.72000 307.186
35.76000 308.706
35.80000 313.276
35.84000 311.377
35.88000 310.706
35.92000 316.421
35.96000 313.170
36.00000 302.268
36.04000 313.802
36.08000 310.082
36.12000 309.344
36.16000 294.332
36.20000 299.542
36.24000 303.107
36.28000 311.973
36.32000 296.442
36.36000 302.314
36.40000 295.258
36.44000 293.793
36.48000 314.720
36.52000 299.551
36.56000 314.443
36.60000 290.007
36.64000 281.990
36.68000 273.883
36.72000 306.275
36.76000 291.308
36.80000 296.613
36.84000 300.919
36.88000 295.335
36.92000 303.443
36.96000 312.979
37.00000 288.755
37.04000 306.325
37.08000 308.395
37.12000 323.440
37.16000 293.714
37.20000 290.170
37.24000 309.241
37.28000 295.799
37.32000 288.799
37.36000 284.732
37.40000 284.408
37.44000 287.606
37.48000 291.991
37.52000 307.009
37.56000 304.423
37.60000 296.845
37.64000 283.928
37.68000 288.816
37.72000 296.392
37.76000 298.198
37.80000 286.175
37.84000 294.860
37.88000 289.709
37.92000 300.545
37.96000 308.995
38.00000 293.320
38.04000 304.849
38.08000 301.462
38.12000 298.936
38.16000 290.544
38.20000 309.666
38.24000 296.326
38.28000 313.901
38.32000 331.275
38.36000 321.776
38.40000 339.059
38.44000 378.420
38.48000 428.217
38.52000 518.537
38.56000 585.612
38.60000 669.504
38.64000 776.052
38.68000 882.598
38.72000 914.301
38.76000 953.758
38.80000 882.329
38.84000 773.743
38.88000 657.798
38.92000 549.183
38.96000 450.700
39.00000 384.488
39.04000 345.919
39.08000 323.176
39.12000 303.062
39.16000 300.137
39.20000 289.840
39.24000 282.533
39.28000 278.032
39.32000 276.243
39.36000 291.461
39.40000 284.132
39.44000 267.030
39.48000 269.732
39.52000 281.428
39.56000 277.076
39.60000 274.983
39.64000 259.942
39.68000 261.135
39.72000 259.439
39.76000 263.142
39.80000 268.236
39.84000 255.643
39.88000 287.787
39.92000 250.804
39.96000 272.480
40.00000 254.626
40.04000 269.141
40.08000 255.534
40.12000 260.514
40.16000 254.567
40.20000 257.273
40.24000 250.141
40.28000 261.796
40.32000 254.120
40.36000 252.972
40.40000 257.920
40.44000 264.559
40.48000 270.893
40.52000 251.199
40.56000 260.869
40.60000 257.276
40.64000 247.308
40.68000 271.051
40.72000 242.786
40.76000 259.187
40.80000 263.784
40.84000 246.165
40.88000 247.152
40.92000 244.412
40.96000 252.013
41.00000 245.823
41.04000 253.441
41.08000 244.816
41.12000 241.829
41.16000 249.677
41.20000 242.609
41.24000 258.362
41.28000 255.310
41.32000 229.922
41.36000 239.129
41.40000 240.345
41.44000 243.277
41.48000 240.709
41.52000 246.987
41.56000 243.106
41.60000 232.715
41.64000 238.926
41.68000 244.801
41.72000 248.079
41.76000 248.262
41.80000 241.066
41.84000 240.625
41.88000 235.736
41.92000 236.343
41.96000 247.374
42.00000 246.917
42.04000 235.068
42.08000 235.532
42.12000 250.040
42.16000 221.523
42.20000 233.295
42.24000 240.461
42.28000 251.562
42.32000 238.319
42.36000 238.930
42.40000 246.607
42.44000 246.468
42.48000 240.110
42.52000 233.963
42.56000 232.902
42.60000 236.029
42.64000 239.364
42.68000 237.500
42.72000 221.364
42.76000 233.013
42.80000 228.629
42.84000 241.634
42.88000 237.052
42.92000 237.951
42.96000 229.971
43.00000 237.077
43.04000 242.511
43.08000 238.970
43.12000 232.772
43.16000 237.913
43.20000 234.040
43.24000 228.374
43.28000 215.648
43.32000 221.956
43.36000 216.376
43.40000 224.198
43.44000 231.278
43.48000 226.364
43.52000 220.766
43.56000 224.934
43.60000 220.304
43.64000 228.775
43.68000 232.208
43.72000 235.493
43.76000 222.479
43.80000 219.091
43.84000 227.663
43.88000 218.099
43.92000 221.383
43.96000 232.573
44.00000 229.628
44.04000 230.248
44.08000 213.759
44.12000 221.086
44.16000 229.120
44.20000 222.837
44.24000 213.780
44.28000 230.196
44.32000 231.788
44.36000 222.688
44.40000 214.508
44.44000 220.086
44.48000 224.559
44.52000 224.694
44.56000 232.499
44.60000 237.022
44.64000 226.592
44.68000 240.010
44.72000 239.189
44.76000 245.634
44.80000 268.562
44.84000 272.810
44.88000 296.844
44.92000 309.921
44.96000 311.911
45.00000 344.651
45.04000 355.229
45.08000 379.520
45.12000 377.406
45.16000 388.159
45.20000 342.411
45.24000 331.535
45.28000 313.965
45.32000 293.914
45.36000 287.566
45.40000 256.969
45.44000 255.768
45.48000 246.452
45.52000 230.981
45.56000 226.256
45.60000 223.984
45.64000 224.447
45.68000 219.604
45.72000 212.931
45.76000 212.577
45.80000 220.070
45.84000 213.376
45.88000 219.464
45.92000 207.061
45.96000 203.716
46.00000 204.518
46.04000 208.279
46.08000 201.480
46.12000 206.346
46.16000 213.583
46.20000 215.967
46.24000 213.537
46.28000 204.202
46.32000 199.566
46.36000 207.764
46.40000 214.195
46.44000 198.928
46.48000 209.989
46.52000 202.595
46.56000 202.747
46.60000 195.306
46.64000 205.806
46.68000 199.218
46.72000 199.410
46.76000 212.842
46.80000 199.181
46.84000 194.768
46.88000 196.197
46.92000 189.327
46.96000 182.753
47.00000 193.331
47.04000 213.023
47.08000 194.767
47.12000 208.963
47.16000 188.446
47.20000 195.012
47.24000 201.489
47.28000 204.281
47.32000 186.095
47.36000 194.111
47.40000 186.320
47.44000 178.891
47.48000 195.199
47.52000 193.466
47.56000 179.167
47.60000 197.715
47.64000 194.250
47.68000 190.020
47.72000 198.439
47.76000 183.529
47.80000 183.640
47.84000 189.422
47.88000 183.065
47.92000 191.227
47.96000 185.177
48.00000 184.956
48.04000 194.569
48.08000 195.292
48.12000 172.821
48.16000 178.462
48.20000 183.687
48.24000 195.058
48.28000 189.104
48.32000 189.999
48.36000 188.632
48.40000 185.983
48.44000 187.477
48.48000 177.931
48.52000 187.780
48.56000 189.098
48.60000 187.940
48.64000 188.965
48.68000 183.257
48.72000 192.813
48.76000 171.426
48.80000 172.822
48.84000 183.152
48.88000 192.171
48.92000 179.542
48.96000 179.118
49.00000 177.597
49.04000 194.374
49.08000 193.586
49.12000 183.625
49.16000 187.675
49.20000 175.325
49.24000 185.935
49.28000 188.382
49.32000 177.473
49.36000 180.171
49.40000 172.988
49.44000 183.025
49.48000 192.045
49.52000 181.706
49.56000 181.935
49.60000 184.001
49.64000 181.614
49.68000 177.805
49.72000 169.068
49.76000 174.023
49.80000 180.520
49.84000 185.509
49.88000 176.223
49.92000 178.805
49.96000 179.859
50.00000 169.935
50.04000 172.539
50.08000 178.884
50.12000 176.458
50.16000 172.744
50.20000 168.003
50.24000 177.311
50.28000 183.945
50.32000 200.229
50.36000 197.914
50.40000 204.567
50.44000 205.085
50.48000 204.840
50.52000 240.654
50.56000 231.078
50.60000 247.743
50.64000 252.236
50.68000 261.284
50.72000 274.095
50.76000 260.828
50.80000 238.604
50.84000 228.819
50.88000 235.721
50.92000 218.401
50.96000 214.600
51.00000 191.035
51.04000 187.267
51.08000 193.384
51.12000 188.908
51.16000 178.229
51.20000 176.707
51.24000 165.625
51.28000 168.555
51.32000 167.217
51.36000 177.334
51.40000 164.806
51.44000 165.381
51.48000 166.721
51.52000 166.100
51.56000 164.276
51.60000 166.293
51.64000 167.961
51.68000 154.657
51.72000 162.133
51.76000 157.182
51.80000 158.074
51.84000 164.201
51.88000 163.878
51.92000 162.919
51.96000 161.840
52.00000 161.911
52.04000 173.069
52.08000 153.504
52.12000 161.475
52.16000 168.425
52.20000 151.036
52.24000 161.170
52.28000 151.754
52.32000 153.053
52.36000 165.549
52.40000 166.376
52.44000 165.930
52.48000 153.701
52.52000 168.777
52.56000 152.999
52.60000 165.471
52.64000 157.088
52.68000 161.803
52.72000 156.404
52.76000 155.660
52.80000 153.217
52.84000 164.353
52.88000 152.236
52.92000 160.408
52.96000 155.627
53.00000 162.805
53.04000 158.947
53.08000 156.418
53.12000 163.292
53.16000 157.452
53.20000 159.433
53.24000 171.828
53.28000 167.882
53.32000 156.474
53.36000 166.340
53.40000 157.133
53.44000 154.530
53.48000 159.029
53.52000 157.366
53.56000 159.730
53.60000 160.851
53.64000 158.364
53.68000 157.166
53.72000 155.870
53.76000 165.870
53.80000 166.107
53.84000 162.299
53.88000 172.249
53.92000 149.402
53.96000 153.460
54.00000 154.936
54.04000 158.911
54.08000 160.438
54.12000 160.523
54.16000 164.664
54.20000 161.078
54.24000 157.862
54.28000 151.112
54.32000 156.834
54.36000 151.844
54.40000 156.560
54.44000 158.973
54.48000 157.693
54.52000 158.548
54.56000 167.421
54.60000 162.662
54.64000 156.462
54.68000 169.518
54.72000 156.393
54.76000 157.672
54.80000 155.072
54.84000 161.116
54.88000 148.435
54.92000 149.000
54.96000 148.537
55.00000 159.180
55.04000 166.431
55.08000 163.623
55.12000 150.896
55.16000 166.100
55.20000 162.553
55.24000 165.691
55.28000 175.300
55.32000 168.310
55.36000 163.500
55.40000 182.696
55.44000 181.866
55.48000 189.719
55.52000 195.372
55.56000 209.250
55.60000 229.102
55.64000 258.161
55.68000 295.737
55.72000 338.040
55.76000 406.068
55.80000 466.348
55.84000 541.149
55.88000 598.141
55.92000 617.312
55.96000 645.286
56.00000 618.812
56.04000 595.183
56.08000 538.709
56.12000 455.927
56.16000 392.081
56.20000 345.626
56.24000 294.320
56.28000 245.767
56.32000 220.555
56.36000 196.218
56.40000 193.899
56.44000 181.215
56.48000 167.858
56.52000 173.847
56.56000 169.007
56.60000 158.914
56.64000 159.746
56.68000 159.627
56.72000 150.160
56.76000 141.615
56.80000 150.810
56.84000 154.852
56.88000 139.952
56.92000 156.806
56.96000 149.099
57.00000 151.174
57.04000 160.084
57.08000 151.648
57.12000 151.621
57.16000 149.193
57.20000 149.491
57.24000 142.857
57.28000 148.188
57.32000 141.202
57.36000 137.399
57.40000 156.835
57.44000 148.005
57.48000 147.890
57.52000 145.942
57.56000 148.526
57.60000 147.299
57.64000 154.855
57.68000 136.795
57.72000 134.199
57.76000 144.925
57.80000 140.760
57.84000 146.409
57.88000 148.064
57.92000 148.922
57.96000 145.978
58.00000 143.861
58.04000 134.727
58.08000 154.310
58.12000 139.236
58.16000 142.619
58.20000 146.847
58.24000 138.138
58.28000 129.121
58.32000 144.396
58.36000 137.190
58.40000 139.843
58.44000 140.106
58.48000 126.825
58.52000 139.870
58.56000 133.069
58.60000 145.072
58.64000 141.833
58.68000 137.769
58.72000 137.184
58.76000 142.122
58.80000 131.289
58.84000 143.703
58.88000 141.159
58.92000 126.544
58.96000 137.910
59.00000 145.778
59.04000 136.245
59.08000 132.293
59.12000 130.577
59.16000 130.933
59.20000 139.830
59.24000 138.920
59.28000 141.357
59.32000 136.374
59.36000 148.667
59.40000 136.079
59.44000 139.572
59.48000 136.062
59.52000 134.793
59.56000 145.297
59.60000 143.490
59.64000 125.636
59.68000 144.341
59.72000 133.215
59.76000 134.501
59.80000 126.790
59.84000 118.953
59.88000 124.478
59.92000 131.318
59.96000 133.272
60.00000 131.321
60.04000 138.639
60.08000 135.693
60.12000 128.815
60.16000 137.736
60.20000 129.630
60.24000 133.063
60.28000 138.419
60.32000 136.697
60.36000 136.404
60.40000 134.482
60.44000 130.532
60.48000 122.540
60.52000 132.976
60.56000 139.569
60.60000 124.542
60.64000 125.647
60.68000 125.900
60.72000 141.192
60.76000 137.254
60.80000 138.615
60.84000 135.412
60.88000 131.690
60.92000 129.467
60.96000 135.416
61.00000 139.570
61.04000 134.172
61.08000 132.744
61.12000 138.554
61.16000 137.345
61.20000 137.240
61.24000 132.025
61.28000 139.562
61.32000 130.933
61.36000 143.519
61.40000 131.968
61.44000 139.871
61.48000 140.892
61.52000 162.425
61.56000 194.823
61.60000 213.236
61.64000 260.084
61.68000 271.227
61.72000 260.003
61.76000 264.219
61.80000 221.443
61.84000 172.560
61.88000 156.719
61.92000 128.831
61.96000 146.971
62.00000 148.759
62.04000 146.053
62.08000 138.478
62.12000 138.942
62.16000 141.612
62.20000 137.392
62.24000 143.868
62.28000 145.984
62.32000 136.799
62.36000 155.199
62.40000 148.803
62.44000 143.808
62.48000 136.417
62.52000 148.240
62.56000 141.638
62.60000 139.130
62.64000 138.072
62.68000 139.573
62.72000 149.348
62.76000 133.742
62.80000 136.732
62.84000 122.184
62.88000 144.446
62.92000 138.576
62.96000 137.373
63.00000 139.948
63.04000 148.357
63.08000 146.949
63.12000 141.590
63.16000 144.290
63.20000 137.976
63.24000 141.369
63.28000 147.463
63.32000 143.706
63.36000 150.358
63.40000 137.068
63.44000 152.736
63.48000 157.564
63.52000 139.813
63.56000 135.915
63.60000 147.889
63.64000 152.471
63.68000 146.300
63.72000 160.991
63.76000 144.654
63.80000 154.247
63.84000 148.166
63.88000 153.213
63.92000 142.913
63.96000 147.560
64.00000 143.178
64.04000 162.542
64.08000 167.280
64.12000 157.890
64.16000 160.441
64.20000 148.583
64.24000 150.179
64.28000 159.252
64.32000 183.002
64.36000 174.737
64.40000 163.358
64.44000 157.895
64.48000 164.873
64.52000 165.175
64.56000 162.934
64.60000 173.556
64.64000 173.147
64.68000 176.340
64.72000 163.544
64.76000 181.167
64.80000 181.726
64.84000 174.784
64.88000 174.182
64.92000 172.886
64.96000 188.743
65.00000 184.035
65.04000 192.552
65.08000 188.546
65.12000 209.646
65.16000 219.198
65.20000 222.665
65.24000 227.327
65.28000 258.599
65.32000 270.499
65.36000 299.839
65.40000 320.376
65.44000 340.139
65.48000 361.497
65.52000 391.741
65.56000 408.338
65.60000 415.155
65.64000 430.016
65.68000 475.527
65.72000 613.846
65.76000 757.392
65.80000 923.166
65.84000 1019.388
65.88000 1002.400
65.92000 968.117
65.96000 825.437
66.00000 612.457
66.04000 419.496
66.08000 328.514
66.12000 299.852
66.16000 279.810
66.20000 280.027
66.24000 289.367
66.28000 331.093
66.32000 352.642
66.36000 383.325
66.40000 402.499
66.44000 403.364
66.48000 403.482
66.52000 398.326
66.56000 347.745
66.60000 320.638
66.64000 304.361
66.68000 302.273
66.72000 295.395
66.76000 294.047
66.80000 295.997
66.84000 316.713
66.88000 329.401
66.92000 309.882
66.96000 324.496
67.00000 315.101
67.04000 331.334
67.08000 359.467
67.12000 342.025
67.16000 345.044
67.20000 352.877
67.24000 363.309
67.28000 363.375
67.32000 373.056
67.36000 377.375
67.40000 383.731
67.44000 379.946
67.48000 385.790
67.52000 427.965
67.56000 410.570
67.60000 414.581
67.64000 447.734
67.68000 431.304
67.72000 430.584
67.76000 449.817
67.80000 468.314
67.84000 458.604
67.88000 473.663
67.92000 479.670
67.96000 481.077
68.00000 498.492
68.04000 528.509
68.08000 525.653
68.12000 529.130
68.16000 546.166
68.20000 551.361
68.24000 559.083
68.28000 605.441
68.32000 609.035
68.36000 631.072
68.40000 649.251
68.44000 665.985
68.48000 740.792
68.52000 776.358
68.56000 799.874
68.60000 900.331
68.64000 1024.307
68.68000 1218.251
68.72000 1394.580
68.76000 1606.387
68.80000 1818.957
68.84000 2101.219
68.88000 2446.340
68.92000 4315.551
68.96000 10354.048
69.00000 25812.713
69.04000 42490.102
69.08000 51482.375
69.12000 52892.445
69.16000 54685.758
69.20000 55123.781
69.24000 46358.664
69.28000 35423.605
69.32000 29014.158
69.36000 26188.217
69.40000 21888.689
69.44000 13394.547
69.48000 6154.517
69.52000 2772.584
69.56000 1765.910
69.60000 1398.365
69.64000 1175.740
69.68000 1022.136
69.72000 957.396
69.76000 879.707
69.80000 840.771
69.84000 769.928
69.88000 748.375
69.92000 712.905
69.96000 656.199
70.00000 661.697