File: XRD/XRD/30-09-2025 Dep 1/XY Data/BTO_Mapping_Theta2Theta_30-09-2025_001_11_13-383_14-863.xy
20.00000 586.493
20.04000 571.132
20.08000 566.329
20.12000 586.344
20.16000 563.774
20.20000 571.630
20.24000 568.384
20.28000 554.440
20.32000 573.892
20.36000 578.259
20.40000 549.961
20.44000 550.082
20.48000 553.974
20.52000 547.309
20.56000 557.359
20.60000 555.698
20.64000 552.683
20.68000 542.014
20.72000 568.161
20.76000 558.600
20.80000 560.796
20.84000 569.587
20.88000 539.559
20.92000 543.214
20.96000 572.596
21.00000 573.592
21.04000 559.345
21.08000 567.484
21.12000 541.606
21.16000 556.258
21.20000 550.715
21.24000 548.628
21.28000 563.407
21.32000 548.355
21.36000 555.284
21.40000 547.780
21.44000 570.767
21.48000 549.893
21.52000 537.041
21.56000 539.154
21.60000 563.934
21.64000 553.302
21.68000 570.074
21.72000 555.939
21.76000 583.265
21.80000 560.642
21.84000 583.975
21.88000 597.521
21.92000 620.744
21.96000 629.857
22.00000 641.750
22.04000 702.522
22.08000 651.906
22.12000 685.353
22.16000 656.178
22.20000 635.001
22.24000 624.296
22.28000 603.286
22.32000 578.412
22.36000 556.562
22.40000 543.135
22.44000 547.511
22.48000 550.420
22.52000 538.703
22.56000 521.483
22.60000 523.586
22.64000 515.656
22.68000 549.726
22.72000 508.712
22.76000 509.555
22.80000 519.084
22.84000 534.054
22.88000 511.571
22.92000 520.018
22.96000 505.491
23.00000 520.797
23.04000 502.008
23.08000 502.682
23.12000 512.324
23.16000 515.521
23.20000 519.379
23.24000 512.488
23.28000 515.475
23.32000 525.899
23.36000 520.668
23.40000 488.555
23.44000 499.539
23.48000 531.557
23.52000 501.822
23.56000 501.679
23.60000 507.292
23.64000 502.940
23.68000 517.746
23.72000 509.450
23.76000 509.364
23.80000 503.571
23.84000 521.420
23.88000 515.296
23.92000 494.830
23.96000 515.665
24.00000 541.390
24.04000 523.680
24.08000 520.116
24.12000 504.151
24.16000 515.164
24.20000 505.410
24.24000 520.426
24.28000 510.486
24.32000 489.424
24.36000 503.978
24.40000 509.866
24.44000 505.485
24.48000 489.610
24.52000 505.791
24.56000 495.225
24.60000 489.579
24.64000 495.279
24.68000 482.585
24.72000 497.004
24.76000 487.254
24.80000 470.764
24.84000 481.441
24.88000 496.550
24.92000 489.188
24.96000 482.177
25.00000 480.347
25.04000 488.134
25.08000 464.076
25.12000 452.126
25.16000 480.565
25.20000 488.640
25.24000 488.390
25.28000 465.644
25.32000 491.916
25.36000 465.474
25.40000 480.794
25.44000 470.719
25.48000 462.660
25.52000 467.157
25.56000 471.128
25.60000 501.393
25.64000 482.827
25.68000 468.762
25.72000 461.215
25.76000 469.848
25.80000 486.345
25.84000 475.683
25.88000 473.633
25.92000 472.418
25.96000 480.436
26.00000 461.477
26.04000 454.302
26.08000 461.734
26.12000 433.980
26.16000 468.886
26.20000 466.855
26.24000 463.305
26.28000 461.740
26.32000 462.776
26.36000 449.287
26.40000 451.963
26.44000 449.471
26.48000 447.874
26.52000 473.129
26.56000 453.076
26.60000 454.349
26.64000 446.399
26.68000 449.393
26.72000 457.823
26.76000 448.848
26.80000 445.290
26.84000 448.644
26.88000 429.347
26.92000 439.389
26.96000 445.922
27.00000 447.653
27.04000 463.056
27.08000 457.008
27.12000 442.667
27.16000 439.342
27.20000 446.063
27.24000 452.118
27.28000 437.401
27.32000 448.369
27.36000 460.755
27.40000 449.946
27.44000 433.513
27.48000 447.715
27.52000 445.906
27.56000 428.045
27.60000 444.786
27.64000 424.938
27.68000 432.505
27.72000 443.694
27.76000 440.668
27.80000 448.518
27.84000 446.758
27.88000 445.807
27.92000 433.885
27.96000 433.969
28.00000 429.459
28.04000 443.825
28.08000 422.612
28.12000 447.500
28.16000 427.219
28.20000 426.378
28.24000 435.430
28.28000 432.112
28.32000 429.446
28.36000 415.540
28.40000 435.580
28.44000 433.789
28.48000 426.811
28.52000 416.873
28.56000 433.931
28.60000 412.659
28.64000 435.262
28.68000 414.640
28.72000 412.735
28.76000 420.307
28.80000 424.355
28.84000 412.587
28.88000 409.776
28.92000 428.328
28.96000 413.765
29.00000 411.432
29.04000 420.213
29.08000 416.687
29.12000 439.147
29.16000 403.158
29.20000 399.560
29.24000 403.272
29.28000 424.023
29.32000 434.477
29.36000 400.721
29.40000 412.750
29.44000 402.922
29.48000 420.408
29.52000 422.852
29.56000 394.917
29.60000 394.799
29.64000 398.934
29.68000 422.877
29.72000 401.866
29.76000 427.878
29.80000 401.952
29.84000 427.284
29.88000 427.295
29.92000 448.480
29.96000 458.881
30.00000 449.744
30.04000 445.016
30.08000 446.802
30.12000 439.853
30.16000 435.173
30.20000 443.765
30.24000 439.949
30.28000 413.816
30.32000 405.608
30.36000 416.496
30.40000 431.628
30.44000 438.568
30.48000 409.232
30.52000 428.630
30.56000 429.612
30.60000 423.580
30.64000 443.651
30.68000 452.856
30.72000 425.572
30.76000 448.569
30.80000 447.245
30.84000 454.244
30.88000 470.753
30.92000 477.595
30.96000 511.391
31.00000 517.846
31.04000 606.384
31.08000 711.501
31.12000 864.005
31.16000 1129.297
31.20000 1510.278
31.24000 2028.120
31.28000 2555.630
31.32000 3020.444
31.36000 3315.955
31.40000 3381.677
31.44000 3149.498
31.48000 2755.889
31.52000 2188.456
31.56000 1685.636
31.60000 1257.283
31.64000 905.850
31.68000 680.458
31.72000 580.623
31.76000 527.303
31.80000 483.905
31.84000 457.204
31.88000 432.321
31.92000 416.090
31.96000 428.863
32.00000 423.372
32.04000 421.048
32.08000 405.924
32.12000 404.726
32.16000 410.255
32.20000 404.972
32.24000 404.107
32.28000 414.898
32.32000 408.072
32.36000 404.020
32.40000 382.412
32.44000 394.070
32.48000 376.689
32.52000 384.332
32.56000 387.496
32.60000 391.457
32.64000 396.349
32.68000 371.060
32.72000 364.300
32.76000 371.127
32.80000 362.658
32.84000 363.730
32.88000 387.444
32.92000 377.128
32.96000 385.386
33.00000 398.042
33.04000 386.792
33.08000 373.009
33.12000 363.214
33.16000 376.058
33.20000 355.214
33.24000 338.522
33.28000 365.088
33.32000 341.750
33.36000 339.362
33.40000 342.132
33.44000 355.918
33.48000 345.331
33.52000 362.108
33.56000 354.221
33.60000 335.324
33.64000 335.660
33.68000 351.146
33.72000 335.222
33.76000 339.911
33.80000 347.334
33.84000 352.173
33.88000 328.459
33.92000 341.617
33.96000 341.132
34.00000 344.880
34.04000 344.912
34.08000 341.592
34.12000 345.256
34.16000 348.123
34.20000 344.581
34.24000 320.567
34.28000 321.282
34.32000 347.545
34.36000 350.716
34.40000 352.840
34.44000 363.390
34.48000 348.360
34.52000 344.299
34.56000 357.980
34.60000 358.979
34.64000 342.739
34.68000 345.140
34.72000 332.330
34.76000 338.725
34.80000 332.965
34.84000 341.642
34.88000 332.743
34.92000 327.562
34.96000 325.070
35.00000 330.813
35.04000 312.556
35.08000 312.981
35.12000 307.634
35.16000 323.118
35.20000 320.548
35.24000 319.131
35.28000 324.601
35.32000 312.371
35.36000 322.761
35.40000 317.265
35.44000 303.999
35.48000 310.221
35.52000 319.996
35.56000 324.970
35.60000 312.399
35.64000 306.880
35.68000 308.874
35.72000 302.291
35.76000 311.994
35.80000 300.077
35.84000 310.607
35.88000 306.477
35.92000 312.730
35.96000 311.414
36.00000 307.666
36.04000 307.859
36.08000 303.002
36.12000 298.826
36.16000 306.220
36.20000 311.517
36.24000 305.887
36.28000 302.650
36.32000 310.546
36.36000 287.018
36.40000 298.150
36.44000 314.271
36.48000 299.969
36.52000 305.253
36.56000 310.610
36.60000 285.650
36.64000 280.893
36.68000 308.164
36.72000 296.549
36.76000 298.727
36.80000 305.325
36.84000 314.870
36.88000 306.376
36.92000 304.363
36.96000 299.599
37.00000 303.218
37.04000 321.264
37.08000 301.234
37.12000 304.602
37.16000 307.140
37.20000 294.937
37.24000 296.527
37.28000 305.110
37.32000 287.876
37.36000 291.654
37.40000 286.849
37.44000 300.765
37.48000 300.456
37.52000 308.033
37.56000 296.176
37.60000 291.309
37.64000 283.151
37.68000 281.039
37.72000 307.246
37.76000 291.106
37.80000 293.936
37.84000 295.263
37.88000 294.373
37.92000 290.989
37.96000 288.756
38.00000 300.260
38.04000 295.373
38.08000 304.884
38.12000 289.824
38.16000 294.989
38.20000 305.109
38.24000 311.051
38.28000 327.623
38.32000 309.714
38.36000 344.566
38.40000 368.389
38.44000 395.117
38.48000 429.592
38.52000 492.173
38.56000 595.051
38.60000 699.669
38.64000 845.525
38.68000 924.094
38.72000 999.216
38.76000 968.396
38.80000 919.342
38.84000 809.303
38.88000 679.439
38.92000 570.231
38.96000 484.834
39.00000 399.160
39.04000 345.871
39.08000 309.513
39.12000 292.539
39.16000 301.048
39.20000 305.987
39.24000 301.055
39.28000 278.844
39.32000 284.236
39.36000 266.538
39.40000 283.734
39.44000 272.265
39.48000 266.499
39.52000 273.595
39.56000 265.609
39.60000 279.677
39.64000 269.560
39.68000 277.017
39.72000 256.770
39.76000 272.791
39.80000 260.402
39.84000 272.106
39.88000 274.484
39.92000 254.949
39.96000 256.601
40.00000 253.276
40.04000 264.240
40.08000 264.562
40.12000 262.101
40.16000 268.107
40.20000 259.766
40.24000 254.173
40.28000 262.780
40.32000 246.942
40.36000 259.329
40.40000 265.087
40.44000 249.299
40.48000 271.368
40.52000 245.528
40.56000 250.542
40.60000 246.425
40.64000 246.804
40.68000 256.394
40.72000 251.956
40.76000 261.854
40.80000 235.460
40.84000 251.375
40.88000 251.629
40.92000 251.115
40.96000 250.835
41.00000 236.061
41.04000 255.641
41.08000 250.422
41.12000 258.811
41.16000 254.400
41.20000 240.098
41.24000 238.396
41.28000 242.794
41.32000 236.404
41.36000 234.079
41.40000 240.943
41.44000 254.048
41.48000 255.305
41.52000 234.149
41.56000 233.042
41.60000 235.959
41.64000 235.419
41.68000 248.505
41.72000 230.619
41.76000 234.663
41.80000 237.910
41.84000 237.193
41.88000 240.265
41.92000 247.401
41.96000 246.078
42.00000 240.654
42.04000 233.462
42.08000 231.943
42.12000 235.317
42.16000 244.725
42.20000 234.978
42.24000 228.493
42.28000 237.041
42.32000 224.105
42.36000 250.637
42.40000 233.647
42.44000 231.966
42.48000 218.972
42.52000 232.567
42.56000 231.783
42.60000 234.945
42.64000 232.119
42.68000 227.260
42.72000 228.631
42.76000 234.660
42.80000 230.395
42.84000 235.368
42.88000 231.803
42.92000 227.714
42.96000 214.027
43.00000 235.311
43.04000 242.284
43.08000 241.590
43.12000 233.270
43.16000 226.268
43.20000 219.463
43.24000 213.049
43.28000 216.968
43.32000 249.154
43.36000 227.670
43.40000 228.861
43.44000 230.146
43.48000 228.010
43.52000 228.216
43.56000 219.727
43.60000 226.765
43.64000 226.665
43.68000 209.985
43.72000 234.325
43.76000 236.547
43.80000 227.444
43.84000 218.529
43.88000 218.203
43.92000 228.176
43.96000 234.026
44.00000 227.203
44.04000 223.490
44.08000 217.122
44.12000 210.107
44.16000 232.149
44.20000 226.912
44.24000 224.156
44.28000 233.611
44.32000 229.181
44.36000 228.806
44.40000 233.025
44.44000 229.805
44.48000 225.533
44.52000 219.054
44.56000 228.265
44.60000 227.573
44.64000 234.126
44.68000 240.302
44.72000 243.176
44.76000 249.152
44.80000 253.312
44.84000 263.089
44.88000 260.325
44.92000 282.453
44.96000 302.889
45.00000 334.053
45.04000 334.438
45.08000 322.837
45.12000 339.171
45.16000 360.028
45.20000 333.928
45.24000 329.854
45.28000 307.458
45.32000 291.276
45.36000 265.237
45.40000 252.731
45.44000 246.166
45.48000 245.986
45.52000 238.705
45.56000 239.079
45.60000 216.500
45.64000 235.101
45.68000 215.765
45.72000 217.341
45.76000 210.116
45.80000 219.321
45.84000 200.143
45.88000 219.039
45.92000 194.810
45.96000 194.866
46.00000 204.186
46.04000 208.225
46.08000 213.510
46.12000 204.877
46.16000 201.889
46.20000 203.846
46.24000 206.034
46.28000 211.813
46.32000 211.652
46.36000 209.600
46.40000 217.475
46.44000 210.151
46.48000 203.156
46.52000 211.546
46.56000 216.153
46.60000 202.787
46.64000 201.338
46.68000 209.792
46.72000 202.354
46.76000 200.420
46.80000 201.915
46.84000 200.227
46.88000 204.501
46.92000 202.422
46.96000 191.024
47.00000 195.148
47.04000 202.477
47.08000 187.748
47.12000 194.500
47.16000 181.130
47.20000 196.386
47.24000 203.441
47.28000 192.633
47.32000 194.215
47.36000 195.666
47.40000 184.150
47.44000 197.730
47.48000 196.545
47.52000 190.416
47.56000 187.931
47.60000 186.353
47.64000 189.942
47.68000 191.468
47.72000 177.689
47.76000 177.513
47.80000 192.201
47.84000 192.618
47.88000 183.663
47.92000 193.675
47.96000 180.713
48.00000 179.578
48.04000 188.457
48.08000 194.665
48.12000 185.211
48.16000 193.978
48.20000 193.272
48.24000 178.070
48.28000 187.268
48.32000 188.968
48.36000 185.301
48.40000 180.753
48.44000 186.356
48.48000 184.956
48.52000 175.704
48.56000 184.199
48.60000 176.711
48.64000 180.098
48.68000 180.669
48.72000 188.134
48.76000 189.486
48.80000 183.949
48.84000 177.592
48.88000 195.653
48.92000 179.844
48.96000 180.316
49.00000 176.895
49.04000 181.716
49.08000 192.282
49.12000 165.121
49.16000 175.187
49.20000 174.559
49.24000 181.289
49.28000 180.672
49.32000 188.131
49.36000 178.712
49.40000 177.135
49.44000 179.668
49.48000 183.850
49.52000 175.499
49.56000 177.544
49.60000 184.227
49.64000 176.529
49.68000 168.397
49.72000 172.155
49.76000 172.157
49.80000 183.285
49.84000 174.629
49.88000 174.467
49.92000 167.133
49.96000 165.160
50.00000 177.071
50.04000 178.336
50.08000 171.471
50.12000 172.902
50.16000 180.253
50.20000 188.080
50.24000 168.015
50.28000 178.902
50.32000 186.338
50.36000 189.324
50.40000 188.927
50.44000 187.338
50.48000 204.805
50.52000 215.775
50.56000 244.072
50.60000 252.992
50.64000 242.251
50.68000 263.102
50.72000 259.582
50.76000 247.556
50.80000 258.275
50.84000 244.505
50.88000 231.499
50.92000 212.151
50.96000 208.076
51.00000 200.727
51.04000 194.407
51.08000 191.419
51.12000 184.879
51.16000 173.588
51.20000 171.056
51.24000 162.879
51.28000 168.647
51.32000 172.584
51.36000 167.866
51.40000 162.560
51.44000 166.757
51.48000 161.879
51.52000 171.235
51.56000 164.231
51.60000 161.855
51.64000 168.385
51.68000 164.328
51.72000 160.717
51.76000 151.989
51.80000 155.370
51.84000 158.829
51.88000 161.621
51.92000 169.766
51.96000 166.574
52.00000 154.957
52.04000 157.328
52.08000 166.320
52.12000 158.568
52.16000 170.664
52.20000 175.441
52.24000 162.762
52.28000 169.255
52.32000 167.727
52.36000 157.742
52.40000 157.666
52.44000 150.008
52.48000 144.057
52.52000 160.182
52.56000 159.411
52.60000 171.171
52.64000 164.502
52.68000 176.525
52.72000 143.638
52.76000 165.151
52.80000 154.827
52.84000 155.082
52.88000 155.016
52.92000 154.582
52.96000 158.533
53.00000 155.939
53.04000 164.415
53.08000 164.501
53.12000 158.340
53.16000 166.016
53.20000 158.702
53.24000 154.329
53.28000 168.985
53.32000 155.415
53.36000 152.609
53.40000 155.744
53.44000 157.903
53.48000 160.694
53.52000 167.427
53.56000 161.603
53.60000 163.246
53.64000 150.484
53.68000 161.196
53.72000 152.237
53.76000 159.991
53.80000 147.783
53.84000 160.828
53.88000 167.395
53.92000 164.378
53.96000 159.276
54.00000 156.988
54.04000 153.811
54.08000 157.860
54.12000 158.278
54.16000 162.931
54.20000 159.000
54.24000 157.279
54.28000 164.789
54.32000 146.532
54.36000 163.787
54.40000 160.964
54.44000 166.208
54.48000 173.955
54.52000 149.224
54.56000 164.102
54.60000 157.964
54.64000 155.996
54.68000 159.038
54.72000 165.020
54.76000 153.360
54.80000 156.018
54.84000 163.065
54.88000 161.239
54.92000 163.072
54.96000 158.516
55.00000 153.520
55.04000 154.908
55.08000 154.522
55.12000 164.100
55.16000 160.630
55.20000 161.584
55.24000 173.463
55.28000 163.673
55.32000 174.427
55.36000 176.626
55.40000 185.491
55.44000 168.204
55.48000 189.569
55.52000 185.246
55.56000 214.315
55.60000 219.403
55.64000 247.244
55.68000 286.089
55.72000 330.942
55.76000 393.763
55.80000 469.917
55.84000 546.435
55.88000 584.121
55.92000 651.752
55.96000 647.502
56.00000 622.432
56.04000 607.339
56.08000 548.776
56.12000 457.961
56.16000 401.081
56.20000 359.469
56.24000 305.400
56.28000 261.408
56.32000 221.951
56.36000 201.715
56.40000 190.270
56.44000 184.565
56.48000 176.242
56.52000 171.565
56.56000 155.279
56.60000 165.850
56.64000 167.368
56.68000 151.032
56.72000 153.592
56.76000 152.670
56.80000 153.467
56.84000 158.068
56.88000 156.149
56.92000 151.375
56.96000 153.325
57.00000 147.679
57.04000 148.120
57.08000 139.708
57.12000 136.096
57.16000 146.617
57.20000 140.435
57.24000 146.593
57.28000 150.803
57.32000 146.947
57.36000 140.932
57.40000 141.789
57.44000 143.723
57.48000 133.585
57.52000 142.204
57.56000 145.259
57.60000 145.654
57.64000 146.269
57.68000 150.418
57.72000 152.477
57.76000 145.767
57.80000 146.524
57.84000 143.257
57.88000 142.755
57.92000 143.118
57.96000 143.223
58.00000 138.281
58.04000 148.858
58.08000 136.722
58.12000 137.556
58.16000 143.578
58.20000 146.531
58.24000 147.575
58.28000 147.086
58.32000 131.066
58.36000 139.192
58.40000 130.443
58.44000 139.330
58.48000 138.171
58.52000 131.190
58.56000 127.067
58.60000 134.040
58.64000 129.643
58.68000 136.991
58.72000 144.881
58.76000 143.075
58.80000 134.468
58.84000 143.406
58.88000 138.128
58.92000 135.724
58.96000 134.265
59.00000 137.755
59.04000 128.521
59.08000 137.648
59.12000 142.323
59.16000 140.109
59.20000 136.279
59.24000 120.988
59.28000 129.194
59.32000 139.155
59.36000 130.971
59.40000 134.796
59.44000 138.301
59.48000 128.345
59.52000 149.713
59.56000 135.189
59.60000 136.069
59.64000 137.195
59.68000 142.571
59.72000 144.164
59.76000 116.247
59.80000 138.346
59.84000 121.727
59.88000 131.512
59.92000 139.456
59.96000 134.630
60.00000 133.607
60.04000 138.510
60.08000 121.020
60.12000 133.971
60.16000 137.836
60.20000 130.707
60.24000 134.345
60.28000 134.436
60.32000 136.753
60.36000 135.100
60.40000 131.623
60.44000 128.511
60.48000 136.603
60.52000 134.088
60.56000 139.155
60.60000 136.126
60.64000 127.348
60.68000 137.906
60.72000 136.583
60.76000 138.427
60.80000 149.142
60.84000 140.960
60.88000 127.869
60.92000 134.646
60.96000 130.256
61.00000 124.652
61.04000 129.621
61.08000 145.383
61.12000 131.892
61.16000 141.454
61.20000 137.504
61.24000 142.192
61.28000 125.306
61.32000 132.652
61.36000 137.444
61.40000 143.278
61.44000 147.875
61.48000 153.814
61.52000 160.285
61.56000 192.144
61.60000 219.198
61.64000 243.408
61.68000 257.392
61.72000 256.243
61.76000 239.155
61.80000 212.799
61.84000 171.574
61.88000 161.845
61.92000 148.351
61.96000 142.803
62.00000 141.113
62.04000 136.587
62.08000 140.561
62.12000 145.482
62.16000 135.574
62.20000 137.962
62.24000 140.374
62.28000 144.696
62.32000 139.554
62.36000 147.878
62.40000 138.608
62.44000 145.625
62.48000 145.372
62.52000 137.444
62.56000 138.597
62.60000 137.370
62.64000 148.308
62.68000 152.178
62.72000 143.455
62.76000 135.556
62.80000 148.330
62.84000 141.333
62.88000 147.890
62.92000 139.205
62.96000 145.998
63.00000 136.720
63.04000 143.218
63.08000 138.930
63.12000 141.641
63.16000 144.152
63.20000 144.113
63.24000 137.669
63.28000 139.434
63.32000 142.575
63.36000 151.073
63.40000 140.271
63.44000 153.388
63.48000 154.774
63.52000 154.054
63.56000 146.350
63.60000 145.918
63.64000 147.247
63.68000 148.775
63.72000 154.050
63.76000 154.589
63.80000 144.530
63.84000 144.546
63.88000 144.408
63.92000 162.150
63.96000 166.778
64.00000 164.914
64.04000 162.183
64.08000 153.243
64.12000 150.809
64.16000 153.813
64.20000 147.914
64.24000 158.608
64.28000 168.728
64.32000 169.163
64.36000 149.151
64.40000 163.159
64.44000 153.029
64.48000 157.806
64.52000 173.146
64.56000 167.361
64.60000 164.317
64.64000 160.039
64.68000 174.451
64.72000 163.288
64.76000 169.423
64.80000 175.718
64.84000 185.470
64.88000 178.695
64.92000 162.818
64.96000 176.593
65.00000 184.747
65.04000 195.258
65.08000 197.963
65.12000 197.164
65.16000 221.310
65.20000 218.910
65.24000 248.760
65.28000 256.606
65.32000 272.477
65.36000 291.120
65.40000 296.511
65.44000 328.440
65.48000 364.222
65.52000 379.368
65.56000 403.456
65.60000 423.225
65.64000 440.531
65.68000 481.336
65.72000 607.714
65.76000 734.378
65.80000 898.937
65.84000 937.328
65.88000 938.544
65.92000 925.592
65.96000 758.105
66.00000 566.820
66.04000 412.638
66.08000 320.024
66.12000 295.163
66.16000 279.775
66.20000 269.702
66.24000 282.356
66.28000 320.760
66.32000 345.355
66.36000 392.029
66.40000 395.589
66.44000 396.041
66.48000 386.684
66.52000 366.002
66.56000 320.781
66.60000 315.426
66.64000 313.164
66.68000 301.560
66.72000 291.084
66.76000 309.979
66.80000 286.341
66.84000 299.660
66.88000 314.492
66.92000 324.211
66.96000 314.348
67.00000 322.811
67.04000 331.068
67.08000 328.409
67.12000 351.280
67.16000 349.112
67.20000 343.591
67.24000 350.655
67.28000 355.794
67.32000 358.026
67.36000 381.272
67.40000 367.379
67.44000 380.257
67.48000 382.544
67.52000 394.410
67.56000 406.750
67.60000 411.647
67.64000 406.597
67.68000 426.782
67.72000 425.376
67.76000 437.061
67.80000 448.193
67.84000 436.814
67.88000 471.037
67.92000 489.935
67.96000 485.001
68.00000 499.911
68.04000 489.941
68.08000 535.613
68.12000 514.908
68.16000 539.850
68.20000 547.358
68.24000 554.250
68.28000 572.730
68.32000 580.192
68.36000 598.709
68.40000 638.278
68.44000 670.048
68.48000 677.589
68.52000 709.543
68.56000 822.291
68.60000 870.850
68.64000 1005.404
68.68000 1201.817
68.72000 1381.917
68.76000 1530.480
68.80000 1778.908
68.84000 2040.871
68.88000 2409.106
68.92000 4396.129
68.96000 10764.636
69.00000 25644.252
69.04000 40751.641
69.08000 48178.496
69.12000 48851.633
69.16000 50969.195
69.20000 50710.449
69.24000 42127.535
69.28000 31925.148
69.32000 26472.844
69.36000 23951.168
69.40000 19559.248
69.44000 11533.992
69.48000 5181.086
69.52000 2424.959
69.56000 1565.977
69.60000 1285.076
69.64000 1087.526
69.68000 1007.803
69.72000 899.693
69.76000 828.429
69.80000 765.061
69.84000 750.246
69.88000 690.568
69.92000 661.933
69.96000 652.188
70.00000 627.001