File: XRD/25-09-2025/XY Data/BTO_Mapping_Theta2Theta_25-09-2025_001_52_9-271_-28-532.xy
20.00000 553.720
20.04000 553.513
20.08000 553.684
20.12000 565.658
20.16000 567.815
20.20000 574.895
20.24000 544.836
20.28000 566.938
20.32000 560.509
20.36000 550.430
20.40000 560.236
20.44000 537.805
20.48000 535.904
20.52000 524.541
20.56000 555.483
20.60000 541.607
20.64000 575.385
20.68000 548.982
20.72000 535.480
20.76000 558.770
20.80000 562.788
20.84000 542.678
20.88000 551.075
20.92000 536.204
20.96000 551.008
21.00000 538.082
21.04000 535.707
21.08000 553.913
21.12000 535.876
21.16000 557.884
21.20000 530.069
21.24000 548.145
21.28000 549.303
21.32000 528.742
21.36000 550.540
21.40000 533.120
21.44000 540.471
21.48000 533.328
21.52000 528.494
21.56000 538.414
21.60000 534.879
21.64000 530.962
21.68000 538.547
21.72000 529.813
21.76000 563.145
21.80000 557.077
21.84000 584.358
21.88000 554.354
21.92000 582.622
21.96000 590.506
22.00000 592.198
22.04000 630.887
22.08000 626.764
22.12000 639.498
22.16000 621.939
22.20000 607.012
22.24000 620.229
22.28000 621.270
22.32000 618.064
22.36000 591.186
22.40000 577.590
22.44000 568.366
22.48000 570.890
22.52000 564.527
22.56000 560.790
22.60000 521.823
22.64000 512.895
22.68000 533.139
22.72000 521.341
22.76000 515.958
22.80000 522.132
22.84000 515.225
22.88000 512.337
22.92000 503.933
22.96000 526.756
23.00000 499.183
23.04000 513.556
23.08000 487.744
23.12000 510.729
23.16000 493.424
23.20000 509.640
23.24000 519.318
23.28000 518.245
23.32000 488.249
23.36000 499.089
23.40000 487.966
23.44000 483.534
23.48000 486.310
23.52000 466.784
23.56000 499.542
23.60000 494.738
23.64000 476.194
23.68000 505.802
23.72000 485.321
23.76000 502.082
23.80000 489.559
23.84000 487.405
23.88000 485.224
23.92000 476.873
23.96000 493.870
24.00000 482.077
24.04000 480.550
24.08000 488.322
24.12000 474.556
24.16000 476.122
24.20000 487.678
24.24000 467.741
24.28000 465.989
24.32000 483.218
24.36000 489.453
24.40000 491.887
24.44000 479.368
24.48000 475.698
24.52000 475.453
24.56000 478.038
24.60000 481.113
24.64000 480.145
24.68000 464.285
24.72000 493.171
24.76000 475.067
24.80000 467.948
24.84000 450.837
24.88000 480.891
24.92000 463.436
24.96000 473.118
25.00000 469.381
25.04000 494.561
25.08000 472.280
25.12000 467.841
25.16000 470.461
25.20000 480.937
25.24000 471.006
25.28000 477.385
25.32000 467.032
25.36000 463.596
25.40000 457.108
25.44000 464.055
25.48000 484.626
25.52000 463.005
25.56000 472.675
25.60000 453.766
25.64000 463.491
25.68000 467.991
25.72000 441.028
25.76000 455.424
25.80000 470.858
25.84000 436.536
25.88000 452.094
25.92000 468.566
25.96000 453.740
26.00000 468.529
26.04000 476.526
26.08000 439.377
26.12000 452.207
26.16000 430.116
26.20000 453.922
26.24000 456.035
26.28000 457.267
26.32000 449.349
26.36000 457.044
26.40000 448.365
26.44000 473.175
26.48000 451.958
26.52000 428.507
26.56000 435.400
26.60000 429.997
26.64000 450.074
26.68000 432.170
26.72000 443.173
26.76000 431.123
26.80000 436.663
26.84000 436.920
26.88000 420.236
26.92000 447.404
26.96000 425.075
27.00000 438.789
27.04000 443.099
27.08000 441.398
27.12000 437.984
27.16000 412.890
27.20000 421.960
27.24000 433.109
27.28000 432.079
27.32000 441.555
27.36000 433.125
27.40000 428.220
27.44000 423.805
27.48000 422.718
27.52000 433.077
27.56000 422.649
27.60000 421.373
27.64000 421.869
27.68000 411.345
27.72000 419.861
27.76000 420.743
27.80000 415.546
27.84000 428.603
27.88000 428.763
27.92000 422.804
27.96000 431.915
28.00000 420.250
28.04000 409.903
28.08000 434.083
28.12000 407.688
28.16000 411.670
28.20000 427.784
28.24000 418.544
28.28000 427.453
28.32000 423.031
28.36000 425.078
28.40000 399.716
28.44000 423.636
28.48000 409.410
28.52000 412.823
28.56000 413.762
28.60000 411.888
28.64000 409.923
28.68000 415.439
28.72000 387.367
28.76000 413.856
28.80000 412.407
28.84000 412.121
28.88000 416.818
28.92000 415.919
28.96000 413.162
29.00000 403.132
29.04000 405.717
29.08000 408.134
29.12000 415.578
29.16000 393.504
29.20000 403.645
29.24000 392.947
29.28000 404.756
29.32000 391.934
29.36000 397.948
29.40000 392.694
29.44000 397.536
29.48000 394.690
29.52000 397.027
29.56000 398.872
29.60000 412.855
29.64000 391.399
29.68000 403.486
29.72000 396.186
29.76000 406.028
29.80000 405.875
29.84000 400.613
29.88000 421.394
29.92000 422.387
29.96000 394.354
30.00000 425.235
30.04000 404.129
30.08000 406.515
30.12000 416.542
30.16000 412.264
30.20000 403.327
30.24000 399.921
30.28000 423.635
30.32000 401.135
30.36000 412.125
30.40000 385.410
30.44000 402.632
30.48000 419.737
30.52000 409.510
30.56000 406.960
30.60000 414.844
30.64000 404.339
30.68000 412.446
30.72000 403.405
30.76000 388.136
30.80000 413.414
30.84000 407.111
30.88000 415.476
30.92000 442.935
30.96000 460.935
31.00000 465.783
31.04000 507.052
31.08000 537.241
31.12000 635.477
31.16000 728.053
31.20000 897.751
31.24000 1029.916
31.28000 1222.026
31.32000 1355.850
31.36000 1442.245
31.40000 1474.007
31.44000 1428.086
31.48000 1321.712
31.52000 1187.618
31.56000 1047.761
31.60000 897.811
31.64000 739.901
31.68000 637.049
31.72000 588.914
31.76000 513.482
31.80000 499.161
31.84000 490.460
31.88000 451.029
31.92000 425.756
31.96000 412.682
32.00000 402.948
32.04000 400.383
32.08000 404.503
32.12000 400.884
32.16000 385.811
32.20000 390.365
32.24000 392.306
32.28000 372.527
32.32000 392.384
32.36000 377.009
32.40000 384.255
32.44000 350.220
32.48000 357.827
32.52000 369.069
32.56000 346.211
32.60000 369.609
32.64000 353.046
32.68000 360.465
32.72000 360.255
32.76000 344.365
32.80000 371.697
32.84000 356.784
32.88000 360.242
32.92000 361.994
32.96000 336.654
33.00000 369.331
33.04000 369.883
33.08000 365.671
33.12000 347.939
33.16000 342.405
33.20000 343.406
33.24000 338.837
33.28000 337.095
33.32000 331.022
33.36000 330.396
33.40000 348.625
33.44000 336.409
33.48000 331.823
33.52000 340.583
33.56000 337.788
33.60000 336.074
33.64000 330.514
33.68000 323.809
33.72000 325.610
33.76000 325.366
33.80000 332.892
33.84000 322.920
33.88000 329.008
33.92000 320.141
33.96000 333.021
34.00000 337.669
34.04000 322.951
34.08000 335.044
34.12000 340.107
34.16000 335.829
34.20000 322.823
34.24000 336.744
34.28000 310.923
34.32000 323.288
34.36000 316.321
34.40000 331.190
34.44000 311.328
34.48000 323.922
34.52000 322.206
34.56000 306.276
34.60000 305.829
34.64000 312.404
34.68000 303.845
34.72000 316.715
34.76000 320.801
34.80000 320.793
34.84000 307.771
34.88000 301.347
34.92000 321.204
34.96000 305.844
35.00000 317.390
35.04000 300.981
35.08000 305.882
35.12000 316.370
35.16000 304.482
35.20000 311.993
35.24000 312.906
35.28000 304.139
35.32000 315.626
35.36000 310.126
35.40000 307.096
35.44000 299.888
35.48000 311.743
35.52000 302.030
35.56000 301.551
35.60000 306.169
35.64000 291.495
35.68000 308.833
35.72000 297.417
35.76000 311.851
35.80000 302.853
35.84000 312.938
35.88000 309.036
35.92000 301.524
35.96000 294.588
36.00000 295.206
36.04000 294.891
36.08000 301.078
36.12000 295.360
36.16000 289.633
36.20000 298.550
36.24000 291.572
36.28000 304.595
36.32000 307.451
36.36000 297.597
36.40000 288.428
36.44000 296.067
36.48000 299.593
36.52000 292.371
36.56000 302.235
36.60000 283.077
36.64000 289.552
36.68000 296.286
36.72000 308.446
36.76000 299.244
36.80000 288.003
36.84000 300.284
36.88000 287.633
36.92000 290.647
36.96000 288.411
37.00000 290.756
37.04000 297.802
37.08000 303.419
37.12000 286.935
37.16000 283.387
37.20000 291.458
37.24000 279.215
37.28000 283.602
37.32000 283.287
37.36000 292.334
37.40000 280.554
37.44000 286.814
37.48000 292.623
37.52000 286.483
37.56000 287.350
37.60000 268.139
37.64000 284.864
37.68000 293.978
37.72000 276.838
37.76000 285.276
37.80000 279.067
37.84000 282.101
37.88000 285.512
37.92000 274.482
37.96000 278.074
38.00000 279.207
38.04000 295.076
38.08000 285.870
38.12000 282.826
38.16000 292.429
38.20000 301.853
38.24000 289.783
38.28000 297.335
38.32000 299.175
38.36000 316.526
38.40000 337.850
38.44000 373.806
38.48000 417.081
38.52000 470.498
38.56000 545.515
38.60000 632.345
38.64000 723.234
38.68000 783.374
38.72000 827.357
38.76000 831.652
38.80000 782.335
38.84000 718.433
38.88000 629.747
38.92000 534.104
38.96000 486.727
39.00000 414.565
39.04000 371.451
39.08000 333.855
39.12000 308.164
39.16000 281.374
39.20000 293.403
39.24000 279.089
39.28000 272.217
39.32000 268.727
39.36000 285.229
39.40000 274.487
39.44000 263.735
39.48000 254.339
39.52000 271.632
39.56000 263.164
39.60000 254.935
39.64000 253.705
39.68000 259.206
39.72000 263.789
39.76000 255.738
39.80000 275.888
39.84000 255.095
39.88000 255.909
39.92000 263.903
39.96000 242.467
40.00000 251.343
40.04000 262.381
40.08000 262.769
40.12000 252.531
40.16000 249.304
40.20000 259.913
40.24000 239.223
40.28000 242.231
40.32000 251.323
40.36000 253.437
40.40000 261.256
40.44000 255.288
40.48000 246.237
40.52000 245.019
40.56000 249.842
40.60000 249.608
40.64000 229.582
40.68000 255.625
40.72000 258.042
40.76000 244.758
40.80000 237.753
40.84000 247.037
40.88000 245.322
40.92000 249.668
40.96000 247.784
41.00000 238.656
41.04000 238.536
41.08000 232.518
41.12000 257.602
41.16000 232.024
41.20000 234.727
41.24000 245.356
41.28000 229.317
41.32000 240.261
41.36000 240.643
41.40000 240.577
41.44000 251.359
41.48000 253.595
41.52000 249.592
41.56000 246.600
41.60000 233.603
41.64000 240.537
41.68000 238.475
41.72000 241.780
41.76000 226.773
41.80000 229.381
41.84000 235.357
41.88000 239.376
41.92000 243.619
41.96000 235.792
42.00000 234.150
42.04000 229.446
42.08000 235.849
42.12000 222.573
42.16000 217.192
42.20000 223.382
42.24000 226.577
42.28000 222.941
42.32000 231.101
42.36000 240.678
42.40000 235.504
42.44000 238.093
42.48000 236.039
42.52000 231.563
42.56000 216.615
42.60000 228.861
42.64000 230.810
42.68000 224.681
42.72000 225.229
42.76000 232.151
42.80000 224.292
42.84000 217.965
42.88000 227.111
42.92000 217.416
42.96000 213.860
43.00000 223.389
43.04000 219.045
43.08000 229.137
43.12000 225.611
43.16000 230.228
43.20000 230.662
43.24000 227.660
43.28000 232.299
43.32000 226.259
43.36000 222.431
43.40000 221.889
43.44000 219.579
43.48000 216.382
43.52000 213.533
43.56000 226.706
43.60000 217.804
43.64000 217.095
43.68000 224.620
43.72000 220.407
43.76000 219.315
43.80000 208.069
43.84000 224.640
43.88000 226.373
43.92000 222.909
43.96000 222.651
44.00000 218.694
44.04000 234.893
44.08000 216.299
44.12000 214.679
44.16000 205.191
44.20000 210.054
44.24000 218.720
44.28000 218.248
44.32000 225.407
44.36000 227.141
44.40000 228.761
44.44000 214.121
44.48000 216.776
44.52000 212.030
44.56000 209.421
44.60000 227.120
44.64000 240.397
44.68000 224.855
44.72000 230.514
44.76000 240.690
44.80000 240.903
44.84000 243.920
44.88000 236.703
44.92000 244.728
44.96000 248.793
45.00000 255.792
45.04000 261.756
45.08000 258.543
45.12000 271.508
45.16000 268.206
45.20000 263.453
45.24000 263.150
45.28000 271.058
45.32000 273.703
45.36000 255.253
45.40000 250.743
45.44000 252.249
45.48000 247.778
45.52000 246.943
45.56000 254.030
45.60000 263.583
45.64000 244.622
45.68000 244.844
45.72000 223.945
45.76000 228.977
45.80000 232.295
45.84000 235.035
45.88000 237.732
45.92000 222.264
45.96000 219.916
46.00000 219.336
46.04000 208.707
46.08000 206.544
46.12000 203.507
46.16000 204.851
46.20000 215.501
46.24000 218.289
46.28000 200.898
46.32000 211.688
46.36000 203.534
46.40000 204.938
46.44000 203.976
46.48000 192.935
46.52000 191.680
46.56000 198.445
46.60000 194.546
46.64000 188.624
46.68000 198.337
46.72000 198.444
46.76000 196.339
46.80000 197.831
46.84000 217.749
46.88000 199.078
46.92000 175.099
46.96000 199.549
47.00000 195.379
47.04000 189.967
47.08000 190.403
47.12000 186.578
47.16000 194.674
47.20000 186.043
47.24000 190.840
47.28000 184.152
47.32000 184.050
47.36000 189.436
47.40000 192.962
47.44000 172.977
47.48000 186.841
47.52000 187.875
47.56000 184.893
47.60000 180.846
47.64000 188.328
47.68000 186.509
47.72000 181.304
47.76000 178.135
47.80000 189.132
47.84000 185.902
47.88000 195.885
47.92000 176.716
47.96000 184.180
48.00000 178.726
48.04000 179.721
48.08000 168.015
48.12000 188.294
48.16000 187.135
48.20000 180.001
48.24000 171.837
48.28000 184.313
48.32000 184.502
48.36000 184.322
48.40000 177.193
48.44000 186.563
48.48000 175.766
48.52000 175.780
48.56000 175.815
48.60000 179.429
48.64000 179.250
48.68000 180.389
48.72000 185.707
48.76000 185.488
48.80000 179.886
48.84000 182.651
48.88000 185.319
48.92000 172.564
48.96000 180.797
49.00000 164.050
49.04000 180.806
49.08000 171.878
49.12000 187.749
49.16000 173.720
49.20000 178.217
49.24000 176.781
49.28000 190.797
49.32000 179.726
49.36000 169.414
49.40000 156.533
49.44000 172.761
49.48000 165.970
49.52000 183.140
49.56000 178.162
49.60000 185.016
49.64000 169.659
49.68000 170.275
49.72000 170.352
49.76000 166.266
49.80000 164.720
49.84000 175.824
49.88000 170.465
49.92000 159.884
49.96000 179.436
50.00000 173.535
50.04000 178.735
50.08000 173.952
50.12000 172.606
50.16000 170.663
50.20000 178.568
50.24000 191.799
50.28000 175.471
50.32000 176.188
50.36000 180.178
50.40000 175.505
50.44000 181.027
50.48000 178.219
50.52000 187.996
50.56000 195.941
50.60000 198.023
50.64000 188.536
50.68000 207.759
50.72000 206.061
50.76000 206.340
50.80000 205.449
50.84000 199.401
50.88000 188.452
50.92000 194.124
50.96000 189.808
51.00000 183.266
51.04000 184.540
51.08000 193.534
51.12000 172.956
51.16000 170.061
51.20000 182.871
51.24000 167.861
51.28000 167.670
51.32000 175.434
51.36000 172.948
51.40000 170.726
51.44000 160.595
51.48000 161.840
51.52000 160.771
51.56000 168.118
51.60000 147.295
51.64000 151.251
51.68000 165.006
51.72000 167.411
51.76000 162.924
51.80000 169.608
51.84000 149.321
51.88000 155.580
51.92000 165.722
51.96000 163.103
52.00000 174.782
52.04000 162.087
52.08000 154.077
52.12000 150.751
52.16000 166.693
52.20000 164.194
52.24000 145.519
52.28000 147.538
52.32000 154.629
52.36000 152.291
52.40000 151.103
52.44000 159.750
52.48000 162.315
52.52000 162.678
52.56000 159.617
52.60000 157.701
52.64000 156.138
52.68000 156.634
52.72000 154.335
52.76000 159.364
52.80000 151.067
52.84000 166.220
52.88000 167.630
52.92000 145.422
52.96000 156.080
53.00000 153.507
53.04000 148.989
53.08000 160.501
53.12000 161.715
53.16000 161.567
53.20000 157.695
53.24000 162.505
53.28000 159.278
53.32000 157.248
53.36000 158.330
53.40000 151.130
53.44000 155.277
53.48000 149.747
53.52000 150.455
53.56000 161.221
53.60000 158.675
53.64000 153.215
53.68000 156.888
53.72000 151.752
53.76000 163.454
53.80000 157.706
53.84000 147.285
53.88000 152.363
53.92000 156.836
53.96000 139.617
54.00000 153.621
54.04000 150.914
54.08000 158.947
54.12000 144.826
54.16000 157.140
54.20000 141.403
54.24000 147.419
54.28000 156.519
54.32000 140.806
54.36000 151.361
54.40000 157.792
54.44000 155.500
54.48000 147.170
54.52000 147.213
54.56000 154.605
54.60000 159.110
54.64000 155.815
54.68000 161.176
54.72000 148.156
54.76000 148.642
54.80000 153.447
54.84000 154.826
54.88000 155.913
54.92000 144.027
54.96000 147.431
55.00000 145.086
55.04000 151.569
55.08000 163.355
55.12000 140.407
55.16000 154.503
55.20000 154.663
55.24000 151.642
55.28000 144.557
55.32000 147.107
55.36000 158.288
55.40000 155.620
55.44000 174.366
55.48000 179.777
55.52000 186.574
55.56000 200.210
55.60000 214.188
55.64000 244.790
55.68000 280.694
55.72000 319.008
55.76000 342.104
55.80000 374.436
55.84000 413.078
55.88000 450.969
55.92000 464.565
55.96000 468.675
56.00000 453.916
56.04000 448.158
56.08000 435.740
56.12000 408.854
56.16000 344.743
56.20000 330.832
56.24000 304.096
56.28000 265.853
56.32000 251.133
56.36000 229.840
56.40000 215.144
56.44000 195.187
56.48000 180.043
56.52000 171.424
56.56000 169.720
56.60000 159.065
56.64000 172.343
56.68000 160.773
56.72000 151.304
56.76000 137.640
56.80000 145.943
56.84000 143.734
56.88000 148.657
56.92000 148.699
56.96000 150.261
57.00000 150.244
57.04000 148.916
57.08000 140.632
57.12000 161.389
57.16000 150.606
57.20000 146.820
57.24000 141.558
57.28000 133.983
57.32000 135.249
57.36000 139.266
57.40000 130.870
57.44000 132.641
57.48000 144.852
57.52000 143.889
57.56000 135.407
57.60000 146.478
57.64000 140.233
57.68000 149.570
57.72000 139.882
57.76000 137.034
57.80000 144.973
57.84000 137.778
57.88000 134.096
57.92000 139.682
57.96000 137.532
58.00000 138.171
58.04000 144.145
58.08000 143.172
58.12000 141.237
58.16000 141.316
58.20000 134.589
58.24000 139.026
58.28000 140.044
58.32000 132.369
58.36000 151.500
58.40000 136.448
58.44000 126.469
58.48000 139.771
58.52000 130.593
58.56000 147.108
58.60000 138.492
58.64000 135.974
58.68000 141.408
58.72000 135.575
58.76000 131.967
58.80000 137.025
58.84000 137.773
58.88000 136.575
58.92000 127.698
58.96000 133.097
59.00000 135.737
59.04000 133.220
59.08000 133.288
59.12000 134.217
59.16000 136.696
59.20000 129.582
59.24000 124.687
59.28000 134.841
59.32000 130.904
59.36000 132.196
59.40000 135.332
59.44000 138.158
59.48000 129.200
59.52000 129.097
59.56000 131.332
59.60000 131.584
59.64000 140.530
59.68000 134.613
59.72000 129.313
59.76000 137.617
59.80000 136.773
59.84000 129.034
59.88000 135.603
59.92000 130.351
59.96000 138.222
60.00000 139.441
60.04000 132.019
60.08000 143.494
60.12000 127.824
60.16000 121.979
60.20000 133.910
60.24000 126.806
60.28000 130.512
60.32000 136.670
60.36000 135.886
60.40000 133.076
60.44000 123.646
60.48000 127.769
60.52000 131.267
60.56000 130.975
60.60000 139.918
60.64000 123.755
60.68000 133.687
60.72000 127.092
60.76000 123.928
60.80000 127.299
60.84000 127.639
60.88000 134.861
60.92000 135.591
60.96000 130.428
61.00000 130.539
61.04000 139.590
61.08000 134.840
61.12000 130.985
61.16000 134.627
61.20000 140.387
61.24000 135.327
61.28000 135.110
61.32000 140.857
61.36000 133.408
61.40000 133.565
61.44000 141.995
61.48000 149.144
61.52000 158.486
61.56000 200.102
61.60000 220.499
61.64000 250.091
61.68000 270.918
61.72000 267.512
61.76000 258.241
61.80000 221.041
61.84000 183.989
61.88000 155.612
61.92000 147.671
61.96000 136.062
62.00000 139.410
62.04000 134.059
62.08000 143.952
62.12000 141.223
62.16000 153.439
62.20000 140.062
62.24000 140.362
62.28000 136.888
62.32000 147.873
62.36000 150.608
62.40000 135.663
62.44000 143.115
62.48000 137.414
62.52000 138.545
62.56000 136.146
62.60000 141.400
62.64000 147.833
62.68000 147.751
62.72000 146.569
62.76000 151.298
62.80000 127.623
62.84000 140.464
62.88000 144.825
62.92000 154.671
62.96000 145.076
63.00000 149.472
63.04000 142.452
63.08000 157.141
63.12000 153.199
63.16000 150.043
63.20000 145.204
63.24000 148.475
63.28000 145.953
63.32000 146.425
63.36000 149.912
63.40000 139.121
63.44000 140.868
63.48000 149.278
63.52000 147.142
63.56000 147.340
63.60000 156.950
63.64000 146.965
63.68000 153.368
63.72000 153.384
63.76000 157.825
63.80000 156.608
63.84000 150.836
63.88000 156.618
63.92000 154.198
63.96000 159.161
64.00000 147.035
64.04000 152.697
64.08000 158.430
64.12000 148.029
64.16000 157.144
64.20000 165.325
64.24000 159.734
64.28000 158.181
64.32000 157.886
64.36000 155.064
64.40000 163.224
64.44000 162.204
64.48000 179.626
64.52000 152.729
64.56000 164.174
64.60000 174.048
64.64000 169.214
64.68000 167.439
64.72000 164.838
64.76000 172.210
64.80000 178.655
64.84000 179.215
64.88000 181.087
64.92000 177.285
64.96000 163.536
65.00000 191.916
65.04000 197.292
65.08000 194.853
65.12000 195.763
65.16000 199.883
65.20000 208.309
65.24000 206.382
65.28000 231.129
65.32000 229.894
65.36000 227.725
65.40000 243.546
65.44000 264.190
65.48000 270.954
65.52000 277.236
65.56000 289.894
65.60000 306.513
65.64000 330.232
65.68000 398.188
65.72000 514.988
65.76000 733.601
65.80000 925.679
65.84000 1039.017
65.88000 1079.652
65.92000 1065.577
65.96000 899.419
66.00000 656.682
66.04000 478.405
66.08000 370.689
66.12000 313.547
66.16000 320.289
66.20000 305.242
66.24000 302.915
66.28000 335.414
66.32000 378.878
66.36000 422.278
66.40000 454.603
66.44000 428.341
66.48000 434.391
66.52000 410.837
66.56000 367.781
66.60000 346.022
66.64000 317.064
66.68000 321.630
66.72000 334.299
66.76000 318.539
66.80000 331.108
66.84000 324.323
66.88000 327.906
66.92000 351.383
66.96000 339.312
67.00000 332.069
67.04000 357.974
67.08000 364.502
67.12000 380.140
67.16000 380.909
67.20000 388.527
67.24000 389.867
67.28000 379.179
67.32000 383.442
67.36000 406.760
67.40000 389.937
67.44000 421.984
67.48000 401.034
67.52000 417.943
67.56000 430.255
67.60000 444.327
67.64000 452.603
67.68000 462.691
67.72000 456.707
67.76000 467.185
67.80000 467.776
67.84000 472.354
67.88000 496.703
67.92000 508.988
67.96000 520.108
68.00000 526.227
68.04000 515.352
68.08000 542.646
68.12000 566.781
68.16000 598.222
68.20000 582.767
68.24000 620.683
68.28000 627.126
68.32000 666.349
68.36000 684.238
68.40000 709.712
68.44000 743.464
68.48000 755.441
68.52000 784.226
68.56000 837.223
68.60000 946.306
68.64000 1098.088
68.68000 1308.124
68.72000 1534.468
68.76000 1681.320
68.80000 1907.725
68.84000 2239.116
68.88000 2739.125
68.92000 4433.837
68.96000 10922.531
69.00000 25587.449
69.04000 42831.676
69.08000 52139.992
69.12000 54105.555
69.16000 56231.219
69.20000 57318.984
69.24000 48529.070
69.28000 36968.082
69.32000 29780.668
69.36000 26850.484
69.40000 22815.895
69.44000 14371.309
69.48000 6870.769
69.52000 3080.828
69.56000 1890.301
69.60000 1472.252
69.64000 1261.220
69.68000 1096.871
69.72000 999.496
69.76000 917.625
69.80000 816.295
69.84000 802.003
69.88000 727.286
69.92000 723.165
69.96000 704.407
70.00000 652.905