File: XRD/25-09-2025/XY Data/BTO_Mapping_Theta2Theta_25-09-2025_001_28_-24-271_17-634.xy
20.00000 562.714
20.04000 562.569
20.08000 554.726
20.12000 565.380
20.16000 549.919
20.20000 563.252
20.24000 573.777
20.28000 570.420
20.32000 549.468
20.36000 546.383
20.40000 559.552
20.44000 562.648
20.48000 545.217
20.52000 549.465
20.56000 531.122
20.60000 553.321
20.64000 544.798
20.68000 545.089
20.72000 560.349
20.76000 550.115
20.80000 550.653
20.84000 547.953
20.88000 563.017
20.92000 534.303
20.96000 532.710
21.00000 538.758
21.04000 533.359
21.08000 541.375
21.12000 548.756
21.16000 546.106
21.20000 565.235
21.24000 553.110
21.28000 546.271
21.32000 549.920
21.36000 557.648
21.40000 563.485
21.44000 555.027
21.48000 555.135
21.52000 538.214
21.56000 553.003
21.60000 555.388
21.64000 564.005
21.68000 572.996
21.72000 574.359
21.76000 583.818
21.80000 593.475
21.84000 631.485
21.88000 659.358
21.92000 685.468
21.96000 721.878
22.00000 743.340
22.04000 758.590
22.08000 763.711
22.12000 742.614
22.16000 709.173
22.20000 695.388
22.24000 689.021
22.28000 653.602
22.32000 638.667
22.36000 614.170
22.40000 624.875
22.44000 583.531
22.48000 580.561
22.52000 556.157
22.56000 552.137
22.60000 530.365
22.64000 537.498
22.68000 504.427
22.72000 530.445
22.76000 511.547
22.80000 521.613
22.84000 519.599
22.88000 510.443
22.92000 509.565
22.96000 488.235
23.00000 520.019
23.04000 511.409
23.08000 512.718
23.12000 540.612
23.16000 497.501
23.20000 503.627
23.24000 518.178
23.28000 503.661
23.32000 529.336
23.36000 503.344
23.40000 501.104
23.44000 498.929
23.48000 509.239
23.52000 507.953
23.56000 514.528
23.60000 503.101
23.64000 494.589
23.68000 500.967
23.72000 466.585
23.76000 481.412
23.80000 486.563
23.84000 487.133
23.88000 492.460
23.92000 482.509
23.96000 508.169
24.00000 498.763
24.04000 500.221
24.08000 490.597
24.12000 483.685
24.16000 477.046
24.20000 474.028
24.24000 473.232
24.28000 471.762
24.32000 472.519
24.36000 472.307
24.40000 484.633
24.44000 490.355
24.48000 487.379
24.52000 492.565
24.56000 472.613
24.60000 485.816
24.64000 482.062
24.68000 504.968
24.72000 473.802
24.76000 460.891
24.80000 461.458
24.84000 483.049
24.88000 482.201
24.92000 474.803
24.96000 490.835
25.00000 464.749
25.04000 477.843
25.08000 484.265
25.12000 481.538
25.16000 471.150
25.20000 467.349
25.24000 472.075
25.28000 481.782
25.32000 448.679
25.36000 463.252
25.40000 459.324
25.44000 454.505
25.48000 477.121
25.52000 462.619
25.56000 457.928
25.60000 477.060
25.64000 460.182
25.68000 458.573
25.72000 454.092
25.76000 449.088
25.80000 438.527
25.84000 435.834
25.88000 447.758
25.92000 461.308
25.96000 455.937
26.00000 442.538
26.04000 437.255
26.08000 435.400
26.12000 462.705
26.16000 453.854
26.20000 449.481
26.24000 460.956
26.28000 456.731
26.32000 458.162
26.36000 460.335
26.40000 454.165
26.44000 449.191
26.48000 446.780
26.52000 441.932
26.56000 462.574
26.60000 447.375
26.64000 448.118
26.68000 452.883
26.72000 441.976
26.76000 445.859
26.80000 440.533
26.84000 444.281
26.88000 443.260
26.92000 445.074
26.96000 424.646
27.00000 447.273
27.04000 443.054
27.08000 440.719
27.12000 446.471
27.16000 430.501
27.20000 414.359
27.24000 437.047
27.28000 415.917
27.32000 422.508
27.36000 446.704
27.40000 441.103
27.44000 436.420
27.48000 434.607
27.52000 422.734
27.56000 412.543
27.60000 429.587
27.64000 406.470
27.68000 409.197
27.72000 429.003
27.76000 438.015
27.80000 444.257
27.84000 422.596
27.88000 426.737
27.92000 421.235
27.96000 425.332
28.00000 419.047
28.04000 423.446
28.08000 445.287
28.12000 439.576
28.16000 424.688
28.20000 426.291
28.24000 403.971
28.28000 418.781
28.32000 431.601
28.36000 418.243
28.40000 429.855
28.44000 416.428
28.48000 408.814
28.52000 396.270
28.56000 395.018
28.60000 412.224
28.64000 411.097
28.68000 404.094
28.72000 407.551
28.76000 426.528
28.80000 417.206
28.84000 422.416
28.88000 407.502
28.92000 416.859
28.96000 408.687
29.00000 413.688
29.04000 404.105
29.08000 403.926
29.12000 410.148
29.16000 421.296
29.20000 428.656
29.24000 401.760
29.28000 403.275
29.32000 409.279
29.36000 401.327
29.40000 407.000
29.44000 388.704
29.48000 402.665
29.52000 405.929
29.56000 392.466
29.60000 399.144
29.64000 399.245
29.68000 400.279
29.72000 412.397
29.76000 395.257
29.80000 411.923
29.84000 419.052
29.88000 429.931
29.92000 407.706
29.96000 424.159
30.00000 424.860
30.04000 420.301
30.08000 426.482
30.12000 405.461
30.16000 433.118
30.20000 408.643
30.24000 401.709
30.28000 400.218
30.32000 409.303
30.36000 404.686
30.40000 403.547
30.44000 400.525
30.48000 413.113
30.52000 412.389
30.56000 409.190
30.60000 417.688
30.64000 426.887
30.68000 431.386
30.72000 414.007
30.76000 425.391
30.80000 427.779
30.84000 441.697
30.88000 446.502
30.92000 480.338
30.96000 502.768
31.00000 551.774
31.04000 619.303
31.08000 721.973
31.12000 880.067
31.16000 1106.471
31.20000 1310.105
31.24000 1557.010
31.28000 1843.188
31.32000 2020.594
31.36000 2137.759
31.40000 2176.777
31.44000 2077.176
31.48000 1909.826
31.52000 1652.950
31.56000 1411.091
31.60000 1180.303
31.64000 1005.044
31.68000 820.848
31.72000 728.409
31.76000 629.928
31.80000 569.226
31.84000 522.322
31.88000 489.951
31.92000 466.451
31.96000 448.237
32.00000 420.310
32.04000 425.338
32.08000 437.893
32.12000 394.700
32.16000 397.805
32.20000 383.107
32.24000 402.974
32.28000 403.583
32.32000 370.679
32.36000 375.600
32.40000 389.727
32.44000 380.120
32.48000 385.326
32.52000 386.717
32.56000 369.101
32.60000 356.857
32.64000 374.585
32.68000 384.899
32.72000 369.954
32.76000 371.465
32.80000 376.540
32.84000 392.311
32.88000 389.513
32.92000 404.464
32.96000 377.441
33.00000 390.154
33.04000 372.823
33.08000 354.375
33.12000 354.249
33.16000 366.283
33.20000 338.890
33.24000 345.571
33.28000 343.251
33.32000 341.650
33.36000 345.231
33.40000 339.474
33.44000 344.656
33.48000 338.967
33.52000 342.167
33.56000 348.110
33.60000 335.140
33.64000 331.736
33.68000 334.713
33.72000 317.131
33.76000 331.293
33.80000 319.100
33.84000 333.537
33.88000 334.361
33.92000 323.346
33.96000 325.164
34.00000 343.890
34.04000 319.372
34.08000 336.886
34.12000 316.632
34.16000 314.984
34.20000 342.181
34.24000 324.824
34.28000 326.074
34.32000 331.631
34.36000 322.168
34.40000 319.266
34.44000 325.816
34.48000 333.413
34.52000 325.285
34.56000 314.767
34.60000 321.835
34.64000 311.696
34.68000 312.790
34.72000 294.556
34.76000 310.752
34.80000 325.479
34.84000 323.201
34.88000 316.915
34.92000 307.935
34.96000 307.641
35.00000 310.157
35.04000 298.712
35.08000 310.087
35.12000 316.472
35.16000 318.567
35.20000 303.714
35.24000 313.498
35.28000 306.191
35.32000 297.146
35.36000 312.065
35.40000 313.118
35.44000 310.577
35.48000 286.863
35.52000 292.812
35.56000 291.964
35.60000 305.691
35.64000 293.653
35.68000 293.430
35.72000 289.449
35.76000 311.092
35.80000 301.727
35.84000 284.242
35.88000 300.002
35.92000 305.167
35.96000 310.547
36.00000 301.471
36.04000 281.262
36.08000 300.600
36.12000 303.365
36.16000 299.546
36.20000 302.101
36.24000 284.098
36.28000 300.352
36.32000 292.276
36.36000 289.289
36.40000 294.077
36.44000 291.812
36.48000 297.117
36.52000 291.159
36.56000 287.088
36.60000 293.179
36.64000 280.542
36.68000 281.886
36.72000 302.031
36.76000 307.247
36.80000 292.558
36.84000 281.983
36.88000 285.486
36.92000 297.322
36.96000 295.369
37.00000 286.961
37.04000 284.964
37.08000 296.323
37.12000 292.956
37.16000 303.450
37.20000 291.413
37.24000 305.769
37.28000 294.794
37.32000 302.660
37.36000 291.392
37.40000 276.992
37.44000 289.062
37.48000 287.593
37.52000 262.225
37.56000 286.329
37.60000 285.671
37.64000 280.374
37.68000 286.563
37.72000 287.852
37.76000 287.356
37.80000 287.868
37.84000 287.900
37.88000 278.662
37.92000 283.581
37.96000 289.237
38.00000 287.144
38.04000 277.144
38.08000 291.874
38.12000 284.944
38.16000 287.158
38.20000 297.005
38.24000 295.015
38.28000 296.705
38.32000 310.880
38.36000 324.108
38.40000 353.260
38.44000 369.159
38.48000 406.343
38.52000 442.172
38.56000 500.876
38.60000 536.025
38.64000 588.473
38.68000 580.841
38.72000 602.283
38.76000 585.597
38.80000 572.318
38.84000 510.984
38.88000 468.582
38.92000 425.791
38.96000 368.812
39.00000 365.531
39.04000 323.599
39.08000 297.801
39.12000 296.297
39.16000 296.041
39.20000 276.289
39.24000 280.147
39.28000 273.117
39.32000 279.020
39.36000 282.274
39.40000 270.212
39.44000 253.788
39.48000 281.540
39.52000 259.321
39.56000 265.071
39.60000 255.231
39.64000 254.114
39.68000 274.582
39.72000 259.952
39.76000 268.056
39.80000 258.135
39.84000 248.839
39.88000 261.344
39.92000 261.851
39.96000 265.721
40.00000 250.261
40.04000 256.380
40.08000 249.057
40.12000 259.627
40.16000 254.535
40.20000 265.520
40.24000 242.845
40.28000 239.924
40.32000 277.987
40.36000 257.619
40.40000 245.012
40.44000 245.820
40.48000 252.956
40.52000 245.696
40.56000 240.827
40.60000 252.963
40.64000 252.756
40.68000 238.202
40.72000 248.831
40.76000 240.133
40.80000 239.078
40.84000 261.854
40.88000 252.847
40.92000 252.852
40.96000 256.447
41.00000 235.741
41.04000 243.324
41.08000 243.563
41.12000 243.026
41.16000 247.828
41.20000 244.393
41.24000 216.498
41.28000 242.620
41.32000 242.488
41.36000 245.888
41.40000 239.520
41.44000 228.628
41.48000 225.404
41.52000 235.350
41.56000 244.451
41.60000 226.194
41.64000 235.296
41.68000 230.034
41.72000 228.216
41.76000 228.133
41.80000 236.248
41.84000 237.662
41.88000 230.998
41.92000 231.438
41.96000 220.299
42.00000 229.496
42.04000 207.230
42.08000 224.902
42.12000 233.924
42.16000 232.372
42.20000 221.863
42.24000 222.326
42.28000 226.201
42.32000 228.968
42.36000 221.288
42.40000 215.537
42.44000 224.487
42.48000 227.079
42.52000 237.651
42.56000 231.588
42.60000 226.315
42.64000 221.249
42.68000 232.681
42.72000 232.749
42.76000 219.787
42.80000 213.817
42.84000 231.337
42.88000 225.630
42.92000 233.690
42.96000 228.415
43.00000 236.437
43.04000 221.388
43.08000 222.754
43.12000 206.737
43.16000 219.367
43.20000 219.611
43.24000 228.221
43.28000 233.800
43.32000 222.822
43.36000 226.130
43.40000 234.380
43.44000 229.823
43.48000 233.570
43.52000 230.603
43.56000 220.263
43.60000 219.190
43.64000 208.962
43.68000 223.803
43.72000 225.641
43.76000 230.943
43.80000 218.239
43.84000 229.576
43.88000 225.625
43.92000 226.324
43.96000 221.587
44.00000 220.487
44.04000 219.369
44.08000 211.730
44.12000 208.167
44.16000 227.941
44.20000 216.687
44.24000 233.889
44.28000 219.896
44.32000 223.285
44.36000 229.323
44.40000 224.281
44.44000 228.997
44.48000 232.073
44.52000 234.487
44.56000 217.810
44.60000 242.760
44.64000 251.697
44.68000 242.706
44.72000 265.986
44.76000 269.230
44.80000 284.812
44.84000 308.833
44.88000 326.025
44.92000 336.951
44.96000 357.264
45.00000 368.289
45.04000 368.207
45.08000 359.835
45.12000 358.088
45.16000 351.663
45.20000 328.580
45.24000 352.223
45.28000 334.926
45.32000 320.962
45.36000 306.406
45.40000 306.791
45.44000 298.651
45.48000 269.786
45.52000 274.620
45.56000 265.334
45.60000 244.382
45.64000 254.562
45.68000 239.155
45.72000 260.637
45.76000 253.571
45.80000 243.032
45.84000 236.950
45.88000 235.161
45.92000 238.128
45.96000 230.081
46.00000 228.803
46.04000 222.100
46.08000 208.876
46.12000 216.167
46.16000 215.681
46.20000 204.761
46.24000 218.115
46.28000 218.536
46.32000 198.603
46.36000 188.260
46.40000 220.226
46.44000 190.340
46.48000 205.379
46.52000 190.290
46.56000 201.278
46.60000 185.755
46.64000 207.162
46.68000 193.207
46.72000 212.230
46.76000 199.197
46.80000 195.221
46.84000 206.389
46.88000 186.022
46.92000 191.492
46.96000 188.335
47.00000 193.965
47.04000 200.446
47.08000 201.553
47.12000 188.905
47.16000 197.224
47.20000 188.649
47.24000 200.412
47.28000 203.586
47.32000 195.139
47.36000 185.497
47.40000 188.508
47.44000 197.227
47.48000 188.106
47.52000 193.304
47.56000 182.930
47.60000 185.253
47.64000 195.768
47.68000 201.414
47.72000 189.451
47.76000 178.609
47.80000 186.504
47.84000 170.963
47.88000 178.875
47.92000 181.304
47.96000 177.761
48.00000 179.154
48.04000 178.494
48.08000 191.959
48.12000 194.937
48.16000 179.424
48.20000 187.542
48.24000 184.408
48.28000 181.426
48.32000 181.327
48.36000 187.563
48.40000 185.033
48.44000 180.478
48.48000 177.176
48.52000 176.643
48.56000 178.025
48.60000 190.320
48.64000 187.661
48.68000 175.553
48.72000 170.122
48.76000 175.963
48.80000 189.577
48.84000 181.316
48.88000 173.167
48.92000 177.545
48.96000 171.576
49.00000 179.456
49.04000 168.088
49.08000 167.356
49.12000 173.116
49.16000 177.977
49.20000 181.824
49.24000 171.222
49.28000 166.428
49.32000 171.014
49.36000 169.551
49.40000 181.322
49.44000 181.378
49.48000 170.246
49.52000 176.813
49.56000 160.975
49.60000 170.224
49.64000 179.318
49.68000 173.137
49.72000 180.147
49.76000 172.403
49.80000 172.625
49.84000 169.274
49.88000 167.392
49.92000 173.268
49.96000 184.922
50.00000 182.709
50.04000 191.557
50.08000 180.328
50.12000 175.126
50.16000 179.452
50.20000 181.236
50.24000 181.718
50.28000 180.500
50.32000 186.186
50.36000 184.108
50.40000 186.008
50.44000 204.795
50.48000 205.810
50.52000 215.266
50.56000 202.059
50.60000 217.558
50.64000 223.052
50.68000 227.061
50.72000 221.124
50.76000 221.000
50.80000 213.070
50.84000 207.775
50.88000 205.906
50.92000 199.397
50.96000 195.051
51.00000 190.325
51.04000 181.309
51.08000 182.975
51.12000 180.150
51.16000 174.961
51.20000 179.300
51.24000 183.575
51.28000 168.623
51.32000 179.872
51.36000 171.433
51.40000 181.905
51.44000 167.550
51.48000 162.191
51.52000 166.432
51.56000 172.973
51.60000 166.489
51.64000 166.545
51.68000 165.567
51.72000 168.252
51.76000 168.983
51.80000 167.667
51.84000 165.740
51.88000 160.330
51.92000 169.362
51.96000 151.822
52.00000 151.481
52.04000 158.661
52.08000 164.619
52.12000 162.236
52.16000 164.731
52.20000 150.823
52.24000 157.285
52.28000 166.170
52.32000 150.528
52.36000 165.007
52.40000 156.900
52.44000 165.127
52.48000 147.766
52.52000 156.021
52.56000 155.420
52.60000 155.687
52.64000 166.094
52.68000 165.483
52.72000 155.779
52.76000 158.888
52.80000 158.322
52.84000 157.407
52.88000 159.956
52.92000 156.580
52.96000 165.981
53.00000 145.016
53.04000 149.345
53.08000 156.292
53.12000 161.215
53.16000 149.145
53.20000 153.878
53.24000 161.889
53.28000 159.721
53.32000 152.190
53.36000 165.119
53.40000 157.795
53.44000 156.683
53.48000 165.217
53.52000 149.695
53.56000 161.931
53.60000 159.697
53.64000 152.141
53.68000 161.558
53.72000 156.385
53.76000 157.285
53.80000 150.815
53.84000 152.419
53.88000 159.486
53.92000 148.180
53.96000 150.113
54.00000 155.032
54.04000 152.560
54.08000 157.680
54.12000 155.778
54.16000 150.067
54.20000 150.853
54.24000 153.313
54.28000 154.691
54.32000 147.835
54.36000 150.685
54.40000 153.456
54.44000 154.100
54.48000 152.840
54.52000 154.292
54.56000 150.914
54.60000 156.270
54.64000 143.241
54.68000 165.240
54.72000 157.662
54.76000 152.618
54.80000 150.070
54.84000 157.849
54.88000 155.538
54.92000 160.693
54.96000 148.562
55.00000 156.616
55.04000 153.401
55.08000 161.143
55.12000 151.109
55.16000 158.536
55.20000 158.391
55.24000 155.145
55.28000 149.875
55.32000 162.185
55.36000 170.488
55.40000 177.970
55.44000 183.133
55.48000 191.861
55.52000 207.874
55.56000 218.318
55.60000 230.378
55.64000 266.635
55.68000 288.725
55.72000 310.712
55.76000 349.928
55.80000 367.470
55.84000 384.098
55.88000 408.418
55.92000 395.256
55.96000 393.243
56.00000 409.342
56.04000 367.388
56.08000 344.849
56.12000 330.630
56.16000 284.285
56.20000 270.170
56.24000 241.297
56.28000 235.869
56.32000 225.668
56.36000 218.273
56.40000 200.287
56.44000 177.057
56.48000 174.023
56.52000 178.829
56.56000 180.322
56.60000 167.383
56.64000 167.771
56.68000 160.195
56.72000 167.714
56.76000 151.073
56.80000 154.735
56.84000 147.582
56.88000 149.925
56.92000 148.451
56.96000 151.586
57.00000 147.704
57.04000 150.489
57.08000 142.970
57.12000 144.677
57.16000 145.040
57.20000 133.713
57.24000 151.674
57.28000 142.000
57.32000 135.973
57.36000 155.597
57.40000 135.349
57.44000 132.942
57.48000 135.030
57.52000 148.405
57.56000 144.235
57.60000 134.254
57.64000 141.056
57.68000 142.911
57.72000 142.410
57.76000 145.902
57.80000 136.313
57.84000 149.972
57.88000 138.604
57.92000 136.780
57.96000 137.131
58.00000 141.444
58.04000 143.409
58.08000 133.167
58.12000 131.363
58.16000 133.581
58.20000 134.167
58.24000 151.855
58.28000 140.256
58.32000 140.457
58.36000 127.851
58.40000 130.845
58.44000 134.864
58.48000 136.715
58.52000 141.538
58.56000 125.869
58.60000 132.593
58.64000 130.348
58.68000 147.535
58.72000 125.762
58.76000 148.857
58.80000 130.924
58.84000 134.944
58.88000 131.400
58.92000 132.119
58.96000 132.020
59.00000 135.631
59.04000 137.624
59.08000 128.490
59.12000 139.112
59.16000 126.506
59.20000 133.091
59.24000 135.341
59.28000 131.401
59.32000 134.125
59.36000 128.140
59.40000 131.563
59.44000 139.295
59.48000 140.998
59.52000 134.849
59.56000 118.912
59.60000 135.797
59.64000 133.035
59.68000 142.708
59.72000 134.021
59.76000 124.699
59.80000 138.952
59.84000 131.446
59.88000 129.553
59.92000 140.768
59.96000 121.362
60.00000 124.065
60.04000 133.536
60.08000 124.331
60.12000 143.288
60.16000 137.464
60.20000 132.833
60.24000 135.282
60.28000 139.522
60.32000 133.496
60.36000 120.559
60.40000 123.762
60.44000 127.168
60.48000 128.604
60.52000 125.763
60.56000 131.096
60.60000 142.253
60.64000 129.186
60.68000 130.283
60.72000 131.748
60.76000 125.457
60.80000 131.686
60.84000 134.560
60.88000 136.840
60.92000 126.095
60.96000 130.103
61.00000 137.653
61.04000 133.140
61.08000 133.105
61.12000 137.136
61.16000 129.059
61.20000 133.498
61.24000 134.260
61.28000 136.010
61.32000 135.993
61.36000 133.010
61.40000 135.271
61.44000 139.598
61.48000 150.278
61.52000 170.282
61.56000 201.726
61.60000 248.989
61.64000 275.991
61.68000 298.232
61.72000 287.675
61.76000 275.542
61.80000 227.237
61.84000 181.500
61.88000 163.798
61.92000 146.638
61.96000 138.815
62.00000 149.443
62.04000 139.204
62.08000 141.202
62.12000 142.394
62.16000 139.040
62.20000 152.169
62.24000 143.760
62.28000 148.219
62.32000 142.116
62.36000 149.458
62.40000 139.733
62.44000 137.226
62.48000 134.692
62.52000 144.006
62.56000 140.888
62.60000 137.007
62.64000 134.870
62.68000 151.095
62.72000 147.266
62.76000 150.885
62.80000 144.056
62.84000 138.209
62.88000 149.630
62.92000 145.096
62.96000 149.770
63.00000 148.188
63.04000 146.379
63.08000 144.298
63.12000 156.847
63.16000 150.046
63.20000 145.183
63.24000 146.543
63.28000 155.199
63.32000 144.609
63.36000 149.213
63.40000 152.731
63.44000 149.884
63.48000 147.989
63.52000 155.856
63.56000 148.621
63.60000 164.565
63.64000 155.103
63.68000 148.364
63.72000 155.819
63.76000 154.683
63.80000 151.663
63.84000 151.305
63.88000 148.596
63.92000 147.126
63.96000 157.663
64.00000 172.537
64.04000 164.955
64.08000 155.246
64.12000 153.609
64.16000 163.534
64.20000 160.581
64.24000 168.552
64.28000 164.354
64.32000 168.144
64.36000 163.356
64.40000 163.284
64.44000 170.309
64.48000 166.954
64.52000 169.814
64.56000 164.729
64.60000 170.481
64.64000 177.094
64.68000 192.767
64.72000 179.289
64.76000 170.282
64.80000 179.878
64.84000 183.211
64.88000 189.559
64.92000 190.839
64.96000 174.974
65.00000 199.044
65.04000 207.274
65.08000 215.118
65.12000 218.920
65.16000 226.607
65.20000 233.349
65.24000 249.306
65.28000 254.718
65.32000 263.843
65.36000 283.690
65.40000 291.424
65.44000 298.337
65.48000 315.036
65.52000 322.361
65.56000 351.931
65.60000 355.659
65.64000 405.388
65.68000 483.165
65.72000 662.739
65.76000 943.576
65.80000 1146.533
65.84000 1233.044
65.88000 1277.160
65.92000 1228.454
65.96000 1017.209
66.00000 721.620
66.04000 517.874
66.08000 392.295
66.12000 376.778
66.16000 331.917
66.20000 335.143
66.24000 334.876
66.28000 393.053
66.32000 435.840
66.36000 476.863
66.40000 497.801
66.44000 493.720
66.48000 489.400
66.52000 447.976
66.56000 381.522
66.60000 355.446
66.64000 367.271
66.68000 363.440
66.72000 346.873
66.76000 331.158
66.80000 340.911
66.84000 344.755
66.88000 343.691
66.92000 357.140
66.96000 368.023
67.00000 371.966
67.04000 388.685
67.08000 371.710
67.12000 376.578
67.16000 394.681
67.20000 390.037
67.24000 411.018
67.28000 416.096
67.32000 416.528
67.36000 443.253
67.40000 436.850
67.44000 437.958
67.48000 438.474
67.52000 457.007
67.56000 461.966
67.60000 465.085
67.64000 470.783
67.68000 487.032
67.72000 488.100
67.76000 501.480
67.80000 494.049
67.84000 523.024
67.88000 519.874
67.92000 542.043
67.96000 549.603
68.00000 561.704
68.04000 599.074
68.08000 597.997
68.12000 591.784
68.16000 592.041
68.20000 624.274
68.24000 650.209
68.28000 670.315
68.32000 680.037
68.36000 717.915
68.40000 735.746
68.44000 758.791
68.48000 824.819
68.52000 867.974
68.56000 927.691
68.60000 1083.888
68.64000 1259.208
68.68000 1472.237
68.72000 1746.270
68.76000 2015.270
68.80000 2294.348
68.84000 2783.934
68.88000 3618.928
68.92000 6315.135
68.96000 15736.537
69.00000 34260.066
69.04000 53304.297
69.08000 62521.977
69.12000 64539.066
69.16000 67101.117
69.20000 66337.297
69.24000 54788.781
69.28000 42268.813
69.32000 34703.379
69.36000 31290.307
69.40000 25103.617
69.44000 15156.237
69.48000 7214.061
69.52000 3223.768
69.56000 2054.148
69.60000 1588.633
69.64000 1334.749
69.68000 1197.899
69.72000 1082.528
69.76000 963.535
69.80000 925.226
69.84000 855.136
69.88000 790.856
69.92000 758.126
69.96000 720.012
70.00000 693.564