File: XRD/25-09-2025/XY Data/BTO_Mapping_Theta2Theta_25-09-2025_001_37_-39-126_-8-316.xy
20.00000 544.999
20.04000 553.479
20.08000 562.425
20.12000 559.583
20.16000 562.724
20.20000 573.226
20.24000 560.600
20.28000 570.114
20.32000 570.046
20.36000 557.561
20.40000 556.839
20.44000 545.373
20.48000 570.746
20.52000 528.777
20.56000 582.055
20.60000 552.809
20.64000 549.179
20.68000 544.903
20.72000 568.412
20.76000 554.463
20.80000 527.910
20.84000 554.595
20.88000 552.957
20.92000 577.209
20.96000 572.369
21.00000 573.293
21.04000 556.351
21.08000 572.906
21.12000 554.788
21.16000 551.587
21.20000 545.505
21.24000 566.798
21.28000 540.659
21.32000 545.734
21.36000 537.483
21.40000 567.651
21.44000 579.374
21.48000 555.705
21.52000 553.706
21.56000 570.873
21.60000 580.051
21.64000 610.632
21.68000 620.969
21.72000 654.343
21.76000 692.029
21.80000 758.727
21.84000 821.161
21.88000 872.409
21.92000 930.382
21.96000 979.833
22.00000 1000.469
22.04000 984.572
22.08000 958.935
22.12000 883.537
22.16000 802.966
22.20000 747.900
22.24000 698.529
22.28000 665.236
22.32000 642.106
22.36000 599.689
22.40000 599.686
22.44000 556.835
22.48000 556.507
22.52000 548.607
22.56000 533.525
22.60000 547.422
22.64000 534.826
22.68000 550.704
22.72000 520.019
22.76000 510.987
22.80000 529.409
22.84000 515.778
22.88000 512.927
22.92000 507.187
22.96000 512.126
23.00000 500.814
23.04000 514.978
23.08000 520.229
23.12000 527.653
23.16000 513.827
23.20000 508.009
23.24000 498.477
23.28000 499.332
23.32000 510.685
23.36000 488.607
23.40000 501.782
23.44000 496.097
23.48000 508.911
23.52000 510.033
23.56000 488.939
23.60000 503.478
23.64000 496.560
23.68000 482.972
23.72000 485.155
23.76000 478.695
23.80000 504.381
23.84000 506.539
23.88000 480.962
23.92000 500.507
23.96000 477.842
24.00000 485.215
24.04000 468.317
24.08000 481.068
24.12000 484.554
24.16000 482.681
24.20000 500.673
24.24000 494.917
24.28000 494.110
24.32000 471.404
24.36000 480.270
24.40000 494.502
24.44000 489.813
24.48000 488.362
24.52000 492.291
24.56000 477.214
24.60000 488.944
24.64000 489.113
24.68000 493.493
24.72000 482.925
24.76000 478.851
24.80000 473.316
24.84000 482.448
24.88000 458.498
24.92000 475.373
24.96000 474.532
25.00000 473.859
25.04000 472.408
25.08000 451.837
25.12000 459.794
25.16000 468.124
25.20000 453.783
25.24000 455.724
25.28000 474.893
25.32000 475.601
25.36000 464.346
25.40000 457.759
25.44000 465.172
25.48000 467.217
25.52000 476.081
25.56000 478.242
25.60000 463.847
25.64000 451.830
25.68000 466.234
25.72000 452.409
25.76000 475.370
25.80000 449.237
25.84000 459.414
25.88000 454.795
25.92000 468.769
25.96000 466.208
26.00000 448.637
26.04000 447.593
26.08000 458.986
26.12000 448.021
26.16000 436.890
26.20000 462.205
26.24000 456.498
26.28000 466.438
26.32000 459.062
26.36000 449.085
26.40000 452.524
26.44000 454.611
26.48000 442.722
26.52000 453.514
26.56000 464.006
26.60000 462.751
26.64000 433.111
26.68000 446.146
26.72000 450.866
26.76000 449.632
26.80000 458.789
26.84000 448.100
26.88000 435.802
26.92000 443.708
26.96000 438.160
27.00000 442.658
27.04000 438.702
27.08000 452.631
27.12000 457.513
27.16000 441.398
27.20000 444.552
27.24000 428.431
27.28000 432.569
27.32000 431.976
27.36000 435.090
27.40000 423.169
27.44000 445.944
27.48000 420.764
27.52000 443.687
27.56000 434.092
27.60000 414.058
27.64000 439.094
27.68000 428.376
27.72000 441.506
27.76000 430.202
27.80000 428.244
27.84000 417.680
27.88000 431.901
27.92000 418.224
27.96000 425.294
28.00000 415.830
28.04000 423.885
28.08000 408.972
28.12000 430.593
28.16000 433.971
28.20000 447.384
28.24000 426.268
28.28000 441.256
28.32000 433.052
28.36000 422.601
28.40000 411.608
28.44000 425.984
28.48000 434.806
28.52000 438.365
28.56000 415.246
28.60000 411.861
28.64000 422.617
28.68000 402.756
28.72000 416.396
28.76000 418.661
28.80000 420.012
28.84000 411.963
28.88000 417.200
28.92000 416.042
28.96000 415.199
29.00000 428.900
29.04000 424.934
29.08000 431.252
29.12000 411.829
29.16000 415.941
29.20000 406.447
29.24000 395.755
29.28000 407.955
29.32000 406.020
29.36000 409.627
29.40000 411.111
29.44000 406.620
29.48000 416.207
29.52000 407.713
29.56000 428.752
29.60000 411.474
29.64000 412.813
29.68000 407.238
29.72000 409.443
29.76000 422.405
29.80000 429.595
29.84000 432.899
29.88000 438.561
29.92000 457.365
29.96000 463.158
30.00000 434.532
30.04000 447.528
30.08000 434.888
30.12000 447.988
30.16000 429.470
30.20000 439.118
30.24000 435.503
30.28000 426.090
30.32000 419.051
30.36000 437.230
30.40000 411.128
30.44000 440.810
30.48000 422.550
30.52000 430.057
30.56000 432.358
30.60000 433.840
30.64000 435.139
30.68000 446.915
30.72000 446.550
30.76000 453.208
30.80000 473.705
30.84000 470.338
30.88000 511.441
30.92000 535.508
30.96000 595.488
31.00000 713.813
31.04000 898.100
31.08000 1167.756
31.12000 1512.478
31.16000 1972.696
31.20000 2481.303
31.24000 2893.786
31.28000 3192.704
31.32000 3213.947
31.36000 3082.883
31.40000 2749.787
31.44000 2340.817
31.48000 1869.243
31.52000 1533.026
31.56000 1246.533
31.60000 1031.426
31.64000 856.001
31.68000 754.471
31.72000 666.082
31.76000 597.522
31.80000 550.166
31.84000 530.218
31.88000 476.142
31.92000 436.351
31.96000 448.695
32.00000 430.051
32.04000 434.167
32.08000 420.526
32.12000 401.796
32.16000 403.506
32.20000 399.071
32.24000 391.114
32.28000 391.728
32.32000 402.004
32.36000 374.622
32.40000 395.851
32.44000 390.529
32.48000 381.678
32.52000 380.454
32.56000 376.765
32.60000 390.660
32.64000 386.338
32.68000 370.876
32.72000 377.111
32.76000 389.952
32.80000 386.714
32.84000 401.750
32.88000 408.047
32.92000 395.896
32.96000 395.349
33.00000 393.245
33.04000 379.935
33.08000 353.962
33.12000 353.961
33.16000 349.887
33.20000 356.078
33.24000 346.386
33.28000 351.853
33.32000 339.749
33.36000 340.679
33.40000 345.086
33.44000 353.081
33.48000 340.794
33.52000 345.333
33.56000 339.967
33.60000 341.334
33.64000 348.720
33.68000 348.512
33.72000 324.681
33.76000 333.243
33.80000 339.526
33.84000 335.535
33.88000 352.065
33.92000 330.635
33.96000 340.844
34.00000 339.680
34.04000 337.909
34.08000 322.011
34.12000 328.082
34.16000 323.720
34.20000 312.517
34.24000 326.582
34.28000 325.719
34.32000 352.261
34.36000 326.370
34.40000 319.600
34.44000 320.918
34.48000 328.256
34.52000 314.629
34.56000 322.913
34.60000 332.477
34.64000 315.770
34.68000 320.429
34.72000 317.859
34.76000 325.837
34.80000 334.341
34.84000 320.485
34.88000 309.441
34.92000 318.403
34.96000 322.523
35.00000 317.254
35.04000 316.285
35.08000 312.661
35.12000 327.052
35.16000 303.751
35.20000 312.821
35.24000 313.457
35.28000 308.362
35.32000 312.447
35.36000 326.429
35.40000 306.716
35.44000 318.840
35.48000 323.308
35.52000 331.415
35.56000 312.957
35.60000 301.497
35.64000 306.595
35.68000 299.960
35.72000 296.865
35.76000 305.937
35.80000 306.952
35.84000 297.887
35.88000 302.397
35.92000 300.814
35.96000 298.010
36.00000 305.550
36.04000 303.103
36.08000 292.459
36.12000 291.198
36.16000 275.975
36.20000 304.468
36.24000 306.206
36.28000 311.155
36.32000 294.035
36.36000 301.333
36.40000 292.624
36.44000 299.743
36.48000 308.258
36.52000 286.411
36.56000 287.372
36.60000 307.548
36.64000 311.058
36.68000 301.346
36.72000 293.075
36.76000 286.898
36.80000 304.850
36.84000 286.865
36.88000 303.572
36.92000 289.062
36.96000 300.836
37.00000 294.895
37.04000 291.963
37.08000 293.309
37.12000 294.205
37.16000 294.567
37.20000 302.615
37.24000 275.696
37.28000 292.717
37.32000 292.345
37.36000 284.068
37.40000 292.893
37.44000 301.611
37.48000 301.518
37.52000 291.603
37.56000 283.643
37.60000 277.824
37.64000 276.863
37.68000 290.768
37.72000 279.864
37.76000 297.526
37.80000 297.965
37.84000 291.612
37.88000 285.178
37.92000 288.313
37.96000 296.367
38.00000 289.392
38.04000 317.312
38.08000 303.442
38.12000 281.812
38.16000 281.686
38.20000 310.895
38.24000 299.299
38.28000 305.294
38.32000 325.325
38.36000 347.903
38.40000 358.323
38.44000 370.988
38.48000 416.445
38.52000 452.179
38.56000 453.779
38.60000 484.414
38.64000 473.405
38.68000 459.645
38.72000 469.356
38.76000 424.963
38.80000 413.944
38.84000 374.437
38.88000 340.328
38.92000 327.120
38.96000 314.554
39.00000 297.624
39.04000 282.717
39.08000 287.061
39.12000 277.536
39.16000 261.852
39.20000 276.783
39.24000 267.499
39.28000 272.251
39.32000 271.545
39.36000 271.937
39.40000 266.059
39.44000 266.586
39.48000 265.220
39.52000 272.208
39.56000 269.147
39.60000 259.546
39.64000 262.914
39.68000 265.311
39.72000 264.310
39.76000 270.230
39.80000 261.236
39.84000 263.995
39.88000 265.051
39.92000 262.057
39.96000 259.802
40.00000 267.993
40.04000 251.455
40.08000 258.995
40.12000 254.763
40.16000 255.672
40.20000 248.495
40.24000 256.991
40.28000 255.801
40.32000 253.800
40.36000 257.534
40.40000 256.568
40.44000 254.610
40.48000 253.862
40.52000 271.253
40.56000 267.409
40.60000 247.081
40.64000 245.144
40.68000 250.726
40.72000 235.499
40.76000 252.523
40.80000 230.450
40.84000 238.353
40.88000 249.878
40.92000 249.360
40.96000 252.268
41.00000 253.194
41.04000 244.736
41.08000 241.308
41.12000 237.846
41.16000 239.667
41.20000 242.410
41.24000 241.565
41.28000 241.260
41.32000 232.382
41.36000 234.145
41.40000 240.311
41.44000 243.901
41.48000 236.417
41.52000 252.332
41.56000 250.108
41.60000 237.792
41.64000 250.151
41.68000 238.080
41.72000 252.326
41.76000 238.238
41.80000 245.180
41.84000 229.380
41.88000 239.667
41.92000 239.761
41.96000 238.045
42.00000 241.524
42.04000 234.829
42.08000 240.795
42.12000 239.469
42.16000 226.540
42.20000 245.933
42.24000 240.842
42.28000 226.847
42.32000 223.606
42.36000 238.786
42.40000 235.010
42.44000 228.394
42.48000 245.207
42.52000 223.077
42.56000 232.763
42.60000 227.208
42.64000 234.658
42.68000 222.122
42.72000 236.319
42.76000 245.314
42.80000 244.453
42.84000 236.853
42.88000 240.842
42.92000 223.608
42.96000 234.436
43.00000 236.364
43.04000 235.869
43.08000 228.070
43.12000 221.874
43.16000 233.682
43.20000 235.550
43.24000 222.315
43.28000 226.684
43.32000 219.402
43.36000 220.236
43.40000 213.544
43.44000 219.583
43.48000 226.236
43.52000 236.834
43.56000 224.477
43.60000 219.873
43.64000 241.143
43.68000 238.692
43.72000 225.381
43.76000 213.118
43.80000 230.518
43.84000 229.833
43.88000 234.394
43.92000 227.880
43.96000 223.637
44.00000 229.118
44.04000 229.451
44.08000 229.852
44.12000 235.968
44.16000 240.394
44.20000 234.919
44.24000 231.177
44.28000 238.947
44.32000 234.609
44.36000 238.726
44.40000 258.415
44.44000 279.431
44.48000 257.764
44.52000 297.065
44.56000 314.195
44.60000 331.145
44.64000 369.072
44.68000 409.274
44.72000 432.369
44.76000 454.063
44.80000 512.613
44.84000 529.042
44.88000 550.340
44.92000 582.214
44.96000 585.200
45.00000 543.437
45.04000 533.176
45.08000 507.278
45.12000 459.697
45.16000 462.293
45.20000 410.383
45.24000 385.933
45.28000 361.823
45.32000 340.425
45.36000 296.466
45.40000 306.421
45.44000 295.685
45.48000 281.609
45.52000 277.629
45.56000 261.121
45.60000 265.742
45.64000 250.274
45.68000 251.049
45.72000 237.589
45.76000 240.444
45.80000 233.585
45.84000 234.916
45.88000 232.284
45.92000 235.255
45.96000 220.312
46.00000 216.248
46.04000 201.383
46.08000 203.890
46.12000 194.307
46.16000 219.365
46.20000 207.901
46.24000 196.699
46.28000 198.659
46.32000 219.678
46.36000 223.474
46.40000 206.012
46.44000 209.537
46.48000 204.449
46.52000 201.930
46.56000 202.434
46.60000 203.653
46.64000 199.848
46.68000 196.283
46.72000 198.817
46.76000 187.033
46.80000 188.414
46.84000 195.761
46.88000 195.629
46.92000 199.411
46.96000 193.207
47.00000 200.858
47.04000 192.485
47.08000 194.559
47.12000 182.922
47.16000 195.395
47.20000 187.248
47.24000 190.774
47.28000 188.683
47.32000 184.000
47.36000 182.964
47.40000 183.786
47.44000 197.773
47.48000 194.977
47.52000 191.672
47.56000 173.479
47.60000 188.404
47.64000 188.835
47.68000 186.699
47.72000 195.923
47.76000 193.687
47.80000 189.265
47.84000 189.606
47.88000 198.845
47.92000 178.822
47.96000 190.309
48.00000 182.003
48.04000 180.532
48.08000 183.553
48.12000 196.057
48.16000 183.326
48.20000 183.859
48.24000 181.937
48.28000 189.044
48.32000 178.718
48.36000 185.371
48.40000 199.712
48.44000 190.596
48.48000 198.133
48.52000 184.846
48.56000 186.749
48.60000 193.946
48.64000 167.199
48.68000 179.911
48.72000 187.783
48.76000 181.740
48.80000 183.002
48.84000 186.285
48.88000 176.967
48.92000 174.271
48.96000 179.874
49.00000 172.950
49.04000 177.725
49.08000 181.844
49.12000 174.906
49.16000 186.008
49.20000 188.786
49.24000 183.635
49.28000 180.672
49.32000 165.131
49.36000 183.833
49.40000 174.099
49.44000 182.113
49.48000 176.552
49.52000 170.439
49.56000 187.373
49.60000 170.641
49.64000 165.082
49.68000 183.350
49.72000 180.395
49.76000 174.952
49.80000 185.368
49.84000 180.199
49.88000 183.391
49.92000 178.245
49.96000 187.351
50.00000 183.959
50.04000 181.685
50.08000 188.570
50.12000 180.986
50.16000 187.736
50.20000 199.952
50.24000 190.996
50.28000 198.805
50.32000 198.479
50.36000 202.611
50.40000 222.497
50.44000 223.730
50.48000 240.333
50.52000 241.129
50.56000 245.740
50.60000 247.898
50.64000 254.565
50.68000 247.989
50.72000 239.076
50.76000 228.393
50.80000 221.381
50.84000 212.212
50.88000 212.391
50.92000 209.252
50.96000 202.740
51.00000 211.556
51.04000 194.624
51.08000 203.574
51.12000 190.062
51.16000 180.203
51.20000 192.505
51.24000 175.461
51.28000 166.248
51.32000 175.189
51.36000 168.015
51.40000 157.666
51.44000 178.901
51.48000 170.462
51.52000 158.501
51.56000 162.181
51.60000 174.552
51.64000 155.272
51.68000 155.143
51.72000 160.108
51.76000 159.725
51.80000 158.588
51.84000 161.599
51.88000 159.185
51.92000 166.172
51.96000 169.997
52.00000 172.435
52.04000 159.667
52.08000 162.745
52.12000 158.887
52.16000 152.201
52.20000 152.590
52.24000 153.458
52.28000 169.569
52.32000 159.154
52.36000 162.063
52.40000 155.419
52.44000 165.950
52.48000 159.906
52.52000 168.425
52.56000 149.533
52.60000 159.519
52.64000 142.831
52.68000 160.311
52.72000 157.295
52.76000 148.536
52.80000 155.015
52.84000 144.098
52.88000 155.356
52.92000 160.221
52.96000 155.785
53.00000 158.149
53.04000 162.462
53.08000 161.742
53.12000 161.563
53.16000 167.718
53.20000 158.135
53.24000 156.145
53.28000 153.432
53.32000 160.913
53.36000 167.744
53.40000 163.490
53.44000 150.986
53.48000 152.153
53.52000 162.131
53.56000 153.843
53.60000 155.238
53.64000 162.050
53.68000 159.055
53.72000 149.149
53.76000 159.209
53.80000 165.832
53.84000 151.697
53.88000 162.924
53.92000 158.712
53.96000 158.681
54.00000 156.811
54.04000 157.579
54.08000 160.912
54.12000 151.885
54.16000 147.715
54.20000 155.305
54.24000 155.662
54.28000 144.306
54.32000 149.313
54.36000 150.704
54.40000 160.906
54.44000 154.220
54.48000 158.447
54.52000 150.558
54.56000 150.068
54.60000 154.264
54.64000 146.745
54.68000 145.215
54.72000 151.689
54.76000 150.296
54.80000 165.343
54.84000 155.427
54.88000 150.922
54.92000 160.184
54.96000 157.041
55.00000 152.055
55.04000 169.401
55.08000 170.409
55.12000 159.362
55.16000 167.169
55.20000 171.318
55.24000 151.298
55.28000 180.781
55.32000 180.267
55.36000 189.596
55.40000 196.121
55.44000 207.036
55.48000 226.618
55.52000 235.331
55.56000 263.347
55.60000 275.871
55.64000 319.891
55.68000 349.400
55.72000 366.258
55.76000 385.217
55.80000 385.490
55.84000 402.728
55.88000 394.998
55.92000 382.191
55.96000 353.122
56.00000 337.537
56.04000 320.394
56.08000 309.349
56.12000 277.346
56.16000 269.234
56.20000 241.902
56.24000 215.239
56.28000 212.235
56.32000 202.119
56.36000 201.468
56.40000 185.140
56.44000 185.010
56.48000 168.621
56.52000 167.014
56.56000 168.698
56.60000 153.377
56.64000 150.533
56.68000 141.779
56.72000 151.230
56.76000 146.011
56.80000 140.284
56.84000 150.173
56.88000 150.199
56.92000 147.777
56.96000 146.677
57.00000 147.770
57.04000 147.137
57.08000 139.978
57.12000 144.487
57.16000 140.431
57.20000 137.448
57.24000 141.851
57.28000 149.858
57.32000 148.548
57.36000 145.496
57.40000 150.164
57.44000 132.878
57.48000 132.734
57.52000 141.224
57.56000 142.637
57.60000 153.980
57.64000 136.858
57.68000 134.110
57.72000 153.806
57.76000 148.300
57.80000 137.826
57.84000 132.087
57.88000 145.854
57.92000 135.163
57.96000 138.875
58.00000 129.806
58.04000 134.673
58.08000 147.563
58.12000 139.450
58.16000 135.076
58.20000 135.126
58.24000 131.509
58.28000 147.389
58.32000 130.911
58.36000 139.536
58.40000 148.947
58.44000 150.705
58.48000 123.864
58.52000 140.226
58.56000 139.528
58.60000 136.496
58.64000 138.739
58.68000 145.849
58.72000 133.461
58.76000 140.774
58.80000 136.743
58.84000 133.712
58.88000 144.103
58.92000 150.059
58.96000 144.423
59.00000 132.838
59.04000 143.563
59.08000 134.621
59.12000 139.687
59.16000 134.638
59.20000 132.192
59.24000 140.265
59.28000 133.025
59.32000 138.847
59.36000 146.838
59.40000 143.619
59.44000 131.448
59.48000 135.415
59.52000 136.993
59.56000 142.829
59.60000 130.169
59.64000 134.446
59.68000 137.823
59.72000 135.865
59.76000 141.452
59.80000 136.874
59.84000 143.158
59.88000 131.126
59.92000 130.323
59.96000 126.184
60.00000 127.983
60.04000 130.311
60.08000 128.157
60.12000 122.538
60.16000 139.097
60.20000 117.230
60.24000 138.025
60.28000 129.725
60.32000 132.246
60.36000 130.666
60.40000 126.058
60.44000 126.012
60.48000 124.969
60.52000 140.101
60.56000 130.607
60.60000 137.688
60.64000 131.671
60.68000 134.512
60.72000 137.024
60.76000 137.955
60.80000 138.459
60.84000 128.711
60.88000 143.922
60.92000 140.512
60.96000 133.939
61.00000 127.995
61.04000 149.480
61.08000 134.308
61.12000 132.599
61.16000 146.525
61.20000 136.560
61.24000 151.518
61.28000 142.737
61.32000 141.944
61.36000 137.795
61.40000 139.611
61.44000 143.352
61.48000 151.344
61.52000 185.757
61.56000 223.737
61.60000 281.953
61.64000 327.872
61.68000 337.022
61.72000 343.676
61.76000 323.292
61.80000 254.403
61.84000 186.271
61.88000 158.510
61.92000 149.659
61.96000 168.297
62.00000 148.434
62.04000 139.705
62.08000 151.266
62.12000 148.064
62.16000 153.494
62.20000 151.394
62.24000 146.575
62.28000 151.080
62.32000 153.606
62.36000 138.241
62.40000 139.875
62.44000 148.672
62.48000 144.761
62.52000 151.235
62.56000 145.053
62.60000 144.340
62.64000 141.480
62.68000 151.935
62.72000 141.175
62.76000 145.497
62.80000 154.369
62.84000 150.503
62.88000 141.928
62.92000 154.142
62.96000 155.021
63.00000 145.160
63.04000 149.382
63.08000 160.348
63.12000 152.839
63.16000 146.621
63.20000 150.352
63.24000 151.693
63.28000 157.347
63.32000 153.692
63.36000 156.386
63.40000 143.907
63.44000 143.321
63.48000 159.500
63.52000 147.560
63.56000 154.341
63.60000 153.194
63.64000 146.933
63.68000 152.320
63.72000 143.956
63.76000 153.809
63.80000 148.062
63.84000 158.361
63.88000 153.878
63.92000 153.869
63.96000 157.160
64.00000 164.837
64.04000 149.278
64.08000 162.456
64.12000 145.428
64.16000 163.804
64.20000 165.440
64.24000 174.892
64.28000 169.158
64.32000 165.524
64.36000 180.985
64.40000 167.330
64.44000 169.198
64.48000 176.810
64.52000 170.114
64.56000 173.571
64.60000 183.387
64.64000 177.258
64.68000 175.158
64.72000 183.643
64.76000 190.239
64.80000 176.416
64.84000 196.089
64.88000 204.232
64.92000 209.702
64.96000 228.171
65.00000 233.809
65.04000 253.180
65.08000 233.087
65.12000 268.109
65.16000 284.754
65.20000 300.256
65.24000 319.224
65.28000 355.041
65.32000 363.088
65.36000 370.119
65.40000 386.124
65.44000 378.502
65.48000 391.226
65.52000 389.750
65.56000 384.479
65.60000 393.626
65.64000 436.688
65.68000 531.815
65.72000 764.052
65.76000 1113.618
65.80000 1381.419
65.84000 1503.491
65.88000 1491.405
65.92000 1472.656
65.96000 1193.386
66.00000 836.121
66.04000 574.435
66.08000 432.191
66.12000 371.697
66.16000 355.278
66.20000 349.595
66.24000 378.278
66.28000 409.172
66.32000 486.595
66.36000 548.002
66.40000 549.118
66.44000 563.224
66.48000 554.213
66.52000 503.474
66.56000 445.962
66.60000 378.402
66.64000 368.444
66.68000 360.693
66.72000 356.896
66.76000 373.416
66.80000 364.885
66.84000 364.279
66.88000 369.861
66.92000 381.439
66.96000 396.626
67.00000 384.296
67.04000 408.163
67.08000 417.633
67.12000 411.222
67.16000 408.974
67.20000 409.827
67.24000 440.654
67.28000 453.893
67.32000 433.338
67.36000 470.717
67.40000 453.510
67.44000 468.656
67.48000 483.349
67.52000 501.597
67.56000 489.524
67.60000 502.349
67.64000 496.855
67.68000 495.671
67.72000 517.673
67.76000 533.448
67.80000 552.716
67.84000 553.786
67.88000 547.912
67.92000 588.758
67.96000 583.240
68.00000 587.032
68.04000 611.645
68.08000 645.123
68.12000 645.583
68.16000 658.890
68.20000 692.362
68.24000 715.489
68.28000 719.090
68.32000 756.806
68.36000 809.750
68.40000 804.587
68.44000 853.629
68.48000 889.179
68.52000 941.373
68.56000 1045.647
68.60000 1219.114
68.64000 1433.341
68.68000 1703.896
68.72000 2004.749
68.76000 2271.699
68.80000 2613.359
68.84000 3080.696
68.88000 4023.519
68.92000 7323.319
68.96000 19299.777
69.00000 43096.813
69.04000 67517.961
69.08000 78363.617
69.12000 80938.711
69.16000 83857.938
69.20000 81955.180
69.24000 69766.227
69.28000 52555.797
69.32000 42929.086
69.36000 38550.094
69.40000 30830.836
69.44000 18958.596
69.48000 8621.853
69.52000 3665.885
69.56000 2345.602
69.60000 1791.777
69.64000 1540.852
69.68000 1342.911
69.72000 1190.789
69.76000 1113.850
69.80000 1010.096
69.84000 942.401
69.88000 877.167
69.92000 805.798
69.96000 789.085
70.00000 749.921