File: XRD/25-09-2025/XY Data/BTO_Mapping_Theta2Theta_25-09-2025_001_27_-16-180_11-756.xy
20.00000 563.708
20.04000 543.085
20.08000 566.555
20.12000 538.163
20.16000 546.240
20.20000 547.570
20.24000 546.768
20.28000 548.601
20.32000 548.039
20.36000 579.520
20.40000 559.107
20.44000 555.277
20.48000 555.128
20.52000 546.746
20.56000 530.794
20.60000 567.456
20.64000 556.327
20.68000 543.118
20.72000 554.592
20.76000 543.147
20.80000 549.349
20.84000 543.700
20.88000 534.559
20.92000 520.763
20.96000 557.916
21.00000 545.376
21.04000 548.001
21.08000 550.709
21.12000 556.656
21.16000 535.147
21.20000 545.120
21.24000 525.257
21.28000 554.670
21.32000 544.846
21.36000 522.723
21.40000 539.971
21.44000 540.199
21.48000 555.230
21.52000 524.018
21.56000 547.109
21.60000 551.385
21.64000 581.444
21.68000 562.306
21.72000 559.598
21.76000 557.489
21.80000 587.876
21.84000 598.392
21.88000 637.667
21.92000 648.881
21.96000 675.905
22.00000 676.119
22.04000 697.725
22.08000 679.444
22.12000 700.348
22.16000 693.326
22.20000 661.830
22.24000 667.184
22.28000 644.084
22.32000 624.747
22.36000 644.780
22.40000 579.297
22.44000 576.057
22.48000 595.367
22.52000 549.253
22.56000 561.175
22.60000 555.248
22.64000 541.631
22.68000 531.072
22.72000 520.584
22.76000 525.564
22.80000 508.229
22.84000 517.298
22.88000 502.616
22.92000 514.678
22.96000 516.342
23.00000 482.562
23.04000 509.406
23.08000 497.101
23.12000 496.650
23.16000 505.857
23.20000 491.441
23.24000 498.860
23.28000 507.468
23.32000 507.165
23.36000 506.771
23.40000 499.230
23.44000 498.310
23.48000 513.024
23.52000 494.497
23.56000 491.112
23.60000 495.905
23.64000 482.158
23.68000 494.271
23.72000 514.939
23.76000 502.924
23.80000 486.785
23.84000 496.479
23.88000 491.897
23.92000 478.892
23.96000 482.803
24.00000 469.758
24.04000 483.889
24.08000 477.536
24.12000 492.535
24.16000 477.651
24.20000 487.979
24.24000 490.712
24.28000 500.640
24.32000 485.206
24.36000 495.291
24.40000 487.370
24.44000 500.681
24.48000 491.554
24.52000 467.475
24.56000 486.801
24.60000 476.034
24.64000 476.916
24.68000 486.137
24.72000 468.279
24.76000 481.078
24.80000 470.777
24.84000 463.876
24.88000 474.885
24.92000 485.736
24.96000 470.615
25.00000 473.188
25.04000 472.426
25.08000 479.913
25.12000 477.125
25.16000 470.448
25.20000 465.358
25.24000 465.407
25.28000 473.815
25.32000 451.398
25.36000 466.877
25.40000 462.561
25.44000 465.214
25.48000 458.484
25.52000 470.380
25.56000 458.750
25.60000 468.177
25.64000 456.388
25.68000 453.502
25.72000 467.879
25.76000 478.776
25.80000 442.309
25.84000 446.505
25.88000 473.538
25.92000 463.342
25.96000 461.760
26.00000 453.155
26.04000 423.038
26.08000 453.004
26.12000 454.201
26.16000 443.644
26.20000 437.589
26.24000 453.495
26.28000 444.435
26.32000 438.575
26.36000 464.112
26.40000 448.026
26.44000 449.686
26.48000 447.061
26.52000 444.809
26.56000 445.057
26.60000 456.510
26.64000 438.473
26.68000 442.044
26.72000 441.758
26.76000 417.635
26.80000 439.293
26.84000 436.359
26.88000 446.788
26.92000 448.753
26.96000 443.086
27.00000 440.912
27.04000 424.663
27.08000 436.653
27.12000 431.509
27.16000 407.595
27.20000 428.417
27.24000 422.084
27.28000 433.725
27.32000 416.286
27.36000 432.463
27.40000 439.971
27.44000 418.314
27.48000 424.055
27.52000 402.200
27.56000 416.964
27.60000 432.773
27.64000 413.398
27.68000 447.539
27.72000 418.576
27.76000 420.425
27.80000 451.503
27.84000 430.369
27.88000 404.296
27.92000 416.753
27.96000 428.895
28.00000 406.244
28.04000 438.499
28.08000 411.966
28.12000 419.427
28.16000 423.531
28.20000 423.353
28.24000 422.130
28.28000 433.407
28.32000 417.919
28.36000 419.426
28.40000 431.617
28.44000 419.636
28.48000 424.997
28.52000 423.009
28.56000 413.587
28.60000 433.245
28.64000 424.290
28.68000 416.735
28.72000 405.267
28.76000 412.748
28.80000 405.904
28.84000 422.684
28.88000 411.498
28.92000 422.722
28.96000 422.723
29.00000 416.086
29.04000 409.294
29.08000 408.953
29.12000 393.277
29.16000 407.788
29.20000 433.122
29.24000 417.026
29.28000 394.754
29.32000 424.703
29.36000 407.132
29.40000 403.632
29.44000 399.156
29.48000 416.142
29.52000 400.944
29.56000 402.216
29.60000 393.496
29.64000 396.491
29.68000 400.430
29.72000 412.977
29.76000 403.378
29.80000 414.914
29.84000 431.562
29.88000 407.849
29.92000 422.729
29.96000 422.332
30.00000 429.956
30.04000 442.073
30.08000 417.005
30.12000 407.322
30.16000 406.939
30.20000 411.349
30.24000 409.690
30.28000 408.295
30.32000 409.938
30.36000 410.840
30.40000 412.456
30.44000 398.933
30.48000 414.410
30.52000 410.082
30.56000 401.742
30.60000 420.300
30.64000 410.147
30.68000 393.098
30.72000 426.246
30.76000 420.662
30.80000 423.105
30.84000 439.466
30.88000 430.916
30.92000 462.409
30.96000 489.314
31.00000 535.212
31.04000 590.307
31.08000 692.793
31.12000 822.533
31.16000 1003.951
31.20000 1246.597
31.24000 1472.831
31.28000 1713.239
31.32000 1891.107
31.36000 1997.024
31.40000 2019.841
31.44000 1934.833
31.48000 1745.230
31.52000 1547.272
31.56000 1334.905
31.60000 1082.204
31.64000 956.717
31.68000 778.365
31.72000 676.431
31.76000 591.895
31.80000 545.610
31.84000 498.186
31.88000 461.616
31.92000 457.684
31.96000 435.034
32.00000 408.956
32.04000 421.830
32.08000 400.973
32.12000 401.921
32.16000 388.580
32.20000 392.325
32.24000 382.630
32.28000 373.071
32.32000 370.422
32.36000 370.886
32.40000 380.154
32.44000 377.238
32.48000 373.064
32.52000 372.791
32.56000 368.440
32.60000 361.320
32.64000 370.169
32.68000 363.258
32.72000 378.562
32.76000 366.083
32.80000 377.806
32.84000 388.046
32.88000 369.555
32.92000 367.386
32.96000 373.661
33.00000 370.416
33.04000 363.684
33.08000 366.243
33.12000 362.999
33.16000 365.013
33.20000 336.645
33.24000 337.809
33.28000 345.571
33.32000 353.543
33.36000 356.196
33.40000 341.231
33.44000 334.746
33.48000 339.237
33.52000 328.126
33.56000 326.008
33.60000 315.410
33.64000 322.130
33.68000 327.274
33.72000 319.074
33.76000 329.760
33.80000 323.369
33.84000 336.630
33.88000 337.939
33.92000 329.946
33.96000 329.454
34.00000 322.286
34.04000 325.744
34.08000 313.936
34.12000 335.383
34.16000 322.017
34.20000 316.406
34.24000 330.258
34.28000 321.087
34.32000 332.128
34.36000 312.464
34.40000 322.532
34.44000 307.053
34.48000 311.647
34.52000 334.373
34.56000 324.716
34.60000 314.009
34.64000 327.158
34.68000 324.528
34.72000 330.745
34.76000 310.262
34.80000 316.337
34.84000 307.979
34.88000 315.922
34.92000 315.121
34.96000 316.932
35.00000 316.179
35.04000 308.679
35.08000 312.714
35.12000 310.979
35.16000 321.721
35.20000 310.540
35.24000 331.248
35.28000 312.388
35.32000 295.278
35.36000 306.424
35.40000 311.258
35.44000 314.515
35.48000 297.854
35.52000 319.511
35.56000 307.820
35.60000 295.511
35.64000 327.246
35.68000 304.729
35.72000 296.087
35.76000 288.526
35.80000 320.294
35.84000 305.715
35.88000 295.113
35.92000 301.926
35.96000 300.906
36.00000 290.958
36.04000 304.462
36.08000 290.891
36.12000 298.095
36.16000 313.442
36.20000 298.036
36.24000 303.623
36.28000 284.034
36.32000 297.459
36.36000 296.249
36.40000 297.601
36.44000 292.177
36.48000 317.843
36.52000 303.486
36.56000 293.803
36.60000 285.822
36.64000 297.385
36.68000 305.230
36.72000 288.372
36.76000 297.156
36.80000 290.278
36.84000 286.792
36.88000 274.636
36.92000 298.339
36.96000 298.764
37.00000 292.958
37.04000 295.517
37.08000 299.397
37.12000 290.628
37.16000 295.996
37.20000 302.051
37.24000 299.526
37.28000 302.195
37.32000 296.474
37.36000 303.506
37.40000 290.247
37.44000 273.065
37.48000 276.481
37.52000 286.103
37.56000 294.444
37.60000 280.287
37.64000 294.305
37.68000 295.925
37.72000 296.768
37.76000 289.528
37.80000 287.557
37.84000 277.116
37.88000 286.102
37.92000 279.308
37.96000 274.131
38.00000 285.501
38.04000 281.610
38.08000 297.691
38.12000 306.203
38.16000 285.874
38.20000 297.460
38.24000 314.774
38.28000 303.628
38.32000 318.782
38.36000 327.103
38.40000 348.817
38.44000 377.928
38.48000 416.650
38.52000 472.447
38.56000 541.552
38.60000 590.802
38.64000 619.385
38.68000 683.468
38.72000 686.984
38.76000 667.643
38.80000 626.342
38.84000 569.732
38.88000 529.005
38.92000 454.119
38.96000 390.986
39.00000 358.572
39.04000 330.137
39.08000 319.605
39.12000 294.261
39.16000 288.286
39.20000 287.553
39.24000 280.452
39.28000 292.986
39.32000 258.317
39.36000 266.368
39.40000 274.627
39.44000 263.223
39.48000 285.832
39.52000 267.818
39.56000 266.389
39.60000 264.949
39.64000 277.093
39.68000 266.265
39.72000 255.793
39.76000 270.322
39.80000 236.395
39.84000 265.724
39.88000 255.522
39.92000 275.546
39.96000 249.013
40.00000 252.073
40.04000 254.696
40.08000 254.027
40.12000 258.482
40.16000 263.636
40.20000 252.202
40.24000 260.007
40.28000 267.312
40.32000 251.662
40.36000 246.019
40.40000 251.369
40.44000 249.229
40.48000 248.202
40.52000 271.154
40.56000 245.708
40.60000 253.313
40.64000 246.663
40.68000 248.142
40.72000 245.009
40.76000 258.780
40.80000 249.806
40.84000 224.272
40.88000 240.796
40.92000 252.420
40.96000 245.191
41.00000 242.888
41.04000 254.366
41.08000 239.269
41.12000 246.044
41.16000 248.786
41.20000 242.328
41.24000 249.363
41.28000 235.774
41.32000 252.776
41.36000 247.404
41.40000 239.302
41.44000 241.027
41.48000 229.494
41.52000 228.177
41.56000 238.114
41.60000 241.705
41.64000 247.403
41.68000 229.972
41.72000 239.999
41.76000 226.759
41.80000 231.298
41.84000 241.632
41.88000 236.831
41.92000 240.217
41.96000 233.176
42.00000 234.514
42.04000 236.128
42.08000 234.348
42.12000 233.028
42.16000 224.930
42.20000 245.080
42.24000 224.894
42.28000 212.447
42.32000 223.710
42.36000 230.005
42.40000 217.381
42.44000 227.941
42.48000 232.234
42.52000 209.141
42.56000 227.391
42.60000 233.846
42.64000 233.245
42.68000 238.353
42.72000 226.410
42.76000 220.780
42.80000 222.097
42.84000 216.379
42.88000 217.456
42.92000 210.681
42.96000 225.850
43.00000 221.061
43.04000 227.750
43.08000 234.417
43.12000 215.855
43.16000 219.406
43.20000 217.123
43.24000 216.065
43.28000 217.811
43.32000 221.499
43.36000 227.991
43.40000 223.005
43.44000 198.133
43.48000 219.074
43.52000 233.664
43.56000 222.347
43.60000 237.719
43.64000 214.794
43.68000 214.186
43.72000 221.397
43.76000 228.414
43.80000 207.227
43.84000 228.780
43.88000 213.153
43.92000 227.116
43.96000 230.158
44.00000 226.436
44.04000 226.237
44.08000 220.168
44.12000 203.098
44.16000 218.143
44.20000 220.671
44.24000 222.279
44.28000 217.561
44.32000 218.002
44.36000 223.825
44.40000 223.762
44.44000 231.783
44.48000 206.398
44.52000 222.581
44.56000 235.808
44.60000 229.755
44.64000 229.370
44.68000 228.704
44.72000 238.204
44.76000 248.141
44.80000 256.163
44.84000 276.760
44.88000 283.237
44.92000 289.489
44.96000 307.675
45.00000 320.243
45.04000 329.341
45.08000 328.282
45.12000 340.526
45.16000 306.730
45.20000 315.918
45.24000 324.822
45.28000 296.535
45.32000 306.985
45.36000 291.150
45.40000 286.377
45.44000 275.859
45.48000 274.109
45.52000 267.893
45.56000 266.958
45.60000 277.435
45.64000 257.458
45.68000 261.011
45.72000 260.554
45.76000 252.152
45.80000 238.110
45.84000 238.249
45.88000 236.425
45.92000 234.285
45.96000 230.224
46.00000 218.569
46.04000 214.491
46.08000 226.782
46.12000 214.342
46.16000 215.843
46.20000 214.850
46.24000 200.880
46.28000 211.663
46.32000 193.151
46.36000 201.001
46.40000 203.167
46.44000 205.912
46.48000 203.240
46.52000 201.098
46.56000 192.794
46.60000 196.242
46.64000 190.330
46.68000 204.839
46.72000 192.775
46.76000 198.387
46.80000 195.498
46.84000 185.216
46.88000 197.557
46.92000 201.449
46.96000 200.084
47.00000 186.806
47.04000 184.155
47.08000 189.910
47.12000 195.676
47.16000 190.446
47.20000 186.799
47.24000 184.188
47.28000 188.320
47.32000 184.298
47.36000 186.291
47.40000 192.519
47.44000 196.109
47.48000 186.571
47.52000 190.490
47.56000 175.443
47.60000 193.424
47.64000 188.236
47.68000 182.591
47.72000 179.769
47.76000 177.319
47.80000 192.312
47.84000 184.429
47.88000 190.427
47.92000 197.281
47.96000 181.940
48.00000 182.431
48.04000 188.973
48.08000 178.093
48.12000 180.272
48.16000 196.370
48.20000 180.659
48.24000 179.546
48.28000 182.318
48.32000 190.666
48.36000 189.028
48.40000 180.993
48.44000 178.125
48.48000 185.464
48.52000 180.410
48.56000 181.489
48.60000 191.614
48.64000 176.754
48.68000 182.377
48.72000 181.399
48.76000 174.319
48.80000 182.300
48.84000 183.213
48.88000 177.641
48.92000 166.466
48.96000 178.185
49.00000 178.517
49.04000 180.160
49.08000 174.387
49.12000 174.753
49.16000 171.601
49.20000 173.100
49.24000 177.556
49.28000 181.684
49.32000 182.292
49.36000 175.798
49.40000 182.850
49.44000 178.616
49.48000 171.161
49.52000 168.708
49.56000 170.923
49.60000 180.908
49.64000 175.338
49.68000 170.629
49.72000 171.684
49.76000 181.360
49.80000 176.355
49.84000 181.835
49.88000 170.300
49.92000 179.799
49.96000 176.012
50.00000 173.436
50.04000 179.777
50.08000 185.675
50.12000 177.304
50.16000 170.633
50.20000 175.924
50.24000 160.058
50.28000 174.139
50.32000 182.372
50.36000 176.698
50.40000 192.473
50.44000 199.195
50.48000 204.800
50.52000 207.266
50.56000 217.399
50.60000 218.679
50.64000 218.147
50.68000 205.652
50.72000 226.786
50.76000 221.894
50.80000 228.417
50.84000 201.834
50.88000 209.142
50.92000 207.558
50.96000 203.354
51.00000 187.169
51.04000 185.252
51.08000 174.154
51.12000 184.871
51.16000 171.429
51.20000 176.757
51.24000 183.810
51.28000 165.537
51.32000 171.883
51.36000 162.992
51.40000 171.027
51.44000 164.891
51.48000 163.188
51.52000 166.415
51.56000 158.145
51.60000 159.371
51.64000 164.177
51.68000 176.871
51.72000 156.456
51.76000 162.354
51.80000 155.419
51.84000 158.570
51.88000 169.376
51.92000 167.886
51.96000 170.676
52.00000 166.520
52.04000 158.713
52.08000 165.550
52.12000 153.961
52.16000 155.020
52.20000 147.090
52.24000 154.889
52.28000 163.682
52.32000 148.533
52.36000 159.830
52.40000 162.303
52.44000 148.383
52.48000 163.799
52.52000 152.448
52.56000 160.219
52.60000 160.554
52.64000 169.713
52.68000 151.168
52.72000 157.134
52.76000 151.338
52.80000 149.521
52.84000 158.231
52.88000 155.630
52.92000 143.448
52.96000 160.868
53.00000 152.085
53.04000 156.950
53.08000 148.865
53.12000 161.454
53.16000 151.637
53.20000 157.764
53.24000 154.306
53.28000 163.336
53.32000 160.044
53.36000 160.731
53.40000 157.193
53.44000 167.844
53.48000 158.653
53.52000 161.934
53.56000 148.713
53.60000 147.772
53.64000 151.164
53.68000 155.334
53.72000 147.467
53.76000 145.564
53.80000 167.500
53.84000 160.168
53.88000 151.567
53.92000 141.225
53.96000 146.402
54.00000 160.387
54.04000 150.276
54.08000 155.167
54.12000 147.085
54.16000 148.439
54.20000 151.055
54.24000 161.181
54.28000 164.180
54.32000 157.883
54.36000 151.056
54.40000 151.187
54.44000 150.698
54.48000 153.984
54.52000 159.194
54.56000 150.979
54.60000 148.291
54.64000 144.068
54.68000 137.905
54.72000 168.713
54.76000 147.220
54.80000 151.659
54.84000 155.266
54.88000 152.406
54.92000 143.724
54.96000 151.194
55.00000 161.695
55.04000 146.539
55.08000 153.428
55.12000 159.709
55.16000 151.372
55.20000 164.639
55.24000 158.404
55.28000 158.040
55.32000 158.651
55.36000 167.369
55.40000 176.905
55.44000 175.983
55.48000 185.327
55.52000 195.223
55.56000 211.184
55.60000 238.148
55.64000 250.343
55.68000 283.771
55.72000 325.737
55.76000 346.062
55.80000 377.114
55.84000 382.016
55.88000 407.332
55.92000 434.958
55.96000 417.203
56.00000 396.009
56.04000 385.408
56.08000 374.025
56.12000 333.025
56.16000 294.952
56.20000 294.451
56.24000 269.961
56.28000 246.534
56.32000 210.165
56.36000 206.667
56.40000 207.805
56.44000 174.656
56.48000 177.742
56.52000 169.684
56.56000 153.363
56.60000 164.587
56.64000 160.685
56.68000 166.474
56.72000 160.551
56.76000 156.226
56.80000 147.640
56.84000 152.556
56.88000 143.926
56.92000 153.433
56.96000 138.515
57.00000 153.064
57.04000 144.851
57.08000 145.896
57.12000 138.924
57.16000 134.703
57.20000 136.897
57.24000 154.041
57.28000 138.006
57.32000 139.687
57.36000 140.580
57.40000 151.911
57.44000 137.618
57.48000 143.943
57.52000 145.629
57.56000 137.351
57.60000 141.735
57.64000 143.593
57.68000 145.124
57.72000 143.359
57.76000 139.526
57.80000 150.161
57.84000 133.846
57.88000 138.797
57.92000 135.404
57.96000 137.928
58.00000 146.186
58.04000 140.893
58.08000 139.717
58.12000 138.769
58.16000 138.940
58.20000 130.088
58.24000 120.621
58.28000 144.684
58.32000 133.730
58.36000 141.820
58.40000 138.530
58.44000 135.854
58.48000 133.029
58.52000 147.092
58.56000 138.269
58.60000 131.299
58.64000 133.177
58.68000 118.583
58.72000 138.740
58.76000 126.790
58.80000 136.352
58.84000 138.489
58.88000 132.609
58.92000 131.596
58.96000 137.384
59.00000 129.055
59.04000 128.227
59.08000 139.434
59.12000 132.921
59.16000 125.962
59.20000 133.089
59.24000 143.111
59.28000 133.078
59.32000 126.648
59.36000 133.902
59.40000 134.295
59.44000 131.817
59.48000 131.200
59.52000 141.741
59.56000 137.373
59.60000 135.596
59.64000 130.723
59.68000 128.904
59.72000 134.145
59.76000 131.642
59.80000 127.742
59.84000 131.445
59.88000 130.308
59.92000 131.046
59.96000 120.176
60.00000 122.630
60.04000 138.804
60.08000 134.734
60.12000 130.219
60.16000 124.346
60.20000 131.842
60.24000 123.049
60.28000 125.970
60.32000 127.730
60.36000 132.871
60.40000 132.836
60.44000 137.366
60.48000 130.007
60.52000 133.753
60.56000 135.110
60.60000 140.248
60.64000 128.094
60.68000 133.398
60.72000 125.361
60.76000 125.904
60.80000 126.821
60.84000 136.264
60.88000 126.576
60.92000 129.659
60.96000 129.829
61.00000 140.285
61.04000 126.032
61.08000 124.254
61.12000 136.597
61.16000 135.104
61.20000 137.850
61.24000 138.904
61.28000 138.039
61.32000 138.067
61.36000 139.934
61.40000 135.466
61.44000 139.950
61.48000 155.425
61.52000 163.117
61.56000 211.867
61.60000 247.906
61.64000 258.242
61.68000 281.303
61.72000 287.263
61.76000 265.753
61.80000 221.861
61.84000 167.502
61.88000 149.674
61.92000 140.703
61.96000 139.330
62.00000 139.082
62.04000 144.073
62.08000 141.940
62.12000 142.346
62.16000 134.223
62.20000 136.708
62.24000 131.251
62.28000 147.000
62.32000 130.193
62.36000 136.582
62.40000 140.743
62.44000 145.160
62.48000 136.776
62.52000 131.532
62.56000 140.782
62.60000 149.875
62.64000 144.758
62.68000 146.067
62.72000 136.983
62.76000 131.824
62.80000 142.883
62.84000 148.525
62.88000 142.634
62.92000 141.885
62.96000 148.009
63.00000 143.144
63.04000 140.111
63.08000 146.486
63.12000 146.526
63.16000 148.944
63.20000 146.247
63.24000 146.511
63.28000 143.178
63.32000 151.350
63.36000 141.553
63.40000 149.242
63.44000 147.062
63.48000 141.405
63.52000 147.531
63.56000 150.309
63.60000 134.059
63.64000 149.002
63.68000 145.909
63.72000 153.591
63.76000 150.846
63.80000 143.222
63.84000 149.566
63.88000 157.337
63.92000 143.339
63.96000 148.451
64.00000 155.945
64.04000 142.845
64.08000 156.644
64.12000 154.650
64.16000 155.964
64.20000 156.061
64.24000 162.064
64.28000 163.730
64.32000 156.318
64.36000 160.799
64.40000 168.209
64.44000 180.406
64.48000 167.245
64.52000 158.840
64.56000 160.201
64.60000 181.744
64.64000 167.602
64.68000 181.178
64.72000 181.013
64.76000 179.431
64.80000 175.984
64.84000 186.831
64.88000 188.360
64.92000 193.840
64.96000 183.520
65.00000 179.866
65.04000 203.770
65.08000 197.917
65.12000 205.714
65.16000 218.313
65.20000 228.788
65.24000 247.954
65.28000 260.108
65.32000 247.874
65.36000 261.281
65.40000 268.853
65.44000 288.458
65.48000 298.363
65.52000 309.235
65.56000 321.954
65.60000 353.525
65.64000 386.232
65.68000 454.937
65.72000 639.778
65.76000 848.680
65.80000 1091.931
65.84000 1170.399
65.88000 1193.955
65.92000 1145.318
65.96000 924.992
66.00000 714.498
66.04000 486.543
66.08000 382.603
66.12000 361.733
66.16000 322.636
66.20000 316.082
66.24000 345.327
66.28000 381.610
66.32000 424.426
66.36000 463.145
66.40000 480.306
66.44000 481.540
66.48000 471.159
66.52000 442.678
66.56000 377.824
66.60000 340.973
66.64000 341.612
66.68000 326.545
66.72000 329.282
66.76000 333.525
66.80000 333.214
66.84000 343.372
66.88000 351.793
66.92000 339.129
66.96000 355.037
67.00000 367.900
67.04000 385.997
67.08000 369.146
67.12000 378.592
67.16000 382.539
67.20000 372.832
67.24000 377.933
67.28000 390.420
67.32000 406.281
67.36000 417.715
67.40000 421.200
67.44000 427.796
67.48000 436.294
67.52000 450.302
67.56000 437.183
67.60000 456.221
67.64000 466.903
67.68000 481.189
67.72000 472.976
67.76000 510.166
67.80000 496.182
67.84000 502.790
67.88000 525.825
67.92000 523.507
67.96000 544.766
68.00000 565.481
68.04000 559.864
68.08000 568.787
68.12000 613.218
68.16000 601.601
68.20000 620.516
68.24000 632.385
68.28000 638.592
68.32000 673.203
68.36000 717.735
68.40000 735.671
68.44000 746.897
68.48000 793.528
68.52000 831.906
68.56000 889.505
68.60000 1026.922
68.64000 1214.793
68.68000 1442.232
68.72000 1698.592
68.76000 1928.979
68.80000 2222.432
68.84000 2599.444
68.88000 3425.843
68.92000 5892.204
68.96000 14905.036
69.00000 32701.031
69.04000 50282.633
69.08000 58769.125
69.12000 60373.988
69.16000 62959.957
69.20000 62184.332
69.24000 50705.473
69.28000 39101.758
69.32000 32162.762
69.36000 28989.010
69.40000 23446.506
69.44000 13833.586
69.48000 6534.341
69.52000 2927.574
69.56000 1905.977
69.60000 1537.262
69.64000 1259.978
69.68000 1137.976
69.72000 1041.036
69.76000 948.627
69.80000 874.879
69.84000 805.698
69.88000 794.025
69.92000 717.555
69.96000 688.969
70.00000 671.825