File: XRD/25-09-2025/XY Data/BTO_Mapping_Theta2Theta_25-09-2025_001_39_-16-180_-11-756.xy
20.00000 546.323
20.04000 553.758
20.08000 556.585
20.12000 563.892
20.16000 544.143
20.20000 572.346
20.24000 557.623
20.28000 564.262
20.32000 522.467
20.36000 567.262
20.40000 552.690
20.44000 552.388
20.48000 555.721
20.52000 554.638
20.56000 543.224
20.60000 540.594
20.64000 539.215
20.68000 546.529
20.72000 568.653
20.76000 545.359
20.80000 536.325
20.84000 533.943
20.88000 523.740
20.92000 537.526
20.96000 542.912
21.00000 527.654
21.04000 536.156
21.08000 543.869
21.12000 546.857
21.16000 556.818
21.20000 546.528
21.24000 557.227
21.28000 544.798
21.32000 551.897
21.36000 541.768
21.40000 534.972
21.44000 544.650
21.48000 535.957
21.52000 553.252
21.56000 577.263
21.60000 564.575
21.64000 584.438
21.68000 566.253
21.72000 599.373
21.76000 611.944
21.80000 655.583
21.84000 649.536
21.88000 711.814
21.92000 739.128
21.96000 784.251
22.00000 809.298
22.04000 791.602
22.08000 765.760
22.12000 758.796
22.16000 736.116
22.20000 709.871
22.24000 663.564
22.28000 635.319
22.32000 617.173
22.36000 606.047
22.40000 618.770
22.44000 592.344
22.48000 576.065
22.52000 547.662
22.56000 541.699
22.60000 549.055
22.64000 527.892
22.68000 518.810
22.72000 527.564
22.76000 520.895
22.80000 503.375
22.84000 503.886
22.88000 541.537
22.92000 521.773
22.96000 506.948
23.00000 522.238
23.04000 510.263
23.08000 512.310
23.12000 512.640
23.16000 519.212
23.20000 526.443
23.24000 503.987
23.28000 510.459
23.32000 511.137
23.36000 504.592
23.40000 504.243
23.44000 501.461
23.48000 492.819
23.52000 495.835
23.56000 515.705
23.60000 508.586
23.64000 493.464
23.68000 497.645
23.72000 487.814
23.76000 488.400
23.80000 496.110
23.84000 489.756
23.88000 506.853
23.92000 471.675
23.96000 481.481
24.00000 490.063
24.04000 512.488
24.08000 478.840
24.12000 470.669
24.16000 500.846
24.20000 489.365
24.24000 478.928
24.28000 495.687
24.32000 485.592
24.36000 501.779
24.40000 497.469
24.44000 493.627
24.48000 486.927
24.52000 491.370
24.56000 483.905
24.60000 459.762
24.64000 490.928
24.68000 476.549
24.72000 477.142
24.76000 472.094
24.80000 486.565
24.84000 468.398
24.88000 475.550
24.92000 473.948
24.96000 485.019
25.00000 457.029
25.04000 482.158
25.08000 462.767
25.12000 490.510
25.16000 477.501
25.20000 458.654
25.24000 469.376
25.28000 439.545
25.32000 453.556
25.36000 475.189
25.40000 448.352
25.44000 460.333
25.48000 471.428
25.52000 472.716
25.56000 469.996
25.60000 461.737
25.64000 470.891
25.68000 459.911
25.72000 449.964
25.76000 472.591
25.80000 457.106
25.84000 450.996
25.88000 468.501
25.92000 468.772
25.96000 461.880
26.00000 466.574
26.04000 449.263
26.08000 452.680
26.12000 448.542
26.16000 443.245
26.20000 451.189
26.24000 442.268
26.28000 440.229
26.32000 441.907
26.36000 442.586
26.40000 442.819
26.44000 427.203
26.48000 445.887
26.52000 431.722
26.56000 453.211
26.60000 459.513
26.64000 458.921
26.68000 452.803
26.72000 438.870
26.76000 454.807
26.80000 440.388
26.84000 427.060
26.88000 437.532
26.92000 444.709
26.96000 436.316
27.00000 434.912
27.04000 433.675
27.08000 430.518
27.12000 431.691
27.16000 437.746
27.20000 444.020
27.24000 421.995
27.28000 418.570
27.32000 441.258
27.36000 441.007
27.40000 442.749
27.44000 446.248
27.48000 435.578
27.52000 427.906
27.56000 437.692
27.60000 422.745
27.64000 421.798
27.68000 417.981
27.72000 426.340
27.76000 442.653
27.80000 430.784
27.84000 435.664
27.88000 409.282
27.92000 407.997
27.96000 412.968
28.00000 420.398
28.04000 419.317
28.08000 426.985
28.12000 419.271
28.16000 419.607
28.20000 423.072
28.24000 416.386
28.28000 437.970
28.32000 428.858
28.36000 418.461
28.40000 416.240
28.44000 426.702
28.48000 405.738
28.52000 414.454
28.56000 402.395
28.60000 410.123
28.64000 403.462
28.68000 407.219
28.72000 382.678
28.76000 410.041
28.80000 406.632
28.84000 400.223
28.88000 421.372
28.92000 385.624
28.96000 407.631
29.00000 402.347
29.04000 414.783
29.08000 399.076
29.12000 384.183
29.16000 399.769
29.20000 389.256
29.24000 396.117
29.28000 404.805
29.32000 390.204
29.36000 414.219
29.40000 412.281
29.44000 405.307
29.48000 399.652
29.52000 387.472
29.56000 409.145
29.60000 415.623
29.64000 417.791
29.68000 418.000
29.72000 398.665
29.76000 412.843
29.80000 423.035
29.84000 400.681
29.88000 425.524
29.92000 418.707
29.96000 448.119
30.00000 440.695
30.04000 421.658
30.08000 416.185
30.12000 418.755
30.16000 412.916
30.20000 415.646
30.24000 427.931
30.28000 397.853
30.32000 413.794
30.36000 409.645
30.40000 390.203
30.44000 416.798
30.48000 409.095
30.52000 423.940
30.56000 425.493
30.60000 410.440
30.64000 413.365
30.68000 421.674
30.72000 436.837
30.76000 426.845
30.80000 448.233
30.84000 452.031
30.88000 474.685
30.92000 489.269
30.96000 550.152
31.00000 615.810
31.04000 688.205
31.08000 854.758
31.12000 1039.867
31.16000 1238.604
31.20000 1497.994
31.24000 1773.551
31.28000 2044.777
31.32000 2174.525
31.36000 2304.214
31.40000 2299.299
31.44000 2122.591
31.48000 1889.375
31.52000 1612.424
31.56000 1389.529
31.60000 1174.657
31.64000 998.495
31.68000 812.416
31.72000 743.716
31.76000 637.031
31.80000 577.449
31.84000 530.910
31.88000 488.313
31.92000 449.802
31.96000 432.761
32.00000 434.459
32.04000 403.477
32.08000 400.681
32.12000 393.097
32.16000 391.305
32.20000 379.222
32.24000 387.577
32.28000 385.436
32.32000 394.570
32.36000 372.504
32.40000 380.452
32.44000 387.213
32.48000 375.338
32.52000 373.947
32.56000 354.782
32.60000 363.639
32.64000 384.405
32.68000 371.139
32.72000 362.899
32.76000 380.787
32.80000 367.469
32.84000 385.728
32.88000 385.952
32.92000 374.279
32.96000 384.484
33.00000 378.856
33.04000 370.228
33.08000 371.412
33.12000 359.525
33.16000 334.405
33.20000 340.023
33.24000 347.220
33.28000 336.520
33.32000 349.415
33.36000 360.845
33.40000 336.656
33.44000 340.864
33.48000 334.946
33.52000 343.434
33.56000 347.875
33.60000 345.095
33.64000 341.130
33.68000 351.612
33.72000 321.596
33.76000 332.323
33.80000 320.469
33.84000 330.638
33.88000 330.156
33.92000 316.537
33.96000 343.666
34.00000 359.746
34.04000 335.654
34.08000 323.378
34.12000 329.056
34.16000 345.993
34.20000 335.062
34.24000 329.590
34.28000 330.248
34.32000 318.317
34.36000 322.397
34.40000 321.643
34.44000 335.723
34.48000 333.170
34.52000 316.110
34.56000 326.357
34.60000 319.046
34.64000 322.709
34.68000 335.347
34.72000 336.371
34.76000 328.068
34.80000 332.185
34.84000 333.366
34.88000 325.114
34.92000 316.449
34.96000 313.224
35.00000 316.200
35.04000 308.627
35.08000 313.190
35.12000 322.946
35.16000 306.568
35.20000 301.750
35.24000 301.903
35.28000 309.432
35.32000 313.156
35.36000 304.744
35.40000 315.541
35.44000 305.455
35.48000 306.253
35.52000 303.620
35.56000 323.463
35.60000 314.433
35.64000 295.364
35.68000 300.199
35.72000 314.050
35.76000 312.252
35.80000 308.974
35.84000 300.603
35.88000 298.639
35.92000 294.696
35.96000 307.260
36.00000 299.826
36.04000 317.089
36.08000 301.509
36.12000 306.578
36.16000 306.978
36.20000 304.579
36.24000 292.484
36.28000 279.320
36.32000 291.766
36.36000 296.638
36.40000 288.923
36.44000 306.063
36.48000 303.578
36.52000 291.431
36.56000 268.741
36.60000 287.564
36.64000 280.273
36.68000 288.289
36.72000 299.380
36.76000 306.638
36.80000 282.833
36.84000 288.357
36.88000 303.849
36.92000 314.666
36.96000 289.217
37.00000 278.252
37.04000 292.316
37.08000 288.940
37.12000 294.824
37.16000 284.106
37.20000 306.477
37.24000 296.258
37.28000 289.478
37.32000 291.549
37.36000 300.326
37.40000 276.624
37.44000 296.105
37.48000 282.939
37.52000 263.455
37.56000 280.984
37.60000 299.334
37.64000 295.152
37.68000 283.211
37.72000 285.786
37.76000 278.602
37.80000 280.843
37.84000 293.188
37.88000 291.984
37.92000 300.256
37.96000 270.674
38.00000 282.440
38.04000 286.188
38.08000 293.952
38.12000 294.116
38.16000 292.328
38.20000 288.972
38.24000 295.485
38.28000 306.511
38.32000 314.428
38.36000 339.319
38.40000 362.252
38.44000 404.847
38.48000 413.400
38.52000 451.549
38.56000 500.351
38.60000 541.720
38.64000 563.357
38.68000 557.396
38.72000 545.663
38.76000 515.710
38.80000 502.298
38.84000 456.476
38.88000 430.077
38.92000 405.719
38.96000 361.184
39.00000 337.934
39.04000 304.403
39.08000 295.171
39.12000 282.527
39.16000 285.290
39.20000 269.069
39.24000 271.465
39.28000 273.479
39.32000 283.841
39.36000 278.250
39.40000 262.869
39.44000 258.472
39.48000 259.924
39.52000 264.577
39.56000 262.342
39.60000 265.494
39.64000 262.476
39.68000 265.746
39.72000 263.827
39.76000 254.984
39.80000 262.056
39.84000 262.451
39.88000 251.612
39.92000 250.700
39.96000 245.444
40.00000 254.047
40.04000 257.624
40.08000 265.444
40.12000 262.340
40.16000 249.032
40.20000 242.112
40.24000 248.042
40.28000 245.883
40.32000 267.181
40.36000 256.726
40.40000 249.367
40.44000 248.125
40.48000 252.168
40.52000 263.268
40.56000 257.035
40.60000 249.332
40.64000 247.164
40.68000 237.521
40.72000 242.530
40.76000 255.994
40.80000 249.201
40.84000 264.104
40.88000 250.154
40.92000 253.667
40.96000 245.326
41.00000 240.392
41.04000 250.151
41.08000 233.495
41.12000 241.240
41.16000 246.391
41.20000 237.876
41.24000 251.722
41.28000 244.775
41.32000 235.682
41.36000 223.598
41.40000 250.853
41.44000 234.489
41.48000 250.043
41.52000 235.041
41.56000 222.719
41.60000 242.001
41.64000 231.695
41.68000 235.930
41.72000 235.581
41.76000 218.913
41.80000 237.501
41.84000 242.970
41.88000 250.772
41.92000 237.060
41.96000 244.678
42.00000 242.671
42.04000 241.604
42.08000 232.942
42.12000 226.020
42.16000 248.774
42.20000 230.073
42.24000 224.094
42.28000 230.345
42.32000 235.610
42.36000 227.041
42.40000 229.359
42.44000 230.953
42.48000 219.401
42.52000 213.965
42.56000 225.976
42.60000 236.321
42.64000 228.455
42.68000 229.946
42.72000 230.397
42.76000 216.529
42.80000 230.288
42.84000 229.502
42.88000 225.761
42.92000 219.462
42.96000 210.733
43.00000 241.359
43.04000 230.788
43.08000 223.751
43.12000 219.122
43.16000 221.647
43.20000 233.212
43.24000 225.567
43.28000 223.709
43.32000 229.592
43.36000 222.393
43.40000 242.179
43.44000 217.528
43.48000 207.363
43.52000 208.569
43.56000 229.929
43.60000 227.381
43.64000 215.144
43.68000 215.682
43.72000 209.069
43.76000 234.047
43.80000 225.835
43.84000 233.701
43.88000 223.624
43.92000 218.158
43.96000 236.840
44.00000 230.937
44.04000 222.437
44.08000 219.073
44.12000 217.451
44.16000 223.599
44.20000 233.559
44.24000 235.824
44.28000 233.149
44.32000 230.742
44.36000 233.079
44.40000 241.456
44.44000 234.640
44.48000 241.056
44.52000 243.503
44.56000 241.501
44.60000 264.604
44.64000 266.219
44.68000 282.756
44.72000 301.939
44.76000 313.284
44.80000 334.494
44.84000 358.069
44.88000 348.117
44.92000 389.054
44.96000 395.220
45.00000 397.529
45.04000 391.360
45.08000 380.304
45.12000 370.903
45.16000 357.387
45.20000 354.618
45.24000 326.487
45.28000 340.161
45.32000 316.912
45.36000 291.217
45.40000 308.520
45.44000 283.330
45.48000 292.214
45.52000 280.818
45.56000 271.271
45.60000 255.054
45.64000 241.492
45.68000 229.748
45.72000 247.842
45.76000 236.301
45.80000 240.303
45.84000 235.066
45.88000 220.617
45.92000 222.505
45.96000 223.353
46.00000 220.869
46.04000 207.032
46.08000 208.173
46.12000 200.133
46.16000 223.526
46.20000 196.404
46.24000 201.558
46.28000 207.542
46.32000 198.312
46.36000 207.675
46.40000 202.227
46.44000 201.777
46.48000 194.484
46.52000 205.721
46.56000 211.651
46.60000 203.478
46.64000 198.816
46.68000 198.506
46.72000 187.209
46.76000 191.245
46.80000 200.184
46.84000 193.576
46.88000 202.982
46.92000 192.509
46.96000 203.349
47.00000 201.693
47.04000 203.518
47.08000 196.479
47.12000 197.411
47.16000 187.281
47.20000 188.731
47.24000 196.673
47.28000 194.340
47.32000 190.468
47.36000 184.198
47.40000 199.560
47.44000 189.973
47.48000 197.388
47.52000 184.127
47.56000 188.294
47.60000 184.947
47.64000 187.321
47.68000 177.916
47.72000 180.543
47.76000 201.191
47.80000 180.441
47.84000 179.904
47.88000 178.808
47.92000 192.587
47.96000 183.951
48.00000 191.534
48.04000 167.912
48.08000 184.908
48.12000 184.864
48.16000 185.562
48.20000 186.214
48.24000 182.418
48.28000 178.626
48.32000 180.100
48.36000 173.002
48.40000 186.053
48.44000 184.186
48.48000 177.606
48.52000 173.863
48.56000 174.581
48.60000 190.829
48.64000 181.688
48.68000 179.521
48.72000 183.538
48.76000 177.859
48.80000 188.736
48.84000 185.102
48.88000 184.480
48.92000 182.560
48.96000 179.591
49.00000 179.746
49.04000 178.169
49.08000 178.848
49.12000 173.748
49.16000 177.034
49.20000 176.957
49.24000 185.540
49.28000 179.244
49.32000 191.657
49.36000 186.755
49.40000 165.522
49.44000 185.156
49.48000 187.754
49.52000 174.608
49.56000 173.178
49.60000 181.333
49.64000 172.889
49.68000 170.949
49.72000 165.922
49.76000 175.305
49.80000 164.680
49.84000 177.859
49.88000 169.701
49.92000 174.431
49.96000 169.082
50.00000 181.027
50.04000 172.038
50.08000 176.728
50.12000 172.644
50.16000 184.223
50.20000 181.404
50.24000 193.851
50.28000 186.860
50.32000 189.299
50.36000 201.884
50.40000 197.813
50.44000 203.941
50.48000 212.942
50.52000 219.031
50.56000 232.520
50.60000 225.980
50.64000 224.772
50.68000 232.068
50.72000 225.989
50.76000 225.923
50.80000 212.725
50.84000 212.462
50.88000 206.084
50.92000 200.575
50.96000 202.209
51.00000 189.868
51.04000 192.080
51.08000 187.927
51.12000 170.168
51.16000 187.255
51.20000 184.973
51.24000 189.302
51.28000 177.516
51.32000 168.971
51.36000 173.568
51.40000 178.249
51.44000 171.075
51.48000 165.831
51.52000 162.740
51.56000 160.842
51.60000 178.898
51.64000 164.646
51.68000 173.549
51.72000 159.058
51.76000 157.315
51.80000 158.232
51.84000 145.421
51.88000 149.435
51.92000 164.795
51.96000 156.121
52.00000 158.073
52.04000 161.701
52.08000 167.561
52.12000 162.068
52.16000 170.737
52.20000 158.727
52.24000 159.790
52.28000 153.214
52.32000 156.078
52.36000 144.422
52.40000 160.661
52.44000 159.871
52.48000 158.081
52.52000 156.017
52.56000 156.700
52.60000 153.726
52.64000 148.501
52.68000 156.245
52.72000 151.499
52.76000 154.410
52.80000 150.268
52.84000 149.479
52.88000 152.797
52.92000 148.064
52.96000 156.617
53.00000 161.507
53.04000 155.207
53.08000 152.951
53.12000 165.386
53.16000 159.993
53.20000 158.969
53.24000 166.372
53.28000 147.369
53.32000 158.261
53.36000 156.789
53.40000 157.434
53.44000 142.088
53.48000 167.332
53.52000 153.898
53.56000 154.843
53.60000 158.690
53.64000 159.538
53.68000 150.956
53.72000 152.609
53.76000 153.607
53.80000 146.115
53.84000 163.285
53.88000 148.521
53.92000 155.354
53.96000 152.367
54.00000 165.057
54.04000 153.632
54.08000 155.463
54.12000 155.545
54.16000 153.245
54.20000 140.440
54.24000 144.898
54.28000 150.201
54.32000 152.655
54.36000 152.667
54.40000 143.582
54.44000 140.866
54.48000 135.697
54.52000 159.015
54.56000 139.078
54.60000 154.775
54.64000 143.110
54.68000 150.699
54.72000 164.872
54.76000 151.557
54.80000 157.913
54.84000 150.664
54.88000 160.459
54.92000 154.081
54.96000 148.700
55.00000 153.686
55.04000 176.083
55.08000 151.976
55.12000 152.079
55.16000 154.280
55.20000 171.557
55.24000 159.391
55.28000 168.804
55.32000 173.106
55.36000 170.318
55.40000 180.268
55.44000 194.925
55.48000 204.953
55.52000 224.501
55.56000 223.076
55.60000 266.136
55.64000 284.698
55.68000 318.553
55.72000 351.081
55.76000 368.655
55.80000 372.037
55.84000 378.210
55.88000 388.178
55.92000 393.116
55.96000 393.441
56.00000 373.351
56.04000 354.672
56.08000 346.875
56.12000 316.563
56.16000 297.275
56.20000 271.522
56.24000 262.891
56.28000 237.377
56.32000 229.006
56.36000 205.975
56.40000 193.018
56.44000 189.945
56.48000 177.010
56.52000 172.640
56.56000 170.420
56.60000 161.573
56.64000 175.472
56.68000 157.029
56.72000 156.903
56.76000 155.686
56.80000 152.382
56.84000 154.080
56.88000 145.921
56.92000 145.547
56.96000 153.166
57.00000 144.123
57.04000 154.396
57.08000 141.954
57.12000 146.764
57.16000 140.934
57.20000 136.901
57.24000 140.248
57.28000 150.473
57.32000 131.513
57.36000 140.112
57.40000 139.932
57.44000 135.915
57.48000 149.116
57.52000 140.310
57.56000 140.552
57.60000 143.670
57.64000 138.018
57.68000 148.010
57.72000 138.372
57.76000 140.560
57.80000 134.201
57.84000 147.222
57.88000 145.584
57.92000 130.151
57.96000 146.107
58.00000 141.326
58.04000 144.894
58.08000 142.164
58.12000 128.759
58.16000 139.970
58.20000 139.216
58.24000 133.186
58.28000 135.430
58.32000 134.488
58.36000 136.154
58.40000 136.110
58.44000 134.863
58.48000 139.495
58.52000 150.807
58.56000 142.031
58.60000 140.429
58.64000 143.620
58.68000 134.921
58.72000 128.623
58.76000 127.182
58.80000 129.781
58.84000 137.928
58.88000 134.207
58.92000 136.390
58.96000 138.954
59.00000 136.079
59.04000 134.400
59.08000 135.802
59.12000 142.665
59.16000 128.837
59.20000 131.220
59.24000 131.151
59.28000 134.547
59.32000 130.324
59.36000 128.822
59.40000 137.200
59.44000 130.502
59.48000 137.693
59.52000 128.270
59.56000 138.669
59.60000 133.597
59.64000 126.960
59.68000 136.635
59.72000 137.478
59.76000 128.967
59.80000 129.331
59.84000 128.818
59.88000 136.310
59.92000 124.940
59.96000 132.491
60.00000 143.087
60.04000 134.852
60.08000 131.706
60.12000 130.137
60.16000 126.089
60.20000 139.364
60.24000 131.459
60.28000 144.097
60.32000 126.553
60.36000 134.663
60.40000 131.676
60.44000 131.825
60.48000 138.502
60.52000 133.861
60.56000 132.583
60.60000 128.488
60.64000 134.469
60.68000 137.472
60.72000 120.851
60.76000 132.811
60.80000 135.006
60.84000 138.740
60.88000 128.758
60.92000 138.467
60.96000 140.870
61.00000 136.656
61.04000 131.733
61.08000 143.192
61.12000 141.507
61.16000 135.179
61.20000 138.926
61.24000 138.597
61.28000 126.315
61.32000 133.630
61.36000 138.821
61.40000 136.417
61.44000 143.597
61.48000 145.895
61.52000 179.612
61.56000 226.210
61.60000 266.223
61.64000 298.176
61.68000 312.791
61.72000 330.575
61.76000 295.473
61.80000 240.992
61.84000 182.260
61.88000 159.227
61.92000 150.499
61.96000 152.539
62.00000 141.807
62.04000 135.927
62.08000 143.370
62.12000 135.274
62.16000 140.963
62.20000 148.026
62.24000 135.840
62.28000 136.329
62.32000 143.829
62.36000 145.970
62.40000 149.539
62.44000 139.454
62.48000 150.251
62.52000 149.236
62.56000 146.829
62.60000 141.419
62.64000 155.120
62.68000 143.233
62.72000 143.361
62.76000 145.041
62.80000 150.771
62.84000 143.810
62.88000 147.297
62.92000 143.149
62.96000 151.136
63.00000 136.956
63.04000 159.644
63.08000 152.299
63.12000 143.562
63.16000 143.382
63.20000 153.016
63.24000 159.147
63.28000 144.909
63.32000 146.485
63.36000 145.430
63.40000 150.938
63.44000 146.848
63.48000 153.173
63.52000 146.953
63.56000 147.031
63.60000 162.952
63.64000 150.502
63.68000 150.301
63.72000 158.227
63.76000 147.026
63.80000 149.967
63.84000 160.218
63.88000 159.406
63.92000 152.203
63.96000 164.014
64.00000 170.864
64.04000 155.694
64.08000 161.421
64.12000 158.764
64.16000 170.372
64.20000 169.097
64.24000 172.046
64.28000 163.187
64.32000 157.356
64.36000 160.271
64.40000 171.571
64.44000 159.050
64.48000 185.915
64.52000 181.415
64.56000 171.612
64.60000 164.849
64.64000 162.652
64.68000 183.644
64.72000 179.445
64.76000 173.446
64.80000 176.126
64.84000 187.508
64.88000 182.374
64.92000 192.091
64.96000 198.623
65.00000 206.241
65.04000 197.841
65.08000 233.819
65.12000 231.583
65.16000 237.124
65.20000 249.246
65.24000 255.975
65.28000 255.751
65.32000 273.475
65.36000 280.469
65.40000 297.685
65.44000 302.368
65.48000 313.331
65.52000 337.416
65.56000 341.711
65.60000 357.773
65.64000 413.210
65.68000 495.605
65.72000 693.369
65.76000 973.663
65.80000 1229.282
65.84000 1327.361
65.88000 1334.561
65.92000 1295.404
65.96000 1067.290
66.00000 767.319
66.04000 540.689
66.08000 395.573
66.12000 346.315
66.16000 334.432
66.20000 342.666
66.24000 375.302
66.28000 406.317
66.32000 435.583
66.36000 483.515
66.40000 510.336
66.44000 518.404
66.48000 497.192
66.52000 463.333
66.56000 393.677
66.60000 372.344
66.64000 361.542
66.68000 344.847
66.72000 331.636
66.76000 354.505
66.80000 355.819
66.84000 373.523
66.88000 362.645
66.92000 354.043
66.96000 358.959
67.00000 385.139
67.04000 374.874
67.08000 388.503
67.12000 394.718
67.16000 401.608
67.20000 417.317
67.24000 422.889
67.28000 431.648
67.32000 435.758
67.36000 435.586
67.40000 436.387
67.44000 438.221
67.48000 443.644
67.52000 461.819
67.56000 474.918
67.60000 489.844
67.64000 484.571
67.68000 508.127
67.72000 500.341
67.76000 526.017
67.80000 513.602
67.84000 539.088
67.88000 550.738
67.92000 556.604
67.96000 570.664
68.00000 574.434
68.04000 589.071
68.08000 606.766
68.12000 633.012
68.16000 606.578
68.20000 641.188
68.24000 662.865
68.28000 701.983
68.32000 707.152
68.36000 748.477
68.40000 785.942
68.44000 820.093
68.48000 875.605
68.52000 894.451
68.56000 980.807
68.60000 1107.432
68.64000 1320.422
68.68000 1517.851
68.72000 1831.964
68.76000 2096.362
68.80000 2411.298
68.84000 2969.030
68.88000 3873.630
68.92000 6859.011
68.96000 17173.156
69.00000 37403.320
69.04000 57775.426
69.08000 67601.984
69.12000 70044.008
69.16000 72843.836
69.20000 71891.305
69.24000 59516.027
69.28000 45902.660
69.32000 37473.309
69.36000 33730.746
69.40000 27267.676
69.44000 16407.443
69.48000 7811.539
69.52000 3461.663
69.56000 2191.416
69.60000 1675.038
69.64000 1397.483
69.68000 1238.195
69.72000 1102.980
69.76000 1028.323
69.80000 929.552
69.84000 848.177
69.88000 805.851
69.92000 768.942
69.96000 740.073
70.00000 708.925