File: XRD/25-09-2025/XY Data/BTO_Mapping_Theta2Theta_25-09-2025_001_34_-9-781_-2-079.xy
20.00000 560.757
20.04000 552.366
20.08000 545.090
20.12000 567.538
20.16000 550.153
20.20000 560.569
20.24000 552.898
20.28000 564.472
20.32000 527.831
20.36000 560.073
20.40000 531.866
20.44000 556.296
20.48000 546.800
20.52000 560.220
20.56000 536.042
20.60000 521.128
20.64000 547.029
20.68000 552.738
20.72000 546.764
20.76000 548.071
20.80000 534.822
20.84000 543.479
20.88000 544.594
20.92000 549.992
20.96000 552.966
21.00000 556.828
21.04000 564.128
21.08000 542.570
21.12000 524.900
21.16000 543.260
21.20000 531.781
21.24000 525.050
21.28000 530.149
21.32000 530.441
21.36000 550.775
21.40000 538.172
21.44000 545.600
21.48000 560.346
21.52000 559.280
21.56000 565.632
21.60000 541.070
21.64000 551.746
21.68000 548.775
21.72000 556.343
21.76000 578.604
21.80000 591.769
21.84000 589.673
21.88000 626.976
21.92000 633.904
21.96000 657.367
22.00000 665.752
22.04000 706.178
22.08000 702.497
22.12000 700.970
22.16000 699.640
22.20000 666.150
22.24000 654.565
22.28000 622.552
22.32000 626.304
22.36000 599.827
22.40000 587.706
22.44000 588.529
22.48000 569.788
22.52000 533.403
22.56000 546.470
22.60000 559.325
22.64000 541.773
22.68000 545.680
22.72000 515.313
22.76000 496.516
22.80000 511.309
22.84000 505.918
22.88000 520.289
22.92000 505.943
22.96000 519.032
23.00000 499.151
23.04000 492.103
23.08000 510.514
23.12000 509.815
23.16000 503.008
23.20000 517.195
23.24000 506.713
23.28000 498.926
23.32000 536.367
23.36000 495.444
23.40000 496.929
23.44000 508.559
23.48000 498.227
23.52000 489.936
23.56000 504.240
23.60000 505.677
23.64000 479.749
23.68000 482.794
23.72000 492.153
23.76000 497.971
23.80000 480.581
23.84000 486.499
23.88000 478.811
23.92000 490.642
23.96000 498.228
24.00000 475.477
24.04000 476.741
24.08000 489.609
24.12000 491.782
24.16000 490.290
24.20000 482.867
24.24000 504.127
24.28000 452.777
24.32000 478.045
24.36000 485.156
24.40000 492.398
24.44000 490.619
24.48000 509.863
24.52000 473.676
24.56000 465.327
24.60000 484.813
24.64000 463.881
24.68000 488.535
24.72000 469.172
24.76000 474.926
24.80000 483.389
24.84000 483.996
24.88000 468.288
24.92000 465.953
24.96000 473.388
25.00000 468.261
25.04000 463.096
25.08000 470.688
25.12000 468.522
25.16000 461.416
25.20000 477.642
25.24000 457.386
25.28000 481.096
25.32000 461.322
25.36000 454.940
25.40000 466.625
25.44000 463.508
25.48000 463.132
25.52000 474.458
25.56000 468.044
25.60000 475.537
25.64000 466.387
25.68000 447.900
25.72000 444.254
25.76000 457.669
25.80000 446.733
25.84000 444.443
25.88000 443.883
25.92000 457.241
25.96000 456.656
26.00000 445.310
26.04000 465.131
26.08000 451.422
26.12000 455.347
26.16000 442.310
26.20000 450.774
26.24000 448.516
26.28000 444.479
26.32000 446.119
26.36000 435.669
26.40000 444.749
26.44000 429.409
26.48000 434.521
26.52000 443.869
26.56000 464.171
26.60000 457.955
26.64000 431.497
26.68000 414.744
26.72000 452.395
26.76000 447.803
26.80000 445.763
26.84000 424.206
26.88000 438.090
26.92000 435.452
26.96000 428.346
27.00000 438.043
27.04000 416.493
27.08000 427.253
27.12000 425.428
27.16000 450.291
27.20000 439.943
27.24000 451.193
27.28000 437.329
27.32000 425.697
27.36000 430.207
27.40000 432.544
27.44000 431.904
27.48000 425.151
27.52000 436.375
27.56000 432.433
27.60000 432.563
27.64000 426.582
27.68000 436.523
27.72000 414.155
27.76000 409.638
27.80000 419.253
27.84000 445.484
27.88000 431.186
27.92000 408.003
27.96000 425.662
28.00000 409.160
28.04000 422.308
28.08000 422.454
28.12000 424.896
28.16000 431.295
28.20000 435.261
28.24000 440.034
28.28000 421.291
28.32000 415.793
28.36000 424.298
28.40000 424.481
28.44000 424.370
28.48000 417.721
28.52000 419.694
28.56000 419.265
28.60000 399.399
28.64000 400.918
28.68000 417.289
28.72000 407.542
28.76000 416.674
28.80000 409.429
28.84000 427.174
28.88000 401.800
28.92000 409.284
28.96000 405.849
29.00000 404.745
29.04000 421.295
29.08000 411.142
29.12000 402.465
29.16000 417.031
29.20000 403.443
29.24000 401.687
29.28000 408.208
29.32000 409.278
29.36000 412.855
29.40000 407.696
29.44000 406.148
29.48000 406.869
29.52000 421.334
29.56000 398.432
29.60000 399.021
29.64000 430.839
29.68000 406.632
29.72000 411.342
29.76000 396.342
29.80000 407.173
29.84000 408.396
29.88000 404.919
29.92000 410.094
29.96000 412.860
30.00000 417.941
30.04000 426.361
30.08000 417.696
30.12000 414.014
30.16000 414.795
30.20000 410.021
30.24000 397.857
30.28000 418.601
30.32000 418.258
30.36000 427.789
30.40000 414.849
30.44000 405.676
30.48000 412.507
30.52000 404.344
30.56000 413.923
30.60000 422.978
30.64000 428.381
30.68000 412.338
30.72000 420.782
30.76000 415.926
30.80000 423.662
30.84000 437.985
30.88000 437.582
30.92000 481.772
30.96000 514.907
31.00000 547.286
31.04000 599.302
31.08000 713.482
31.12000 833.427
31.16000 1031.120
31.20000 1241.024
31.24000 1486.548
31.28000 1714.847
31.32000 1911.099
31.36000 2056.162
31.40000 2079.577
31.44000 2022.598
31.48000 1817.611
31.52000 1599.097
31.56000 1313.484
31.60000 1136.209
31.64000 939.513
31.68000 765.320
31.72000 658.278
31.76000 611.490
31.80000 545.173
31.84000 495.882
31.88000 475.194
31.92000 456.591
31.96000 434.683
32.00000 407.126
32.04000 409.735
32.08000 407.013
32.12000 408.286
32.16000 408.009
32.20000 386.921
32.24000 396.067
32.28000 384.017
32.32000 382.523
32.36000 384.063
32.40000 394.193
32.44000 381.235
32.48000 374.086
32.52000 371.444
32.56000 370.296
32.60000 369.043
32.64000 355.715
32.68000 358.838
32.72000 365.511
32.76000 373.544
32.80000 370.895
32.84000 358.553
32.88000 374.127
32.92000 388.567
32.96000 383.296
33.00000 368.589
33.04000 370.134
33.08000 351.750
33.12000 336.934
33.16000 336.287
33.20000 341.107
33.24000 344.604
33.28000 343.604
33.32000 341.108
33.36000 335.646
33.40000 334.327
33.44000 340.435
33.48000 352.476
33.52000 326.259
33.56000 328.189
33.60000 343.696
33.64000 340.360
33.68000 305.922
33.72000 331.042
33.76000 325.673
33.80000 338.871
33.84000 332.444
33.88000 338.885
33.92000 321.443
33.96000 328.234
34.00000 338.809
34.04000 323.626
34.08000 351.268
34.12000 331.008
34.16000 326.428
34.20000 324.424
34.24000 334.201
34.28000 309.759
34.32000 326.040
34.36000 326.093
34.40000 338.043
34.44000 331.200
34.48000 327.571
34.52000 332.167
34.56000 319.096
34.60000 307.595
34.64000 315.081
34.68000 317.693
34.72000 320.709
34.76000 329.727
34.80000 331.002
34.84000 313.679
34.88000 317.628
34.92000 317.112
34.96000 305.921
35.00000 322.478
35.04000 339.952
35.08000 310.120
35.12000 300.747
35.16000 310.388
35.20000 315.282
35.24000 304.063
35.28000 305.066
35.32000 308.941
35.36000 321.581
35.40000 308.500
35.44000 304.847
35.48000 298.071
35.52000 304.127
35.56000 306.227
35.60000 307.740
35.64000 299.863
35.68000 298.831
35.72000 302.997
35.76000 321.764
35.80000 301.469
35.84000 290.674
35.88000 302.466
35.92000 280.872
35.96000 310.046
36.00000 306.681
36.04000 308.855
36.08000 301.837
36.12000 282.186
36.16000 315.774
36.20000 287.707
36.24000 291.538
36.28000 293.391
36.32000 293.589
36.36000 289.666
36.40000 292.297
36.44000 299.237
36.48000 299.474
36.52000 291.196
36.56000 282.187
36.60000 298.074
36.64000 300.127
36.68000 291.546
36.72000 289.184
36.76000 296.924
36.80000 300.063
36.84000 297.153
36.88000 286.613
36.92000 288.245
36.96000 290.248
37.00000 287.493
37.04000 289.721
37.08000 292.636
37.12000 289.986
37.16000 299.766
37.20000 296.084
37.24000 294.854
37.28000 293.597
37.32000 288.172
37.36000 289.334
37.40000 292.163
37.44000 294.314
37.48000 283.880
37.52000 293.567
37.56000 297.683
37.60000 274.357
37.64000 279.358
37.68000 281.441
37.72000 268.792
37.76000 291.141
37.80000 288.214
37.84000 280.503
37.88000 281.302
37.92000 289.417
37.96000 272.167
38.00000 286.603
38.04000 295.692
38.08000 291.964
38.12000 267.436
38.16000 295.544
38.20000 308.482
38.24000 301.211
38.28000 299.908
38.32000 306.117
38.36000 319.366
38.40000 350.302
38.44000 374.473
38.48000 430.895
38.52000 497.450
38.56000 531.500
38.60000 601.687
38.64000 645.150
38.68000 691.450
38.72000 699.772
38.76000 663.505
38.80000 631.779
38.84000 578.682
38.88000 530.439
38.92000 464.944
38.96000 406.324
39.00000 375.365
39.04000 332.910
39.08000 325.063
39.12000 291.382
39.16000 306.034
39.20000 282.787
39.24000 290.672
39.28000 281.649
39.32000 269.117
39.36000 264.053
39.40000 269.662
39.44000 273.204
39.48000 263.653
39.52000 258.091
39.56000 264.768
39.60000 267.915
39.64000 256.945
39.68000 263.987
39.72000 268.034
39.76000 270.401
39.80000 259.913
39.84000 251.665
39.88000 256.000
39.92000 265.784
39.96000 265.981
40.00000 249.610
40.04000 250.320
40.08000 253.230
40.12000 253.982
40.16000 259.738
40.20000 256.756
40.24000 277.352
40.28000 265.697
40.32000 255.003
40.36000 241.414
40.40000 249.449
40.44000 241.221
40.48000 248.094
40.52000 243.136
40.56000 245.938
40.60000 251.523
40.64000 254.382
40.68000 237.462
40.72000 240.550
40.76000 257.221
40.80000 243.316
40.84000 236.019
40.88000 242.213
40.92000 241.197
40.96000 235.790
41.00000 261.758
41.04000 238.153
41.08000 236.785
41.12000 241.749
41.16000 253.108
41.20000 243.909
41.24000 248.525
41.28000 245.834
41.32000 247.626
41.36000 253.671
41.40000 226.540
41.44000 243.071
41.48000 240.260
41.52000 243.639
41.56000 255.556
41.60000 245.478
41.64000 250.323
41.68000 235.807
41.72000 233.923
41.76000 231.299
41.80000 236.033
41.84000 242.474
41.88000 235.494
41.92000 232.602
41.96000 241.097
42.00000 228.565
42.04000 227.660
42.08000 227.302
42.12000 235.273
42.16000 224.269
42.20000 228.823
42.24000 210.897
42.28000 233.440
42.32000 225.793
42.36000 228.917
42.40000 224.355
42.44000 231.662
42.48000 231.170
42.52000 235.957
42.56000 244.702
42.60000 223.072
42.64000 229.309
42.68000 234.287
42.72000 229.409
42.76000 222.388
42.80000 235.736
42.84000 214.148
42.88000 217.070
42.92000 222.034
42.96000 229.444
43.00000 229.100
43.04000 231.928
43.08000 226.025
43.12000 228.916
43.16000 232.165
43.20000 231.068
43.24000 217.064
43.28000 233.984
43.32000 203.622
43.36000 222.783
43.40000 223.764
43.44000 218.783
43.48000 222.577
43.52000 221.847
43.56000 220.983
43.60000 211.168
43.64000 227.252
43.68000 227.951
43.72000 221.811
43.76000 222.781
43.80000 218.286
43.84000 222.845
43.88000 224.079
43.92000 216.066
43.96000 220.139
44.00000 221.294
44.04000 228.195
44.08000 209.405
44.12000 215.001
44.16000 231.103
44.20000 229.373
44.24000 212.730
44.28000 221.027
44.32000 227.832
44.36000 222.439
44.40000 214.043
44.44000 211.700
44.48000 229.585
44.52000 221.598
44.56000 217.681
44.60000 231.128
44.64000 233.097
44.68000 237.395
44.72000 232.073
44.76000 258.468
44.80000 269.508
44.84000 264.844
44.88000 297.729
44.92000 289.901
44.96000 301.354
45.00000 321.009
45.04000 318.649
45.08000 333.541
45.12000 313.320
45.16000 319.091
45.20000 313.923
45.24000 307.262
45.28000 301.534
45.32000 285.804
45.36000 281.834
45.40000 280.999
45.44000 285.231
45.48000 271.002
45.52000 279.644
45.56000 269.050
45.60000 266.323
45.64000 251.863
45.68000 249.308
45.72000 243.162
45.76000 236.955
45.80000 222.402
45.84000 230.707
45.88000 225.279
45.92000 235.546
45.96000 227.917
46.00000 216.022
46.04000 223.425
46.08000 198.370
46.12000 216.290
46.16000 213.072
46.20000 209.495
46.24000 198.624
46.28000 215.448
46.32000 205.704
46.36000 209.081
46.40000 199.739
46.44000 191.548
46.48000 196.783
46.52000 196.208
46.56000 206.075
46.60000 204.755
46.64000 201.311
46.68000 199.706
46.72000 194.383
46.76000 189.416
46.80000 195.670
46.84000 190.759
46.88000 200.338
46.92000 189.772
46.96000 197.469
47.00000 193.587
47.04000 201.837
47.08000 195.997
47.12000 205.305
47.16000 195.117
47.20000 190.024
47.24000 200.322
47.28000 181.449
47.32000 179.294
47.36000 188.547
47.40000 190.329
47.44000 181.480
47.48000 191.504
47.52000 186.512
47.56000 200.937
47.60000 191.406
47.64000 182.977
47.68000 185.663
47.72000 186.547
47.76000 195.199
47.80000 198.220
47.84000 176.617
47.88000 189.893
47.92000 179.565
47.96000 180.909
48.00000 191.439
48.04000 186.717
48.08000 176.128
48.12000 184.269
48.16000 195.954
48.20000 190.821
48.24000 180.478
48.28000 168.366
48.32000 179.196
48.36000 188.248
48.40000 180.097
48.44000 186.592
48.48000 171.157
48.52000 181.238
48.56000 172.712
48.60000 170.946
48.64000 179.397
48.68000 178.074
48.72000 178.259
48.76000 171.641
48.80000 167.064
48.84000 182.025
48.88000 182.321
48.92000 170.873
48.96000 169.289
49.00000 172.605
49.04000 172.516
49.08000 178.764
49.12000 176.309
49.16000 177.364
49.20000 184.362
49.24000 170.426
49.28000 175.398
49.32000 176.133
49.36000 177.578
49.40000 171.016
49.44000 184.435
49.48000 187.953
49.52000 174.417
49.56000 183.353
49.60000 165.531
49.64000 184.759
49.68000 170.885
49.72000 179.806
49.76000 159.857
49.80000 162.988
49.84000 169.078
49.88000 172.949
49.92000 187.759
49.96000 165.179
50.00000 176.181
50.04000 169.442
50.08000 174.553
50.12000 169.839
50.16000 165.315
50.20000 174.989
50.24000 169.448
50.28000 181.357
50.32000 184.989
50.36000 183.672
50.40000 192.988
50.44000 203.779
50.48000 201.098
50.52000 211.286
50.56000 208.208
50.60000 223.289
50.64000 206.673
50.68000 219.575
50.72000 216.218
50.76000 210.255
50.80000 214.801
50.84000 213.621
50.88000 200.373
50.92000 196.170
50.96000 192.186
51.00000 198.356
51.04000 186.730
51.08000 179.276
51.12000 178.202
51.16000 182.111
51.20000 171.398
51.24000 184.305
51.28000 184.213
51.32000 185.483
51.36000 171.207
51.40000 171.732
51.44000 173.075
51.48000 167.643
51.52000 166.529
51.56000 169.419
51.60000 164.585
51.64000 154.960
51.68000 165.681
51.72000 165.249
51.76000 156.113
51.80000 154.241
51.84000 163.566
51.88000 161.117
51.92000 168.768
51.96000 164.171
52.00000 159.344
52.04000 166.782
52.08000 164.843
52.12000 162.862
52.16000 159.211
52.20000 159.550
52.24000 152.749
52.28000 156.366
52.32000 152.467
52.36000 155.916
52.40000 157.533
52.44000 154.413
52.48000 150.549
52.52000 152.993
52.56000 150.888
52.60000 148.092
52.64000 157.473
52.68000 151.154
52.72000 145.136
52.76000 162.290
52.80000 160.283
52.84000 152.910
52.88000 155.546
52.92000 153.639
52.96000 148.314
53.00000 161.516
53.04000 165.862
53.08000 163.276
53.12000 147.644
53.16000 154.253
53.20000 158.674
53.24000 168.684
53.28000 145.315
53.32000 148.278
53.36000 152.601
53.40000 164.488
53.44000 139.974
53.48000 160.183
53.52000 154.603
53.56000 155.239
53.60000 153.624
53.64000 158.646
53.68000 145.827
53.72000 149.432
53.76000 149.147
53.80000 165.262
53.84000 159.657
53.88000 158.346
53.92000 157.440
53.96000 154.891
54.00000 157.712
54.04000 153.077
54.08000 158.327
54.12000 160.385
54.16000 144.712
54.20000 152.160
54.24000 152.680
54.28000 161.781
54.32000 156.162
54.36000 151.124
54.40000 148.701
54.44000 150.154
54.48000 161.865
54.52000 150.247
54.56000 152.192
54.60000 149.592
54.64000 152.676
54.68000 152.144
54.72000 149.231
54.76000 156.787
54.80000 156.745
54.84000 151.382
54.88000 151.114
54.92000 162.589
54.96000 150.183
55.00000 148.764
55.04000 153.519
55.08000 151.188
55.12000 152.624
55.16000 153.534
55.20000 158.068
55.24000 162.283
55.28000 159.439
55.32000 178.696
55.36000 175.992
55.40000 178.294
55.44000 181.704
55.48000 202.377
55.52000 204.497
55.56000 219.098
55.60000 229.686
55.64000 283.995
55.68000 283.085
55.72000 315.305
55.76000 338.344
55.80000 382.464
55.84000 406.335
55.88000 411.702
55.92000 430.904
55.96000 431.909
56.00000 416.117
56.04000 380.650
56.08000 359.870
56.12000 333.159
56.16000 294.989
56.20000 288.882
56.24000 261.771
56.28000 234.915
56.32000 212.061
56.36000 188.249
56.40000 200.966
56.44000 189.181
56.48000 177.846
56.52000 175.240
56.56000 161.981
56.60000 152.818
56.64000 146.131
56.68000 149.023
56.72000 147.114
56.76000 152.054
56.80000 147.439
56.84000 156.987
56.88000 150.673
56.92000 150.182
56.96000 153.384
57.00000 157.126
57.04000 146.687
57.08000 143.179
57.12000 138.520
57.16000 139.966
57.20000 134.917
57.24000 141.728
57.28000 144.396
57.32000 138.400
57.36000 138.607
57.40000 138.389
57.44000 139.099
57.48000 148.480
57.52000 143.168
57.56000 136.813
57.60000 138.516
57.64000 152.419
57.68000 142.001
57.72000 134.490
57.76000 139.478
57.80000 142.262
57.84000 131.511
57.88000 138.560
57.92000 130.590
57.96000 142.073
58.00000 139.557
58.04000 132.176
58.08000 136.149
58.12000 135.423
58.16000 128.299
58.20000 128.117
58.24000 144.137
58.28000 146.504
58.32000 135.503
58.36000 134.001
58.40000 137.202
58.44000 132.827
58.48000 134.591
58.52000 134.048
58.56000 143.958
58.60000 131.652
58.64000 125.037
58.68000 130.837
58.72000 130.539
58.76000 136.022
58.80000 132.155
58.84000 131.860
58.88000 136.496
58.92000 134.663
58.96000 143.678
59.00000 139.932
59.04000 143.477
59.08000 118.009
59.12000 129.702
59.16000 139.236
59.20000 131.522
59.24000 131.288
59.28000 140.867
59.32000 130.210
59.36000 131.009
59.40000 132.821
59.44000 129.478
59.48000 140.354
59.52000 138.319
59.56000 136.882
59.60000 128.442
59.64000 124.782
59.68000 123.874
59.72000 132.495
59.76000 139.066
59.80000 126.165
59.84000 142.824
59.88000 135.334
59.92000 126.304
59.96000 139.096
60.00000 127.608
60.04000 136.610
60.08000 132.167
60.12000 145.145
60.16000 134.249
60.20000 136.111
60.24000 128.145
60.28000 129.179
60.32000 137.532
60.36000 128.314
60.40000 144.695
60.44000 136.399
60.48000 138.500
60.52000 132.613
60.56000 130.614
60.60000 136.919
60.64000 128.904
60.68000 128.783
60.72000 136.385
60.76000 135.435
60.80000 131.582
60.84000 137.628
60.88000 129.395
60.92000 126.827
60.96000 131.633
61.00000 137.022
61.04000 136.061
61.08000 146.656
61.12000 134.819
61.16000 132.744
61.20000 131.641
61.24000 136.919
61.28000 122.086
61.32000 133.355
61.36000 130.354
61.40000 131.474
61.44000 136.463
61.48000 147.998
61.52000 174.298
61.56000 207.185
61.60000 241.796
61.64000 277.738
61.68000 279.579
61.72000 289.752
61.76000 276.234
61.80000 217.519
61.84000 178.217
61.88000 152.725
61.92000 145.971
61.96000 150.281
62.00000 147.465
62.04000 136.595
62.08000 136.928
62.12000 141.969
62.16000 128.939
62.20000 135.245
62.24000 138.048
62.28000 143.382
62.32000 142.131
62.36000 136.392
62.40000 142.888
62.44000 145.472
62.48000 145.261
62.52000 144.638
62.56000 138.464
62.60000 140.521
62.64000 136.534
62.68000 140.525
62.72000 146.001
62.76000 142.009
62.80000 140.614
62.84000 145.486
62.88000 128.398
62.92000 144.359
62.96000 146.007
63.00000 142.755
63.04000 139.927
63.08000 146.794
63.12000 147.421
63.16000 145.405
63.20000 138.534
63.24000 144.789
63.28000 147.691
63.32000 144.653
63.36000 148.070
63.40000 151.775
63.44000 141.672
63.48000 147.138
63.52000 144.638
63.56000 148.150
63.60000 149.572
63.64000 167.034
63.68000 149.137
63.72000 152.015
63.76000 154.876
63.80000 156.398
63.84000 168.283
63.88000 155.559
63.92000 153.836
63.96000 159.522
64.00000 154.256
64.04000 162.833
64.08000 158.697
64.12000 160.614
64.16000 169.894
64.20000 161.220
64.24000 153.652
64.28000 160.549
64.32000 157.339
64.36000 172.735
64.40000 156.144
64.44000 156.172
64.48000 170.329
64.52000 177.050
64.56000 158.936
64.60000 176.504
64.64000 164.266
64.68000 165.356
64.72000 178.814
64.76000 173.555
64.80000 179.545
64.84000 183.659
64.88000 186.806
64.92000 191.379
64.96000 199.159
65.00000 199.980
65.04000 197.374
65.08000 209.492
65.12000 220.498
65.16000 232.215
65.20000 222.978
65.24000 242.084
65.28000 243.512
65.32000 271.542
65.36000 290.431
65.40000 264.476
65.44000 282.271
65.48000 302.991
65.52000 296.662
65.56000 318.301
65.60000 344.208
65.64000 376.225
65.68000 429.681
65.72000 612.578
65.76000 880.783
65.80000 1099.990
65.84000 1162.706
65.88000 1170.481
65.92000 1129.495
65.96000 959.436
66.00000 697.033
66.04000 485.068
66.08000 387.287
66.12000 341.693
66.16000 319.205
66.20000 329.697
66.24000 338.427
66.28000 357.620
66.32000 412.179
66.36000 460.171
66.40000 478.427
66.44000 471.370
66.48000 450.212
66.52000 434.705
66.56000 364.927
66.60000 332.095
66.64000 326.182
66.68000 340.808
66.72000 327.051
66.76000 325.660
66.80000 314.531
66.84000 324.863
66.88000 339.197
66.92000 345.254
66.96000 354.155
67.00000 333.927
67.04000 335.355
67.08000 365.450
67.12000 355.753
67.16000 376.395
67.20000 389.267
67.24000 391.476
67.28000 394.007
67.32000 401.594
67.36000 419.121
67.40000 427.233
67.44000 445.166
67.48000 428.826
67.52000 443.008
67.56000 448.113
67.60000 460.392
67.64000 461.041
67.68000 482.002
67.72000 478.217
67.76000 480.883
67.80000 481.879
67.84000 490.308
67.88000 504.763
67.92000 496.252
67.96000 545.412
68.00000 532.067
68.04000 545.151
68.08000 578.244
68.12000 609.187
68.16000 616.145
68.20000 607.200
68.24000 634.792
68.28000 638.857
68.32000 666.595
68.36000 699.162
68.40000 723.229
68.44000 764.559
68.48000 762.522
68.52000 826.273
68.56000 897.739
68.60000 978.859
68.64000 1185.978
68.68000 1416.705
68.72000 1642.710
68.76000 1871.588
68.80000 2148.844
68.84000 2512.528
68.88000 3174.091
68.92000 5589.225
68.96000 14072.942
69.00000 31248.125
69.04000 49109.785
69.08000 57989.402
69.12000 60045.184
69.16000 62395.945
69.20000 61983.594
69.24000 51329.242
69.28000 39172.453
69.32000 32071.723
69.36000 29012.791
69.40000 23713.084
69.44000 14247.424
69.48000 6739.065
69.52000 3009.617
69.56000 1927.797
69.60000 1534.982
69.64000 1298.530
69.68000 1132.569
69.72000 1029.356
69.76000 958.641
69.80000 868.258
69.84000 794.074
69.88000 764.060
69.92000 732.554
69.96000 705.008
70.00000 680.420