File: XRD/25-09-2025/XY Data/BTO_Mapping_Theta2Theta_25-09-2025_001_41_-32-361_-23-511.xy
20.00000 556.546
20.04000 555.934
20.08000 577.053
20.12000 548.809
20.16000 555.950
20.20000 541.146
20.24000 573.116
20.28000 557.329
20.32000 542.066
20.36000 561.435
20.40000 559.490
20.44000 544.174
20.48000 547.275
20.52000 545.719
20.56000 548.477
20.60000 562.540
20.64000 544.065
20.68000 525.668
20.72000 530.933
20.76000 555.216
20.80000 551.324
20.84000 561.761
20.88000 536.561
20.92000 543.794
20.96000 550.674
21.00000 546.764
21.04000 550.848
21.08000 554.646
21.12000 535.128
21.16000 540.095
21.20000 545.568
21.24000 526.427
21.28000 563.750
21.32000 543.222
21.36000 566.620
21.40000 555.200
21.44000 535.504
21.48000 558.866
21.52000 542.947
21.56000 562.445
21.60000 565.194
21.64000 596.420
21.68000 600.772
21.72000 631.502
21.76000 675.680
21.80000 711.824
21.84000 777.399
21.88000 822.073
21.92000 899.719
21.96000 948.958
22.00000 970.348
22.04000 957.617
22.08000 927.779
22.12000 843.759
22.16000 768.502
22.20000 736.915
22.24000 720.650
22.28000 662.611
22.32000 619.504
22.36000 595.760
22.40000 606.706
22.44000 561.591
22.48000 542.793
22.52000 553.498
22.56000 552.992
22.60000 541.697
22.64000 552.480
22.68000 538.042
22.72000 524.825
22.76000 512.232
22.80000 519.548
22.84000 521.411
22.88000 496.657
22.92000 538.307
22.96000 533.345
23.00000 504.639
23.04000 519.592
23.08000 510.952
23.12000 516.333
23.16000 528.836
23.20000 504.410
23.24000 506.683
23.28000 506.780
23.32000 497.815
23.36000 510.791
23.40000 522.923
23.44000 495.366
23.48000 502.872
23.52000 492.698
23.56000 510.519
23.60000 504.443
23.64000 483.421
23.68000 509.374
23.72000 500.006
23.76000 489.609
23.80000 492.869
23.84000 475.551
23.88000 486.375
23.92000 506.297
23.96000 471.246
24.00000 491.841
24.04000 498.206
24.08000 503.701
24.12000 496.453
24.16000 484.300
24.20000 477.325
24.24000 501.820
24.28000 473.437
24.32000 475.884
24.36000 483.675
24.40000 480.617
24.44000 480.796
24.48000 469.881
24.52000 469.361
24.56000 473.205
24.60000 483.505
24.64000 461.988
24.68000 496.211
24.72000 487.357
24.76000 490.117
24.80000 486.426
24.84000 468.618
24.88000 483.073
24.92000 475.605
24.96000 481.751
25.00000 484.991
25.04000 476.124
25.08000 469.008
25.12000 472.355
25.16000 463.271
25.20000 464.216
25.24000 489.338
25.28000 460.913
25.32000 473.576
25.36000 460.425
25.40000 470.351
25.44000 465.638
25.48000 456.531
25.52000 471.650
25.56000 477.998
25.60000 449.670
25.64000 467.295
25.68000 459.913
25.72000 442.418
25.76000 453.419
25.80000 462.266
25.84000 459.937
25.88000 457.884
25.92000 465.226
25.96000 453.936
26.00000 446.913
26.04000 443.398
26.08000 459.768
26.12000 458.021
26.16000 452.614
26.20000 460.013
26.24000 427.398
26.28000 446.018
26.32000 455.315
26.36000 461.621
26.40000 467.482
26.44000 442.938
26.48000 462.942
26.52000 455.449
26.56000 456.151
26.60000 435.061
26.64000 438.139
26.68000 441.891
26.72000 452.175
26.76000 451.851
26.80000 444.226
26.84000 445.615
26.88000 453.972
26.92000 458.833
26.96000 476.180
27.00000 441.207
27.04000 446.312
27.08000 438.039
27.12000 434.476
27.16000 435.983
27.20000 431.301
27.24000 449.058
27.28000 445.408
27.32000 455.174
27.36000 438.840
27.40000 438.329
27.44000 429.374
27.48000 437.636
27.52000 428.137
27.56000 463.532
27.60000 426.732
27.64000 432.944
27.68000 441.312
27.72000 447.254
27.76000 431.956
27.80000 434.504
27.84000 427.711
27.88000 434.560
27.92000 432.615
27.96000 430.775
28.00000 436.981
28.04000 428.099
28.08000 441.802
28.12000 425.914
28.16000 426.608
28.20000 424.511
28.24000 424.499
28.28000 435.470
28.32000 412.495
28.36000 413.057
28.40000 419.491
28.44000 417.595
28.48000 414.972
28.52000 427.846
28.56000 429.629
28.60000 413.308
28.64000 433.157
28.68000 412.928
28.72000 409.230
28.76000 422.221
28.80000 419.991
28.84000 405.875
28.88000 417.861
28.92000 426.692
28.96000 417.194
29.00000 431.794
29.04000 404.018
29.08000 413.135
29.12000 417.879
29.16000 408.095
29.20000 410.890
29.24000 409.475
29.28000 404.321
29.32000 425.259
29.36000 414.460
29.40000 414.677
29.44000 398.429
29.48000 396.161
29.52000 402.397
29.56000 407.363
29.60000 394.711
29.64000 408.537
29.68000 427.337
29.72000 410.040
29.76000 425.516
29.80000 435.162
29.84000 442.057
29.88000 445.219
29.92000 445.303
29.96000 438.099
30.00000 442.054
30.04000 429.676
30.08000 456.315
30.12000 431.213
30.16000 428.013
30.20000 429.446
30.24000 429.619
30.28000 431.269
30.32000 420.393
30.36000 433.233
30.40000 432.252
30.44000 438.719
30.48000 414.878
30.52000 444.303
30.56000 442.958
30.60000 427.233
30.64000 432.526
30.68000 429.846
30.72000 437.165
30.76000 460.786
30.80000 463.826
30.84000 465.080
30.88000 504.817
30.92000 545.404
30.96000 631.975
31.00000 719.403
31.04000 864.002
31.08000 1106.936
31.12000 1526.476
31.16000 1984.024
31.20000 2481.910
31.24000 2947.675
31.28000 3204.427
31.32000 3312.636
31.36000 3197.047
31.40000 2961.832
31.44000 2510.398
31.48000 2041.829
31.52000 1665.249
31.56000 1320.540
31.60000 1108.461
31.64000 927.093
31.68000 800.652
31.72000 699.866
31.76000 631.776
31.80000 580.898
31.84000 530.170
31.88000 493.210
31.92000 451.744
31.96000 444.857
32.00000 417.344
32.04000 425.242
32.08000 424.558
32.12000 387.422
32.16000 409.372
32.20000 409.722
32.24000 376.891
32.28000 392.432
32.32000 382.255
32.36000 382.422
32.40000 384.350
32.44000 383.364
32.48000 379.902
32.52000 375.647
32.56000 378.815
32.60000 393.200
32.64000 384.817
32.68000 374.539
32.72000 366.715
32.76000 355.368
32.80000 379.358
32.84000 393.519
32.88000 393.045
32.92000 390.852
32.96000 406.303
33.00000 398.434
33.04000 374.215
33.08000 368.272
33.12000 357.484
33.16000 349.222
33.20000 344.509
33.24000 340.330
33.28000 351.336
33.32000 350.103
33.36000 336.857
33.40000 338.190
33.44000 339.970
33.48000 330.273
33.52000 342.721
33.56000 329.283
33.60000 346.399
33.64000 331.738
33.68000 349.506
33.72000 349.029
33.76000 342.814
33.80000 326.418
33.84000 328.394
33.88000 328.159
33.92000 333.997
33.96000 334.010
34.00000 343.280
34.04000 334.020
34.08000 339.975
34.12000 345.995
34.16000 338.288
34.20000 336.747
34.24000 331.995
34.28000 328.292
34.32000 325.712
34.36000 335.165
34.40000 328.179
34.44000 323.287
34.48000 327.129
34.52000 335.412
34.56000 319.709
34.60000 332.051
34.64000 341.779
34.68000 337.630
34.72000 324.630
34.76000 322.321
34.80000 336.911
34.84000 320.349
34.88000 323.565
34.92000 338.276
34.96000 325.316
35.00000 304.268
35.04000 324.696
35.08000 306.111
35.12000 314.739
35.16000 305.101
35.20000 308.583
35.24000 300.650
35.28000 328.062
35.32000 312.342
35.36000 310.140
35.40000 317.035
35.44000 324.803
35.48000 310.423
35.52000 300.665
35.56000 298.154
35.60000 312.276
35.64000 309.421
35.68000 318.587
35.72000 297.200
35.76000 318.072
35.80000 305.297
35.84000 313.593
35.88000 297.616
35.92000 315.898
35.96000 295.290
36.00000 297.391
36.04000 305.703
36.08000 310.991
36.12000 299.668
36.16000 297.471
36.20000 323.960
36.24000 303.359
36.28000 283.315
36.32000 288.368
36.36000 303.509
36.40000 295.328
36.44000 296.695
36.48000 291.743
36.52000 290.694
36.56000 295.615
36.60000 287.895
36.64000 292.492
36.68000 296.885
36.72000 296.938
36.76000 301.819
36.80000 288.764
36.84000 294.901
36.88000 324.546
36.92000 294.025
36.96000 307.441
37.00000 288.046
37.04000 289.335
37.08000 289.731
37.12000 298.958
37.16000 297.005
37.20000 301.171
37.24000 295.711
37.28000 283.971
37.32000 283.468
37.36000 281.690
37.40000 286.609
37.44000 279.080
37.48000 298.835
37.52000 263.634
37.56000 283.643
37.60000 284.760
37.64000 284.258
37.68000 285.659
37.72000 286.668
37.76000 298.611
37.80000 285.097
37.84000 279.074
37.88000 282.111
37.92000 298.060
37.96000 294.673
38.00000 297.446
38.04000 299.403
38.08000 288.879
38.12000 285.035
38.16000 304.728
38.20000 310.101
38.24000 312.128
38.28000 310.557
38.32000 326.426
38.36000 340.979
38.40000 376.755
38.44000 389.312
38.48000 413.344
38.52000 431.483
38.56000 452.625
38.60000 499.545
38.64000 476.467
38.68000 478.743
38.72000 449.197
38.76000 425.554
38.80000 408.394
38.84000 392.184
38.88000 333.790
38.92000 338.102
38.96000 301.881
39.00000 306.837
39.04000 296.533
39.08000 293.572
39.12000 273.070
39.16000 276.990
39.20000 274.083
39.24000 247.338
39.28000 283.191
39.32000 279.724
39.36000 270.385
39.40000 277.103
39.44000 263.882
39.48000 274.203
39.52000 260.044
39.56000 258.342
39.60000 258.730
39.64000 259.308
39.68000 271.046
39.72000 271.726
39.76000 259.384
39.80000 256.419
39.84000 257.450
39.88000 266.481
39.92000 240.822
39.96000 255.093
40.00000 260.869
40.04000 262.041
40.08000 259.799
40.12000 263.859
40.16000 256.163
40.20000 256.350
40.24000 255.650
40.28000 252.684
40.32000 256.726
40.36000 261.701
40.40000 244.456
40.44000 243.507
40.48000 257.794
40.52000 243.738
40.56000 251.918
40.60000 246.447
40.64000 257.794
40.68000 258.721
40.72000 255.487
40.76000 249.197
40.80000 234.755
40.84000 257.412
40.88000 241.849
40.92000 246.625
40.96000 253.521
41.00000 241.833
41.04000 240.262
41.08000 241.272
41.12000 251.737
41.16000 240.080
41.20000 234.168
41.24000 249.139
41.28000 252.211
41.32000 254.216
41.36000 257.332
41.40000 238.949
41.44000 249.897
41.48000 240.547
41.52000 237.919
41.56000 237.855
41.60000 238.927
41.64000 224.290
41.68000 238.823
41.72000 235.663
41.76000 247.582
41.80000 234.022
41.84000 234.997
41.88000 237.488
41.92000 236.275
41.96000 244.094
42.00000 237.181
42.04000 247.701
42.08000 228.530
42.12000 233.438
42.16000 242.577
42.20000 238.318
42.24000 220.873
42.28000 238.036
42.32000 219.294
42.36000 236.240
42.40000 237.694
42.44000 237.408
42.48000 241.565
42.52000 225.638
42.56000 233.597
42.60000 240.229
42.64000 223.872
42.68000 247.008
42.72000 246.385
42.76000 243.743
42.80000 223.744
42.84000 239.636
42.88000 237.340
42.92000 224.266
42.96000 230.404
43.00000 226.660
43.04000 233.506
43.08000 237.112
43.12000 223.464
43.16000 231.833
43.20000 237.302
43.24000 223.863
43.28000 231.013
43.32000 221.426
43.36000 220.889
43.40000 218.944
43.44000 232.357
43.48000 238.645
43.52000 217.764
43.56000 220.513
43.60000 215.223
43.64000 236.047
43.68000 227.799
43.72000 225.362
43.76000 226.766
43.80000 226.262
43.84000 229.162
43.88000 231.154
43.92000 219.690
43.96000 230.583
44.00000 242.554
44.04000 224.138
44.08000 235.305
44.12000 229.704
44.16000 230.711
44.20000 239.652
44.24000 248.422
44.28000 232.783
44.32000 232.207
44.36000 244.640
44.40000 250.168
44.44000 259.991
44.48000 271.719
44.52000 266.931
44.56000 296.740
44.60000 327.994
44.64000 337.892
44.68000 382.737
44.72000 410.583
44.76000 454.153
44.80000 495.635
44.84000 502.574
44.88000 523.056
44.92000 531.054
44.96000 526.809
45.00000 543.187
45.04000 513.587
45.08000 497.363
45.12000 458.792
45.16000 408.624
45.20000 387.676
45.24000 370.050
45.28000 377.257
45.32000 343.007
45.36000 339.099
45.40000 302.778
45.44000 287.496
45.48000 301.010
45.52000 282.092
45.56000 278.689
45.60000 273.996
45.64000 252.043
45.68000 255.225
45.72000 249.176
45.76000 252.393
45.80000 234.598
45.84000 235.857
45.88000 227.706
45.92000 215.609
45.96000 237.326
46.00000 223.999
46.04000 216.300
46.08000 209.768
46.12000 198.107
46.16000 212.335
46.20000 210.029
46.24000 207.777
46.28000 200.835
46.32000 206.688
46.36000 215.628
46.40000 206.758
46.44000 215.677
46.48000 213.281
46.52000 194.270
46.56000 210.936
46.60000 191.101
46.64000 177.032
46.68000 203.727
46.72000 205.794
46.76000 204.853
46.80000 206.392
46.84000 189.842
46.88000 196.202
46.92000 189.798
46.96000 199.421
47.00000 195.941
47.04000 206.446
47.08000 199.940
47.12000 196.236
47.16000 182.325
47.20000 187.642
47.24000 196.184
47.28000 194.275
47.32000 200.806
47.36000 191.069
47.40000 193.121
47.44000 192.177
47.48000 195.214
47.52000 176.594
47.56000 187.799
47.60000 190.366
47.64000 193.212
47.68000 183.242
47.72000 192.051
47.76000 190.456
47.80000 171.135
47.84000 184.366
47.88000 206.375
47.92000 194.224
47.96000 190.007
48.00000 174.252
48.04000 185.268
48.08000 193.956
48.12000 187.416
48.16000 188.152
48.20000 181.063
48.24000 174.823
48.28000 184.925
48.32000 190.938
48.36000 192.113
48.40000 193.103
48.44000 187.573
48.48000 177.622
48.52000 183.552
48.56000 185.574
48.60000 200.385
48.64000 181.046
48.68000 178.103
48.72000 189.662
48.76000 191.591
48.80000 184.898
48.84000 182.546
48.88000 187.431
48.92000 175.447
48.96000 183.856
49.00000 184.855
49.04000 176.646
49.08000 183.740
49.12000 183.262
49.16000 178.444
49.20000 176.380
49.24000 166.747
49.28000 176.413
49.32000 181.349
49.36000 174.414
49.40000 180.818
49.44000 177.659
49.48000 178.046
49.52000 171.676
49.56000 175.133
49.60000 167.331
49.64000 182.582
49.68000 178.309
49.72000 186.282
49.76000 185.355
49.80000 174.426
49.84000 191.587
49.88000 168.892
49.92000 174.497
49.96000 182.150
50.00000 175.464
50.04000 182.089
50.08000 188.400
50.12000 172.981
50.16000 185.548
50.20000 196.854
50.24000 203.852
50.28000 194.939
50.32000 207.536
50.36000 215.259
50.40000 217.162
50.44000 233.642
50.48000 233.842
50.52000 227.724
50.56000 242.366
50.60000 234.500
50.64000 238.693
50.68000 228.509
50.72000 243.338
50.76000 234.429
50.80000 218.043
50.84000 211.393
50.88000 214.655
50.92000 197.916
50.96000 199.920
51.00000 195.723
51.04000 202.276
51.08000 179.338
51.12000 181.138
51.16000 180.545
51.20000 170.430
51.24000 183.770
51.28000 174.420
51.32000 172.856
51.36000 176.950
51.40000 159.655
51.44000 160.731
51.48000 166.594
51.52000 173.502
51.56000 160.460
51.60000 160.282
51.64000 157.902
51.68000 159.979
51.72000 170.216
51.76000 169.760
51.80000 172.109
51.84000 159.368
51.88000 174.964
51.92000 154.726
51.96000 157.370
52.00000 164.120
52.04000 170.514
52.08000 159.686
52.12000 148.572
52.16000 166.253
52.20000 165.654
52.24000 157.198
52.28000 152.374
52.32000 172.517
52.36000 167.923
52.40000 166.296
52.44000 161.532
52.48000 153.536
52.52000 153.689
52.56000 160.059
52.60000 156.787
52.64000 165.656
52.68000 164.319
52.72000 155.523
52.76000 150.489
52.80000 153.946
52.84000 158.488
52.88000 162.796
52.92000 162.338
52.96000 162.060
53.00000 157.018
53.04000 165.292
53.08000 156.385
53.12000 157.954
53.16000 163.394
53.20000 157.938
53.24000 167.784
53.28000 154.375
53.32000 158.685
53.36000 148.212
53.40000 156.466
53.44000 148.361
53.48000 165.091
53.52000 160.336
53.56000 157.622
53.60000 157.795
53.64000 161.158
53.68000 143.785
53.72000 152.355
53.76000 151.999
53.80000 151.026
53.84000 150.676
53.88000 140.153
53.92000 163.174
53.96000 156.494
54.00000 152.335
54.04000 158.990
54.08000 167.147
54.12000 165.149
54.16000 158.737
54.20000 142.204
54.24000 151.335
54.28000 156.704
54.32000 151.115
54.36000 147.668
54.40000 158.707
54.44000 157.810
54.48000 159.054
54.52000 148.835
54.56000 156.226
54.60000 155.776
54.64000 155.479
54.68000 151.052
54.72000 157.438
54.76000 162.960
54.80000 166.538
54.84000 154.095
54.88000 155.017
54.92000 147.954
54.96000 159.366
55.00000 154.320
55.04000 158.348
55.08000 164.195
55.12000 162.550
55.16000 160.334
55.20000 168.248
55.24000 173.828
55.28000 166.586
55.32000 174.788
55.36000 176.924
55.40000 190.644
55.44000 203.328
55.48000 225.462
55.52000 233.327
55.56000 268.269
55.60000 291.271
55.64000 313.645
55.68000 337.945
55.72000 364.165
55.76000 380.086
55.80000 378.266
55.84000 396.933
55.88000 391.642
55.92000 370.050
55.96000 362.230
56.00000 346.617
56.04000 318.860
56.08000 312.047
56.12000 288.925
56.16000 262.145
56.20000 242.706
56.24000 222.879
56.28000 216.269
56.32000 202.511
56.36000 195.474
56.40000 191.229
56.44000 178.067
56.48000 172.619
56.52000 161.598
56.56000 169.880
56.60000 157.937
56.64000 154.804
56.68000 149.261
56.72000 156.517
56.76000 155.702
56.80000 141.639
56.84000 139.142
56.88000 149.607
56.92000 143.472
56.96000 147.983
57.00000 150.560
57.04000 135.667
57.08000 150.738
57.12000 150.327
57.16000 148.169
57.20000 140.852
57.24000 140.620
57.28000 140.079
57.32000 135.782
57.36000 141.631
57.40000 142.462
57.44000 148.170
57.48000 142.721
57.52000 148.721
57.56000 140.191
57.60000 132.761
57.64000 149.174
57.68000 139.621
57.72000 139.063
57.76000 140.093
57.80000 134.233
57.84000 144.096
57.88000 134.112
57.92000 135.732
57.96000 143.821
58.00000 144.861
58.04000 146.692
58.08000 147.175
58.12000 142.751
58.16000 147.329
58.20000 140.450
58.24000 147.585
58.28000 149.891
58.32000 153.896
58.36000 133.173
58.40000 139.483
58.44000 146.774
58.48000 133.835
58.52000 135.934
58.56000 138.666
58.60000 140.893
58.64000 141.091
58.68000 130.999
58.72000 136.381
58.76000 143.953
58.80000 132.471
58.84000 145.003
58.88000 131.213
58.92000 139.149
58.96000 132.457
59.00000 138.245
59.04000 136.310
59.08000 131.955
59.12000 134.733
59.16000 132.214
59.20000 135.024
59.24000 136.873
59.28000 149.633
59.32000 125.740
59.36000 125.674
59.40000 128.406
59.44000 130.155
59.48000 143.811
59.52000 131.331
59.56000 136.619
59.60000 132.076
59.64000 134.599
59.68000 116.880
59.72000 135.398
59.76000 132.492
59.80000 131.687
59.84000 132.759
59.88000 144.286
59.92000 129.215
59.96000 132.588
60.00000 136.446
60.04000 130.768
60.08000 130.055
60.12000 131.598
60.16000 131.862
60.20000 133.428
60.24000 124.085
60.28000 132.342
60.32000 132.767
60.36000 135.872
60.40000 131.821
60.44000 122.161
60.48000 133.475
60.52000 133.078
60.56000 132.249
60.60000 132.572
60.64000 140.537
60.68000 139.696
60.72000 130.936
60.76000 141.382
60.80000 130.069
60.84000 134.116
60.88000 137.719
60.92000 131.774
60.96000 136.843
61.00000 130.535
61.04000 140.217
61.08000 134.701
61.12000 139.192
61.16000 144.535
61.20000 141.119
61.24000 129.370
61.28000 137.636
61.32000 135.131
61.36000 143.012
61.40000 138.564
61.44000 140.743
61.48000 165.487
61.52000 182.605
61.56000 218.383
61.60000 298.090
61.64000 320.264
61.68000 347.713
61.72000 361.242
61.76000 333.066
61.80000 268.874
61.84000 203.257
61.88000 154.202
61.92000 158.046
61.96000 141.813
62.00000 135.291
62.04000 144.672
62.08000 146.200
62.12000 144.391
62.16000 146.380
62.20000 131.702
62.24000 137.135
62.28000 149.089
62.32000 142.854
62.36000 144.340
62.40000 149.980
62.44000 137.998
62.48000 144.019
62.52000 148.161
62.56000 158.438
62.60000 154.957
62.64000 135.934
62.68000 146.908
62.72000 151.920
62.76000 143.032
62.80000 150.893
62.84000 147.283
62.88000 161.058
62.92000 140.451
62.96000 142.231
63.00000 135.695
63.04000 154.461
63.08000 143.347
63.12000 159.500
63.16000 158.980
63.20000 152.025
63.24000 157.078
63.28000 148.972
63.32000 145.650
63.36000 150.894
63.40000 144.208
63.44000 149.634
63.48000 155.519
63.52000 163.827
63.56000 155.302
63.60000 142.661
63.64000 153.436
63.68000 155.588
63.72000 148.325
63.76000 158.163
63.80000 151.805
63.84000 152.175
63.88000 157.324
63.92000 160.187
63.96000 163.674
64.00000 154.711
64.04000 160.634
64.08000 168.708
64.12000 176.406
64.16000 174.947
64.20000 167.978
64.24000 173.826
64.28000 171.237
64.32000 175.545
64.36000 170.611
64.40000 157.990
64.44000 171.224
64.48000 177.823
64.52000 166.897
64.56000 182.780
64.60000 182.039
64.64000 187.935
64.68000 187.996
64.72000 173.950
64.76000 187.489
64.80000 193.460
64.84000 187.530
64.88000 207.084
64.92000 205.684
64.96000 210.103
65.00000 221.680
65.04000 233.959
65.08000 249.350
65.12000 279.827
65.16000 292.385
65.20000 310.653
65.24000 330.534
65.28000 349.823
65.32000 358.027
65.36000 378.706
65.40000 378.391
65.44000 385.509
65.48000 409.433
65.52000 394.715
65.56000 387.740
65.60000 396.724
65.64000 455.757
65.68000 534.404
65.72000 736.317
65.76000 1094.037
65.80000 1374.046
65.84000 1514.033
65.88000 1546.586
65.92000 1480.803
65.96000 1239.450
66.00000 893.747
66.04000 602.970
66.08000 451.100
66.12000 365.581
66.16000 354.405
66.20000 363.953
66.24000 375.506
66.28000 432.406
66.32000 498.543
66.36000 550.196
66.40000 556.046
66.44000 564.143
66.48000 563.681
66.52000 506.496
66.56000 432.376
66.60000 400.207
66.64000 374.585
66.68000 366.066
66.72000 359.519
66.76000 367.752
66.80000 358.770
66.84000 377.906
66.88000 371.329
66.92000 362.072
66.96000 397.281
67.00000 399.406
67.04000 404.480
67.08000 409.714
67.12000 420.242
67.16000 428.416
67.20000 433.067
67.24000 434.958
67.28000 435.317
67.32000 465.233
67.36000 433.614
67.40000 457.799
67.44000 480.096
67.48000 481.515
67.52000 492.800
67.56000 492.646
67.60000 525.357
67.64000 489.148
67.68000 551.426
67.72000 543.533
67.76000 549.634
67.80000 554.681
67.84000 579.917
67.88000 569.082
67.92000 585.157
67.96000 616.910
68.00000 626.487
68.04000 626.990
68.08000 634.661
68.12000 674.900
68.16000 663.228
68.20000 699.774
68.24000 723.855
68.28000 715.364
68.32000 761.097
68.36000 779.196
68.40000 826.922
68.44000 851.043
68.48000 900.686
68.52000 974.406
68.56000 1049.273
68.60000 1196.294
68.64000 1434.786
68.68000 1698.061
68.72000 2006.924
68.76000 2293.819
68.80000 2549.368
68.84000 3158.684
68.88000 4079.515
68.92000 7337.688
68.96000 19172.365
69.00000 42579.551
69.04000 67645.648
69.08000 79876.008
69.12000 82527.531
69.16000 85509.219
69.20000 84106.500
69.24000 70985.242
69.28000 54150.566
69.32000 44053.914
69.36000 39599.242
69.40000 32106.141
69.44000 19841.771
69.48000 9127.496
69.52000 3776.004
69.56000 2360.137
69.60000 1859.663
69.64000 1557.309
69.68000 1368.058
69.72000 1196.914
69.76000 1101.505
69.80000 1018.244
69.84000 951.372
69.88000 875.945
69.92000 829.319
69.96000 790.565
70.00000 748.454