File: XRD/25-09-2025/XY Data/BTO_Mapping_Theta2Theta_25-09-2025_001_57_26-765_-29-726.xy
20.00000 546.592
20.04000 557.668
20.08000 555.237
20.12000 564.776
20.16000 567.040
20.20000 568.054
20.24000 554.727
20.28000 543.760
20.32000 573.183
20.36000 533.417
20.40000 549.333
20.44000 567.447
20.48000 558.535
20.52000 535.671
20.56000 560.289
20.60000 560.556
20.64000 558.505
20.68000 559.981
20.72000 542.978
20.76000 529.086
20.80000 524.995
20.84000 563.434
20.88000 557.557
20.92000 524.443
20.96000 537.974
21.00000 550.835
21.04000 530.927
21.08000 536.041
21.12000 513.779
21.16000 545.697
21.20000 545.810
21.24000 529.587
21.28000 533.201
21.32000 562.348
21.36000 543.255
21.40000 537.092
21.44000 527.302
21.48000 532.482
21.52000 542.202
21.56000 554.044
21.60000 537.450
21.64000 546.323
21.68000 546.786
21.72000 525.406
21.76000 535.602
21.80000 548.269
21.84000 551.069
21.88000 545.563
21.92000 557.278
21.96000 563.045
22.00000 582.657
22.04000 594.994
22.08000 600.785
22.12000 602.934
22.16000 597.416
22.20000 618.020
22.24000 613.983
22.28000 587.869
22.32000 595.151
22.36000 581.949
22.40000 579.465
22.44000 578.203
22.48000 568.043
22.52000 555.824
22.56000 541.846
22.60000 517.343
22.64000 533.179
22.68000 523.209
22.72000 515.889
22.76000 514.617
22.80000 513.443
22.84000 518.945
22.88000 516.117
22.92000 524.211
22.96000 502.222
23.00000 505.633
23.04000 514.899
23.08000 505.360
23.12000 491.570
23.16000 510.375
23.20000 502.356
23.24000 509.218
23.28000 520.476
23.32000 511.728
23.36000 491.470
23.40000 503.148
23.44000 507.154
23.48000 500.984
23.52000 523.988
23.56000 484.337
23.60000 487.996
23.64000 493.242
23.68000 500.007
23.72000 527.320
23.76000 493.435
23.80000 496.818
23.84000 471.127
23.88000 486.624
23.92000 485.398
23.96000 507.424
24.00000 498.345
24.04000 485.137
24.08000 490.234
24.12000 486.455
24.16000 482.302
24.20000 485.437
24.24000 476.133
24.28000 477.245
24.32000 474.407
24.36000 487.326
24.40000 493.117
24.44000 485.320
24.48000 469.063
24.52000 489.661
24.56000 505.883
24.60000 463.607
24.64000 468.426
24.68000 483.563
24.72000 482.278
24.76000 466.637
24.80000 466.708
24.84000 477.679
24.88000 460.486
24.92000 456.980
24.96000 464.088
25.00000 460.688
25.04000 456.914
25.08000 467.335
25.12000 467.835
25.16000 455.174
25.20000 460.635
25.24000 476.845
25.28000 480.874
25.32000 461.348
25.36000 468.692
25.40000 453.644
25.44000 467.776
25.48000 472.197
25.52000 471.408
25.56000 457.767
25.60000 457.250
25.64000 464.505
25.68000 475.382
25.72000 451.955
25.76000 464.233
25.80000 465.815
25.84000 448.960
25.88000 464.646
25.92000 445.094
25.96000 462.402
26.00000 463.678
26.04000 465.710
26.08000 442.019
26.12000 469.049
26.16000 444.403
26.20000 468.225
26.24000 456.752
26.28000 441.985
26.32000 451.893
26.36000 460.392
26.40000 439.596
26.44000 485.788
26.48000 448.018
26.52000 434.964
26.56000 451.323
26.60000 477.510
26.64000 452.132
26.68000 440.469
26.72000 472.170
26.76000 447.188
26.80000 444.390
26.84000 430.359
26.88000 439.439
26.92000 445.077
26.96000 441.392
27.00000 455.889
27.04000 440.297
27.08000 428.548
27.12000 437.470
27.16000 415.080
27.20000 418.357
27.24000 429.773
27.28000 422.731
27.32000 453.303
27.36000 434.252
27.40000 433.155
27.44000 438.839
27.48000 435.315
27.52000 445.902
27.56000 420.044
27.60000 431.833
27.64000 421.744
27.68000 422.938
27.72000 429.979
27.76000 432.746
27.80000 436.935
27.84000 417.158
27.88000 433.484
27.92000 433.472
27.96000 436.242
28.00000 407.523
28.04000 417.345
28.08000 411.148
28.12000 420.606
28.16000 403.782
28.20000 438.303
28.24000 413.513
28.28000 411.961
28.32000 403.310
28.36000 411.715
28.40000 405.578
28.44000 408.146
28.48000 418.013
28.52000 426.008
28.56000 426.394
28.60000 419.978
28.64000 419.054
28.68000 417.797
28.72000 409.887
28.76000 388.475
28.80000 411.967
28.84000 392.596
28.88000 398.153
28.92000 412.186
28.96000 420.767
29.00000 404.035
29.04000 422.152
29.08000 407.984
29.12000 386.587
29.16000 410.120
29.20000 402.656
29.24000 419.804
29.28000 399.737
29.32000 400.286
29.36000 406.034
29.40000 394.499
29.44000 405.037
29.48000 399.289
29.52000 409.829
29.56000 381.760
29.60000 402.513
29.64000 395.574
29.68000 399.828
29.72000 404.078
29.76000 419.201
29.80000 398.375
29.84000 413.862
29.88000 412.332
29.92000 417.129
29.96000 387.237
30.00000 414.493
30.04000 403.830
30.08000 409.347
30.12000 415.910
30.16000 408.008
30.20000 412.734
30.24000 399.187
30.28000 398.396
30.32000 396.373
30.36000 418.332
30.40000 410.493
30.44000 402.720
30.48000 423.970
30.52000 424.094
30.56000 402.091
30.60000 406.959
30.64000 407.644
30.68000 413.454
30.72000 403.137
30.76000 430.866
30.80000 415.737
30.84000 434.426
30.88000 437.359
30.92000 436.826
30.96000 461.671
31.00000 472.935
31.04000 491.638
31.08000 542.945
31.12000 565.340
31.16000 663.299
31.20000 793.553
31.24000 905.853
31.28000 1030.367
31.32000 1184.155
31.36000 1267.759
31.40000 1383.720
31.44000 1302.163
31.48000 1262.570
31.52000 1137.652
31.56000 1041.475
31.60000 913.477
31.64000 778.271
31.68000 691.387
31.72000 622.756
31.76000 566.997
31.80000 528.784
31.84000 484.892
31.88000 465.786
31.92000 447.243
31.96000 436.453
32.00000 424.220
32.04000 412.449
32.08000 403.515
32.12000 385.239
32.16000 400.168
32.20000 384.723
32.24000 386.867
32.28000 379.264
32.32000 383.737
32.36000 390.737
32.40000 385.316
32.44000 366.279
32.48000 384.341
32.52000 385.458
32.56000 376.987
32.60000 358.337
32.64000 377.801
32.68000 368.868
32.72000 378.097
32.76000 387.759
32.80000 370.192
32.84000 368.836
32.88000 364.659
32.92000 379.661
32.96000 371.864
33.00000 368.015
33.04000 373.496
33.08000 347.176
33.12000 329.494
33.16000 338.508
33.20000 336.267
33.24000 327.476
33.28000 335.600
33.32000 332.819
33.36000 342.386
33.40000 352.675
33.44000 344.663
33.48000 356.020
33.52000 327.222
33.56000 340.088
33.60000 328.297
33.64000 332.167
33.68000 337.029
33.72000 341.383
33.76000 322.453
33.80000 328.729
33.84000 339.834
33.88000 331.921
33.92000 333.366
33.96000 327.661
34.00000 330.687
34.04000 328.683
34.08000 329.005
34.12000 314.141
34.16000 322.370
34.20000 330.844
34.24000 319.477
34.28000 312.046
34.32000 341.524
34.36000 338.567
34.40000 310.312
34.44000 320.461
34.48000 321.608
34.52000 324.416
34.56000 328.661
34.60000 325.455
34.64000 312.489
34.68000 316.927
34.72000 311.129
34.76000 317.964
34.80000 308.603
34.84000 311.625
34.88000 310.734
34.92000 305.052
34.96000 327.600
35.00000 322.817
35.04000 307.978
35.08000 307.534
35.12000 298.006
35.16000 311.500
35.20000 305.673
35.24000 314.277
35.28000 302.683
35.32000 301.905
35.36000 306.948
35.40000 313.141
35.44000 302.300
35.48000 307.825
35.52000 305.435
35.56000 289.774
35.60000 294.808
35.64000 292.359
35.68000 304.807
35.72000 298.823
35.76000 316.242
35.80000 300.519
35.84000 301.940
35.88000 300.334
35.92000 293.591
35.96000 309.738
36.00000 303.927
36.04000 278.128
36.08000 288.385
36.12000 297.879
36.16000 304.713
36.20000 294.914
36.24000 292.867
36.28000 304.475
36.32000 286.412
36.36000 300.782
36.40000 293.726
36.44000 289.798
36.48000 289.876
36.52000 292.101
36.56000 302.577
36.60000 294.870
36.64000 283.808
36.68000 306.571
36.72000 281.610
36.76000 278.390
36.80000 282.594
36.84000 291.517
36.88000 274.808
36.92000 284.227
36.96000 290.393
37.00000 293.249
37.04000 285.722
37.08000 295.893
37.12000 301.190
37.16000 275.132
37.20000 290.832
37.24000 289.803
37.28000 300.714
37.32000 284.935
37.36000 276.843
37.40000 279.427
37.44000 279.282
37.48000 291.387
37.52000 295.831
37.56000 291.635
37.60000 279.752
37.64000 290.183
37.68000 281.388
37.72000 275.775
37.76000 287.644
37.80000 286.151
37.84000 296.619
37.88000 287.024
37.92000 285.284
37.96000 281.621
38.00000 267.895
38.04000 264.672
38.08000 278.570
38.12000 285.813
38.16000 276.416
38.20000 282.964
38.24000 297.041
38.28000 296.645
38.32000 287.604
38.36000 296.750
38.40000 305.684
38.44000 331.250
38.48000 359.624
38.52000 414.353
38.56000 457.862
38.60000 528.795
38.64000 616.961
38.68000 696.128
38.72000 738.070
38.76000 761.517
38.80000 725.266
38.84000 667.070
38.88000 576.209
38.92000 498.300
38.96000 429.694
39.00000 369.785
39.04000 348.987
39.08000 297.931
39.12000 280.585
39.16000 278.446
39.20000 290.828
39.24000 278.613
39.28000 253.146
39.32000 282.624
39.36000 282.260
39.40000 267.760
39.44000 255.933
39.48000 284.435
39.52000 274.433
39.56000 254.759
39.60000 265.418
39.64000 261.220
39.68000 268.886
39.72000 262.876
39.76000 256.494
39.80000 257.408
39.84000 263.083
39.88000 259.089
39.92000 245.415
39.96000 243.123
40.00000 261.480
40.04000 252.196
40.08000 276.276
40.12000 249.758
40.16000 246.893
40.20000 260.748
40.24000 261.505
40.28000 261.016
40.32000 233.555
40.36000 244.584
40.40000 246.793
40.44000 245.855
40.48000 232.390
40.52000 240.153
40.56000 237.357
40.60000 256.028
40.64000 237.777
40.68000 248.524
40.72000 246.462
40.76000 234.154
40.80000 241.102
40.84000 239.432
40.88000 249.560
40.92000 224.336
40.96000 238.499
41.00000 252.913
41.04000 249.057
41.08000 232.802
41.12000 237.382
41.16000 222.343
41.20000 246.005
41.24000 249.562
41.28000 243.645
41.32000 252.346
41.36000 225.331
41.40000 242.749
41.44000 248.008
41.48000 235.284
41.52000 238.973
41.56000 239.643
41.60000 237.560
41.64000 234.928
41.68000 233.837
41.72000 234.195
41.76000 232.980
41.80000 242.218
41.84000 250.709
41.88000 229.814
41.92000 238.159
41.96000 213.738
42.00000 227.961
42.04000 233.967
42.08000 231.015
42.12000 244.872
42.16000 234.983
42.20000 228.820
42.24000 219.427
42.28000 250.010
42.32000 225.679
42.36000 234.434
42.40000 223.785
42.44000 225.285
42.48000 257.433
42.52000 223.752
42.56000 234.846
42.60000 233.124
42.64000 218.836
42.68000 238.021
42.72000 230.640
42.76000 229.782
42.80000 224.353
42.84000 231.415
42.88000 224.276
42.92000 231.284
42.96000 235.874
43.00000 204.238
43.04000 228.815
43.08000 218.779
43.12000 233.656
43.16000 223.798
43.20000 216.869
43.24000 222.893
43.28000 215.385
43.32000 218.309
43.36000 210.955
43.40000 224.992
43.44000 224.171
43.48000 225.129
43.52000 220.106
43.56000 214.950
43.60000 209.019
43.64000 219.564
43.68000 219.508
43.72000 216.332
43.76000 213.668
43.80000 205.088
43.84000 226.164
43.88000 224.875
43.92000 218.919
43.96000 223.479
44.00000 209.896
44.04000 211.906
44.08000 221.407
44.12000 217.610
44.16000 211.950
44.20000 210.397
44.24000 215.446
44.28000 211.799
44.32000 214.040
44.36000 219.365
44.40000 212.063
44.44000 225.716
44.48000 215.444
44.52000 225.307
44.56000 217.598
44.60000 218.903
44.64000 229.427
44.68000 225.213
44.72000 230.917
44.76000 217.961
44.80000 222.203
44.84000 223.732
44.88000 228.637
44.92000 239.859
44.96000 239.645
45.00000 237.978
45.04000 250.867
45.08000 247.590
45.12000 244.792
45.16000 241.700
45.20000 254.342
45.24000 251.139
45.28000 266.858
45.32000 244.686
45.36000 249.752
45.40000 241.682
45.44000 250.612
45.48000 251.914
45.52000 246.475
45.56000 253.834
45.60000 261.145
45.64000 245.258
45.68000 243.651
45.72000 238.149
45.76000 238.207
45.80000 226.646
45.84000 225.607
45.88000 211.896
45.92000 227.305
45.96000 214.007
46.00000 220.466
46.04000 215.527
46.08000 217.515
46.12000 214.780
46.16000 218.446
46.20000 205.299
46.24000 199.507
46.28000 196.320
46.32000 218.465
46.36000 202.651
46.40000 206.669
46.44000 204.800
46.48000 201.892
46.52000 191.479
46.56000 196.257
46.60000 189.217
46.64000 199.722
46.68000 201.516
46.72000 200.788
46.76000 198.098
46.80000 197.583
46.84000 203.974
46.88000 205.285
46.92000 201.061
46.96000 192.743
47.00000 188.918
47.04000 194.406
47.08000 195.212
47.12000 188.827
47.16000 201.662
47.20000 202.184
47.24000 195.768
47.28000 192.589
47.32000 185.376
47.36000 175.751
47.40000 194.570
47.44000 179.606
47.48000 173.510
47.52000 195.204
47.56000 192.379
47.60000 194.523
47.64000 191.790
47.68000 180.841
47.72000 178.182
47.76000 186.981
47.80000 183.206
47.84000 191.182
47.88000 179.689
47.92000 185.396
47.96000 178.476
48.00000 190.699
48.04000 181.971
48.08000 181.523
48.12000 180.518
48.16000 187.250
48.20000 188.421
48.24000 186.017
48.28000 185.341
48.32000 191.464
48.36000 193.393
48.40000 175.019
48.44000 176.044
48.48000 187.615
48.52000 180.652
48.56000 176.980
48.60000 174.365
48.64000 171.963
48.68000 171.682
48.72000 181.926
48.76000 183.373
48.80000 171.553
48.84000 171.468
48.88000 181.805
48.92000 190.025
48.96000 187.255
49.00000 185.450
49.04000 168.319
49.08000 177.798
49.12000 173.913
49.16000 181.438
49.20000 179.801
49.24000 176.213
49.28000 178.789
49.32000 175.572
49.36000 170.454
49.40000 168.794
49.44000 182.428
49.48000 182.507
49.52000 173.660
49.56000 173.367
49.60000 172.466
49.64000 180.155
49.68000 179.244
49.72000 181.134
49.76000 175.139
49.80000 166.109
49.84000 182.045
49.88000 177.112
49.92000 173.976
49.96000 180.048
50.00000 167.098
50.04000 173.259
50.08000 171.314
50.12000 171.269
50.16000 179.312
50.20000 179.026
50.24000 179.637
50.28000 180.475
50.32000 164.985
50.36000 177.852
50.40000 172.005
50.44000 173.536
50.48000 174.877
50.52000 176.578
50.56000 175.766
50.60000 179.968
50.64000 185.268
50.68000 187.324
50.72000 187.033
50.76000 184.054
50.80000 196.246
50.84000 195.851
50.88000 172.013
50.92000 179.582
50.96000 180.021
51.00000 172.064
51.04000 188.571
51.08000 177.901
51.12000 170.137
51.16000 173.385
51.20000 181.961
51.24000 169.474
51.28000 159.178
51.32000 174.618
51.36000 172.989
51.40000 167.917
51.44000 162.258
51.48000 164.506
51.52000 167.731
51.56000 165.619
51.60000 169.247
51.64000 152.461
51.68000 164.545
51.72000 164.863
51.76000 161.332
51.80000 177.885
51.84000 168.253
51.88000 164.538
51.92000 158.357
51.96000 159.885
52.00000 170.220
52.04000 154.911
52.08000 154.986
52.12000 165.087
52.16000 163.896
52.20000 163.033
52.24000 158.226
52.28000 157.052
52.32000 156.631
52.36000 165.545
52.40000 161.212
52.44000 160.645
52.48000 152.893
52.52000 156.128
52.56000 158.450
52.60000 153.424
52.64000 151.838
52.68000 153.231
52.72000 149.025
52.76000 144.387
52.80000 162.502
52.84000 159.399
52.88000 158.462
52.92000 159.960
52.96000 160.185
53.00000 167.798
53.04000 154.043
53.08000 154.210
53.12000 161.501
53.16000 148.959
53.20000 149.467
53.24000 145.460
53.28000 165.103
53.32000 154.433
53.36000 166.811
53.40000 156.319
53.44000 157.865
53.48000 149.930
53.52000 165.914
53.56000 158.057
53.60000 158.624
53.64000 148.245
53.68000 152.964
53.72000 157.636
53.76000 153.666
53.80000 152.803
53.84000 154.028
53.88000 153.132
53.92000 155.267
53.96000 153.074
54.00000 153.705
54.04000 143.228
54.08000 141.681
54.12000 160.900
54.16000 158.185
54.20000 141.570
54.24000 152.285
54.28000 152.696
54.32000 161.271
54.36000 157.367
54.40000 145.878
54.44000 147.715
54.48000 153.335
54.52000 146.401
54.56000 148.679
54.60000 143.936
54.64000 145.575
54.68000 155.917
54.72000 154.860
54.76000 156.496
54.80000 152.946
54.84000 145.808
54.88000 146.972
54.92000 158.366
54.96000 145.521
55.00000 146.290
55.04000 145.189
55.08000 155.770
55.12000 158.784
55.16000 152.333
55.20000 160.263
55.24000 154.555
55.28000 161.953
55.32000 164.474
55.36000 165.484
55.40000 170.188
55.44000 171.301
55.48000 175.372
55.52000 174.065
55.56000 190.279
55.60000 196.653
55.64000 206.909
55.68000 226.249
55.72000 273.114
55.76000 271.558
55.80000 315.212
55.84000 357.493
55.88000 380.529
55.92000 409.587
55.96000 418.495
56.00000 421.046
56.04000 410.726
56.08000 379.109
56.12000 357.503
56.16000 321.286
56.20000 296.050
56.24000 277.243
56.28000 250.003
56.32000 214.795
56.36000 209.806
56.40000 195.025
56.44000 192.213
56.48000 175.041
56.52000 163.880
56.56000 162.982
56.60000 161.621
56.64000 150.551
56.68000 158.679
56.72000 156.499
56.76000 159.656
56.80000 152.340
56.84000 148.903
56.88000 153.677
56.92000 149.530
56.96000 153.194
57.00000 147.651
57.04000 147.944
57.08000 140.463
57.12000 134.980
57.16000 146.914
57.20000 131.023
57.24000 148.180
57.28000 142.870
57.32000 147.688
57.36000 136.528
57.40000 147.088
57.44000 148.208
57.48000 139.801
57.52000 132.633
57.56000 140.138
57.60000 142.175
57.64000 133.344
57.68000 135.954
57.72000 143.831
57.76000 138.652
57.80000 139.660
57.84000 143.637
57.88000 135.837
57.92000 138.165
57.96000 139.848
58.00000 127.714
58.04000 143.897
58.08000 139.270
58.12000 137.567
58.16000 139.454
58.20000 144.411
58.24000 144.555
58.28000 136.857
58.32000 136.535
58.36000 139.326
58.40000 143.531
58.44000 134.856
58.48000 128.197
58.52000 134.825
58.56000 135.698
58.60000 139.774
58.64000 126.597
58.68000 132.993
58.72000 128.782
58.76000 136.634
58.80000 135.595
58.84000 128.704
58.88000 144.717
58.92000 137.706
58.96000 131.278
59.00000 133.222
59.04000 134.627
59.08000 125.054
59.12000 137.070
59.16000 141.829
59.20000 128.336
59.24000 130.374
59.28000 129.028
59.32000 131.597
59.36000 126.698
59.40000 131.160
59.44000 133.761
59.48000 122.059
59.52000 127.596
59.56000 140.825
59.60000 132.606
59.64000 129.546
59.68000 132.305
59.72000 136.249
59.76000 134.483
59.80000 134.017
59.84000 127.510
59.88000 149.175
59.92000 126.676
59.96000 137.942
60.00000 132.111
60.04000 126.263
60.08000 133.378
60.12000 131.611
60.16000 135.755
60.20000 132.145
60.24000 142.780
60.28000 134.974
60.32000 129.513
60.36000 137.359
60.40000 129.283
60.44000 134.286
60.48000 137.607
60.52000 127.886
60.56000 136.183
60.60000 129.495
60.64000 126.607
60.68000 125.533
60.72000 129.690
60.76000 142.539
60.80000 133.125
60.84000 124.115
60.88000 132.385
60.92000 131.496
60.96000 138.227
61.00000 132.533
61.04000 127.996
61.08000 138.424
61.12000 131.119
61.16000 139.969
61.20000 130.132
61.24000 137.444
61.28000 135.772
61.32000 130.202
61.36000 128.747
61.40000 135.643
61.44000 145.166
61.48000 145.329
61.52000 168.899
61.56000 175.127
61.60000 221.903
61.64000 249.761
61.68000 260.586
61.72000 269.781
61.76000 265.851
61.80000 214.847
61.84000 179.559
61.88000 154.927
61.92000 143.738
61.96000 144.277
62.00000 139.157
62.04000 143.656
62.08000 136.222
62.12000 148.190
62.16000 145.935
62.20000 140.647
62.24000 137.074
62.28000 140.504
62.32000 149.652
62.36000 145.531
62.40000 139.130
62.44000 141.415
62.48000 143.067
62.52000 139.383
62.56000 141.615
62.60000 144.577
62.64000 149.196
62.68000 145.043
62.72000 144.120
62.76000 145.185
62.80000 126.525
62.84000 143.110
62.88000 146.563
62.92000 140.878
62.96000 140.090
63.00000 143.254
63.04000 147.087
63.08000 136.758
63.12000 143.130
63.16000 152.330
63.20000 148.450
63.24000 142.715
63.28000 145.745
63.32000 145.849
63.36000 147.319
63.40000 146.771
63.44000 143.387
63.48000 151.386
63.52000 154.101
63.56000 141.782
63.60000 152.580
63.64000 150.983
63.68000 152.080
63.72000 149.714
63.76000 168.182
63.80000 162.668
63.84000 149.372
63.88000 149.452
63.92000 151.071
63.96000 149.974
64.00000 162.286
64.04000 161.173
64.08000 157.963
64.12000 158.551
64.16000 154.668
64.20000 164.387
64.24000 162.589
64.28000 161.732
64.32000 156.544
64.36000 164.968
64.40000 164.951
64.44000 167.003
64.48000 169.878
64.52000 160.655
64.56000 176.945
64.60000 169.016
64.64000 163.184
64.68000 180.318
64.72000 177.937
64.76000 175.515
64.80000 169.985
64.84000 185.322
64.88000 175.940
64.92000 175.733
64.96000 180.837
65.00000 181.675
65.04000 192.512
65.08000 183.679
65.12000 205.263
65.16000 195.685
65.20000 204.197
65.24000 220.731
65.28000 215.331
65.32000 227.615
65.36000 221.779
65.40000 268.523
65.44000 258.035
65.48000 258.227
65.52000 273.797
65.56000 278.456
65.60000 278.581
65.64000 326.547
65.68000 375.779
65.72000 501.543
65.76000 726.042
65.80000 911.977
65.84000 1030.737
65.88000 1046.605
65.92000 1040.336
65.96000 887.832
66.00000 665.168
66.04000 465.575
66.08000 356.224
66.12000 333.876
66.16000 318.866
66.20000 308.738
66.24000 313.508
66.28000 336.287
66.32000 395.572
66.36000 430.757
66.40000 446.976
66.44000 452.869
66.48000 441.313
66.52000 415.870
66.56000 374.637
66.60000 318.127
66.64000 349.986
66.68000 322.638
66.72000 329.816
66.76000 334.891
66.80000 328.998
66.84000 334.808
66.88000 336.326
66.92000 345.016
66.96000 351.078
67.00000 340.496
67.04000 345.559
67.08000 363.108
67.12000 362.440
67.16000 357.382
67.20000 364.756
67.24000 364.404
67.28000 374.570
67.32000 393.736
67.36000 404.711
67.40000 409.489
67.44000 411.456
67.48000 425.796
67.52000 436.151
67.56000 435.158
67.60000 447.065
67.64000 452.342
67.68000 452.355
67.72000 455.932
67.76000 468.162
67.80000 473.503
67.84000 506.479
67.88000 493.972
67.92000 509.089
67.96000 521.719
68.00000 528.253
68.04000 534.287
68.08000 546.096
68.12000 571.338
68.16000 557.613
68.20000 611.184
68.24000 617.475
68.28000 614.197
68.32000 643.995
68.36000 671.290
68.40000 709.381
68.44000 706.370
68.48000 736.195
68.52000 769.277
68.56000 832.027
68.60000 931.274
68.64000 1072.092
68.68000 1280.872
68.72000 1492.423
68.76000 1693.123
68.80000 1904.245
68.84000 2144.912
68.88000 2635.608
68.92000 4055.277
68.96000 9820.078
69.00000 23704.408
69.04000 40683.098
69.08000 50387.512
69.12000 53226.797
69.16000 54925.836
69.20000 56353.895
69.24000 48860.922
69.28000 36745.547
69.32000 29586.037
69.36000 26584.777
69.40000 23015.121
69.44000 14898.635
69.48000 7108.816
69.52000 3147.016
69.56000 1931.665
69.60000 1495.653
69.64000 1236.278
69.68000 1106.331
69.72000 975.780
69.76000 906.081
69.80000 848.235
69.84000 806.422
69.88000 743.613
69.92000 702.260
69.96000 691.655
70.00000 650.021