File: XRD/25-09-2025/XY Data/BTO_Mapping_Theta2Theta_25-09-2025_001_19_-2-091_19-890.xy
20.00000 549.181
20.04000 559.123
20.08000 578.386
20.12000 547.560
20.16000 565.308
20.20000 536.053
20.24000 545.047
20.28000 553.708
20.32000 549.421
20.36000 565.629
20.40000 546.309
20.44000 543.576
20.48000 559.218
20.52000 540.735
20.56000 558.808
20.60000 542.234
20.64000 560.615
20.68000 560.965
20.72000 559.371
20.76000 526.255
20.80000 549.864
20.84000 531.883
20.88000 540.711
20.92000 563.069
20.96000 550.109
21.00000 542.480
21.04000 541.555
21.08000 538.405
21.12000 539.404
21.16000 554.237
21.20000 520.905
21.24000 557.763
21.28000 535.263
21.32000 540.118
21.36000 522.000
21.40000 532.948
21.44000 536.041
21.48000 530.570
21.52000 543.602
21.56000 564.837
21.60000 545.692
21.64000 555.896
21.68000 549.587
21.72000 536.597
21.76000 563.899
21.80000 573.239
21.84000 557.338
21.88000 586.730
21.92000 585.603
21.96000 581.392
22.00000 582.846
22.04000 612.021
22.08000 620.733
22.12000 617.430
22.16000 639.020
22.20000 608.238
22.24000 618.271
22.28000 609.345
22.32000 600.220
22.36000 582.024
22.40000 595.330
22.44000 576.266
22.48000 569.253
22.52000 552.492
22.56000 556.475
22.60000 518.313
22.64000 527.828
22.68000 522.687
22.72000 509.402
22.76000 530.877
22.80000 519.461
22.84000 505.803
22.88000 516.401
22.92000 508.715
22.96000 509.416
23.00000 503.714
23.04000 510.724
23.08000 513.274
23.12000 495.985
23.16000 490.506
23.20000 494.176
23.24000 486.426
23.28000 504.484
23.32000 511.869
23.36000 495.217
23.40000 501.933
23.44000 483.550
23.48000 495.056
23.52000 521.627
23.56000 488.528
23.60000 493.823
23.64000 489.647
23.68000 502.381
23.72000 482.852
23.76000 493.032
23.80000 458.513
23.84000 480.017
23.88000 490.803
23.92000 483.854
23.96000 482.707
24.00000 473.527
24.04000 472.796
24.08000 488.660
24.12000 477.736
24.16000 481.905
24.20000 468.312
24.24000 481.641
24.28000 497.635
24.32000 483.508
24.36000 476.932
24.40000 477.385
24.44000 465.782
24.48000 481.932
24.52000 473.392
24.56000 452.556
24.60000 482.461
24.64000 477.905
24.68000 473.913
24.72000 474.233
24.76000 494.598
24.80000 477.976
24.84000 462.481
24.88000 463.515
24.92000 464.080
24.96000 454.918
25.00000 456.486
25.04000 454.385
25.08000 471.373
25.12000 460.874
25.16000 464.420
25.20000 459.420
25.24000 464.937
25.28000 460.457
25.32000 464.917
25.36000 452.159
25.40000 474.019
25.44000 453.535
25.48000 457.402
25.52000 477.843
25.56000 471.533
25.60000 436.635
25.64000 445.908
25.68000 473.486
25.72000 460.082
25.76000 447.939
25.80000 449.529
25.84000 448.458
25.88000 462.524
25.92000 452.370
25.96000 449.630
26.00000 441.398
26.04000 466.296
26.08000 454.051
26.12000 447.889
26.16000 436.970
26.20000 442.130
26.24000 460.080
26.28000 443.354
26.32000 449.741
26.36000 444.828
26.40000 443.875
26.44000 422.414
26.48000 453.200
26.52000 444.091
26.56000 433.598
26.60000 436.176
26.64000 438.473
26.68000 438.399
26.72000 435.065
26.76000 437.425
26.80000 442.191
26.84000 445.225
26.88000 441.990
26.92000 443.583
26.96000 425.905
27.00000 426.540
27.04000 421.850
27.08000 452.907
27.12000 442.810
27.16000 434.177
27.20000 435.027
27.24000 444.404
27.28000 422.573
27.32000 439.427
27.36000 445.422
27.40000 442.063
27.44000 412.490
27.48000 416.533
27.52000 425.644
27.56000 420.263
27.60000 414.888
27.64000 435.969
27.68000 417.529
27.72000 419.607
27.76000 419.013
27.80000 426.780
27.84000 429.517
27.88000 415.254
27.92000 432.434
27.96000 440.664
28.00000 450.001
28.04000 421.734
28.08000 411.221
28.12000 416.127
28.16000 432.145
28.20000 430.168
28.24000 403.790
28.28000 434.564
28.32000 413.222
28.36000 405.143
28.40000 409.458
28.44000 419.021
28.48000 406.766
28.52000 425.259
28.56000 417.915
28.60000 435.260
28.64000 422.545
28.68000 412.090
28.72000 417.462
28.76000 422.668
28.80000 423.738
28.84000 411.983
28.88000 410.787
28.92000 422.015
28.96000 404.219
29.00000 391.201
29.04000 401.473
29.08000 406.448
29.12000 385.819
29.16000 406.766
29.20000 416.808
29.24000 390.334
29.28000 392.181
29.32000 409.516
29.36000 405.210
29.40000 400.886
29.44000 398.448
29.48000 396.449
29.52000 401.674
29.56000 402.869
29.60000 386.213
29.64000 393.102
29.68000 399.902
29.72000 400.856
29.76000 399.162
29.80000 388.363
29.84000 393.165
29.88000 402.839
29.92000 406.818
29.96000 398.562
30.00000 400.706
30.04000 416.402
30.08000 408.288
30.12000 412.587
30.16000 414.529
30.20000 414.016
30.24000 397.674
30.28000 398.551
30.32000 405.005
30.36000 417.460
30.40000 404.702
30.44000 400.692
30.48000 396.320
30.52000 393.707
30.56000 407.798
30.60000 400.080
30.64000 393.762
30.68000 404.508
30.72000 390.457
30.76000 393.267
30.80000 414.730
30.84000 415.902
30.88000 425.471
30.92000 441.362
30.96000 470.808
31.00000 472.174
31.04000 495.521
31.08000 557.578
31.12000 617.303
31.16000 702.100
31.20000 802.266
31.24000 969.364
31.28000 1068.430
31.32000 1234.831
31.36000 1322.198
31.40000 1345.327
31.44000 1297.870
31.48000 1250.375
31.52000 1120.046
31.56000 967.536
31.60000 828.052
31.64000 720.880
31.68000 619.256
31.72000 577.281
31.76000 535.385
31.80000 507.785
31.84000 462.854
31.88000 443.858
31.92000 458.747
31.96000 405.565
32.00000 404.970
32.04000 420.981
32.08000 406.026
32.12000 392.891
32.16000 394.977
32.20000 401.761
32.24000 399.521
32.28000 386.011
32.32000 378.603
32.36000 368.513
32.40000 361.446
32.44000 356.658
32.48000 360.250
32.52000 368.291
32.56000 382.432
32.60000 362.997
32.64000 367.448
32.68000 363.842
32.72000 373.063
32.76000 350.837
32.80000 363.370
32.84000 363.410
32.88000 370.862
32.92000 364.557
32.96000 373.760
33.00000 365.486
33.04000 358.976
33.08000 361.831
33.12000 357.127
33.16000 353.710
33.20000 341.469
33.24000 341.154
33.28000 328.966
33.32000 323.517
33.36000 341.951
33.40000 331.725
33.44000 336.940
33.48000 321.750
33.52000 333.360
33.56000 339.054
33.60000 327.440
33.64000 336.844
33.68000 325.669
33.72000 323.888
33.76000 314.518
33.80000 331.742
33.84000 317.481
33.88000 343.480
33.92000 339.039
33.96000 326.465
34.00000 313.666
34.04000 327.698
34.08000 314.687
34.12000 313.935
34.16000 330.930
34.20000 316.938
34.24000 331.475
34.28000 322.245
34.32000 321.170
34.36000 320.119
34.40000 299.833
34.44000 309.341
34.48000 309.214
34.52000 316.373
34.56000 314.804
34.60000 310.228
34.64000 317.775
34.68000 323.127
34.72000 314.206
34.76000 313.712
34.80000 333.684
34.84000 316.949
34.88000 325.627
34.92000 313.816
34.96000 319.081
35.00000 303.070
35.04000 339.130
35.08000 306.140
35.12000 295.483
35.16000 313.840
35.20000 299.991
35.24000 302.715
35.28000 306.560
35.32000 313.474
35.36000 301.333
35.40000 305.290
35.44000 307.621
35.48000 306.537
35.52000 301.771
35.56000 312.257
35.60000 310.842
35.64000 305.813
35.68000 303.109
35.72000 300.922
35.76000 301.724
35.80000 302.225
35.84000 304.489
35.88000 301.154
35.92000 312.262
35.96000 310.210
36.00000 305.662
36.04000 285.367
36.08000 283.385
36.12000 293.112
36.16000 287.683
36.20000 297.870
36.24000 295.404
36.28000 299.285
36.32000 299.471
36.36000 297.327
36.40000 294.037
36.44000 292.241
36.48000 286.995
36.52000 292.322
36.56000 299.713
36.60000 294.958
36.64000 294.716
36.68000 287.088
36.72000 285.360
36.76000 286.391
36.80000 297.922
36.84000 301.901
36.88000 303.440
36.92000 304.966
36.96000 302.971
37.00000 303.644
37.04000 281.461
37.08000 294.260
37.12000 282.048
37.16000 286.781
37.20000 283.543
37.24000 290.534
37.28000 288.359
37.32000 266.767
37.36000 282.183
37.40000 290.160
37.44000 289.583
37.48000 286.151
37.52000 286.455
37.56000 291.470
37.60000 278.122
37.64000 279.854
37.68000 281.751
37.72000 280.786
37.76000 289.505
37.80000 291.445
37.84000 284.552
37.88000 294.074
37.92000 275.638
37.96000 275.693
38.00000 279.723
38.04000 287.689
38.08000 285.375
38.12000 278.177
38.16000 294.774
38.20000 294.581
38.24000 281.958
38.28000 303.242
38.32000 304.623
38.36000 312.308
38.40000 335.751
38.44000 355.503
38.48000 390.127
38.52000 461.546
38.56000 518.999
38.60000 611.701
38.64000 695.703
38.68000 758.624
38.72000 818.652
38.76000 816.571
38.80000 783.841
38.84000 723.719
38.88000 603.889
38.92000 519.503
38.96000 464.943
39.00000 394.562
39.04000 347.892
39.08000 313.461
39.12000 301.188
39.16000 292.779
39.20000 287.712
39.24000 275.451
39.28000 287.565
39.32000 272.410
39.36000 284.889
39.40000 284.089
39.44000 265.275
39.48000 259.769
39.52000 269.313
39.56000 273.201
39.60000 270.578
39.64000 263.819
39.68000 261.461
39.72000 255.125
39.76000 271.179
39.80000 278.122
39.84000 263.530
39.88000 253.377
39.92000 253.906
39.96000 250.830
40.00000 248.163
40.04000 245.008
40.08000 252.569
40.12000 254.730
40.16000 262.607
40.20000 253.830
40.24000 247.543
40.28000 245.423
40.32000 257.611
40.36000 247.492
40.40000 253.280
40.44000 241.945
40.48000 256.042
40.52000 249.973
40.56000 242.463
40.60000 240.263
40.64000 239.651
40.68000 250.823
40.72000 252.042
40.76000 238.683
40.80000 237.418
40.84000 260.647
40.88000 238.710
40.92000 238.154
40.96000 240.483
41.00000 247.201
41.04000 233.327
41.08000 246.373
41.12000 234.041
41.16000 235.591
41.20000 234.019
41.24000 256.023
41.28000 236.316
41.32000 228.331
41.36000 241.126
41.40000 244.348
41.44000 230.967
41.48000 229.319
41.52000 245.522
41.56000 233.257
41.60000 237.484
41.64000 255.909
41.68000 237.211
41.72000 228.468
41.76000 230.221
41.80000 231.705
41.84000 225.890
41.88000 238.944
41.92000 237.067
41.96000 221.576
42.00000 218.878
42.04000 234.934
42.08000 218.912
42.12000 226.176
42.16000 239.513
42.20000 224.282
42.24000 226.613
42.28000 242.306
42.32000 227.851
42.36000 217.170
42.40000 222.364
42.44000 225.502
42.48000 227.072
42.52000 223.910
42.56000 241.919
42.60000 233.147
42.64000 231.803
42.68000 233.333
42.72000 225.546
42.76000 229.771
42.80000 208.359
42.84000 225.137
42.88000 231.104
42.92000 222.047
42.96000 218.577
43.00000 224.877
43.04000 223.199
43.08000 219.080
43.12000 224.034
43.16000 222.808
43.20000 228.554
43.24000 220.690
43.28000 236.074
43.32000 235.885
43.36000 228.019
43.40000 216.413
43.44000 209.896
43.48000 219.203
43.52000 205.038
43.56000 222.614
43.60000 231.269
43.64000 221.747
43.68000 217.150
43.72000 227.293
43.76000 204.570
43.80000 228.628
43.84000 229.873
43.88000 218.808
43.92000 210.385
43.96000 220.246
44.00000 224.670
44.04000 223.997
44.08000 216.240
44.12000 223.760
44.16000 216.435
44.20000 209.513
44.24000 203.881
44.28000 221.148
44.32000 217.610
44.36000 210.910
44.40000 226.642
44.44000 226.657
44.48000 218.193
44.52000 222.402
44.56000 217.599
44.60000 213.156
44.64000 225.057
44.68000 230.860
44.72000 219.773
44.76000 227.382
44.80000 229.307
44.84000 237.934
44.88000 253.056
44.92000 240.021
44.96000 240.903
45.00000 247.287
45.04000 256.317
45.08000 268.231
45.12000 270.158
45.16000 261.354
45.20000 265.181
45.24000 268.918
45.28000 252.240
45.32000 261.238
45.36000 258.083
45.40000 260.483
45.44000 264.502
45.48000 271.846
45.52000 261.356
45.56000 250.188
45.60000 244.086
45.64000 238.196
45.68000 249.256
45.72000 222.573
45.76000 230.803
45.80000 235.511
45.84000 221.170
45.88000 232.750
45.92000 231.194
45.96000 225.144
46.00000 229.025
46.04000 229.536
46.08000 210.184
46.12000 204.440
46.16000 213.528
46.20000 215.645
46.24000 210.423
46.28000 206.841
46.32000 199.133
46.36000 196.804
46.40000 202.003
46.44000 201.266
46.48000 198.083
46.52000 196.672
46.56000 186.405
46.60000 206.642
46.64000 206.448
46.68000 198.634
46.72000 194.134
46.76000 192.869
46.80000 210.695
46.84000 198.494
46.88000 195.696
46.92000 196.772
46.96000 196.695
47.00000 187.102
47.04000 187.935
47.08000 194.039
47.12000 195.384
47.16000 186.667
47.20000 191.980
47.24000 186.834
47.28000 187.546
47.32000 188.929
47.36000 187.851
47.40000 193.215
47.44000 175.826
47.48000 186.633
47.52000 190.771
47.56000 203.122
47.60000 184.726
47.64000 185.026
47.68000 183.636
47.72000 192.827
47.76000 177.032
47.80000 196.484
47.84000 195.812
47.88000 180.095
47.92000 190.154
47.96000 180.853
48.00000 184.216
48.04000 181.473
48.08000 165.045
48.12000 169.132
48.16000 172.311
48.20000 186.937
48.24000 182.340
48.28000 183.140
48.32000 178.263
48.36000 191.187
48.40000 177.205
48.44000 182.645
48.48000 178.282
48.52000 183.774
48.56000 182.275
48.60000 187.974
48.64000 174.947
48.68000 184.873
48.72000 180.517
48.76000 178.779
48.80000 174.983
48.84000 176.664
48.88000 177.899
48.92000 179.938
48.96000 175.256
49.00000 176.592
49.04000 168.927
49.08000 184.844
49.12000 184.954
49.16000 173.041
49.20000 176.642
49.24000 176.104
49.28000 171.362
49.32000 177.828
49.36000 170.437
49.40000 184.150
49.44000 183.527
49.48000 183.271
49.52000 162.049
49.56000 185.689
49.60000 170.472
49.64000 177.846
49.68000 181.403
49.72000 175.043
49.76000 161.688
49.80000 159.161
49.84000 164.258
49.88000 177.330
49.92000 166.394
49.96000 158.486
50.00000 174.791
50.04000 165.932
50.08000 164.874
50.12000 170.452
50.16000 180.209
50.20000 178.262
50.24000 179.216
50.28000 172.327
50.32000 173.043
50.36000 166.297
50.40000 187.083
50.44000 186.665
50.48000 178.310
50.52000 188.802
50.56000 192.511
50.60000 191.923
50.64000 184.418
50.68000 198.494
50.72000 206.525
50.76000 201.020
50.80000 199.187
50.84000 193.215
50.88000 194.119
50.92000 185.736
50.96000 190.070
51.00000 185.091
51.04000 183.644
51.08000 181.592
51.12000 172.680
51.16000 166.587
51.20000 172.252
51.24000 171.281
51.28000 174.833
51.32000 171.455
51.36000 158.442
51.40000 167.700
51.44000 162.800
51.48000 160.806
51.52000 165.543
51.56000 165.204
51.60000 167.157
51.64000 159.435
51.68000 154.306
51.72000 171.606
51.76000 168.275
51.80000 157.773
51.84000 159.391
51.88000 160.305
51.92000 150.393
51.96000 149.708
52.00000 161.792
52.04000 157.042
52.08000 153.425
52.12000 172.894
52.16000 157.856
52.20000 167.440
52.24000 160.912
52.28000 155.304
52.32000 156.555
52.36000 157.320
52.40000 159.467
52.44000 160.729
52.48000 157.230
52.52000 157.385
52.56000 156.967
52.60000 156.105
52.64000 162.095
52.68000 152.987
52.72000 155.032
52.76000 154.526
52.80000 153.823
52.84000 166.088
52.88000 155.980
52.92000 149.624
52.96000 158.897
53.00000 150.066
53.04000 144.157
53.08000 160.016
53.12000 159.419
53.16000 141.530
53.20000 145.678
53.24000 137.333
53.28000 161.533
53.32000 157.573
53.36000 150.682
53.40000 169.359
53.44000 164.158
53.48000 148.890
53.52000 163.440
53.56000 147.728
53.60000 150.744
53.64000 146.612
53.68000 148.130
53.72000 156.523
53.76000 145.234
53.80000 152.499
53.84000 156.753
53.88000 153.280
53.92000 142.618
53.96000 148.390
54.00000 158.594
54.04000 152.419
54.08000 151.360
54.12000 154.877
54.16000 155.023
54.20000 151.774
54.24000 149.859
54.28000 150.286
54.32000 152.431
54.36000 145.739
54.40000 152.345
54.44000 160.128
54.48000 147.672
54.52000 145.900
54.56000 141.041
54.60000 155.540
54.64000 150.227
54.68000 150.859
54.72000 152.376
54.76000 154.625
54.80000 146.364
54.84000 143.237
54.88000 151.876
54.92000 151.201
54.96000 154.661
55.00000 154.952
55.04000 155.655
55.08000 157.791
55.12000 157.031
55.16000 152.620
55.20000 146.203
55.24000 156.924
55.28000 161.938
55.32000 158.599
55.36000 161.111
55.40000 173.266
55.44000 168.392
55.48000 166.571
55.52000 191.881
55.56000 204.032
55.60000 211.222
55.64000 226.839
55.68000 257.215
55.72000 301.533
55.76000 315.714
55.80000 350.351
55.84000 381.874
55.88000 424.141
55.92000 434.041
55.96000 454.593
56.00000 459.915
56.04000 453.609
56.08000 436.765
56.12000 396.403
56.16000 397.355
56.20000 331.456
56.24000 308.429
56.28000 283.008
56.32000 238.829
56.36000 228.421
56.40000 216.409
56.44000 203.271
56.48000 194.476
56.52000 175.476
56.56000 165.116
56.60000 167.280
56.64000 153.154
56.68000 152.712
56.72000 150.436
56.76000 157.503
56.80000 160.813
56.84000 150.378
56.88000 139.953
56.92000 158.316
56.96000 150.700
57.00000 143.377
57.04000 143.398
57.08000 140.142
57.12000 132.159
57.16000 138.162
57.20000 152.498
57.24000 136.942
57.28000 136.635
57.32000 148.836
57.36000 137.776
57.40000 130.653
57.44000 141.839
57.48000 136.773
57.52000 137.511
57.56000 148.578
57.60000 143.858
57.64000 130.178
57.68000 136.660
57.72000 135.530
57.76000 151.167
57.80000 138.354
57.84000 138.854
57.88000 139.582
57.92000 133.257
57.96000 137.800
58.00000 135.542
58.04000 140.260
58.08000 139.518
58.12000 145.432
58.16000 133.317
58.20000 132.077
58.24000 142.813
58.28000 136.140
58.32000 143.736
58.36000 133.014
58.40000 134.546
58.44000 141.481
58.48000 135.999
58.52000 126.557
58.56000 126.067
58.60000 124.165
58.64000 127.140
58.68000 136.025
58.72000 131.469
58.76000 129.902
58.80000 143.631
58.84000 131.521
58.88000 131.156
58.92000 139.671
58.96000 142.293
59.00000 128.830
59.04000 135.549
59.08000 129.718
59.12000 131.987
59.16000 135.382
59.20000 139.770
59.24000 130.966
59.28000 139.503
59.32000 126.105
59.36000 137.912
59.40000 135.560
59.44000 123.057
59.48000 136.525
59.52000 130.463
59.56000 127.173
59.60000 127.358
59.64000 133.617
59.68000 127.418
59.72000 129.999
59.76000 125.287
59.80000 136.206
59.84000 128.518
59.88000 129.396
59.92000 121.528
59.96000 131.862
60.00000 124.569
60.04000 121.640
60.08000 137.623
60.12000 134.126
60.16000 130.374
60.20000 139.056
60.24000 136.046
60.28000 135.392
60.32000 134.701
60.36000 141.833
60.40000 136.354
60.44000 134.679
60.48000 124.205
60.52000 130.905
60.56000 131.398
60.60000 135.435
60.64000 131.750
60.68000 132.112
60.72000 121.300
60.76000 137.485
60.80000 134.900
60.84000 133.869
60.88000 123.245
60.92000 132.266
60.96000 133.802
61.00000 131.277
61.04000 134.467
61.08000 140.193
61.12000 136.126
61.16000 134.926
61.20000 144.978
61.24000 131.294
61.28000 132.707
61.32000 132.080
61.36000 121.380
61.40000 130.384
61.44000 136.270
61.48000 142.167
61.52000 173.247
61.56000 201.511
61.60000 226.926
61.64000 264.693
61.68000 257.539
61.72000 271.193
61.76000 253.266
61.80000 218.472
61.84000 172.163
61.88000 154.964
61.92000 140.202
61.96000 130.621
62.00000 143.232
62.04000 140.346
62.08000 146.672
62.12000 141.591
62.16000 142.896
62.20000 150.253
62.24000 136.376
62.28000 131.845
62.32000 130.956
62.36000 140.430
62.40000 143.663
62.44000 135.294
62.48000 131.905
62.52000 147.414
62.56000 149.739
62.60000 143.854
62.64000 135.743
62.68000 146.018
62.72000 140.180
62.76000 138.032
62.80000 138.116
62.84000 138.760
62.88000 145.667
62.92000 145.387
62.96000 147.172
63.00000 149.371
63.04000 147.243
63.08000 148.172
63.12000 145.215
63.16000 139.616
63.20000 150.159
63.24000 147.329
63.28000 132.189
63.32000 135.609
63.36000 153.434
63.40000 134.496
63.44000 144.827
63.48000 142.470
63.52000 152.913
63.56000 153.718
63.60000 147.285
63.64000 153.478
63.68000 158.629
63.72000 148.487
63.76000 152.296
63.80000 149.485
63.84000 149.179
63.88000 164.792
63.92000 153.289
63.96000 158.109
64.00000 160.930
64.04000 160.025
64.08000 161.473
64.12000 150.337
64.16000 155.218
64.20000 160.636
64.24000 162.137
64.28000 161.093
64.32000 160.200
64.36000 164.484
64.40000 164.236
64.44000 165.760
64.48000 160.577
64.52000 171.868
64.56000 166.970
64.60000 174.199
64.64000 166.718
64.68000 179.157
64.72000 171.046
64.76000 169.547
64.80000 175.446
64.84000 173.861
64.88000 183.187
64.92000 185.876
64.96000 176.174
65.00000 188.184
65.04000 183.263
65.08000 206.544
65.12000 202.447
65.16000 195.713
65.20000 203.261
65.24000 206.288
65.28000 216.490
65.32000 228.790
65.36000 231.431
65.40000 248.625
65.44000 260.666
65.48000 243.362
65.52000 257.728
65.56000 277.796
65.60000 287.024
65.64000 340.418
65.68000 384.228
65.72000 552.247
65.76000 728.673
65.80000 977.059
65.84000 1031.319
65.88000 1065.387
65.92000 1022.203
65.96000 860.369
66.00000 637.298
66.04000 449.992
66.08000 350.014
66.12000 315.935
66.16000 298.071
66.20000 293.857
66.24000 320.037
66.28000 342.202
66.32000 391.116
66.36000 401.920
66.40000 424.795
66.44000 439.479
66.48000 433.157
66.52000 411.030
66.56000 375.699
66.60000 321.194
66.64000 320.190
66.68000 320.754
66.72000 317.260
66.76000 316.087
66.80000 314.150
66.84000 320.376
66.88000 333.056
66.92000 313.188
66.96000 337.821
67.00000 336.036
67.04000 346.665
67.08000 352.491
67.12000 366.635
67.16000 370.837
67.20000 362.072
67.24000 383.950
67.28000 385.418
67.32000 391.690
67.36000 394.308
67.40000 400.140
67.44000 408.385
67.48000 427.914
67.52000 418.580
67.56000 454.546
67.60000 441.027
67.64000 441.440
67.68000 460.391
67.72000 458.971
67.76000 496.473
67.80000 483.475
67.84000 506.927
67.88000 511.200
67.92000 511.116
67.96000 530.872
68.00000 541.545
68.04000 534.478
68.08000 548.209
68.12000 560.809
68.16000 565.889
68.20000 592.242
68.24000 612.949
68.28000 621.483
68.32000 639.995
68.36000 657.102
68.40000 703.812
68.44000 734.393
68.48000 770.755
68.52000 816.570
68.56000 874.290
68.60000 933.403
68.64000 1111.134
68.68000 1316.125
68.72000 1524.537
68.76000 1743.065
68.80000 2035.936
68.84000 2338.685
68.88000 2860.386
68.92000 4737.081
68.96000 11861.562
69.00000 27245.842
69.04000 43587.020
69.08000 52255.512
69.12000 53906.602
69.16000 56221.781
69.20000 56652.875
69.24000 47041.461
69.28000 35800.453
69.32000 29182.916
69.36000 26512.400
69.40000 22133.676
69.44000 13549.370
69.48000 6392.171
69.52000 2900.546
69.56000 1865.509
69.60000 1480.006
69.64000 1218.505
69.68000 1110.516
69.72000 990.043
69.76000 907.377
69.80000 834.928
69.84000 765.182
69.88000 746.509
69.92000 707.464
69.96000 681.109
70.00000 684.245