File: XRD/25-09-2025/XY Data/BTO_Mapping_Theta2Theta_25-09-2025_001_12_20-074_22-294.xy
20.00000 570.295
20.04000 573.612
20.08000 568.582
20.12000 554.777
20.16000 541.837
20.20000 549.213
20.24000 529.055
20.28000 527.692
20.32000 559.646
20.36000 548.132
20.40000 520.544
20.44000 545.733
20.48000 559.185
20.52000 570.227
20.56000 552.950
20.60000 535.197
20.64000 548.679
20.68000 526.592
20.72000 560.679
20.76000 530.455
20.80000 548.203
20.84000 563.486
20.88000 532.204
20.92000 539.010
20.96000 542.991
21.00000 550.927
21.04000 539.549
21.08000 546.473
21.12000 542.220
21.16000 531.035
21.20000 537.588
21.24000 533.246
21.28000 525.109
21.32000 525.492
21.36000 538.131
21.40000 554.637
21.44000 538.887
21.48000 535.234
21.52000 526.616
21.56000 530.388
21.60000 538.653
21.64000 558.659
21.68000 536.287
21.72000 551.922
21.76000 532.086
21.80000 558.020
21.84000 545.814
21.88000 529.623
21.92000 558.103
21.96000 582.344
22.00000 562.146
22.04000 569.027
22.08000 580.298
22.12000 597.254
22.16000 588.870
22.20000 591.539
22.24000 598.419
22.28000 598.588
22.32000 608.002
22.36000 574.067
22.40000 585.036
22.44000 549.165
22.48000 535.059
22.52000 554.233
22.56000 547.184
22.60000 511.362
22.64000 534.079
22.68000 550.157
22.72000 527.929
22.76000 532.342
22.80000 515.055
22.84000 521.790
22.88000 537.675
22.92000 517.034
22.96000 501.767
23.00000 494.314
23.04000 498.127
23.08000 500.707
23.12000 516.473
23.16000 506.690
23.20000 500.417
23.24000 500.585
23.28000 509.806
23.32000 500.742
23.36000 493.169
23.40000 489.244
23.44000 505.697
23.48000 496.017
23.52000 472.846
23.56000 509.698
23.60000 488.604
23.64000 478.250
23.68000 483.529
23.72000 510.864
23.76000 499.758
23.80000 498.274
23.84000 490.385
23.88000 500.020
23.92000 487.897
23.96000 490.703
24.00000 480.564
24.04000 475.655
24.08000 494.834
24.12000 487.131
24.16000 490.701
24.20000 487.485
24.24000 482.516
24.28000 489.367
24.32000 487.957
24.36000 489.028
24.40000 488.087
24.44000 490.695
24.48000 484.860
24.52000 482.060
24.56000 484.079
24.60000 495.196
24.64000 481.507
24.68000 478.873
24.72000 494.642
24.76000 466.483
24.80000 463.975
24.84000 478.365
24.88000 460.581
24.92000 466.655
24.96000 479.640
25.00000 465.805
25.04000 459.414
25.08000 458.708
25.12000 453.551
25.16000 451.917
25.20000 474.167
25.24000 493.256
25.28000 490.671
25.32000 471.002
25.36000 453.776
25.40000 453.972
25.44000 469.071
25.48000 455.191
25.52000 453.852
25.56000 457.568
25.60000 457.676
25.64000 476.935
25.68000 456.933
25.72000 435.673
25.76000 462.331
25.80000 463.822
25.84000 462.814
25.88000 447.142
25.92000 454.053
25.96000 443.276
26.00000 446.618
26.04000 465.925
26.08000 462.690
26.12000 453.913
26.16000 462.684
26.20000 443.235
26.24000 442.818
26.28000 453.056
26.32000 439.809
26.36000 461.114
26.40000 457.731
26.44000 440.100
26.48000 440.341
26.52000 441.661
26.56000 447.061
26.60000 437.030
26.64000 436.348
26.68000 439.947
26.72000 439.904
26.76000 441.110
26.80000 447.977
26.84000 450.864
26.88000 423.769
26.92000 439.751
26.96000 424.837
27.00000 433.027
27.04000 431.527
27.08000 424.667
27.12000 434.939
27.16000 433.474
27.20000 443.220
27.24000 454.345
27.28000 442.317
27.32000 420.393
27.36000 423.190
27.40000 436.405
27.44000 443.845
27.48000 440.841
27.52000 438.326
27.56000 435.616
27.60000 421.916
27.64000 426.916
27.68000 409.050
27.72000 429.647
27.76000 420.501
27.80000 421.599
27.84000 418.627
27.88000 421.977
27.92000 412.144
27.96000 410.439
28.00000 428.707
28.04000 417.626
28.08000 431.142
28.12000 420.535
28.16000 423.642
28.20000 412.528
28.24000 412.266
28.28000 413.575
28.32000 405.887
28.36000 422.502
28.40000 415.037
28.44000 414.458
28.48000 402.040
28.52000 420.928
28.56000 413.707
28.60000 414.284
28.64000 406.107
28.68000 408.429
28.72000 412.285
28.76000 416.353
28.80000 429.120
28.84000 418.867
28.88000 413.921
28.92000 421.552
28.96000 400.055
29.00000 405.250
29.04000 416.402
29.08000 418.111
29.12000 429.469
29.16000 397.521
29.20000 402.469
29.24000 418.276
29.28000 404.292
29.32000 406.212
29.36000 407.296
29.40000 402.773
29.44000 392.363
29.48000 408.764
29.52000 418.235
29.56000 396.101
29.60000 414.627
29.64000 430.327
29.68000 414.481
29.72000 404.177
29.76000 421.345
29.80000 399.439
29.84000 397.218
29.88000 407.296
29.92000 401.969
29.96000 411.737
30.00000 410.407
30.04000 413.268
30.08000 417.609
30.12000 406.390
30.16000 409.937
30.20000 424.347
30.24000 401.249
30.28000 405.872
30.32000 415.624
30.36000 409.509
30.40000 405.747
30.44000 414.928
30.48000 408.639
30.52000 397.026
30.56000 403.784
30.60000 428.714
30.64000 422.069
30.68000 424.938
30.72000 420.673
30.76000 415.603
30.80000 435.221
30.84000 435.018
30.88000 441.497
30.92000 438.594
30.96000 470.744
31.00000 502.175
31.04000 533.708
31.08000 574.343
31.12000 592.886
31.16000 701.642
31.20000 797.528
31.24000 952.524
31.28000 1044.591
31.32000 1197.338
31.36000 1277.766
31.40000 1336.283
31.44000 1326.773
31.48000 1254.686
31.52000 1171.358
31.56000 1032.255
31.60000 901.761
31.64000 807.076
31.68000 691.669
31.72000 611.776
31.76000 565.325
31.80000 525.016
31.84000 498.924
31.88000 467.315
31.92000 445.387
31.96000 445.935
32.00000 438.400
32.04000 432.115
32.08000 420.986
32.12000 416.482
32.16000 409.194
32.20000 404.029
32.24000 399.250
32.28000 396.099
32.32000 378.729
32.36000 384.691
32.40000 380.492
32.44000 381.266
32.48000 385.701
32.52000 369.162
32.56000 374.252
32.60000 365.743
32.64000 372.407
32.68000 385.404
32.72000 371.824
32.76000 372.356
32.80000 356.916
32.84000 378.575
32.88000 369.806
32.92000 377.369
32.96000 377.092
33.00000 361.619
33.04000 374.277
33.08000 351.474
33.12000 358.446
33.16000 334.682
33.20000 342.846
33.24000 346.230
33.28000 334.576
33.32000 349.020
33.36000 330.362
33.40000 349.623
33.44000 327.052
33.48000 332.969
33.52000 328.474
33.56000 324.468
33.60000 344.071
33.64000 335.897
33.68000 351.291
33.72000 335.526
33.76000 327.364
33.80000 331.391
33.84000 325.391
33.88000 329.283
33.92000 328.837
33.96000 329.157
34.00000 304.228
34.04000 325.774
34.08000 322.738
34.12000 338.459
34.16000 328.224
34.20000 336.506
34.24000 313.686
34.28000 325.408
34.32000 326.978
34.36000 320.941
34.40000 330.495
34.44000 309.263
34.48000 325.512
34.52000 332.520
34.56000 321.352
34.60000 304.023
34.64000 310.485
34.68000 313.033
34.72000 319.330
34.76000 321.127
34.80000 321.974
34.84000 329.135
34.88000 316.985
34.92000 317.353
34.96000 328.900
35.00000 297.613
35.04000 321.882
35.08000 311.697
35.12000 306.385
35.16000 300.331
35.20000 297.822
35.24000 316.789
35.28000 300.822
35.32000 290.539
35.36000 315.678
35.40000 315.510
35.44000 302.984
35.48000 304.746
35.52000 321.149
35.56000 306.021
35.60000 294.637
35.64000 299.433
35.68000 297.725
35.72000 316.360
35.76000 319.939
35.80000 296.640
35.84000 301.786
35.88000 298.993
35.92000 306.660
35.96000 302.152
36.00000 302.162
36.04000 289.435
36.08000 305.068
36.12000 292.448
36.16000 303.223
36.20000 286.965
36.24000 292.897
36.28000 309.191
36.32000 289.352
36.36000 293.319
36.40000 288.227
36.44000 294.938
36.48000 298.683
36.52000 295.122
36.56000 286.297
36.60000 297.939
36.64000 294.207
36.68000 286.361
36.72000 301.604
36.76000 295.816
36.80000 293.922
36.84000 299.724
36.88000 312.373
36.92000 287.417
36.96000 291.028
37.00000 287.537
37.04000 282.682
37.08000 292.839
37.12000 292.080
37.16000 304.861
37.20000 284.622
37.24000 288.650
37.28000 291.336
37.32000 280.850
37.36000 279.110
37.40000 276.677
37.44000 282.551
37.48000 297.275
37.52000 283.923
37.56000 285.367
37.60000 279.736
37.64000 286.183
37.68000 290.956
37.72000 263.720
37.76000 279.058
37.80000 289.571
37.84000 277.138
37.88000 281.102
37.92000 289.067
37.96000 298.117
38.00000 271.112
38.04000 285.139
38.08000 281.770
38.12000 271.800
38.16000 284.160
38.20000 278.866
38.24000 293.180
38.28000 302.430
38.32000 290.753
38.36000 305.819
38.40000 316.076
38.44000 349.228
38.48000 371.743
38.52000 419.116
38.56000 479.705
38.60000 530.031
38.64000 594.980
38.68000 662.994
38.72000 666.203
38.76000 649.462
38.80000 610.390
38.84000 545.573
38.88000 500.626
38.92000 421.888
38.96000 362.627
39.00000 331.662
39.04000 318.642
39.08000 310.225
39.12000 297.382
39.16000 278.284
39.20000 275.731
39.24000 272.431
39.28000 272.321
39.32000 274.351
39.36000 274.432
39.40000 279.150
39.44000 271.864
39.48000 270.602
39.52000 279.349
39.56000 261.716
39.60000 273.666
39.64000 256.339
39.68000 266.486
39.72000 256.745
39.76000 265.676
39.80000 276.567
39.84000 262.876
39.88000 273.647
39.92000 260.903
39.96000 263.067
40.00000 266.656
40.04000 253.205
40.08000 241.190
40.12000 264.847
40.16000 271.472
40.20000 270.625
40.24000 260.812
40.28000 260.907
40.32000 258.878
40.36000 243.350
40.40000 249.405
40.44000 253.156
40.48000 254.476
40.52000 274.561
40.56000 260.257
40.60000 248.891
40.64000 240.813
40.68000 253.164
40.72000 232.502
40.76000 253.293
40.80000 255.067
40.84000 246.839
40.88000 250.495
40.92000 224.428
40.96000 240.602
41.00000 238.852
41.04000 238.741
41.08000 239.102
41.12000 239.606
41.16000 236.967
41.20000 248.596
41.24000 251.184
41.28000 234.823
41.32000 239.062
41.36000 236.612
41.40000 244.352
41.44000 234.475
41.48000 231.406
41.52000 245.501
41.56000 239.565
41.60000 229.383
41.64000 229.530
41.68000 223.818
41.72000 237.757
41.76000 242.118
41.80000 236.704
41.84000 246.028
41.88000 223.293
41.92000 228.399
41.96000 232.240
42.00000 236.542
42.04000 229.257
42.08000 242.869
42.12000 235.982
42.16000 244.302
42.20000 233.485
42.24000 237.046
42.28000 236.934
42.32000 223.126
42.36000 232.904
42.40000 229.230
42.44000 228.656
42.48000 234.705
42.52000 221.129
42.56000 220.704
42.60000 226.385
42.64000 238.446
42.68000 232.825
42.72000 233.200
42.76000 236.698
42.80000 211.847
42.84000 225.556
42.88000 225.121
42.92000 229.075
42.96000 231.999
43.00000 233.176
43.04000 217.696
43.08000 231.781
43.12000 225.614
43.16000 215.177
43.20000 209.239
43.24000 210.000
43.28000 227.467
43.32000 223.253
43.36000 209.612
43.40000 209.545
43.44000 224.230
43.48000 216.783
43.52000 219.170
43.56000 224.950
43.60000 238.381
43.64000 221.438
43.68000 216.145
43.72000 213.337
43.76000 221.688
43.80000 227.210
43.84000 234.602
43.88000 223.842
43.92000 218.356
43.96000 225.774
44.00000 216.884
44.04000 215.318
44.08000 208.329
44.12000 209.421
44.16000 218.021
44.20000 214.729
44.24000 206.143
44.28000 216.921
44.32000 215.999
44.36000 199.736
44.40000 222.351
44.44000 221.151
44.48000 221.121
44.52000 219.395
44.56000 209.627
44.60000 217.176
44.64000 212.040
44.68000 223.806
44.72000 233.824
44.76000 225.439
44.80000 233.325
44.84000 247.423
44.88000 206.758
44.92000 226.264
44.96000 237.842
45.00000 236.504
45.04000 243.724
45.08000 238.587
45.12000 246.116
45.16000 246.099
45.20000 252.207
45.24000 255.943
45.28000 257.817
45.32000 255.652
45.36000 254.113
45.40000 252.905
45.44000 247.665
45.48000 253.745
45.52000 245.863
45.56000 252.629
45.60000 240.207
45.64000 247.053
45.68000 232.463
45.72000 233.044
45.76000 231.906
45.80000 240.435
45.84000 221.193
45.88000 228.012
45.92000 211.457
45.96000 223.148
46.00000 206.380
46.04000 219.029
46.08000 214.166
46.12000 204.972
46.16000 198.933
46.20000 210.926
46.24000 205.011
46.28000 199.568
46.32000 185.021
46.36000 190.684
46.40000 203.009
46.44000 190.641
46.48000 191.831
46.52000 198.657
46.56000 208.138
46.60000 201.585
46.64000 204.875
46.68000 205.298
46.72000 197.511
46.76000 196.004
46.80000 210.288
46.84000 180.784
46.88000 210.010
46.92000 202.732
46.96000 204.102
47.00000 184.269
47.04000 200.416
47.08000 197.882
47.12000 188.146
47.16000 184.353
47.20000 198.500
47.24000 196.155
47.28000 182.899
47.32000 187.858
47.36000 185.122
47.40000 196.690
47.44000 189.248
47.48000 197.225
47.52000 192.892
47.56000 186.824
47.60000 186.236
47.64000 175.253
47.68000 176.955
47.72000 180.762
47.76000 177.808
47.80000 191.546
47.84000 172.867
47.88000 191.911
47.92000 180.911
47.96000 191.228
48.00000 181.341
48.04000 175.825
48.08000 185.776
48.12000 191.612
48.16000 175.958
48.20000 183.925
48.24000 185.833
48.28000 177.964
48.32000 181.010
48.36000 170.079
48.40000 180.957
48.44000 178.778
48.48000 187.048
48.52000 182.219
48.56000 182.483
48.60000 176.595
48.64000 176.402
48.68000 169.397
48.72000 173.118
48.76000 190.750
48.80000 186.135
48.84000 172.627
48.88000 168.162
48.92000 182.040
48.96000 172.801
49.00000 183.808
49.04000 183.962
49.08000 167.884
49.12000 181.343
49.16000 175.260
49.20000 179.557
49.24000 187.342
49.28000 174.195
49.32000 187.641
49.36000 177.918
49.40000 172.065
49.44000 175.284
49.48000 164.205
49.52000 167.047
49.56000 177.899
49.60000 166.966
49.64000 168.075
49.68000 170.585
49.72000 166.807
49.76000 176.178
49.80000 182.133
49.84000 166.276
49.88000 173.509
49.92000 174.370
49.96000 173.824
50.00000 170.552
50.04000 170.110
50.08000 172.454
50.12000 175.277
50.16000 172.467
50.20000 169.035
50.24000 169.029
50.28000 171.040
50.32000 185.006
50.36000 170.746
50.40000 175.225
50.44000 166.032
50.48000 172.320
50.52000 185.838
50.56000 185.933
50.60000 183.570
50.64000 171.364
50.68000 176.437
50.72000 187.878
50.76000 191.271
50.80000 176.768
50.84000 184.723
50.88000 178.668
50.92000 186.493
50.96000 183.592
51.00000 178.562
51.04000 180.763
51.08000 173.178
51.12000 174.699
51.16000 178.929
51.20000 168.421
51.24000 169.214
51.28000 168.991
51.32000 169.091
51.36000 165.742
51.40000 158.737
51.44000 168.794
51.48000 165.758
51.52000 163.719
51.56000 168.669
51.60000 163.542
51.64000 160.871
51.68000 165.984
51.72000 154.218
51.76000 166.193
51.80000 158.531
51.84000 157.501
51.88000 159.856
51.92000 171.905
51.96000 155.739
52.00000 169.794
52.04000 157.579
52.08000 161.923
52.12000 163.450
52.16000 167.313
52.20000 156.139
52.24000 149.232
52.28000 153.682
52.32000 166.008
52.36000 158.571
52.40000 165.507
52.44000 152.548
52.48000 171.988
52.52000 169.352
52.56000 153.110
52.60000 168.364
52.64000 157.128
52.68000 163.324
52.72000 158.308
52.76000 158.925
52.80000 156.799
52.84000 165.931
52.88000 157.709
52.92000 163.232
52.96000 150.070
53.00000 151.059
53.04000 153.080
53.08000 152.094
53.12000 151.031
53.16000 145.485
53.20000 144.775
53.24000 153.234
53.28000 157.043
53.32000 160.521
53.36000 153.453
53.40000 152.275
53.44000 154.006
53.48000 156.177
53.52000 152.916
53.56000 158.408
53.60000 162.516
53.64000 163.268
53.68000 143.904
53.72000 159.078
53.76000 154.330
53.80000 148.250
53.84000 152.151
53.88000 147.281
53.92000 159.411
53.96000 155.126
54.00000 163.622
54.04000 159.735
54.08000 137.180
54.12000 150.395
54.16000 140.160
54.20000 140.584
54.24000 150.809
54.28000 146.331
54.32000 155.672
54.36000 151.954
54.40000 153.041
54.44000 150.849
54.48000 141.723
54.52000 148.402
54.56000 152.661
54.60000 140.169
54.64000 155.485
54.68000 152.221
54.72000 149.338
54.76000 153.967
54.80000 146.222
54.84000 139.588
54.88000 144.697
54.92000 158.899
54.96000 161.147
55.00000 154.443
55.04000 153.509
55.08000 151.849
55.12000 152.731
55.16000 162.223
55.20000 156.414
55.24000 158.156
55.28000 162.617
55.32000 168.259
55.36000 167.398
55.40000 167.520
55.44000 166.477
55.48000 169.250
55.52000 195.802
55.56000 183.093
55.60000 194.005
55.64000 220.362
55.68000 227.165
55.72000 259.730
55.76000 251.480
55.80000 267.062
55.84000 310.225
55.88000 324.476
55.92000 349.499
55.96000 328.099
56.00000 336.826
56.04000 323.871
56.08000 315.451
56.12000 294.897
56.16000 268.961
56.20000 242.399
56.24000 230.181
56.28000 231.455
56.32000 206.915
56.36000 202.046
56.40000 190.320
56.44000 172.913
56.48000 182.489
56.52000 171.844
56.56000 179.906
56.60000 165.971
56.64000 154.006
56.68000 159.362
56.72000 149.966
56.76000 146.185
56.80000 149.320
56.84000 143.412
56.88000 155.541
56.92000 145.384
56.96000 137.962
57.00000 149.252
57.04000 141.792
57.08000 147.063
57.12000 140.747
57.16000 141.263
57.20000 147.942
57.24000 139.053
57.28000 135.577
57.32000 144.555
57.36000 146.322
57.40000 144.921
57.44000 149.317
57.48000 143.396
57.52000 150.509
57.56000 135.921
57.60000 137.529
57.64000 138.653
57.68000 137.881
57.72000 137.814
57.76000 146.716
57.80000 147.656
57.84000 147.552
57.88000 139.171
57.92000 134.173
57.96000 141.033
58.00000 142.975
58.04000 141.375
58.08000 130.560
58.12000 137.403
58.16000 143.229
58.20000 132.422
58.24000 136.390
58.28000 137.097
58.32000 133.672
58.36000 138.396
58.40000 136.240
58.44000 136.057
58.48000 134.863
58.52000 138.962
58.56000 142.036
58.60000 140.162
58.64000 137.444
58.68000 148.360
58.72000 132.060
58.76000 151.386
58.80000 140.381
58.84000 132.310
58.88000 128.775
58.92000 141.837
58.96000 131.889
59.00000 135.604
59.04000 132.210
59.08000 128.577
59.12000 138.513
59.16000 132.955
59.20000 128.337
59.24000 129.052
59.28000 142.040
59.32000 141.280
59.36000 137.117
59.40000 141.531
59.44000 140.350
59.48000 133.131
59.52000 132.368
59.56000 135.693
59.60000 137.356
59.64000 136.602
59.68000 136.636
59.72000 128.839
59.76000 125.620
59.80000 140.381
59.84000 137.565
59.88000 135.786
59.92000 128.179
59.96000 136.426
60.00000 135.561
60.04000 135.897
60.08000 142.400
60.12000 138.901
60.16000 129.804
60.20000 132.431
60.24000 128.422
60.28000 130.093
60.32000 129.853
60.36000 138.587
60.40000 135.193
60.44000 122.638
60.48000 124.177
60.52000 125.592
60.56000 134.132
60.60000 138.317
60.64000 124.952
60.68000 128.708
60.72000 135.815
60.76000 129.206
60.80000 133.706
60.84000 123.478
60.88000 128.087
60.92000 129.043
60.96000 137.557
61.00000 134.122
61.04000 143.822
61.08000 137.847
61.12000 142.074
61.16000 133.959
61.20000 131.616
61.24000 136.021
61.28000 139.606
61.32000 134.388
61.36000 137.738
61.40000 145.658
61.44000 132.262
61.48000 145.567
61.52000 163.394
61.56000 195.044
61.60000 226.768
61.64000 258.942
61.68000 275.369
61.72000 269.619
61.76000 252.489
61.80000 220.567
61.84000 174.436
61.88000 159.724
61.92000 142.970
61.96000 142.581
62.00000 135.025
62.04000 141.991
62.08000 134.288
62.12000 148.172
62.16000 133.614
62.20000 139.273
62.24000 137.006
62.28000 134.713
62.32000 138.901
62.36000 149.326
62.40000 138.920
62.44000 133.696
62.48000 139.603
62.52000 134.246
62.56000 136.951
62.60000 146.247
62.64000 143.050
62.68000 147.188
62.72000 134.268
62.76000 142.184
62.80000 159.517
62.84000 153.430
62.88000 139.878
62.92000 144.604
62.96000 142.625
63.00000 138.146
63.04000 150.036
63.08000 141.360
63.12000 143.835
63.16000 141.178
63.20000 149.983
63.24000 148.794
63.28000 139.043
63.32000 156.274
63.36000 156.068
63.40000 144.056
63.44000 150.742
63.48000 150.788
63.52000 160.645
63.56000 154.712
63.60000 149.596
63.64000 146.694
63.68000 144.830
63.72000 140.717
63.76000 153.425
63.80000 154.094
63.84000 148.933
63.88000 143.508
63.92000 155.796
63.96000 162.366
64.00000 161.580
64.04000 153.163
64.08000 152.516
64.12000 156.133
64.16000 153.290
64.20000 160.917
64.24000 160.962
64.28000 165.387
64.32000 170.008
64.36000 166.154
64.40000 162.942
64.44000 184.373
64.48000 164.405
64.52000 163.742
64.56000 184.354
64.60000 172.043
64.64000 167.308
64.68000 170.531
64.72000 172.196
64.76000 156.867
64.80000 183.081
64.84000 174.266
64.88000 186.502
64.92000 176.712
64.96000 172.692
65.00000 186.610
65.04000 180.498
65.08000 207.155
65.12000 202.039
65.16000 206.241
65.20000 203.311
65.24000 213.440
65.28000 217.738
65.32000 235.627
65.36000 225.306
65.40000 226.127
65.44000 244.761
65.48000 252.959
65.52000 283.526
65.56000 289.467
65.60000 317.450
65.64000 331.965
65.68000 382.372
65.72000 495.740
65.76000 708.849
65.80000 894.523
65.84000 1022.187
65.88000 1057.338
65.92000 1055.619
65.96000 934.452
66.00000 659.152
66.04000 465.263
66.08000 372.949
66.12000 327.807
66.16000 309.858
66.20000 310.529
66.24000 314.577
66.28000 345.657
66.32000 386.294
66.36000 421.607
66.40000 442.884
66.44000 473.864
66.48000 438.434
66.52000 420.408
66.56000 378.755
66.60000 335.435
66.64000 324.012
66.68000 324.895
66.72000 321.453
66.76000 330.959
66.80000 320.749
66.84000 331.486
66.88000 334.365
66.92000 354.047
66.96000 366.435
67.00000 352.380
67.04000 365.767
67.08000 368.305
67.12000 359.736
67.16000 363.280
67.20000 380.122
67.24000 364.261
67.28000 398.488
67.32000 406.708
67.36000 396.871
67.40000 409.609
67.44000 404.962
67.48000 420.439
67.52000 436.285
67.56000 423.187
67.60000 439.910
67.64000 449.831
67.68000 451.620
67.72000 451.349
67.76000 465.094
67.80000 478.419
67.84000 497.604
67.88000 503.449
67.92000 501.473
67.96000 541.876
68.00000 515.989
68.04000 532.018
68.08000 559.390
68.12000 565.730
68.16000 576.077
68.20000 593.298
68.24000 594.553
68.28000 645.007
68.32000 642.402
68.36000 645.386
68.40000 677.900
68.44000 727.278
68.48000 782.871
68.52000 819.272
68.56000 876.796
68.60000 965.803
68.64000 1082.352
68.68000 1277.490
68.72000 1453.663
68.76000 1676.580
68.80000 1881.441
68.84000 2154.899
68.88000 2616.120
68.92000 4048.914
68.96000 10056.806
69.00000 24196.990
69.04000 41223.055
69.08000 50945.844
69.12000 53337.875
69.16000 55130.480
69.20000 56646.281
69.24000 48575.098
69.28000 36656.055
69.32000 29498.496
69.36000 26396.184
69.40000 22928.783
69.44000 14866.319
69.48000 6926.995
69.52000 3043.762
69.56000 1890.604
69.60000 1483.695
69.64000 1254.306
69.68000 1114.766
69.72000 985.201
69.76000 923.699
69.80000 858.582
69.84000 794.712
69.88000 737.943
69.92000 737.897
69.96000 684.090
70.00000 657.830