File: XRD/25-09-2025/XY Data/BTO_Mapping_Theta2Theta_25-09-2025_001_01_0-000_0-000.xy
20.00000 557.566
20.04000 561.892
20.08000 545.236
20.12000 543.052
20.16000 575.444
20.20000 579.117
20.24000 563.728
20.28000 545.624
20.32000 568.693
20.36000 542.702
20.40000 546.813
20.44000 552.524
20.48000 543.190
20.52000 558.484
20.56000 542.310
20.60000 539.609
20.64000 529.011
20.68000 550.392
20.72000 545.909
20.76000 546.811
20.80000 547.964
20.84000 525.741
20.88000 548.220
20.92000 559.227
20.96000 544.974
21.00000 527.430
21.04000 556.439
21.08000 555.618
21.12000 545.927
21.16000 549.988
21.20000 542.383
21.24000 563.381
21.28000 544.595
21.32000 521.424
21.36000 550.831
21.40000 546.149
21.44000 558.545
21.48000 533.201
21.52000 546.326
21.56000 557.116
21.60000 531.251
21.64000 525.060
21.68000 556.808
21.72000 536.842
21.76000 553.056
21.80000 560.810
21.84000 548.859
21.88000 579.075
21.92000 591.822
21.96000 618.665
22.00000 606.985
22.04000 617.563
22.08000 639.361
22.12000 634.510
22.16000 651.190
22.20000 618.630
22.24000 621.092
22.28000 626.184
22.32000 601.980
22.36000 583.100
22.40000 585.653
22.44000 587.029
22.48000 570.361
22.52000 553.848
22.56000 548.406
22.60000 548.502
22.64000 527.936
22.68000 503.375
22.72000 502.754
22.76000 523.612
22.80000 517.414
22.84000 509.945
22.88000 504.646
22.92000 504.112
22.96000 519.457
23.00000 508.051
23.04000 510.105
23.08000 512.708
23.12000 519.949
23.16000 520.901
23.20000 493.578
23.24000 496.249
23.28000 497.592
23.32000 497.817
23.36000 497.494
23.40000 511.610
23.44000 507.485
23.48000 502.054
23.52000 504.827
23.56000 510.638
23.60000 483.758
23.64000 478.245
23.68000 493.649
23.72000 470.210
23.76000 488.055
23.80000 483.000
23.84000 492.527
23.88000 494.006
23.92000 494.856
23.96000 477.568
24.00000 493.617
24.04000 457.419
24.08000 487.772
24.12000 486.519
24.16000 486.104
24.20000 478.728
24.24000 479.947
24.28000 469.954
24.32000 484.657
24.36000 483.139
24.40000 483.464
24.44000 481.594
24.48000 465.466
24.52000 465.590
24.56000 478.123
24.60000 481.874
24.64000 483.325
24.68000 486.525
24.72000 470.640
24.76000 469.919
24.80000 495.596
24.84000 488.161
24.88000 489.937
24.92000 463.723
24.96000 455.405
25.00000 470.947
25.04000 476.948
25.08000 459.263
25.12000 475.490
25.16000 457.327
25.20000 445.377
25.24000 453.338
25.28000 475.037
25.32000 477.592
25.36000 452.302
25.40000 462.464
25.44000 471.936
25.48000 458.002
25.52000 447.830
25.56000 431.878
25.60000 487.244
25.64000 451.440
25.68000 454.099
25.72000 447.683
25.76000 450.982
25.80000 448.937
25.84000 446.614
25.88000 447.289
25.92000 461.930
25.96000 448.249
26.00000 433.841
26.04000 450.032
26.08000 459.853
26.12000 449.864
26.16000 462.489
26.20000 436.551
26.24000 446.070
26.28000 439.820
26.32000 434.031
26.36000 448.027
26.40000 447.899
26.44000 455.490
26.48000 447.882
26.52000 434.482
26.56000 442.187
26.60000 449.056
26.64000 436.362
26.68000 452.739
26.72000 457.252
26.76000 438.026
26.80000 444.671
26.84000 438.121
26.88000 417.915
26.92000 422.251
26.96000 437.456
27.00000 434.483
27.04000 451.002
27.08000 435.031
27.12000 428.636
27.16000 434.860
27.20000 434.784
27.24000 436.605
27.28000 424.318
27.32000 423.698
27.36000 427.160
27.40000 432.269
27.44000 423.396
27.48000 426.363
27.52000 437.025
27.56000 421.836
27.60000 443.733
27.64000 419.457
27.68000 402.007
27.72000 419.486
27.76000 406.998
27.80000 431.319
27.84000 422.691
27.88000 412.534
27.92000 415.693
27.96000 407.714
28.00000 425.610
28.04000 432.607
28.08000 437.704
28.12000 417.828
28.16000 425.687
28.20000 420.655
28.24000 413.654
28.28000 424.464
28.32000 417.670
28.36000 408.067
28.40000 423.904
28.44000 423.958
28.48000 415.583
28.52000 417.202
28.56000 413.737
28.60000 421.840
28.64000 398.659
28.68000 410.440
28.72000 387.284
28.76000 404.486
28.80000 412.779
28.84000 417.142
28.88000 395.845
28.92000 412.358
28.96000 400.192
29.00000 400.034
29.04000 411.846
29.08000 412.410
29.12000 381.618
29.16000 405.705
29.20000 398.851
29.24000 410.357
29.28000 407.348
29.32000 392.224
29.36000 409.016
29.40000 401.972
29.44000 422.910
29.48000 405.846
29.52000 392.620
29.56000 407.049
29.60000 397.390
29.64000 388.001
29.68000 402.238
29.72000 393.164
29.76000 401.455
29.80000 398.936
29.84000 404.300
29.88000 395.340
29.92000 401.177
29.96000 395.090
30.00000 415.955
30.04000 433.678
30.08000 410.943
30.12000 421.972
30.16000 399.510
30.20000 408.310
30.24000 441.156
30.28000 409.114
30.32000 400.857
30.36000 401.851
30.40000 406.766
30.44000 407.813
30.48000 399.505
30.52000 400.615
30.56000 404.341
30.60000 405.231
30.64000 397.806
30.68000 410.387
30.72000 408.256
30.76000 421.371
30.80000 421.901
30.84000 423.120
30.88000 434.634
30.92000 445.232
30.96000 445.514
31.00000 481.000
31.04000 522.841
31.08000 580.528
31.12000 677.362
31.16000 800.114
31.20000 926.463
31.24000 1115.931
31.28000 1305.453
31.32000 1449.543
31.36000 1537.336
31.40000 1568.208
31.44000 1515.492
31.48000 1420.594
31.52000 1265.530
31.56000 1068.292
31.60000 925.529
31.64000 789.382
31.68000 681.043
31.72000 598.593
31.76000 553.920
31.80000 500.089
31.84000 474.044
31.88000 439.473
31.92000 411.231
31.96000 418.360
32.00000 402.924
32.04000 398.583
32.08000 399.654
32.12000 379.198
32.16000 383.432
32.20000 381.123
32.24000 369.995
32.28000 378.633
32.32000 409.951
32.36000 375.572
32.40000 372.421
32.44000 369.325
32.48000 376.458
32.52000 364.019
32.56000 368.123
32.60000 361.880
32.64000 346.217
32.68000 365.325
32.72000 361.924
32.76000 347.680
32.80000 355.790
32.84000 362.621
32.88000 369.961
32.92000 360.010
32.96000 371.139
33.00000 380.055
33.04000 370.009
33.08000 347.282
33.12000 343.548
33.16000 349.817
33.20000 320.925
33.24000 339.375
33.28000 342.917
33.32000 340.344
33.36000 333.338
33.40000 335.687
33.44000 338.296
33.48000 338.436
33.52000 333.450
33.56000 339.771
33.60000 324.579
33.64000 319.829
33.68000 333.180
33.72000 328.771
33.76000 316.679
33.80000 326.766
33.84000 326.164
33.88000 316.845
33.92000 319.735
33.96000 329.742
34.00000 330.053
34.04000 335.423
34.08000 339.635
34.12000 317.196
34.16000 309.439
34.20000 322.031
34.24000 310.604
34.28000 311.888
34.32000 331.922
34.36000 316.330
34.40000 319.378
34.44000 332.621
34.48000 307.895
34.52000 323.506
34.56000 335.457
34.60000 315.447
34.64000 307.633
34.68000 314.556
34.72000 309.097
34.76000 311.644
34.80000 315.207
34.84000 324.631
34.88000 313.774
34.92000 313.725
34.96000 321.723
35.00000 293.988
35.04000 318.663
35.08000 297.285
35.12000 326.220
35.16000 297.956
35.20000 316.156
35.24000 324.207
35.28000 303.487
35.32000 320.025
35.36000 303.101
35.40000 309.086
35.44000 310.084
35.48000 319.495
35.52000 330.164
35.56000 301.502
35.60000 310.961
35.64000 302.684
35.68000 295.860
35.72000 298.256
35.76000 302.690
35.80000 301.554
35.84000 309.882
35.88000 301.032
35.92000 309.890
35.96000 306.795
36.00000 295.006
36.04000 306.248
36.08000 282.725
36.12000 284.565
36.16000 287.409
36.20000 290.637
36.24000 298.894
36.28000 303.253
36.32000 284.404
36.36000 284.942
36.40000 289.112
36.44000 291.629
36.48000 283.839
36.52000 313.218
36.56000 287.674
36.60000 290.199
36.64000 288.174
36.68000 292.958
36.72000 297.293
36.76000 276.655
36.80000 293.840
36.84000 281.566
36.88000 298.551
36.92000 290.046
36.96000 299.479
37.00000 294.978
37.04000 298.941
37.08000 293.733
37.12000 290.956
37.16000 292.404
37.20000 291.745
37.24000 278.660
37.28000 278.068
37.32000 282.710
37.36000 284.706
37.40000 287.700
37.44000 305.526
37.48000 301.472
37.52000 285.396
37.56000 286.069
37.60000 284.914
37.64000 284.277
37.68000 292.663
37.72000 277.740
37.76000 271.892
37.80000 280.266
37.84000 286.635
37.88000 280.609
37.92000 271.234
37.96000 279.195
38.00000 298.347
38.04000 270.301
38.08000 282.369
38.12000 295.622
38.16000 286.103
38.20000 302.849
38.24000 300.760
38.28000 291.629
38.32000 310.940
38.36000 328.563
38.40000 335.462
38.44000 386.771
38.48000 456.690
38.52000 506.506
38.56000 564.881
38.60000 651.474
38.64000 729.260
38.68000 764.198
38.72000 804.694
38.76000 816.621
38.80000 783.721
38.84000 699.421
38.88000 614.301
38.92000 552.821
38.96000 447.525
39.00000 382.103
39.04000 358.806
39.08000 309.690
39.12000 297.748
39.16000 280.117
39.20000 271.306
39.24000 274.239
39.28000 293.279
39.32000 281.283
39.36000 276.026
39.40000 257.815
39.44000 259.565
39.48000 268.467
39.52000 269.664
39.56000 258.254
39.60000 262.288
39.64000 261.457
39.68000 255.534
39.72000 253.461
39.76000 262.417
39.80000 246.396
39.84000 272.833
39.88000 257.810
39.92000 258.843
39.96000 256.706
40.00000 271.598
40.04000 264.218
40.08000 263.144
40.12000 273.560
40.16000 255.714
40.20000 255.452
40.24000 253.003
40.28000 241.164
40.32000 233.391
40.36000 255.678
40.40000 256.943
40.44000 247.622
40.48000 262.245
40.52000 242.061
40.56000 247.677
40.60000 254.069
40.64000 250.867
40.68000 234.689
40.72000 242.642
40.76000 244.579
40.80000 239.964
40.84000 241.653
40.88000 227.494
40.92000 250.573
40.96000 239.683
41.00000 247.541
41.04000 242.954
41.08000 236.659
41.12000 257.072
41.16000 242.758
41.20000 246.315
41.24000 232.548
41.28000 242.149
41.32000 244.337
41.36000 239.529
41.40000 238.128
41.44000 252.857
41.48000 244.325
41.52000 238.910
41.56000 233.407
41.60000 237.759
41.64000 238.013
41.68000 239.737
41.72000 218.320
41.76000 241.475
41.80000 238.186
41.84000 238.767
41.88000 238.552
41.92000 240.465
41.96000 232.893
42.00000 237.773
42.04000 242.636
42.08000 238.762
42.12000 228.722
42.16000 226.766
42.20000 234.867
42.24000 235.418
42.28000 229.262
42.32000 221.725
42.36000 235.068
42.40000 243.001
42.44000 234.564
42.48000 221.518
42.52000 228.476
42.56000 223.354
42.60000 236.532
42.64000 235.644
42.68000 240.212
42.72000 215.819
42.76000 227.596
42.80000 231.270
42.84000 212.814
42.88000 204.754
42.92000 232.105
42.96000 222.211
43.00000 243.122
43.04000 227.272
43.08000 219.446
43.12000 229.058
43.16000 217.046
43.20000 230.510
43.24000 215.272
43.28000 216.872
43.32000 219.477
43.36000 221.616
43.40000 223.850
43.44000 226.397
43.48000 227.560
43.52000 209.929
43.56000 221.877
43.60000 224.304
43.64000 221.821
43.68000 215.992
43.72000 235.983
43.76000 229.908
43.80000 213.907
43.84000 209.220
43.88000 214.042
43.92000 214.057
43.96000 221.299
44.00000 222.916
44.04000 210.725
44.08000 216.722
44.12000 229.707
44.16000 216.735
44.20000 226.472
44.24000 215.784
44.28000 214.139
44.32000 227.274
44.36000 228.824
44.40000 212.298
44.44000 213.624
44.48000 224.300
44.52000 222.691
44.56000 224.943
44.60000 220.656
44.64000 244.109
44.68000 234.675
44.72000 238.581
44.76000 232.198
44.80000 235.845
44.84000 234.879
44.88000 245.641
44.92000 252.460
44.96000 246.500
45.00000 259.456
45.04000 265.354
45.08000 263.281
45.12000 272.890
45.16000 291.615
45.20000 269.360
45.24000 272.600
45.28000 282.244
45.32000 271.582
45.36000 263.182
45.40000 274.245
45.44000 263.738
45.48000 273.890
45.52000 258.019
45.56000 262.744
45.60000 244.284
45.64000 255.827
45.68000 255.474
45.72000 242.396
45.76000 232.389
45.80000 247.803
45.84000 233.456
45.88000 238.175
45.92000 229.149
45.96000 214.258
46.00000 218.948
46.04000 223.467
46.08000 208.437
46.12000 222.100
46.16000 209.056
46.20000 214.049
46.24000 217.947
46.28000 206.703
46.32000 203.975
46.36000 193.198
46.40000 194.353
46.44000 189.078
46.48000 184.614
46.52000 197.333
46.56000 201.197
46.60000 207.103
46.64000 185.749
46.68000 199.191
46.72000 196.000
46.76000 185.530
46.80000 188.521
46.84000 183.242
46.88000 199.791
46.92000 200.974
46.96000 189.130
47.00000 197.452
47.04000 196.068
47.08000 191.778
47.12000 194.978
47.16000 173.304
47.20000 191.422
47.24000 196.199
47.28000 204.146
47.32000 184.736
47.36000 191.580
47.40000 180.817
47.44000 193.242
47.48000 185.725
47.52000 183.196
47.56000 178.900
47.60000 182.923
47.64000 191.934
47.68000 178.976
47.72000 180.015
47.76000 187.543
47.80000 189.746
47.84000 187.370
47.88000 183.592
47.92000 184.152
47.96000 176.796
48.00000 184.284
48.04000 189.433
48.08000 187.462
48.12000 179.084
48.16000 179.976
48.20000 186.669
48.24000 181.180
48.28000 176.455
48.32000 181.383
48.36000 189.794
48.40000 185.052
48.44000 192.814
48.48000 179.674
48.52000 180.965
48.56000 172.064
48.60000 185.564
48.64000 190.732
48.68000 193.583
48.72000 186.977
48.76000 175.794
48.80000 179.020
48.84000 184.032
48.88000 177.347
48.92000 179.194
48.96000 178.379
49.00000 171.960
49.04000 175.678
49.08000 179.488
49.12000 180.254
49.16000 183.860
49.20000 179.168
49.24000 172.970
49.28000 182.794
49.32000 192.031
49.36000 177.447
49.40000 179.923
49.44000 167.364
49.48000 169.060
49.52000 176.580
49.56000 174.717
49.60000 178.520
49.64000 184.679
49.68000 169.516
49.72000 172.969
49.76000 173.333
49.80000 174.228
49.84000 179.541
49.88000 172.096
49.92000 176.549
49.96000 179.772
50.00000 172.818
50.04000 174.296
50.08000 169.951
50.12000 176.769
50.16000 175.330
50.20000 180.162
50.24000 174.138
50.28000 174.758
50.32000 175.086
50.36000 181.765
50.40000 185.010
50.44000 184.617
50.48000 196.619
50.52000 197.010
50.56000 179.952
50.60000 193.192
50.64000 192.430
50.68000 192.375
50.72000 201.583
50.76000 199.655
50.80000 205.092
50.84000 203.834
50.88000 198.227
50.92000 201.254
50.96000 190.171
51.00000 177.597
51.04000 169.491
51.08000 173.776
51.12000 166.565
51.16000 166.951
51.20000 177.814
51.24000 178.075
51.28000 168.542
51.32000 160.270
51.36000 172.453
51.40000 176.432
51.44000 169.484
51.48000 172.160
51.52000 155.164
51.56000 163.561
51.60000 158.680
51.64000 161.416
51.68000 163.428
51.72000 155.421
51.76000 158.942
51.80000 164.457
51.84000 167.900
51.88000 156.243
51.92000 167.263
51.96000 158.904
52.00000 161.439
52.04000 155.459
52.08000 162.879
52.12000 169.704
52.16000 162.572
52.20000 156.553
52.24000 163.928
52.28000 157.727
52.32000 153.448
52.36000 153.434
52.40000 154.395
52.44000 147.956
52.48000 157.146
52.52000 158.481
52.56000 161.843
52.60000 170.354
52.64000 172.024
52.68000 167.141
52.72000 159.113
52.76000 150.639
52.80000 154.406
52.84000 165.810
52.88000 157.330
52.92000 151.999
52.96000 150.178
53.00000 154.055
53.04000 159.046
53.08000 148.436
53.12000 157.399
53.16000 149.446
53.20000 161.760
53.24000 162.731
53.28000 150.611
53.32000 156.086
53.36000 151.908
53.40000 164.497
53.44000 165.746
53.48000 159.608
53.52000 176.568
53.56000 160.986
53.60000 159.789
53.64000 145.539
53.68000 154.584
53.72000 156.322
53.76000 155.215
53.80000 158.032
53.84000 159.783
53.88000 153.303
53.92000 161.908
53.96000 161.663
54.00000 155.383
54.04000 151.111
54.08000 161.501
54.12000 149.506
54.16000 144.235
54.20000 148.841
54.24000 151.938
54.28000 147.056
54.32000 150.594
54.36000 145.269
54.40000 147.625
54.44000 153.640
54.48000 162.066
54.52000 169.150
54.56000 154.978
54.60000 136.932
54.64000 135.929
54.68000 144.539
54.72000 152.901
54.76000 144.329
54.80000 155.358
54.84000 150.665
54.88000 149.667
54.92000 157.729
54.96000 153.391
55.00000 150.076
55.04000 151.543
55.08000 159.462
55.12000 148.422
55.16000 160.808
55.20000 145.503
55.24000 157.115
55.28000 153.898
55.32000 160.389
55.36000 171.975
55.40000 161.850
55.44000 176.726
55.48000 176.579
55.52000 189.942
55.56000 205.247
55.60000 219.900
55.64000 239.075
55.68000 273.582
55.72000 319.719
55.76000 337.163
55.80000 378.476
55.84000 419.063
55.88000 459.834
55.92000 481.965
55.96000 477.710
56.00000 459.909
56.04000 448.957
56.08000 429.412
56.12000 391.677
56.16000 354.744
56.20000 333.825
56.24000 293.143
56.28000 259.588
56.32000 243.625
56.36000 229.555
56.40000 218.085
56.44000 208.642
56.48000 175.872
56.52000 169.739
56.56000 164.344
56.60000 165.400
56.64000 162.283
56.68000 165.259
56.72000 156.732
56.76000 155.433
56.80000 150.368
56.84000 139.584
56.88000 150.439
56.92000 141.296
56.96000 153.026
57.00000 152.030
57.04000 137.962
57.08000 141.504
57.12000 160.486
57.16000 143.108
57.20000 146.766
57.24000 142.938
57.28000 140.898
57.32000 143.421
57.36000 136.173
57.40000 135.517
57.44000 136.449
57.48000 147.706
57.52000 141.015
57.56000 134.957
57.60000 130.513
57.64000 140.449
57.68000 139.220
57.72000 144.715
57.76000 143.901
57.80000 129.754
57.84000 140.451
57.88000 140.033
57.92000 145.011
57.96000 140.535
58.00000 137.082
58.04000 139.787
58.08000 136.595
58.12000 131.411
58.16000 131.766
58.20000 127.003
58.24000 136.668
58.28000 134.544
58.32000 137.414
58.36000 138.404
58.40000 147.238
58.44000 130.876
58.48000 136.713
58.52000 130.984
58.56000 138.264
58.60000 132.822
58.64000 119.579
58.68000 132.718
58.72000 131.137
58.76000 127.667
58.80000 132.953
58.84000 142.347
58.88000 139.299
58.92000 138.828
58.96000 136.651
59.00000 132.322
59.04000 130.544
59.08000 120.170
59.12000 130.122
59.16000 136.974
59.20000 134.959
59.24000 137.418
59.28000 149.564
59.32000 130.615
59.36000 136.396
59.40000 133.569
59.44000 134.104
59.48000 142.298
59.52000 137.848
59.56000 121.143
59.60000 123.518
59.64000 132.013
59.68000 123.272
59.72000 131.478
59.76000 138.229
59.80000 135.243
59.84000 133.227
59.88000 136.244
59.92000 133.170
59.96000 134.829
60.00000 125.340
60.04000 131.257
60.08000 134.765
60.12000 131.386
60.16000 128.402
60.20000 136.276
60.24000 125.762
60.28000 125.357
60.32000 135.286
60.36000 125.771
60.40000 125.923
60.44000 129.581
60.48000 127.316
60.52000 121.731
60.56000 127.090
60.60000 134.409
60.64000 126.899
60.68000 129.376
60.72000 139.978
60.76000 135.123
60.80000 119.882
60.84000 126.858
60.88000 135.675
60.92000 133.974
60.96000 134.937
61.00000 132.204
61.04000 134.105
61.08000 133.598
61.12000 137.951
61.16000 134.641
61.20000 133.282
61.24000 143.136
61.28000 138.567
61.32000 136.368
61.36000 133.619
61.40000 137.253
61.44000 145.104
61.48000 136.945
61.52000 166.620
61.56000 190.615
61.60000 227.168
61.64000 250.647
61.68000 247.896
61.72000 264.773
61.76000 252.602
61.80000 220.623
61.84000 179.937
61.88000 156.165
61.92000 149.625
61.96000 135.640
62.00000 134.635
62.04000 145.857
62.08000 146.552
62.12000 137.015
62.16000 143.269
62.20000 149.132
62.24000 148.696
62.28000 149.573
62.32000 145.366
62.36000 131.022
62.40000 138.852
62.44000 132.004
62.48000 147.794
62.52000 136.508
62.56000 141.948
62.60000 143.768
62.64000 139.913
62.68000 136.761
62.72000 138.816
62.76000 153.980
62.80000 131.695
62.84000 136.717
62.88000 142.187
62.92000 144.046
62.96000 142.303
63.00000 132.762
63.04000 154.393
63.08000 148.039
63.12000 146.055
63.16000 151.400
63.20000 147.169
63.24000 141.897
63.28000 134.263
63.32000 151.983
63.36000 140.150
63.40000 152.978
63.44000 150.053
63.48000 154.503
63.52000 141.945
63.56000 147.085
63.60000 137.485
63.64000 149.566
63.68000 149.766
63.72000 150.938
63.76000 147.129
63.80000 145.106
63.84000 153.107
63.88000 153.221
63.92000 157.877
63.96000 153.594
64.00000 148.153
64.04000 155.984
64.08000 164.649
64.12000 150.449
64.16000 148.034
64.20000 164.962
64.24000 159.221
64.28000 151.517
64.32000 163.634
64.36000 165.691
64.40000 171.064
64.44000 165.716
64.48000 171.021
64.52000 166.865
64.56000 177.611
64.60000 164.647
64.64000 165.240
64.68000 176.644
64.72000 175.755
64.76000 179.960
64.80000 173.516
64.84000 178.693
64.88000 170.404
64.92000 173.501
64.96000 177.315
65.00000 180.765
65.04000 185.790
65.08000 207.730
65.12000 207.314
65.16000 208.217
65.20000 213.605
65.24000 208.389
65.28000 222.933
65.32000 231.038
65.36000 236.395
65.40000 252.345
65.44000 262.798
65.48000 249.409
65.52000 279.072
65.56000 284.452
65.60000 309.581
65.64000 328.889
65.68000 400.618
65.72000 550.398
65.76000 763.758
65.80000 960.054
65.84000 1010.680
65.88000 1079.191
65.92000 1015.863
65.96000 886.047
66.00000 659.811
66.04000 461.970
66.08000 358.827
66.12000 323.828
66.16000 314.268
66.20000 288.002
66.24000 314.091
66.28000 349.118
66.32000 403.039
66.36000 422.355
66.40000 444.872
66.44000 454.949
66.48000 427.750
66.52000 414.217
66.56000 372.236
66.60000 338.445
66.64000 340.037
66.68000 308.371
66.72000 307.937
66.76000 325.476
66.80000 324.589
66.84000 326.376
66.88000 316.329
66.92000 341.222
66.96000 333.289
67.00000 345.049
67.04000 359.001
67.08000 347.720
67.12000 366.511
67.16000 364.336
67.20000 375.392
67.24000 370.054
67.28000 380.772
67.32000 391.665
67.36000 407.205
67.40000 410.993
67.44000 403.957
67.48000 411.754
67.52000 435.848
67.56000 417.074
67.60000 434.070
67.64000 444.599
67.68000 464.528
67.72000 458.203
67.76000 469.649
67.80000 489.183
67.84000 488.311
67.88000 504.073
67.92000 515.242
67.96000 523.675
68.00000 504.153
68.04000 532.027
68.08000 541.817
68.12000 550.798
68.16000 574.533
68.20000 586.777
68.24000 615.597
68.28000 610.993
68.32000 640.453
68.36000 671.832
68.40000 679.872
68.44000 722.666
68.48000 773.436
68.52000 782.099
68.56000 853.717
68.60000 971.429
68.64000 1129.623
68.68000 1346.023
68.72000 1564.497
68.76000 1795.703
68.80000 1978.536
68.84000 2342.126
68.88000 2897.360
68.92000 4790.578
68.96000 12380.130
69.00000 28142.408
69.04000 44953.660
69.08000 53334.406
69.12000 55069.773
69.16000 57440.223
69.20000 57787.605
69.24000 47845.152
69.28000 36458.715
69.32000 30009.150
69.36000 27080.469
69.40000 22448.256
69.44000 13569.551
69.48000 6348.172
69.52000 2910.044
69.56000 1868.028
69.60000 1448.783
69.64000 1300.287
69.68000 1101.142
69.72000 1001.331
69.76000 917.397
69.80000 825.777
69.84000 777.132
69.88000 769.053
69.92000 717.772
69.96000 682.587
70.00000 660.988