File: XRD/25-09-2025/XY Data/BTO_Mapping_Theta2Theta_25-09-2025_001_47_-2-091_-19-890.xy
20.00000 573.748
20.04000 555.076
20.08000 537.629
20.12000 571.090
20.16000 555.322
20.20000 534.828
20.24000 553.575
20.28000 553.685
20.32000 559.967
20.36000 554.998
20.40000 537.846
20.44000 550.653
20.48000 555.405
20.52000 581.226
20.56000 529.948
20.60000 533.758
20.64000 553.035
20.68000 539.913
20.72000 530.794
20.76000 543.309
20.80000 534.699
20.84000 557.638
20.88000 543.067
20.92000 561.361
20.96000 545.788
21.00000 560.524
21.04000 544.155
21.08000 545.296
21.12000 546.958
21.16000 545.804
21.20000 535.785
21.24000 546.199
21.28000 534.372
21.32000 549.156
21.36000 540.274
21.40000 547.568
21.44000 533.212
21.48000 520.637
21.52000 525.773
21.56000 551.564
21.60000 560.780
21.64000 548.239
21.68000 551.760
21.72000 563.881
21.76000 570.754
21.80000 557.544
21.84000 559.593
21.88000 620.409
21.92000 608.425
21.96000 642.932
22.00000 641.716
22.04000 667.078
22.08000 663.986
22.12000 674.179
22.16000 663.974
22.20000 668.141
22.24000 664.068
22.28000 657.546
22.32000 619.241
22.36000 589.609
22.40000 585.618
22.44000 566.179
22.48000 584.306
22.52000 575.065
22.56000 555.082
22.60000 532.434
22.64000 539.838
22.68000 533.345
22.72000 520.042
22.76000 507.534
22.80000 513.289
22.84000 516.175
22.88000 512.427
22.92000 502.627
22.96000 509.663
23.00000 517.254
23.04000 490.146
23.08000 508.666
23.12000 530.049
23.16000 519.599
23.20000 502.825
23.24000 481.857
23.28000 505.938
23.32000 520.578
23.36000 502.324
23.40000 479.897
23.44000 510.799
23.48000 488.645
23.52000 496.909
23.56000 505.016
23.60000 497.544
23.64000 500.939
23.68000 501.905
23.72000 492.903
23.76000 508.637
23.80000 490.780
23.84000 489.757
23.88000 485.190
23.92000 482.141
23.96000 498.978
24.00000 475.079
24.04000 479.004
24.08000 497.383
24.12000 495.148
24.16000 466.442
24.20000 481.107
24.24000 470.806
24.28000 475.956
24.32000 491.721
24.36000 478.281
24.40000 473.981
24.44000 479.074
24.48000 479.997
24.52000 472.333
24.56000 469.579
24.60000 476.897
24.64000 478.101
24.68000 468.297
24.72000 487.511
24.76000 467.902
24.80000 488.624
24.84000 474.980
24.88000 479.124
24.92000 482.225
24.96000 492.200
25.00000 458.536
25.04000 461.798
25.08000 449.974
25.12000 452.605
25.16000 464.532
25.20000 479.567
25.24000 471.082
25.28000 448.347
25.32000 455.230
25.36000 473.851
25.40000 473.926
25.44000 460.606
25.48000 442.006
25.52000 456.835
25.56000 455.105
25.60000 459.495
25.64000 474.216
25.68000 451.217
25.72000 447.904
25.76000 471.524
25.80000 454.447
25.84000 453.193
25.88000 445.681
25.92000 461.140
25.96000 468.048
26.00000 440.400
26.04000 440.555
26.08000 448.804
26.12000 471.125
26.16000 463.373
26.20000 445.846
26.24000 434.505
26.28000 443.888
26.32000 450.792
26.36000 431.851
26.40000 453.274
26.44000 433.212
26.48000 432.167
26.52000 443.393
26.56000 437.937
26.60000 459.159
26.64000 449.783
26.68000 455.145
26.72000 444.409
26.76000 437.677
26.80000 441.926
26.84000 456.644
26.88000 452.303
26.92000 435.751
26.96000 434.483
27.00000 447.572
27.04000 437.398
27.08000 435.399
27.12000 423.028
27.16000 450.306
27.20000 431.165
27.24000 428.545
27.28000 435.226
27.32000 425.791
27.36000 424.825
27.40000 428.459
27.44000 435.273
27.48000 452.315
27.52000 437.308
27.56000 429.924
27.60000 401.951
27.64000 442.896
27.68000 435.608
27.72000 419.184
27.76000 409.803
27.80000 419.905
27.84000 422.859
27.88000 434.842
27.92000 433.737
27.96000 425.681
28.00000 403.788
28.04000 423.601
28.08000 429.201
28.12000 419.184
28.16000 428.579
28.20000 410.409
28.24000 430.551
28.28000 438.019
28.32000 425.971
28.36000 405.865
28.40000 444.381
28.44000 401.920
28.48000 424.172
28.52000 417.725
28.56000 412.575
28.60000 411.394
28.64000 411.306
28.68000 428.285
28.72000 393.260
28.76000 410.494
28.80000 399.822
28.84000 414.144
28.88000 406.908
28.92000 420.959
28.96000 423.969
29.00000 406.161
29.04000 396.727
29.08000 403.936
29.12000 419.354
29.16000 411.382
29.20000 402.604
29.24000 425.042
29.28000 406.308
29.32000 396.886
29.36000 385.029
29.40000 400.617
29.44000 418.973
29.48000 409.689
29.52000 400.445
29.56000 400.880
29.60000 401.716
29.64000 395.215
29.68000 396.898
29.72000 388.444
29.76000 403.120
29.80000 408.741
29.84000 394.283
29.88000 406.704
29.92000 424.690
29.96000 423.695
30.00000 420.070
30.04000 410.679
30.08000 418.617
30.12000 430.215
30.16000 410.349
30.20000 410.772
30.24000 407.271
30.28000 422.436
30.32000 399.528
30.36000 407.106
30.40000 392.817
30.44000 399.853
30.48000 397.736
30.52000 408.231
30.56000 434.144
30.60000 418.739
30.64000 416.862
30.68000 390.400
30.72000 396.534
30.76000 428.734
30.80000 401.262
30.84000 432.603
30.88000 435.171
30.92000 459.571
30.96000 487.356
31.00000 531.692
31.04000 598.147
31.08000 688.329
31.12000 807.972
31.16000 977.606
31.20000 1157.153
31.24000 1425.704
31.28000 1621.649
31.32000 1821.258
31.36000 1957.265
31.40000 1949.718
31.44000 1884.267
31.48000 1732.313
31.52000 1514.878
31.56000 1312.559
31.60000 1095.708
31.64000 899.425
31.68000 749.998
31.72000 678.048
31.76000 601.703
31.80000 519.192
31.84000 489.971
31.88000 459.322
31.92000 452.566
31.96000 448.432
32.00000 438.334
32.04000 405.653
32.08000 403.864
32.12000 417.933
32.16000 397.836
32.20000 393.531
32.24000 367.583
32.28000 387.512
32.32000 370.653
32.36000 383.164
32.40000 386.349
32.44000 363.637
32.48000 366.365
32.52000 364.242
32.56000 378.142
32.60000 366.579
32.64000 349.234
32.68000 364.452
32.72000 360.910
32.76000 361.190
32.80000 360.160
32.84000 379.312
32.88000 371.589
32.92000 387.391
32.96000 383.592
33.00000 368.772
33.04000 369.384
33.08000 364.110
33.12000 356.448
33.16000 336.721
33.20000 351.671
33.24000 330.441
33.28000 339.666
33.32000 344.079
33.36000 341.774
33.40000 325.406
33.44000 332.628
33.48000 352.135
33.52000 337.871
33.56000 326.729
33.60000 333.165
33.64000 341.856
33.68000 356.511
33.72000 331.939
33.76000 329.064
33.80000 321.779
33.84000 333.600
33.88000 335.073
33.92000 326.030
33.96000 328.413
34.00000 324.736
34.04000 318.506
34.08000 322.368
34.12000 330.238
34.16000 325.456
34.20000 312.120
34.24000 319.293
34.28000 324.878
34.32000 331.381
34.36000 323.309
34.40000 322.440
34.44000 330.187
34.48000 316.426
34.52000 319.954
34.56000 308.063
34.60000 329.043
34.64000 321.100
34.68000 326.473
34.72000 316.245
34.76000 323.044
34.80000 327.792
34.84000 329.855
34.88000 321.738
34.92000 316.535
34.96000 313.525
35.00000 303.008
35.04000 307.729
35.08000 301.974
35.12000 314.534
35.16000 316.076
35.20000 316.169
35.24000 293.981
35.28000 291.701
35.32000 290.769
35.36000 299.836
35.40000 307.551
35.44000 297.217
35.48000 300.212
35.52000 311.085
35.56000 301.386
35.60000 301.365
35.64000 317.816
35.68000 296.619
35.72000 303.430
35.76000 314.246
35.80000 305.771
35.84000 303.031
35.88000 318.902
35.92000 301.268
35.96000 299.664
36.00000 289.995
36.04000 307.460
36.08000 293.641
36.12000 301.408
36.16000 289.878
36.20000 303.910
36.24000 299.595
36.28000 303.137
36.32000 290.114
36.36000 283.714
36.40000 299.186
36.44000 296.128
36.48000 292.577
36.52000 306.140
36.56000 301.118
36.60000 290.041
36.64000 295.865
36.68000 280.693
36.72000 287.012
36.76000 292.016
36.80000 292.589
36.84000 294.422
36.88000 296.377
36.92000 303.610
36.96000 281.571
37.00000 279.720
37.04000 294.111
37.08000 294.818
37.12000 289.442
37.16000 282.168
37.20000 278.252
37.24000 288.891
37.28000 296.561
37.32000 282.768
37.36000 278.810
37.40000 280.520
37.44000 280.917
37.48000 283.118
37.52000 278.916
37.56000 282.523
37.60000 284.391
37.64000 290.272
37.68000 291.650
37.72000 272.174
37.76000 293.399
37.80000 280.573
37.84000 303.737
37.88000 290.361
37.92000 282.352
37.96000 292.952
38.00000 286.171
38.04000 292.941
38.08000 286.391
38.12000 283.669
38.16000 278.868
38.20000 291.810
38.24000 308.406
38.28000 314.717
38.32000 303.916
38.36000 332.726
38.40000 362.252
38.44000 397.198
38.48000 447.481
38.52000 503.667
38.56000 573.843
38.60000 622.336
38.64000 673.198
38.68000 739.829
38.72000 731.628
38.76000 718.693
38.80000 673.634
38.84000 615.877
38.88000 557.248
38.92000 486.053
38.96000 452.300
39.00000 391.282
39.04000 345.871
39.08000 306.812
39.12000 283.739
39.16000 282.160
39.20000 286.103
39.24000 266.816
39.28000 267.339
39.32000 268.303
39.36000 268.600
39.40000 263.629
39.44000 277.040
39.48000 284.760
39.52000 261.119
39.56000 273.146
39.60000 262.685
39.64000 262.910
39.68000 262.328
39.72000 259.733
39.76000 247.642
39.80000 264.009
39.84000 257.364
39.88000 271.512
39.92000 264.542
39.96000 264.964
40.00000 253.633
40.04000 263.377
40.08000 260.620
40.12000 259.966
40.16000 239.725
40.20000 248.271
40.24000 260.830
40.28000 247.093
40.32000 248.710
40.36000 258.617
40.40000 239.918
40.44000 249.619
40.48000 251.158
40.52000 267.209
40.56000 246.879
40.60000 235.238
40.64000 258.914
40.68000 251.744
40.72000 240.794
40.76000 252.847
40.80000 232.855
40.84000 238.662
40.88000 242.998
40.92000 236.014
40.96000 240.377
41.00000 253.164
41.04000 236.706
41.08000 243.978
41.12000 242.518
41.16000 253.477
41.20000 248.553
41.24000 243.262
41.28000 236.798
41.32000 244.021
41.36000 234.841
41.40000 237.990
41.44000 247.193
41.48000 237.596
41.52000 244.353
41.56000 239.275
41.60000 231.213
41.64000 242.845
41.68000 235.593
41.72000 236.896
41.76000 229.780
41.80000 240.336
41.84000 230.629
41.88000 238.516
41.92000 224.150
41.96000 238.077
42.00000 241.375
42.04000 232.533
42.08000 245.977
42.12000 238.967
42.16000 220.312
42.20000 215.865
42.24000 230.856
42.28000 242.037
42.32000 232.344
42.36000 230.891
42.40000 219.306
42.44000 241.511
42.48000 219.458
42.52000 227.114
42.56000 243.277
42.60000 227.998
42.64000 235.578
42.68000 220.850
42.72000 215.906
42.76000 217.892
42.80000 242.808
42.84000 224.003
42.88000 231.085
42.92000 223.439
42.96000 221.059
43.00000 228.467
43.04000 216.042
43.08000 226.052
43.12000 235.694
43.16000 223.797
43.20000 229.823
43.24000 222.675
43.28000 239.729
43.32000 199.627
43.36000 207.597
43.40000 220.578
43.44000 214.594
43.48000 215.018
43.52000 220.350
43.56000 217.979
43.60000 223.813
43.64000 217.436
43.68000 211.946
43.72000 235.531
43.76000 227.240
43.80000 216.299
43.84000 210.330
43.88000 219.735
43.92000 222.176
43.96000 219.334
44.00000 214.204
44.04000 219.268
44.08000 221.231
44.12000 223.450
44.16000 219.071
44.20000 218.373
44.24000 218.204
44.28000 213.945
44.32000 223.057
44.36000 219.904
44.40000 229.179
44.44000 221.861
44.48000 220.456
44.52000 222.755
44.56000 215.441
44.60000 235.695
44.64000 228.329
44.68000 236.612
44.72000 243.184
44.76000 246.146
44.80000 249.877
44.84000 253.224
44.88000 273.196
44.92000 273.160
44.96000 297.247
45.00000 302.849
45.04000 299.753
45.08000 286.042
45.12000 307.414
45.16000 319.303
45.20000 286.741
45.24000 302.541
45.28000 274.800
45.32000 293.791
45.36000 282.690
45.40000 258.531
45.44000 283.668
45.48000 284.255
45.52000 268.123
45.56000 268.334
45.60000 244.447
45.64000 248.818
45.68000 239.408
45.72000 241.025
45.76000 239.742
45.80000 230.324
45.84000 242.924
45.88000 235.349
45.92000 230.227
45.96000 222.839
46.00000 217.973
46.04000 216.039
46.08000 201.430
46.12000 208.014
46.16000 208.201
46.20000 197.915
46.24000 216.132
46.28000 210.710
46.32000 195.662
46.36000 200.589
46.40000 208.916
46.44000 196.309
46.48000 201.325
46.52000 196.073
46.56000 202.214
46.60000 205.403
46.64000 197.369
46.68000 200.650
46.72000 189.185
46.76000 192.915
46.80000 198.465
46.84000 192.366
46.88000 191.155
46.92000 186.900
46.96000 188.485
47.00000 188.021
47.04000 207.062
47.08000 190.723
47.12000 189.810
47.16000 194.182
47.20000 200.315
47.24000 191.689
47.28000 196.528
47.32000 192.599
47.36000 189.449
47.40000 195.725
47.44000 192.172
47.48000 189.765
47.52000 187.814
47.56000 184.520
47.60000 185.406
47.64000 189.612
47.68000 187.229
47.72000 187.764
47.76000 189.762
47.80000 185.313
47.84000 186.725
47.88000 182.209
47.92000 179.314
47.96000 190.412
48.00000 177.353
48.04000 175.575
48.08000 184.880
48.12000 194.149
48.16000 179.485
48.20000 182.767
48.24000 166.529
48.28000 193.070
48.32000 183.997
48.36000 183.493
48.40000 190.019
48.44000 172.665
48.48000 185.483
48.52000 172.395
48.56000 174.908
48.60000 172.991
48.64000 187.791
48.68000 182.481
48.72000 172.833
48.76000 180.121
48.80000 183.449
48.84000 175.471
48.88000 166.259
48.92000 171.314
48.96000 168.314
49.00000 170.939
49.04000 175.752
49.08000 177.978
49.12000 169.914
49.16000 175.048
49.20000 168.374
49.24000 167.148
49.28000 167.353
49.32000 181.397
49.36000 176.138
49.40000 168.072
49.44000 180.535
49.48000 176.804
49.52000 176.198
49.56000 175.636
49.60000 174.661
49.64000 173.339
49.68000 174.531
49.72000 187.692
49.76000 171.498
49.80000 173.299
49.84000 168.775
49.88000 180.354
49.92000 171.057
49.96000 179.779
50.00000 173.039
50.04000 177.252
50.08000 174.898
50.12000 181.538
50.16000 171.820
50.20000 179.022
50.24000 187.120
50.28000 168.626
50.32000 182.360
50.36000 181.791
50.40000 186.222
50.44000 199.312
50.48000 211.734
50.52000 207.621
50.56000 222.056
50.60000 210.582
50.64000 220.921
50.68000 234.031
50.72000 211.834
50.76000 219.318
50.80000 204.960
50.84000 202.727
50.88000 211.399
50.92000 190.812
50.96000 200.343
51.00000 198.428
51.04000 198.886
51.08000 191.787
51.12000 180.796
51.16000 175.315
51.20000 181.450
51.24000 172.526
51.28000 173.753
51.32000 165.567
51.36000 170.320
51.40000 170.223
51.44000 172.675
51.48000 174.790
51.52000 170.388
51.56000 170.583
51.60000 171.739
51.64000 161.060
51.68000 160.509
51.72000 163.155
51.76000 165.259
51.80000 163.022
51.84000 157.384
51.88000 155.262
51.92000 163.721
51.96000 157.630
52.00000 170.839
52.04000 161.172
52.08000 151.628
52.12000 174.841
52.16000 179.393
52.20000 174.887
52.24000 155.332
52.28000 155.398
52.32000 156.101
52.36000 158.533
52.40000 150.141
52.44000 172.590
52.48000 158.940
52.52000 157.359
52.56000 152.018
52.60000 161.439
52.64000 155.063
52.68000 157.967
52.72000 151.085
52.76000 167.465
52.80000 157.372
52.84000 161.824
52.88000 170.312
52.92000 155.358
52.96000 152.672
53.00000 148.912
53.04000 165.150
53.08000 154.138
53.12000 154.517
53.16000 159.338
53.20000 144.891
53.24000 161.857
53.28000 159.410
53.32000 160.591
53.36000 161.126
53.40000 162.659
53.44000 163.035
53.48000 154.131
53.52000 156.669
53.56000 164.723
53.60000 159.897
53.64000 148.792
53.68000 138.223
53.72000 157.686
53.76000 151.331
53.80000 148.981
53.84000 145.958
53.88000 156.662
53.92000 139.781
53.96000 156.815
54.00000 156.552
54.04000 155.083
54.08000 139.602
54.12000 157.281
54.16000 154.018
54.20000 155.415
54.24000 160.488
54.28000 153.070
54.32000 145.693
54.36000 153.377
54.40000 145.152
54.44000 155.129
54.48000 140.324
54.52000 158.792
54.56000 141.331
54.60000 150.765
54.64000 157.200
54.68000 146.966
54.72000 144.016
54.76000 145.011
54.80000 149.527
54.84000 153.942
54.88000 147.158
54.92000 150.067
54.96000 148.890
55.00000 152.069
55.04000 155.402
55.08000 154.879
55.12000 149.607
55.16000 155.515
55.20000 160.593
55.24000 162.384
55.28000 169.666
55.32000 157.252
55.36000 164.770
55.40000 184.363
55.44000 180.641
55.48000 185.029
55.52000 212.103
55.56000 213.693
55.60000 244.679
55.64000 260.843
55.68000 287.924
55.72000 324.824
55.76000 368.948
55.80000 380.961
55.84000 426.565
55.88000 432.118
55.92000 436.702
55.96000 423.561
56.00000 423.230
56.04000 403.705
56.08000 396.919
56.12000 352.889
56.16000 311.385
56.20000 280.583
56.24000 282.318
56.28000 256.917
56.32000 236.217
56.36000 223.512
56.40000 202.047
56.44000 192.830
56.48000 182.758
56.52000 170.424
56.56000 165.757
56.60000 161.206
56.64000 163.109
56.68000 161.418
56.72000 159.936
56.76000 157.185
56.80000 154.864
56.84000 146.887
56.88000 144.674
56.92000 144.482
56.96000 145.697
57.00000 150.349
57.04000 141.748
57.08000 135.486
57.12000 151.528
57.16000 126.191
57.20000 149.460
57.24000 139.657
57.28000 148.136
57.32000 158.525
57.36000 142.611
57.40000 149.041
57.44000 144.204
57.48000 132.298
57.52000 136.131
57.56000 134.145
57.60000 133.326
57.64000 147.983
57.68000 154.752
57.72000 146.896
57.76000 142.654
57.80000 142.028
57.84000 132.613
57.88000 141.195
57.92000 147.387
57.96000 133.664
58.00000 137.076
58.04000 131.729
58.08000 135.623
58.12000 140.543
58.16000 133.390
58.20000 144.338
58.24000 140.998
58.28000 137.186
58.32000 132.464
58.36000 140.731
58.40000 146.406
58.44000 136.814
58.48000 131.811
58.52000 143.911
58.56000 138.774
58.60000 131.895
58.64000 127.638
58.68000 134.076
58.72000 131.968
58.76000 138.895
58.80000 128.270
58.84000 130.776
58.88000 135.116
58.92000 133.875
58.96000 138.847
59.00000 131.686
59.04000 134.107
59.08000 125.763
59.12000 129.740
59.16000 135.513
59.20000 131.792
59.24000 128.279
59.28000 130.749
59.32000 125.630
59.36000 129.553
59.40000 139.592
59.44000 136.185
59.48000 129.234
59.52000 137.691
59.56000 133.294
59.60000 124.088
59.64000 123.069
59.68000 137.210
59.72000 129.221
59.76000 126.887
59.80000 130.221
59.84000 133.419
59.88000 137.479
59.92000 135.331
59.96000 133.407
60.00000 137.321
60.04000 138.402
60.08000 121.470
60.12000 122.448
60.16000 121.195
60.20000 125.174
60.24000 131.291
60.28000 126.849
60.32000 123.292
60.36000 140.290
60.40000 148.031
60.44000 132.634
60.48000 123.476
60.52000 131.231
60.56000 132.370
60.60000 129.389
60.64000 130.317
60.68000 127.084
60.72000 123.214
60.76000 130.202
60.80000 128.464
60.84000 126.127
60.88000 128.299
60.92000 129.392
60.96000 132.224
61.00000 143.942
61.04000 139.870
61.08000 129.819
61.12000 138.522
61.16000 143.771
61.20000 139.209
61.24000 136.308
61.28000 135.921
61.32000 136.784
61.36000 140.779
61.40000 140.897
61.44000 143.085
61.48000 144.186
61.52000 157.647
61.56000 193.818
61.60000 237.129
61.64000 260.910
61.68000 272.240
61.72000 270.889
61.76000 269.396
61.80000 225.694
61.84000 191.435
61.88000 152.191
61.92000 146.251
61.96000 149.481
62.00000 140.665
62.04000 147.958
62.08000 140.665
62.12000 135.816
62.16000 141.597
62.20000 138.583
62.24000 141.030
62.28000 133.505
62.32000 150.150
62.36000 126.958
62.40000 149.228
62.44000 145.427
62.48000 137.623
62.52000 139.051
62.56000 139.359
62.60000 147.911
62.64000 140.742
62.68000 145.052
62.72000 145.114
62.76000 141.916
62.80000 134.349
62.84000 147.146
62.88000 138.550
62.92000 147.295
62.96000 133.383
63.00000 133.713
63.04000 147.235
63.08000 136.338
63.12000 147.635
63.16000 147.187
63.20000 155.969
63.24000 142.362
63.28000 139.424
63.32000 135.194
63.36000 147.949
63.40000 145.172
63.44000 143.737
63.48000 154.219
63.52000 148.097
63.56000 154.964
63.60000 156.220
63.64000 151.716
63.68000 157.597
63.72000 150.479
63.76000 148.664
63.80000 156.988
63.84000 154.186
63.88000 158.140
63.92000 152.045
63.96000 157.703
64.00000 147.933
64.04000 159.225
64.08000 153.260
64.12000 167.356
64.16000 154.175
64.20000 160.910
64.24000 155.465
64.28000 164.560
64.32000 167.912
64.36000 161.565
64.40000 160.686
64.44000 172.136
64.48000 165.485
64.52000 172.460
64.56000 178.982
64.60000 174.279
64.64000 176.321
64.68000 169.328
64.72000 179.977
64.76000 177.098
64.80000 169.312
64.84000 176.190
64.88000 172.689
64.92000 201.381
64.96000 197.887
65.00000 192.902
65.04000 192.875
65.08000 197.211
65.12000 220.085
65.16000 230.253
65.20000 237.797
65.24000 238.848
65.28000 231.434
65.32000 257.745
65.36000 269.357
65.40000 263.249
65.44000 278.517
65.48000 290.781
65.52000 298.216
65.56000 328.519
65.60000 353.495
65.64000 366.592
65.68000 433.219
65.72000 579.544
65.76000 838.558
65.80000 995.120
65.84000 1110.844
65.88000 1116.743
65.92000 1110.161
65.96000 952.323
66.00000 700.704
66.04000 496.413
66.08000 392.366
66.12000 340.321
66.16000 311.953
66.20000 320.339
66.24000 337.776
66.28000 357.350
66.32000 382.566
66.36000 455.830
66.40000 466.577
66.44000 464.905
66.48000 466.790
66.52000 402.861
66.56000 376.827
66.60000 336.027
66.64000 332.432
66.68000 330.237
66.72000 315.387
66.76000 328.002
66.80000 334.456
66.84000 328.104
66.88000 345.798
66.92000 368.904
66.96000 353.816
67.00000 351.688
67.04000 347.567
67.08000 365.292
67.12000 368.764
67.16000 387.608
67.20000 383.425
67.24000 378.627
67.28000 383.023
67.32000 401.780
67.36000 414.233
67.40000 413.057
67.44000 416.232
67.48000 418.982
67.52000 432.713
67.56000 457.774
67.60000 457.214
67.64000 458.085
67.68000 479.872
67.72000 484.112
67.76000 485.900
67.80000 484.419
67.84000 495.910
67.88000 513.253
67.92000 521.899
67.96000 526.904
68.00000 531.322
68.04000 557.633
68.08000 558.594
68.12000 558.649
68.16000 609.775
68.20000 598.203
68.24000 616.774
68.28000 608.925
68.32000 653.752
68.36000 687.067
68.40000 723.522
68.44000 759.004
68.48000 777.432
68.52000 843.328
68.56000 890.116
68.60000 999.480
68.64000 1155.188
68.68000 1383.138
68.72000 1623.126
68.76000 1794.558
68.80000 2047.902
68.84000 2380.809
68.88000 3002.786
68.92000 4966.787
68.96000 12615.598
69.00000 28866.461
69.04000 46456.672
69.08000 55663.492
69.12000 57720.832
69.16000 60299.355
69.20000 60581.961
69.24000 50532.578
69.28000 38681.734
69.32000 31344.855
69.36000 28560.578
69.40000 23642.070
69.44000 14542.206
69.48000 6892.181
69.52000 3073.896
69.56000 1944.829
69.60000 1501.425
69.64000 1267.107
69.68000 1129.208
69.72000 1001.955
69.76000 940.613
69.80000 876.656
69.84000 832.580
69.88000 774.508
69.92000 716.648
69.96000 738.880
70.00000 671.237