File: XRD/25-09-2025/XY Data/BTO_Mapping_Theta2Theta_25-09-2025_001_26_-8-090_5-878.xy
20.00000 554.673
20.04000 572.421
20.08000 554.629
20.12000 579.177
20.16000 547.025
20.20000 550.364
20.24000 558.370
20.28000 559.403
20.32000 557.108
20.36000 562.187
20.40000 547.838
20.44000 565.244
20.48000 566.325
20.52000 545.525
20.56000 556.601
20.60000 537.283
20.64000 562.542
20.68000 547.711
20.72000 533.471
20.76000 537.256
20.80000 552.077
20.84000 541.441
20.88000 546.311
20.92000 534.017
20.96000 546.557
21.00000 549.640
21.04000 549.352
21.08000 542.101
21.12000 556.063
21.16000 557.308
21.20000 537.565
21.24000 533.219
21.28000 542.692
21.32000 523.072
21.36000 533.832
21.40000 527.906
21.44000 546.331
21.48000 534.072
21.52000 526.032
21.56000 538.877
21.60000 533.506
21.64000 527.625
21.68000 540.518
21.72000 551.312
21.76000 539.519
21.80000 552.421
21.84000 578.008
21.88000 572.382
21.92000 611.550
21.96000 636.068
22.00000 629.528
22.04000 648.880
22.08000 669.258
22.12000 645.590
22.16000 677.003
22.20000 644.710
22.24000 643.550
22.28000 644.735
22.32000 628.971
22.36000 620.669
22.40000 595.202
22.44000 566.506
22.48000 579.971
22.52000 551.683
22.56000 537.845
22.60000 518.973
22.64000 533.003
22.68000 537.844
22.72000 524.313
22.76000 527.162
22.80000 511.987
22.84000 496.732
22.88000 494.826
22.92000 504.563
22.96000 520.246
23.00000 528.353
23.04000 514.284
23.08000 507.505
23.12000 526.288
23.16000 509.465
23.20000 486.688
23.24000 493.414
23.28000 473.218
23.32000 503.068
23.36000 505.653
23.40000 490.224
23.44000 493.808
23.48000 506.609
23.52000 486.115
23.56000 499.179
23.60000 498.596
23.64000 491.489
23.68000 482.063
23.72000 479.880
23.76000 493.087
23.80000 478.652
23.84000 503.297
23.88000 490.364
23.92000 501.423
23.96000 478.042
24.00000 474.854
24.04000 485.578
24.08000 480.730
24.12000 477.811
24.16000 497.397
24.20000 464.887
24.24000 483.896
24.28000 491.353
24.32000 479.174
24.36000 493.724
24.40000 493.478
24.44000 477.183
24.48000 473.492
24.52000 478.383
24.56000 470.818
24.60000 468.601
24.64000 474.736
24.68000 488.556
24.72000 465.017
24.76000 477.559
24.80000 472.692
24.84000 484.720
24.88000 463.892
24.92000 480.748
24.96000 468.405
25.00000 464.619
25.04000 449.279
25.08000 463.471
25.12000 462.244
25.16000 469.478
25.20000 457.416
25.24000 484.483
25.28000 464.439
25.32000 452.377
25.36000 463.232
25.40000 445.841
25.44000 450.919
25.48000 447.391
25.52000 457.283
25.56000 450.012
25.60000 458.389
25.64000 459.843
25.68000 451.921
25.72000 457.366
25.76000 453.005
25.80000 457.597
25.84000 467.174
25.88000 469.298
25.92000 452.665
25.96000 453.216
26.00000 463.998
26.04000 440.745
26.08000 451.838
26.12000 441.043
26.16000 441.736
26.20000 452.215
26.24000 444.643
26.28000 449.968
26.32000 452.805
26.36000 453.081
26.40000 452.717
26.44000 435.164
26.48000 439.011
26.52000 432.226
26.56000 448.009
26.60000 436.802
26.64000 422.397
26.68000 440.855
26.72000 426.733
26.76000 424.424
26.80000 426.871
26.84000 437.562
26.88000 451.199
26.92000 456.437
26.96000 469.825
27.00000 448.611
27.04000 428.908
27.08000 437.349
27.12000 421.081
27.16000 410.777
27.20000 447.632
27.24000 427.454
27.28000 460.170
27.32000 433.542
27.36000 432.083
27.40000 395.149
27.44000 426.770
27.48000 433.228
27.52000 423.166
27.56000 419.448
27.60000 433.865
27.64000 423.199
27.68000 436.589
27.72000 424.492
27.76000 442.221
27.80000 432.488
27.84000 426.006
27.88000 416.020
27.92000 427.980
27.96000 417.677
28.00000 431.860
28.04000 435.394
28.08000 422.531
28.12000 426.610
28.16000 430.123
28.20000 419.703
28.24000 426.764
28.28000 420.407
28.32000 425.068
28.36000 426.458
28.40000 406.863
28.44000 406.168
28.48000 417.127
28.52000 412.201
28.56000 400.371
28.60000 431.894
28.64000 418.203
28.68000 414.035
28.72000 385.678
28.76000 412.728
28.80000 412.585
28.84000 417.013
28.88000 420.478
28.92000 416.861
28.96000 413.015
29.00000 400.547
29.04000 390.109
29.08000 409.963
29.12000 420.582
29.16000 408.184
29.20000 405.648
29.24000 406.639
29.28000 389.876
29.32000 402.356
29.36000 394.443
29.40000 396.880
29.44000 420.941
29.48000 396.786
29.52000 403.674
29.56000 413.880
29.60000 396.830
29.64000 410.674
29.68000 410.672
29.72000 406.039
29.76000 402.482
29.80000 412.884
29.84000 425.312
29.88000 393.977
29.92000 398.532
29.96000 398.754
30.00000 418.978
30.04000 406.469
30.08000 417.195
30.12000 426.135
30.16000 405.587
30.20000 409.951
30.24000 409.320
30.28000 405.908
30.32000 395.185
30.36000 388.028
30.40000 413.176
30.44000 410.482
30.48000 406.749
30.52000 404.320
30.56000 402.498
30.60000 416.351
30.64000 416.092
30.68000 424.188
30.72000 413.961
30.76000 420.154
30.80000 415.718
30.84000 434.259
30.88000 456.208
30.92000 452.336
30.96000 476.817
31.00000 510.584
31.04000 565.344
31.08000 633.218
31.12000 764.479
31.16000 912.407
31.20000 1089.187
31.24000 1286.322
31.28000 1494.705
31.32000 1693.883
31.36000 1786.640
31.40000 1826.511
31.44000 1750.276
31.48000 1620.612
31.52000 1457.235
31.56000 1256.330
31.60000 1025.174
31.64000 875.564
31.68000 725.280
31.72000 654.001
31.76000 583.077
31.80000 524.126
31.84000 466.732
31.88000 464.536
31.92000 439.846
31.96000 423.596
32.00000 411.651
32.04000 408.794
32.08000 395.663
32.12000 389.968
32.16000 394.511
32.20000 380.088
32.24000 382.693
32.28000 385.607
32.32000 387.489
32.36000 366.101
32.40000 372.322
32.44000 378.847
32.48000 379.684
32.52000 373.005
32.56000 368.521
32.60000 359.067
32.64000 359.546
32.68000 364.158
32.72000 361.842
32.76000 353.830
32.80000 375.985
32.84000 380.001
32.88000 383.950
32.92000 369.488
32.96000 358.458
33.00000 358.124
33.04000 365.589
33.08000 354.379
33.12000 339.274
33.16000 354.216
33.20000 334.355
33.24000 328.391
33.28000 345.429
33.32000 338.534
33.36000 355.611
33.40000 331.188
33.44000 338.774
33.48000 326.370
33.52000 325.207
33.56000 330.323
33.60000 331.741
33.64000 322.136
33.68000 342.991
33.72000 342.347
33.76000 337.989
33.80000 329.206
33.84000 338.091
33.88000 320.271
33.92000 324.974
33.96000 329.213
34.00000 325.331
34.04000 323.093
34.08000 315.592
34.12000 325.699
34.16000 302.894
34.20000 327.001
34.24000 307.545
34.28000 304.347
34.32000 318.610
34.36000 327.547
34.40000 321.331
34.44000 316.680
34.48000 314.540
34.52000 338.968
34.56000 313.561
34.60000 313.923
34.64000 337.564
34.68000 316.617
34.72000 324.902
34.76000 323.146
34.80000 317.078
34.84000 313.119
34.88000 319.363
34.92000 330.824
34.96000 299.667
35.00000 306.712
35.04000 303.573
35.08000 311.389
35.12000 319.098
35.16000 312.814
35.20000 317.725
35.24000 301.010
35.28000 304.612
35.32000 309.555
35.36000 313.133
35.40000 306.756
35.44000 305.139
35.48000 304.262
35.52000 299.072
35.56000 310.524
35.60000 303.950
35.64000 304.469
35.68000 335.074
35.72000 287.458
35.76000 295.389
35.80000 311.297
35.84000 292.704
35.88000 304.051
35.92000 311.128
35.96000 298.012
36.00000 294.051
36.04000 295.350
36.08000 285.650
36.12000 309.016
36.16000 303.514
36.20000 296.371
36.24000 303.265
36.28000 284.025
36.32000 294.725
36.36000 276.033
36.40000 298.581
36.44000 295.186
36.48000 273.291
36.52000 290.975
36.56000 309.478
36.60000 301.005
36.64000 299.085
36.68000 303.690
36.72000 273.906
36.76000 279.191
36.80000 311.557
36.84000 290.715
36.88000 313.022
36.92000 294.764
36.96000 303.287
37.00000 304.621
37.04000 291.613
37.08000 286.799
37.12000 284.275
37.16000 283.024
37.20000 289.447
37.24000 295.570
37.28000 296.051
37.32000 279.445
37.36000 279.544
37.40000 300.145
37.44000 281.235
37.48000 286.830
37.52000 279.213
37.56000 292.712
37.60000 288.364
37.64000 281.406
37.68000 282.990
37.72000 275.307
37.76000 285.862
37.80000 289.948
37.84000 291.637
37.88000 277.026
37.92000 290.015
37.96000 289.524
38.00000 290.023
38.04000 287.809
38.08000 283.077
38.12000 283.046
38.16000 286.065
38.20000 306.808
38.24000 306.792
38.28000 314.550
38.32000 308.408
38.36000 325.875
38.40000 352.486
38.44000 386.172
38.48000 413.630
38.52000 482.989
38.56000 569.204
38.60000 644.743
38.64000 721.248
38.68000 750.498
38.72000 750.205
38.76000 771.064
38.80000 711.627
38.84000 639.268
38.88000 581.575
38.92000 507.315
38.96000 415.263
39.00000 381.770
39.04000 341.821
39.08000 316.965
39.12000 308.537
39.16000 293.643
39.20000 274.483
39.24000 270.146
39.28000 282.975
39.32000 271.139
39.36000 244.083
39.40000 257.863
39.44000 273.257
39.48000 268.824
39.52000 272.361
39.56000 254.358
39.60000 264.029
39.64000 265.686
39.68000 264.892
39.72000 256.027
39.76000 253.698
39.80000 255.364
39.84000 270.738
39.88000 257.603
39.92000 258.914
39.96000 256.415
40.00000 244.136
40.04000 259.706
40.08000 256.985
40.12000 245.335
40.16000 252.027
40.20000 262.352
40.24000 259.010
40.28000 240.711
40.32000 247.453
40.36000 256.761
40.40000 249.159
40.44000 254.354
40.48000 251.896
40.52000 243.799
40.56000 250.889
40.60000 245.342
40.64000 242.517
40.68000 228.069
40.72000 238.876
40.76000 236.875
40.80000 236.359
40.84000 227.953
40.88000 252.281
40.92000 230.117
40.96000 253.311
41.00000 245.240
41.04000 255.004
41.08000 240.249
41.12000 243.146
41.16000 242.806
41.20000 237.858
41.24000 233.203
41.28000 227.896
41.32000 241.925
41.36000 243.941
41.40000 239.580
41.44000 246.464
41.48000 245.071
41.52000 235.839
41.56000 247.094
41.60000 239.196
41.64000 244.511
41.68000 232.785
41.72000 224.818
41.76000 242.149
41.80000 232.246
41.84000 239.227
41.88000 242.859
41.92000 234.486
41.96000 238.518
42.00000 238.344
42.04000 237.790
42.08000 227.756
42.12000 227.303
42.16000 227.461
42.20000 230.155
42.24000 224.857
42.28000 223.328
42.32000 236.106
42.36000 227.970
42.40000 221.189
42.44000 240.501
42.48000 236.626
42.52000 230.660
42.56000 228.875
42.60000 228.475
42.64000 224.100
42.68000 215.966
42.72000 230.721
42.76000 235.918
42.80000 224.661
42.84000 225.630
42.88000 232.049
42.92000 230.400
42.96000 232.622
43.00000 218.982
43.04000 215.229
43.08000 232.950
43.12000 220.000
43.16000 219.179
43.20000 236.190
43.24000 220.773
43.28000 224.390
43.32000 220.690
43.36000 227.009
43.40000 228.062
43.44000 214.551
43.48000 222.917
43.52000 221.084
43.56000 209.149
43.60000 223.052
43.64000 222.703
43.68000 222.660
43.72000 226.054
43.76000 222.267
43.80000 228.475
43.84000 213.328
43.88000 228.404
43.92000 221.114
43.96000 224.059
44.00000 202.131
44.04000 210.498
44.08000 216.216
44.12000 218.053
44.16000 210.922
44.20000 219.065
44.24000 221.923
44.28000 228.728
44.32000 222.403
44.36000 214.688
44.40000 216.322
44.44000 226.752
44.48000 217.298
44.52000 217.576
44.56000 225.506
44.60000 226.353
44.64000 233.817
44.68000 233.459
44.72000 237.269
44.76000 233.454
44.80000 245.065
44.84000 257.919
44.88000 258.328
44.92000 272.402
44.96000 268.794
45.00000 296.752
45.04000 297.819
45.08000 315.098
45.12000 290.725
45.16000 282.122
45.20000 306.842
45.24000 289.088
45.28000 295.508
45.32000 282.327
45.36000 270.290
45.40000 285.552
45.44000 289.518
45.48000 269.632
45.52000 270.087
45.56000 258.269
45.60000 233.162
45.64000 244.556
45.68000 258.494
45.72000 242.149
45.76000 240.435
45.80000 240.566
45.84000 230.561
45.88000 246.450
45.92000 226.920
45.96000 226.401
46.00000 227.800
46.04000 225.418
46.08000 226.397
46.12000 214.859
46.16000 208.858
46.20000 213.028
46.24000 191.015
46.28000 203.647
46.32000 213.882
46.36000 210.899
46.40000 191.550
46.44000 202.346
46.48000 199.998
46.52000 201.885
46.56000 192.653
46.60000 203.456
46.64000 194.290
46.68000 201.095
46.72000 190.363
46.76000 193.640
46.80000 192.196
46.84000 196.871
46.88000 187.955
46.92000 200.941
46.96000 196.501
47.00000 198.290
47.04000 178.149
47.08000 180.843
47.12000 194.989
47.16000 182.798
47.20000 184.318
47.24000 184.417
47.28000 193.039
47.32000 204.909
47.36000 187.725
47.40000 190.608
47.44000 186.315
47.48000 190.958
47.52000 180.282
47.56000 182.863
47.60000 183.618
47.64000 196.110
47.68000 198.289
47.72000 181.074
47.76000 194.458
47.80000 184.987
47.84000 183.530
47.88000 189.919
47.92000 179.156
47.96000 179.747
48.00000 195.510
48.04000 185.823
48.08000 181.447
48.12000 181.600
48.16000 188.150
48.20000 181.335
48.24000 194.484
48.28000 184.042
48.32000 176.088
48.36000 175.809
48.40000 176.656
48.44000 169.690
48.48000 190.319
48.52000 184.319
48.56000 188.612
48.60000 192.609
48.64000 178.939
48.68000 178.504
48.72000 172.637
48.76000 175.238
48.80000 160.884
48.84000 191.500
48.88000 186.886
48.92000 172.005
48.96000 181.029
49.00000 172.704
49.04000 168.343
49.08000 170.264
49.12000 176.122
49.16000 188.232
49.20000 162.468
49.24000 175.910
49.28000 170.839
49.32000 162.516
49.36000 181.969
49.40000 170.977
49.44000 168.686
49.48000 160.208
49.52000 167.317
49.56000 166.381
49.60000 166.726
49.64000 180.672
49.68000 174.336
49.72000 186.855
49.76000 168.359
49.80000 182.096
49.84000 166.933
49.88000 178.428
49.92000 176.469
49.96000 178.432
50.00000 167.512
50.04000 180.519
50.08000 185.520
50.12000 171.559
50.16000 176.566
50.20000 183.235
50.24000 174.184
50.28000 175.923
50.32000 183.068
50.36000 176.348
50.40000 188.454
50.44000 205.521
50.48000 192.678
50.52000 201.342
50.56000 198.514
50.60000 214.176
50.64000 230.546
50.68000 205.103
50.72000 201.627
50.76000 198.455
50.80000 197.153
50.84000 191.051
50.88000 195.347
50.92000 185.668
50.96000 192.271
51.00000 187.661
51.04000 185.374
51.08000 171.794
51.12000 193.005
51.16000 176.868
51.20000 178.679
51.24000 166.389
51.28000 169.111
51.32000 164.596
51.36000 169.424
51.40000 162.923
51.44000 168.541
51.48000 159.693
51.52000 156.643
51.56000 165.378
51.60000 158.169
51.64000 156.096
51.68000 158.355
51.72000 167.887
51.76000 165.699
51.80000 156.999
51.84000 164.919
51.88000 164.103
51.92000 163.749
51.96000 166.051
52.00000 165.643
52.04000 153.284
52.08000 152.886
52.12000 158.382
52.16000 161.504
52.20000 158.256
52.24000 152.744
52.28000 153.038
52.32000 148.326
52.36000 153.421
52.40000 164.917
52.44000 152.512
52.48000 159.324
52.52000 155.476
52.56000 155.258
52.60000 152.130
52.64000 141.242
52.68000 148.776
52.72000 156.508
52.76000 152.191
52.80000 155.078
52.84000 152.844
52.88000 150.444
52.92000 155.772
52.96000 144.815
53.00000 154.135
53.04000 157.929
53.08000 157.602
53.12000 157.664
53.16000 164.918
53.20000 154.454
53.24000 164.955
53.28000 156.472
53.32000 154.521
53.36000 148.600
53.40000 146.920
53.44000 150.048
53.48000 153.341
53.52000 168.367
53.56000 154.830
53.60000 164.131
53.64000 159.387
53.68000 149.673
53.72000 150.396
53.76000 144.755
53.80000 154.178
53.84000 152.301
53.88000 156.318
53.92000 152.992
53.96000 153.886
54.00000 144.666
54.04000 153.556
54.08000 147.772
54.12000 152.740
54.16000 154.512
54.20000 152.423
54.24000 149.242
54.28000 153.180
54.32000 142.933
54.36000 155.099
54.40000 158.393
54.44000 149.821
54.48000 150.029
54.52000 154.658
54.56000 148.702
54.60000 135.052
54.64000 155.853
54.68000 150.456
54.72000 152.918
54.76000 151.784
54.80000 162.643
54.84000 146.195
54.88000 153.675
54.92000 157.008
54.96000 152.607
55.00000 153.800
55.04000 156.158
55.08000 165.025
55.12000 159.491
55.16000 149.512
55.20000 158.117
55.24000 159.382
55.28000 161.549
55.32000 165.205
55.36000 169.218
55.40000 165.177
55.44000 179.054
55.48000 190.718
55.52000 199.593
55.56000 212.669
55.60000 223.540
55.64000 258.392
55.68000 290.399
55.72000 320.709
55.76000 338.333
55.80000 388.619
55.84000 418.123
55.88000 442.671
55.92000 449.017
55.96000 424.573
56.00000 451.375
56.04000 431.618
56.08000 392.184
56.12000 356.706
56.16000 307.922
56.20000 299.576
56.24000 275.027
56.28000 245.134
56.32000 218.941
56.36000 206.906
56.40000 204.956
56.44000 187.968
56.48000 172.085
56.52000 180.681
56.56000 171.876
56.60000 163.103
56.64000 155.070
56.68000 154.121
56.72000 152.160
56.76000 168.039
56.80000 150.010
56.84000 165.075
56.88000 150.626
56.92000 141.903
56.96000 139.897
57.00000 140.210
57.04000 140.529
57.08000 144.181
57.12000 154.228
57.16000 144.142
57.20000 150.308
57.24000 145.870
57.28000 138.318
57.32000 136.085
57.36000 149.405
57.40000 136.777
57.44000 135.755
57.48000 141.125
57.52000 138.984
57.56000 139.640
57.60000 139.932
57.64000 144.745
57.68000 143.491
57.72000 135.854
57.76000 140.169
57.80000 135.373
57.84000 145.846
57.88000 147.205
57.92000 128.870
57.96000 143.832
58.00000 143.698
58.04000 140.629
58.08000 147.995
58.12000 135.146
58.16000 146.191
58.20000 136.406
58.24000 132.204
58.28000 132.665
58.32000 139.569
58.36000 139.713
58.40000 136.420
58.44000 141.709
58.48000 140.655
58.52000 135.093
58.56000 131.669
58.60000 130.068
58.64000 119.673
58.68000 135.045
58.72000 134.661
58.76000 139.031
58.80000 130.755
58.84000 136.184
58.88000 136.765
58.92000 131.880
58.96000 137.025
59.00000 134.088
59.04000 141.918
59.08000 121.552
59.12000 133.406
59.16000 126.726
59.20000 134.722
59.24000 129.404
59.28000 124.666
59.32000 137.939
59.36000 132.150
59.40000 142.646
59.44000 138.136
59.48000 127.901
59.52000 128.249
59.56000 123.244
59.60000 131.136
59.64000 124.292
59.68000 128.389
59.72000 128.452
59.76000 130.966
59.80000 129.638
59.84000 130.846
59.88000 128.103
59.92000 142.688
59.96000 131.288
60.00000 128.326
60.04000 133.101
60.08000 131.974
60.12000 128.111
60.16000 123.647
60.20000 126.654
60.24000 141.557
60.28000 141.568
60.32000 137.203
60.36000 127.732
60.40000 131.554
60.44000 132.991
60.48000 142.904
60.52000 130.303
60.56000 132.652
60.60000 117.443
60.64000 127.568
60.68000 130.230
60.72000 135.017
60.76000 137.834
60.80000 133.664
60.84000 141.143
60.88000 139.050
60.92000 134.197
60.96000 133.441
61.00000 131.226
61.04000 138.072
61.08000 131.879
61.12000 138.729
61.16000 139.272
61.20000 131.500
61.24000 129.634
61.28000 134.503
61.32000 140.592
61.36000 138.577
61.40000 137.725
61.44000 145.002
61.48000 147.585
61.52000 170.646
61.56000 207.367
61.60000 245.067
61.64000 262.589
61.68000 276.341
61.72000 274.250
61.76000 249.647
61.80000 212.732
61.84000 180.872
61.88000 149.276
61.92000 149.143
61.96000 157.615
62.00000 144.656
62.04000 145.321
62.08000 132.407
62.12000 139.151
62.16000 136.565
62.20000 134.758
62.24000 136.129
62.28000 139.222
62.32000 139.980
62.36000 146.241
62.40000 141.040
62.44000 141.801
62.48000 149.559
62.52000 140.856
62.56000 151.941
62.60000 147.684
62.64000 144.073
62.68000 145.294
62.72000 147.142
62.76000 143.499
62.80000 151.485
62.84000 137.206
62.88000 147.912
62.92000 137.399
62.96000 142.675
63.00000 144.854
63.04000 147.206
63.08000 146.458
63.12000 134.898
63.16000 143.722
63.20000 155.104
63.24000 147.881
63.28000 149.023
63.32000 153.645
63.36000 145.833
63.40000 154.799
63.44000 145.570
63.48000 150.213
63.52000 149.703
63.56000 143.042
63.60000 145.748
63.64000 153.063
63.68000 150.425
63.72000 145.908
63.76000 156.445
63.80000 143.825
63.84000 150.191
63.88000 157.404
63.92000 164.342
63.96000 157.240
64.00000 157.552
64.04000 163.426
64.08000 154.914
64.12000 160.790
64.16000 154.368
64.20000 152.794
64.24000 166.066
64.28000 163.226
64.32000 154.821
64.36000 162.010
64.40000 162.711
64.44000 165.047
64.48000 163.926
64.52000 167.399
64.56000 170.956
64.60000 159.310
64.64000 172.367
64.68000 171.006
64.72000 173.265
64.76000 179.989
64.80000 182.215
64.84000 170.210
64.88000 178.189
64.92000 185.755
64.96000 178.928
65.00000 188.160
65.04000 202.309
65.08000 197.350
65.12000 210.519
65.16000 221.325
65.20000 221.342
65.24000 224.031
65.28000 242.287
65.32000 246.092
65.36000 248.680
65.40000 267.841
65.44000 271.178
65.48000 287.097
65.52000 298.754
65.56000 314.685
65.60000 312.763
65.64000 374.045
65.68000 430.424
65.72000 603.744
65.76000 827.876
65.80000 1015.737
65.84000 1097.092
65.88000 1136.714
65.92000 1106.716
65.96000 906.805
66.00000 663.481
66.04000 476.589
66.08000 371.636
66.12000 322.498
66.16000 316.879
66.20000 317.045
66.24000 324.200
66.28000 361.217
66.32000 410.557
66.36000 433.787
66.40000 456.003
66.44000 456.394
66.48000 448.239
66.52000 435.288
66.56000 371.240
66.60000 339.127
66.64000 298.591
66.68000 331.198
66.72000 321.367
66.76000 324.008
66.80000 314.983
66.84000 325.859
66.88000 339.814
66.92000 336.004
66.96000 335.458
67.00000 363.080
67.04000 354.346
67.08000 376.908
67.12000 341.229
67.16000 379.327
67.20000 387.174
67.24000 371.734
67.28000 415.317
67.32000 391.128
67.36000 405.727
67.40000 411.298
67.44000 425.964
67.48000 406.012
67.52000 437.114
67.56000 429.437
67.60000 445.581
67.64000 454.276
67.68000 467.845
67.72000 472.960
67.76000 494.912
67.80000 482.574
67.84000 505.534
67.88000 512.947
67.92000 512.935
67.96000 523.715
68.00000 555.724
68.04000 548.927
68.08000 546.105
68.12000 561.787
68.16000 607.915
68.20000 594.680
68.24000 609.223
68.28000 645.382
68.32000 633.610
68.36000 668.642
68.40000 722.935
68.44000 740.490
68.48000 747.427
68.52000 816.382
68.56000 873.787
68.60000 1010.411
68.64000 1151.270
68.68000 1363.247
68.72000 1589.316
68.76000 1783.709
68.80000 2076.673
68.84000 2446.903
68.88000 3112.253
68.92000 5216.496
68.96000 13359.900
69.00000 29694.740
69.04000 46755.480
69.08000 55168.684
69.12000 56839.332
69.16000 59337.805
69.20000 59044.965
69.24000 48767.789
69.28000 37171.004
69.32000 30670.338
69.36000 27631.152
69.40000 22643.330
69.44000 13640.761
69.48000 6451.249
69.52000 2925.343
69.56000 1897.897
69.60000 1496.400
69.64000 1291.917
69.68000 1122.151
69.72000 1029.827
69.76000 927.019
69.80000 851.774
69.84000 782.073
69.88000 761.409
69.92000 732.340
69.96000 692.058
70.00000 659.082