File: XRD/25-09-2025/XY Data/BTO_Mapping_Theta2Theta_25-09-2025_001_40_-24-271_-17-634.xy
20.00000 566.543
20.04000 548.581
20.08000 562.554
20.12000 545.360
20.16000 549.660
20.20000 554.986
20.24000 548.868
20.28000 549.993
20.32000 559.931
20.36000 550.492
20.40000 571.444
20.44000 563.181
20.48000 544.114
20.52000 527.892
20.56000 548.306
20.60000 559.645
20.64000 536.055
20.68000 545.101
20.72000 552.374
20.76000 581.326
20.80000 554.277
20.84000 551.757
20.88000 551.496
20.92000 544.066
20.96000 536.173
21.00000 552.588
21.04000 548.258
21.08000 552.899
21.12000 520.686
21.16000 524.318
21.20000 549.376
21.24000 532.034
21.28000 560.202
21.32000 557.626
21.36000 551.831
21.40000 549.318
21.44000 554.755
21.48000 553.218
21.52000 548.048
21.56000 563.609
21.60000 569.748
21.64000 556.140
21.68000 577.203
21.72000 619.421
21.76000 623.983
21.80000 690.155
21.84000 746.376
21.88000 780.585
21.92000 830.792
21.96000 864.172
22.00000 878.536
22.04000 874.505
22.08000 848.247
22.12000 791.873
22.16000 758.836
22.20000 705.509
22.24000 675.989
22.28000 633.342
22.32000 647.682
22.36000 600.308
22.40000 578.623
22.44000 581.847
22.48000 542.381
22.52000 544.147
22.56000 535.532
22.60000 509.306
22.64000 531.543
22.68000 516.185
22.72000 521.927
22.76000 510.376
22.80000 495.745
22.84000 512.630
22.88000 510.356
22.92000 515.867
22.96000 510.203
23.00000 514.919
23.04000 521.391
23.08000 499.074
23.12000 497.840
23.16000 509.701
23.20000 506.011
23.24000 493.795
23.28000 493.255
23.32000 494.395
23.36000 505.965
23.40000 511.911
23.44000 484.884
23.48000 486.852
23.52000 470.624
23.56000 478.418
23.60000 468.379
23.64000 506.247
23.68000 506.101
23.72000 480.618
23.76000 498.331
23.80000 493.535
23.84000 483.092
23.88000 484.358
23.92000 480.865
23.96000 488.457
24.00000 493.074
24.04000 484.166
24.08000 488.054
24.12000 498.551
24.16000 511.450
24.20000 488.611
24.24000 476.468
24.28000 477.243
24.32000 489.523
24.36000 472.768
24.40000 471.960
24.44000 472.416
24.48000 499.849
24.52000 460.945
24.56000 483.732
24.60000 460.772
24.64000 457.954
24.68000 473.789
24.72000 475.371
24.76000 491.988
24.80000 486.100
24.84000 465.952
24.88000 472.143
24.92000 477.076
24.96000 479.531
25.00000 474.129
25.04000 464.106
25.08000 475.871
25.12000 482.958
25.16000 458.174
25.20000 467.810
25.24000 463.758
25.28000 453.151
25.32000 490.029
25.36000 469.608
25.40000 468.347
25.44000 467.225
25.48000 471.519
25.52000 454.527
25.56000 459.941
25.60000 474.957
25.64000 455.353
25.68000 452.273
25.72000 453.342
25.76000 451.997
25.80000 458.186
25.84000 457.405
25.88000 447.696
25.92000 436.513
25.96000 455.692
26.00000 466.740
26.04000 447.844
26.08000 445.179
26.12000 453.404
26.16000 439.697
26.20000 441.244
26.24000 450.903
26.28000 460.486
26.32000 467.206
26.36000 443.733
26.40000 446.589
26.44000 448.446
26.48000 463.612
26.52000 442.970
26.56000 448.908
26.60000 455.183
26.64000 449.834
26.68000 449.026
26.72000 458.232
26.76000 434.669
26.80000 443.184
26.84000 439.759
26.88000 433.900
26.92000 455.050
26.96000 450.317
27.00000 452.425
27.04000 448.965
27.08000 440.745
27.12000 437.065
27.16000 447.563
27.20000 445.946
27.24000 451.681
27.28000 450.200
27.32000 436.449
27.36000 426.099
27.40000 438.861
27.44000 439.236
27.48000 423.594
27.52000 437.461
27.56000 420.727
27.60000 435.181
27.64000 445.235
27.68000 421.334
27.72000 425.456
27.76000 430.670
27.80000 432.243
27.84000 425.248
27.88000 422.075
27.92000 416.657
27.96000 427.281
28.00000 436.370
28.04000 424.615
28.08000 434.722
28.12000 430.484
28.16000 428.233
28.20000 440.876
28.24000 417.124
28.28000 439.888
28.32000 415.943
28.36000 416.638
28.40000 423.989
28.44000 411.316
28.48000 406.960
28.52000 420.831
28.56000 405.661
28.60000 415.667
28.64000 424.977
28.68000 411.101
28.72000 424.389
28.76000 404.882
28.80000 429.666
28.84000 409.578
28.88000 405.072
28.92000 423.488
28.96000 413.294
29.00000 401.251
29.04000 416.206
29.08000 413.371
29.12000 404.708
29.16000 404.975
29.20000 415.485
29.24000 371.574
29.28000 403.033
29.32000 405.745
29.36000 419.765
29.40000 400.822
29.44000 405.035
29.48000 399.987
29.52000 401.644
29.56000 410.664
29.60000 402.679
29.64000 405.036
29.68000 412.245
29.72000 394.410
29.76000 416.051
29.80000 427.638
29.84000 424.854
29.88000 393.524
29.92000 416.908
29.96000 434.058
30.00000 453.266
30.04000 429.554
30.08000 439.995
30.12000 427.213
30.16000 443.375
30.20000 435.804
30.24000 432.780
30.28000 427.318
30.32000 414.485
30.36000 424.445
30.40000 431.107
30.44000 431.865
30.48000 419.446
30.52000 432.286
30.56000 437.695
30.60000 428.959
30.64000 442.606
30.68000 426.850
30.72000 442.022
30.76000 447.520
30.80000 451.768
30.84000 482.610
30.88000 488.876
30.92000 540.338
30.96000 559.378
31.00000 648.694
31.04000 799.181
31.08000 972.791
31.12000 1165.164
31.16000 1490.699
31.20000 1856.626
31.24000 2211.207
31.28000 2531.658
31.32000 2708.664
31.36000 2751.609
31.40000 2620.744
31.44000 2445.040
31.48000 2126.161
31.52000 1832.218
31.56000 1518.047
31.60000 1228.958
31.64000 1038.686
31.68000 882.137
31.72000 733.580
31.76000 657.653
31.80000 593.543
31.84000 543.345
31.88000 509.845
31.92000 472.352
31.96000 448.211
32.00000 432.731
32.04000 415.602
32.08000 410.296
32.12000 400.854
32.16000 399.701
32.20000 385.637
32.24000 386.012
32.28000 381.692
32.32000 373.314
32.36000 390.464
32.40000 376.485
32.44000 371.433
32.48000 370.781
32.52000 368.052
32.56000 373.565
32.60000 358.567
32.64000 391.001
32.68000 376.834
32.72000 369.191
32.76000 362.959
32.80000 372.952
32.84000 394.512
32.88000 397.288
32.92000 399.677
32.96000 394.547
33.00000 395.168
33.04000 374.201
33.08000 369.200
33.12000 356.286
33.16000 342.394
33.20000 345.923
33.24000 343.538
33.28000 348.933
33.32000 346.025
33.36000 350.453
33.40000 349.213
33.44000 348.951
33.48000 336.886
33.52000 340.731
33.56000 341.488
33.60000 344.119
33.64000 341.275
33.68000 350.640
33.72000 319.303
33.76000 339.708
33.80000 335.094
33.84000 338.790
33.88000 333.875
33.92000 331.208
33.96000 329.315
34.00000 336.552
34.04000 323.460
34.08000 320.298
34.12000 332.625
34.16000 336.966
34.20000 327.643
34.24000 327.605
34.28000 327.712
34.32000 334.781
34.36000 320.665
34.40000 318.710
34.44000 324.276
34.48000 313.322
34.52000 339.722
34.56000 320.514
34.60000 315.936
34.64000 318.234
34.68000 303.723
34.72000 338.368
34.76000 320.259
34.80000 314.660
34.84000 307.934
34.88000 320.810
34.92000 318.891
34.96000 324.295
35.00000 309.371
35.04000 308.515
35.08000 307.325
35.12000 313.915
35.16000 323.131
35.20000 317.092
35.24000 308.843
35.28000 312.359
35.32000 299.700
35.36000 316.467
35.40000 321.487
35.44000 308.523
35.48000 326.950
35.52000 308.694
35.56000 311.023
35.60000 310.626
35.64000 303.061
35.68000 302.232
35.72000 307.251
35.76000 307.156
35.80000 288.982
35.84000 309.616
35.88000 290.834
35.92000 303.121
35.96000 309.200
36.00000 301.450
36.04000 300.528
36.08000 301.389
36.12000 305.036
36.16000 314.561
36.20000 302.978
36.24000 311.142
36.28000 298.268
36.32000 289.203
36.36000 279.330
36.40000 278.646
36.44000 290.201
36.48000 277.964
36.52000 295.246
36.56000 292.561
36.60000 319.269
36.64000 290.498
36.68000 296.329
36.72000 289.354
36.76000 292.094
36.80000 296.772
36.84000 283.301
36.88000 278.311
36.92000 287.155
36.96000 297.766
37.00000 288.989
37.04000 301.520
37.08000 302.274
37.12000 288.537
37.16000 301.183
37.20000 284.591
37.24000 296.147
37.28000 287.121
37.32000 288.507
37.36000 295.238
37.40000 284.982
37.44000 284.370
37.48000 277.127
37.52000 300.205
37.56000 298.211
37.60000 288.888
37.64000 275.094
37.68000 291.652
37.72000 278.010
37.76000 288.494
37.80000 281.352
37.84000 275.315
37.88000 290.535
37.92000 284.944
37.96000 284.027
38.00000 300.924
38.04000 294.437
38.08000 287.399
38.12000 284.197
38.16000 294.845
38.20000 302.310
38.24000 304.325
38.28000 305.536
38.32000 323.047
38.36000 338.615
38.40000 356.679
38.44000 380.895
38.48000 431.482
38.52000 447.790
38.56000 480.516
38.60000 506.632
38.64000 525.861
38.68000 509.100
38.72000 501.435
38.76000 478.158
38.80000 450.489
38.84000 399.953
38.88000 396.591
38.92000 365.355
38.96000 326.010
39.00000 327.049
39.04000 301.532
39.08000 297.012
39.12000 289.411
39.16000 272.029
39.20000 276.238
39.24000 272.427
39.28000 264.832
39.32000 263.220
39.36000 261.537
39.40000 265.187
39.44000 275.078
39.48000 270.038
39.52000 257.764
39.56000 266.513
39.60000 257.232
39.64000 248.467
39.68000 253.483
39.72000 263.031
39.76000 257.813
39.80000 247.656
39.84000 263.471
39.88000 248.438
39.92000 261.908
39.96000 258.251
40.00000 259.936
40.04000 269.609
40.08000 259.044
40.12000 257.451
40.16000 242.778
40.20000 266.222
40.24000 256.422
40.28000 253.178
40.32000 250.253
40.36000 254.708
40.40000 249.138
40.44000 243.671
40.48000 258.574
40.52000 253.409
40.56000 239.255
40.60000 238.524
40.64000 254.478
40.68000 243.904
40.72000 236.674
40.76000 240.222
40.80000 242.542
40.84000 231.693
40.88000 231.508
40.92000 236.562
40.96000 245.270
41.00000 241.441
41.04000 259.512
41.08000 246.585
41.12000 253.387
41.16000 242.141
41.20000 245.707
41.24000 223.112
41.28000 239.517
41.32000 242.281
41.36000 247.787
41.40000 251.241
41.44000 239.464
41.48000 239.419
41.52000 244.443
41.56000 236.580
41.60000 242.872
41.64000 239.801
41.68000 235.852
41.72000 248.373
41.76000 236.846
41.80000 241.815
41.84000 231.892
41.88000 227.812
41.92000 228.839
41.96000 250.881
42.00000 218.538
42.04000 223.375
42.08000 236.334
42.12000 220.591
42.16000 229.834
42.20000 223.427
42.24000 235.857
42.28000 231.073
42.32000 227.272
42.36000 238.504
42.40000 229.500
42.44000 233.056
42.48000 234.993
42.52000 216.991
42.56000 221.842
42.60000 228.778
42.64000 232.793
42.68000 224.694
42.72000 234.552
42.76000 229.560
42.80000 223.837
42.84000 233.946
42.88000 240.465
42.92000 232.380
42.96000 230.503
43.00000 236.331
43.04000 226.643
43.08000 227.009
43.12000 226.869
43.16000 220.922
43.20000 231.063
43.24000 226.631
43.28000 220.897
43.32000 235.053
43.36000 219.268
43.40000 228.302
43.44000 232.684
43.48000 228.559
43.52000 229.406
43.56000 224.584
43.60000 221.761
43.64000 222.389
43.68000 225.581
43.72000 210.548
43.76000 229.365
43.80000 222.513
43.84000 223.932
43.88000 233.545
43.92000 206.468
43.96000 224.352
44.00000 226.036
44.04000 224.325
44.08000 229.226
44.12000 225.521
44.16000 233.912
44.20000 218.833
44.24000 238.715
44.28000 230.597
44.32000 235.569
44.36000 228.417
44.40000 255.731
44.44000 242.688
44.48000 256.349
44.52000 266.065
44.56000 260.175
44.60000 283.836
44.64000 316.921
44.68000 352.154
44.72000 367.025
44.76000 396.374
44.80000 417.859
44.84000 437.971
44.88000 460.976
44.92000 465.055
44.96000 475.866
45.00000 456.584
45.04000 435.872
45.08000 405.303
45.12000 405.368
45.16000 384.597
45.20000 354.195
45.24000 347.350
45.28000 316.661
45.32000 327.295
45.36000 313.801
45.40000 285.517
45.44000 291.627
45.48000 280.164
45.52000 280.607
45.56000 264.219
45.60000 259.148
45.64000 242.395
45.68000 236.213
45.72000 241.141
45.76000 233.964
45.80000 222.442
45.84000 234.665
45.88000 223.545
45.92000 238.471
45.96000 223.305
46.00000 217.574
46.04000 208.311
46.08000 212.219
46.12000 223.913
46.16000 206.616
46.20000 203.604
46.24000 208.234
46.28000 205.762
46.32000 193.023
46.36000 207.801
46.40000 205.187
46.44000 193.369
46.48000 201.985
46.52000 196.461
46.56000 203.735
46.60000 202.718
46.64000 200.459
46.68000 196.585
46.72000 198.982
46.76000 194.164
46.80000 194.873
46.84000 201.744
46.88000 192.015
46.92000 190.782
46.96000 184.781
47.00000 201.434
47.04000 188.003
47.08000 203.247
47.12000 195.304
47.16000 186.742
47.20000 195.316
47.24000 193.780
47.28000 190.536
47.32000 182.988
47.36000 185.429
47.40000 181.576
47.44000 194.265
47.48000 187.988
47.52000 181.630
47.56000 180.118
47.60000 196.205
47.64000 179.576
47.68000 176.067
47.72000 183.009
47.76000 185.648
47.80000 187.360
47.84000 197.316
47.88000 184.680
47.92000 184.759
47.96000 185.734
48.00000 170.560
48.04000 184.038
48.08000 177.210
48.12000 189.121
48.16000 195.284
48.20000 188.030
48.24000 181.808
48.28000 182.653
48.32000 193.729
48.36000 189.501
48.40000 186.766
48.44000 176.470
48.48000 189.499
48.52000 178.554
48.56000 185.924
48.60000 173.719
48.64000 173.316
48.68000 178.385
48.72000 176.055
48.76000 177.409
48.80000 195.477
48.84000 176.850
48.88000 177.511
48.92000 173.758
48.96000 175.825
49.00000 162.180
49.04000 183.862
49.08000 172.367
49.12000 179.459
49.16000 175.008
49.20000 173.140
49.24000 182.796
49.28000 178.606
49.32000 179.051
49.36000 172.564
49.40000 186.161
49.44000 168.314
49.48000 179.855
49.52000 179.780
49.56000 181.558
49.60000 173.435
49.64000 165.297
49.68000 180.556
49.72000 169.538
49.76000 178.105
49.80000 174.146
49.84000 175.289
49.88000 169.963
49.92000 179.637
49.96000 179.899
50.00000 179.445
50.04000 181.483
50.08000 175.508
50.12000 179.246
50.16000 186.890
50.20000 189.410
50.24000 188.311
50.28000 191.541
50.32000 198.615
50.36000 189.874
50.40000 210.197
50.44000 213.521
50.48000 220.770
50.52000 230.776
50.56000 241.069
50.60000 232.968
50.64000 238.726
50.68000 225.574
50.72000 231.274
50.76000 235.379
50.80000 222.827
50.84000 216.505
50.88000 219.952
50.92000 203.438
50.96000 200.962
51.00000 194.552
51.04000 184.959
51.08000 196.007
51.12000 179.699
51.16000 167.686
51.20000 170.760
51.24000 173.711
51.28000 172.108
51.32000 176.436
51.36000 167.400
51.40000 173.974
51.44000 169.098
51.48000 168.626
51.52000 159.467
51.56000 163.881
51.60000 160.317
51.64000 170.190
51.68000 168.895
51.72000 166.168
51.76000 164.348
51.80000 161.480
51.84000 162.630
51.88000 158.398
51.92000 164.086
51.96000 156.424
52.00000 162.049
52.04000 154.967
52.08000 164.244
52.12000 161.943
52.16000 154.685
52.20000 161.520
52.24000 163.132
52.28000 158.273
52.32000 164.381
52.36000 161.591
52.40000 154.444
52.44000 162.334
52.48000 168.404
52.52000 163.100
52.56000 158.195
52.60000 158.560
52.64000 169.878
52.68000 158.462
52.72000 157.696
52.76000 160.310
52.80000 152.837
52.84000 161.165
52.88000 154.482
52.92000 161.616
52.96000 152.300
53.00000 162.614
53.04000 157.001
53.08000 163.033
53.12000 165.403
53.16000 143.876
53.20000 154.756
53.24000 167.470
53.28000 148.802
53.32000 150.259
53.36000 147.871
53.40000 150.596
53.44000 151.117
53.48000 149.167
53.52000 162.754
53.56000 167.984
53.60000 147.869
53.64000 146.181
53.68000 157.592
53.72000 160.601
53.76000 157.737
53.80000 151.286
53.84000 157.563
53.88000 157.060
53.92000 152.983
53.96000 158.056
54.00000 145.019
54.04000 150.083
54.08000 145.379
54.12000 152.262
54.16000 145.119
54.20000 167.671
54.24000 153.666
54.28000 146.981
54.32000 161.175
54.36000 144.062
54.40000 149.883
54.44000 159.598
54.48000 151.523
54.52000 145.214
54.56000 157.237
54.60000 169.347
54.64000 149.598
54.68000 155.384
54.72000 164.444
54.76000 155.838
54.80000 146.959
54.84000 157.293
54.88000 155.518
54.92000 162.162
54.96000 169.365
55.00000 158.830
55.04000 153.681
55.08000 168.510
55.12000 156.124
55.16000 164.373
55.20000 166.186
55.24000 170.336
55.28000 158.197
55.32000 179.441
55.36000 180.376
55.40000 185.890
55.44000 197.912
55.48000 212.619
55.52000 232.862
55.56000 246.869
55.60000 265.878
55.64000 276.956
55.68000 322.309
55.72000 358.637
55.76000 370.752
55.80000 396.017
55.84000 407.677
55.88000 395.857
55.92000 386.529
55.96000 374.089
56.00000 362.054
56.04000 345.966
56.08000 323.109
56.12000 302.729
56.16000 285.184
56.20000 265.619
56.24000 236.915
56.28000 228.258
56.32000 209.150
56.36000 205.254
56.40000 189.860
56.44000 185.277
56.48000 188.275
56.52000 165.475
56.56000 154.606
56.60000 158.394
56.64000 161.659
56.68000 163.477
56.72000 146.723
56.76000 145.943
56.80000 151.374
56.84000 146.727
56.88000 153.202
56.92000 141.090
56.96000 150.666
57.00000 148.814
57.04000 146.115
57.08000 139.364
57.12000 144.466
57.16000 141.204
57.20000 146.615
57.24000 137.893
57.28000 145.163
57.32000 138.475
57.36000 137.068
57.40000 148.229
57.44000 146.237
57.48000 150.869
57.52000 148.317
57.56000 144.119
57.60000 148.263
57.64000 137.824
57.68000 146.220
57.72000 143.804
57.76000 143.392
57.80000 141.956
57.84000 134.448
57.88000 135.640
57.92000 156.351
57.96000 143.731
58.00000 135.051
58.04000 138.415
58.08000 134.600
58.12000 134.959
58.16000 146.874
58.20000 138.612
58.24000 144.254
58.28000 152.814
58.32000 134.762
58.36000 143.922
58.40000 134.308
58.44000 139.766
58.48000 149.094
58.52000 140.117
58.56000 131.619
58.60000 135.880
58.64000 132.847
58.68000 138.421
58.72000 144.798
58.76000 141.276
58.80000 134.274
58.84000 138.151
58.88000 143.282
58.92000 135.249
58.96000 130.696
59.00000 139.613
59.04000 131.818
59.08000 125.274
59.12000 128.789
59.16000 133.466
59.20000 132.275
59.24000 131.943
59.28000 121.563
59.32000 133.698
59.36000 133.052
59.40000 133.287
59.44000 121.000
59.48000 138.628
59.52000 140.152
59.56000 127.794
59.60000 131.061
59.64000 134.006
59.68000 128.528
59.72000 145.753
59.76000 133.115
59.80000 136.103
59.84000 136.549
59.88000 126.781
59.92000 132.908
59.96000 140.314
60.00000 134.340
60.04000 131.009
60.08000 135.703
60.12000 120.154
60.16000 132.779
60.20000 125.303
60.24000 126.512
60.28000 131.675
60.32000 134.166
60.36000 127.112
60.40000 126.209
60.44000 132.656
60.48000 130.764
60.52000 132.725
60.56000 133.681
60.60000 135.793
60.64000 132.706
60.68000 137.550
60.72000 131.415
60.76000 135.203
60.80000 140.323
60.84000 124.384
60.88000 128.658
60.92000 140.363
60.96000 140.497
61.00000 129.559
61.04000 126.020
61.08000 142.399
61.12000 134.123
61.16000 147.991
61.20000 137.368
61.24000 139.061
61.28000 130.215
61.32000 141.092
61.36000 138.063
61.40000 132.406
61.44000 147.661
61.48000 150.798
61.52000 182.360
61.56000 240.013
61.60000 304.005
61.64000 337.402
61.68000 360.886
61.72000 360.802
61.76000 351.116
61.80000 272.529
61.84000 200.128
61.88000 151.841
61.92000 158.876
61.96000 161.950
62.00000 149.754
62.04000 143.349
62.08000 146.396
62.12000 148.355
62.16000 145.853
62.20000 140.790
62.24000 146.247
62.28000 139.924
62.32000 138.522
62.36000 142.505
62.40000 145.936
62.44000 152.921
62.48000 137.907
62.52000 141.260
62.56000 146.127
62.60000 151.849
62.64000 147.786
62.68000 145.044
62.72000 138.161
62.76000 135.150
62.80000 150.744
62.84000 150.367
62.88000 147.752
62.92000 145.857
62.96000 149.116
63.00000 150.088
63.04000 152.444
63.08000 144.192
63.12000 147.982
63.16000 152.376
63.20000 146.335
63.24000 151.892
63.28000 159.209
63.32000 152.502
63.36000 151.221
63.40000 163.903
63.44000 163.197
63.48000 156.968
63.52000 164.521
63.56000 146.701
63.60000 159.058
63.64000 165.504
63.68000 172.116
63.72000 145.403
63.76000 153.460
63.80000 154.499
63.84000 154.842
63.88000 152.296
63.92000 163.649
63.96000 162.557
64.00000 169.017
64.04000 151.935
64.08000 167.395
64.12000 155.622
64.16000 165.101
64.20000 157.166
64.24000 158.365
64.28000 174.739
64.32000 165.730
64.36000 170.333
64.40000 164.578
64.44000 165.865
64.48000 173.295
64.52000 168.436
64.56000 174.955
64.60000 178.709
64.64000 192.811
64.68000 185.736
64.72000 185.714
64.76000 192.075
64.80000 193.583
64.84000 189.834
64.88000 193.702
64.92000 204.326
64.96000 213.111
65.00000 220.935
65.04000 212.829
65.08000 236.530
65.12000 245.272
65.16000 245.762
65.20000 275.143
65.24000 292.575
65.28000 292.000
65.32000 315.230
65.36000 310.929
65.40000 341.048
65.44000 345.285
65.48000 351.362
65.52000 370.682
65.56000 391.127
65.60000 407.891
65.64000 472.830
65.68000 573.140
65.72000 827.189
65.76000 1153.297
65.80000 1450.992
65.84000 1569.086
65.88000 1628.583
65.92000 1554.329
65.96000 1298.077
66.00000 911.636
66.04000 616.967
66.08000 468.752
66.12000 400.292
66.16000 375.793
66.20000 371.601
66.24000 395.373
66.28000 441.354
66.32000 502.113
66.36000 574.584
66.40000 582.622
66.44000 604.191
66.48000 569.627
66.52000 516.055
66.56000 423.151
66.60000 406.435
66.64000 381.621
66.68000 382.390
66.72000 368.282
66.76000 371.898
66.80000 370.896
66.84000 380.766
66.88000 391.815
66.92000 405.257
66.96000 393.934
67.00000 396.761
67.04000 426.397
67.08000 408.250
67.12000 434.263
67.16000 438.556
67.20000 430.581
67.24000 466.194
67.28000 465.951
67.32000 440.813
67.36000 472.875
67.40000 474.494
67.44000 483.197
67.48000 496.723
67.52000 500.812
67.56000 499.432
67.60000 524.275
67.64000 533.436
67.68000 515.406
67.72000 556.351
67.76000 566.167
67.80000 557.888
67.84000 577.287
67.88000 589.545
67.92000 622.734
67.96000 620.789
68.00000 643.607
68.04000 660.136
68.08000 676.832
68.12000 684.216
68.16000 682.933
68.20000 700.518
68.24000 735.247
68.28000 773.963
68.32000 790.547
68.36000 806.208
68.40000 842.177
68.44000 882.063
68.48000 952.087
68.52000 993.883
68.56000 1084.797
68.60000 1252.970
68.64000 1491.999
68.68000 1780.803
68.72000 2110.772
68.76000 2446.883
68.80000 2839.034
68.84000 3509.712
68.88000 4643.093
68.92000 8269.811
68.96000 21003.535
69.00000 45599.047
69.04000 71037.148
69.08000 83489.000
69.12000 86826.016
69.16000 89847.617
69.20000 88355.016
69.24000 73585.828
69.28000 57073.711
69.32000 46448.211
69.36000 41506.711
69.40000 33409.531
69.44000 20404.615
69.48000 9763.009
69.52000 4164.877
69.56000 2527.170
69.60000 1984.657
69.64000 1594.110
69.68000 1405.483
69.72000 1229.200
69.76000 1126.227
69.80000 1037.484
69.84000 989.378
69.88000 888.327
69.92000 865.518
69.96000 830.151
70.00000 768.197