File: XRD/25-09-2025/XY Data/BTO_Mapping_Theta2Theta_25-09-2025_001_06_9-135_4-067.xy
20.00000 543.721
20.04000 543.799
20.08000 553.691
20.12000 573.553
20.16000 553.771
20.20000 549.377
20.24000 555.444
20.28000 564.454
20.32000 544.438
20.36000 561.074
20.40000 523.083
20.44000 552.325
20.48000 551.382
20.52000 537.877
20.56000 548.495
20.60000 542.233
20.64000 562.105
20.68000 547.701
20.72000 536.335
20.76000 549.863
20.80000 527.338
20.84000 544.524
20.88000 534.089
20.92000 501.660
20.96000 549.311
21.00000 531.390
21.04000 539.126
21.08000 533.871
21.12000 556.266
21.16000 530.675
21.20000 534.232
21.24000 540.869
21.28000 543.175
21.32000 526.405
21.36000 568.821
21.40000 542.233
21.44000 537.458
21.48000 545.096
21.52000 541.243
21.56000 536.390
21.60000 543.305
21.64000 535.036
21.68000 546.984
21.72000 561.186
21.76000 553.698
21.80000 554.724
21.84000 545.518
21.88000 571.232
21.92000 575.266
21.96000 579.590
22.00000 603.385
22.04000 610.068
22.08000 611.055
22.12000 610.509
22.16000 612.493
22.20000 632.159
22.24000 619.276
22.28000 607.041
22.32000 620.817
22.36000 602.875
22.40000 578.592
22.44000 597.267
22.48000 599.786
22.52000 554.716
22.56000 541.909
22.60000 526.937
22.64000 534.846
22.68000 506.447
22.72000 528.700
22.76000 521.041
22.80000 525.328
22.84000 522.906
22.88000 481.716
22.92000 480.150
22.96000 489.352
23.00000 506.452
23.04000 488.831
23.08000 498.892
23.12000 513.548
23.16000 507.662
23.20000 508.409
23.24000 500.793
23.28000 505.244
23.32000 504.608
23.36000 494.023
23.40000 519.907
23.44000 498.078
23.48000 503.439
23.52000 477.193
23.56000 497.805
23.60000 496.818
23.64000 497.551
23.68000 495.769
23.72000 472.180
23.76000 485.252
23.80000 476.461
23.84000 470.427
23.88000 473.189
23.92000 484.856
23.96000 487.967
24.00000 488.807
24.04000 498.767
24.08000 500.318
24.12000 493.611
24.16000 475.085
24.20000 482.431
24.24000 487.877
24.28000 488.561
24.32000 493.124
24.36000 483.886
24.40000 473.848
24.44000 474.030
24.48000 481.234
24.52000 483.933
24.56000 507.307
24.60000 473.463
24.64000 491.206
24.68000 481.472
24.72000 461.578
24.76000 467.626
24.80000 464.656
24.84000 467.305
24.88000 474.912
24.92000 459.522
24.96000 467.623
25.00000 459.500
25.04000 473.328
25.08000 456.021
25.12000 471.688
25.16000 473.089
25.20000 459.857
25.24000 462.847
25.28000 469.304
25.32000 468.374
25.36000 449.244
25.40000 472.708
25.44000 458.650
25.48000 451.229
25.52000 465.598
25.56000 459.301
25.60000 457.345
25.64000 470.507
25.68000 476.427
25.72000 450.084
25.76000 461.978
25.80000 432.325
25.84000 449.472
25.88000 439.279
25.92000 451.512
25.96000 431.933
26.00000 433.553
26.04000 451.965
26.08000 449.042
26.12000 456.303
26.16000 469.183
26.20000 458.431
26.24000 443.095
26.28000 434.363
26.32000 434.240
26.36000 453.261
26.40000 459.380
26.44000 444.397
26.48000 455.318
26.52000 452.066
26.56000 435.184
26.60000 428.495
26.64000 425.295
26.68000 456.396
26.72000 441.595
26.76000 447.034
26.80000 442.933
26.84000 444.398
26.88000 437.890
26.92000 425.423
26.96000 435.547
27.00000 436.037
27.04000 436.268
27.08000 437.300
27.12000 435.237
27.16000 445.304
27.20000 428.932
27.24000 418.479
27.28000 441.303
27.32000 433.479
27.36000 432.417
27.40000 425.899
27.44000 445.430
27.48000 428.339
27.52000 428.916
27.56000 403.392
27.60000 432.862
27.64000 436.811
27.68000 427.193
27.72000 432.884
27.76000 423.474
27.80000 421.185
27.84000 425.006
27.88000 429.536
27.92000 428.206
27.96000 434.335
28.00000 409.118
28.04000 424.852
28.08000 426.357
28.12000 418.822
28.16000 409.915
28.20000 421.812
28.24000 415.427
28.28000 410.695
28.32000 396.796
28.36000 413.477
28.40000 419.155
28.44000 420.004
28.48000 418.711
28.52000 414.869
28.56000 400.003
28.60000 403.633
28.64000 403.500
28.68000 423.084
28.72000 394.954
28.76000 412.900
28.80000 396.081
28.84000 422.456
28.88000 420.626
28.92000 410.545
28.96000 414.370
29.00000 413.881
29.04000 421.595
29.08000 407.620
29.12000 414.292
29.16000 396.512
29.20000 392.308
29.24000 396.165
29.28000 410.095
29.32000 395.714
29.36000 396.518
29.40000 391.537
29.44000 395.698
29.48000 402.117
29.52000 401.155
29.56000 391.167
29.60000 410.771
29.64000 383.340
29.68000 398.123
29.72000 403.643
29.76000 395.745
29.80000 401.551
29.84000 405.537
29.88000 401.927
29.92000 424.615
29.96000 419.020
30.00000 392.798
30.04000 411.519
30.08000 407.763
30.12000 407.523
30.16000 399.375
30.20000 395.711
30.24000 406.883
30.28000 395.116
30.32000 400.932
30.36000 387.590
30.40000 388.873
30.44000 409.994
30.48000 384.104
30.52000 395.852
30.56000 394.653
30.60000 413.130
30.64000 425.873
30.68000 414.239
30.72000 430.081
30.76000 420.941
30.80000 418.367
30.84000 416.574
30.88000 415.754
30.92000 442.290
30.96000 446.860
31.00000 473.795
31.04000 482.611
31.08000 529.397
31.12000 596.652
31.16000 668.821
31.20000 797.740
31.24000 913.221
31.28000 1023.997
31.32000 1132.780
31.36000 1229.832
31.40000 1298.755
31.44000 1244.598
31.48000 1195.050
31.52000 1071.040
31.56000 969.438
31.60000 837.635
31.64000 737.724
31.68000 654.621
31.72000 570.739
31.76000 507.209
31.80000 500.662
31.84000 475.573
31.88000 457.505
31.92000 442.792
31.96000 428.649
32.00000 415.360
32.04000 425.704
32.08000 414.859
32.12000 401.077
32.16000 394.507
32.20000 399.050
32.24000 378.714
32.28000 375.610
32.32000 368.446
32.36000 397.001
32.40000 369.319
32.44000 371.028
32.48000 371.293
32.52000 382.888
32.56000 343.158
32.60000 377.370
32.64000 375.038
32.68000 357.828
32.72000 366.097
32.76000 356.372
32.80000 368.170
32.84000 366.745
32.88000 382.072
32.92000 360.495
32.96000 355.575
33.00000 368.723
33.04000 369.475
33.08000 349.937
33.12000 350.590
33.16000 331.080
33.20000 341.516
33.24000 345.782
33.28000 343.054
33.32000 344.298
33.36000 334.614
33.40000 345.135
33.44000 344.625
33.48000 349.171
33.52000 336.222
33.56000 339.455
33.60000 332.247
33.64000 325.716
33.68000 338.944
33.72000 320.652
33.76000 338.458
33.80000 338.611
33.84000 333.142
33.88000 325.962
33.92000 319.882
33.96000 336.524
34.00000 315.124
34.04000 321.511
34.08000 333.545
34.12000 327.524
34.16000 309.270
34.20000 313.030
34.24000 327.079
34.28000 323.175
34.32000 305.299
34.36000 323.692
34.40000 310.859
34.44000 321.231
34.48000 312.670
34.52000 317.111
34.56000 312.395
34.60000 312.024
34.64000 319.287
34.68000 328.762
34.72000 313.031
34.76000 305.755
34.80000 320.557
34.84000 307.494
34.88000 317.623
34.92000 310.121
34.96000 312.638
35.00000 317.027
35.04000 292.323
35.08000 316.583
35.12000 311.804
35.16000 311.852
35.20000 299.009
35.24000 294.280
35.28000 303.783
35.32000 312.080
35.36000 319.217
35.40000 319.575
35.44000 296.247
35.48000 309.751
35.52000 301.056
35.56000 307.661
35.60000 307.713
35.64000 293.603
35.68000 296.304
35.72000 299.604
35.76000 297.427
35.80000 302.210
35.84000 292.132
35.88000 288.381
35.92000 296.964
35.96000 311.004
36.00000 296.193
36.04000 292.500
36.08000 285.241
36.12000 296.094
36.16000 278.178
36.20000 289.907
36.24000 301.166
36.28000 294.914
36.32000 299.222
36.36000 284.394
36.40000 278.634
36.44000 276.451
36.48000 275.161
36.52000 295.789
36.56000 292.319
36.60000 302.682
36.64000 276.785
36.68000 293.465
36.72000 285.030
36.76000 286.589
36.80000 283.556
36.84000 286.921
36.88000 292.944
36.92000 290.845
36.96000 293.408
37.00000 298.517
37.04000 296.081
37.08000 301.650
37.12000 290.517
37.16000 286.936
37.20000 301.853
37.24000 288.702
37.28000 292.562
37.32000 294.193
37.36000 286.518
37.40000 294.471
37.44000 296.013
37.48000 304.960
37.52000 291.134
37.56000 280.932
37.60000 292.584
37.64000 286.701
37.68000 281.192
37.72000 285.012
37.76000 292.719
37.80000 291.712
37.84000 257.596
37.88000 283.659
37.92000 274.079
37.96000 290.543
38.00000 278.606
38.04000 284.871
38.08000 290.171
38.12000 308.322
38.16000 290.224
38.20000 296.652
38.24000 286.345
38.28000 280.021
38.32000 307.601
38.36000 309.443
38.40000 330.318
38.44000 363.534
38.48000 380.770
38.52000 445.773
38.56000 493.966
38.60000 618.673
38.64000 661.177
38.68000 751.939
38.72000 807.524
38.76000 842.287
38.80000 766.733
38.84000 695.984
38.88000 650.142
38.92000 532.002
38.96000 462.013
39.00000 382.488
39.04000 354.553
39.08000 317.171
39.12000 289.941
39.16000 295.455
39.20000 280.310
39.24000 285.003
39.28000 277.552
39.32000 269.895
39.36000 260.135
39.40000 266.543
39.44000 253.682
39.48000 260.150
39.52000 264.102
39.56000 268.877
39.60000 279.018
39.64000 263.162
39.68000 264.010
39.72000 258.953
39.76000 254.251
39.80000 255.165
39.84000 270.273
39.88000 265.693
39.92000 260.638
39.96000 263.429
40.00000 257.273
40.04000 263.816
40.08000 270.065
40.12000 255.936
40.16000 255.375
40.20000 249.984
40.24000 244.977
40.28000 253.687
40.32000 246.162
40.36000 250.282
40.40000 258.263
40.44000 261.563
40.48000 244.032
40.52000 235.724
40.56000 244.862
40.60000 233.887
40.64000 255.195
40.68000 249.029
40.72000 255.115
40.76000 240.649
40.80000 249.521
40.84000 238.892
40.88000 252.669
40.92000 248.178
40.96000 242.819
41.00000 248.831
41.04000 246.934
41.08000 243.921
41.12000 251.892
41.16000 243.855
41.20000 236.671
41.24000 232.511
41.28000 242.142
41.32000 256.030
41.36000 234.615
41.40000 240.221
41.44000 223.833
41.48000 238.847
41.52000 230.886
41.56000 236.577
41.60000 223.265
41.64000 233.309
41.68000 229.713
41.72000 227.687
41.76000 236.769
41.80000 232.747
41.84000 230.010
41.88000 238.105
41.92000 247.174
41.96000 228.521
42.00000 236.657
42.04000 243.063
42.08000 236.427
42.12000 229.528
42.16000 240.921
42.20000 247.447
42.24000 226.286
42.28000 239.175
42.32000 224.213
42.36000 223.368
42.40000 230.934
42.44000 223.881
42.48000 224.780
42.52000 217.916
42.56000 231.690
42.60000 238.726
42.64000 216.870
42.68000 218.760
42.72000 229.771
42.76000 224.082
42.80000 229.259
42.84000 226.051
42.88000 219.229
42.92000 221.426
42.96000 225.029
43.00000 227.173
43.04000 228.822
43.08000 231.922
43.12000 224.821
43.16000 217.865
43.20000 227.268
43.24000 218.336
43.28000 225.273
43.32000 205.345
43.36000 215.035
43.40000 234.502
43.44000 228.622
43.48000 227.137
43.52000 231.848
43.56000 210.325
43.60000 219.706
43.64000 223.433
43.68000 215.421
43.72000 210.602
43.76000 206.709
43.80000 215.554
43.84000 214.808
43.88000 227.824
43.92000 222.124
43.96000 221.563
44.00000 204.465
44.04000 219.356
44.08000 212.447
44.12000 212.166
44.16000 203.559
44.20000 218.810
44.24000 217.194
44.28000 208.751
44.32000 222.313
44.36000 209.718
44.40000 212.351
44.44000 219.139
44.48000 203.976
44.52000 218.864
44.56000 222.293
44.60000 217.087
44.64000 222.785
44.68000 216.622
44.72000 229.205
44.76000 214.426
44.80000 215.068
44.84000 234.423
44.88000 225.936
44.92000 240.306
44.96000 253.271
45.00000 249.005
45.04000 251.481
45.08000 247.988
45.12000 269.623
45.16000 256.033
45.20000 258.834
45.24000 256.824
45.28000 236.519
45.32000 253.471
45.36000 252.207
45.40000 262.729
45.44000 260.522
45.48000 241.002
45.52000 265.185
45.56000 262.288
45.60000 247.505
45.64000 248.943
45.68000 240.242
45.72000 244.522
45.76000 234.229
45.80000 215.571
45.84000 231.607
45.88000 229.916
45.92000 224.474
45.96000 225.528
46.00000 238.316
46.04000 221.281
46.08000 222.438
46.12000 211.051
46.16000 202.291
46.20000 201.649
46.24000 196.786
46.28000 210.485
46.32000 208.259
46.36000 195.141
46.40000 198.098
46.44000 204.810
46.48000 203.404
46.52000 198.695
46.56000 210.491
46.60000 200.649
46.64000 183.926
46.68000 202.482
46.72000 198.601
46.76000 197.757
46.80000 189.555
46.84000 197.442
46.88000 207.623
46.92000 194.118
46.96000 182.560
47.00000 195.242
47.04000 190.970
47.08000 199.818
47.12000 180.920
47.16000 200.094
47.20000 185.293
47.24000 177.620
47.28000 190.476
47.32000 183.193
47.36000 175.798
47.40000 192.355
47.44000 185.304
47.48000 185.261
47.52000 187.647
47.56000 195.105
47.60000 190.092
47.64000 180.685
47.68000 185.421
47.72000 182.926
47.76000 180.231
47.80000 193.032
47.84000 185.524
47.88000 192.013
47.92000 186.140
47.96000 188.133
48.00000 183.021
48.04000 189.820
48.08000 177.316
48.12000 182.820
48.16000 179.375
48.20000 184.636
48.24000 176.835
48.28000 184.485
48.32000 176.990
48.36000 179.511
48.40000 173.875
48.44000 177.282
48.48000 195.379
48.52000 190.049
48.56000 186.641
48.60000 199.723
48.64000 176.154
48.68000 172.238
48.72000 179.752
48.76000 186.016
48.80000 169.426
48.84000 167.352
48.88000 180.880
48.92000 175.914
48.96000 179.097
49.00000 184.206
49.04000 166.081
49.08000 172.208
49.12000 187.620
49.16000 178.289
49.20000 166.247
49.24000 179.872
49.28000 182.733
49.32000 163.898
49.36000 175.734
49.40000 172.861
49.44000 173.373
49.48000 164.334
49.52000 171.396
49.56000 175.419
49.60000 169.442
49.64000 163.063
49.68000 173.444
49.72000 166.055
49.76000 165.410
49.80000 172.687
49.84000 177.518
49.88000 168.804
49.92000 168.654
49.96000 171.488
50.00000 180.099
50.04000 168.353
50.08000 170.729
50.12000 173.394
50.16000 173.030
50.20000 173.080
50.24000 163.488
50.28000 184.622
50.32000 166.221
50.36000 179.952
50.40000 170.665
50.44000 184.131
50.48000 180.182
50.52000 182.501
50.56000 186.380
50.60000 186.372
50.64000 187.638
50.68000 196.734
50.72000 196.747
50.76000 190.082
50.80000 194.245
50.84000 190.950
50.88000 189.304
50.92000 184.014
50.96000 173.606
51.00000 171.231
51.04000 181.385
51.08000 174.802
51.12000 172.468
51.16000 165.840
51.20000 170.785
51.24000 164.477
51.28000 173.096
51.32000 164.423
51.36000 167.748
51.40000 170.032
51.44000 167.633
51.48000 157.422
51.52000 157.978
51.56000 161.549
51.60000 162.428
51.64000 153.566
51.68000 157.607
51.72000 165.257
51.76000 164.304
51.80000 164.960
51.84000 154.874
51.88000 157.947
51.92000 142.961
51.96000 168.866
52.00000 160.411
52.04000 156.291
52.08000 160.084
52.12000 162.576
52.16000 156.962
52.20000 156.002
52.24000 151.193
52.28000 156.827
52.32000 152.409
52.36000 147.501
52.40000 156.063
52.44000 152.824
52.48000 152.731
52.52000 154.154
52.56000 157.159
52.60000 139.203
52.64000 162.286
52.68000 154.943
52.72000 152.360
52.76000 162.493
52.80000 153.078
52.84000 166.068
52.88000 156.880
52.92000 144.889
52.96000 149.240
53.00000 160.769
53.04000 158.142
53.08000 155.132
53.12000 148.148
53.16000 150.007
53.20000 150.358
53.24000 156.460
53.28000 153.145
53.32000 158.859
53.36000 155.210
53.40000 158.832
53.44000 148.174
53.48000 146.198
53.52000 152.352
53.56000 164.596
53.60000 151.652
53.64000 151.022
53.68000 153.656
53.72000 151.930
53.76000 156.582
53.80000 150.308
53.84000 148.501
53.88000 144.835
53.92000 158.603
53.96000 157.932
54.00000 145.136
54.04000 151.357
54.08000 149.257
54.12000 147.373
54.16000 148.313
54.20000 145.442
54.24000 154.744
54.28000 159.296
54.32000 151.870
54.36000 161.501
54.40000 146.544
54.44000 153.323
54.48000 144.377
54.52000 150.257
54.56000 147.891
54.60000 162.700
54.64000 152.641
54.68000 147.627
54.72000 146.546
54.76000 148.679
54.80000 153.684
54.84000 143.075
54.88000 135.392
54.92000 151.945
54.96000 153.102
55.00000 148.480
55.04000 155.530
55.08000 152.654
55.12000 154.216
55.16000 156.446
55.20000 143.506
55.24000 156.339
55.28000 161.874
55.32000 161.776
55.36000 162.844
55.40000 163.363
55.44000 163.347
55.48000 169.516
55.52000 171.732
55.56000 173.457
55.60000 215.765
55.64000 219.192
55.68000 234.237
55.72000 267.809
55.76000 302.436
55.80000 352.083
55.84000 371.552
55.88000 395.455
55.92000 422.681
55.96000 421.294
56.00000 459.938
56.04000 445.688
56.08000 441.365
56.12000 397.257
56.16000 371.936
56.20000 338.882
56.24000 308.636
56.28000 260.609
56.32000 234.700
56.36000 230.536
56.40000 204.700
56.44000 190.618
56.48000 176.952
56.52000 167.248
56.56000 158.038
56.60000 162.538
56.64000 166.456
56.68000 160.672
56.72000 157.297
56.76000 147.513
56.80000 152.955
56.84000 143.973
56.88000 147.055
56.92000 153.834
56.96000 144.195
57.00000 144.509
57.04000 144.364
57.08000 140.224
57.12000 140.609
57.16000 144.142
57.20000 137.429
57.24000 140.967
57.28000 141.764
57.32000 133.515
57.36000 132.969
57.40000 135.728
57.44000 136.206
57.48000 135.257
57.52000 141.508
57.56000 145.459
57.60000 136.957
57.64000 134.147
57.68000 142.703
57.72000 140.857
57.76000 145.138
57.80000 146.204
57.84000 141.330
57.88000 135.061
57.92000 140.978
57.96000 134.270
58.00000 129.364
58.04000 146.130
58.08000 138.866
58.12000 135.506
58.16000 138.357
58.20000 134.184
58.24000 136.950
58.28000 126.950
58.32000 129.713
58.36000 131.899
58.40000 144.617
58.44000 133.817
58.48000 134.491
58.52000 130.600
58.56000 135.872
58.60000 129.178
58.64000 134.851
58.68000 138.395
58.72000 127.047
58.76000 139.279
58.80000 122.849
58.84000 130.232
58.88000 127.703
58.92000 135.736
58.96000 134.791
59.00000 121.401
59.04000 123.999
59.08000 127.171
59.12000 137.055
59.16000 126.545
59.20000 131.232
59.24000 136.697
59.28000 135.780
59.32000 132.921
59.36000 129.403
59.40000 135.523
59.44000 129.952
59.48000 134.730
59.52000 130.287
59.56000 127.328
59.60000 129.141
59.64000 138.952
59.68000 138.618
59.72000 136.902
59.76000 131.052
59.80000 130.675
59.84000 131.473
59.88000 125.909
59.92000 126.019
59.96000 125.175
60.00000 133.823
60.04000 129.563
60.08000 128.652
60.12000 128.701
60.16000 131.964
60.20000 137.318
60.24000 132.781
60.28000 125.079
60.32000 132.917
60.36000 133.332
60.40000 127.273
60.44000 124.842
60.48000 132.436
60.52000 136.882
60.56000 133.672
60.60000 150.331
60.64000 139.521
60.68000 133.632
60.72000 148.283
60.76000 134.685
60.80000 132.444
60.84000 132.691
60.88000 135.306
60.92000 129.514
60.96000 132.647
61.00000 138.131
61.04000 136.843
61.08000 132.892
61.12000 140.239
61.16000 126.870
61.20000 130.423
61.24000 128.379
61.28000 139.898
61.32000 139.413
61.36000 126.387
61.40000 131.613
61.44000 137.540
61.48000 140.565
61.52000 155.077
61.56000 188.747
61.60000 227.724
61.64000 240.102
61.68000 247.446
61.72000 262.366
61.76000 263.647
61.80000 208.765
61.84000 179.991
61.88000 147.864
61.92000 147.978
61.96000 147.889
62.00000 140.541
62.04000 144.451
62.08000 148.405
62.12000 143.986
62.16000 141.466
62.20000 145.078
62.24000 144.809
62.28000 137.522
62.32000 144.588
62.36000 144.387
62.40000 138.220
62.44000 137.069
62.48000 140.517
62.52000 145.038
62.56000 133.621
62.60000 142.648
62.64000 136.818
62.68000 132.594
62.72000 144.917
62.76000 147.423
62.80000 138.520
62.84000 144.168
62.88000 145.725
62.92000 147.285
62.96000 138.250
63.00000 130.452
63.04000 143.263
63.08000 143.753
63.12000 142.867
63.16000 141.274
63.20000 146.644
63.24000 149.991
63.28000 142.868
63.32000 147.926
63.36000 145.526
63.40000 156.420
63.44000 152.838
63.48000 153.027
63.52000 148.332
63.56000 142.543
63.60000 149.737
63.64000 151.766
63.68000 157.864
63.72000 156.802
63.76000 152.541
63.80000 163.849
63.84000 152.853
63.88000 153.569
63.92000 141.012
63.96000 153.551
64.00000 162.570
64.04000 169.788
64.08000 156.786
64.12000 147.411
64.16000 159.877
64.20000 164.936
64.24000 161.451
64.28000 164.740
64.32000 162.884
64.36000 154.686
64.40000 163.068
64.44000 161.997
64.48000 168.540
64.52000 177.016
64.56000 169.588
64.60000 166.698
64.64000 165.311
64.68000 175.952
64.72000 172.646
64.76000 185.827
64.80000 172.164
64.84000 177.075
64.88000 170.508
64.92000 178.068
64.96000 188.224
65.00000 185.616
65.04000 187.984
65.08000 184.670
65.12000 184.556
65.16000 198.662
65.20000 187.910
65.24000 202.796
65.28000 217.744
65.32000 216.517
65.36000 233.413
65.40000 231.420
65.44000 234.143
65.48000 258.245
65.52000 264.322
65.56000 272.319
65.60000 284.408
65.64000 331.538
65.68000 379.217
65.72000 518.750
65.76000 706.749
65.80000 939.179
65.84000 1035.156
65.88000 1065.888
65.92000 1019.392
65.96000 890.676
66.00000 639.968
66.04000 462.348
66.08000 373.116
66.12000 305.473
66.16000 298.205
66.20000 303.699
66.24000 318.636
66.28000 337.106
66.32000 400.148
66.36000 423.628
66.40000 426.638
66.44000 442.899
66.48000 443.450
66.52000 410.632
66.56000 366.728
66.60000 327.660
66.64000 328.864
66.68000 317.304
66.72000 313.540
66.76000 316.255
66.80000 318.030
66.84000 312.215
66.88000 324.898
66.92000 339.363
66.96000 347.426
67.00000 350.294
67.04000 366.167
67.08000 367.481
67.12000 364.489
67.16000 367.024
67.20000 367.527
67.24000 378.540
67.28000 373.877
67.32000 393.575
67.36000 403.397
67.40000 402.862
67.44000 431.842
67.48000 414.415
67.52000 435.830
67.56000 434.682
67.60000 434.739
67.64000 462.355
67.68000 467.037
67.72000 443.120
67.76000 459.353
67.80000 503.699
67.84000 486.357
67.88000 486.944
67.92000 491.948
67.96000 508.871
68.00000 523.637
68.04000 544.452
68.08000 544.853
68.12000 563.992
68.16000 580.274
68.20000 595.954
68.24000 608.995
68.28000 591.339
68.32000 629.526
68.36000 688.500
68.40000 686.966
68.44000 726.945
68.48000 761.123
68.52000 776.285
68.56000 857.303
68.60000 938.327
68.64000 1103.800
68.68000 1302.214
68.72000 1507.344
68.76000 1699.379
68.80000 1895.736
68.84000 2188.397
68.88000 2732.232
68.92000 4335.468
68.96000 10769.791
69.00000 25235.910
69.04000 42062.129
69.08000 51237.328
69.12000 53275.703
69.16000 55201.184
69.20000 56156.391
69.24000 47754.063
69.28000 36040.625
69.32000 29272.445
69.36000 26507.592
69.40000 22456.164
69.44000 14170.513
69.48000 6625.090
69.52000 2964.027
69.56000 1869.408
69.60000 1456.491
69.64000 1277.559
69.68000 1086.589
69.72000 968.046
69.76000 914.966
69.80000 845.466
69.84000 788.252
69.88000 764.035
69.92000 707.011
69.96000 700.731
70.00000 651.280