File: XRD/25-09-2025/XY Data/BTO_Mapping_Theta2Theta_25-09-2025_001_24_-15-000_25-981.xy
20.00000 547.943
20.04000 564.133
20.08000 564.055
20.12000 576.556
20.16000 559.412
20.20000 562.978
20.24000 546.599
20.28000 557.213
20.32000 565.609
20.36000 554.284
20.40000 567.624
20.44000 557.786
20.48000 550.129
20.52000 547.050
20.56000 548.052
20.60000 552.714
20.64000 526.929
20.68000 539.521
20.72000 560.486
20.76000 548.898
20.80000 540.903
20.84000 539.006
20.88000 533.497
20.92000 554.992
20.96000 532.620
21.00000 535.621
21.04000 558.609
21.08000 551.172
21.12000 540.435
21.16000 531.022
21.20000 541.177
21.24000 557.959
21.28000 540.840
21.32000 545.326
21.36000 541.281
21.40000 537.081
21.44000 532.486
21.48000 534.725
21.52000 538.244
21.56000 542.792
21.60000 566.917
21.64000 537.401
21.68000 547.377
21.72000 557.056
21.76000 549.683
21.80000 576.293
21.84000 553.817
21.88000 587.749
21.92000 594.310
21.96000 621.082
22.00000 653.989
22.04000 659.044
22.08000 654.372
22.12000 648.472
22.16000 636.499
22.20000 640.475
22.24000 621.575
22.28000 618.328
22.32000 610.406
22.36000 592.010
22.40000 615.127
22.44000 577.265
22.48000 585.298
22.52000 547.003
22.56000 540.240
22.60000 554.558
22.64000 539.095
22.68000 514.721
22.72000 531.225
22.76000 530.890
22.80000 510.113
22.84000 524.247
22.88000 498.840
22.92000 502.793
22.96000 494.410
23.00000 505.991
23.04000 505.940
23.08000 497.208
23.12000 513.696
23.16000 484.242
23.20000 501.685
23.24000 501.683
23.28000 516.159
23.32000 524.399
23.36000 498.514
23.40000 497.508
23.44000 502.325
23.48000 490.885
23.52000 490.314
23.56000 508.649
23.60000 493.965
23.64000 485.167
23.68000 497.168
23.72000 498.240
23.76000 497.316
23.80000 475.718
23.84000 482.595
23.88000 482.805
23.92000 477.315
23.96000 480.586
24.00000 484.801
24.04000 477.385
24.08000 484.326
24.12000 486.044
24.16000 468.351
24.20000 486.708
24.24000 488.953
24.28000 475.292
24.32000 492.984
24.36000 486.910
24.40000 475.186
24.44000 465.002
24.48000 453.718
24.52000 479.693
24.56000 455.012
24.60000 477.598
24.64000 476.553
24.68000 470.287
24.72000 480.915
24.76000 466.446
24.80000 487.037
24.84000 475.462
24.88000 477.158
24.92000 458.376
24.96000 490.763
25.00000 469.121
25.04000 482.908
25.08000 453.633
25.12000 456.883
25.16000 450.886
25.20000 465.241
25.24000 465.576
25.28000 475.240
25.32000 461.507
25.36000 464.480
25.40000 445.807
25.44000 475.845
25.48000 485.476
25.52000 463.202
25.56000 461.000
25.60000 467.987
25.64000 468.386
25.68000 477.058
25.72000 453.726
25.76000 444.623
25.80000 444.721
25.84000 460.539
25.88000 460.943
25.92000 476.947
25.96000 449.749
26.00000 463.185
26.04000 461.301
26.08000 452.981
26.12000 451.777
26.16000 450.912
26.20000 451.107
26.24000 460.946
26.28000 457.808
26.32000 438.811
26.36000 433.703
26.40000 453.063
26.44000 464.535
26.48000 452.389
26.52000 445.678
26.56000 434.998
26.60000 422.598
26.64000 422.896
26.68000 448.549
26.72000 439.339
26.76000 431.319
26.80000 442.385
26.84000 429.089
26.88000 447.904
26.92000 432.607
26.96000 435.691
27.00000 442.367
27.04000 430.535
27.08000 448.908
27.12000 448.036
27.16000 440.625
27.20000 436.505
27.24000 446.759
27.28000 422.149
27.32000 433.791
27.36000 419.865
27.40000 423.713
27.44000 414.329
27.48000 431.255
27.52000 430.475
27.56000 430.047
27.60000 419.624
27.64000 433.158
27.68000 419.753
27.72000 411.687
27.76000 427.770
27.80000 421.141
27.84000 416.598
27.88000 429.913
27.92000 425.732
27.96000 404.983
28.00000 432.782
28.04000 417.895
28.08000 426.896
28.12000 420.937
28.16000 422.468
28.20000 401.657
28.24000 430.601
28.28000 405.639
28.32000 411.458
28.36000 415.346
28.40000 421.038
28.44000 413.826
28.48000 413.954
28.52000 404.360
28.56000 422.678
28.60000 422.393
28.64000 431.910
28.68000 412.044
28.72000 404.929
28.76000 406.778
28.80000 399.913
28.84000 404.543
28.88000 402.150
28.92000 418.833
28.96000 399.919
29.00000 395.842
29.04000 403.300
29.08000 409.736
29.12000 389.139
29.16000 402.634
29.20000 400.162
29.24000 417.139
29.28000 401.491
29.32000 384.384
29.36000 399.841
29.40000 412.659
29.44000 399.590
29.48000 399.425
29.52000 419.367
29.56000 389.747
29.60000 395.748
29.64000 402.540
29.68000 395.669
29.72000 406.035
29.76000 404.827
29.80000 414.987
29.84000 412.561
29.88000 407.657
29.92000 416.558
29.96000 405.287
30.00000 395.901
30.04000 391.661
30.08000 421.909
30.12000 406.249
30.16000 419.007
30.20000 405.972
30.24000 405.599
30.28000 412.542
30.32000 409.785
30.36000 396.433
30.40000 399.860
30.44000 387.787
30.48000 394.965
30.52000 393.483
30.56000 386.401
30.60000 406.783
30.64000 406.688
30.68000 395.798
30.72000 412.294
30.76000 416.966
30.80000 422.563
30.84000 411.181
30.88000 420.225
30.92000 426.580
30.96000 446.379
31.00000 481.669
31.04000 516.957
31.08000 575.651
31.12000 675.692
31.16000 759.295
31.20000 925.492
31.24000 1100.204
31.28000 1264.347
31.32000 1420.344
31.36000 1519.450
31.40000 1546.769
31.44000 1510.427
31.48000 1384.419
31.52000 1264.333
31.56000 1088.862
31.60000 911.927
31.64000 743.349
31.68000 660.579
31.72000 582.124
31.76000 541.210
31.80000 501.739
31.84000 480.309
31.88000 442.689
31.92000 430.317
31.96000 418.384
32.00000 398.896
32.04000 414.958
32.08000 390.480
32.12000 378.823
32.16000 376.886
32.20000 392.687
32.24000 392.816
32.28000 387.774
32.32000 379.692
32.36000 366.713
32.40000 363.274
32.44000 374.349
32.48000 359.627
32.52000 382.887
32.56000 366.280
32.60000 366.123
32.64000 352.200
32.68000 358.222
32.72000 366.146
32.76000 361.748
32.80000 365.760
32.84000 371.461
32.88000 368.184
32.92000 378.800
32.96000 350.902
33.00000 365.691
33.04000 360.285
33.08000 350.817
33.12000 334.945
33.16000 354.465
33.20000 322.606
33.24000 338.691
33.28000 336.953
33.32000 359.539
33.36000 320.023
33.40000 331.387
33.44000 335.911
33.48000 329.702
33.52000 334.307
33.56000 328.249
33.60000 346.224
33.64000 336.394
33.68000 338.206
33.72000 339.152
33.76000 326.741
33.80000 326.327
33.84000 336.698
33.88000 320.741
33.92000 331.775
33.96000 344.612
34.00000 318.376
34.04000 322.329
34.08000 333.310
34.12000 323.310
34.16000 338.497
34.20000 318.136
34.24000 327.452
34.28000 307.671
34.32000 311.187
34.36000 321.957
34.40000 317.506
34.44000 316.037
34.48000 318.588
34.52000 313.546
34.56000 305.685
34.60000 331.715
34.64000 313.566
34.68000 309.308
34.72000 326.980
34.76000 315.020
34.80000 304.501
34.84000 312.244
34.88000 316.367
34.92000 311.398
34.96000 317.939
35.00000 312.149
35.04000 299.474
35.08000 310.926
35.12000 308.943
35.16000 303.410
35.20000 321.324
35.24000 300.950
35.28000 309.606
35.32000 310.552
35.36000 302.496
35.40000 305.725
35.44000 320.226
35.48000 285.394
35.52000 286.336
35.56000 297.736
35.60000 295.187
35.64000 295.472
35.68000 295.517
35.72000 301.498
35.76000 292.151
35.80000 297.182
35.84000 301.005
35.88000 296.008
35.92000 296.561
35.96000 299.818
36.00000 297.609
36.04000 294.652
36.08000 298.829
36.12000 297.753
36.16000 296.973
36.20000 299.555
36.24000 274.455
36.28000 283.695
36.32000 284.156
36.36000 290.588
36.40000 287.350
36.44000 301.444
36.48000 285.105
36.52000 279.622
36.56000 289.095
36.60000 305.246
36.64000 290.804
36.68000 286.914
36.72000 295.888
36.76000 288.037
36.80000 287.334
36.84000 289.798
36.88000 319.397
36.92000 283.749
36.96000 297.372
37.00000 299.580
37.04000 309.782
37.08000 307.377
37.12000 286.104
37.16000 288.230
37.20000 292.272
37.24000 291.935
37.28000 286.120
37.32000 288.759
37.36000 291.409
37.40000 288.420
37.44000 285.933
37.48000 283.786
37.52000 276.376
37.56000 276.552
37.60000 293.669
37.64000 271.304
37.68000 275.970
37.72000 269.862
37.76000 291.652
37.80000 297.258
37.84000 288.626
37.88000 296.997
37.92000 291.701
37.96000 276.001
38.00000 294.293
38.04000 294.884
38.08000 289.159
38.12000 290.448
38.16000 291.101
38.20000 288.921
38.24000 310.760
38.28000 291.542
38.32000 306.872
38.36000 318.658
38.40000 343.515
38.44000 398.699
38.48000 427.693
38.52000 478.454
38.56000 553.463
38.60000 638.301
38.64000 719.365
38.68000 779.261
38.72000 795.728
38.76000 784.111
38.80000 747.019
38.84000 690.297
38.88000 590.603
38.92000 516.972
38.96000 458.211
39.00000 388.409
39.04000 355.717
39.08000 321.265
39.12000 313.159
39.16000 311.405
39.20000 285.551
39.24000 273.892
39.28000 286.875
39.32000 268.961
39.36000 257.241
39.40000 266.408
39.44000 268.285
39.48000 267.319
39.52000 266.790
39.56000 253.451
39.60000 271.936
39.64000 261.244
39.68000 266.050
39.72000 267.401
39.76000 266.103
39.80000 264.849
39.84000 258.306
39.88000 252.174
39.92000 268.260
39.96000 263.468
40.00000 253.885
40.04000 255.071
40.08000 253.432
40.12000 246.730
40.16000 275.899
40.20000 266.827
40.24000 253.630
40.28000 238.118
40.32000 244.445
40.36000 244.997
40.40000 258.415
40.44000 250.468
40.48000 254.284
40.52000 248.562
40.56000 239.891
40.60000 247.589
40.64000 258.249
40.68000 252.575
40.72000 236.670
40.76000 241.586
40.80000 247.148
40.84000 246.561
40.88000 231.076
40.92000 237.480
40.96000 257.188
41.00000 243.502
41.04000 242.033
41.08000 246.109
41.12000 237.363
41.16000 254.264
41.20000 245.354
41.24000 235.279
41.28000 249.041
41.32000 243.893
41.36000 226.055
41.40000 241.893
41.44000 243.197
41.48000 229.965
41.52000 236.337
41.56000 243.132
41.60000 236.806
41.64000 233.065
41.68000 226.762
41.72000 228.737
41.76000 237.845
41.80000 244.881
41.84000 243.996
41.88000 234.854
41.92000 226.996
41.96000 226.043
42.00000 228.509
42.04000 220.233
42.08000 226.942
42.12000 225.664
42.16000 232.668
42.20000 232.626
42.24000 232.367
42.28000 228.321
42.32000 235.374
42.36000 229.018
42.40000 227.894
42.44000 222.787
42.48000 236.999
42.52000 227.545
42.56000 222.564
42.60000 225.099
42.64000 226.008
42.68000 238.386
42.72000 214.878
42.76000 216.956
42.80000 221.928
42.84000 213.935
42.88000 219.102
42.92000 217.636
42.96000 219.573
43.00000 213.133
43.04000 210.035
43.08000 233.787
43.12000 237.430
43.16000 223.668
43.20000 237.756
43.24000 228.717
43.28000 222.509
43.32000 222.011
43.36000 222.343
43.40000 232.952
43.44000 208.988
43.48000 218.503
43.52000 226.134
43.56000 221.286
43.60000 226.863
43.64000 223.392
43.68000 213.159
43.72000 234.392
43.76000 227.347
43.80000 229.146
43.84000 224.276
43.88000 223.209
43.92000 223.693
43.96000 224.230
44.00000 217.251
44.04000 220.869
44.08000 221.980
44.12000 218.263
44.16000 222.805
44.20000 212.327
44.24000 229.357
44.28000 232.822
44.32000 216.012
44.36000 224.358
44.40000 211.302
44.44000 217.623
44.48000 217.181
44.52000 213.439
44.56000 218.102
44.60000 225.518
44.64000 224.944
44.68000 237.318
44.72000 241.573
44.76000 237.022
44.80000 234.337
44.84000 234.393
44.88000 250.245
44.92000 260.421
44.96000 268.148
45.00000 273.996
45.04000 273.092
45.08000 283.303
45.12000 290.492
45.16000 287.426
45.20000 293.323
45.24000 269.077
45.28000 281.252
45.32000 272.361
45.36000 279.352
45.40000 274.071
45.44000 264.641
45.48000 256.045
45.52000 266.116
45.56000 250.359
45.60000 251.386
45.64000 253.597
45.68000 248.147
45.72000 244.181
45.76000 242.567
45.80000 241.409
45.84000 233.258
45.88000 237.579
45.92000 226.375
45.96000 225.291
46.00000 211.298
46.04000 216.714
46.08000 216.013
46.12000 211.864
46.16000 211.683
46.20000 213.002
46.24000 211.434
46.28000 204.132
46.32000 201.074
46.36000 198.253
46.40000 205.944
46.44000 196.415
46.48000 199.637
46.52000 200.179
46.56000 203.166
46.60000 195.791
46.64000 199.601
46.68000 195.374
46.72000 198.994
46.76000 197.504
46.80000 196.509
46.84000 211.879
46.88000 194.551
46.92000 201.746
46.96000 190.584
47.00000 181.207
47.04000 193.877
47.08000 197.999
47.12000 190.829
47.16000 194.018
47.20000 185.837
47.24000 197.329
47.28000 192.896
47.32000 202.665
47.36000 191.161
47.40000 191.061
47.44000 178.107
47.48000 180.209
47.52000 178.319
47.56000 190.660
47.60000 184.450
47.64000 187.739
47.68000 183.592
47.72000 181.614
47.76000 185.847
47.80000 185.567
47.84000 187.073
47.88000 194.809
47.92000 180.624
47.96000 183.550
48.00000 182.284
48.04000 175.226
48.08000 184.012
48.12000 180.113
48.16000 181.455
48.20000 177.916
48.24000 180.882
48.28000 183.534
48.32000 179.094
48.36000 181.807
48.40000 173.943
48.44000 181.012
48.48000 182.538
48.52000 193.972
48.56000 177.198
48.60000 170.546
48.64000 185.619
48.68000 179.061
48.72000 176.524
48.76000 172.757
48.80000 170.908
48.84000 170.786
48.88000 170.598
48.92000 181.006
48.96000 171.469
49.00000 181.513
49.04000 170.809
49.08000 166.997
49.12000 176.341
49.16000 173.557
49.20000 168.873
49.24000 176.181
49.28000 178.479
49.32000 168.173
49.36000 173.224
49.40000 175.750
49.44000 175.369
49.48000 181.526
49.52000 172.776
49.56000 161.413
49.60000 170.815
49.64000 177.065
49.68000 165.825
49.72000 171.628
49.76000 168.069
49.80000 177.384
49.84000 173.480
49.88000 172.713
49.92000 171.177
49.96000 163.925
50.00000 168.908
50.04000 174.049
50.08000 173.432
50.12000 181.623
50.16000 171.113
50.20000 170.377
50.24000 174.502
50.28000 184.762
50.32000 178.286
50.36000 190.861
50.40000 185.222
50.44000 196.175
50.48000 192.668
50.52000 188.945
50.56000 208.714
50.60000 201.884
50.64000 202.133
50.68000 196.350
50.72000 202.252
50.76000 219.671
50.80000 196.589
50.84000 190.120
50.88000 192.496
50.92000 195.145
50.96000 181.109
51.00000 174.815
51.04000 186.545
51.08000 187.017
51.12000 176.417
51.16000 184.767
51.20000 165.053
51.24000 171.018
51.28000 182.493
51.32000 167.726
51.36000 169.100
51.40000 154.856
51.44000 160.435
51.48000 158.874
51.52000 152.271
51.56000 157.560
51.60000 167.666
51.64000 165.975
51.68000 168.659
51.72000 155.058
51.76000 157.098
51.80000 165.117
51.84000 153.357
51.88000 157.483
51.92000 160.311
51.96000 161.206
52.00000 148.279
52.04000 170.858
52.08000 157.484
52.12000 164.627
52.16000 164.374
52.20000 161.208
52.24000 161.073
52.28000 151.570
52.32000 160.335
52.36000 164.087
52.40000 162.708
52.44000 159.211
52.48000 157.218
52.52000 149.625
52.56000 159.621
52.60000 151.685
52.64000 153.125
52.68000 163.164
52.72000 162.091
52.76000 170.627
52.80000 160.986
52.84000 156.178
52.88000 162.028
52.92000 158.512
52.96000 172.010
53.00000 146.839
53.04000 149.219
53.08000 161.854
53.12000 156.968
53.16000 175.943
53.20000 161.088
53.24000 154.916
53.28000 154.520
53.32000 154.890
53.36000 155.079
53.40000 160.518
53.44000 163.381
53.48000 165.452
53.52000 157.925
53.56000 156.620
53.60000 161.248
53.64000 148.827
53.68000 163.360
53.72000 159.950
53.76000 149.562
53.80000 159.829
53.84000 151.401
53.88000 143.751
53.92000 151.471
53.96000 154.447
54.00000 162.233
54.04000 166.794
54.08000 154.183
54.12000 155.844
54.16000 157.514
54.20000 144.694
54.24000 148.828
54.28000 152.278
54.32000 151.303
54.36000 155.438
54.40000 152.788
54.44000 151.692
54.48000 145.428
54.52000 158.842
54.56000 158.425
54.60000 146.468
54.64000 150.326
54.68000 146.638
54.72000 145.611
54.76000 156.583
54.80000 154.044
54.84000 143.707
54.88000 140.537
54.92000 148.299
54.96000 153.651
55.00000 153.766
55.04000 157.724
55.08000 148.592
55.12000 152.446
55.16000 157.697
55.20000 156.996
55.24000 153.802
55.28000 167.455
55.32000 163.717
55.36000 162.971
55.40000 166.264
55.44000 156.961
55.48000 175.819
55.52000 200.061
55.56000 215.309
55.60000 227.111
55.64000 239.024
55.68000 279.684
55.72000 302.424
55.76000 337.248
55.80000 375.009
55.84000 398.700
55.88000 414.362
55.92000 436.246
55.96000 437.578
56.00000 449.452
56.04000 441.968
56.08000 398.613
56.12000 380.301
56.16000 336.750
56.20000 309.817
56.24000 293.737
56.28000 265.463
56.32000 247.114
56.36000 230.370
56.40000 201.758
56.44000 195.191
56.48000 188.379
56.52000 179.056
56.56000 169.080
56.60000 167.360
56.64000 158.793
56.68000 151.832
56.72000 169.513
56.76000 149.662
56.80000 155.368
56.84000 155.570
56.88000 144.356
56.92000 143.760
56.96000 152.024
57.00000 147.753
57.04000 148.226
57.08000 149.425
57.12000 138.394
57.16000 140.585
57.20000 134.122
57.24000 137.008
57.28000 141.979
57.32000 142.990
57.36000 147.451
57.40000 146.627
57.44000 135.687
57.48000 137.940
57.52000 143.832
57.56000 142.520
57.60000 131.521
57.64000 146.213
57.68000 140.538
57.72000 140.980
57.76000 143.397
57.80000 124.248
57.84000 140.782
57.88000 140.750
57.92000 136.035
57.96000 129.982
58.00000 141.824
58.04000 136.679
58.08000 147.549
58.12000 129.305
58.16000 143.154
58.20000 143.474
58.24000 138.406
58.28000 135.535
58.32000 130.315
58.36000 139.972
58.40000 130.678
58.44000 133.488
58.48000 137.083
58.52000 128.819
58.56000 134.771
58.60000 129.412
58.64000 138.536
58.68000 124.986
58.72000 132.464
58.76000 143.573
58.80000 141.851
58.84000 138.986
58.88000 135.323
58.92000 133.747
58.96000 133.993
59.00000 130.803
59.04000 136.555
59.08000 138.435
59.12000 134.312
59.16000 136.122
59.20000 130.376
59.24000 140.785
59.28000 134.203
59.32000 128.406
59.36000 135.604
59.40000 133.749
59.44000 130.791
59.48000 127.076
59.52000 125.719
59.56000 125.964
59.60000 124.378
59.64000 129.301
59.68000 131.238
59.72000 135.794
59.76000 134.964
59.80000 129.879
59.84000 128.860
59.88000 123.735
59.92000 129.727
59.96000 131.197
60.00000 130.575
60.04000 136.232
60.08000 130.404
60.12000 124.836
60.16000 127.290
60.20000 128.473
60.24000 132.035
60.28000 132.375
60.32000 124.051
60.36000 134.812
60.40000 140.647
60.44000 132.069
60.48000 124.501
60.52000 129.430
60.56000 126.018
60.60000 125.646
60.64000 137.911
60.68000 131.410
60.72000 124.656
60.76000 128.461
60.80000 132.254
60.84000 132.236
60.88000 129.494
60.92000 143.200
60.96000 129.009
61.00000 127.793
61.04000 133.628
61.08000 132.320
61.12000 137.163
61.16000 135.873
61.20000 134.143
61.24000 128.246
61.28000 131.888
61.32000 136.378
61.36000 146.222
61.40000 135.231
61.44000 127.928
61.48000 153.166
61.52000 164.603
61.56000 204.172
61.60000 237.093
61.64000 259.164
61.68000 268.690
61.72000 273.098
61.76000 266.421
61.80000 216.984
61.84000 173.354
61.88000 154.418
61.92000 147.017
61.96000 146.795
62.00000 140.265
62.04000 134.357
62.08000 149.221
62.12000 146.699
62.16000 134.944
62.20000 139.037
62.24000 136.953
62.28000 144.205
62.32000 142.953
62.36000 142.477
62.40000 133.059
62.44000 136.569
62.48000 143.513
62.52000 135.673
62.56000 142.878
62.60000 139.987
62.64000 150.936
62.68000 154.446
62.72000 140.455
62.76000 137.818
62.80000 143.213
62.84000 148.920
62.88000 145.613
62.92000 140.385
62.96000 145.254
63.00000 143.949
63.04000 145.594
63.08000 148.757
63.12000 149.989
63.16000 135.387
63.20000 150.231
63.24000 145.969
63.28000 146.368
63.32000 140.746
63.36000 150.815
63.40000 156.725
63.44000 143.346
63.48000 157.168
63.52000 137.837
63.56000 143.859
63.60000 149.882
63.64000 146.821
63.68000 144.994
63.72000 146.868
63.76000 147.913
63.80000 143.800
63.84000 143.187
63.88000 157.903
63.92000 157.272
63.96000 152.830
64.00000 163.368
64.04000 172.968
64.08000 148.816
64.12000 153.393
64.16000 169.268
64.20000 164.890
64.24000 170.035
64.28000 158.745
64.32000 158.593
64.36000 141.548
64.40000 161.961
64.44000 159.593
64.48000 170.961
64.52000 170.207
64.56000 177.070
64.60000 172.726
64.64000 163.656
64.68000 173.188
64.72000 173.180
64.76000 174.745
64.80000 180.730
64.84000 184.833
64.88000 189.670
64.92000 181.278
64.96000 191.773
65.00000 202.179
65.04000 200.101
65.08000 194.414
65.12000 197.552
65.16000 204.214
65.20000 225.354
65.24000 221.799
65.28000 225.045
65.32000 235.639
65.36000 243.731
65.40000 249.255
65.44000 262.806
65.48000 273.982
65.52000 291.368
65.56000 305.470
65.60000 304.957
65.64000 355.145
65.68000 411.886
65.72000 607.911
65.76000 826.261
65.80000 1029.331
65.84000 1073.468
65.88000 1083.626
65.92000 1082.873
65.96000 875.188
66.00000 638.257
66.04000 441.404
66.08000 365.339
66.12000 337.314
66.16000 311.965
66.20000 306.493
66.24000 331.888
66.28000 358.075
66.32000 418.821
66.36000 436.682
66.40000 446.568
66.44000 464.413
66.48000 440.069
66.52000 422.395
66.56000 372.209
66.60000 335.453
66.64000 323.229
66.68000 319.195
66.72000 323.589
66.76000 330.187
66.80000 325.651
66.84000 327.323
66.88000 335.889
66.92000 327.893
66.96000 352.189
67.00000 342.787
67.04000 369.411
67.08000 366.994
67.12000 361.973
67.16000 389.046
67.20000 387.401
67.24000 389.894
67.28000 403.083
67.32000 413.883
67.36000 399.885
67.40000 426.987
67.44000 416.525
67.48000 416.458
67.52000 436.235
67.56000 430.712
67.60000 430.744
67.64000 439.243
67.68000 439.919
67.72000 462.222
67.76000 480.341
67.80000 481.487
67.84000 508.986
67.88000 504.054
67.92000 534.352
67.96000 531.674
68.00000 534.240
68.04000 528.983
68.08000 534.141
68.12000 575.890
68.16000 581.860
68.20000 592.264
68.24000 603.255
68.28000 643.523
68.32000 650.608
68.36000 689.603
68.40000 721.862
68.44000 748.951
68.48000 783.356
68.52000 816.687
68.56000 888.371
68.60000 1018.439
68.64000 1169.196
68.68000 1369.895
68.72000 1597.069
68.76000 1821.995
68.80000 2077.963
68.84000 2501.312
68.88000 3239.682
68.92000 5655.337
68.96000 14345.561
69.00000 31088.605
69.04000 47516.730
69.08000 54859.141
69.12000 56171.816
69.16000 58702.891
69.20000 57707.656
69.24000 46945.629
69.28000 36097.000
69.32000 30008.930
69.36000 27095.770
69.40000 21668.000
69.44000 12519.263
69.48000 5900.967
69.52000 2725.939
69.56000 1802.687
69.60000 1488.729
69.64000 1259.050
69.68000 1120.495
69.72000 1012.931
69.76000 900.271
69.80000 881.918
69.84000 801.094
69.88000 756.999
69.92000 696.728
69.96000 690.453
70.00000 664.358