File: XRD/25-09-2025/XY Data/BTO_Mapping_Theta2Theta_25-09-2025_001_29_-32-361_23-511.xy
20.00000 550.790
20.04000 577.297
20.08000 547.484
20.12000 584.285
20.16000 554.624
20.20000 561.931
20.24000 563.844
20.28000 551.244
20.32000 547.263
20.36000 557.340
20.40000 530.678
20.44000 545.734
20.48000 560.876
20.52000 524.268
20.56000 542.310
20.60000 532.714
20.64000 549.313
20.68000 553.809
20.72000 552.364
20.76000 537.640
20.80000 540.483
20.84000 562.463
20.88000 547.954
20.92000 546.468
20.96000 548.494
21.00000 538.341
21.04000 554.667
21.08000 537.896
21.12000 533.088
21.16000 540.686
21.20000 570.155
21.24000 549.865
21.28000 543.979
21.32000 534.285
21.36000 543.419
21.40000 555.412
21.44000 576.245
21.48000 554.523
21.52000 549.482
21.56000 562.866
21.60000 532.205
21.64000 573.706
21.68000 592.337
21.72000 616.484
21.76000 612.052
21.80000 621.006
21.84000 642.888
21.88000 728.046
21.92000 749.302
21.96000 785.904
22.00000 795.349
22.04000 811.442
22.08000 814.974
22.12000 799.606
22.16000 760.973
22.20000 728.089
22.24000 703.188
22.28000 680.320
22.32000 657.358
22.36000 639.841
22.40000 613.418
22.44000 579.185
22.48000 558.169
22.52000 560.205
22.56000 538.533
22.60000 552.398
22.64000 543.011
22.68000 540.467
22.72000 519.801
22.76000 527.913
22.80000 495.129
22.84000 522.841
22.88000 523.450
22.92000 521.963
22.96000 497.975
23.00000 520.279
23.04000 509.374
23.08000 517.384
23.12000 497.036
23.16000 512.454
23.20000 503.083
23.24000 483.830
23.28000 488.101
23.32000 509.735
23.36000 488.332
23.40000 508.596
23.44000 488.614
23.48000 491.504
23.52000 508.703
23.56000 493.936
23.60000 507.048
23.64000 492.896
23.68000 496.844
23.72000 481.290
23.76000 500.253
23.80000 484.404
23.84000 478.811
23.88000 489.824
23.92000 506.121
23.96000 492.195
24.00000 481.037
24.04000 476.705
24.08000 491.515
24.12000 485.399
24.16000 486.039
24.20000 474.406
24.24000 490.662
24.28000 481.728
24.32000 465.427
24.36000 485.069
24.40000 483.291
24.44000 483.609
24.48000 477.401
24.52000 485.601
24.56000 479.916
24.60000 461.149
24.64000 480.576
24.68000 488.822
24.72000 490.652
24.76000 477.618
24.80000 482.725
24.84000 481.098
24.88000 486.008
24.92000 468.897
24.96000 463.468
25.00000 471.011
25.04000 473.456
25.08000 487.034
25.12000 461.886
25.16000 467.084
25.20000 474.905
25.24000 474.780
25.28000 453.967
25.32000 453.110
25.36000 461.136
25.40000 463.642
25.44000 478.666
25.48000 475.733
25.52000 462.099
25.56000 471.862
25.60000 450.251
25.64000 466.509
25.68000 456.538
25.72000 461.227
25.76000 463.388
25.80000 470.279
25.84000 456.123
25.88000 455.985
25.92000 454.891
25.96000 462.996
26.00000 456.698
26.04000 447.493
26.08000 455.073
26.12000 458.568
26.16000 469.394
26.20000 460.736
26.24000 466.193
26.28000 449.959
26.32000 440.285
26.36000 440.504
26.40000 461.661
26.44000 444.242
26.48000 454.545
26.52000 441.156
26.56000 442.571
26.60000 460.529
26.64000 429.720
26.68000 428.803
26.72000 438.811
26.76000 431.150
26.80000 445.761
26.84000 449.191
26.88000 446.196
26.92000 431.044
26.96000 421.468
27.00000 422.856
27.04000 433.802
27.08000 435.065
27.12000 435.881
27.16000 423.490
27.20000 417.880
27.24000 436.001
27.28000 450.792
27.32000 427.704
27.36000 420.135
27.40000 451.969
27.44000 431.367
27.48000 425.150
27.52000 434.639
27.56000 427.809
27.60000 414.105
27.64000 436.561
27.68000 445.221
27.72000 435.994
27.76000 405.262
27.80000 421.291
27.84000 419.269
27.88000 405.210
27.92000 424.643
27.96000 424.995
28.00000 404.762
28.04000 418.468
28.08000 432.083
28.12000 419.212
28.16000 418.487
28.20000 432.460
28.24000 420.598
28.28000 417.516
28.32000 418.497
28.36000 425.239
28.40000 417.251
28.44000 423.859
28.48000 415.500
28.52000 425.777
28.56000 409.904
28.60000 424.635
28.64000 430.870
28.68000 414.021
28.72000 391.166
28.76000 411.912
28.80000 396.100
28.84000 413.109
28.88000 406.269
28.92000 392.230
28.96000 388.645
29.00000 415.091
29.04000 398.338
29.08000 396.488
29.12000 417.881
29.16000 411.540
29.20000 394.368
29.24000 397.856
29.28000 401.495
29.32000 433.340
29.36000 409.336
29.40000 405.124
29.44000 411.721
29.48000 400.064
29.52000 403.180
29.56000 388.086
29.60000 400.397
29.64000 424.275
29.68000 410.905
29.72000 420.155
29.76000 419.150
29.80000 413.984
29.84000 396.212
29.88000 424.275
29.92000 417.641
29.96000 432.046
30.00000 425.463
30.04000 424.306
30.08000 431.427
30.12000 435.525
30.16000 413.236
30.20000 425.734
30.24000 411.120
30.28000 408.486
30.32000 413.710
30.36000 416.290
30.40000 408.975
30.44000 428.778
30.48000 429.923
30.52000 413.536
30.56000 407.523
30.60000 402.415
30.64000 405.678
30.68000 413.572
30.72000 421.714
30.76000 423.955
30.80000 434.634
30.84000 459.395
30.88000 468.711
30.92000 486.563
30.96000 509.257
31.00000 572.778
31.04000 656.872
31.08000 765.596
31.12000 929.621
31.16000 1151.994
31.20000 1380.209
31.24000 1683.079
31.28000 1974.887
31.32000 2169.012
31.36000 2243.780
31.40000 2332.535
31.44000 2222.950
31.48000 1997.830
31.52000 1787.429
31.56000 1510.294
31.60000 1286.238
31.64000 1066.144
31.68000 920.333
31.72000 765.712
31.76000 681.190
31.80000 574.340
31.84000 560.034
31.88000 499.814
31.92000 490.358
31.96000 447.635
32.00000 419.933
32.04000 406.813
32.08000 412.737
32.12000 415.039
32.16000 391.836
32.20000 399.380
32.24000 395.998
32.28000 390.617
32.32000 388.223
32.36000 385.812
32.40000 386.796
32.44000 384.045
32.48000 375.383
32.52000 354.197
32.56000 362.327
32.60000 370.793
32.64000 362.009
32.68000 369.376
32.72000 374.044
32.76000 374.331
32.80000 370.925
32.84000 393.389
32.88000 393.681
32.92000 392.129
32.96000 407.125
33.00000 380.359
33.04000 363.224
33.08000 356.459
33.12000 345.301
33.16000 324.185
33.20000 343.324
33.24000 336.345
33.28000 345.039
33.32000 341.362
33.36000 340.629
33.40000 342.441
33.44000 333.487
33.48000 355.566
33.52000 336.366
33.56000 338.914
33.60000 331.473
33.64000 329.240
33.68000 351.417
33.72000 330.863
33.76000 322.863
33.80000 331.734
33.84000 332.472
33.88000 328.227
33.92000 330.975
33.96000 320.637
34.00000 334.194
34.04000 330.002
34.08000 329.262
34.12000 326.679
34.16000 327.768
34.20000 323.626
34.24000 341.058
34.28000 319.410
34.32000 318.092
34.36000 313.439
34.40000 332.257
34.44000 331.600
34.48000 332.120
34.52000 322.526
34.56000 332.424
34.60000 320.894
34.64000 319.567
34.68000 333.000
34.72000 324.156
34.76000 304.598
34.80000 317.911
34.84000 304.346
34.88000 308.534
34.92000 322.293
34.96000 317.968
35.00000 314.211
35.04000 323.325
35.08000 323.893
35.12000 317.000
35.16000 310.244
35.20000 293.017
35.24000 300.425
35.28000 305.697
35.32000 303.464
35.36000 304.466
35.40000 302.113
35.44000 314.664
35.48000 309.402
35.52000 297.515
35.56000 294.574
35.60000 297.568
35.64000 299.848
35.68000 315.517
35.72000 313.795
35.76000 292.117
35.80000 305.633
35.84000 309.732
35.88000 304.532
35.92000 295.331
35.96000 296.454
36.00000 296.119
36.04000 301.752
36.08000 289.317
36.12000 297.633
36.16000 311.279
36.20000 300.835
36.24000 301.018
36.28000 301.037
36.32000 292.900
36.36000 295.341
36.40000 308.817
36.44000 299.444
36.48000 298.180
36.52000 306.920
36.56000 295.336
36.60000 300.287
36.64000 289.421
36.68000 289.688
36.72000 303.100
36.76000 302.565
36.80000 288.460
36.84000 293.410
36.88000 310.723
36.92000 293.564
36.96000 294.522
37.00000 288.438
37.04000 292.627
37.08000 291.841
37.12000 302.143
37.16000 304.017
37.20000 289.133
37.24000 271.117
37.28000 276.478
37.32000 287.278
37.36000 286.531
37.40000 267.468
37.44000 284.890
37.48000 270.930
37.52000 287.907
37.56000 288.275
37.60000 267.464
37.64000 295.554
37.68000 276.520
37.72000 294.410
37.76000 282.089
37.80000 285.510
37.84000 287.586
37.88000 283.150
37.92000 283.965
37.96000 294.052
38.00000 275.332
38.04000 289.594
38.08000 285.707
38.12000 288.981
38.16000 289.406
38.20000 305.330
38.24000 287.483
38.28000 300.953
38.32000 314.151
38.36000 318.938
38.40000 333.637
38.44000 357.509
38.48000 397.779
38.52000 415.004
38.56000 466.106
38.60000 492.128
38.64000 513.146
38.68000 537.835
38.72000 541.009
38.76000 543.556
38.80000 493.247
38.84000 470.943
38.88000 451.454
38.92000 413.564
38.96000 366.978
39.00000 352.054
39.04000 314.888
39.08000 302.919
39.12000 293.282
39.16000 284.701
39.20000 276.407
39.24000 284.858
39.28000 276.312
39.32000 257.216
39.36000 282.426
39.40000 271.477
39.44000 276.304
39.48000 257.743
39.52000 266.949
39.56000 271.410
39.60000 254.814
39.64000 262.283
39.68000 267.306
39.72000 248.835
39.76000 250.384
39.80000 263.793
39.84000 272.043
39.88000 260.452
39.92000 263.577
39.96000 252.441
40.00000 240.618
40.04000 252.120
40.08000 250.709
40.12000 248.276
40.16000 255.179
40.20000 248.999
40.24000 253.398
40.28000 248.456
40.32000 261.723
40.36000 253.341
40.40000 243.577
40.44000 247.661
40.48000 244.865
40.52000 247.015
40.56000 256.374
40.60000 230.014
40.64000 240.908
40.68000 257.971
40.72000 252.989
40.76000 250.642
40.80000 233.922
40.84000 244.401
40.88000 232.707
40.92000 239.886
40.96000 244.724
41.00000 247.410
41.04000 248.137
41.08000 232.816
41.12000 248.743
41.16000 239.447
41.20000 238.358
41.24000 247.203
41.28000 232.443
41.32000 227.212
41.36000 257.998
41.40000 243.582
41.44000 249.482
41.48000 241.968
41.52000 247.369
41.56000 248.766
41.60000 240.603
41.64000 225.969
41.68000 232.194
41.72000 230.013
41.76000 248.509
41.80000 244.214
41.84000 234.197
41.88000 234.510
41.92000 240.787
41.96000 227.179
42.00000 229.052
42.04000 228.989
42.08000 231.811
42.12000 227.172
42.16000 220.047
42.20000 232.101
42.24000 225.147
42.28000 226.723
42.32000 224.249
42.36000 229.116
42.40000 237.761
42.44000 234.090
42.48000 218.284
42.52000 224.003
42.56000 234.740
42.60000 232.557
42.64000 233.468
42.68000 238.193
42.72000 226.229
42.76000 228.401
42.80000 232.832
42.84000 236.633
42.88000 231.647
42.92000 227.539
42.96000 241.457
43.00000 216.998
43.04000 239.635
43.08000 242.552
43.12000 223.459
43.16000 222.199
43.20000 222.915
43.24000 222.424
43.28000 217.828
43.32000 218.707
43.36000 224.712
43.40000 224.389
43.44000 229.032
43.48000 233.756
43.52000 219.698
43.56000 216.521
43.60000 222.094
43.64000 229.271
43.68000 221.941
43.72000 231.627
43.76000 210.596
43.80000 213.660
43.84000 223.897
43.88000 221.244
43.92000 231.183
43.96000 213.205
44.00000 217.936
44.04000 224.571
44.08000 218.048
44.12000 223.274
44.16000 221.867
44.20000 225.485
44.24000 235.373
44.28000 232.139
44.32000 232.216
44.36000 226.517
44.40000 232.211
44.44000 235.503
44.48000 249.268
44.52000 234.537
44.56000 244.120
44.60000 250.203
44.64000 260.636
44.68000 269.326
44.72000 275.302
44.76000 303.955
44.80000 307.420
44.84000 344.063
44.88000 377.955
44.92000 388.883
44.96000 402.124
45.00000 403.020
45.04000 426.911
45.08000 426.583
45.12000 387.162
45.16000 378.264
45.20000 361.948
45.24000 340.167
45.28000 359.768
45.32000 333.138
45.36000 325.999
45.40000 308.876
45.44000 319.563
45.48000 294.141
45.52000 295.428
45.56000 272.928
45.60000 286.540
45.64000 277.229
45.68000 272.828
45.72000 254.885
45.76000 260.308
45.80000 235.282
45.84000 240.229
45.88000 242.935
45.92000 242.711
45.96000 226.826
46.00000 214.947
46.04000 217.001
46.08000 217.685
46.12000 224.261
46.16000 215.747
46.20000 213.481
46.24000 210.451
46.28000 205.282
46.32000 196.249
46.36000 210.616
46.40000 200.420
46.44000 206.940
46.48000 209.490
46.52000 197.669
46.56000 211.261
46.60000 216.130
46.64000 192.512
46.68000 209.509
46.72000 197.878
46.76000 195.324
46.80000 196.748
46.84000 190.131
46.88000 192.529
46.92000 197.329
46.96000 201.263
47.00000 192.238
47.04000 199.107
47.08000 192.148
47.12000 198.837
47.16000 193.347
47.20000 196.212
47.24000 185.845
47.28000 195.189
47.32000 186.175
47.36000 189.645
47.40000 201.105
47.44000 183.095
47.48000 177.844
47.52000 188.974
47.56000 179.997
47.60000 183.091
47.64000 185.898
47.68000 186.216
47.72000 191.023
47.76000 181.464
47.80000 193.343
47.84000 190.722
47.88000 195.641
47.92000 180.673
47.96000 178.180
48.00000 181.727
48.04000 173.647
48.08000 168.200
48.12000 190.861
48.16000 180.983
48.20000 179.166
48.24000 180.843
48.28000 195.025
48.32000 175.129
48.36000 182.847
48.40000 180.352
48.44000 178.922
48.48000 189.074
48.52000 182.929
48.56000 185.776
48.60000 170.404
48.64000 187.679
48.68000 185.427
48.72000 177.919
48.76000 177.371
48.80000 170.445
48.84000 185.038
48.88000 173.054
48.92000 173.603
48.96000 176.334
49.00000 174.839
49.04000 188.653
49.08000 175.435
49.12000 178.007
49.16000 167.640
49.20000 171.557
49.24000 169.012
49.28000 169.848
49.32000 176.620
49.36000 173.973
49.40000 174.018
49.44000 166.266
49.48000 177.795
49.52000 181.505
49.56000 181.267
49.60000 176.208
49.64000 176.830
49.68000 173.960
49.72000 169.467
49.76000 171.281
49.80000 178.369
49.84000 173.069
49.88000 175.033
49.92000 170.143
49.96000 185.255
50.00000 179.653
50.04000 174.853
50.08000 185.289
50.12000 174.598
50.16000 178.972
50.20000 181.905
50.24000 186.846
50.28000 189.229
50.32000 190.425
50.36000 195.688
50.40000 197.569
50.44000 208.154
50.48000 207.972
50.52000 221.030
50.56000 221.509
50.60000 222.586
50.64000 235.317
50.68000 243.548
50.72000 234.877
50.76000 210.405
50.80000 224.760
50.84000 214.241
50.88000 201.413
50.92000 204.829
50.96000 188.646
51.00000 194.585
51.04000 185.448
51.08000 173.873
51.12000 189.985
51.16000 175.659
51.20000 183.624
51.24000 173.847
51.28000 170.999
51.32000 167.375
51.36000 176.182
51.40000 179.620
51.44000 171.779
51.48000 173.095
51.52000 166.729
51.56000 160.271
51.60000 155.168
51.64000 163.911
51.68000 174.312
51.72000 168.503
51.76000 167.964
51.80000 170.388
51.84000 161.311
51.88000 163.661
51.92000 159.197
51.96000 159.307
52.00000 173.849
52.04000 169.677
52.08000 160.066
52.12000 162.951
52.16000 161.134
52.20000 162.180
52.24000 157.075
52.28000 159.734
52.32000 166.043
52.36000 166.648
52.40000 162.016
52.44000 151.380
52.48000 162.099
52.52000 159.811
52.56000 154.551
52.60000 156.058
52.64000 150.871
52.68000 151.004
52.72000 144.150
52.76000 156.672
52.80000 158.360
52.84000 156.594
52.88000 152.979
52.92000 162.454
52.96000 151.646
53.00000 162.385
53.04000 154.054
53.08000 164.997
53.12000 161.720
53.16000 151.331
53.20000 155.158
53.24000 144.174
53.28000 147.726
53.32000 152.148
53.36000 153.836
53.40000 154.264
53.44000 162.743
53.48000 163.943
53.52000 165.957
53.56000 155.313
53.60000 160.136
53.64000 160.415
53.68000 164.903
53.72000 152.335
53.76000 157.631
53.80000 153.912
53.84000 156.861
53.88000 152.545
53.92000 152.168
53.96000 155.155
54.00000 142.395
54.04000 157.960
54.08000 137.360
54.12000 147.520
54.16000 142.186
54.20000 151.322
54.24000 155.110
54.28000 159.590
54.32000 160.796
54.36000 157.255
54.40000 160.182
54.44000 148.660
54.48000 144.903
54.52000 149.030
54.56000 152.127
54.60000 159.209
54.64000 165.598
54.68000 138.943
54.72000 139.928
54.76000 145.330
54.80000 140.987
54.84000 146.744
54.88000 152.692
54.92000 147.778
54.96000 153.803
55.00000 156.477
55.04000 155.814
55.08000 150.376
55.12000 153.263
55.16000 154.214
55.20000 163.272
55.24000 171.524
55.28000 164.119
55.32000 157.182
55.36000 167.093
55.40000 186.498
55.44000 173.399
55.48000 197.052
55.52000 209.062
55.56000 208.975
55.60000 236.523
55.64000 268.614
55.68000 271.697
55.72000 308.157
55.76000 326.192
55.80000 347.738
55.84000 379.732
55.88000 379.046
55.92000 378.081
55.96000 382.566
56.00000 365.647
56.04000 372.145
56.08000 327.885
56.12000 312.668
56.16000 265.532
56.20000 260.360
56.24000 245.416
56.28000 244.111
56.32000 219.441
56.36000 213.205
56.40000 202.372
56.44000 198.564
56.48000 189.992
56.52000 174.960
56.56000 183.921
56.60000 163.781
56.64000 159.272
56.68000 153.751
56.72000 149.678
56.76000 151.217
56.80000 147.573
56.84000 150.451
56.88000 158.518
56.92000 148.355
56.96000 147.471
57.00000 132.637
57.04000 150.888
57.08000 141.031
57.12000 133.045
57.16000 137.925
57.20000 144.404
57.24000 139.713
57.28000 145.888
57.32000 140.996
57.36000 144.570
57.40000 135.625
57.44000 150.147
57.48000 145.166
57.52000 145.062
57.56000 130.685
57.60000 148.080
57.64000 140.425
57.68000 136.771
57.72000 136.363
57.76000 134.275
57.80000 137.000
57.84000 146.148
57.88000 150.254
57.92000 138.402
57.96000 130.792
58.00000 134.683
58.04000 146.618
58.08000 135.959
58.12000 153.641
58.16000 148.398
58.20000 140.136
58.24000 132.358
58.28000 141.396
58.32000 139.789
58.36000 145.726
58.40000 140.525
58.44000 146.651
58.48000 144.430
58.52000 130.945
58.56000 129.211
58.60000 129.266
58.64000 137.343
58.68000 131.503
58.72000 137.327
58.76000 145.087
58.80000 128.305
58.84000 136.358
58.88000 137.847
58.92000 134.205
58.96000 145.310
59.00000 133.632
59.04000 133.328
59.08000 137.062
59.12000 135.118
59.16000 140.671
59.20000 141.650
59.24000 125.627
59.28000 139.451
59.32000 133.195
59.36000 137.363
59.40000 132.852
59.44000 136.416
59.48000 135.029
59.52000 131.158
59.56000 134.384
59.60000 141.418
59.64000 135.926
59.68000 129.986
59.72000 139.011
59.76000 135.077
59.80000 143.568
59.84000 136.414
59.88000 131.093
59.92000 135.084
59.96000 132.244
60.00000 126.217
60.04000 128.814
60.08000 123.944
60.12000 130.852
60.16000 133.732
60.20000 141.141
60.24000 138.602
60.28000 130.227
60.32000 135.551
60.36000 130.010
60.40000 123.515
60.44000 139.524
60.48000 134.558
60.52000 131.371
60.56000 124.274
60.60000 128.857
60.64000 132.334
60.68000 132.535
60.72000 134.684
60.76000 131.279
60.80000 133.155
60.84000 140.694
60.88000 137.371
60.92000 128.222
60.96000 138.192
61.00000 133.687
61.04000 135.829
61.08000 144.917
61.12000 141.163
61.16000 127.218
61.20000 137.396
61.24000 132.867
61.28000 135.482
61.32000 131.519
61.36000 132.379
61.40000 130.055
61.44000 149.678
61.48000 148.092
61.52000 175.487
61.56000 214.093
61.60000 269.957
61.64000 304.929
61.68000 318.349
61.72000 317.151
61.76000 296.381
61.80000 235.292
61.84000 187.240
61.88000 167.607
61.92000 145.027
61.96000 138.815
62.00000 152.656
62.04000 137.459
62.08000 140.324
62.12000 139.595
62.16000 147.195
62.20000 135.306
62.24000 140.288
62.28000 138.836
62.32000 146.228
62.36000 146.114
62.40000 136.857
62.44000 143.257
62.48000 154.432
62.52000 156.123
62.56000 148.470
62.60000 146.070
62.64000 145.054
62.68000 139.292
62.72000 136.272
62.76000 141.846
62.80000 145.460
62.84000 145.360
62.88000 144.646
62.92000 145.571
62.96000 133.802
63.00000 137.732
63.04000 146.400
63.08000 155.770
63.12000 145.323
63.16000 139.235
63.20000 158.613
63.24000 144.212
63.28000 150.671
63.32000 141.824
63.36000 143.611
63.40000 149.090
63.44000 139.695
63.48000 140.773
63.52000 148.359
63.56000 150.532
63.60000 141.946
63.64000 146.516
63.68000 143.020
63.72000 155.828
63.76000 155.397
63.80000 155.227
63.84000 155.308
63.88000 156.071
63.92000 149.037
63.96000 153.424
64.00000 155.135
64.04000 169.538
64.08000 154.976
64.12000 161.893
64.16000 165.072
64.20000 163.370
64.24000 159.051
64.28000 166.726
64.32000 166.004
64.36000 173.148
64.40000 159.921
64.44000 169.449
64.48000 179.407
64.52000 164.197
64.56000 179.222
64.60000 157.369
64.64000 182.379
64.68000 178.131
64.72000 189.904
64.76000 181.447
64.80000 184.665
64.84000 188.157
64.88000 184.750
64.92000 188.278
64.96000 194.790
65.00000 193.469
65.04000 208.647
65.08000 218.834
65.12000 222.545
65.16000 238.586
65.20000 248.564
65.24000 256.116
65.28000 236.589
65.32000 268.159
65.36000 285.879
65.40000 290.569
65.44000 321.826
65.48000 322.325
65.52000 322.643
65.56000 341.656
65.60000 369.454
65.64000 417.215
65.68000 511.345
65.72000 719.075
65.76000 984.867
65.80000 1211.550
65.84000 1302.594
65.88000 1356.807
65.92000 1294.748
65.96000 1063.563
66.00000 764.241
66.04000 524.216
66.08000 414.363
66.12000 358.097
66.16000 331.828
66.20000 316.094
66.24000 355.064
66.28000 404.978
66.32000 449.705
66.36000 501.879
66.40000 524.586
66.44000 512.612
66.48000 502.031
66.52000 483.488
66.56000 416.825
66.60000 350.710
66.64000 358.935
66.68000 347.483
66.72000 331.461
66.76000 356.877
66.80000 344.197
66.84000 358.939
66.88000 366.707
66.92000 348.939
66.96000 376.650
67.00000 391.002
67.04000 385.850
67.08000 379.044
67.12000 392.018
67.16000 402.992
67.20000 410.392
67.24000 400.298
67.28000 421.114
67.32000 430.056
67.36000 421.991
67.40000 433.258
67.44000 446.857
67.48000 449.337
67.52000 462.682
67.56000 482.437
67.60000 481.686
67.64000 478.616
67.68000 507.017
67.72000 494.953
67.76000 525.549
67.80000 522.122
67.84000 548.370
67.88000 538.848
67.92000 554.968
67.96000 562.458
68.00000 591.672
68.04000 584.613
68.08000 617.158
68.12000 622.953
68.16000 624.157
68.20000 668.488
68.24000 651.443
68.28000 680.813
68.32000 715.878
68.36000 730.085
68.40000 757.293
68.44000 797.553
68.48000 847.508
68.52000 919.659
68.56000 995.607
68.60000 1124.781
68.64000 1346.041
68.68000 1529.841
68.72000 1858.466
68.76000 2149.119
68.80000 2441.316
68.84000 2972.388
68.88000 3937.822
68.92000 7159.762
68.96000 17751.033
69.00000 37525.520
69.04000 57702.598
69.08000 66842.617
69.12000 69017.117
69.16000 71685.969
69.20000 69654.461
69.24000 58169.445
69.28000 44856.375
69.32000 36975.660
69.36000 32872.504
69.40000 26217.260
69.44000 15890.286
69.48000 7480.201
69.52000 3303.836
69.56000 2135.586
69.60000 1676.498
69.64000 1433.733
69.68000 1241.099
69.72000 1127.858
69.76000 1005.022
69.80000 933.502
69.84000 864.454
69.88000 813.131
69.92000 781.146
69.96000 738.595
70.00000 703.726