File: XRD/25-09-2025/XY Data/BTO_Mapping_Theta2Theta_25-09-2025_001_13_26-765_29-726.xy
20.00000 521.915
20.04000 545.339
20.08000 546.482
20.12000 545.376
20.16000 541.415
20.20000 559.048
20.24000 556.768
20.28000 572.133
20.32000 573.256
20.36000 543.063
20.40000 538.954
20.44000 553.747
20.48000 540.396
20.52000 553.072
20.56000 545.080
20.60000 530.123
20.64000 550.078
20.68000 551.957
20.72000 543.354
20.76000 530.329
20.80000 552.522
20.84000 554.411
20.88000 545.574
20.92000 572.730
20.96000 554.422
21.00000 550.104
21.04000 549.020
21.08000 535.487
21.12000 531.525
21.16000 531.931
21.20000 527.826
21.24000 545.781
21.28000 530.887
21.32000 541.307
21.36000 542.545
21.40000 528.122
21.44000 542.456
21.48000 536.484
21.52000 541.961
21.56000 539.712
21.60000 543.257
21.64000 550.975
21.68000 533.924
21.72000 538.445
21.76000 535.436
21.80000 541.653
21.84000 550.505
21.88000 595.129
21.92000 558.831
21.96000 574.015
22.00000 567.393
22.04000 582.029
22.08000 600.145
22.12000 601.112
22.16000 605.542
22.20000 591.093
22.24000 594.356
22.28000 589.035
22.32000 588.950
22.36000 579.895
22.40000 563.814
22.44000 569.084
22.48000 545.876
22.52000 542.997
22.56000 525.370
22.60000 522.114
22.64000 525.605
22.68000 523.535
22.72000 539.658
22.76000 514.893
22.80000 519.808
22.84000 493.365
22.88000 510.036
22.92000 508.566
22.96000 507.554
23.00000 524.078
23.04000 487.497
23.08000 495.675
23.12000 501.649
23.16000 502.845
23.20000 503.025
23.24000 500.521
23.28000 519.115
23.32000 498.541
23.36000 476.945
23.40000 492.053
23.44000 491.406
23.48000 500.129
23.52000 485.380
23.56000 483.057
23.60000 496.151
23.64000 479.485
23.68000 465.429
23.72000 478.871
23.76000 475.125
23.80000 486.260
23.84000 489.137
23.88000 478.656
23.92000 491.480
23.96000 489.835
24.00000 502.082
24.04000 476.717
24.08000 508.379
24.12000 501.090
24.16000 490.418
24.20000 473.267
24.24000 492.296
24.28000 479.150
24.32000 502.485
24.36000 489.636
24.40000 466.847
24.44000 473.515
24.48000 478.912
24.52000 485.105
24.56000 465.397
24.60000 471.410
24.64000 451.085
24.68000 471.880
24.72000 464.384
24.76000 475.722
24.80000 472.428
24.84000 465.978
24.88000 483.495
24.92000 471.142
24.96000 468.917
25.00000 468.165
25.04000 477.457
25.08000 468.583
25.12000 469.096
25.16000 462.595
25.20000 477.615
25.24000 476.998
25.28000 457.441
25.32000 457.807
25.36000 468.145
25.40000 468.080
25.44000 479.874
25.48000 466.651
25.52000 480.723
25.56000 443.447
25.60000 465.332
25.64000 455.850
25.68000 447.272
25.72000 450.859
25.76000 448.048
25.80000 461.793
25.84000 465.280
25.88000 452.998
25.92000 469.369
25.96000 455.619
26.00000 463.823
26.04000 455.142
26.08000 439.781
26.12000 436.132
26.16000 458.408
26.20000 445.822
26.24000 454.324
26.28000 433.041
26.32000 437.475
26.36000 432.714
26.40000 435.371
26.44000 455.264
26.48000 440.429
26.52000 446.321
26.56000 441.579
26.60000 435.510
26.64000 445.701
26.68000 450.307
26.72000 461.907
26.76000 440.620
26.80000 435.174
26.84000 444.012
26.88000 447.658
26.92000 454.116
26.96000 440.413
27.00000 450.372
27.04000 463.316
27.08000 439.306
27.12000 431.825
27.16000 444.370
27.20000 445.550
27.24000 439.203
27.28000 427.625
27.32000 433.796
27.36000 422.643
27.40000 439.947
27.44000 448.757
27.48000 426.761
27.52000 458.144
27.56000 432.739
27.60000 432.911
27.64000 433.078
27.68000 432.890
27.72000 430.415
27.76000 433.031
27.80000 420.531
27.84000 440.103
27.88000 422.517
27.92000 411.180
27.96000 420.402
28.00000 423.402
28.04000 417.353
28.08000 403.920
28.12000 425.830
28.16000 428.604
28.20000 431.682
28.24000 402.115
28.28000 432.738
28.32000 422.658
28.36000 428.963
28.40000 417.505
28.44000 446.683
28.48000 418.146
28.52000 433.642
28.56000 441.184
28.60000 452.632
28.64000 419.399
28.68000 424.173
28.72000 412.336
28.76000 425.003
28.80000 444.520
28.84000 430.553
28.88000 429.993
28.92000 418.312
28.96000 424.143
29.00000 429.839
29.04000 408.814
29.08000 415.568
29.12000 420.043
29.16000 409.424
29.20000 394.482
29.24000 399.321
29.28000 402.728
29.32000 410.405
29.36000 410.444
29.40000 411.756
29.44000 395.516
29.48000 413.904
29.52000 403.653
29.56000 405.316
29.60000 403.471
29.64000 412.954
29.68000 408.413
29.72000 412.403
29.76000 401.095
29.80000 405.701
29.84000 409.293
29.88000 404.924
29.92000 403.024
29.96000 392.969
30.00000 405.552
30.04000 394.297
30.08000 410.655
30.12000 405.456
30.16000 403.413
30.20000 422.374
30.24000 415.131
30.28000 406.229
30.32000 394.537
30.36000 418.046
30.40000 386.623
30.44000 412.186
30.48000 392.371
30.52000 405.701
30.56000 399.074
30.60000 389.447
30.64000 392.352
30.68000 430.507
30.72000 420.174
30.76000 435.737
30.80000 439.288
30.84000 445.987
30.88000 445.865
30.92000 469.264
30.96000 460.511
31.00000 475.218
31.04000 494.163
31.08000 524.773
31.12000 582.362
31.16000 654.780
31.20000 714.069
31.24000 823.505
31.28000 935.256
31.32000 1039.124
31.36000 1105.517
31.40000 1159.537
31.44000 1173.699
31.48000 1118.954
31.52000 1012.155
31.56000 906.560
31.60000 816.448
31.64000 714.790
31.68000 631.612
31.72000 592.384
31.76000 533.455
31.80000 503.587
31.84000 466.198
31.88000 447.174
31.92000 430.815
31.96000 415.319
32.00000 413.988
32.04000 417.380
32.08000 427.793
32.12000 399.988
32.16000 396.879
32.20000 390.019
32.24000 382.848
32.28000 389.695
32.32000 385.270
32.36000 375.722
32.40000 381.910
32.44000 400.466
32.48000 367.693
32.52000 391.822
32.56000 378.350
32.60000 361.576
32.64000 356.805
32.68000 384.986
32.72000 365.816
32.76000 361.469
32.80000 368.475
32.84000 378.187
32.88000 379.640
32.92000 387.135
32.96000 381.811
33.00000 362.037
33.04000 340.697
33.08000 347.182
33.12000 346.385
33.16000 358.437
33.20000 342.584
33.24000 331.799
33.28000 343.688
33.32000 334.770
33.36000 343.687
33.40000 351.239
33.44000 330.018
33.48000 311.376
33.52000 341.286
33.56000 338.329
33.60000 325.095
33.64000 336.678
33.68000 315.553
33.72000 341.128
33.76000 339.953
33.80000 334.322
33.84000 328.706
33.88000 329.197
33.92000 336.112
33.96000 319.141
34.00000 323.676
34.04000 317.632
34.08000 348.631
34.12000 324.325
34.16000 346.779
34.20000 336.975
34.24000 321.129
34.28000 318.562
34.32000 340.871
34.36000 318.137
34.40000 330.819
34.44000 330.500
34.48000 328.700
34.52000 344.230
34.56000 310.119
34.60000 321.785
34.64000 325.447
34.68000 313.392
34.72000 320.254
34.76000 316.317
34.80000 317.595
34.84000 309.955
34.88000 319.835
34.92000 325.947
34.96000 310.971
35.00000 297.403
35.04000 308.775
35.08000 318.694
35.12000 320.572
35.16000 311.456
35.20000 307.191
35.24000 296.013
35.28000 312.698
35.32000 306.303
35.36000 303.900
35.40000 291.128
35.44000 310.491
35.48000 303.029
35.52000 291.152
35.56000 318.566
35.60000 306.142
35.64000 306.102
35.68000 319.698
35.72000 306.312
35.76000 322.950
35.80000 294.468
35.84000 303.484
35.88000 298.536
35.92000 309.382
35.96000 303.512
36.00000 301.584
36.04000 308.711
36.08000 288.475
36.12000 303.293
36.16000 289.028
36.20000 291.465
36.24000 306.240
36.28000 299.111
36.32000 298.650
36.36000 306.336
36.40000 312.981
36.44000 306.828
36.48000 300.364
36.52000 303.123
36.56000 312.341
36.60000 292.037
36.64000 303.946
36.68000 310.354
36.72000 296.148
36.76000 272.856
36.80000 287.335
36.84000 292.455
36.88000 293.365
36.92000 288.530
36.96000 289.109
37.00000 283.060
37.04000 297.053
37.08000 286.868
37.12000 287.617
37.16000 290.060
37.20000 284.684
37.24000 288.790
37.28000 295.435
37.32000 278.844
37.36000 282.478
37.40000 291.294
37.44000 275.985
37.48000 274.814
37.52000 292.650
37.56000 286.299
37.60000 280.243
37.64000 286.902
37.68000 283.691
37.72000 287.309
37.76000 292.250
37.80000 289.307
37.84000 282.591
37.88000 284.231
37.92000 284.828
37.96000 294.036
38.00000 282.295
38.04000 288.647
38.08000 281.377
38.12000 269.710
38.16000 299.677
38.20000 289.645
38.24000 294.983
38.28000 290.272
38.32000 300.030
38.36000 304.559
38.40000 320.868
38.44000 337.466
38.48000 369.422
38.52000 395.090
38.56000 427.914
38.60000 510.388
38.64000 551.545
38.68000 576.721
38.72000 592.267
38.76000 568.513
38.80000 518.249
38.84000 472.997
38.88000 431.055
38.92000 388.078
38.96000 346.424
39.00000 323.321
39.04000 316.734
39.08000 296.751
39.12000 282.255
39.16000 270.130
39.20000 277.082
39.24000 286.917
39.28000 273.895
39.32000 263.764
39.36000 281.547
39.40000 268.999
39.44000 262.093
39.48000 278.211
39.52000 281.366
39.56000 271.638
39.60000 263.496
39.64000 279.269
39.68000 256.348
39.72000 268.033
39.76000 269.293
39.80000 276.121
39.84000 262.626
39.88000 260.400
39.92000 262.836
39.96000 244.355
40.00000 243.618
40.04000 254.961
40.08000 255.401
40.12000 252.165
40.16000 261.516
40.20000 249.472
40.24000 251.922
40.28000 258.317
40.32000 255.844
40.36000 243.954
40.40000 234.408
40.44000 257.565
40.48000 245.573
40.52000 247.023
40.56000 255.949
40.60000 251.035
40.64000 241.466
40.68000 237.764
40.72000 270.168
40.76000 246.928
40.80000 235.691
40.84000 240.858
40.88000 244.134
40.92000 235.984
40.96000 241.976
41.00000 255.733
41.04000 241.093
41.08000 247.712
41.12000 251.885
41.16000 241.696
41.20000 233.767
41.24000 245.159
41.28000 247.317
41.32000 249.399
41.36000 247.869
41.40000 251.746
41.44000 245.281
41.48000 232.762
41.52000 228.560
41.56000 235.533
41.60000 246.486
41.64000 241.324
41.68000 225.509
41.72000 237.931
41.76000 227.578
41.80000 230.881
41.84000 227.798
41.88000 238.469
41.92000 235.288
41.96000 240.908
42.00000 228.256
42.04000 234.961
42.08000 225.878
42.12000 225.311
42.16000 226.998
42.20000 232.057
42.24000 241.559
42.28000 231.412
42.32000 237.663
42.36000 233.299
42.40000 211.565
42.44000 226.756
42.48000 253.456
42.52000 233.078
42.56000 222.125
42.60000 224.680
42.64000 226.068
42.68000 221.299
42.72000 217.868
42.76000 231.082
42.80000 221.493
42.84000 228.068
42.88000 226.463
42.92000 217.349
42.96000 234.314
43.00000 206.446
43.04000 234.813
43.08000 224.850
43.12000 240.337
43.16000 233.750
43.20000 227.872
43.24000 225.772
43.28000 230.389
43.32000 215.273
43.36000 230.304
43.40000 224.425
43.44000 231.021
43.48000 229.536
43.52000 226.452
43.56000 222.332
43.60000 225.117
43.64000 212.365
43.68000 219.099
43.72000 229.452
43.76000 216.078
43.80000 222.757
43.84000 215.850
43.88000 223.190
43.92000 226.224
43.96000 224.894
44.00000 218.501
44.04000 200.957
44.08000 215.716
44.12000 227.047
44.16000 207.574
44.20000 212.896
44.24000 211.697
44.28000 212.904
44.32000 208.755
44.36000 218.286
44.40000 219.748
44.44000 224.583
44.48000 225.648
44.52000 215.974
44.56000 222.944
44.60000 217.440
44.64000 219.525
44.68000 234.626
44.72000 233.175
44.76000 237.964
44.80000 221.593
44.84000 244.390
44.88000 225.109
44.92000 233.793
44.96000 227.107
45.00000 229.218
45.04000 238.483
45.08000 240.248
45.12000 253.692
45.16000 249.758
45.20000 243.175
45.24000 255.538
45.28000 249.145
45.32000 239.773
45.36000 244.544
45.40000 243.750
45.44000 253.423
45.48000 263.577
45.52000 239.877
45.56000 241.611
45.60000 248.927
45.64000 229.770
45.68000 247.270
45.72000 220.357
45.76000 212.561
45.80000 217.820
45.84000 223.941
45.88000 215.650
45.92000 213.103
45.96000 202.695
46.00000 213.162
46.04000 209.273
46.08000 213.634
46.12000 198.204
46.16000 199.071
46.20000 207.597
46.24000 198.511
46.28000 200.559
46.32000 213.585
46.36000 203.128
46.40000 189.536
46.44000 195.962
46.48000 194.232
46.52000 203.261
46.56000 195.827
46.60000 193.552
46.64000 212.060
46.68000 199.218
46.72000 193.724
46.76000 199.366
46.80000 198.188
46.84000 194.116
46.88000 194.440
46.92000 206.627
46.96000 187.200
47.00000 189.776
47.04000 187.687
47.08000 183.251
47.12000 189.846
47.16000 187.172
47.20000 190.511
47.24000 199.554
47.28000 184.171
47.32000 188.995
47.36000 187.281
47.40000 190.596
47.44000 193.354
47.48000 195.111
47.52000 186.694
47.56000 175.718
47.60000 196.406
47.64000 191.488
47.68000 182.986
47.72000 183.460
47.76000 187.830
47.80000 192.295
47.84000 187.929
47.88000 181.662
47.92000 177.965
47.96000 188.379
48.00000 191.874
48.04000 185.947
48.08000 180.566
48.12000 186.310
48.16000 188.068
48.20000 184.171
48.24000 184.732
48.28000 190.305
48.32000 178.466
48.36000 177.149
48.40000 182.652
48.44000 187.030
48.48000 192.730
48.52000 178.467
48.56000 169.928
48.60000 188.912
48.64000 191.741
48.68000 183.149
48.72000 177.947
48.76000 173.028
48.80000 168.318
48.84000 177.828
48.88000 191.288
48.92000 178.576
48.96000 175.506
49.00000 172.261
49.04000 178.046
49.08000 175.589
49.12000 175.599
49.16000 169.465
49.20000 173.896
49.24000 179.824
49.28000 186.331
49.32000 178.881
49.36000 176.529
49.40000 168.386
49.44000 179.419
49.48000 175.687
49.52000 185.700
49.56000 178.464
49.60000 178.391
49.64000 176.867
49.68000 180.259
49.72000 162.843
49.76000 176.052
49.80000 181.236
49.84000 177.900
49.88000 182.052
49.92000 177.628
49.96000 174.198
50.00000 176.760
50.04000 175.263
50.08000 169.789
50.12000 169.615
50.16000 166.215
50.20000 172.352
50.24000 163.681
50.28000 171.099
50.32000 170.821
50.36000 167.806
50.40000 167.515
50.44000 186.215
50.48000 174.717
50.52000 189.182
50.56000 185.716
50.60000 178.106
50.64000 171.597
50.68000 178.410
50.72000 194.758
50.76000 185.308
50.80000 181.824
50.84000 185.724
50.88000 188.524
50.92000 166.618
50.96000 176.511
51.00000 179.218
51.04000 184.348
51.08000 166.630
51.12000 175.584
51.16000 169.471
51.20000 171.538
51.24000 167.672
51.28000 185.792
51.32000 162.463
51.36000 171.578
51.40000 178.996
51.44000 160.641
51.48000 173.090
51.52000 153.510
51.56000 164.128
51.60000 168.408
51.64000 169.522
51.68000 154.033
51.72000 163.552
51.76000 161.282
51.80000 169.210
51.84000 159.168
51.88000 156.940
51.92000 151.076
51.96000 164.371
52.00000 177.338
52.04000 144.273
52.08000 162.322
52.12000 161.181
52.16000 149.386
52.20000 158.550
52.24000 165.687
52.28000 154.916
52.32000 154.297
52.36000 168.035
52.40000 156.034
52.44000 156.423
52.48000 152.570
52.52000 152.780
52.56000 160.348
52.60000 169.118
52.64000 162.013
52.68000 153.639
52.72000 155.241
52.76000 159.140
52.80000 151.415
52.84000 173.597
52.88000 155.749
52.92000 152.710
52.96000 151.331
53.00000 152.106
53.04000 153.629
53.08000 155.985
53.12000 161.472
53.16000 157.332
53.20000 153.669
53.24000 149.463
53.28000 156.905
53.32000 150.067
53.36000 153.767
53.40000 159.451
53.44000 158.144
53.48000 170.219
53.52000 160.874
53.56000 159.059
53.60000 153.557
53.64000 163.725
53.68000 145.534
53.72000 149.790
53.76000 155.928
53.80000 156.613
53.84000 147.625
53.88000 148.486
53.92000 158.361
53.96000 158.282
54.00000 159.575
54.04000 151.003
54.08000 154.760
54.12000 158.906
54.16000 154.910
54.20000 163.277
54.24000 161.076
54.28000 156.169
54.32000 154.936
54.36000 152.081
54.40000 140.351
54.44000 144.398
54.48000 148.985
54.52000 154.741
54.56000 146.242
54.60000 152.319
54.64000 157.354
54.68000 152.772
54.72000 152.020
54.76000 147.929
54.80000 158.963
54.84000 161.245
54.88000 157.403
54.92000 160.600
54.96000 151.409
55.00000 153.886
55.04000 142.462
55.08000 157.049
55.12000 153.316
55.16000 152.669
55.20000 160.333
55.24000 157.011
55.28000 157.191
55.32000 165.172
55.36000 168.746
55.40000 166.712
55.44000 169.654
55.48000 164.768
55.52000 173.557
55.56000 183.604
55.60000 194.191
55.64000 195.031
55.68000 212.679
55.72000 231.752
55.76000 241.354
55.80000 244.474
55.84000 276.051
55.88000 285.139
55.92000 302.940
55.96000 284.256
56.00000 301.154
56.04000 283.839
56.08000 282.318
56.12000 255.467
56.16000 237.971
56.20000 230.620
56.24000 208.760
56.28000 215.540
56.32000 189.406
56.36000 186.307
56.40000 189.098
56.44000 165.124
56.48000 159.404
56.52000 160.054
56.56000 159.113
56.60000 159.382
56.64000 151.083
56.68000 150.200
56.72000 148.734
56.76000 161.230
56.80000 150.844
56.84000 155.009
56.88000 151.654
56.92000 142.246
56.96000 144.038
57.00000 143.377
57.04000 140.818
57.08000 151.976
57.12000 136.499
57.16000 146.088
57.20000 151.171
57.24000 143.916
57.28000 143.211
57.32000 140.232
57.36000 135.183
57.40000 146.324
57.44000 140.682
57.48000 139.372
57.52000 138.317
57.56000 142.028
57.60000 128.659
57.64000 147.719
57.68000 138.077
57.72000 134.532
57.76000 145.234
57.80000 141.882
57.84000 141.545
57.88000 137.437
57.92000 133.319
57.96000 136.069
58.00000 147.314
58.04000 128.449
58.08000 144.492
58.12000 129.718
58.16000 133.731
58.20000 146.073
58.24000 131.207
58.28000 141.042
58.32000 141.829
58.36000 146.271
58.40000 136.390
58.44000 147.574
58.48000 137.329
58.52000 141.598
58.56000 135.987
58.60000 146.121
58.64000 141.605
58.68000 135.693
58.72000 132.371
58.76000 124.396
58.80000 137.668
58.84000 135.329
58.88000 137.671
58.92000 137.663
58.96000 127.964
59.00000 135.598
59.04000 137.475
59.08000 132.780
59.12000 133.904
59.16000 143.863
59.20000 144.349
59.24000 121.710
59.28000 138.641
59.32000 136.862
59.36000 144.582
59.40000 137.047
59.44000 134.056
59.48000 135.286
59.52000 147.744
59.56000 140.913
59.60000 131.564
59.64000 138.158
59.68000 140.859
59.72000 137.409
59.76000 128.835
59.80000 130.152
59.84000 138.348
59.88000 141.430
59.92000 125.207
59.96000 130.529
60.00000 131.131
60.04000 125.433
60.08000 134.935
60.12000 135.409
60.16000 134.393
60.20000 137.837
60.24000 126.912
60.28000 124.826
60.32000 127.230
60.36000 130.664
60.40000 140.318
60.44000 128.214
60.48000 133.347
60.52000 146.511
60.56000 128.051
60.60000 140.832
60.64000 121.461
60.68000 130.761
60.72000 137.329
60.76000 127.565
60.80000 126.299
60.84000 131.169
60.88000 137.589
60.92000 130.231
60.96000 132.022
61.00000 128.326
61.04000 132.932
61.08000 133.765
61.12000 141.291
61.16000 130.000
61.20000 136.161
61.24000 140.561
61.28000 138.003
61.32000 140.767
61.36000 133.728
61.40000 140.735
61.44000 138.137
61.48000 140.642
61.52000 149.698
61.56000 187.656
61.60000 221.727
61.64000 228.759
61.68000 263.675
61.72000 260.901
61.76000 247.770
61.80000 230.169
61.84000 179.576
61.88000 163.149
61.92000 156.423
61.96000 153.521
62.00000 143.037
62.04000 142.010
62.08000 132.797
62.12000 139.560
62.16000 138.124
62.20000 141.335
62.24000 149.202
62.28000 140.831
62.32000 145.556
62.36000 146.752
62.40000 141.605
62.44000 138.790
62.48000 144.218
62.52000 142.596
62.56000 139.746
62.60000 152.177
62.64000 143.516
62.68000 139.717
62.72000 144.215
62.76000 139.409
62.80000 147.357
62.84000 150.231
62.88000 143.583
62.92000 140.479
62.96000 143.359
63.00000 146.584
63.04000 147.142
63.08000 147.259
63.12000 140.803
63.16000 143.555
63.20000 147.639
63.24000 152.371
63.28000 142.735
63.32000 154.902
63.36000 150.776
63.40000 141.662
63.44000 165.270
63.48000 155.089
63.52000 138.580
63.56000 145.635
63.60000 153.690
63.64000 151.880
63.68000 141.114
63.72000 151.952
63.76000 160.097
63.80000 158.634
63.84000 157.400
63.88000 165.298
63.92000 166.326
63.96000 169.900
64.00000 171.742
64.04000 157.019
64.08000 152.143
64.12000 156.095
64.16000 159.818
64.20000 170.658
64.24000 166.714
64.28000 161.674
64.32000 157.378
64.36000 162.042
64.40000 175.289
64.44000 158.092
64.48000 162.130
64.52000 172.939
64.56000 181.465
64.60000 175.030
64.64000 164.854
64.68000 182.342
64.72000 169.795
64.76000 188.457
64.80000 182.243
64.84000 181.743
64.88000 179.945
64.92000 178.667
64.96000 186.065
65.00000 194.494
65.04000 188.818
65.08000 195.229
65.12000 196.384
65.16000 186.428
65.20000 204.559
65.24000 215.271
65.28000 209.820
65.32000 224.976
65.36000 209.132
65.40000 237.195
65.44000 239.049
65.48000 254.575
65.52000 251.595
65.56000 274.321
65.60000 293.370
65.64000 322.114
65.68000 365.042
65.72000 485.329
65.76000 698.497
65.80000 892.298
65.84000 1017.271
65.88000 1037.427
65.92000 1023.577
65.96000 891.066
66.00000 678.635
66.04000 476.805
66.08000 363.967
66.12000 326.841
66.16000 300.493
66.20000 296.381
66.24000 325.717
66.28000 354.813
66.32000 384.055
66.36000 424.788
66.40000 444.881
66.44000 440.446
66.48000 449.188
66.52000 434.697
66.56000 381.866
66.60000 346.350
66.64000 342.713
66.68000 319.291
66.72000 302.717
66.76000 323.699
66.80000 322.765
66.84000 320.243
66.88000 345.101
66.92000 357.776
66.96000 343.101
67.00000 329.255
67.04000 360.450
67.08000 362.917
67.12000 374.717
67.16000 365.787
67.20000 385.571
67.24000 379.416
67.28000 372.203
67.32000 400.727
67.36000 392.154
67.40000 417.915
67.44000 405.141
67.48000 431.567
67.52000 442.508
67.56000 424.050
67.60000 447.049
67.64000 425.891
67.68000 469.382
67.72000 463.774
67.76000 484.444
67.80000 493.872
67.84000 500.855
67.88000 517.985
67.92000 508.734
67.96000 512.554
68.00000 532.422
68.04000 537.928
68.08000 560.422
68.12000 559.888
68.16000 571.891
68.20000 608.831
68.24000 600.172
68.28000 652.464
68.32000 649.247
68.36000 656.204
68.40000 719.847
68.44000 722.531
68.48000 758.122
68.52000 817.717
68.56000 864.560
68.60000 945.252
68.64000 1063.483
68.68000 1243.912
68.72000 1493.805
68.76000 1681.978
68.80000 1815.947
68.84000 2152.797
68.88000 2522.536
68.92000 3909.095
68.96000 9637.420
69.00000 23341.213
69.04000 40920.145
69.08000 51075.852
69.12000 53732.535
69.16000 55552.641
69.20000 57255.855
69.24000 49754.516
69.28000 37176.176
69.32000 29980.664
69.36000 26865.156
69.40000 23191.877
69.44000 15320.507
69.48000 7228.070
69.52000 3154.050
69.56000 1940.997
69.60000 1508.480
69.64000 1289.101
69.68000 1125.011
69.72000 1012.417
69.76000 917.503
69.80000 839.849
69.84000 809.303
69.88000 768.677
69.92000 710.316
69.96000 687.252
70.00000 667.751