File: XRD/25-09-2025/XY Data/BTO_Mapping_Theta2Theta_25-09-2025_001_58_9-135_-4-067.xy
20.00000 576.433
20.04000 562.589
20.08000 554.968
20.12000 552.686
20.16000 560.605
20.20000 552.266
20.24000 550.909
20.28000 554.209
20.32000 552.099
20.36000 546.229
20.40000 546.553
20.44000 560.863
20.48000 556.593
20.52000 530.972
20.56000 559.776
20.60000 547.469
20.64000 553.400
20.68000 534.508
20.72000 531.226
20.76000 554.808
20.80000 529.680
20.84000 525.490
20.88000 551.048
20.92000 547.713
20.96000 545.329
21.00000 538.195
21.04000 556.219
21.08000 544.062
21.12000 539.638
21.16000 529.426
21.20000 554.617
21.24000 537.875
21.28000 529.192
21.32000 538.546
21.36000 557.775
21.40000 541.452
21.44000 550.044
21.48000 541.620
21.52000 537.924
21.56000 540.303
21.60000 545.614
21.64000 545.986
21.68000 539.516
21.72000 559.937
21.76000 548.885
21.80000 560.450
21.84000 568.330
21.88000 556.778
21.92000 583.417
21.96000 586.123
22.00000 588.364
22.04000 579.943
22.08000 581.217
22.12000 613.552
22.16000 607.829
22.20000 599.016
22.24000 620.234
22.28000 610.762
22.32000 616.045
22.36000 587.706
22.40000 579.481
22.44000 570.387
22.48000 559.998
22.52000 554.037
22.56000 562.080
22.60000 538.656
22.64000 530.313
22.68000 508.715
22.72000 529.507
22.76000 537.827
22.80000 529.415
22.84000 510.462
22.88000 506.352
22.92000 500.421
22.96000 509.394
23.00000 517.608
23.04000 496.001
23.08000 517.323
23.12000 506.926
23.16000 518.932
23.20000 497.313
23.24000 513.475
23.28000 506.705
23.32000 503.268
23.36000 492.585
23.40000 500.034
23.44000 465.094
23.48000 492.944
23.52000 482.075
23.56000 484.808
23.60000 491.428
23.64000 469.845
23.68000 495.539
23.72000 494.601
23.76000 489.942
23.80000 491.982
23.84000 500.815
23.88000 490.611
23.92000 480.170
23.96000 498.685
24.00000 494.315
24.04000 449.530
24.08000 488.374
24.12000 481.021
24.16000 498.180
24.20000 490.719
24.24000 483.701
24.28000 489.820
24.32000 492.928
24.36000 500.371
24.40000 505.790
24.44000 453.611
24.48000 479.738
24.52000 484.634
24.56000 480.824
24.60000 479.488
24.64000 488.168
24.68000 468.801
24.72000 467.242
24.76000 477.429
24.80000 472.478
24.84000 495.407
24.88000 478.865
24.92000 461.091
24.96000 457.389
25.00000 470.485
25.04000 479.112
25.08000 483.126
25.12000 464.176
25.16000 467.902
25.20000 473.842
25.24000 475.135
25.28000 462.077
25.32000 450.431
25.36000 451.774
25.40000 462.284
25.44000 456.399
25.48000 461.997
25.52000 461.173
25.56000 452.891
25.60000 457.570
25.64000 458.223
25.68000 465.708
25.72000 452.134
25.76000 456.981
25.80000 458.319
25.84000 458.822
25.88000 462.047
25.92000 469.310
25.96000 442.402
26.00000 459.803
26.04000 437.077
26.08000 477.317
26.12000 431.167
26.16000 445.320
26.20000 457.371
26.24000 456.154
26.28000 470.412
26.32000 437.743
26.36000 429.409
26.40000 417.846
26.44000 466.448
26.48000 426.014
26.52000 448.180
26.56000 457.580
26.60000 445.193
26.64000 429.888
26.68000 439.058
26.72000 466.663
26.76000 439.297
26.80000 441.199
26.84000 418.847
26.88000 433.718
26.92000 425.058
26.96000 420.812
27.00000 437.678
27.04000 450.334
27.08000 438.941
27.12000 433.244
27.16000 428.833
27.20000 436.681
27.24000 426.538
27.28000 427.847
27.32000 434.035
27.36000 421.666
27.40000 447.548
27.44000 431.429
27.48000 433.286
27.52000 424.585
27.56000 425.948
27.60000 438.006
27.64000 435.244
27.68000 442.429
27.72000 414.817
27.76000 421.936
27.80000 443.075
27.84000 425.816
27.88000 410.641
27.92000 415.718
27.96000 432.849
28.00000 405.742
28.04000 429.139
28.08000 422.888
28.12000 413.229
28.16000 415.757
28.20000 431.434
28.24000 423.287
28.28000 416.248
28.32000 415.817
28.36000 425.113
28.40000 417.726
28.44000 416.402
28.48000 413.027
28.52000 436.820
28.56000 429.650
28.60000 414.378
28.64000 421.988
28.68000 416.306
28.72000 418.996
28.76000 420.876
28.80000 409.807
28.84000 417.380
28.88000 405.747
28.92000 414.316
28.96000 401.606
29.00000 414.447
29.04000 405.006
29.08000 404.738
29.12000 400.898
29.16000 407.579
29.20000 381.681
29.24000 420.755
29.28000 398.393
29.32000 387.374
29.36000 397.025
29.40000 394.776
29.44000 414.461
29.48000 402.017
29.52000 391.082
29.56000 401.502
29.60000 407.021
29.64000 382.336
29.68000 404.834
29.72000 396.057
29.76000 393.372
29.80000 409.723
29.84000 386.423
29.88000 410.144
29.92000 417.841
29.96000 385.371
30.00000 411.265
30.04000 411.771
30.08000 413.442
30.12000 410.758
30.16000 399.033
30.20000 408.339
30.24000 418.076
30.28000 393.314
30.32000 393.727
30.36000 418.796
30.40000 405.041
30.44000 407.586
30.48000 408.412
30.52000 405.127
30.56000 394.659
30.60000 405.719
30.64000 401.775
30.68000 412.252
30.72000 409.460
30.76000 409.949
30.80000 417.709
30.84000 414.502
30.88000 420.507
30.92000 430.305
30.96000 451.729
31.00000 457.385
31.04000 504.456
31.08000 562.162
31.12000 615.611
31.16000 686.844
31.20000 807.398
31.24000 965.729
31.28000 1096.582
31.32000 1209.885
31.36000 1302.832
31.40000 1337.853
31.44000 1288.495
31.48000 1199.216
31.52000 1087.828
31.56000 926.290
31.60000 840.816
31.64000 711.801
31.68000 634.152
31.72000 556.560
31.76000 533.322
31.80000 488.772
31.84000 473.563
31.88000 443.329
31.92000 416.888
31.96000 434.699
32.00000 420.820
32.04000 401.938
32.08000 395.034
32.12000 402.864
32.16000 400.080
32.20000 394.331
32.24000 387.975
32.28000 372.585
32.32000 375.043
32.36000 368.955
32.40000 384.145
32.44000 381.176
32.48000 367.540
32.52000 357.218
32.56000 357.933
32.60000 365.854
32.64000 372.967
32.68000 354.690
32.72000 363.396
32.76000 345.366
32.80000 347.704
32.84000 368.406
32.88000 369.066
32.92000 373.395
32.96000 353.473
33.00000 355.168
33.04000 371.147
33.08000 345.002
33.12000 331.100
33.16000 333.217
33.20000 337.524
33.24000 352.800
33.28000 335.087
33.32000 336.289
33.36000 338.203
33.40000 324.233
33.44000 322.802
33.48000 347.996
33.52000 332.986
33.56000 337.523
33.60000 349.603
33.64000 355.359
33.68000 349.232
33.72000 332.044
33.76000 329.294
33.80000 330.133
33.84000 325.550
33.88000 333.259
33.92000 335.086
33.96000 328.709
34.00000 315.490
34.04000 331.839
34.08000 311.641
34.12000 332.048
34.16000 325.047
34.20000 313.917
34.24000 328.319
34.28000 318.909
34.32000 316.601
34.36000 322.575
34.40000 328.144
34.44000 312.127
34.48000 318.561
34.52000 317.616
34.56000 314.032
34.60000 325.497
34.64000 317.113
34.68000 314.020
34.72000 312.783
34.76000 316.682
34.80000 307.091
34.84000 323.315
34.88000 329.659
34.92000 302.080
34.96000 307.175
35.00000 302.893
35.04000 303.539
35.08000 317.407
35.12000 297.321
35.16000 300.540
35.20000 292.642
35.24000 296.575
35.28000 301.698
35.32000 315.534
35.36000 306.756
35.40000 301.767
35.44000 287.075
35.48000 311.977
35.52000 293.362
35.56000 288.719
35.60000 317.830
35.64000 286.632
35.68000 304.192
35.72000 295.146
35.76000 307.834
35.80000 323.226
35.84000 290.361
35.88000 292.950
35.92000 297.237
35.96000 290.818
36.00000 290.886
36.04000 276.036
36.08000 308.280
36.12000 294.635
36.16000 270.818
36.20000 289.448
36.24000 304.260
36.28000 301.842
36.32000 296.140
36.36000 305.118
36.40000 291.806
36.44000 289.746
36.48000 289.474
36.52000 292.140
36.56000 295.547
36.60000 300.330
36.64000 291.100
36.68000 301.645
36.72000 289.945
36.76000 298.443
36.80000 296.612
36.84000 298.661
36.88000 290.897
36.92000 293.380
36.96000 302.691
37.00000 302.241
37.04000 303.093
37.08000 294.399
37.12000 281.184
37.16000 297.865
37.20000 287.989
37.24000 302.975
37.28000 284.356
37.32000 286.208
37.36000 285.488
37.40000 284.017
37.44000 286.877
37.48000 297.071
37.52000 284.670
37.56000 274.665
37.60000 294.334
37.64000 277.365
37.68000 284.696
37.72000 290.168
37.76000 286.533
37.80000 287.571
37.84000 286.457
37.88000 279.683
37.92000 278.240
37.96000 284.205
38.00000 276.915
38.04000 276.003
38.08000 284.436
38.12000 272.371
38.16000 278.323
38.20000 297.581
38.24000 296.015
38.28000 294.290
38.32000 312.719
38.36000 305.503
38.40000 333.382
38.44000 378.156
38.48000 389.429
38.52000 475.484
38.56000 509.044
38.60000 619.239
38.64000 717.698
38.68000 769.437
38.72000 810.902
38.76000 822.942
38.80000 774.228
38.84000 711.788
38.88000 627.513
38.92000 539.453
38.96000 451.641
39.00000 418.479
39.04000 361.300
39.08000 318.369
39.12000 301.161
39.16000 291.657
39.20000 272.256
39.24000 284.881
39.28000 262.468
39.32000 273.511
39.36000 273.865
39.40000 270.788
39.44000 267.032
39.48000 275.661
39.52000 269.660
39.56000 259.113
39.60000 260.842
39.64000 265.631
39.68000 260.322
39.72000 256.428
39.76000 258.853
39.80000 251.510
39.84000 254.176
39.88000 262.555
39.92000 241.799
39.96000 260.768
40.00000 248.536
40.04000 258.361
40.08000 242.130
40.12000 251.921
40.16000 258.003
40.20000 251.301
40.24000 260.455
40.28000 246.954
40.32000 248.191
40.36000 247.793
40.40000 247.034
40.44000 245.155
40.48000 257.064
40.52000 252.959
40.56000 244.985
40.60000 250.427
40.64000 250.713
40.68000 243.719
40.72000 232.563
40.76000 243.461
40.80000 236.765
40.84000 238.479
40.88000 249.161
40.92000 254.093
40.96000 244.086
41.00000 235.316
41.04000 247.675
41.08000 236.361
41.12000 238.881
41.16000 247.314
41.20000 243.443
41.24000 250.139
41.28000 246.668
41.32000 242.372
41.36000 251.557
41.40000 234.383
41.44000 242.553
41.48000 235.040
41.52000 240.533
41.56000 245.511
41.60000 236.803
41.64000 231.716
41.68000 233.672
41.72000 234.377
41.76000 236.516
41.80000 243.845
41.84000 245.209
41.88000 220.494
41.92000 232.080
41.96000 228.515
42.00000 230.729
42.04000 237.825
42.08000 229.906
42.12000 226.261
42.16000 220.722
42.20000 238.384
42.24000 222.714
42.28000 232.767
42.32000 236.823
42.36000 225.693
42.40000 217.608
42.44000 227.895
42.48000 223.145
42.52000 239.213
42.56000 224.477
42.60000 234.954
42.64000 238.033
42.68000 229.623
42.72000 220.106
42.76000 213.551
42.80000 218.158
42.84000 222.758
42.88000 219.662
42.92000 219.265
42.96000 222.325
43.00000 226.580
43.04000 216.310
43.08000 229.459
43.12000 226.710
43.16000 228.231
43.20000 211.609
43.24000 221.142
43.28000 224.650
43.32000 221.666
43.36000 219.827
43.40000 206.455
43.44000 213.879
43.48000 217.549
43.52000 207.412
43.56000 210.778
43.60000 221.053
43.64000 218.434
43.68000 210.808
43.72000 224.258
43.76000 223.779
43.80000 218.808
43.84000 221.203
43.88000 231.238
43.92000 225.015
43.96000 220.355
44.00000 222.540
44.04000 213.767
44.08000 222.723
44.12000 220.363
44.16000 220.759
44.20000 220.298
44.24000 210.078
44.28000 207.415
44.32000 222.590
44.36000 216.591
44.40000 220.953
44.44000 219.861
44.48000 222.212
44.52000 217.220
44.56000 204.782
44.60000 223.651
44.64000 220.894
44.68000 236.782
44.72000 228.624
44.76000 237.528
44.80000 225.982
44.84000 227.740
44.88000 227.142
44.92000 234.809
44.96000 255.272
45.00000 244.193
45.04000 255.045
45.08000 244.785
45.12000 255.480
45.16000 262.154
45.20000 253.985
45.24000 263.402
45.28000 254.749
45.32000 259.826
45.36000 259.838
45.40000 247.065
45.44000 247.855
45.48000 243.400
45.52000 252.914
45.56000 253.398
45.60000 247.071
45.64000 244.460
45.68000 235.684
45.72000 230.703
45.76000 238.349
45.80000 226.035
45.84000 229.130
45.88000 233.653
45.92000 229.675
45.96000 218.403
46.00000 199.705
46.04000 228.180
46.08000 220.971
46.12000 215.914
46.16000 216.128
46.20000 208.243
46.24000 212.969
46.28000 214.997
46.32000 203.101
46.36000 200.100
46.40000 195.077
46.44000 190.378
46.48000 201.570
46.52000 198.309
46.56000 210.454
46.60000 204.635
46.64000 202.202
46.68000 206.250
46.72000 192.823
46.76000 201.017
46.80000 188.840
46.84000 198.971
46.88000 195.836
46.92000 191.378
46.96000 198.796
47.00000 193.376
47.04000 204.789
47.08000 200.245
47.12000 196.678
47.16000 195.744
47.20000 200.715
47.24000 180.274
47.28000 196.329
47.32000 190.825
47.36000 177.229
47.40000 182.748
47.44000 182.405
47.48000 186.892
47.52000 189.801
47.56000 193.841
47.60000 188.222
47.64000 187.431
47.68000 172.323
47.72000 184.021
47.76000 186.119
47.80000 183.598
47.84000 183.230
47.88000 187.068
47.92000 192.577
47.96000 191.914
48.00000 190.445
48.04000 193.493
48.08000 185.968
48.12000 180.368
48.16000 179.758
48.20000 188.699
48.24000 185.687
48.28000 171.328
48.32000 181.841
48.36000 176.796
48.40000 174.599
48.44000 176.289
48.48000 178.869
48.52000 181.649
48.56000 176.056
48.60000 183.838
48.64000 195.749
48.68000 173.001
48.72000 170.459
48.76000 176.664
48.80000 175.075
48.84000 174.023
48.88000 179.188
48.92000 176.664
48.96000 170.850
49.00000 174.124
49.04000 176.482
49.08000 184.802
49.12000 176.034
49.16000 172.117
49.20000 179.908
49.24000 183.688
49.28000 165.883
49.32000 174.285
49.36000 178.821
49.40000 177.638
49.44000 169.757
49.48000 178.614
49.52000 174.123
49.56000 175.474
49.60000 174.567
49.64000 168.706
49.68000 175.841
49.72000 171.971
49.76000 171.139
49.80000 162.242
49.84000 175.063
49.88000 165.797
49.92000 176.074
49.96000 171.991
50.00000 175.736
50.04000 169.002
50.08000 183.680
50.12000 177.049
50.16000 170.204
50.20000 177.273
50.24000 183.405
50.28000 174.729
50.32000 175.535
50.36000 174.578
50.40000 184.962
50.44000 189.976
50.48000 181.725
50.52000 187.023
50.56000 183.723
50.60000 200.089
50.64000 198.686
50.68000 184.922
50.72000 206.920
50.76000 201.152
50.80000 202.352
50.84000 185.005
50.88000 172.369
50.92000 179.831
50.96000 174.238
51.00000 177.371
51.04000 180.664
51.08000 180.060
51.12000 181.254
51.16000 172.561
51.20000 182.275
51.24000 178.626
51.28000 186.843
51.32000 164.856
51.36000 170.463
51.40000 162.919
51.44000 159.535
51.48000 171.997
51.52000 162.089
51.56000 170.373
51.60000 182.386
51.64000 160.460
51.68000 163.033
51.72000 164.338
51.76000 163.000
51.80000 170.607
51.84000 157.075
51.88000 164.002
51.92000 153.824
51.96000 156.458
52.00000 156.303
52.04000 173.678
52.08000 165.491
52.12000 162.421
52.16000 155.256
52.20000 155.890
52.24000 160.228
52.28000 152.715
52.32000 162.141
52.36000 155.338
52.40000 160.260
52.44000 146.587
52.48000 157.998
52.52000 154.025
52.56000 154.697
52.60000 158.044
52.64000 158.149
52.68000 146.683
52.72000 144.247
52.76000 147.976
52.80000 163.744
52.84000 157.259
52.88000 158.236
52.92000 154.476
52.96000 159.550
53.00000 151.206
53.04000 156.356
53.08000 158.346
53.12000 159.130
53.16000 159.632
53.20000 158.702
53.24000 159.619
53.28000 147.264
53.32000 149.175
53.36000 158.448
53.40000 149.589
53.44000 159.458
53.48000 158.072
53.52000 161.523
53.56000 166.731
53.60000 151.349
53.64000 140.541
53.68000 154.290
53.72000 153.757
53.76000 155.008
53.80000 158.709
53.84000 162.309
53.88000 167.316
53.92000 144.707
53.96000 151.010
54.00000 144.704
54.04000 159.531
54.08000 150.748
54.12000 158.649
54.16000 145.817
54.20000 152.154
54.24000 145.854
54.28000 166.307
54.32000 137.622
54.36000 144.554
54.40000 156.108
54.44000 149.627
54.48000 144.947
54.52000 156.341
54.56000 149.065
54.60000 140.364
54.64000 151.586
54.68000 143.531
54.72000 147.797
54.76000 159.201
54.80000 155.812
54.84000 148.120
54.88000 150.078
54.92000 165.305
54.96000 151.449
55.00000 161.875
55.04000 144.960
55.08000 153.516
55.12000 150.041
55.16000 158.830
55.20000 151.916
55.24000 150.112
55.28000 162.155
55.32000 152.128
55.36000 157.671
55.40000 152.793
55.44000 173.805
55.48000 162.709
55.52000 180.886
55.56000 189.439
55.60000 210.972
55.64000 241.447
55.68000 249.947
55.72000 290.145
55.76000 323.233
55.80000 343.978
55.84000 394.892
55.88000 425.972
55.92000 453.250
55.96000 493.396
56.00000 443.033
56.04000 457.727
56.08000 449.283
56.12000 388.821
56.16000 387.493
56.20000 342.689
56.24000 313.863
56.28000 292.581
56.32000 248.564
56.36000 233.537
56.40000 222.190
56.44000 191.748
56.48000 176.270
56.52000 170.701
56.56000 163.041
56.60000 170.728
56.64000 154.656
56.68000 165.051
56.72000 155.792
56.76000 152.063
56.80000 159.829
56.84000 146.483
56.88000 165.818
56.92000 144.426
56.96000 147.515
57.00000 152.774
57.04000 145.524
57.08000 144.675
57.12000 136.060
57.16000 137.420
57.20000 136.303
57.24000 141.999
57.28000 147.843
57.32000 144.822
57.36000 140.167
57.40000 124.265
57.44000 145.289
57.48000 129.245
57.52000 135.811
57.56000 135.636
57.60000 141.811
57.64000 132.026
57.68000 138.056
57.72000 142.300
57.76000 150.499
57.80000 137.536
57.84000 153.569
57.88000 141.700
57.92000 147.908
57.96000 131.029
58.00000 140.471
58.04000 140.647
58.08000 135.956
58.12000 128.681
58.16000 137.076
58.20000 135.736
58.24000 131.531
58.28000 139.535
58.32000 138.040
58.36000 144.560
58.40000 145.175
58.44000 140.148
58.48000 135.909
58.52000 138.705
58.56000 137.772
58.60000 141.195
58.64000 140.812
58.68000 133.180
58.72000 137.233
58.76000 130.089
58.80000 134.989
58.84000 131.686
58.88000 137.355
58.92000 144.023
58.96000 135.079
59.00000 129.434
59.04000 137.267
59.08000 130.803
59.12000 130.535
59.16000 125.540
59.20000 138.450
59.24000 138.189
59.28000 136.960
59.32000 130.899
59.36000 127.113
59.40000 127.032
59.44000 139.740
59.48000 138.245
59.52000 127.984
59.56000 135.673
59.60000 133.851
59.64000 130.606
59.68000 134.166
59.72000 135.075
59.76000 133.878
59.80000 148.106
59.84000 126.477
59.88000 138.521
59.92000 139.352
59.96000 126.134
60.00000 133.628
60.04000 134.594
60.08000 142.748
60.12000 136.980
60.16000 124.556
60.20000 117.669
60.24000 136.932
60.28000 140.018
60.32000 134.861
60.36000 125.311
60.40000 118.350
60.44000 135.673
60.48000 135.899
60.52000 126.998
60.56000 135.756
60.60000 140.718
60.64000 127.124
60.68000 132.815
60.72000 132.762
60.76000 125.149
60.80000 129.461
60.84000 135.877
60.88000 138.198
60.92000 134.049
60.96000 129.215
61.00000 132.263
61.04000 134.724
61.08000 143.390
61.12000 127.960
61.16000 136.411
61.20000 129.792
61.24000 139.557
61.28000 139.603
61.32000 126.952
61.36000 138.190
61.40000 139.105
61.44000 136.496
61.48000 150.597
61.52000 156.584
61.56000 198.194
61.60000 217.507
61.64000 247.796
61.68000 270.143
61.72000 273.862
61.76000 268.415
61.80000 218.231
61.84000 181.650
61.88000 166.058
61.92000 142.129
61.96000 149.144
62.00000 137.079
62.04000 137.407
62.08000 150.973
62.12000 146.553
62.16000 141.348
62.20000 137.832
62.24000 136.781
62.28000 145.410
62.32000 134.869
62.36000 149.599
62.40000 140.056
62.44000 134.034
62.48000 139.154
62.52000 142.443
62.56000 149.520
62.60000 144.791
62.64000 139.250
62.68000 138.492
62.72000 135.797
62.76000 142.202
62.80000 138.531
62.84000 140.669
62.88000 140.420
62.92000 146.141
62.96000 141.673
63.00000 139.211
63.04000 145.473
63.08000 159.223
63.12000 144.520
63.16000 147.505
63.20000 149.594
63.24000 146.738
63.28000 149.112
63.32000 148.993
63.36000 149.659
63.40000 148.799
63.44000 146.994
63.48000 142.280
63.52000 142.334
63.56000 153.444
63.60000 154.428
63.64000 149.501
63.68000 149.917
63.72000 154.943
63.76000 151.651
63.80000 152.761
63.84000 146.399
63.88000 150.864
63.92000 147.823
63.96000 152.726
64.00000 148.433
64.04000 167.892
64.08000 157.526
64.12000 154.963
64.16000 147.101
64.20000 153.458
64.24000 159.191
64.28000 155.153
64.32000 165.319
64.36000 153.960
64.40000 165.869
64.44000 172.362
64.48000 171.485
64.52000 170.807
64.56000 167.347
64.60000 168.360
64.64000 169.735
64.68000 163.573
64.72000 165.177
64.76000 189.912
64.80000 186.711
64.84000 195.462
64.88000 181.054
64.92000 172.986
64.96000 183.670
65.00000 182.227
65.04000 187.212
65.08000 196.672
65.12000 205.132
65.16000 211.658
65.20000 208.614
65.24000 210.914
65.28000 222.576
65.32000 233.160
65.36000 241.553
65.40000 230.272
65.44000 247.783
65.48000 266.044
65.52000 274.452
65.56000 280.373
65.60000 305.009
65.64000 328.583
65.68000 373.462
65.72000 530.762
65.76000 742.204
65.80000 929.258
65.84000 1012.320
65.88000 1066.846
65.92000 1052.741
65.96000 899.113
66.00000 657.416
66.04000 464.229
66.08000 356.029
66.12000 321.712
66.16000 310.000
66.20000 302.184
66.24000 319.940
66.28000 340.326
66.32000 390.148
66.36000 425.380
66.40000 443.281
66.44000 438.778
66.48000 448.074
66.52000 432.037
66.56000 370.151
66.60000 332.673
66.64000 318.570
66.68000 329.995
66.72000 331.644
66.76000 325.825
66.80000 324.260
66.84000 307.099
66.88000 326.331
66.92000 331.148
66.96000 331.838
67.00000 344.265
67.04000 369.837
67.08000 358.459
67.12000 357.873
67.16000 374.529
67.20000 379.716
67.24000 374.487
67.28000 387.820
67.32000 379.390
67.36000 409.567
67.40000 417.906
67.44000 428.405
67.48000 412.515
67.52000 417.075
67.56000 412.790
67.60000 434.055
67.64000 436.681
67.68000 456.886
67.72000 454.346
67.76000 466.132
67.80000 481.000
67.84000 498.886
67.88000 491.472
67.92000 515.750
67.96000 515.675
68.00000 513.346
68.04000 545.181
68.08000 558.524
68.12000 559.690
68.16000 554.562
68.20000 564.256
68.24000 606.637
68.28000 639.454
68.32000 639.565
68.36000 657.680
68.40000 698.442
68.44000 718.929
68.48000 794.297
68.52000 788.714
68.56000 866.575
68.60000 943.189
68.64000 1064.783
68.68000 1280.359
68.72000 1523.781
68.76000 1679.648
68.80000 1923.119
68.84000 2219.771
68.88000 2744.007
68.92000 4346.139
68.96000 10916.547
69.00000 25472.863
69.04000 42382.391
69.08000 51305.078
69.12000 53253.691
69.16000 55341.133
69.20000 56328.652
69.24000 47570.344
69.28000 36031.664
69.32000 29225.678
69.36000 26417.846
69.40000 22447.133
69.44000 14058.659
69.48000 6660.117
69.52000 2997.352
69.56000 1851.014
69.60000 1467.084
69.64000 1260.172
69.68000 1134.362
69.72000 1009.996
69.76000 932.243
69.80000 835.064
69.84000 786.054
69.88000 761.922
69.92000 728.014
69.96000 674.410
70.00000 672.253