File: XRD/25-09-2025/XY Data/BTO_Mapping_Theta2Theta_25-09-2025_001_51_6-180_-19-021.xy
20.00000 566.235
20.04000 557.288
20.08000 552.795
20.12000 558.794
20.16000 549.281
20.20000 549.741
20.24000 560.540
20.28000 552.801
20.32000 542.482
20.36000 534.335
20.40000 552.155
20.44000 550.076
20.48000 539.973
20.52000 538.897
20.56000 544.451
20.60000 533.720
20.64000 532.420
20.68000 543.939
20.72000 557.344
20.76000 558.066
20.80000 547.185
20.84000 547.271
20.88000 547.227
20.92000 563.596
20.96000 534.324
21.00000 530.888
21.04000 557.394
21.08000 536.577
21.12000 543.195
21.16000 534.643
21.20000 541.391
21.24000 545.805
21.28000 540.318
21.32000 528.206
21.36000 535.253
21.40000 548.064
21.44000 550.745
21.48000 548.916
21.52000 539.762
21.56000 540.755
21.60000 524.013
21.64000 543.110
21.68000 542.232
21.72000 528.869
21.76000 548.334
21.80000 568.724
21.84000 555.454
21.88000 577.998
21.92000 593.847
21.96000 629.246
22.00000 620.050
22.04000 632.676
22.08000 629.570
22.12000 619.126
22.16000 656.024
22.20000 651.250
22.24000 645.032
22.28000 610.190
22.32000 609.985
22.36000 611.002
22.40000 574.593
22.44000 585.413
22.48000 578.262
22.52000 549.428
22.56000 549.348
22.60000 546.753
22.64000 527.188
22.68000 558.965
22.72000 516.757
22.76000 511.711
22.80000 494.333
22.84000 521.683
22.88000 524.338
22.92000 520.410
22.96000 501.464
23.00000 513.963
23.04000 509.011
23.08000 509.722
23.12000 509.008
23.16000 509.051
23.20000 497.274
23.24000 512.338
23.28000 501.326
23.32000 495.817
23.36000 516.883
23.40000 498.599
23.44000 501.235
23.48000 501.661
23.52000 514.343
23.56000 494.277
23.60000 493.097
23.64000 498.850
23.68000 492.048
23.72000 503.387
23.76000 478.197
23.80000 474.256
23.84000 485.005
23.88000 488.254
23.92000 487.067
23.96000 493.209
24.00000 496.015
24.04000 495.591
24.08000 480.665
24.12000 467.241
24.16000 483.335
24.20000 483.183
24.24000 469.212
24.28000 471.669
24.32000 466.434
24.36000 480.176
24.40000 474.616
24.44000 463.770
24.48000 461.905
24.52000 474.284
24.56000 496.183
24.60000 470.032
24.64000 489.648
24.68000 477.451
24.72000 468.098
24.76000 496.709
24.80000 453.861
24.84000 451.626
24.88000 482.492
24.92000 471.118
24.96000 460.638
25.00000 462.438
25.04000 476.602
25.08000 464.956
25.12000 482.577
25.16000 471.426
25.20000 480.684
25.24000 452.663
25.28000 458.303
25.32000 455.759
25.36000 462.169
25.40000 466.064
25.44000 450.732
25.48000 464.130
25.52000 459.550
25.56000 468.053
25.60000 466.674
25.64000 445.723
25.68000 460.001
25.72000 453.851
25.76000 468.835
25.80000 461.194
25.84000 451.347
25.88000 450.920
25.92000 443.164
25.96000 451.587
26.00000 452.530
26.04000 465.207
26.08000 444.394
26.12000 442.770
26.16000 456.095
26.20000 450.207
26.24000 458.328
26.28000 440.646
26.32000 449.018
26.36000 436.386
26.40000 452.207
26.44000 455.964
26.48000 448.248
26.52000 433.130
26.56000 459.742
26.60000 435.456
26.64000 453.076
26.68000 429.758
26.72000 439.343
26.76000 459.272
26.80000 439.505
26.84000 414.690
26.88000 454.483
26.92000 432.090
26.96000 429.754
27.00000 430.238
27.04000 435.778
27.08000 443.575
27.12000 431.490
27.16000 423.767
27.20000 428.093
27.24000 419.892
27.28000 412.635
27.32000 423.900
27.36000 441.488
27.40000 430.892
27.44000 449.625
27.48000 407.767
27.52000 422.416
27.56000 416.547
27.60000 424.898
27.64000 427.302
27.68000 407.727
27.72000 418.148
27.76000 419.895
27.80000 432.506
27.84000 428.811
27.88000 440.293
27.92000 410.326
27.96000 406.619
28.00000 432.427
28.04000 433.917
28.08000 426.255
28.12000 421.283
28.16000 430.106
28.20000 401.586
28.24000 413.156
28.28000 407.951
28.32000 412.018
28.36000 423.295
28.40000 423.902
28.44000 402.819
28.48000 430.186
28.52000 407.393
28.56000 411.401
28.60000 411.383
28.64000 419.719
28.68000 431.274
28.72000 441.111
28.76000 404.818
28.80000 400.720
28.84000 394.892
28.88000 397.036
28.92000 392.700
28.96000 395.663
29.00000 390.686
29.04000 402.486
29.08000 389.622
29.12000 410.717
29.16000 403.082
29.20000 403.395
29.24000 409.402
29.28000 394.498
29.32000 418.944
29.36000 410.568
29.40000 408.376
29.44000 393.969
29.48000 392.974
29.52000 410.799
29.56000 402.075
29.60000 408.093
29.64000 410.179
29.68000 394.056
29.72000 389.179
29.76000 400.608
29.80000 408.564
29.84000 401.825
29.88000 422.432
29.92000 417.820
29.96000 423.164
30.00000 411.202
30.04000 402.423
30.08000 402.839
30.12000 412.823
30.16000 398.627
30.20000 398.145
30.24000 382.415
30.28000 413.236
30.32000 407.495
30.36000 397.138
30.40000 404.786
30.44000 407.226
30.48000 399.937
30.52000 378.209
30.56000 402.125
30.60000 409.483
30.64000 416.789
30.68000 422.423
30.72000 414.961
30.76000 405.956
30.80000 424.274
30.84000 421.201
30.88000 427.036
30.92000 447.484
30.96000 457.760
31.00000 476.692
31.04000 522.566
31.08000 585.264
31.12000 660.643
31.16000 780.104
31.20000 922.462
31.24000 1102.547
31.28000 1255.562
31.32000 1368.473
31.36000 1495.182
31.40000 1526.640
31.44000 1488.390
31.48000 1376.559
31.52000 1207.109
31.56000 1082.691
31.60000 927.118
31.64000 768.799
31.68000 656.262
31.72000 612.327
31.76000 548.392
31.80000 504.386
31.84000 484.665
31.88000 459.725
31.92000 438.059
31.96000 420.084
32.00000 398.119
32.04000 395.385
32.08000 401.352
32.12000 416.291
32.16000 375.531
32.20000 380.191
32.24000 400.046
32.28000 367.033
32.32000 360.961
32.36000 368.946
32.40000 379.398
32.44000 376.865
32.48000 365.554
32.52000 377.563
32.56000 379.958
32.60000 390.898
32.64000 374.503
32.68000 351.397
32.72000 345.798
32.76000 365.762
32.80000 365.900
32.84000 378.050
32.88000 388.431
32.92000 368.568
32.96000 360.399
33.00000 352.166
33.04000 345.356
33.08000 336.513
33.12000 345.694
33.16000 345.375
33.20000 347.621
33.24000 334.884
33.28000 340.056
33.32000 348.364
33.36000 328.508
33.40000 334.325
33.44000 332.078
33.48000 320.609
33.52000 333.964
33.56000 334.643
33.60000 336.275
33.64000 332.895
33.68000 298.644
33.72000 330.962
33.76000 340.123
33.80000 331.576
33.84000 336.014
33.88000 322.907
33.92000 319.419
33.96000 322.474
34.00000 321.480
34.04000 327.503
34.08000 306.628
34.12000 314.882
34.16000 313.223
34.20000 345.229
34.24000 322.173
34.28000 315.591
34.32000 332.172
34.36000 331.959
34.40000 305.559
34.44000 325.889
34.48000 319.511
34.52000 313.379
34.56000 324.250
34.60000 325.259
34.64000 326.790
34.68000 313.722
34.72000 313.942
34.76000 327.946
34.80000 307.011
34.84000 314.702
34.88000 305.854
34.92000 308.994
34.96000 302.840
35.00000 312.537
35.04000 302.201
35.08000 314.737
35.12000 307.136
35.16000 306.699
35.20000 301.311
35.24000 297.839
35.28000 309.859
35.32000 314.252
35.36000 312.312
35.40000 304.710
35.44000 312.437
35.48000 303.548
35.52000 310.861
35.56000 297.280
35.60000 312.439
35.64000 298.576
35.68000 305.111
35.72000 304.913
35.76000 295.040
35.80000 307.634
35.84000 308.266
35.88000 295.224
35.92000 298.454
35.96000 298.568
36.00000 300.516
36.04000 289.960
36.08000 307.847
36.12000 300.059
36.16000 300.678
36.20000 295.188
36.24000 285.037
36.28000 298.329
36.32000 293.420
36.36000 275.869
36.40000 291.916
36.44000 303.091
36.48000 283.270
36.52000 306.051
36.56000 276.425
36.60000 294.870
36.64000 285.170
36.68000 299.640
36.72000 290.037
36.76000 303.893
36.80000 284.524
36.84000 286.886
36.88000 291.671
36.92000 305.970
36.96000 307.094
37.00000 311.499
37.04000 282.751
37.08000 301.563
37.12000 286.450
37.16000 292.193
37.20000 274.479
37.24000 285.197
37.28000 271.340
37.32000 285.646
37.36000 297.055
37.40000 265.314
37.44000 284.955
37.48000 288.287
37.52000 297.848
37.56000 286.120
37.60000 264.376
37.64000 292.324
37.68000 299.459
37.72000 286.090
37.76000 277.238
37.80000 282.309
37.84000 292.113
37.88000 278.430
37.92000 288.047
37.96000 289.672
38.00000 287.403
38.04000 299.889
38.08000 299.140
38.12000 271.807
38.16000 291.838
38.20000 303.749
38.24000 296.902
38.28000 296.816
38.32000 301.991
38.36000 309.913
38.40000 356.229
38.44000 374.113
38.48000 427.657
38.52000 487.225
38.56000 575.894
38.60000 647.932
38.64000 741.027
38.68000 781.176
38.72000 822.622
38.76000 879.222
38.80000 806.786
38.84000 714.484
38.88000 624.867
38.92000 529.650
38.96000 448.595
39.00000 402.561
39.04000 348.359
39.08000 335.462
39.12000 311.432
39.16000 301.193
39.20000 270.302
39.24000 278.699
39.28000 273.975
39.32000 260.962
39.36000 259.043
39.40000 268.260
39.44000 271.428
39.48000 275.700
39.52000 269.386
39.56000 267.618
39.60000 271.372
39.64000 256.845
39.68000 259.172
39.72000 263.559
39.76000 255.477
39.80000 281.907
39.84000 261.213
39.88000 247.570
39.92000 260.870
39.96000 263.230
40.00000 248.867
40.04000 253.574
40.08000 248.768
40.12000 252.922
40.16000 256.380
40.20000 249.613
40.24000 259.383
40.28000 249.772
40.32000 249.639
40.36000 256.966
40.40000 248.971
40.44000 245.997
40.48000 247.459
40.52000 240.985
40.56000 242.553
40.60000 243.691
40.64000 253.742
40.68000 252.071
40.72000 242.379
40.76000 248.713
40.80000 251.694
40.84000 244.054
40.88000 245.387
40.92000 246.541
40.96000 239.239
41.00000 244.070
41.04000 240.160
41.08000 246.055
41.12000 245.709
41.16000 231.209
41.20000 229.937
41.24000 236.636
41.28000 243.243
41.32000 244.310
41.36000 238.702
41.40000 235.856
41.44000 240.331
41.48000 241.394
41.52000 234.276
41.56000 228.416
41.60000 222.982
41.64000 237.047
41.68000 228.197
41.72000 248.380
41.76000 231.319
41.80000 245.316
41.84000 238.765
41.88000 232.503
41.92000 246.400
41.96000 219.201
42.00000 224.712
42.04000 236.756
42.08000 233.068
42.12000 231.141
42.16000 232.888
42.20000 236.774
42.24000 232.265
42.28000 234.716
42.32000 237.980
42.36000 232.460
42.40000 249.983
42.44000 232.871
42.48000 229.494
42.52000 219.947
42.56000 234.663
42.60000 222.355
42.64000 224.409
42.68000 232.082
42.72000 232.596
42.76000 224.084
42.80000 201.196
42.84000 221.593
42.88000 219.582
42.92000 219.340
42.96000 230.715
43.00000 228.556
43.04000 218.215
43.08000 220.665
43.12000 219.159
43.16000 221.220
43.20000 220.235
43.24000 221.689
43.28000 216.501
43.32000 217.141
43.36000 227.736
43.40000 228.322
43.44000 220.243
43.48000 222.689
43.52000 219.140
43.56000 214.371
43.60000 218.090
43.64000 233.317
43.68000 224.650
43.72000 209.535
43.76000 226.021
43.80000 233.247
43.84000 223.105
43.88000 235.156
43.92000 230.539
43.96000 219.096
44.00000 222.631
44.04000 215.089
44.08000 207.527
44.12000 202.812
44.16000 218.830
44.20000 204.149
44.24000 225.999
44.28000 219.712
44.32000 221.362
44.36000 231.384
44.40000 222.714
44.44000 218.203
44.48000 234.351
44.52000 214.108
44.56000 222.263
44.60000 219.135
44.64000 221.043
44.68000 215.687
44.72000 238.999
44.76000 239.420
44.80000 242.318
44.84000 251.065
44.88000 255.520
44.92000 252.680
44.96000 257.359
45.00000 266.388
45.04000 277.050
45.08000 282.401
45.12000 282.686
45.16000 273.989
45.20000 273.757
45.24000 281.941
45.28000 269.488
45.32000 264.919
45.36000 254.557
45.40000 244.368
45.44000 240.275
45.48000 253.002
45.52000 251.697
45.56000 247.941
45.60000 251.467
45.64000 249.872
45.68000 243.614
45.72000 238.613
45.76000 237.645
45.80000 228.643
45.84000 233.704
45.88000 218.301
45.92000 226.022
45.96000 217.543
46.00000 227.836
46.04000 221.719
46.08000 218.682
46.12000 206.063
46.16000 216.942
46.20000 215.366
46.24000 206.684
46.28000 210.353
46.32000 206.701
46.36000 204.216
46.40000 201.799
46.44000 202.976
46.48000 198.834
46.52000 189.576
46.56000 193.333
46.60000 194.578
46.64000 203.133
46.68000 194.839
46.72000 202.176
46.76000 198.003
46.80000 185.980
46.84000 191.847
46.88000 202.407
46.92000 186.163
46.96000 186.335
47.00000 186.706
47.04000 181.100
47.08000 197.153
47.12000 191.518
47.16000 181.918
47.20000 183.546
47.24000 184.247
47.28000 193.881
47.32000 194.000
47.36000 193.242
47.40000 185.557
47.44000 198.200
47.48000 191.472
47.52000 189.167
47.56000 193.066
47.60000 193.986
47.64000 183.204
47.68000 182.316
47.72000 181.093
47.76000 189.707
47.80000 176.953
47.84000 181.213
47.88000 188.791
47.92000 178.192
47.96000 193.961
48.00000 186.082
48.04000 189.686
48.08000 171.034
48.12000 177.369
48.16000 181.527
48.20000 185.653
48.24000 184.611
48.28000 180.971
48.32000 175.832
48.36000 173.491
48.40000 181.387
48.44000 182.262
48.48000 176.067
48.52000 180.399
48.56000 174.774
48.60000 181.958
48.64000 175.377
48.68000 178.503
48.72000 180.909
48.76000 183.780
48.80000 183.250
48.84000 180.367
48.88000 172.911
48.92000 178.060
48.96000 178.365
49.00000 196.314
49.04000 177.505
49.08000 190.389
49.12000 168.866
49.16000 182.209
49.20000 185.556
49.24000 170.533
49.28000 170.325
49.32000 177.152
49.36000 174.416
49.40000 187.886
49.44000 177.768
49.48000 171.188
49.52000 167.887
49.56000 161.831
49.60000 171.001
49.64000 164.594
49.68000 173.289
49.72000 182.471
49.76000 175.057
49.80000 165.724
49.84000 181.468
49.88000 169.414
49.92000 168.401
49.96000 170.307
50.00000 175.375
50.04000 164.375
50.08000 172.278
50.12000 170.064
50.16000 181.887
50.20000 168.316
50.24000 176.242
50.28000 179.321
50.32000 181.940
50.36000 183.914
50.40000 185.226
50.44000 181.922
50.48000 182.605
50.52000 198.384
50.56000 198.236
50.60000 197.082
50.64000 210.127
50.68000 197.632
50.72000 203.535
50.76000 195.733
50.80000 202.628
50.84000 204.105
50.88000 199.024
50.92000 192.889
50.96000 195.254
51.00000 186.457
51.04000 185.680
51.08000 183.666
51.12000 179.399
51.16000 177.609
51.20000 186.294
51.24000 169.835
51.28000 164.394
51.32000 170.923
51.36000 158.316
51.40000 178.976
51.44000 170.208
51.48000 155.456
51.52000 171.923
51.56000 175.749
51.60000 167.346
51.64000 155.722
51.68000 160.822
51.72000 164.423
51.76000 156.087
51.80000 161.545
51.84000 161.346
51.88000 163.647
51.92000 154.479
51.96000 161.448
52.00000 165.287
52.04000 167.264
52.08000 154.823
52.12000 156.088
52.16000 158.338
52.20000 148.861
52.24000 153.048
52.28000 161.298
52.32000 156.762
52.36000 156.519
52.40000 155.254
52.44000 158.809
52.48000 150.074
52.52000 159.959
52.56000 153.677
52.60000 151.872
52.64000 156.727
52.68000 157.884
52.72000 157.896
52.76000 155.280
52.80000 164.212
52.84000 154.495
52.88000 149.904
52.92000 164.005
52.96000 155.818
53.00000 153.942
53.04000 141.380
53.08000 154.862
53.12000 146.755
53.16000 166.206
53.20000 157.097
53.24000 164.282
53.28000 163.078
53.32000 160.556
53.36000 166.141
53.40000 155.691
53.44000 154.838
53.48000 152.115
53.52000 154.650
53.56000 155.226
53.60000 155.082
53.64000 149.028
53.68000 153.074
53.72000 152.253
53.76000 166.104
53.80000 160.570
53.84000 158.223
53.88000 164.061
53.92000 149.870
53.96000 145.140
54.00000 156.897
54.04000 155.748
54.08000 146.898
54.12000 149.149
54.16000 157.642
54.20000 144.776
54.24000 149.231
54.28000 158.833
54.32000 140.308
54.36000 159.417
54.40000 152.826
54.44000 151.272
54.48000 154.156
54.52000 149.767
54.56000 150.035
54.60000 157.701
54.64000 151.016
54.68000 148.355
54.72000 153.792
54.76000 148.244
54.80000 148.603
54.84000 149.740
54.88000 148.264
54.92000 145.467
54.96000 144.585
55.00000 149.453
55.04000 148.251
55.08000 149.694
55.12000 140.158
55.16000 165.720
55.20000 156.895
55.24000 153.841
55.28000 162.202
55.32000 158.550
55.36000 159.667
55.40000 169.182
55.44000 170.871
55.48000 184.188
55.52000 193.926
55.56000 202.708
55.60000 220.026
55.64000 260.725
55.68000 276.046
55.72000 299.308
55.76000 354.655
55.80000 375.780
55.84000 404.074
55.88000 446.522
55.92000 460.485
55.96000 458.914
56.00000 471.052
56.04000 455.313
56.08000 435.426
56.12000 396.888
56.16000 357.047
56.20000 325.144
56.24000 302.337
56.28000 273.333
56.32000 245.932
56.36000 226.012
56.40000 195.237
56.44000 193.185
56.48000 181.787
56.52000 175.940
56.56000 174.012
56.60000 155.380
56.64000 163.159
56.68000 149.669
56.72000 154.705
56.76000 157.488
56.80000 146.588
56.84000 161.854
56.88000 160.518
56.92000 145.855
56.96000 143.122
57.00000 151.754
57.04000 145.705
57.08000 147.979
57.12000 142.315
57.16000 147.221
57.20000 141.185
57.24000 141.458
57.28000 147.859
57.32000 142.325
57.36000 129.814
57.40000 144.811
57.44000 145.219
57.48000 138.094
57.52000 146.245
57.56000 137.580
57.60000 141.204
57.64000 135.326
57.68000 155.752
57.72000 143.782
57.76000 134.501
57.80000 139.227
57.84000 140.443
57.88000 144.835
57.92000 144.032
57.96000 133.807
58.00000 135.374
58.04000 137.133
58.08000 142.337
58.12000 140.203
58.16000 140.196
58.20000 128.828
58.24000 136.665
58.28000 138.641
58.32000 138.238
58.36000 140.386
58.40000 135.113
58.44000 122.718
58.48000 143.203
58.52000 146.135
58.56000 138.016
58.60000 127.980
58.64000 139.149
58.68000 144.089
58.72000 137.970
58.76000 126.005
58.80000 131.608
58.84000 136.321
58.88000 136.564
58.92000 138.418
58.96000 128.666
59.00000 124.768
59.04000 128.397
59.08000 146.441
59.12000 135.202
59.16000 134.763
59.20000 135.504
59.24000 127.655
59.28000 134.656
59.32000 138.087
59.36000 144.213
59.40000 139.145
59.44000 126.374
59.48000 136.137
59.52000 136.587
59.56000 137.131
59.60000 138.209
59.64000 129.813
59.68000 133.891
59.72000 128.173
59.76000 131.747
59.80000 136.158
59.84000 130.367
59.88000 130.284
59.92000 134.311
59.96000 134.734
60.00000 125.753
60.04000 131.534
60.08000 135.867
60.12000 124.556
60.16000 133.295
60.20000 131.450
60.24000 125.013
60.28000 132.113
60.32000 123.347
60.36000 122.804
60.40000 120.862
60.44000 133.666
60.48000 121.964
60.52000 134.822
60.56000 136.161
60.60000 132.026
60.64000 125.159
60.68000 133.422
60.72000 130.702
60.76000 124.665
60.80000 128.764
60.84000 127.895
60.88000 126.364
60.92000 140.517
60.96000 140.972
61.00000 133.672
61.04000 125.542
61.08000 129.471
61.12000 125.260
61.16000 135.629
61.20000 137.550
61.24000 141.553
61.28000 136.116
61.32000 134.712
61.36000 136.372
61.40000 134.537
61.44000 140.877
61.48000 145.360
61.52000 162.475
61.56000 187.828
61.60000 218.907
61.64000 253.859
61.68000 268.367
61.72000 269.404
61.76000 269.032
61.80000 232.089
61.84000 184.612
61.88000 149.118
61.92000 144.607
61.96000 131.322
62.00000 144.824
62.04000 132.893
62.08000 135.259
62.12000 133.525
62.16000 129.154
62.20000 143.248
62.24000 138.758
62.28000 146.251
62.32000 140.693
62.36000 127.017
62.40000 134.456
62.44000 134.282
62.48000 129.687
62.52000 142.153
62.56000 133.189
62.60000 147.969
62.64000 141.756
62.68000 128.471
62.72000 150.816
62.76000 144.841
62.80000 137.453
62.84000 140.530
62.88000 149.504
62.92000 140.169
62.96000 139.236
63.00000 155.684
63.04000 139.536
63.08000 137.649
63.12000 156.565
63.16000 148.072
63.20000 145.805
63.24000 146.679
63.28000 154.881
63.32000 153.960
63.36000 155.292
63.40000 146.432
63.44000 141.720
63.48000 142.938
63.52000 145.742
63.56000 156.374
63.60000 148.504
63.64000 140.907
63.68000 140.901
63.72000 167.323
63.76000 147.723
63.80000 153.679
63.84000 151.759
63.88000 160.736
63.92000 160.099
63.96000 157.230
64.00000 162.908
64.04000 165.742
64.08000 158.801
64.12000 167.109
64.16000 158.925
64.20000 151.697
64.24000 161.465
64.28000 155.464
64.32000 160.862
64.36000 165.832
64.40000 157.959
64.44000 158.087
64.48000 168.227
64.52000 161.336
64.56000 155.541
64.60000 178.535
64.64000 175.013
64.68000 177.735
64.72000 174.453
64.76000 165.179
64.80000 177.213
64.84000 174.764
64.88000 171.272
64.92000 176.235
64.96000 173.461
65.00000 185.873
65.04000 187.503
65.08000 191.830
65.12000 194.034
65.16000 207.578
65.20000 215.653
65.24000 225.341
65.28000 233.755
65.32000 231.403
65.36000 253.352
65.40000 254.882
65.44000 261.888
65.48000 278.734
65.52000 283.057
65.56000 287.722
65.60000 313.365
65.64000 325.903
65.68000 402.173
65.72000 542.551
65.76000 762.035
65.80000 988.321
65.84000 1055.220
65.88000 1091.765
65.92000 1048.506
65.96000 929.330
66.00000 658.362
66.04000 464.886
66.08000 356.399
66.12000 315.576
66.16000 309.304
66.20000 306.606
66.24000 314.708
66.28000 334.893
66.32000 392.293
66.36000 439.804
66.40000 428.734
66.44000 464.927
66.48000 446.305
66.52000 415.667
66.56000 379.548
66.60000 333.665
66.64000 315.718
66.68000 313.642
66.72000 308.894
66.76000 317.859
66.80000 308.844
66.84000 327.598
66.88000 350.314
66.92000 329.049
66.96000 332.759
67.00000 348.004
67.04000 354.312
67.08000 367.816
67.12000 358.133
67.16000 365.773
67.20000 384.895
67.24000 368.594
67.28000 389.241
67.32000 386.699
67.36000 389.610
67.40000 406.199
67.44000 396.479
67.48000 421.094
67.52000 434.435
67.56000 443.618
67.60000 439.719
67.64000 461.921
67.68000 464.584
67.72000 463.589
67.76000 453.110
67.80000 484.585
67.84000 478.896
67.88000 512.120
67.92000 521.691
67.96000 519.842
68.00000 520.086
68.04000 528.268
68.08000 552.141
68.12000 570.681
68.16000 581.683
68.20000 583.897
68.24000 601.682
68.28000 596.537
68.32000 632.687
68.36000 685.614
68.40000 713.010
68.44000 707.521
68.48000 773.316
68.52000 798.018
68.56000 873.749
68.60000 943.540
68.64000 1107.431
68.68000 1294.738
68.72000 1503.811
68.76000 1737.564
68.80000 1917.580
68.84000 2231.178
68.88000 2791.502
68.92000 4440.322
68.96000 11189.547
69.00000 26108.699
69.04000 43003.094
69.08000 52228.500
69.12000 54451.504
69.16000 56496.754
69.20000 57299.434
69.24000 48476.813
69.28000 36645.301
69.32000 29778.807
69.36000 26786.848
69.40000 22778.857
69.44000 14194.331
69.48000 6742.683
69.52000 2999.158
69.56000 1915.947
69.60000 1462.651
69.64000 1258.340
69.68000 1117.510
69.72000 1004.756
69.76000 934.707
69.80000 859.175
69.84000 790.456
69.88000 757.681
69.92000 672.501
69.96000 700.569
70.00000 682.462