File: XRD/25-09-2025/XY Data/BTO_Mapping_Theta2Theta_25-09-2025_001_11_13-383_14-863.xy
20.00000 571.113
20.04000 555.479
20.08000 572.300
20.12000 557.088
20.16000 543.363
20.20000 572.020
20.24000 560.217
20.28000 560.900
20.32000 528.486
20.36000 566.663
20.40000 553.251
20.44000 562.200
20.48000 543.930
20.52000 549.228
20.56000 561.611
20.60000 558.236
20.64000 543.989
20.68000 534.009
20.72000 550.864
20.76000 543.942
20.80000 530.458
20.84000 544.425
20.88000 518.122
20.92000 539.718
20.96000 543.770
21.00000 540.908
21.04000 532.258
21.08000 542.922
21.12000 554.186
21.16000 546.962
21.20000 530.595
21.24000 534.903
21.28000 536.112
21.32000 518.808
21.36000 561.251
21.40000 552.087
21.44000 525.082
21.48000 528.995
21.52000 531.203
21.56000 551.524
21.60000 552.410
21.64000 537.613
21.68000 559.739
21.72000 538.488
21.76000 550.184
21.80000 558.474
21.84000 554.669
21.88000 563.905
21.92000 565.318
21.96000 599.703
22.00000 575.213
22.04000 595.782
22.08000 615.044
22.12000 616.958
22.16000 609.749
22.20000 607.244
22.24000 608.231
22.28000 593.104
22.32000 601.905
22.36000 591.219
22.40000 593.079
22.44000 582.939
22.48000 579.583
22.52000 561.626
22.56000 551.665
22.60000 511.612
22.64000 509.144
22.68000 530.185
22.72000 527.608
22.76000 534.210
22.80000 528.421
22.84000 497.874
22.88000 494.049
22.92000 487.032
22.96000 486.704
23.00000 507.375
23.04000 510.145
23.08000 510.392
23.12000 506.024
23.16000 493.531
23.20000 499.758
23.24000 493.690
23.28000 499.443
23.32000 498.673
23.36000 500.889
23.40000 522.900
23.44000 488.545
23.48000 490.988
23.52000 494.460
23.56000 496.392
23.60000 489.220
23.64000 514.605
23.68000 492.931
23.72000 502.438
23.76000 497.906
23.80000 490.346
23.84000 494.676
23.88000 477.544
23.92000 470.447
23.96000 475.444
24.00000 479.407
24.04000 487.632
24.08000 483.299
24.12000 482.821
24.16000 467.364
24.20000 504.305
24.24000 486.285
24.28000 474.052
24.32000 471.308
24.36000 481.773
24.40000 502.615
24.44000 480.109
24.48000 476.639
24.52000 475.415
24.56000 453.477
24.60000 493.618
24.64000 495.565
24.68000 472.451
24.72000 479.688
24.76000 472.893
24.80000 466.603
24.84000 466.722
24.88000 476.918
24.92000 485.119
24.96000 475.474
25.00000 484.993
25.04000 473.524
25.08000 450.596
25.12000 470.164
25.16000 466.619
25.20000 452.547
25.24000 454.898
25.28000 493.314
25.32000 477.117
25.36000 472.375
25.40000 466.227
25.44000 460.314
25.48000 470.032
25.52000 449.427
25.56000 456.639
25.60000 474.219
25.64000 473.573
25.68000 469.625
25.72000 436.761
25.76000 450.172
25.80000 429.232
25.84000 435.265
25.88000 449.402
25.92000 454.442
25.96000 433.393
26.00000 458.629
26.04000 442.725
26.08000 444.091
26.12000 469.938
26.16000 457.726
26.20000 441.947
26.24000 445.269
26.28000 452.547
26.32000 440.345
26.36000 442.828
26.40000 465.276
26.44000 441.510
26.48000 464.827
26.52000 429.670
26.56000 437.549
26.60000 446.617
26.64000 451.837
26.68000 464.569
26.72000 449.980
26.76000 438.028
26.80000 455.095
26.84000 443.694
26.88000 437.578
26.92000 433.635
26.96000 448.750
27.00000 436.142
27.04000 435.715
27.08000 444.647
27.12000 427.591
27.16000 425.882
27.20000 425.962
27.24000 432.341
27.28000 439.009
27.32000 424.755
27.36000 415.704
27.40000 439.005
27.44000 448.226
27.48000 425.591
27.52000 435.591
27.56000 426.271
27.60000 413.092
27.64000 409.648
27.68000 434.069
27.72000 416.228
27.76000 408.780
27.80000 437.832
27.84000 421.343
27.88000 421.218
27.92000 427.315
27.96000 422.069
28.00000 426.232
28.04000 413.673
28.08000 431.668
28.12000 419.524
28.16000 417.159
28.20000 415.889
28.24000 416.639
28.28000 413.216
28.32000 400.425
28.36000 397.933
28.40000 412.886
28.44000 434.104
28.48000 421.961
28.52000 405.788
28.56000 402.477
28.60000 401.928
28.64000 402.559
28.68000 409.823
28.72000 420.620
28.76000 404.637
28.80000 403.142
28.84000 405.212
28.88000 407.356
28.92000 406.055
28.96000 403.415
29.00000 410.313
29.04000 412.646
29.08000 396.510
29.12000 397.327
29.16000 410.738
29.20000 393.041
29.24000 391.568
29.28000 406.155
29.32000 390.527
29.36000 400.516
29.40000 398.071
29.44000 393.069
29.48000 386.008
29.52000 398.272
29.56000 404.645
29.60000 398.528
29.64000 398.562
29.68000 393.582
29.72000 405.171
29.76000 400.096
29.80000 394.149
29.84000 401.568
29.88000 415.967
29.92000 417.574
29.96000 401.714
30.00000 419.090
30.04000 403.998
30.08000 414.194
30.12000 409.102
30.16000 416.093
30.20000 409.217
30.24000 409.618
30.28000 392.866
30.32000 399.412
30.36000 384.241
30.40000 398.616
30.44000 423.521
30.48000 419.804
30.52000 393.411
30.56000 413.945
30.60000 382.698
30.64000 401.245
30.68000 397.852
30.72000 408.536
30.76000 420.817
30.80000 410.994
30.84000 431.765
30.88000 440.315
30.92000 443.875
30.96000 456.856
31.00000 461.418
31.04000 470.969
31.08000 524.208
31.12000 588.325
31.16000 665.782
31.20000 795.963
31.24000 904.049
31.28000 1032.608
31.32000 1138.344
31.36000 1229.537
31.40000 1304.772
31.44000 1305.011
31.48000 1293.289
31.52000 1153.781
31.56000 1021.471
31.60000 894.075
31.64000 769.351
31.68000 690.214
31.72000 629.738
31.76000 567.180
31.80000 511.858
31.84000 496.051
31.88000 454.767
31.92000 442.971
31.96000 424.281
32.00000 402.523
32.04000 429.481
32.08000 405.424
32.12000 421.582
32.16000 396.898
32.20000 395.620
32.24000 393.036
32.28000 386.797
32.32000 371.406
32.36000 387.802
32.40000 380.350
32.44000 380.410
32.48000 377.234
32.52000 403.824
32.56000 361.616
32.60000 371.456
32.64000 378.697
32.68000 378.483
32.72000 353.275
32.76000 354.649
32.80000 352.479
32.84000 348.720
32.88000 363.433
32.92000 371.224
32.96000 367.509
33.00000 366.894
33.04000 365.357
33.08000 360.003
33.12000 357.093
33.16000 348.069
33.20000 331.579
33.24000 327.268
33.28000 331.234
33.32000 339.186
33.36000 350.100
33.40000 317.825
33.44000 330.943
33.48000 316.511
33.52000 332.737
33.56000 335.879
33.60000 346.975
33.64000 338.286
33.68000 335.983
33.72000 326.734
33.76000 331.292
33.80000 328.974
33.84000 333.108
33.88000 326.160
33.92000 341.254
33.96000 331.787
34.00000 323.544
34.04000 325.289
34.08000 327.972
34.12000 326.034
34.16000 322.922
34.20000 329.358
34.24000 311.881
34.28000 326.899
34.32000 326.387
34.36000 324.593
34.40000 327.942
34.44000 328.324
34.48000 323.613
34.52000 312.095
34.56000 318.646
34.60000 307.456
34.64000 314.402
34.68000 310.602
34.72000 310.999
34.76000 310.623
34.80000 326.984
34.84000 306.289
34.88000 309.329
34.92000 315.442
34.96000 309.574
35.00000 308.395
35.04000 302.118
35.08000 313.852
35.12000 323.470
35.16000 313.622
35.20000 301.857
35.24000 299.625
35.28000 304.545
35.32000 312.529
35.36000 295.980
35.40000 312.737
35.44000 319.747
35.48000 312.830
35.52000 308.512
35.56000 302.892
35.60000 299.867
35.64000 304.554
35.68000 300.959
35.72000 320.781
35.76000 302.694
35.80000 306.046
35.84000 301.872
35.88000 307.316
35.92000 297.084
35.96000 305.225
36.00000 307.197
36.04000 309.827
36.08000 303.935
36.12000 305.352
36.16000 284.904
36.20000 284.740
36.24000 295.135
36.28000 304.916
36.32000 298.138
36.36000 306.158
36.40000 297.478
36.44000 281.495
36.48000 306.965
36.52000 296.243
36.56000 288.081
36.60000 293.386
36.64000 294.121
36.68000 291.444
36.72000 291.829
36.76000 317.451
36.80000 299.180
36.84000 294.403
36.88000 305.855
36.92000 290.394
36.96000 287.516
37.00000 296.273
37.04000 295.013
37.08000 283.140
37.12000 302.924
37.16000 285.898
37.20000 299.856
37.24000 281.682
37.28000 273.688
37.32000 270.614
37.36000 288.735
37.40000 280.708
37.44000 285.774
37.48000 303.324
37.52000 281.735
37.56000 289.421
37.60000 275.108
37.64000 284.191
37.68000 277.310
37.72000 294.716
37.76000 273.401
37.80000 282.479
37.84000 271.949
37.88000 269.124
37.92000 299.064
37.96000 288.142
38.00000 283.845
38.04000 279.244
38.08000 291.050
38.12000 291.342
38.16000 291.178
38.20000 294.499
38.24000 275.983
38.28000 285.494
38.32000 311.308
38.36000 301.756
38.40000 296.936
38.44000 329.296
38.48000 363.892
38.52000 401.726
38.56000 483.581
38.60000 564.499
38.64000 634.965
38.68000 716.761
38.72000 747.210
38.76000 732.661
38.80000 724.211
38.84000 670.611
38.88000 568.607
38.92000 502.959
38.96000 446.374
39.00000 370.962
39.04000 336.676
39.08000 310.781
39.12000 287.868
39.16000 283.899
39.20000 287.652
39.24000 272.028
39.28000 274.052
39.32000 257.834
39.36000 264.907
39.40000 263.829
39.44000 271.104
39.48000 266.606
39.52000 250.193
39.56000 262.686
39.60000 276.731
39.64000 258.879
39.68000 256.239
39.72000 265.587
39.76000 249.097
39.80000 273.497
39.84000 275.153
39.88000 261.504
39.92000 257.469
39.96000 251.192
40.00000 270.833
40.04000 244.750
40.08000 253.938
40.12000 243.446
40.16000 252.068
40.20000 279.491
40.24000 256.114
40.28000 256.579
40.32000 254.123
40.36000 257.949
40.40000 258.049
40.44000 253.437
40.48000 242.449
40.52000 244.921
40.56000 254.856
40.60000 241.780
40.64000 250.500
40.68000 245.635
40.72000 237.971
40.76000 242.097
40.80000 255.211
40.84000 246.577
40.88000 244.230
40.92000 234.385
40.96000 245.738
41.00000 246.165
41.04000 246.428
41.08000 235.660
41.12000 242.084
41.16000 243.380
41.20000 237.189
41.24000 249.916
41.28000 237.096
41.32000 231.661
41.36000 228.540
41.40000 240.634
41.44000 240.596
41.48000 239.158
41.52000 229.587
41.56000 227.207
41.60000 227.179
41.64000 241.038
41.68000 246.320
41.72000 230.630
41.76000 236.964
41.80000 238.905
41.84000 241.182
41.88000 232.596
41.92000 238.506
41.96000 242.083
42.00000 227.508
42.04000 232.955
42.08000 237.951
42.12000 227.909
42.16000 226.903
42.20000 239.050
42.24000 243.880
42.28000 245.293
42.32000 234.548
42.36000 215.114
42.40000 228.716
42.44000 232.705
42.48000 249.613
42.52000 223.804
42.56000 225.636
42.60000 218.298
42.64000 236.508
42.68000 227.990
42.72000 225.380
42.76000 233.510
42.80000 228.541
42.84000 222.432
42.88000 207.181
42.92000 223.198
42.96000 224.142
43.00000 215.109
43.04000 216.542
43.08000 223.348
43.12000 226.148
43.16000 212.401
43.20000 218.622
43.24000 204.458
43.28000 222.359
43.32000 224.740
43.36000 227.485
43.40000 226.014
43.44000 213.482
43.48000 228.290
43.52000 233.472
43.56000 206.901
43.60000 217.329
43.64000 220.268
43.68000 221.184
43.72000 221.423
43.76000 209.342
43.80000 216.299
43.84000 222.918
43.88000 217.510
43.92000 222.749
43.96000 209.340
44.00000 210.187
44.04000 219.885
44.08000 215.308
44.12000 211.355
44.16000 218.658
44.20000 220.473
44.24000 235.960
44.28000 218.323
44.32000 226.009
44.36000 205.542
44.40000 217.750
44.44000 212.659
44.48000 219.227
44.52000 228.507
44.56000 220.958
44.60000 226.482
44.64000 201.862
44.68000 211.065
44.72000 211.135
44.76000 229.988
44.80000 231.482
44.84000 231.050
44.88000 239.320
44.92000 233.045
44.96000 233.669
45.00000 254.778
45.04000 245.519
45.08000 239.380
45.12000 258.203
45.16000 265.985
45.20000 262.919
45.24000 244.743
45.28000 261.397
45.32000 257.213
45.36000 258.179
45.40000 238.533
45.44000 249.915
45.48000 249.349
45.52000 246.215
45.56000 247.287
45.60000 229.654
45.64000 248.601
45.68000 248.643
45.72000 232.074
45.76000 226.932
45.80000 226.796
45.84000 229.820
45.88000 224.030
45.92000 224.853
45.96000 219.184
46.00000 223.999
46.04000 219.496
46.08000 216.815
46.12000 208.110
46.16000 212.128
46.20000 198.326
46.24000 200.217
46.28000 198.516
46.32000 195.630
46.36000 205.043
46.40000 203.772
46.44000 210.988
46.48000 201.137
46.52000 194.183
46.56000 189.962
46.60000 189.910
46.64000 186.386
46.68000 197.973
46.72000 194.641
46.76000 201.214
46.80000 192.552
46.84000 193.489
46.88000 190.180
46.92000 193.256
46.96000 200.319
47.00000 195.519
47.04000 200.375
47.08000 187.524
47.12000 188.602
47.16000 174.149
47.20000 198.362
47.24000 198.030
47.28000 188.034
47.32000 190.928
47.36000 193.115
47.40000 181.100
47.44000 189.577
47.48000 174.786
47.52000 182.365
47.56000 179.645
47.60000 188.801
47.64000 183.947
47.68000 184.732
47.72000 189.059
47.76000 200.257
47.80000 176.037
47.84000 170.394
47.88000 192.331
47.92000 181.160
47.96000 192.386
48.00000 190.088
48.04000 188.710
48.08000 189.624
48.12000 191.038
48.16000 180.678
48.20000 178.053
48.24000 186.914
48.28000 189.900
48.32000 191.089
48.36000 181.420
48.40000 190.564
48.44000 184.552
48.48000 183.724
48.52000 179.134
48.56000 181.765
48.60000 179.135
48.64000 180.228
48.68000 184.828
48.72000 174.193
48.76000 178.285
48.80000 171.770
48.84000 181.781
48.88000 174.787
48.92000 168.982
48.96000 168.021
49.00000 189.170
49.04000 180.559
49.08000 181.314
49.12000 176.040
49.16000 163.020
49.20000 190.062
49.24000 169.834
49.28000 176.033
49.32000 185.608
49.36000 175.385
49.40000 174.941
49.44000 166.596
49.48000 179.703
49.52000 175.701
49.56000 180.336
49.60000 173.298
49.64000 170.392
49.68000 168.936
49.72000 168.098
49.76000 162.324
49.80000 176.299
49.84000 171.755
49.88000 179.002
49.92000 167.982
49.96000 179.974
50.00000 181.423
50.04000 164.015
50.08000 166.292
50.12000 178.093
50.16000 167.287
50.20000 175.662
50.24000 170.499
50.28000 173.840
50.32000 169.488
50.36000 169.387
50.40000 171.536
50.44000 173.301
50.48000 182.072
50.52000 173.398
50.56000 190.472
50.60000 192.613
50.64000 183.102
50.68000 173.338
50.72000 177.261
50.76000 189.141
50.80000 185.767
50.84000 188.454
50.88000 190.601
50.92000 187.119
50.96000 175.231
51.00000 182.034
51.04000 170.876
51.08000 179.027
51.12000 170.663
51.16000 178.672
51.20000 169.385
51.24000 167.782
51.28000 170.260
51.32000 172.202
51.36000 171.070
51.40000 167.843
51.44000 168.958
51.48000 163.506
51.52000 163.193
51.56000 175.934
51.60000 163.647
51.64000 158.851
51.68000 163.176
51.72000 162.241
51.76000 159.761
51.80000 164.395
51.84000 169.050
51.88000 157.112
51.92000 173.616
51.96000 160.740
52.00000 152.102
52.04000 159.281
52.08000 155.708
52.12000 149.782
52.16000 166.359
52.20000 162.734
52.24000 165.170
52.28000 167.817
52.32000 157.424
52.36000 157.724
52.40000 163.410
52.44000 140.974
52.48000 156.989
52.52000 155.731
52.56000 158.942
52.60000 153.109
52.64000 151.961
52.68000 156.077
52.72000 157.643
52.76000 156.390
52.80000 165.811
52.84000 164.991
52.88000 158.013
52.92000 161.017
52.96000 159.997
53.00000 165.007
53.04000 155.640
53.08000 140.806
53.12000 159.789
53.16000 152.336
53.20000 156.375
53.24000 157.263
53.28000 165.359
53.32000 156.725
53.36000 148.529
53.40000 163.827
53.44000 169.065
53.48000 152.638
53.52000 154.277
53.56000 158.362
53.60000 158.501
53.64000 149.198
53.68000 144.478
53.72000 145.824
53.76000 153.457
53.80000 149.277
53.84000 150.970
53.88000 154.872
53.92000 150.117
53.96000 151.606
54.00000 164.964
54.04000 155.023
54.08000 158.220
54.12000 148.167
54.16000 148.832
54.20000 147.722
54.24000 148.353
54.28000 142.749
54.32000 148.089
54.36000 142.954
54.40000 151.889
54.44000 150.922
54.48000 151.358
54.52000 143.779
54.56000 150.343
54.60000 154.639
54.64000 157.141
54.68000 159.637
54.72000 146.177
54.76000 150.380
54.80000 158.225
54.84000 145.717
54.88000 160.687
54.92000 142.657
54.96000 154.889
55.00000 154.646
55.04000 162.850
55.08000 152.988
55.12000 153.491
55.16000 160.333
55.20000 141.764
55.24000 159.461
55.28000 162.700
55.32000 157.416
55.36000 155.276
55.40000 154.082
55.44000 159.620
55.48000 168.024
55.52000 167.399
55.56000 187.646
55.60000 185.043
55.64000 211.257
55.68000 226.571
55.72000 245.288
55.76000 296.379
55.80000 310.956
55.84000 364.972
55.88000 385.954
55.92000 401.733
55.96000 428.828
56.00000 421.335
56.04000 414.716
56.08000 410.469
56.12000 366.102
56.16000 334.403
56.20000 300.716
56.24000 270.772
56.28000 259.497
56.32000 225.336
56.36000 211.660
56.40000 191.919
56.44000 196.276
56.48000 183.891
56.52000 174.366
56.56000 163.087
56.60000 156.448
56.64000 161.154
56.68000 160.238
56.72000 150.562
56.76000 159.166
56.80000 147.319
56.84000 149.673
56.88000 137.466
56.92000 148.179
56.96000 148.508
57.00000 151.116
57.04000 149.320
57.08000 148.600
57.12000 143.733
57.16000 140.865
57.20000 137.617
57.24000 137.483
57.28000 134.187
57.32000 140.668
57.36000 145.344
57.40000 140.921
57.44000 139.878
57.48000 143.965
57.52000 147.289
57.56000 139.857
57.60000 139.068
57.64000 141.862
57.68000 146.724
57.72000 140.195
57.76000 134.061
57.80000 137.439
57.84000 142.092
57.88000 138.558
57.92000 141.160
57.96000 153.603
58.00000 142.170
58.04000 149.184
58.08000 144.602
58.12000 143.686
58.16000 138.553
58.20000 150.946
58.24000 147.342
58.28000 137.178
58.32000 138.935
58.36000 133.425
58.40000 131.211
58.44000 144.595
58.48000 136.730
58.52000 139.215
58.56000 138.860
58.60000 136.354
58.64000 141.778
58.68000 133.068
58.72000 137.015
58.76000 128.063
58.80000 134.235
58.84000 136.308
58.88000 126.517
58.92000 141.518
58.96000 125.911
59.00000 129.215
59.04000 142.664
59.08000 131.233
59.12000 134.455
59.16000 137.282
59.20000 139.510
59.24000 132.157
59.28000 127.967
59.32000 133.476
59.36000 132.584
59.40000 129.127
59.44000 134.043
59.48000 140.135
59.52000 133.179
59.56000 138.730
59.60000 129.381
59.64000 134.858
59.68000 131.411
59.72000 127.896
59.76000 133.397
59.80000 134.832
59.84000 137.608
59.88000 134.750
59.92000 136.903
59.96000 128.699
60.00000 126.951
60.04000 125.208
60.08000 139.981
60.12000 128.849
60.16000 131.443
60.20000 134.609
60.24000 139.101
60.28000 138.966
60.32000 141.953
60.36000 127.018
60.40000 133.511
60.44000 132.023
60.48000 132.884
60.52000 144.277
60.56000 134.754
60.60000 139.257
60.64000 126.542
60.68000 137.107
60.72000 133.035
60.76000 135.605
60.80000 130.870
60.84000 133.818
60.88000 135.794
60.92000 140.226
60.96000 130.567
61.00000 130.306
61.04000 128.435
61.08000 136.252
61.12000 144.069
61.16000 138.260
61.20000 136.907
61.24000 133.581
61.28000 139.636
61.32000 138.007
61.36000 128.387
61.40000 138.416
61.44000 128.116
61.48000 142.405
61.52000 151.304
61.56000 186.314
61.60000 219.626
61.64000 256.631
61.68000 263.717
61.72000 265.198
61.76000 249.661
61.80000 223.492
61.84000 181.357
61.88000 154.750
61.92000 141.080
61.96000 138.564
62.00000 132.743
62.04000 135.565
62.08000 140.188
62.12000 128.166
62.16000 139.257
62.20000 129.227
62.24000 138.699
62.28000 155.035
62.32000 147.582
62.36000 138.053
62.40000 137.328
62.44000 141.603
62.48000 121.116
62.52000 139.505
62.56000 144.642
62.60000 152.208
62.64000 141.942
62.68000 141.369
62.72000 141.441
62.76000 139.281
62.80000 140.157
62.84000 145.797
62.88000 155.065
62.92000 138.581
62.96000 140.556
63.00000 138.634
63.04000 146.060
63.08000 154.335
63.12000 141.028
63.16000 151.011
63.20000 147.414
63.24000 142.763
63.28000 150.837
63.32000 145.173
63.36000 157.804
63.40000 156.684
63.44000 147.736
63.48000 143.783
63.52000 157.381
63.56000 147.925
63.60000 153.243
63.64000 151.777
63.68000 151.693
63.72000 159.681
63.76000 152.249
63.80000 155.113
63.84000 147.192
63.88000 155.265
63.92000 162.376
63.96000 156.960
64.00000 157.959
64.04000 138.788
64.08000 156.925
64.12000 160.384
64.16000 160.202
64.20000 158.176
64.24000 163.095
64.28000 163.854
64.32000 162.512
64.36000 163.276
64.40000 162.290
64.44000 170.358
64.48000 168.443
64.52000 158.886
64.56000 161.899
64.60000 171.177
64.64000 179.906
64.68000 165.366
64.72000 178.899
64.76000 172.618
64.80000 169.609
64.84000 188.535
64.88000 182.079
64.92000 191.180
64.96000 178.101
65.00000 180.772
65.04000 180.549
65.08000 187.912
65.12000 187.791
65.16000 210.075
65.20000 198.536
65.24000 199.496
65.28000 204.643
65.32000 223.008
65.36000 235.788
65.40000 243.825
65.44000 237.458
65.48000 250.054
65.52000 267.224
65.56000 290.790
65.60000 294.582
65.64000 323.002
65.68000 380.791
65.72000 520.492
65.76000 725.484
65.80000 911.063
65.84000 1020.124
65.88000 1059.017
65.92000 1054.870
65.96000 896.864
66.00000 664.406
66.04000 453.977
66.08000 359.292
66.12000 333.251
66.16000 312.115
66.20000 302.771
66.24000 323.411
66.28000 353.469
66.32000 375.083
66.36000 412.501
66.40000 424.437
66.44000 446.395
66.48000 447.594
66.52000 430.182
66.56000 383.501
66.60000 330.806
66.64000 320.638
66.68000 324.679
66.72000 310.428
66.76000 319.274
66.80000 335.452
66.84000 331.521
66.88000 329.154
66.92000 323.298
66.96000 336.080
67.00000 349.545
67.04000 336.851
67.08000 362.256
67.12000 363.537
67.16000 377.995
67.20000 368.363
67.24000 384.386
67.28000 377.686
67.32000 402.894
67.36000 390.036
67.40000 394.729
67.44000 389.671
67.48000 417.489
67.52000 440.238
67.56000 423.042
67.60000 438.552
67.64000 434.830
67.68000 457.097
67.72000 461.125
67.76000 468.057
67.80000 469.020
67.84000 484.379
67.88000 498.872
67.92000 521.478
67.96000 525.435
68.00000 523.086
68.04000 535.755
68.08000 552.814
68.12000 552.129
68.16000 582.159
68.20000 605.443
68.24000 613.032
68.28000 636.187
68.32000 658.071
68.36000 651.128
68.40000 685.115
68.44000 720.203
68.48000 750.863
68.52000 796.500
68.56000 855.083
68.60000 935.457
68.64000 1085.775
68.68000 1276.025
68.72000 1518.752
68.76000 1715.605
68.80000 1899.595
68.84000 2184.417
68.88000 2666.095
68.92000 4200.639
68.96000 10534.244
69.00000 24853.754
69.04000 41626.168
69.08000 51046.711
69.12000 53110.383
69.16000 55061.176
69.20000 56190.949
69.24000 47996.832
69.28000 36065.941
69.32000 29394.328
69.36000 26480.996
69.40000 22620.938
69.44000 14335.199
69.48000 6754.296
69.52000 2986.143
69.56000 1885.455
69.60000 1492.030
69.64000 1249.972
69.68000 1120.096
69.72000 987.424
69.76000 923.474
69.80000 855.095
69.84000 792.617
69.88000 760.422
69.92000 714.817
69.96000 683.293
70.00000 670.713