File: XRD/25-09-2025/XY Data/BTO_Mapping_Theta2Theta_25-09-2025_001_20_-3-136_29-836.xy
20.00000 551.708
20.04000 541.069
20.08000 554.237
20.12000 554.010
20.16000 575.730
20.20000 565.478
20.24000 552.361
20.28000 552.839
20.32000 576.215
20.36000 533.293
20.40000 574.465
20.44000 557.699
20.48000 552.781
20.52000 547.080
20.56000 563.123
20.60000 555.431
20.64000 547.887
20.68000 539.186
20.72000 543.742
20.76000 532.654
20.80000 551.572
20.84000 532.891
20.88000 552.422
20.92000 530.774
20.96000 558.182
21.00000 531.909
21.04000 569.100
21.08000 541.266
21.12000 544.407
21.16000 536.060
21.20000 537.298
21.24000 537.096
21.28000 528.042
21.32000 534.182
21.36000 548.002
21.40000 550.326
21.44000 540.062
21.48000 529.274
21.52000 533.480
21.56000 542.200
21.60000 517.948
21.64000 563.636
21.68000 547.163
21.72000 539.694
21.76000 556.461
21.80000 562.067
21.84000 559.624
21.88000 587.150
21.92000 560.538
21.96000 587.309
22.00000 606.382
22.04000 614.914
22.08000 590.359
22.12000 621.482
22.16000 616.629
22.20000 621.518
22.24000 623.888
22.28000 626.533
22.32000 592.643
22.36000 595.978
22.40000 592.004
22.44000 578.000
22.48000 589.992
22.52000 556.049
22.56000 540.695
22.60000 534.250
22.64000 518.249
22.68000 541.615
22.72000 520.729
22.76000 521.317
22.80000 523.196
22.84000 520.337
22.88000 530.598
22.92000 521.309
22.96000 528.986
23.00000 497.876
23.04000 510.568
23.08000 487.167
23.12000 517.286
23.16000 492.544
23.20000 513.816
23.24000 504.464
23.28000 502.265
23.32000 496.305
23.36000 512.790
23.40000 516.254
23.44000 507.848
23.48000 492.898
23.52000 488.931
23.56000 495.373
23.60000 511.298
23.64000 472.542
23.68000 479.077
23.72000 496.932
23.76000 494.285
23.80000 491.219
23.84000 482.298
23.88000 490.858
23.92000 471.771
23.96000 491.651
24.00000 471.545
24.04000 502.497
24.08000 500.135
24.12000 487.542
24.16000 506.437
24.20000 492.678
24.24000 497.140
24.28000 496.457
24.32000 490.506
24.36000 473.146
24.40000 484.023
24.44000 480.999
24.48000 490.599
24.52000 471.890
24.56000 476.658
24.60000 485.767
24.64000 466.089
24.68000 466.576
24.72000 476.404
24.76000 489.440
24.80000 484.147
24.84000 476.584
24.88000 496.563
24.92000 479.584
24.96000 462.749
25.00000 483.507
25.04000 460.316
25.08000 476.974
25.12000 472.487
25.16000 470.336
25.20000 451.702
25.24000 479.327
25.28000 454.514
25.32000 463.854
25.36000 471.685
25.40000 483.329
25.44000 470.492
25.48000 460.747
25.52000 463.275
25.56000 466.179
25.60000 472.771
25.64000 450.991
25.68000 443.989
25.72000 450.129
25.76000 460.648
25.80000 443.785
25.84000 455.486
25.88000 453.752
25.92000 476.729
25.96000 458.484
26.00000 449.171
26.04000 457.863
26.08000 459.245
26.12000 454.155
26.16000 447.162
26.20000 452.954
26.24000 428.962
26.28000 456.387
26.32000 446.027
26.36000 430.081
26.40000 433.926
26.44000 429.793
26.48000 441.699
26.52000 441.695
26.56000 442.918
26.60000 434.544
26.64000 448.630
26.68000 449.968
26.72000 429.033
26.76000 450.622
26.80000 435.911
26.84000 453.792
26.88000 442.192
26.92000 435.598
26.96000 424.367
27.00000 429.794
27.04000 442.650
27.08000 432.827
27.12000 440.441
27.16000 439.383
27.20000 429.651
27.24000 443.771
27.28000 427.902
27.32000 430.603
27.36000 431.614
27.40000 442.305
27.44000 437.736
27.48000 421.096
27.52000 430.655
27.56000 417.044
27.60000 419.951
27.64000 408.366
27.68000 412.275
27.72000 425.365
27.76000 428.529
27.80000 416.280
27.84000 423.210
27.88000 442.350
27.92000 433.955
27.96000 422.338
28.00000 413.850
28.04000 405.263
28.08000 424.130
28.12000 415.889
28.16000 417.284
28.20000 424.067
28.24000 421.858
28.28000 403.571
28.32000 418.499
28.36000 415.689
28.40000 418.819
28.44000 426.166
28.48000 407.785
28.52000 420.283
28.56000 424.450
28.60000 372.923
28.64000 413.593
28.68000 410.358
28.72000 414.958
28.76000 406.879
28.80000 413.178
28.84000 413.894
28.88000 401.665
28.92000 437.608
28.96000 399.163
29.00000 420.604
29.04000 399.146
29.08000 409.744
29.12000 373.217
29.16000 395.215
29.20000 392.637
29.24000 395.617
29.28000 402.267
29.32000 394.920
29.36000 406.960
29.40000 392.837
29.44000 397.144
29.48000 399.107
29.52000 396.220
29.56000 416.384
29.60000 414.252
29.64000 385.520
29.68000 392.297
29.72000 386.524
29.76000 403.029
29.80000 399.847
29.84000 399.972
29.88000 394.591
29.92000 391.421
29.96000 413.610
30.00000 406.743
30.04000 385.764
30.08000 414.966
30.12000 389.787
30.16000 415.104
30.20000 395.151
30.24000 407.729
30.28000 405.277
30.32000 412.557
30.36000 388.704
30.40000 404.745
30.44000 407.752
30.48000 400.674
30.52000 409.993
30.56000 417.689
30.60000 405.404
30.64000 415.058
30.68000 407.124
30.72000 386.531
30.76000 397.694
30.80000 416.811
30.84000 428.068
30.88000 425.373
30.92000 459.266
30.96000 445.583
31.00000 464.370
31.04000 492.654
31.08000 543.737
31.12000 612.359
31.16000 677.273
31.20000 757.642
31.24000 890.938
31.28000 1012.147
31.32000 1115.203
31.36000 1231.644
31.40000 1241.752
31.44000 1246.504
31.48000 1163.819
31.52000 1067.794
31.56000 951.721
31.60000 791.131
31.64000 731.788
31.68000 633.968
31.72000 563.232
31.76000 504.937
31.80000 496.561
31.84000 493.518
31.88000 445.267
31.92000 446.227
31.96000 416.594
32.00000 422.999
32.04000 410.457
32.08000 411.983
32.12000 405.637
32.16000 381.724
32.20000 382.397
32.24000 387.438
32.28000 377.173
32.32000 384.159
32.36000 388.274
32.40000 370.915
32.44000 366.301
32.48000 372.378
32.52000 359.127
32.56000 372.712
32.60000 375.616
32.64000 355.990
32.68000 363.706
32.72000 365.866
32.76000 349.579
32.80000 368.787
32.84000 373.999
32.88000 382.684
32.92000 373.032
32.96000 352.286
33.00000 367.748
33.04000 351.618
33.08000 353.221
33.12000 337.544
33.16000 324.850
33.20000 347.759
33.24000 350.893
33.28000 319.528
33.32000 327.094
33.36000 323.458
33.40000 323.073
33.44000 331.177
33.48000 329.452
33.52000 328.212
33.56000 334.965
33.60000 326.663
33.64000 315.620
33.68000 323.622
33.72000 329.133
33.76000 333.668
33.80000 319.511
33.84000 323.424
33.88000 322.850
33.92000 327.943
33.96000 319.731
34.00000 323.776
34.04000 340.443
34.08000 314.776
34.12000 336.555
34.16000 320.840
34.20000 333.228
34.24000 322.607
34.28000 330.326
34.32000 330.860
34.36000 324.975
34.40000 312.928
34.44000 319.165
34.48000 309.868
34.52000 347.523
34.56000 319.569
34.60000 325.720
34.64000 313.541
34.68000 325.524
34.72000 320.993
34.76000 315.500
34.80000 299.653
34.84000 315.124
34.88000 323.820
34.92000 321.979
34.96000 307.068
35.00000 319.446
35.04000 318.635
35.08000 300.982
35.12000 302.444
35.16000 298.308
35.20000 312.455
35.24000 310.957
35.28000 310.696
35.32000 289.747
35.36000 293.316
35.40000 306.259
35.44000 306.701
35.48000 308.053
35.52000 286.719
35.56000 298.415
35.60000 298.616
35.64000 301.882
35.68000 303.989
35.72000 301.827
35.76000 297.449
35.80000 315.349
35.84000 299.474
35.88000 301.126
35.92000 295.797
35.96000 305.175
36.00000 293.858
36.04000 280.180
36.08000 317.356
36.12000 300.320
36.16000 306.472
36.20000 307.337
36.24000 292.309
36.28000 284.360
36.32000 297.830
36.36000 286.638
36.40000 291.322
36.44000 298.203
36.48000 287.467
36.52000 290.033
36.56000 283.994
36.60000 300.231
36.64000 291.201
36.68000 284.507
36.72000 286.170
36.76000 279.232
36.80000 291.875
36.84000 289.892
36.88000 278.221
36.92000 296.274
36.96000 288.115
37.00000 300.965
37.04000 282.931
37.08000 296.873
37.12000 300.896
37.16000 297.223
37.20000 299.981
37.24000 295.747
37.28000 288.433
37.32000 290.521
37.36000 300.531
37.40000 287.332
37.44000 284.872
37.48000 273.833
37.52000 293.649
37.56000 285.263
37.60000 279.022
37.64000 278.502
37.68000 281.126
37.72000 285.254
37.76000 286.128
37.80000 296.815
37.84000 286.111
37.88000 267.228
37.92000 271.836
37.96000 283.418
38.00000 284.976
38.04000 291.855
38.08000 286.511
38.12000 286.793
38.16000 284.346
38.20000 294.536
38.24000 270.276
38.28000 280.203
38.32000 299.281
38.36000 304.966
38.40000 310.969
38.44000 328.287
38.48000 383.342
38.52000 447.423
38.56000 486.870
38.60000 570.619
38.64000 665.031
38.68000 740.876
38.72000 791.651
38.76000 778.901
38.80000 775.051
38.84000 691.085
38.88000 606.008
38.92000 526.450
38.96000 444.238
39.00000 384.228
39.04000 347.773
39.08000 322.343
39.12000 288.098
39.16000 269.386
39.20000 275.767
39.24000 266.305
39.28000 273.414
39.32000 272.523
39.36000 271.359
39.40000 266.213
39.44000 258.825
39.48000 260.220
39.52000 257.877
39.56000 256.959
39.60000 260.600
39.64000 260.025
39.68000 276.289
39.72000 251.157
39.76000 251.731
39.80000 261.904
39.84000 251.996
39.88000 246.196
39.92000 264.570
39.96000 258.837
40.00000 247.302
40.04000 258.152
40.08000 246.587
40.12000 249.939
40.16000 265.426
40.20000 246.116
40.24000 248.110
40.28000 258.956
40.32000 251.706
40.36000 257.756
40.40000 247.175
40.44000 245.531
40.48000 247.239
40.52000 240.078
40.56000 245.957
40.60000 255.515
40.64000 251.062
40.68000 258.117
40.72000 234.482
40.76000 243.508
40.80000 253.190
40.84000 246.018
40.88000 245.245
40.92000 247.770
40.96000 241.119
41.00000 233.271
41.04000 241.618
41.08000 240.792
41.12000 250.510
41.16000 245.434
41.20000 232.817
41.24000 244.954
41.28000 235.693
41.32000 240.429
41.36000 249.784
41.40000 234.753
41.44000 235.144
41.48000 234.453
41.52000 240.201
41.56000 234.527
41.60000 226.986
41.64000 227.633
41.68000 241.811
41.72000 240.882
41.76000 232.966
41.80000 227.796
41.84000 237.032
41.88000 239.118
41.92000 237.056
41.96000 226.082
42.00000 233.859
42.04000 241.260
42.08000 245.419
42.12000 231.976
42.16000 233.989
42.20000 216.189
42.24000 216.635
42.28000 222.237
42.32000 225.443
42.36000 225.467
42.40000 224.124
42.44000 225.036
42.48000 215.543
42.52000 225.110
42.56000 223.459
42.60000 220.676
42.64000 228.727
42.68000 225.335
42.72000 224.232
42.76000 216.656
42.80000 211.913
42.84000 214.901
42.88000 219.807
42.92000 232.068
42.96000 223.495
43.00000 230.690
43.04000 212.398
43.08000 223.460
43.12000 221.048
43.16000 218.589
43.20000 219.736
43.24000 222.981
43.28000 226.183
43.32000 218.319
43.36000 220.336
43.40000 213.053
43.44000 219.584
43.48000 222.935
43.52000 225.436
43.56000 217.526
43.60000 206.827
43.64000 219.627
43.68000 213.969
43.72000 226.124
43.76000 210.872
43.80000 210.320
43.84000 219.589
43.88000 218.090
43.92000 226.648
43.96000 220.909
44.00000 222.310
44.04000 217.742
44.08000 223.334
44.12000 217.201
44.16000 218.153
44.20000 222.267
44.24000 225.834
44.28000 212.365
44.32000 214.343
44.36000 218.935
44.40000 227.444
44.44000 207.053
44.48000 215.385
44.52000 205.678
44.56000 225.582
44.60000 218.591
44.64000 226.984
44.68000 217.412
44.72000 226.565
44.76000 232.848
44.80000 242.162
44.84000 232.756
44.88000 248.833
44.92000 248.194
44.96000 259.093
45.00000 244.516
45.04000 256.258
45.08000 259.367
45.12000 260.231
45.16000 264.468
45.20000 260.735
45.24000 263.006
45.28000 261.271
45.32000 261.518
45.36000 254.614
45.40000 258.741
45.44000 262.776
45.48000 251.031
45.52000 245.472
45.56000 247.064
45.60000 244.053
45.64000 242.020
45.68000 234.899
45.72000 249.547
45.76000 244.672
45.80000 251.460
45.84000 229.709
45.88000 235.972
45.92000 232.240
45.96000 224.776
46.00000 217.509
46.04000 220.595
46.08000 208.417
46.12000 213.337
46.16000 204.963
46.20000 209.690
46.24000 210.712
46.28000 210.677
46.32000 204.860
46.36000 208.599
46.40000 196.880
46.44000 200.107
46.48000 205.606
46.52000 199.690
46.56000 192.150
46.60000 195.950
46.64000 183.368
46.68000 182.695
46.72000 198.093
46.76000 201.276
46.80000 193.284
46.84000 195.767
46.88000 199.145
46.92000 192.826
46.96000 194.736
47.00000 195.912
47.04000 198.946
47.08000 184.717
47.12000 193.050
47.16000 187.379
47.20000 194.339
47.24000 182.952
47.28000 192.466
47.32000 192.786
47.36000 198.676
47.40000 188.357
47.44000 188.459
47.48000 196.721
47.52000 190.199
47.56000 192.128
47.60000 189.120
47.64000 187.095
47.68000 170.515
47.72000 186.501
47.76000 180.728
47.80000 188.319
47.84000 174.398
47.88000 183.217
47.92000 177.974
47.96000 183.153
48.00000 171.608
48.04000 176.112
48.08000 178.357
48.12000 186.430
48.16000 188.937
48.20000 187.450
48.24000 185.664
48.28000 191.144
48.32000 187.007
48.36000 181.012
48.40000 184.178
48.44000 180.919
48.48000 190.364
48.52000 179.358
48.56000 177.450
48.60000 178.889
48.64000 181.054
48.68000 176.845
48.72000 190.145
48.76000 177.965
48.80000 179.659
48.84000 176.882
48.88000 175.441
48.92000 180.112
48.96000 166.270
49.00000 173.790
49.04000 169.622
49.08000 184.635
49.12000 167.980
49.16000 181.863
49.20000 184.049
49.24000 162.449
49.28000 167.509
49.32000 172.081
49.36000 180.049
49.40000 180.113
49.44000 181.366
49.48000 171.437
49.52000 167.776
49.56000 177.379
49.60000 171.388
49.64000 169.484
49.68000 168.673
49.72000 157.918
49.76000 163.592
49.80000 174.924
49.84000 178.824
49.88000 183.105
49.92000 175.464
49.96000 160.755
50.00000 171.951
50.04000 160.878
50.08000 184.819
50.12000 175.058
50.16000 173.021
50.20000 173.885
50.24000 171.012
50.28000 172.101
50.32000 175.325
50.36000 168.642
50.40000 182.013
50.44000 180.584
50.48000 167.865
50.52000 177.626
50.56000 179.609
50.60000 189.138
50.64000 188.001
50.68000 185.718
50.72000 200.587
50.76000 193.187
50.80000 189.921
50.84000 195.589
50.88000 184.818
50.92000 190.874
50.96000 186.454
51.00000 177.162
51.04000 185.495
51.08000 170.744
51.12000 183.763
51.16000 170.438
51.20000 176.833
51.24000 178.171
51.28000 153.111
51.32000 171.758
51.36000 161.826
51.40000 162.296
51.44000 165.334
51.48000 150.773
51.52000 165.349
51.56000 159.372
51.60000 161.467
51.64000 160.383
51.68000 144.781
51.72000 155.083
51.76000 160.143
51.80000 155.440
51.84000 158.592
51.88000 168.778
51.92000 170.629
51.96000 160.653
52.00000 169.492
52.04000 153.277
52.08000 160.951
52.12000 168.146
52.16000 145.488
52.20000 154.965
52.24000 163.090
52.28000 162.923
52.32000 164.465
52.36000 147.866
52.40000 158.084
52.44000 154.773
52.48000 160.663
52.52000 156.822
52.56000 163.248
52.60000 160.927
52.64000 154.289
52.68000 157.444
52.72000 152.334
52.76000 151.251
52.80000 149.185
52.84000 156.834
52.88000 163.421
52.92000 159.526
52.96000 154.753
53.00000 162.508
53.04000 157.189
53.08000 145.496
53.12000 160.600
53.16000 148.560
53.20000 154.219
53.24000 147.862
53.28000 165.822
53.32000 170.413
53.36000 156.754
53.40000 155.093
53.44000 153.774
53.48000 156.157
53.52000 158.822
53.56000 159.167
53.60000 161.674
53.64000 155.242
53.68000 148.370
53.72000 143.952
53.76000 152.569
53.80000 156.372
53.84000 157.143
53.88000 172.535
53.92000 148.264
53.96000 149.820
54.00000 146.327
54.04000 151.962
54.08000 153.081
54.12000 149.541
54.16000 152.745
54.20000 150.265
54.24000 153.253
54.28000 141.042
54.32000 148.460
54.36000 161.167
54.40000 150.286
54.44000 150.761
54.48000 155.732
54.52000 150.421
54.56000 148.785
54.60000 157.198
54.64000 145.714
54.68000 140.308
54.72000 149.908
54.76000 146.430
54.80000 142.562
54.84000 157.119
54.88000 160.045
54.92000 154.509
54.96000 157.405
55.00000 159.693
55.04000 146.637
55.08000 150.383
55.12000 159.871
55.16000 145.260
55.20000 146.869
55.24000 162.456
55.28000 155.817
55.32000 164.218
55.36000 169.214
55.40000 164.393
55.44000 166.698
55.48000 173.920
55.52000 178.655
55.56000 189.143
55.60000 211.250
55.64000 219.217
55.68000 236.154
55.72000 253.054
55.76000 298.897
55.80000 332.020
55.84000 355.868
55.88000 406.827
55.92000 411.478
55.96000 442.831
56.00000 441.435
56.04000 441.019
56.08000 419.029
56.12000 378.251
56.16000 335.193
56.20000 322.908
56.24000 277.503
56.28000 264.991
56.32000 238.067
56.36000 221.441
56.40000 208.574
56.44000 189.377
56.48000 174.463
56.52000 175.083
56.56000 162.072
56.60000 166.567
56.64000 164.422
56.68000 162.375
56.72000 153.427
56.76000 148.850
56.80000 140.018
56.84000 150.116
56.88000 138.936
56.92000 146.764
56.96000 149.505
57.00000 151.326
57.04000 142.538
57.08000 139.921
57.12000 134.283
57.16000 144.015
57.20000 139.015
57.24000 136.241
57.28000 141.519
57.32000 138.290
57.36000 149.896
57.40000 143.349
57.44000 148.968
57.48000 149.367
57.52000 144.064
57.56000 135.063
57.60000 138.722
57.64000 143.745
57.68000 144.801
57.72000 136.404
57.76000 127.176
57.80000 128.368
57.84000 140.004
57.88000 151.909
57.92000 141.630
57.96000 128.792
58.00000 134.764
58.04000 131.504
58.08000 139.370
58.12000 131.300
58.16000 135.579
58.20000 140.147
58.24000 139.354
58.28000 134.695
58.32000 133.644
58.36000 136.041
58.40000 134.293
58.44000 137.499
58.48000 141.019
58.52000 139.925
58.56000 133.346
58.60000 132.116
58.64000 132.347
58.68000 128.673
58.72000 135.754
58.76000 139.352
58.80000 136.429
58.84000 133.014
58.88000 140.172
58.92000 142.675
58.96000 129.326
59.00000 137.678
59.04000 138.753
59.08000 128.314
59.12000 125.764
59.16000 144.506
59.20000 136.934
59.24000 127.425
59.28000 129.912
59.32000 132.568
59.36000 126.709
59.40000 131.107
59.44000 136.696
59.48000 128.394
59.52000 124.312
59.56000 127.206
59.60000 135.584
59.64000 133.394
59.68000 126.303
59.72000 126.846
59.76000 137.017
59.80000 141.393
59.84000 126.238
59.88000 137.307
59.92000 135.555
59.96000 139.495
60.00000 138.228
60.04000 131.774
60.08000 140.120
60.12000 121.510
60.16000 134.005
60.20000 126.956
60.24000 132.475
60.28000 121.535
60.32000 134.009
60.36000 132.523
60.40000 135.563
60.44000 124.017
60.48000 134.479
60.52000 141.478
60.56000 139.055
60.60000 139.308
60.64000 140.548
60.68000 131.775
60.72000 138.174
60.76000 146.808
60.80000 136.881
60.84000 135.218
60.88000 133.808
60.92000 124.459
60.96000 131.855
61.00000 125.561
61.04000 142.728
61.08000 136.691
61.12000 137.584
61.16000 136.972
61.20000 133.112
61.24000 148.036
61.28000 132.137
61.32000 126.603
61.36000 142.055
61.40000 138.203
61.44000 135.657
61.48000 132.809
61.52000 159.405
61.56000 195.815
61.60000 240.324
61.64000 255.280
61.68000 271.128
61.72000 269.151
61.76000 264.479
61.80000 222.988
61.84000 171.298
61.88000 168.729
61.92000 149.551
61.96000 143.225
62.00000 145.240
62.04000 146.637
62.08000 138.430
62.12000 144.396
62.16000 148.360
62.20000 139.809
62.24000 136.648
62.28000 146.102
62.32000 136.424
62.36000 145.120
62.40000 139.898
62.44000 140.246
62.48000 144.255
62.52000 139.219
62.56000 146.890
62.60000 138.042
62.64000 137.214
62.68000 134.774
62.72000 151.951
62.76000 139.541
62.80000 141.255
62.84000 152.112
62.88000 125.611
62.92000 143.979
62.96000 137.314
63.00000 145.877
63.04000 132.580
63.08000 144.614
63.12000 143.678
63.16000 140.885
63.20000 142.912
63.24000 148.683
63.28000 141.434
63.32000 145.794
63.36000 149.424
63.40000 139.370
63.44000 144.742
63.48000 143.701
63.52000 144.551
63.56000 151.502
63.60000 141.787
63.64000 146.718
63.68000 155.520
63.72000 161.181
63.76000 152.809
63.80000 150.071
63.84000 156.287
63.88000 153.372
63.92000 147.982
63.96000 153.673
64.00000 159.874
64.04000 164.022
64.08000 152.376
64.12000 148.441
64.16000 152.810
64.20000 162.297
64.24000 145.858
64.28000 167.421
64.32000 163.822
64.36000 151.465
64.40000 160.288
64.44000 173.464
64.48000 161.203
64.52000 164.757
64.56000 180.347
64.60000 170.523
64.64000 172.489
64.68000 165.943
64.72000 176.477
64.76000 166.856
64.80000 175.918
64.84000 178.737
64.88000 175.133
64.92000 187.347
64.96000 177.600
65.00000 182.513
65.04000 174.974
65.08000 191.941
65.12000 188.209
65.16000 204.496
65.20000 199.748
65.24000 218.194
65.28000 200.794
65.32000 239.946
65.36000 237.550
65.40000 249.140
65.44000 237.806
65.48000 260.975
65.52000 277.105
65.56000 286.214
65.60000 306.437
65.64000 319.081
65.68000 378.339
65.72000 529.941
65.76000 740.666
65.80000 974.512
65.84000 1045.841
65.88000 1072.322
65.92000 1003.816
65.96000 873.384
66.00000 629.238
66.04000 444.061
66.08000 350.479
66.12000 336.504
66.16000 299.377
66.20000 299.222
66.24000 329.029
66.28000 353.794
66.32000 387.626
66.36000 427.736
66.40000 444.814
66.44000 448.435
66.48000 443.476
66.52000 405.062
66.56000 354.504
66.60000 328.493
66.64000 324.366
66.68000 330.352
66.72000 329.338
66.76000 319.689
66.80000 317.487
66.84000 310.844
66.88000 334.311
66.92000 331.747
66.96000 355.353
67.00000 350.558
67.04000 351.364
67.08000 353.367
67.12000 354.195
67.16000 374.170
67.20000 381.138
67.24000 394.587
67.28000 396.003
67.32000 396.166
67.36000 411.179
67.40000 390.638
67.44000 405.817
67.48000 419.020
67.52000 432.522
67.56000 434.780
67.60000 438.376
67.64000 450.799
67.68000 463.199
67.72000 472.967
67.76000 483.458
67.80000 480.586
67.84000 496.882
67.88000 520.867
67.92000 512.985
67.96000 522.300
68.00000 513.590
68.04000 540.777
68.08000 535.297
68.12000 547.132
68.16000 584.428
68.20000 595.460
68.24000 615.430
68.28000 609.505
68.32000 644.487
68.36000 652.389
68.40000 689.853
68.44000 720.071
68.48000 760.025
68.52000 825.719
68.56000 879.459
68.60000 944.124
68.64000 1140.896
68.68000 1325.742
68.72000 1559.351
68.76000 1772.577
68.80000 1992.932
68.84000 2350.349
68.88000 2955.208
68.92000 4878.982
68.96000 12324.547
69.00000 27605.246
69.04000 43882.609
69.08000 52135.129
69.12000 53707.965
69.16000 55952.496
69.20000 56095.484
69.24000 46576.883
69.28000 35504.215
69.32000 29067.156
69.36000 26373.535
69.40000 21792.539
69.44000 13100.379
69.48000 6265.733
69.52000 2846.523
69.56000 1841.541
69.60000 1488.881
69.64000 1282.361
69.68000 1106.995
69.72000 1010.101
69.76000 900.688
69.80000 855.420
69.84000 782.805
69.88000 768.593
69.92000 734.575
69.96000 696.510
70.00000 656.474