File: XRD/25-09-2025/XY Data/BTO_Mapping_Theta2Theta_25-09-2025_001_14_3-090_9-511.xy
20.00000 574.552
20.04000 553.514
20.08000 572.639
20.12000 579.024
20.16000 559.594
20.20000 558.446
20.24000 531.045
20.28000 541.897
20.32000 578.585
20.36000 554.599
20.40000 555.966
20.44000 545.976
20.48000 559.643
20.52000 543.413
20.56000 554.963
20.60000 546.684
20.64000 560.078
20.68000 550.035
20.72000 538.916
20.76000 560.097
20.80000 529.518
20.84000 535.027
20.88000 551.493
20.92000 541.324
20.96000 582.118
21.00000 553.080
21.04000 529.988
21.08000 551.354
21.12000 536.773
21.16000 550.693
21.20000 531.788
21.24000 525.180
21.28000 522.576
21.32000 539.061
21.36000 546.471
21.40000 542.894
21.44000 551.095
21.48000 522.131
21.52000 526.630
21.56000 553.374
21.60000 530.820
21.64000 533.662
21.68000 554.927
21.72000 552.193
21.76000 559.287
21.80000 557.283
21.84000 564.046
21.88000 565.861
21.92000 566.252
21.96000 573.213
22.00000 617.302
22.04000 617.811
22.08000 610.740
22.12000 606.114
22.16000 632.700
22.20000 617.461
22.24000 595.709
22.28000 601.481
22.32000 598.788
22.36000 594.423
22.40000 571.613
22.44000 577.147
22.48000 567.939
22.52000 559.267
22.56000 541.507
22.60000 544.236
22.64000 526.530
22.68000 529.281
22.72000 526.820
22.76000 512.133
22.80000 510.619
22.84000 511.863
22.88000 504.945
22.92000 524.657
22.96000 505.304
23.00000 510.301
23.04000 487.541
23.08000 514.308
23.12000 505.281
23.16000 509.616
23.20000 525.637
23.24000 486.592
23.28000 485.310
23.32000 521.369
23.36000 502.482
23.40000 485.525
23.44000 489.930
23.48000 509.664
23.52000 482.734
23.56000 497.664
23.60000 491.724
23.64000 481.542
23.68000 497.079
23.72000 505.135
23.76000 490.215
23.80000 477.799
23.84000 494.361
23.88000 497.930
23.92000 500.985
23.96000 505.378
24.00000 477.182
24.04000 493.253
24.08000 501.297
24.12000 490.758
24.16000 505.725
24.20000 492.299
24.24000 482.681
24.28000 469.165
24.32000 483.244
24.36000 476.438
24.40000 467.668
24.44000 474.861
24.48000 477.725
24.52000 470.618
24.56000 469.637
24.60000 475.078
24.64000 487.820
24.68000 445.624
24.72000 467.915
24.76000 482.358
24.80000 476.234
24.84000 479.056
24.88000 438.039
24.92000 466.326
24.96000 457.496
25.00000 450.136
25.04000 466.075
25.08000 463.992
25.12000 485.629
25.16000 481.860
25.20000 467.030
25.24000 472.108
25.28000 474.817
25.32000 464.074
25.36000 441.198
25.40000 456.537
25.44000 468.298
25.48000 466.082
25.52000 459.493
25.56000 444.582
25.60000 442.658
25.64000 451.816
25.68000 463.957
25.72000 470.773
25.76000 467.845
25.80000 463.007
25.84000 455.333
25.88000 455.075
25.92000 442.413
25.96000 450.495
26.00000 444.767
26.04000 449.947
26.08000 454.732
26.12000 439.618
26.16000 443.420
26.20000 460.992
26.24000 456.781
26.28000 446.074
26.32000 432.501
26.36000 445.618
26.40000 443.424
26.44000 447.579
26.48000 438.612
26.52000 436.149
26.56000 457.079
26.60000 458.955
26.64000 439.667
26.68000 445.572
26.72000 439.450
26.76000 437.566
26.80000 449.927
26.84000 428.334
26.88000 422.460
26.92000 424.767
26.96000 442.200
27.00000 439.837
27.04000 404.388
27.08000 428.529
27.12000 420.902
27.16000 437.511
27.20000 421.868
27.24000 438.032
27.28000 428.180
27.32000 423.928
27.36000 424.983
27.40000 409.931
27.44000 430.232
27.48000 434.593
27.52000 432.793
27.56000 422.595
27.60000 412.934
27.64000 435.986
27.68000 430.076
27.72000 428.026
27.76000 423.704
27.80000 423.767
27.84000 414.794
27.88000 426.636
27.92000 424.482
27.96000 423.518
28.00000 433.129
28.04000 411.906
28.08000 414.286
28.12000 418.805
28.16000 415.807
28.20000 435.985
28.24000 432.324
28.28000 405.344
28.32000 418.125
28.36000 410.721
28.40000 421.720
28.44000 418.618
28.48000 405.877
28.52000 405.833
28.56000 408.756
28.60000 427.418
28.64000 404.714
28.68000 401.625
28.72000 406.586
28.76000 410.170
28.80000 397.949
28.84000 412.376
28.88000 423.367
28.92000 438.500
28.96000 400.083
29.00000 409.473
29.04000 404.629
29.08000 417.427
29.12000 403.453
29.16000 384.005
29.20000 405.455
29.24000 413.384
29.28000 394.028
29.32000 395.514
29.36000 407.281
29.40000 403.824
29.44000 400.903
29.48000 426.557
29.52000 396.374
29.56000 406.784
29.60000 385.134
29.64000 391.250
29.68000 409.487
29.72000 393.733
29.76000 423.546
29.80000 402.498
29.84000 417.094
29.88000 400.204
29.92000 401.453
29.96000 415.793
30.00000 411.488
30.04000 396.034
30.08000 435.614
30.12000 411.577
30.16000 390.556
30.20000 408.286
30.24000 397.276
30.28000 408.300
30.32000 391.873
30.36000 411.675
30.40000 404.804
30.44000 396.682
30.48000 396.044
30.52000 392.843
30.56000 387.279
30.60000 398.467
30.64000 401.200
30.68000 414.453
30.72000 414.137
30.76000 396.691
30.80000 421.015
30.84000 424.044
30.88000 432.296
30.92000 431.110
30.96000 440.003
31.00000 474.815
31.04000 497.116
31.08000 535.359
31.12000 608.821
31.16000 678.282
31.20000 814.345
31.24000 986.177
31.28000 1117.800
31.32000 1245.105
31.36000 1362.305
31.40000 1385.030
31.44000 1294.891
31.48000 1218.082
31.52000 1097.952
31.56000 959.923
31.60000 844.838
31.64000 741.036
31.68000 638.228
31.72000 573.317
31.76000 531.295
31.80000 491.755
31.84000 477.626
31.88000 450.173
31.92000 427.579
31.96000 430.038
32.00000 395.660
32.04000 403.411
32.08000 399.104
32.12000 393.894
32.16000 381.233
32.20000 395.906
32.24000 387.826
32.28000 390.567
32.32000 367.839
32.36000 373.151
32.40000 383.314
32.44000 376.327
32.48000 374.727
32.52000 365.343
32.56000 370.280
32.60000 369.824
32.64000 362.169
32.68000 379.225
32.72000 371.636
32.76000 349.567
32.80000 375.350
32.84000 362.561
32.88000 361.426
32.92000 350.909
32.96000 387.023
33.00000 355.737
33.04000 360.199
33.08000 337.510
33.12000 349.733
33.16000 342.347
33.20000 345.458
33.24000 337.664
33.28000 322.276
33.32000 338.270
33.36000 346.080
33.40000 345.687
33.44000 331.406
33.48000 323.512
33.52000 346.927
33.56000 338.511
33.60000 326.600
33.64000 308.189
33.68000 324.997
33.72000 338.088
33.76000 345.348
33.80000 332.774
33.84000 327.711
33.88000 332.604
33.92000 323.142
33.96000 329.319
34.00000 325.215
34.04000 317.857
34.08000 333.596
34.12000 312.632
34.16000 338.340
34.20000 328.707
34.24000 335.903
34.28000 323.477
34.32000 330.435
34.36000 334.954
34.40000 327.531
34.44000 328.700
34.48000 317.066
34.52000 325.600
34.56000 309.212
34.60000 315.230
34.64000 317.752
34.68000 312.207
34.72000 311.486
34.76000 301.418
34.80000 319.221
34.84000 300.404
34.88000 305.096
34.92000 311.290
34.96000 322.544
35.00000 314.273
35.04000 309.469
35.08000 324.420
35.12000 327.664
35.16000 297.467
35.20000 311.302
35.24000 305.446
35.28000 304.786
35.32000 319.656
35.36000 297.230
35.40000 315.139
35.44000 302.498
35.48000 316.438
35.52000 305.426
35.56000 310.980
35.60000 296.687
35.64000 301.112
35.68000 294.745
35.72000 313.209
35.76000 312.165
35.80000 301.327
35.84000 297.112
35.88000 302.062
35.92000 297.895
35.96000 299.946
36.00000 302.315
36.04000 306.526
36.08000 297.063
36.12000 304.560
36.16000 307.743
36.20000 295.923
36.24000 292.610
36.28000 300.836
36.32000 288.139
36.36000 304.380
36.40000 288.937
36.44000 279.836
36.48000 278.928
36.52000 287.147
36.56000 301.242
36.60000 287.325
36.64000 292.382
36.68000 288.960
36.72000 292.387
36.76000 294.585
36.80000 293.495
36.84000 301.301
36.88000 290.882
36.92000 298.085
36.96000 296.007
37.00000 312.940
37.04000 292.624
37.08000 294.610
37.12000 293.703
37.16000 291.744
37.20000 310.594
37.24000 280.925
37.28000 273.371
37.32000 295.544
37.36000 293.522
37.40000 284.685
37.44000 297.072
37.48000 277.978
37.52000 278.217
37.56000 271.523
37.60000 273.137
37.64000 278.424
37.68000 280.187
37.72000 271.698
37.76000 284.518
37.80000 278.185
37.84000 274.124
37.88000 279.402
37.92000 292.956
37.96000 289.784
38.00000 284.064
38.04000 287.931
38.08000 282.462
38.12000 296.336
38.16000 302.261
38.20000 302.754
38.24000 277.440
38.28000 294.847
38.32000 300.236
38.36000 321.176
38.40000 335.772
38.44000 346.495
38.48000 400.281
38.52000 456.850
38.56000 545.876
38.60000 636.290
38.64000 707.962
38.68000 758.456
38.72000 816.601
38.76000 818.743
38.80000 765.614
38.84000 723.408
38.88000 626.286
38.92000 533.924
38.96000 452.497
39.00000 392.999
39.04000 349.172
39.08000 309.498
39.12000 302.685
39.16000 288.347
39.20000 278.277
39.24000 284.930
39.28000 279.149
39.32000 273.231
39.36000 266.012
39.40000 276.526
39.44000 264.637
39.48000 252.264
39.52000 285.931
39.56000 262.813
39.60000 280.433
39.64000 269.539
39.68000 262.701
39.72000 261.093
39.76000 258.043
39.80000 256.267
39.84000 256.186
39.88000 269.046
39.92000 259.344
39.96000 257.193
40.00000 257.762
40.04000 265.472
40.08000 269.510
40.12000 265.077
40.16000 255.011
40.20000 252.111
40.24000 245.387
40.28000 252.068
40.32000 252.428
40.36000 257.257
40.40000 245.689
40.44000 249.206
40.48000 259.339
40.52000 261.252
40.56000 251.724
40.60000 240.044
40.64000 229.254
40.68000 251.994
40.72000 241.838
40.76000 240.643
40.80000 240.574
40.84000 246.956
40.88000 248.851
40.92000 231.953
40.96000 255.709
41.00000 245.322
41.04000 248.341
41.08000 241.682
41.12000 244.971
41.16000 245.431
41.20000 234.692
41.24000 237.448
41.28000 243.756
41.32000 238.220
41.36000 228.322
41.40000 241.000
41.44000 243.679
41.48000 249.721
41.52000 235.638
41.56000 234.429
41.60000 245.385
41.64000 231.168
41.68000 240.660
41.72000 238.282
41.76000 249.726
41.80000 241.793
41.84000 233.733
41.88000 237.528
41.92000 239.249
41.96000 228.373
42.00000 227.544
42.04000 228.493
42.08000 237.366
42.12000 236.167
42.16000 231.450
42.20000 233.348
42.24000 233.676
42.28000 239.161
42.32000 241.402
42.36000 237.861
42.40000 220.626
42.44000 226.598
42.48000 233.504
42.52000 217.069
42.56000 216.217
42.60000 222.620
42.64000 232.279
42.68000 216.259
42.72000 232.150
42.76000 233.682
42.80000 230.531
42.84000 227.523
42.88000 215.891
42.92000 233.308
42.96000 223.620
43.00000 225.345
43.04000 226.735
43.08000 233.810
43.12000 219.935
43.16000 235.585
43.20000 218.040
43.24000 219.134
43.28000 212.714
43.32000 225.705
43.36000 223.308
43.40000 219.249
43.44000 219.469
43.48000 223.011
43.52000 218.340
43.56000 221.878
43.60000 219.212
43.64000 215.675
43.68000 213.653
43.72000 216.924
43.76000 211.366
43.80000 228.863
43.84000 224.911
43.88000 223.720
43.92000 205.862
43.96000 214.881
44.00000 216.844
44.04000 209.280
44.08000 225.185
44.12000 224.401
44.16000 216.223
44.20000 219.999
44.24000 215.418
44.28000 208.295
44.32000 223.078
44.36000 216.961
44.40000 214.563
44.44000 224.795
44.48000 215.108
44.52000 216.338
44.56000 216.944
44.60000 227.587
44.64000 211.470
44.68000 230.717
44.72000 219.618
44.76000 215.413
44.80000 225.590
44.84000 236.025
44.88000 228.977
44.92000 238.370
44.96000 249.024
45.00000 252.224
45.04000 242.095
45.08000 259.655
45.12000 275.855
45.16000 259.831
45.20000 257.628
45.24000 252.625
45.28000 250.872
45.32000 249.076
45.36000 246.948
45.40000 255.324
45.44000 256.574
45.48000 240.899
45.52000 256.754
45.56000 272.653
45.60000 245.349
45.64000 240.222
45.68000 244.734
45.72000 240.996
45.76000 247.835
45.80000 228.193
45.84000 229.417
45.88000 233.028
45.92000 225.057
45.96000 225.789
46.00000 206.163
46.04000 214.552
46.08000 203.853
46.12000 215.105
46.16000 218.314
46.20000 217.358
46.24000 194.918
46.28000 191.378
46.32000 206.696
46.36000 204.270
46.40000 212.765
46.44000 208.896
46.48000 191.032
46.52000 196.309
46.56000 201.263
46.60000 192.111
46.64000 193.598
46.68000 187.319
46.72000 199.674
46.76000 192.188
46.80000 192.965
46.84000 191.417
46.88000 199.007
46.92000 193.462
46.96000 202.820
47.00000 192.072
47.04000 201.997
47.08000 195.340
47.12000 194.456
47.16000 184.726
47.20000 187.556
47.24000 188.084
47.28000 191.676
47.32000 192.831
47.36000 194.487
47.40000 190.291
47.44000 193.453
47.48000 181.029
47.52000 187.970
47.56000 191.560
47.60000 191.442
47.64000 184.184
47.68000 168.811
47.72000 176.385
47.76000 179.227
47.80000 197.454
47.84000 190.187
47.88000 189.640
47.92000 178.625
47.96000 186.099
48.00000 189.393
48.04000 181.737
48.08000 186.829
48.12000 186.643
48.16000 171.327
48.20000 178.108
48.24000 178.922
48.28000 180.981
48.32000 179.405
48.36000 184.900
48.40000 186.217
48.44000 182.377
48.48000 180.663
48.52000 188.147
48.56000 177.911
48.60000 179.858
48.64000 179.488
48.68000 193.298
48.72000 183.136
48.76000 191.011
48.80000 164.064
48.84000 168.062
48.88000 171.973
48.92000 173.151
48.96000 180.554
49.00000 182.634
49.04000 174.395
49.08000 171.527
49.12000 161.714
49.16000 174.427
49.20000 163.794
49.24000 181.739
49.28000 168.099
49.32000 156.332
49.36000 174.223
49.40000 163.614
49.44000 179.423
49.48000 173.649
49.52000 167.983
49.56000 179.984
49.60000 166.525
49.64000 181.102
49.68000 170.798
49.72000 181.755
49.76000 168.668
49.80000 173.869
49.84000 157.896
49.88000 171.904
49.92000 172.629
49.96000 157.033
50.00000 174.221
50.04000 173.859
50.08000 178.570
50.12000 169.693
50.16000 182.191
50.20000 171.655
50.24000 158.204
50.28000 169.953
50.32000 185.555
50.36000 175.444
50.40000 186.545
50.44000 183.701
50.48000 180.179
50.52000 179.034
50.56000 190.083
50.60000 189.248
50.64000 198.879
50.68000 198.483
50.72000 198.883
50.76000 197.625
50.80000 183.031
50.84000 194.109
50.88000 200.224
50.92000 194.199
50.96000 188.421
51.00000 190.300
51.04000 178.936
51.08000 171.155
51.12000 169.742
51.16000 173.397
51.20000 178.974
51.24000 172.235
51.28000 179.426
51.32000 169.555
51.36000 176.087
51.40000 170.644
51.44000 158.993
51.48000 164.745
51.52000 154.056
51.56000 161.347
51.60000 161.452
51.64000 158.948
51.68000 160.753
51.72000 173.539
51.76000 156.833
51.80000 153.789
51.84000 169.241
51.88000 162.026
51.92000 161.201
51.96000 163.885
52.00000 157.941
52.04000 166.117
52.08000 170.354
52.12000 159.556
52.16000 157.973
52.20000 162.611
52.24000 152.754
52.28000 156.573
52.32000 159.853
52.36000 154.933
52.40000 150.741
52.44000 147.515
52.48000 159.917
52.52000 158.724
52.56000 155.452
52.60000 152.046
52.64000 158.140
52.68000 154.917
52.72000 159.879
52.76000 153.486
52.80000 159.001
52.84000 152.761
52.88000 159.951
52.92000 156.297
52.96000 157.464
53.00000 154.955
53.04000 151.839
53.08000 145.813
53.12000 140.798
53.16000 155.211
53.20000 154.160
53.24000 150.250
53.28000 154.940
53.32000 156.203
53.36000 143.734
53.40000 155.542
53.44000 153.714
53.48000 154.182
53.52000 147.190
53.56000 148.146
53.60000 150.866
53.64000 156.070
53.68000 152.926
53.72000 158.855
53.76000 150.808
53.80000 155.900
53.84000 156.500
53.88000 167.531
53.92000 151.642
53.96000 155.136
54.00000 162.468
54.04000 159.472
54.08000 155.589
54.12000 155.278
54.16000 156.393
54.20000 152.342
54.24000 147.049
54.28000 153.977
54.32000 153.022
54.36000 155.176
54.40000 148.152
54.44000 160.524
54.48000 144.194
54.52000 145.934
54.56000 145.320
54.60000 141.760
54.64000 153.156
54.68000 150.422
54.72000 139.113
54.76000 148.476
54.80000 154.536
54.84000 155.531
54.88000 143.013
54.92000 145.685
54.96000 148.169
55.00000 148.951
55.04000 162.695
55.08000 158.087
55.12000 151.190
55.16000 150.504
55.20000 147.122
55.24000 158.972
55.28000 159.577
55.32000 158.272
55.36000 169.695
55.40000 163.875
55.44000 166.760
55.48000 177.023
55.52000 183.756
55.56000 188.366
55.60000 211.011
55.64000 227.211
55.68000 257.524
55.72000 273.654
55.76000 310.287
55.80000 369.957
55.84000 406.661
55.88000 434.008
55.92000 460.165
55.96000 460.642
56.00000 468.016
56.04000 448.789
56.08000 432.387
56.12000 401.926
56.16000 362.651
56.20000 322.651
56.24000 303.374
56.28000 282.116
56.32000 243.319
56.36000 239.310
56.40000 208.902
56.44000 202.761
56.48000 175.309
56.52000 175.572
56.56000 156.005
56.60000 161.057
56.64000 158.531
56.68000 149.975
56.72000 156.418
56.76000 152.051
56.80000 144.916
56.84000 154.115
56.88000 156.106
56.92000 150.496
56.96000 147.937
57.00000 146.622
57.04000 144.483
57.08000 141.975
57.12000 139.962
57.16000 141.484
57.20000 138.453
57.24000 141.260
57.28000 131.148
57.32000 141.392
57.36000 135.177
57.40000 141.060
57.44000 140.338
57.48000 138.053
57.52000 142.023
57.56000 153.300
57.60000 136.024
57.64000 142.373
57.68000 140.819
57.72000 133.355
57.76000 137.748
57.80000 145.233
57.84000 142.845
57.88000 138.320
57.92000 131.532
57.96000 135.990
58.00000 141.605
58.04000 144.243
58.08000 144.700
58.12000 141.811
58.16000 137.466
58.20000 146.370
58.24000 116.604
58.28000 135.753
58.32000 138.848
58.36000 132.623
58.40000 128.619
58.44000 138.980
58.48000 144.744
58.52000 148.570
58.56000 137.886
58.60000 132.950
58.64000 134.801
58.68000 143.607
58.72000 131.750
58.76000 135.265
58.80000 128.471
58.84000 137.822
58.88000 141.977
58.92000 120.190
58.96000 132.225
59.00000 133.923
59.04000 130.181
59.08000 130.587
59.12000 134.751
59.16000 128.121
59.20000 138.693
59.24000 129.863
59.28000 123.584
59.32000 134.532
59.36000 133.619
59.40000 124.409
59.44000 127.575
59.48000 133.997
59.52000 133.142
59.56000 143.337
59.60000 129.919
59.64000 132.166
59.68000 133.564
59.72000 134.518
59.76000 131.174
59.80000 120.258
59.84000 129.758
59.88000 137.066
59.92000 122.797
59.96000 130.673
60.00000 133.183
60.04000 134.333
60.08000 115.637
60.12000 135.337
60.16000 118.495
60.20000 131.964
60.24000 123.990
60.28000 122.572
60.32000 126.511
60.36000 130.019
60.40000 138.141
60.44000 128.711
60.48000 135.257
60.52000 124.386
60.56000 134.373
60.60000 139.464
60.64000 128.806
60.68000 126.522
60.72000 123.457
60.76000 139.982
60.80000 135.353
60.84000 132.037
60.88000 131.383
60.92000 128.718
60.96000 129.636
61.00000 133.944
61.04000 133.977
61.08000 132.469
61.12000 125.971
61.16000 138.783
61.20000 136.695
61.24000 136.504
61.28000 128.900
61.32000 131.160
61.36000 133.248
61.40000 137.984
61.44000 142.896
61.48000 147.465
61.52000 165.599
61.56000 194.545
61.60000 222.702
61.64000 248.474
61.68000 266.786
61.72000 263.447
61.76000 248.476
61.80000 208.072
61.84000 173.195
61.88000 144.994
61.92000 152.560
61.96000 136.277
62.00000 145.308
62.04000 129.884
62.08000 138.813
62.12000 142.335
62.16000 142.831
62.20000 133.412
62.24000 126.251
62.28000 143.507
62.32000 139.641
62.36000 138.674
62.40000 138.860
62.44000 146.254
62.48000 145.741
62.52000 142.368
62.56000 142.502
62.60000 145.647
62.64000 143.351
62.68000 144.897
62.72000 144.538
62.76000 129.623
62.80000 147.859
62.84000 140.992
62.88000 138.296
62.92000 137.724
62.96000 139.363
63.00000 155.942
63.04000 141.260
63.08000 147.705
63.12000 137.870
63.16000 141.498
63.20000 144.416
63.24000 144.535
63.28000 141.871
63.32000 132.862
63.36000 148.454
63.40000 148.142
63.44000 154.324
63.48000 148.918
63.52000 142.225
63.56000 145.044
63.60000 147.798
63.64000 156.630
63.68000 142.811
63.72000 150.735
63.76000 149.999
63.80000 149.565
63.84000 158.477
63.88000 157.620
63.92000 163.094
63.96000 163.240
64.00000 155.102
64.04000 160.837
64.08000 151.052
64.12000 148.727
64.16000 152.200
64.20000 156.427
64.24000 150.878
64.28000 145.320
64.32000 155.278
64.36000 165.519
64.40000 156.810
64.44000 168.462
64.48000 172.566
64.52000 162.603
64.56000 152.223
64.60000 161.434
64.64000 174.266
64.68000 171.037
64.72000 160.179
64.76000 174.608
64.80000 170.889
64.84000 177.665
64.88000 182.101
64.92000 195.580
64.96000 185.232
65.00000 189.154
65.04000 182.380
65.08000 200.123
65.12000 189.385
65.16000 197.597
65.20000 227.386
65.24000 221.625
65.28000 211.341
65.32000 216.938
65.36000 223.882
65.40000 244.322
65.44000 250.205
65.48000 266.384
65.52000 258.698
65.56000 287.438
65.60000 294.307
65.64000 324.671
65.68000 375.575
65.72000 538.844
65.76000 732.696
65.80000 932.424
65.84000 1060.738
65.88000 1052.692
65.92000 1037.975
65.96000 888.956
66.00000 643.457
66.04000 458.220
66.08000 354.608
66.12000 321.773
66.16000 305.314
66.20000 299.349
66.24000 322.042
66.28000 334.083
66.32000 389.547
66.36000 424.029
66.40000 456.532
66.44000 458.936
66.48000 446.907
66.52000 426.898
66.56000 377.310
66.60000 335.888
66.64000 310.938
66.68000 325.265
66.72000 341.961
66.76000 321.106
66.80000 332.114
66.84000 325.726
66.88000 322.883
66.92000 355.231
66.96000 343.513
67.00000 339.712
67.04000 335.776
67.08000 358.133
67.12000 356.187
67.16000 374.860
67.20000 371.711
67.24000 366.363
67.28000 402.026
67.32000 404.890
67.36000 395.981
67.40000 401.320
67.44000 410.431
67.48000 423.127
67.52000 421.912
67.56000 430.505
67.60000 435.599
67.64000 458.021
67.68000 445.389
67.72000 467.437
67.76000 480.332
67.80000 482.329
67.84000 498.107
67.88000 495.647
67.92000 518.945
67.96000 516.162
68.00000 519.891
68.04000 518.079
68.08000 550.962
68.12000 555.133
68.16000 559.456
68.20000 622.427
68.24000 614.652
68.28000 617.695
68.32000 651.143
68.36000 667.296
68.40000 672.274
68.44000 690.575
68.48000 741.868
68.52000 828.872
68.56000 839.685
68.60000 938.277
68.64000 1098.180
68.68000 1297.142
68.72000 1549.299
68.76000 1730.011
68.80000 1952.205
68.84000 2262.834
68.88000 2829.380
68.92000 4503.634
68.96000 11513.690
69.00000 26598.432
69.04000 43047.148
69.08000 51882.145
69.12000 53693.035
69.16000 55718.191
69.20000 56619.160
69.24000 47330.840
69.28000 35821.996
69.32000 29245.586
69.36000 26496.186
69.40000 22051.719
69.44000 13754.186
69.48000 6429.236
69.52000 2981.785
69.56000 1877.172
69.60000 1495.926
69.64000 1264.478
69.68000 1096.835
69.72000 987.005
69.76000 911.780
69.80000 849.080
69.84000 765.739
69.88000 754.443
69.92000 705.612
69.96000 677.567
70.00000 652.982