File: XRD/25-09-2025/XY Data/BTO_Mapping_Theta2Theta_25-09-2025_001_36_-29-344_-6-237.xy
20.00000 577.263
20.04000 551.580
20.08000 558.798
20.12000 567.593
20.16000 565.721
20.20000 562.125
20.24000 565.040
20.28000 551.660
20.32000 553.225
20.36000 551.581
20.40000 566.312
20.44000 532.608
20.48000 543.864
20.52000 547.771
20.56000 549.143
20.60000 524.718
20.64000 562.698
20.68000 559.325
20.72000 547.507
20.76000 541.091
20.80000 551.673
20.84000 539.175
20.88000 537.926
20.92000 553.374
20.96000 550.110
21.00000 542.839
21.04000 563.781
21.08000 546.158
21.12000 548.054
21.16000 529.946
21.20000 551.449
21.24000 566.589
21.28000 554.531
21.32000 570.297
21.36000 569.893
21.40000 557.518
21.44000 559.495
21.48000 551.010
21.52000 555.160
21.56000 553.028
21.60000 559.140
21.64000 575.390
21.68000 601.077
21.72000 615.784
21.76000 655.969
21.80000 684.675
21.84000 724.912
21.88000 802.410
21.92000 848.319
21.96000 871.136
22.00000 895.645
22.04000 864.274
22.08000 850.776
22.12000 822.208
22.16000 772.127
22.20000 714.436
22.24000 686.268
22.28000 630.556
22.32000 621.128
22.36000 616.796
22.40000 596.471
22.44000 573.715
22.48000 568.988
22.52000 563.611
22.56000 532.454
22.60000 538.872
22.64000 524.368
22.68000 555.408
22.72000 521.557
22.76000 511.730
22.80000 519.715
22.84000 505.047
22.88000 496.264
22.92000 515.667
22.96000 521.391
23.00000 499.112
23.04000 512.817
23.08000 508.639
23.12000 485.980
23.16000 513.075
23.20000 495.575
23.24000 505.077
23.28000 510.135
23.32000 515.381
23.36000 484.213
23.40000 510.155
23.44000 501.947
23.48000 478.365
23.52000 492.130
23.56000 505.433
23.60000 509.178
23.64000 502.003
23.68000 489.261
23.72000 491.577
23.76000 496.897
23.80000 489.766
23.84000 505.886
23.88000 499.112
23.92000 495.063
23.96000 477.150
24.00000 504.456
24.04000 475.318
24.08000 495.045
24.12000 499.418
24.16000 482.156
24.20000 477.875
24.24000 471.443
24.28000 484.636
24.32000 486.890
24.36000 501.803
24.40000 480.929
24.44000 488.654
24.48000 470.916
24.52000 457.121
24.56000 497.142
24.60000 485.448
24.64000 481.690
24.68000 468.097
24.72000 467.690
24.76000 466.576
24.80000 463.352
24.84000 462.970
24.88000 479.252
24.92000 454.095
24.96000 480.300
25.00000 488.309
25.04000 472.072
25.08000 462.699
25.12000 462.368
25.16000 460.400
25.20000 467.488
25.24000 462.037
25.28000 486.296
25.32000 456.140
25.36000 462.114
25.40000 470.147
25.44000 466.355
25.48000 477.828
25.52000 464.911
25.56000 460.180
25.60000 481.733
25.64000 462.869
25.68000 466.530
25.72000 452.944
25.76000 469.391
25.80000 451.566
25.84000 456.423
25.88000 472.560
25.92000 466.103
25.96000 448.554
26.00000 441.389
26.04000 476.717
26.08000 456.251
26.12000 441.254
26.16000 455.639
26.20000 451.205
26.24000 461.969
26.28000 459.094
26.32000 453.338
26.36000 438.803
26.40000 451.571
26.44000 452.022
26.48000 465.639
26.52000 452.017
26.56000 446.000
26.60000 443.848
26.64000 454.178
26.68000 445.716
26.72000 452.458
26.76000 434.322
26.80000 428.416
26.84000 434.249
26.88000 445.722
26.92000 442.057
26.96000 435.445
27.00000 431.415
27.04000 430.798
27.08000 431.827
27.12000 426.151
27.16000 430.993
27.20000 451.853
27.24000 443.203
27.28000 425.738
27.32000 431.570
27.36000 452.599
27.40000 424.980
27.44000 424.696
27.48000 449.477
27.52000 426.445
27.56000 425.344
27.60000 433.427
27.64000 432.374
27.68000 435.010
27.72000 424.281
27.76000 425.574
27.80000 420.161
27.84000 426.284
27.88000 420.683
27.92000 438.313
27.96000 420.063
28.00000 437.064
28.04000 422.909
28.08000 435.967
28.12000 426.016
28.16000 435.143
28.20000 426.305
28.24000 425.604
28.28000 422.157
28.32000 425.747
28.36000 428.924
28.40000 429.853
28.44000 419.492
28.48000 420.859
28.52000 426.565
28.56000 420.498
28.60000 412.793
28.64000 407.518
28.68000 407.683
28.72000 418.954
28.76000 421.962
28.80000 409.955
28.84000 408.418
28.88000 421.928
28.92000 395.810
28.96000 415.268
29.00000 428.377
29.04000 418.950
29.08000 416.324
29.12000 412.178
29.16000 396.143
29.20000 400.754
29.24000 412.263
29.28000 421.168
29.32000 399.995
29.36000 419.368
29.40000 394.074
29.44000 409.707
29.48000 413.855
29.52000 405.585
29.56000 404.201
29.60000 403.324
29.64000 402.308
29.68000 412.983
29.72000 419.177
29.76000 427.646
29.80000 427.713
29.84000 407.274
29.88000 431.877
29.92000 418.498
29.96000 436.949
30.00000 438.051
30.04000 431.530
30.08000 426.642
30.12000 446.125
30.16000 408.297
30.20000 421.286
30.24000 436.570
30.28000 420.813
30.32000 420.708
30.36000 427.082
30.40000 416.539
30.44000 430.595
30.48000 424.224
30.52000 417.543
30.56000 407.451
30.60000 425.088
30.64000 439.257
30.68000 450.720
30.72000 451.096
30.76000 440.019
30.80000 450.651
30.84000 470.826
30.88000 486.614
30.92000 527.385
30.96000 574.075
31.00000 649.096
31.04000 798.258
31.08000 986.618
31.12000 1212.108
31.16000 1506.991
31.20000 1808.739
31.24000 2198.374
31.28000 2522.870
31.32000 2698.130
31.36000 2759.781
31.40000 2664.629
31.44000 2439.881
31.48000 2118.691
31.52000 1832.667
31.56000 1476.661
31.60000 1243.288
31.64000 1013.298
31.68000 882.115
31.72000 767.566
31.76000 674.913
31.80000 578.587
31.84000 517.370
31.88000 486.340
31.92000 480.930
31.96000 462.440
32.00000 443.930
32.04000 418.615
32.08000 412.482
32.12000 405.823
32.16000 399.914
32.20000 392.978
32.24000 395.434
32.28000 403.864
32.32000 377.776
32.36000 392.770
32.40000 383.576
32.44000 376.404
32.48000 388.996
32.52000 372.934
32.56000 374.763
32.60000 391.092
32.64000 402.018
32.68000 388.180
32.72000 376.452
32.76000 391.255
32.80000 395.650
32.84000 397.414
32.88000 411.001
32.92000 394.711
32.96000 408.951
33.00000 396.940
33.04000 375.839
33.08000 372.384
33.12000 352.608
33.16000 356.318
33.20000 339.588
33.24000 341.398
33.28000 336.905
33.32000 357.371
33.36000 347.169
33.40000 348.375
33.44000 328.333
33.48000 339.845
33.52000 352.545
33.56000 346.657
33.60000 339.582
33.64000 341.580
33.68000 332.251
33.72000 351.777
33.76000 349.034
33.80000 322.902
33.84000 328.821
33.88000 331.471
33.92000 334.034
33.96000 330.535
34.00000 343.547
34.04000 326.560
34.08000 329.657
34.12000 316.004
34.16000 314.711
34.20000 329.997
34.24000 314.476
34.28000 320.744
34.32000 311.283
34.36000 329.186
34.40000 320.404
34.44000 331.633
34.48000 331.332
34.52000 328.394
34.56000 310.709
34.60000 316.375
34.64000 316.472
34.68000 337.280
34.72000 305.480
34.76000 317.006
34.80000 329.498
34.84000 338.261
34.88000 316.148
34.92000 289.943
34.96000 319.544
35.00000 299.612
35.04000 303.362
35.08000 307.288
35.12000 317.348
35.16000 315.100
35.20000 315.752
35.24000 312.743
35.28000 319.029
35.32000 305.660
35.36000 316.374
35.40000 306.402
35.44000 293.542
35.48000 301.727
35.52000 304.765
35.56000 315.816
35.60000 302.079
35.64000 323.183
35.68000 308.466
35.72000 310.495
35.76000 296.677
35.80000 306.490
35.84000 310.181
35.88000 297.762
35.92000 316.723
35.96000 301.299
36.00000 299.224
36.04000 290.712
36.08000 305.398
36.12000 303.564
36.16000 292.582
36.20000 303.273
36.24000 290.369
36.28000 300.459
36.32000 291.315
36.36000 285.859
36.40000 298.346
36.44000 293.702
36.48000 301.027
36.52000 298.346
36.56000 304.847
36.60000 299.224
36.64000 298.164
36.68000 310.352
36.72000 277.730
36.76000 300.498
36.80000 298.557
36.84000 296.620
36.88000 296.126
36.92000 286.201
36.96000 299.265
37.00000 286.047
37.04000 303.115
37.08000 295.522
37.12000 291.924
37.16000 293.406
37.20000 290.137
37.24000 297.674
37.28000 291.038
37.32000 272.643
37.36000 274.884
37.40000 284.229
37.44000 287.059
37.48000 289.373
37.52000 277.418
37.56000 292.363
37.60000 281.336
37.64000 295.759
37.68000 287.734
37.72000 287.931
37.76000 283.871
37.80000 297.513
37.84000 283.710
37.88000 290.746
37.92000 276.630
37.96000 303.794
38.00000 286.115
38.04000 271.641
38.08000 287.845
38.12000 305.071
38.16000 288.251
38.20000 287.738
38.24000 296.991
38.28000 307.501
38.32000 316.764
38.36000 333.668
38.40000 371.592
38.44000 377.038
38.48000 422.909
38.52000 452.463
38.56000 457.552
38.60000 494.580
38.64000 497.884
38.68000 504.817
38.72000 501.780
38.76000 480.565
38.80000 448.012
38.84000 417.294
38.88000 369.099
38.92000 354.494
38.96000 320.830
39.00000 305.254
39.04000 299.335
39.08000 291.011
39.12000 281.632
39.16000 279.636
39.20000 271.423
39.24000 277.786
39.28000 275.983
39.32000 277.549
39.36000 263.198
39.40000 265.888
39.44000 256.120
39.48000 267.765
39.52000 273.727
39.56000 266.920
39.60000 273.653
39.64000 261.892
39.68000 276.818
39.72000 264.402
39.76000 269.299
39.80000 259.218
39.84000 254.275
39.88000 266.630
39.92000 262.717
39.96000 255.149
40.00000 258.897
40.04000 266.505
40.08000 265.133
40.12000 262.254
40.16000 260.718
40.20000 265.566
40.24000 254.125
40.28000 257.954
40.32000 277.439
40.36000 265.467
40.40000 254.237
40.44000 247.242
40.48000 268.226
40.52000 247.137
40.56000 247.835
40.60000 249.809
40.64000 251.749
40.68000 250.592
40.72000 263.281
40.76000 244.616
40.80000 251.980
40.84000 236.220
40.88000 245.808
40.92000 252.723
40.96000 247.022
41.00000 244.358
41.04000 238.343
41.08000 239.583
41.12000 253.801
41.16000 250.598
41.20000 241.344
41.24000 249.088
41.28000 242.717
41.32000 246.057
41.36000 248.839
41.40000 239.780
41.44000 235.136
41.48000 230.078
41.52000 233.851
41.56000 233.677
41.60000 240.082
41.64000 244.200
41.68000 241.485
41.72000 233.929
41.76000 236.763
41.80000 233.860
41.84000 234.799
41.88000 234.605
41.92000 242.422
41.96000 232.946
42.00000 234.010
42.04000 230.893
42.08000 230.252
42.12000 224.047
42.16000 247.735
42.20000 225.531
42.24000 233.657
42.28000 227.515
42.32000 227.819
42.36000 226.855
42.40000 234.175
42.44000 228.250
42.48000 232.043
42.52000 232.732
42.56000 230.735
42.60000 222.512
42.64000 227.404
42.68000 238.533
42.72000 228.590
42.76000 212.984
42.80000 248.973
42.84000 228.712
42.88000 231.633
42.92000 229.435
42.96000 237.111
43.00000 230.684
43.04000 237.967
43.08000 233.378
43.12000 226.584
43.16000 237.141
43.20000 235.535
43.24000 216.886
43.28000 224.322
43.32000 229.023
43.36000 226.201
43.40000 234.217
43.44000 225.556
43.48000 224.115
43.52000 222.712
43.56000 218.075
43.60000 201.894
43.64000 229.521
43.68000 221.560
43.72000 227.527
43.76000 214.076
43.80000 215.401
43.84000 223.026
43.88000 228.115
43.92000 228.727
43.96000 216.527
44.00000 213.719
44.04000 221.079
44.08000 224.217
44.12000 217.109
44.16000 218.458
44.20000 225.901
44.24000 227.835
44.28000 232.596
44.32000 231.094
44.36000 233.761
44.40000 246.113
44.44000 251.118
44.48000 271.611
44.52000 270.768
44.56000 258.851
44.60000 272.315
44.64000 313.644
44.68000 333.805
44.72000 370.435
44.76000 380.630
44.80000 408.634
44.84000 448.458
44.88000 446.141
44.92000 457.368
44.96000 455.417
45.00000 448.940
45.04000 447.880
45.08000 421.563
45.12000 402.498
45.16000 408.615
45.20000 363.788
45.24000 354.798
45.28000 350.546
45.32000 340.938
45.36000 311.240
45.40000 297.275
45.44000 290.565
45.48000 287.307
45.52000 263.050
45.56000 259.453
45.60000 269.295
45.64000 243.319
45.68000 237.081
45.72000 241.309
45.76000 224.289
45.80000 225.941
45.84000 234.322
45.88000 236.113
45.92000 225.404
45.96000 226.787
46.00000 211.699
46.04000 201.708
46.08000 218.837
46.12000 228.331
46.16000 207.626
46.20000 215.728
46.24000 206.393
46.28000 195.896
46.32000 210.661
46.36000 201.146
46.40000 204.159
46.44000 196.335
46.48000 206.005
46.52000 204.134
46.56000 188.251
46.60000 206.057
46.64000 198.665
46.68000 199.548
46.72000 189.122
46.76000 204.327
46.80000 193.413
46.84000 206.890
46.88000 193.751
46.92000 180.617
46.96000 196.634
47.00000 185.073
47.04000 196.432
47.08000 192.599
47.12000 186.688
47.16000 184.997
47.20000 186.177
47.24000 195.333
47.28000 190.531
47.32000 198.326
47.36000 194.687
47.40000 187.985
47.44000 190.335
47.48000 189.040
47.52000 182.062
47.56000 190.303
47.60000 187.936
47.64000 194.074
47.68000 199.987
47.72000 184.359
47.76000 189.660
47.80000 190.280
47.84000 190.010
47.88000 187.484
47.92000 183.426
47.96000 177.104
48.00000 178.071
48.04000 195.992
48.08000 177.228
48.12000 189.209
48.16000 173.990
48.20000 181.775
48.24000 187.794
48.28000 182.662
48.32000 176.668
48.36000 178.560
48.40000 179.341
48.44000 181.604
48.48000 181.910
48.52000 188.175
48.56000 183.488
48.60000 181.324
48.64000 185.227
48.68000 178.111
48.72000 188.821
48.76000 184.528
48.80000 176.406
48.84000 186.973
48.88000 176.507
48.92000 193.205
48.96000 180.250
49.00000 171.678
49.04000 171.832
49.08000 177.015
49.12000 176.082
49.16000 176.291
49.20000 174.434
49.24000 183.961
49.28000 177.085
49.32000 175.771
49.36000 175.929
49.40000 181.518
49.44000 178.215
49.48000 177.141
49.52000 173.618
49.56000 184.860
49.60000 184.374
49.64000 171.225
49.68000 174.754
49.72000 187.369
49.76000 182.527
49.80000 175.067
49.84000 169.420
49.88000 171.873
49.92000 179.657
49.96000 177.596
50.00000 176.969
50.04000 182.795
50.08000 183.017
50.12000 171.766
50.16000 197.854
50.20000 184.118
50.24000 185.934
50.28000 196.113
50.32000 197.047
50.36000 202.137
50.40000 209.857
50.44000 221.583
50.48000 227.330
50.52000 229.634
50.56000 238.600
50.60000 235.647
50.64000 220.360
50.68000 240.051
50.72000 231.434
50.76000 222.668
50.80000 234.404
50.84000 211.053
50.88000 200.972
50.92000 211.128
50.96000 201.715
51.00000 191.128
51.04000 192.037
51.08000 190.158
51.12000 183.251
51.16000 188.335
51.20000 185.827
51.24000 179.083
51.28000 176.241
51.32000 186.924
51.36000 172.726
51.40000 186.535
51.44000 172.346
51.48000 169.250
51.52000 166.037
51.56000 169.894
51.60000 161.582
51.64000 159.145
51.68000 151.272
51.72000 160.660
51.76000 155.338
51.80000 167.267
51.84000 153.586
51.88000 167.310
51.92000 167.066
51.96000 150.343
52.00000 152.324
52.04000 165.923
52.08000 165.385
52.12000 168.968
52.16000 161.382
52.20000 164.814
52.24000 163.298
52.28000 147.959
52.32000 151.012
52.36000 158.188
52.40000 156.501
52.44000 166.245
52.48000 158.114
52.52000 166.151
52.56000 154.660
52.60000 155.351
52.64000 160.051
52.68000 152.896
52.72000 154.448
52.76000 164.540
52.80000 161.437
52.84000 149.029
52.88000 154.014
52.92000 159.592
52.96000 158.455
53.00000 150.140
53.04000 149.151
53.08000 153.492
53.12000 156.519
53.16000 153.245
53.20000 153.564
53.24000 167.423
53.28000 162.353
53.32000 161.087
53.36000 154.008
53.40000 155.934
53.44000 155.716
53.48000 161.693
53.52000 159.214
53.56000 160.341
53.60000 152.353
53.64000 156.922
53.68000 157.900
53.72000 152.812
53.76000 148.100
53.80000 152.703
53.84000 152.711
53.88000 156.033
53.92000 146.778
53.96000 147.195
54.00000 158.040
54.04000 159.693
54.08000 148.215
54.12000 151.753
54.16000 150.392
54.20000 154.475
54.24000 154.381
54.28000 146.377
54.32000 153.871
54.36000 150.291
54.40000 148.318
54.44000 151.424
54.48000 154.586
54.52000 154.256
54.56000 158.463
54.60000 166.023
54.64000 155.801
54.68000 149.470
54.72000 157.958
54.76000 157.003
54.80000 148.651
54.84000 161.060
54.88000 151.587
54.92000 150.949
54.96000 155.110
55.00000 152.482
55.04000 154.497
55.08000 160.745
55.12000 148.726
55.16000 163.979
55.20000 154.759
55.24000 168.745
55.28000 164.701
55.32000 175.440
55.36000 176.778
55.40000 183.413
55.44000 186.735
55.48000 207.687
55.52000 224.334
55.56000 256.234
55.60000 277.314
55.64000 287.323
55.68000 327.681
55.72000 339.669
55.76000 382.609
55.80000 389.592
55.84000 390.961
55.88000 386.877
55.92000 403.214
55.96000 389.162
56.00000 369.684
56.04000 342.419
56.08000 315.586
56.12000 309.330
56.16000 268.619
56.20000 255.254
56.24000 245.731
56.28000 230.143
56.32000 220.415
56.36000 198.450
56.40000 197.030
56.44000 188.685
56.48000 186.801
56.52000 184.937
56.56000 164.317
56.60000 155.897
56.64000 160.460
56.68000 152.019
56.72000 154.813
56.76000 151.861
56.80000 154.945
56.84000 149.662
56.88000 151.451
56.92000 137.194
56.96000 149.895
57.00000 148.276
57.04000 147.093
57.08000 141.094
57.12000 148.245
57.16000 138.492
57.20000 147.059
57.24000 146.900
57.28000 142.761
57.32000 136.281
57.36000 137.185
57.40000 151.463
57.44000 136.310
57.48000 144.133
57.52000 144.663
57.56000 137.368
57.60000 134.213
57.64000 136.875
57.68000 148.936
57.72000 144.854
57.76000 136.925
57.80000 130.649
57.84000 132.152
57.88000 140.159
57.92000 142.208
57.96000 142.850
58.00000 135.763
58.04000 138.267
58.08000 146.744
58.12000 148.120
58.16000 145.000
58.20000 143.686
58.24000 136.394
58.28000 139.582
58.32000 150.394
58.36000 142.714
58.40000 133.425
58.44000 131.224
58.48000 136.197
58.52000 127.147
58.56000 135.005
58.60000 128.014
58.64000 136.314
58.68000 143.870
58.72000 139.296
58.76000 147.963
58.80000 135.966
58.84000 133.972
58.88000 144.484
58.92000 139.065
58.96000 135.499
59.00000 134.867
59.04000 124.958
59.08000 120.513
59.12000 137.381
59.16000 131.611
59.20000 134.890
59.24000 128.870
59.28000 135.559
59.32000 124.083
59.36000 125.807
59.40000 138.005
59.44000 128.505
59.48000 138.739
59.52000 127.437
59.56000 131.677
59.60000 140.500
59.64000 129.683
59.68000 147.380
59.72000 137.368
59.76000 128.114
59.80000 133.256
59.84000 132.904
59.88000 138.025
59.92000 127.311
59.96000 134.561
60.00000 151.041
60.04000 143.494
60.08000 149.643
60.12000 159.718
60.16000 136.008
60.20000 140.212
60.24000 127.969
60.28000 129.408
60.32000 133.192
60.36000 138.466
60.40000 132.428
60.44000 124.815
60.48000 131.083
60.52000 130.673
60.56000 136.927
60.60000 138.274
60.64000 136.095
60.68000 129.931
60.72000 134.607
60.76000 130.908
60.80000 127.254
60.84000 131.567
60.88000 127.277
60.92000 138.854
60.96000 135.029
61.00000 131.008
61.04000 130.453
61.08000 135.861
61.12000 133.499
61.16000 129.544
61.20000 129.924
61.24000 141.777
61.28000 135.627
61.32000 142.910
61.36000 133.552
61.40000 139.287
61.44000 142.584
61.48000 152.731
61.52000 186.942
61.56000 240.223
61.60000 294.025
61.64000 353.248
61.68000 363.898
61.72000 378.832
61.76000 327.161
61.80000 275.272
61.84000 205.888
61.88000 168.307
61.92000 158.797
61.96000 144.099
62.00000 137.940
62.04000 143.903
62.08000 142.984
62.12000 143.301
62.16000 140.176
62.20000 140.959
62.24000 144.241
62.28000 158.588
62.32000 144.562
62.36000 146.928
62.40000 145.303
62.44000 145.206
62.48000 142.479
62.52000 147.246
62.56000 149.626
62.60000 147.080
62.64000 145.735
62.68000 144.251
62.72000 147.466
62.76000 152.342
62.80000 137.020
62.84000 151.608
62.88000 145.845
62.92000 151.400
62.96000 158.866
63.00000 155.574
63.04000 149.237
63.08000 163.428
63.12000 151.852
63.16000 146.323
63.20000 151.043
63.24000 151.582
63.28000 148.895
63.32000 143.789
63.36000 151.375
63.40000 158.351
63.44000 149.687
63.48000 152.091
63.52000 152.648
63.56000 146.060
63.60000 160.607
63.64000 158.612
63.68000 160.673
63.72000 152.072
63.76000 163.361
63.80000 160.658
63.84000 152.762
63.88000 160.072
63.92000 164.316
63.96000 168.927
64.00000 161.614
64.04000 162.215
64.08000 169.555
64.12000 152.986
64.16000 170.867
64.20000 158.507
64.24000 157.197
64.28000 175.439
64.32000 174.364
64.36000 170.641
64.40000 171.685
64.44000 173.027
64.48000 173.498
64.52000 170.638
64.56000 177.192
64.60000 185.410
64.64000 182.360
64.68000 187.073
64.72000 183.727
64.76000 185.021
64.80000 194.447
64.84000 198.636
64.88000 203.330
64.92000 204.791
64.96000 219.624
65.00000 213.529
65.04000 215.323
65.08000 241.425
65.12000 248.239
65.16000 265.983
65.20000 271.613
65.24000 286.965
65.28000 292.551
65.32000 314.914
65.36000 317.049
65.40000 330.093
65.44000 360.893
65.48000 356.622
65.52000 361.898
65.56000 386.646
65.60000 404.948
65.64000 445.986
65.68000 586.349
65.72000 830.637
65.76000 1185.400
65.80000 1479.314
65.84000 1596.936
65.88000 1637.518
65.92000 1580.911
65.96000 1276.238
66.00000 885.401
66.04000 609.890
66.08000 453.434
66.12000 390.228
66.16000 372.292
66.20000 383.924
66.24000 399.429
66.28000 443.994
66.32000 525.139
66.36000 564.631
66.40000 608.074
66.44000 598.589
66.48000 582.924
66.52000 530.454
66.56000 459.314
66.60000 422.026
66.64000 372.699
66.68000 381.785
66.72000 387.845
66.76000 397.891
66.80000 378.045
66.84000 389.469
66.88000 392.055
66.92000 379.521
66.96000 400.268
67.00000 406.156
67.04000 417.325
67.08000 416.475
67.12000 429.943
67.16000 411.591
67.20000 435.095
67.24000 470.364
67.28000 455.117
67.32000 463.929
67.36000 468.371
67.40000 475.772
67.44000 505.128
67.48000 505.141
67.52000 506.548
67.56000 531.671
67.60000 532.437
67.64000 534.388
67.68000 554.263
67.72000 554.733
67.76000 546.106
67.80000 583.791
67.84000 584.171
67.88000 601.396
67.92000 621.724
67.96000 627.895
68.00000 648.835
68.04000 653.843
68.08000 665.061
68.12000 680.464
68.16000 685.841
68.20000 724.777
68.24000 742.434
68.28000 745.949
68.32000 801.841
68.36000 838.207
68.40000 866.090
68.44000 921.454
68.48000 984.927
68.52000 1016.254
68.56000 1111.189
68.60000 1247.345
68.64000 1529.272
68.68000 1870.629
68.72000 2159.704
68.76000 2488.615
68.80000 2912.991
68.84000 3512.036
68.88000 4693.032
68.92000 8767.110
68.96000 22000.660
69.00000 47524.195
69.04000 73051.961
69.08000 85270.313
69.12000 87865.547
69.16000 91586.344
69.20000 89195.594
69.24000 74183.609
69.28000 57086.141
69.32000 46941.680
69.36000 41826.914
69.40000 33381.824
69.44000 20192.936
69.48000 9398.197
69.52000 4091.369
69.56000 2531.352
69.60000 1937.051
69.64000 1592.164
69.68000 1425.747
69.72000 1264.495
69.76000 1161.725
69.80000 1062.662
69.84000 996.804
69.88000 913.325
69.92000 857.243
69.96000 820.641
70.00000 779.654