File: XRD/25-09-2025/XY Data/BTO_Mapping_Theta2Theta_25-09-2025_001_33_-39-126_8-316.xy
20.00000 570.853
20.04000 565.824
20.08000 564.516
20.12000 566.584
20.16000 565.871
20.20000 553.343
20.24000 546.759
20.28000 557.030
20.32000 561.840
20.36000 577.654
20.40000 550.969
20.44000 560.036
20.48000 553.406
20.52000 565.698
20.56000 532.194
20.60000 567.967
20.64000 550.295
20.68000 553.079
20.72000 558.155
20.76000 562.859
20.80000 551.778
20.84000 544.770
20.88000 558.600
20.92000 546.309
20.96000 570.356
21.00000 549.940
21.04000 572.310
21.08000 556.780
21.12000 574.401
21.16000 523.749
21.20000 551.741
21.24000 540.370
21.28000 546.401
21.32000 548.141
21.36000 544.760
21.40000 544.342
21.44000 535.660
21.48000 555.376
21.52000 529.364
21.56000 540.078
21.60000 547.446
21.64000 602.220
21.68000 602.787
21.72000 628.115
21.76000 654.504
21.80000 693.921
21.84000 747.965
21.88000 797.734
21.92000 863.517
21.96000 870.096
22.00000 926.351
22.04000 911.734
22.08000 857.224
22.12000 826.001
22.16000 775.098
22.20000 722.752
22.24000 683.512
22.28000 678.344
22.32000 630.304
22.36000 606.347
22.40000 593.696
22.44000 587.728
22.48000 548.037
22.52000 564.876
22.56000 543.691
22.60000 528.816
22.64000 512.215
22.68000 503.822
22.72000 542.329
22.76000 524.169
22.80000 543.256
22.84000 520.342
22.88000 503.319
22.92000 509.424
22.96000 510.186
23.00000 534.451
23.04000 505.354
23.08000 507.296
23.12000 526.440
23.16000 515.958
23.20000 502.082
23.24000 506.914
23.28000 519.164
23.32000 512.684
23.36000 515.118
23.40000 494.812
23.44000 503.502
23.48000 496.783
23.52000 513.194
23.56000 505.738
23.60000 509.950
23.64000 517.005
23.68000 501.384
23.72000 475.074
23.76000 487.087
23.80000 491.062
23.84000 495.429
23.88000 503.176
23.92000 492.721
23.96000 491.161
24.00000 480.269
24.04000 496.815
24.08000 487.499
24.12000 472.595
24.16000 478.967
24.20000 492.810
24.24000 499.369
24.28000 488.523
24.32000 477.390
24.36000 484.661
24.40000 495.718
24.44000 470.374
24.48000 479.177
24.52000 474.085
24.56000 484.397
24.60000 475.021
24.64000 501.047
24.68000 473.845
24.72000 480.472
24.76000 484.122
24.80000 482.111
24.84000 480.061
24.88000 481.408
24.92000 490.897
24.96000 476.986
25.00000 484.484
25.04000 458.411
25.08000 468.373
25.12000 461.504
25.16000 459.416
25.20000 448.927
25.24000 461.120
25.28000 474.009
25.32000 469.556
25.36000 453.170
25.40000 443.602
25.44000 469.763
25.48000 470.057
25.52000 472.377
25.56000 477.649
25.60000 465.852
25.64000 441.444
25.68000 437.440
25.72000 453.060
25.76000 466.352
25.80000 457.335
25.84000 454.760
25.88000 447.761
25.92000 477.178
25.96000 455.267
26.00000 449.365
26.04000 445.654
26.08000 451.785
26.12000 470.883
26.16000 459.463
26.20000 453.513
26.24000 456.484
26.28000 440.928
26.32000 473.342
26.36000 437.487
26.40000 461.905
26.44000 465.088
26.48000 452.004
26.52000 448.625
26.56000 471.260
26.60000 451.060
26.64000 454.351
26.68000 445.006
26.72000 436.315
26.76000 455.896
26.80000 442.920
26.84000 466.541
26.88000 447.584
26.92000 424.266
26.96000 454.155
27.00000 437.299
27.04000 421.286
27.08000 427.827
27.12000 422.406
27.16000 455.704
27.20000 428.111
27.24000 437.449
27.28000 446.750
27.32000 438.553
27.36000 434.215
27.40000 425.780
27.44000 416.733
27.48000 453.712
27.52000 411.516
27.56000 443.351
27.60000 444.492
27.64000 437.870
27.68000 404.600
27.72000 430.607
27.76000 430.640
27.80000 428.034
27.84000 438.016
27.88000 433.946
27.92000 436.048
27.96000 431.999
28.00000 448.782
28.04000 425.669
28.08000 426.046
28.12000 413.832
28.16000 430.950
28.20000 431.830
28.24000 426.574
28.28000 425.502
28.32000 427.863
28.36000 437.637
28.40000 418.481
28.44000 416.218
28.48000 400.629
28.52000 406.324
28.56000 410.247
28.60000 409.850
28.64000 412.530
28.68000 417.400
28.72000 419.569
28.76000 411.930
28.80000 405.316
28.84000 417.317
28.88000 409.551
28.92000 406.178
28.96000 409.314
29.00000 416.151
29.04000 424.968
29.08000 397.600
29.12000 410.572
29.16000 411.419
29.20000 412.188
29.24000 391.487
29.28000 414.949
29.32000 419.507
29.36000 404.150
29.40000 421.220
29.44000 425.468
29.48000 409.746
29.52000 418.956
29.56000 403.147
29.60000 410.276
29.64000 405.632
29.68000 421.755
29.72000 410.455
29.76000 413.910
29.80000 431.159
29.84000 424.065
29.88000 442.605
29.92000 448.360
29.96000 457.090
30.00000 452.798
30.04000 432.486
30.08000 440.042
30.12000 426.604
30.16000 435.640
30.20000 438.642
30.24000 426.608
30.28000 444.302
30.32000 429.522
30.36000 400.399
30.40000 420.844
30.44000 412.118
30.48000 422.285
30.52000 423.822
30.56000 405.740
30.60000 410.905
30.64000 456.124
30.68000 428.693
30.72000 451.654
30.76000 444.588
30.80000 469.040
30.84000 474.201
30.88000 502.210
30.92000 526.565
30.96000 581.595
31.00000 659.153
31.04000 800.940
31.08000 966.749
31.12000 1235.281
31.16000 1576.968
31.20000 1949.886
31.24000 2408.723
31.28000 2750.202
31.32000 2949.063
31.36000 3072.210
31.40000 2985.557
31.44000 2705.492
31.48000 2376.578
31.52000 2004.711
31.56000 1656.020
31.60000 1362.461
31.64000 1137.774
31.68000 963.043
31.72000 810.581
31.76000 707.449
31.80000 642.856
31.84000 560.866
31.88000 528.733
31.92000 473.705
31.96000 462.131
32.00000 437.783
32.04000 424.742
32.08000 423.595
32.12000 386.702
32.16000 404.904
32.20000 398.537
32.24000 400.947
32.28000 386.940
32.32000 413.546
32.36000 389.012
32.40000 364.232
32.44000 378.781
32.48000 374.265
32.52000 383.190
32.56000 376.895
32.60000 374.550
32.64000 376.951
32.68000 365.187
32.72000 376.136
32.76000 360.268
32.80000 388.329
32.84000 395.439
32.88000 431.403
32.92000 402.640
32.96000 424.222
33.00000 395.269
33.04000 375.587
33.08000 388.134
33.12000 359.616
33.16000 371.934
33.20000 364.647
33.24000 345.339
33.28000 355.331
33.32000 348.879
33.36000 341.979
33.40000 339.401
33.44000 339.265
33.48000 353.091
33.52000 345.348
33.56000 339.804
33.60000 340.879
33.64000 330.852
33.68000 346.392
33.72000 348.280
33.76000 348.327
33.80000 334.178
33.84000 325.246
33.88000 350.161
33.92000 329.659
33.96000 328.000
34.00000 312.507
34.04000 334.536
34.08000 336.631
34.12000 335.102
34.16000 331.301
34.20000 340.174
34.24000 341.418
34.28000 327.285
34.32000 332.178
34.36000 328.745
34.40000 329.605
34.44000 325.868
34.48000 323.060
34.52000 317.642
34.56000 332.360
34.60000 324.645
34.64000 313.189
34.68000 325.573
34.72000 311.021
34.76000 317.419
34.80000 332.342
34.84000 320.500
34.88000 325.402
34.92000 309.675
34.96000 311.056
35.00000 312.089
35.04000 310.853
35.08000 304.512
35.12000 323.223
35.16000 305.898
35.20000 309.114
35.24000 306.958
35.28000 307.608
35.32000 322.460
35.36000 305.400
35.40000 309.604
35.44000 308.693
35.48000 315.624
35.52000 315.186
35.56000 315.017
35.60000 306.565
35.64000 306.172
35.68000 305.903
35.72000 301.036
35.76000 288.919
35.80000 311.695
35.84000 299.532
35.88000 311.264
35.92000 303.439
35.96000 299.972
36.00000 299.395
36.04000 295.882
36.08000 314.742
36.12000 308.668
36.16000 290.512
36.20000 294.262
36.24000 293.702
36.28000 301.625
36.32000 304.605
36.36000 282.564
36.40000 310.293
36.44000 297.301
36.48000 302.268
36.52000 297.265
36.56000 293.972
36.60000 292.477
36.64000 295.792
36.68000 289.098
36.72000 297.602
36.76000 308.039
36.80000 285.641
36.84000 300.076
36.88000 299.934
36.92000 297.156
36.96000 292.453
37.00000 285.544
37.04000 300.562
37.08000 307.320
37.12000 297.003
37.16000 297.018
37.20000 289.123
37.24000 304.410
37.28000 305.997
37.32000 291.747
37.36000 292.885
37.40000 300.229
37.44000 282.133
37.48000 278.159
37.52000 277.943
37.56000 280.329
37.60000 281.129
37.64000 271.542
37.68000 287.885
37.72000 290.436
37.76000 271.597
37.80000 284.218
37.84000 281.680
37.88000 296.790
37.92000 291.793
37.96000 285.040
38.00000 280.729
38.04000 290.023
38.08000 296.932
38.12000 298.133
38.16000 305.272
38.20000 302.651
38.24000 297.738
38.28000 307.112
38.32000 310.054
38.36000 320.727
38.40000 358.584
38.44000 381.292
38.48000 398.973
38.52000 440.585
38.56000 478.886
38.60000 485.016
38.64000 495.300
38.68000 491.342
38.72000 481.077
38.76000 473.386
38.80000 452.660
38.84000 402.642
38.88000 358.807
38.92000 350.054
38.96000 336.056
39.00000 289.655
39.04000 298.121
39.08000 298.486
39.12000 279.987
39.16000 306.607
39.20000 272.742
39.24000 273.743
39.28000 289.642
39.32000 273.604
39.36000 273.958
39.40000 267.488
39.44000 265.471
39.48000 267.823
39.52000 258.922
39.56000 250.965
39.60000 260.267
39.64000 273.624
39.68000 264.874
39.72000 274.302
39.76000 283.446
39.80000 259.067
39.84000 264.883
39.88000 261.032
39.92000 265.446
39.96000 258.334
40.00000 268.050
40.04000 265.711
40.08000 258.972
40.12000 263.039
40.16000 264.114
40.20000 273.796
40.24000 250.006
40.28000 250.211
40.32000 248.233
40.36000 250.692
40.40000 235.487
40.44000 247.607
40.48000 229.892
40.52000 242.883
40.56000 247.228
40.60000 243.242
40.64000 254.902
40.68000 240.571
40.72000 235.867
40.76000 238.133
40.80000 233.827
40.84000 256.041
40.88000 260.991
40.92000 243.181
40.96000 245.822
41.00000 256.910
41.04000 231.833
41.08000 234.246
41.12000 237.202
41.16000 237.152
41.20000 236.571
41.24000 239.187
41.28000 250.706
41.32000 250.640
41.36000 258.728
41.40000 248.679
41.44000 224.876
41.48000 236.255
41.52000 247.967
41.56000 242.385
41.60000 242.023
41.64000 234.582
41.68000 244.813
41.72000 245.492
41.76000 233.771
41.80000 230.749
41.84000 233.479
41.88000 234.000
41.92000 238.528
41.96000 221.853
42.00000 228.776
42.04000 235.530
42.08000 233.598
42.12000 236.789
42.16000 236.331
42.20000 229.846
42.24000 231.339
42.28000 236.356
42.32000 234.620
42.36000 237.403
42.40000 237.356
42.44000 227.510
42.48000 227.594
42.52000 218.202
42.56000 226.446
42.60000 228.251
42.64000 234.070
42.68000 229.398
42.72000 223.065
42.76000 226.525
42.80000 231.248
42.84000 232.998
42.88000 233.242
42.92000 237.915
42.96000 227.678
43.00000 229.982
43.04000 229.673
43.08000 226.771
43.12000 241.150
43.16000 233.372
43.20000 224.781
43.24000 228.333
43.28000 213.056
43.32000 223.889
43.36000 225.935
43.40000 232.746
43.44000 218.076
43.48000 236.162
43.52000 220.059
43.56000 228.074
43.60000 223.920
43.64000 225.048
43.68000 234.857
43.72000 249.847
43.76000 229.793
43.80000 228.299
43.84000 211.292
43.88000 228.148
43.92000 237.107
43.96000 244.484
44.00000 227.183
44.04000 232.576
44.08000 225.927
44.12000 223.465
44.16000 225.282
44.20000 235.018
44.24000 239.978
44.28000 237.018
44.32000 232.144
44.36000 229.235
44.40000 249.320
44.44000 255.537
44.48000 247.033
44.52000 264.463
44.56000 271.633
44.60000 295.265
44.64000 315.513
44.68000 348.101
44.72000 353.492
44.76000 406.634
44.80000 412.328
44.84000 430.793
44.88000 458.150
44.92000 474.737
44.96000 475.241
45.00000 483.628
45.04000 469.208
45.08000 433.778
45.12000 432.272
45.16000 420.218
45.20000 382.274
45.24000 366.133
45.28000 351.407
45.32000 321.202
45.36000 308.985
45.40000 298.545
45.44000 298.467
45.48000 290.828
45.52000 293.046
45.56000 270.663
45.60000 250.239
45.64000 251.897
45.68000 238.127
45.72000 247.778
45.76000 239.830
45.80000 232.185
45.84000 232.839
45.88000 224.436
45.92000 227.601
45.96000 222.853
46.00000 215.862
46.04000 227.310
46.08000 224.334
46.12000 214.472
46.16000 220.117
46.20000 204.116
46.24000 194.338
46.28000 200.205
46.32000 201.283
46.36000 210.478
46.40000 201.620
46.44000 204.356
46.48000 205.059
46.52000 201.819
46.56000 202.924
46.60000 206.982
46.64000 193.237
46.68000 208.690
46.72000 189.595
46.76000 201.240
46.80000 196.021
46.84000 196.739
46.88000 192.974
46.92000 198.734
46.96000 190.559
47.00000 205.390
47.04000 201.292
47.08000 189.783
47.12000 198.975
47.16000 191.512
47.20000 198.903
47.24000 191.675
47.28000 199.681
47.32000 182.189
47.36000 183.503
47.40000 183.471
47.44000 191.068
47.48000 180.389
47.52000 186.655
47.56000 199.258
47.60000 188.921
47.64000 186.482
47.68000 173.455
47.72000 187.744
47.76000 183.001
47.80000 180.419
47.84000 178.711
47.88000 198.814
47.92000 191.499
47.96000 189.870
48.00000 186.446
48.04000 184.418
48.08000 183.097
48.12000 179.412
48.16000 176.822
48.20000 183.931
48.24000 186.590
48.28000 185.233
48.32000 179.916
48.36000 182.508
48.40000 177.499
48.44000 178.356
48.48000 184.526
48.52000 181.223
48.56000 193.232
48.60000 180.087
48.64000 182.170
48.68000 190.695
48.72000 177.724
48.76000 183.784
48.80000 200.690
48.84000 172.612
48.88000 180.600
48.92000 183.830
48.96000 173.492
49.00000 190.648
49.04000 176.470
49.08000 180.349
49.12000 181.546
49.16000 178.492
49.20000 177.036
49.24000 184.093
49.28000 171.555
49.32000 177.986
49.36000 174.290
49.40000 182.490
49.44000 183.144
49.48000 171.308
49.52000 174.541
49.56000 178.902
49.60000 179.065
49.64000 178.360
49.68000 177.815
49.72000 168.503
49.76000 178.889
49.80000 188.947
49.84000 179.363
49.88000 176.270
49.92000 174.691
49.96000 175.552
50.00000 174.217
50.04000 170.157
50.08000 170.020
50.12000 180.278
50.16000 194.668
50.20000 186.921
50.24000 188.688
50.28000 191.125
50.32000 197.776
50.36000 204.640
50.40000 210.659
50.44000 214.194
50.48000 235.808
50.52000 232.650
50.56000 234.541
50.60000 244.027
50.64000 234.085
50.68000 230.257
50.72000 219.146
50.76000 234.019
50.80000 223.246
50.84000 224.852
50.88000 216.249
50.92000 209.383
50.96000 194.103
51.00000 185.978
51.04000 190.590
51.08000 189.029
51.12000 195.900
51.16000 179.658
51.20000 186.869
51.24000 174.477
51.28000 186.594
51.32000 173.735
51.36000 167.455
51.40000 171.854
51.44000 181.236
51.48000 164.463
51.52000 170.805
51.56000 157.851
51.60000 165.567
51.64000 165.232
51.68000 170.032
51.72000 158.793
51.76000 160.144
51.80000 166.861
51.84000 169.332
51.88000 164.731
51.92000 165.708
51.96000 161.592
52.00000 160.637
52.04000 171.221
52.08000 153.725
52.12000 163.344
52.16000 152.130
52.20000 162.692
52.24000 151.989
52.28000 166.321
52.32000 160.637
52.36000 161.152
52.40000 158.638
52.44000 160.698
52.48000 157.012
52.52000 164.956
52.56000 162.416
52.60000 160.652
52.64000 163.056
52.68000 158.959
52.72000 161.361
52.76000 153.569
52.80000 159.565
52.84000 156.744
52.88000 157.788
52.92000 154.674
52.96000 151.237
53.00000 158.820
53.04000 152.426
53.08000 158.800
53.12000 161.352
53.16000 160.887
53.20000 154.982
53.24000 151.231
53.28000 163.644
53.32000 158.351
53.36000 148.998
53.40000 157.782
53.44000 163.168
53.48000 158.139
53.52000 157.023
53.56000 164.061
53.60000 154.613
53.64000 138.923
53.68000 154.277
53.72000 156.521
53.76000 155.444
53.80000 152.900
53.84000 146.637
53.88000 161.887
53.92000 158.286
53.96000 164.354
54.00000 147.035
54.04000 153.359
54.08000 160.554
54.12000 153.554
54.16000 148.780
54.20000 147.613
54.24000 156.430
54.28000 156.831
54.32000 150.772
54.36000 153.488
54.40000 157.022
54.44000 148.656
54.48000 155.618
54.52000 155.295
54.56000 152.442
54.60000 147.036
54.64000 150.913
54.68000 149.615
54.72000 164.271
54.76000 153.091
54.80000 152.905
54.84000 162.569
54.88000 153.751
54.92000 157.287
54.96000 164.778
55.00000 153.962
55.04000 160.867
55.08000 152.265
55.12000 166.641
55.16000 156.874
55.20000 160.840
55.24000 158.930
55.28000 158.876
55.32000 163.843
55.36000 184.816
55.40000 177.180
55.44000 197.580
55.48000 200.406
55.52000 222.746
55.56000 226.321
55.60000 260.321
55.64000 260.289
55.68000 301.097
55.72000 341.034
55.76000 361.795
55.80000 368.659
55.84000 387.696
55.88000 373.198
55.92000 388.011
55.96000 372.129
56.00000 363.346
56.04000 351.631
56.08000 326.271
56.12000 307.606
56.16000 280.654
56.20000 257.393
56.24000 254.435
56.28000 231.554
56.32000 211.636
56.36000 203.803
56.40000 195.041
56.44000 190.826
56.48000 189.430
56.52000 174.729
56.56000 167.154
56.60000 175.299
56.64000 159.444
56.68000 156.508
56.72000 152.128
56.76000 164.374
56.80000 160.244
56.84000 158.858
56.88000 144.012
56.92000 155.587
56.96000 150.716
57.00000 143.324
57.04000 141.450
57.08000 137.236
57.12000 150.793
57.16000 140.540
57.20000 152.515
57.24000 143.791
57.28000 148.169
57.32000 148.766
57.36000 136.663
57.40000 138.421
57.44000 145.145
57.48000 144.638
57.52000 146.058
57.56000 140.982
57.60000 141.418
57.64000 139.798
57.68000 144.022
57.72000 131.070
57.76000 150.528
57.80000 143.540
57.84000 130.788
57.88000 148.886
57.92000 159.599
57.96000 139.614
58.00000 138.590
58.04000 139.496
58.08000 142.470
58.12000 141.915
58.16000 141.841
58.20000 133.650
58.24000 136.396
58.28000 136.570
58.32000 134.060
58.36000 136.980
58.40000 135.925
58.44000 130.768
58.48000 138.294
58.52000 146.473
58.56000 134.174
58.60000 135.022
58.64000 143.053
58.68000 136.239
58.72000 143.100
58.76000 133.541
58.80000 144.400
58.84000 131.932
58.88000 135.593
58.92000 140.827
58.96000 144.613
59.00000 140.740
59.04000 141.709
59.08000 141.441
59.12000 135.562
59.16000 148.987
59.20000 127.851
59.24000 132.469
59.28000 149.920
59.32000 120.354
59.36000 139.822
59.40000 134.342
59.44000 135.668
59.48000 143.493
59.52000 129.258
59.56000 144.199
59.60000 135.129
59.64000 140.856
59.68000 140.651
59.72000 134.469
59.76000 121.210
59.80000 117.217
59.84000 138.571
59.88000 131.575
59.92000 126.368
59.96000 141.813
60.00000 135.084
60.04000 131.029
60.08000 128.981
60.12000 140.665
60.16000 135.192
60.20000 134.082
60.24000 135.520
60.28000 130.576
60.32000 128.417
60.36000 132.690
60.40000 133.553
60.44000 132.407
60.48000 130.228
60.52000 141.710
60.56000 132.045
60.60000 136.997
60.64000 138.191
60.68000 131.850
60.72000 124.380
60.76000 134.139
60.80000 132.061
60.84000 130.129
60.88000 142.279
60.92000 134.736
60.96000 127.757
61.00000 143.128
61.04000 135.030
61.08000 136.088
61.12000 139.770
61.16000 131.176
61.20000 145.825
61.24000 144.803
61.28000 147.014
61.32000 154.020
61.36000 135.399
61.40000 132.634
61.44000 145.549
61.48000 145.183
61.52000 187.261
61.56000 249.484
61.60000 312.418
61.64000 344.481
61.68000 385.345
61.72000 380.686
61.76000 328.049
61.80000 278.467
61.84000 214.650
61.88000 170.684
61.92000 153.376
61.96000 152.494
62.00000 155.210
62.04000 148.440
62.08000 154.405
62.12000 133.433
62.16000 156.707
62.20000 138.377
62.24000 141.094
62.28000 151.261
62.32000 146.766
62.36000 146.084
62.40000 145.877
62.44000 149.867
62.48000 146.020
62.52000 135.595
62.56000 140.786
62.60000 145.221
62.64000 140.401
62.68000 141.101
62.72000 145.110
62.76000 150.582
62.80000 150.120
62.84000 147.867
62.88000 150.983
62.92000 154.868
62.96000 149.455
63.00000 146.262
63.04000 150.011
63.08000 154.946
63.12000 153.693
63.16000 145.780
63.20000 159.934
63.24000 144.477
63.28000 147.817
63.32000 155.498
63.36000 146.479
63.40000 147.322
63.44000 162.773
63.48000 154.934
63.52000 152.598
63.56000 157.951
63.60000 154.752
63.64000 156.617
63.68000 157.253
63.72000 152.657
63.76000 154.977
63.80000 153.721
63.84000 161.912
63.88000 151.186
63.92000 163.419
63.96000 164.162
64.00000 163.719
64.04000 160.332
64.08000 168.426
64.12000 179.223
64.16000 160.246
64.20000 174.883
64.24000 183.050
64.28000 177.643
64.32000 163.961
64.36000 192.172
64.40000 171.232
64.44000 188.046
64.48000 177.563
64.52000 178.680
64.56000 178.412
64.60000 177.285
64.64000 185.921
64.68000 193.345
64.72000 185.838
64.76000 205.025
64.80000 191.560
64.84000 193.704
64.88000 204.917
64.92000 208.310
64.96000 205.771
65.00000 215.994
65.04000 227.219
65.08000 239.450
65.12000 254.496
65.16000 271.187
65.20000 271.502
65.24000 291.284
65.28000 315.714
65.32000 323.167
65.36000 333.596
65.40000 373.783
65.44000 387.550
65.48000 393.744
65.52000 392.489
65.56000 431.416
65.60000 433.669
65.64000 494.020
65.68000 609.454
65.72000 879.401
65.76000 1226.755
65.80000 1538.733
65.84000 1676.412
65.88000 1669.643
65.92000 1576.803
65.96000 1327.540
66.00000 915.152
66.04000 650.911
66.08000 463.470
66.12000 428.618
66.16000 375.054
66.20000 367.320
66.24000 400.597
66.28000 444.113
66.32000 537.157
66.36000 572.055
66.40000 601.312
66.44000 631.254
66.48000 602.812
66.52000 540.553
66.56000 457.738
66.60000 419.156
66.64000 392.544
66.68000 379.794
66.72000 360.122
66.76000 385.940
66.80000 382.190
66.84000 375.971
66.88000 395.655
66.92000 418.519
66.96000 384.700
67.00000 419.899
67.04000 415.593
67.08000 441.265
67.12000 429.820
67.16000 443.707
67.20000 455.024
67.24000 463.689
67.28000 457.938
67.32000 474.721
67.36000 491.830
67.40000 483.856
67.44000 504.982
67.48000 493.671
67.52000 508.962
67.56000 534.661
67.60000 543.883
67.64000 536.009
67.68000 558.461
67.72000 557.805
67.76000 568.590
67.80000 592.924
67.84000 600.898
67.88000 595.282
67.92000 627.054
67.96000 640.673
68.00000 650.437
68.04000 673.344
68.08000 688.521
68.12000 688.306
68.16000 707.190
68.20000 744.000
68.24000 746.174
68.28000 776.399
68.32000 810.033
68.36000 839.996
68.40000 867.051
68.44000 907.674
68.48000 952.279
68.52000 1065.364
68.56000 1175.115
68.60000 1297.525
68.64000 1564.967
68.68000 1892.147
68.72000 2197.317
68.76000 2551.816
68.80000 2969.054
68.84000 3610.546
68.88000 4932.782
68.92000 9033.795
68.96000 22928.908
69.00000 49652.742
69.04000 75705.891
69.08000 87521.711
69.12000 90615.547
69.16000 94033.813
69.20000 91340.094
69.24000 77133.672
69.28000 58704.859
69.32000 48029.480
69.36000 43090.984
69.40000 33898.266
69.44000 20813.131
69.48000 9537.957
69.52000 4167.537
69.56000 2577.785
69.60000 1982.304
69.64000 1645.384
69.68000 1448.852
69.72000 1263.102
69.76000 1143.146
69.80000 1090.522
69.84000 982.260
69.88000 939.533
69.92000 886.849
69.96000 811.604
70.00000 802.231