File: XRD/25-09-2025/XY Data/BTO_Mapping_Theta2Theta_25-09-2025_001_22_-5-000_8-660.xy
20.00000 543.000
20.04000 564.518
20.08000 557.213
20.12000 526.029
20.16000 557.030
20.20000 588.857
20.24000 542.856
20.28000 556.898
20.32000 539.872
20.36000 541.484
20.40000 548.409
20.44000 553.655
20.48000 553.410
20.52000 565.114
20.56000 535.079
20.60000 525.652
20.64000 543.716
20.68000 546.383
20.72000 545.509
20.76000 532.936
20.80000 543.471
20.84000 553.320
20.88000 533.115
20.92000 553.389
20.96000 540.835
21.00000 549.109
21.04000 548.786
21.08000 538.304
21.12000 518.462
21.16000 521.844
21.20000 539.530
21.24000 542.395
21.28000 534.310
21.32000 541.460
21.36000 562.919
21.40000 548.306
21.44000 547.744
21.48000 533.799
21.52000 546.772
21.56000 538.154
21.60000 537.396
21.64000 548.331
21.68000 540.366
21.72000 544.571
21.76000 537.732
21.80000 567.571
21.84000 594.851
21.88000 591.586
21.92000 609.019
21.96000 623.594
22.00000 620.573
22.04000 622.488
22.08000 619.547
22.12000 639.878
22.16000 648.096
22.20000 631.202
22.24000 606.855
22.28000 617.857
22.32000 615.622
22.36000 622.620
22.40000 579.018
22.44000 604.526
22.48000 612.204
22.52000 537.027
22.56000 563.950
22.60000 542.264
22.64000 523.372
22.68000 528.018
22.72000 526.557
22.76000 502.011
22.80000 500.208
22.84000 502.182
22.88000 508.273
22.92000 490.315
22.96000 502.165
23.00000 511.651
23.04000 509.978
23.08000 518.392
23.12000 518.623
23.16000 491.297
23.20000 514.405
23.24000 509.613
23.28000 499.230
23.32000 484.973
23.36000 490.527
23.40000 489.697
23.44000 513.003
23.48000 485.648
23.52000 488.394
23.56000 488.330
23.60000 483.575
23.64000 500.856
23.68000 493.516
23.72000 503.722
23.76000 491.037
23.80000 491.327
23.84000 499.464
23.88000 494.393
23.92000 474.284
23.96000 491.622
24.00000 492.688
24.04000 488.561
24.08000 501.976
24.12000 479.147
24.16000 487.139
24.20000 484.639
24.24000 492.983
24.28000 487.415
24.32000 476.105
24.36000 494.587
24.40000 464.406
24.44000 459.014
24.48000 483.599
24.52000 461.694
24.56000 512.212
24.60000 487.339
24.64000 473.868
24.68000 481.576
24.72000 497.178
24.76000 484.763
24.80000 465.055
24.84000 479.360
24.88000 465.940
24.92000 469.389
24.96000 482.021
25.00000 463.699
25.04000 474.059
25.08000 477.232
25.12000 467.758
25.16000 477.077
25.20000 480.756
25.24000 461.995
25.28000 488.071
25.32000 480.071
25.36000 460.516
25.40000 468.581
25.44000 474.044
25.48000 467.235
25.52000 467.621
25.56000 445.720
25.60000 478.088
25.64000 468.970
25.68000 467.930
25.72000 454.709
25.76000 471.151
25.80000 443.238
25.84000 461.731
25.88000 460.014
25.92000 458.319
25.96000 461.591
26.00000 468.654
26.04000 450.313
26.08000 451.763
26.12000 457.757
26.16000 437.514
26.20000 449.127
26.24000 443.296
26.28000 452.100
26.32000 427.738
26.36000 450.735
26.40000 459.937
26.44000 461.265
26.48000 448.888
26.52000 459.298
26.56000 441.397
26.60000 433.291
26.64000 433.879
26.68000 436.696
26.72000 435.688
26.76000 449.840
26.80000 437.754
26.84000 443.312
26.88000 441.819
26.92000 451.739
26.96000 433.218
27.00000 441.557
27.04000 437.194
27.08000 427.224
27.12000 415.376
27.16000 431.282
27.20000 426.629
27.24000 446.691
27.28000 420.454
27.32000 424.102
27.36000 450.906
27.40000 441.653
27.44000 431.692
27.48000 438.108
27.52000 436.687
27.56000 441.653
27.60000 419.066
27.64000 422.219
27.68000 427.503
27.72000 430.578
27.76000 417.155
27.80000 416.782
27.84000 414.126
27.88000 414.662
27.92000 417.790
27.96000 412.724
28.00000 416.320
28.04000 422.339
28.08000 430.375
28.12000 425.967
28.16000 420.178
28.20000 412.423
28.24000 418.895
28.28000 416.623
28.32000 408.106
28.36000 402.075
28.40000 426.258
28.44000 417.735
28.48000 421.640
28.52000 394.516
28.56000 412.709
28.60000 414.483
28.64000 411.075
28.68000 410.681
28.72000 419.550
28.76000 407.891
28.80000 422.746
28.84000 412.729
28.88000 418.311
28.92000 404.496
28.96000 398.946
29.00000 418.000
29.04000 384.645
29.08000 402.132
29.12000 395.243
29.16000 416.848
29.20000 395.686
29.24000 399.863
29.28000 410.758
29.32000 424.285
29.36000 416.539
29.40000 395.616
29.44000 399.137
29.48000 399.995
29.52000 385.719
29.56000 396.974
29.60000 387.616
29.64000 398.023
29.68000 391.627
29.72000 391.724
29.76000 412.833
29.80000 409.686
29.84000 407.216
29.88000 392.117
29.92000 407.917
29.96000 414.696
30.00000 423.235
30.04000 397.138
30.08000 402.626
30.12000 413.248
30.16000 419.584
30.20000 416.663
30.24000 413.092
30.28000 422.228
30.32000 418.943
30.36000 412.435
30.40000 407.807
30.44000 409.578
30.48000 400.460
30.52000 400.786
30.56000 382.404
30.60000 398.487
30.64000 415.701
30.68000 423.462
30.72000 413.382
30.76000 420.546
30.80000 414.670
30.84000 403.779
30.88000 421.544
30.92000 456.909
30.96000 478.865
31.00000 495.766
31.04000 552.636
31.08000 582.835
31.12000 704.309
31.16000 807.014
31.20000 964.982
31.24000 1154.918
31.28000 1350.672
31.32000 1490.208
31.36000 1566.842
31.40000 1616.714
31.44000 1575.062
31.48000 1461.836
31.52000 1280.227
31.56000 1140.479
31.60000 958.368
31.64000 791.913
31.68000 676.429
31.72000 582.814
31.76000 546.438
31.80000 512.099
31.84000 468.276
31.88000 441.352
31.92000 454.634
31.96000 409.525
32.00000 407.608
32.04000 409.942
32.08000 401.626
32.12000 396.259
32.16000 376.687
32.20000 373.781
32.24000 389.817
32.28000 389.959
32.32000 384.634
32.36000 376.485
32.40000 376.214
32.44000 365.016
32.48000 366.453
32.52000 380.189
32.56000 364.735
32.60000 370.540
32.64000 371.614
32.68000 367.956
32.72000 371.576
32.76000 368.085
32.80000 363.274
32.84000 359.847
32.88000 375.513
32.92000 368.463
32.96000 385.802
33.00000 370.757
33.04000 367.201
33.08000 346.052
33.12000 351.131
33.16000 333.778
33.20000 337.408
33.24000 333.494
33.28000 344.653
33.32000 330.288
33.36000 320.304
33.40000 322.297
33.44000 325.765
33.48000 320.559
33.52000 345.001
33.56000 338.328
33.60000 341.341
33.64000 344.030
33.68000 331.377
33.72000 345.175
33.76000 336.044
33.80000 332.450
33.84000 325.315
33.88000 333.889
33.92000 324.823
33.96000 334.655
34.00000 320.653
34.04000 325.402
34.08000 322.720
34.12000 322.405
34.16000 337.098
34.20000 324.539
34.24000 336.545
34.28000 320.341
34.32000 321.899
34.36000 332.840
34.40000 304.466
34.44000 331.628
34.48000 317.434
34.52000 316.280
34.56000 320.422
34.60000 324.240
34.64000 317.860
34.68000 317.791
34.72000 310.943
34.76000 314.982
34.80000 319.395
34.84000 310.870
34.88000 304.337
34.92000 323.846
34.96000 320.738
35.00000 327.850
35.04000 316.335
35.08000 303.003
35.12000 326.031
35.16000 300.489
35.20000 317.510
35.24000 305.337
35.28000 306.017
35.32000 305.139
35.36000 300.929
35.40000 296.541
35.44000 296.282
35.48000 302.234
35.52000 299.747
35.56000 303.314
35.60000 309.440
35.64000 307.595
35.68000 305.889
35.72000 306.599
35.76000 313.196
35.80000 306.023
35.84000 289.121
35.88000 286.271
35.92000 289.753
35.96000 311.870
36.00000 303.896
36.04000 298.408
36.08000 297.170
36.12000 295.643
36.16000 287.539
36.20000 295.016
36.24000 297.620
36.28000 301.507
36.32000 295.702
36.36000 301.908
36.40000 293.703
36.44000 297.350
36.48000 300.804
36.52000 294.296
36.56000 302.650
36.60000 278.931
36.64000 297.287
36.68000 305.192
36.72000 289.128
36.76000 304.232
36.80000 297.513
36.84000 296.538
36.88000 283.281
36.92000 294.746
36.96000 297.921
37.00000 291.500
37.04000 292.369
37.08000 304.456
37.12000 290.892
37.16000 290.102
37.20000 286.240
37.24000 286.785
37.28000 288.923
37.32000 278.718
37.36000 286.809
37.40000 281.030
37.44000 292.314
37.48000 288.234
37.52000 279.977
37.56000 286.685
37.60000 272.787
37.64000 294.053
37.68000 277.077
37.72000 285.254
37.76000 281.870
37.80000 287.073
37.84000 285.673
37.88000 299.990
37.92000 284.229
37.96000 280.458
38.00000 274.180
38.04000 279.117
38.08000 283.013
38.12000 281.911
38.16000 286.421
38.20000 294.106
38.24000 289.459
38.28000 297.225
38.32000 302.858
38.36000 332.535
38.40000 348.751
38.44000 387.616
38.48000 444.818
38.52000 477.753
38.56000 555.401
38.60000 648.305
38.64000 739.297
38.68000 766.401
38.72000 807.429
38.76000 791.215
38.80000 769.737
38.84000 730.131
38.88000 613.249
38.92000 534.590
38.96000 436.453
39.00000 407.007
39.04000 338.473
39.08000 328.856
39.12000 303.918
39.16000 285.146
39.20000 273.372
39.24000 264.557
39.28000 272.073
39.32000 275.607
39.36000 258.257
39.40000 273.218
39.44000 264.758
39.48000 255.853
39.52000 265.716
39.56000 264.103
39.60000 262.781
39.64000 278.966
39.68000 262.707
39.72000 260.396
39.76000 268.917
39.80000 256.568
39.84000 260.499
39.88000 276.395
39.92000 256.181
39.96000 253.956
40.00000 261.512
40.04000 254.956
40.08000 258.844
40.12000 264.903
40.16000 240.432
40.20000 251.912
40.24000 237.709
40.28000 254.082
40.32000 250.095
40.36000 252.854
40.40000 247.583
40.44000 245.694
40.48000 242.145
40.52000 252.956
40.56000 246.326
40.60000 236.939
40.64000 247.978
40.68000 241.883
40.72000 254.241
40.76000 252.396
40.80000 248.134
40.84000 253.455
40.88000 253.581
40.92000 238.899
40.96000 240.492
41.00000 235.760
41.04000 240.515
41.08000 241.415
41.12000 246.889
41.16000 252.235
41.20000 238.207
41.24000 223.622
41.28000 240.534
41.32000 257.719
41.36000 256.735
41.40000 238.354
41.44000 246.874
41.48000 230.705
41.52000 240.422
41.56000 228.446
41.60000 233.007
41.64000 238.160
41.68000 249.025
41.72000 233.462
41.76000 246.786
41.80000 233.169
41.84000 241.065
41.88000 236.000
41.92000 243.932
41.96000 235.850
42.00000 231.523
42.04000 225.065
42.08000 230.446
42.12000 232.943
42.16000 236.823
42.20000 226.179
42.24000 233.640
42.28000 234.677
42.32000 222.618
42.36000 218.113
42.40000 231.752
42.44000 233.068
42.48000 218.631
42.52000 224.747
42.56000 227.050
42.60000 224.630
42.64000 222.910
42.68000 231.304
42.72000 221.156
42.76000 220.060
42.80000 206.278
42.84000 229.259
42.88000 219.169
42.92000 240.923
42.96000 231.774
43.00000 230.052
43.04000 232.727
43.08000 224.675
43.12000 228.278
43.16000 231.995
43.20000 225.003
43.24000 209.251
43.28000 228.256
43.32000 237.583
43.36000 228.587
43.40000 224.670
43.44000 239.138
43.48000 227.411
43.52000 214.036
43.56000 227.515
43.60000 223.239
43.64000 223.653
43.68000 226.212
43.72000 220.102
43.76000 230.353
43.80000 222.286
43.84000 204.058
43.88000 217.447
43.92000 210.827
43.96000 227.327
44.00000 229.085
44.04000 213.778
44.08000 209.228
44.12000 230.307
44.16000 226.378
44.20000 205.682
44.24000 229.210
44.28000 222.314
44.32000 219.808
44.36000 223.103
44.40000 217.594
44.44000 217.832
44.48000 213.656
44.52000 237.368
44.56000 223.459
44.60000 227.652
44.64000 226.144
44.68000 228.769
44.72000 236.494
44.76000 238.872
44.80000 237.001
44.84000 266.299
44.88000 239.726
44.92000 250.943
44.96000 263.056
45.00000 268.046
45.04000 267.714
45.08000 262.075
45.12000 277.010
45.16000 288.510
45.20000 281.918
45.24000 268.201
45.28000 267.329
45.32000 285.251
45.36000 269.425
45.40000 271.286
45.44000 276.732
45.48000 255.845
45.52000 260.565
45.56000 258.022
45.60000 241.373
45.64000 235.333
45.68000 245.321
45.72000 248.821
45.76000 236.889
45.80000 217.134
45.84000 229.918
45.88000 218.836
45.92000 223.939
45.96000 221.313
46.00000 219.326
46.04000 212.816
46.08000 214.143
46.12000 207.664
46.16000 213.135
46.20000 204.934
46.24000 205.808
46.28000 208.836
46.32000 188.027
46.36000 196.506
46.40000 192.994
46.44000 219.154
46.48000 216.069
46.52000 196.580
46.56000 208.110
46.60000 204.532
46.64000 202.931
46.68000 193.663
46.72000 204.169
46.76000 194.062
46.80000 199.394
46.84000 212.534
46.88000 192.981
46.92000 186.830
46.96000 187.981
47.00000 190.697
47.04000 188.408
47.08000 189.513
47.12000 186.736
47.16000 180.828
47.20000 186.944
47.24000 196.385
47.28000 187.305
47.32000 184.159
47.36000 194.325
47.40000 191.071
47.44000 197.534
47.48000 185.564
47.52000 175.785
47.56000 183.943
47.60000 187.378
47.64000 189.841
47.68000 184.547
47.72000 170.000
47.76000 192.032
47.80000 181.020
47.84000 184.515
47.88000 185.298
47.92000 183.026
47.96000 173.297
48.00000 184.249
48.04000 182.175
48.08000 176.348
48.12000 189.201
48.16000 172.359
48.20000 177.315
48.24000 161.524
48.28000 186.407
48.32000 185.303
48.36000 185.733
48.40000 183.764
48.44000 180.138
48.48000 172.318
48.52000 184.184
48.56000 179.003
48.60000 187.245
48.64000 173.199
48.68000 182.717
48.72000 174.019
48.76000 184.326
48.80000 174.693
48.84000 175.737
48.88000 172.333
48.92000 182.889
48.96000 175.770
49.00000 170.467
49.04000 175.841
49.08000 171.852
49.12000 170.112
49.16000 178.160
49.20000 181.286
49.24000 176.696
49.28000 179.730
49.32000 172.924
49.36000 172.699
49.40000 165.169
49.44000 171.443
49.48000 158.150
49.52000 173.407
49.56000 180.936
49.60000 172.197
49.64000 174.217
49.68000 166.922
49.72000 166.650
49.76000 175.487
49.80000 170.602
49.84000 179.214
49.88000 170.474
49.92000 172.360
49.96000 161.303
50.00000 172.893
50.04000 168.215
50.08000 186.138
50.12000 175.458
50.16000 178.156
50.20000 172.455
50.24000 182.658
50.28000 165.798
50.32000 175.149
50.36000 177.073
50.40000 170.759
50.44000 182.132
50.48000 199.550
50.52000 206.195
50.56000 182.473
50.60000 204.552
50.64000 200.331
50.68000 197.801
50.72000 203.859
50.76000 200.298
50.80000 206.690
50.84000 193.043
50.88000 193.791
50.92000 185.731
50.96000 183.169
51.00000 180.508
51.04000 187.221
51.08000 171.040
51.12000 189.247
51.16000 181.348
51.20000 176.854
51.24000 171.618
51.28000 168.072
51.32000 162.669
51.36000 164.685
51.40000 158.944
51.44000 164.340
51.48000 158.963
51.52000 169.822
51.56000 161.797
51.60000 166.318
51.64000 165.373
51.68000 164.435
51.72000 161.514
51.76000 157.818
51.80000 151.818
51.84000 162.401
51.88000 154.976
51.92000 154.599
51.96000 155.418
52.00000 159.337
52.04000 164.033
52.08000 163.330
52.12000 167.583
52.16000 153.751
52.20000 160.488
52.24000 169.227
52.28000 146.629
52.32000 158.905
52.36000 156.795
52.40000 157.163
52.44000 156.849
52.48000 165.308
52.52000 162.967
52.56000 159.215
52.60000 165.086
52.64000 151.417
52.68000 157.102
52.72000 159.192
52.76000 165.550
52.80000 147.183
52.84000 144.549
52.88000 150.755
52.92000 159.565
52.96000 148.631
53.00000 160.851
53.04000 161.842
53.08000 156.816
53.12000 161.915
53.16000 149.935
53.20000 151.331
53.24000 149.118
53.28000 161.889
53.32000 152.291
53.36000 155.116
53.40000 160.106
53.44000 157.465
53.48000 158.361
53.52000 155.750
53.56000 172.195
53.60000 152.714
53.64000 155.076
53.68000 158.578
53.72000 155.742
53.76000 154.871
53.80000 156.839
53.84000 164.078
53.88000 159.373
53.92000 151.581
53.96000 148.445
54.00000 149.128
54.04000 149.075
54.08000 147.749
54.12000 161.417
54.16000 144.858
54.20000 162.140
54.24000 145.381
54.28000 144.229
54.32000 152.494
54.36000 149.995
54.40000 151.373
54.44000 162.968
54.48000 154.378
54.52000 143.587
54.56000 142.202
54.60000 147.003
54.64000 153.341
54.68000 148.543
54.72000 150.201
54.76000 151.087
54.80000 159.647
54.84000 153.383
54.88000 145.076
54.92000 151.534
54.96000 158.521
55.00000 155.391
55.04000 164.576
55.08000 156.450
55.12000 162.341
55.16000 157.498
55.20000 152.876
55.24000 147.982
55.28000 165.184
55.32000 166.346
55.36000 168.848
55.40000 164.877
55.44000 178.002
55.48000 179.441
55.52000 193.914
55.56000 203.253
55.60000 221.092
55.64000 242.790
55.68000 289.227
55.72000 309.071
55.76000 356.356
55.80000 392.145
55.84000 414.094
55.88000 439.377
55.92000 457.558
55.96000 475.672
56.00000 449.335
56.04000 449.477
56.08000 424.379
56.12000 400.862
56.16000 340.503
56.20000 325.702
56.24000 287.069
56.28000 273.449
56.32000 248.017
56.36000 234.141
56.40000 202.370
56.44000 189.664
56.48000 171.707
56.52000 165.956
56.56000 160.609
56.60000 167.493
56.64000 165.809
56.68000 161.176
56.72000 162.935
56.76000 149.151
56.80000 145.621
56.84000 141.633
56.88000 143.211
56.92000 139.920
56.96000 139.697
57.00000 151.408
57.04000 151.749
57.08000 153.383
57.12000 143.606
57.16000 133.926
57.20000 138.616
57.24000 142.440
57.28000 151.276
57.32000 141.238
57.36000 143.166
57.40000 135.514
57.44000 139.293
57.48000 131.413
57.52000 146.230
57.56000 145.379
57.60000 139.895
57.64000 141.359
57.68000 141.439
57.72000 141.275
57.76000 135.568
57.80000 140.953
57.84000 141.103
57.88000 143.256
57.92000 138.852
57.96000 130.341
58.00000 141.475
58.04000 144.335
58.08000 133.343
58.12000 141.231
58.16000 139.132
58.20000 134.794
58.24000 135.164
58.28000 129.399
58.32000 136.658
58.36000 142.136
58.40000 139.603
58.44000 136.156
58.48000 136.291
58.52000 128.562
58.56000 142.898
58.60000 137.440
58.64000 141.042
58.68000 137.140
58.72000 133.595
58.76000 129.320
58.80000 137.833
58.84000 130.423
58.88000 135.478
58.92000 131.661
58.96000 136.997
59.00000 128.516
59.04000 129.613
59.08000 126.961
59.12000 125.428
59.16000 124.504
59.20000 124.590
59.24000 126.890
59.28000 119.223
59.32000 133.679
59.36000 136.845
59.40000 135.294
59.44000 135.482
59.48000 134.233
59.52000 135.971
59.56000 132.397
59.60000 127.509
59.64000 140.270
59.68000 130.735
59.72000 130.385
59.76000 136.747
59.80000 141.321
59.84000 131.499
59.88000 129.828
59.92000 131.025
59.96000 129.895
60.00000 132.149
60.04000 129.695
60.08000 135.491
60.12000 139.935
60.16000 138.062
60.20000 131.390
60.24000 130.659
60.28000 127.148
60.32000 124.799
60.36000 130.044
60.40000 135.203
60.44000 137.403
60.48000 134.432
60.52000 129.225
60.56000 119.830
60.60000 124.408
60.64000 134.169
60.68000 135.470
60.72000 125.706
60.76000 132.468
60.80000 132.171
60.84000 139.581
60.88000 132.151
60.92000 123.990
60.96000 141.317
61.00000 136.379
61.04000 129.678
61.08000 128.841
61.12000 131.769
61.16000 137.928
61.20000 129.543
61.24000 139.625
61.28000 128.547
61.32000 134.978
61.36000 135.646
61.40000 136.788
61.44000 139.844
61.48000 151.098
61.52000 158.064
61.56000 189.335
61.60000 232.970
61.64000 267.309
61.68000 262.252
61.72000 264.383
61.76000 250.680
61.80000 206.649
61.84000 177.708
61.88000 146.642
61.92000 154.899
61.96000 137.032
62.00000 137.755
62.04000 135.474
62.08000 142.920
62.12000 141.657
62.16000 135.272
62.20000 130.071
62.24000 146.098
62.28000 143.164
62.32000 141.254
62.36000 141.829
62.40000 140.873
62.44000 151.757
62.48000 147.504
62.52000 144.649
62.56000 145.676
62.60000 142.518
62.64000 146.504
62.68000 152.458
62.72000 146.640
62.76000 146.490
62.80000 139.650
62.84000 138.811
62.88000 134.083
62.92000 150.211
62.96000 144.226
63.00000 146.912
63.04000 144.807
63.08000 142.093
63.12000 148.603
63.16000 133.624
63.20000 155.106
63.24000 152.985
63.28000 137.176
63.32000 144.170
63.36000 153.451
63.40000 135.956
63.44000 158.546
63.48000 155.900
63.52000 145.625
63.56000 153.808
63.60000 151.650
63.64000 153.531
63.68000 159.079
63.72000 153.463
63.76000 147.627
63.80000 154.417
63.84000 157.948
63.88000 163.663
63.92000 153.852
63.96000 159.198
64.00000 158.156
64.04000 154.074
64.08000 159.101
64.12000 154.946
64.16000 150.933
64.20000 157.306
64.24000 150.797
64.28000 157.642
64.32000 156.239
64.36000 161.990
64.40000 159.860
64.44000 166.891
64.48000 167.713
64.52000 171.264
64.56000 168.756
64.60000 176.697
64.64000 171.525
64.68000 183.042
64.72000 171.735
64.76000 162.145
64.80000 179.692
64.84000 175.775
64.88000 181.701
64.92000 181.353
64.96000 190.185
65.00000 190.725
65.04000 189.717
65.08000 186.780
65.12000 198.459
65.16000 215.987
65.20000 210.945
65.24000 210.159
65.28000 232.917
65.32000 221.275
65.36000 243.774
65.40000 240.906
65.44000 270.001
65.48000 276.813
65.52000 275.498
65.56000 298.561
65.60000 300.095
65.64000 355.420
65.68000 411.575
65.72000 580.015
65.76000 795.383
65.80000 1008.826
65.84000 1078.144
65.88000 1122.080
65.92000 1047.036
65.96000 889.720
66.00000 649.613
66.04000 458.967
66.08000 374.468
66.12000 317.643
66.16000 308.308
66.20000 322.014
66.24000 319.762
66.28000 345.066
66.32000 391.334
66.36000 432.448
66.40000 458.187
66.44000 453.161
66.48000 455.417
66.52000 408.051
66.56000 375.168
66.60000 330.926
66.64000 322.081
66.68000 323.292
66.72000 321.347
66.76000 319.264
66.80000 322.022
66.84000 321.535
66.88000 340.496
66.92000 333.818
66.96000 340.864
67.00000 362.334
67.04000 359.318
67.08000 373.591
67.12000 372.055
67.16000 371.470
67.20000 393.397
67.24000 381.490
67.28000 388.242
67.32000 383.738
67.36000 400.105
67.40000 422.049
67.44000 411.987
67.48000 416.945
67.52000 430.395
67.56000 438.370
67.60000 446.564
67.64000 439.186
67.68000 470.452
67.72000 478.491
67.76000 463.182
67.80000 483.207
67.84000 495.261
67.88000 502.468
67.92000 508.661
67.96000 509.993
68.00000 497.942
68.04000 546.840
68.08000 565.228
68.12000 568.484
68.16000 564.342
68.20000 587.218
68.24000 593.002
68.28000 632.331
68.32000 639.216
68.36000 656.496
68.40000 714.250
68.44000 714.063
68.48000 753.779
68.52000 806.638
68.56000 858.818
68.60000 979.002
68.64000 1131.466
68.68000 1290.429
68.72000 1581.659
68.76000 1773.443
68.80000 1957.032
68.84000 2365.767
68.88000 2999.208
68.92000 4929.375
68.96000 12632.811
69.00000 28455.012
69.04000 45341.813
69.08000 53585.094
69.12000 55380.840
69.16000 57564.078
69.20000 57832.293
69.24000 47748.402
69.28000 36588.691
69.32000 29923.445
69.36000 26993.908
69.40000 22428.117
69.44000 13412.439
69.48000 6355.993
69.52000 2877.990
69.56000 1859.962
69.60000 1492.600
69.64000 1243.848
69.68000 1113.133
69.72000 996.317
69.76000 914.296
69.80000 858.506
69.84000 794.496
69.88000 759.243
69.92000 726.633
69.96000 673.754
70.00000 650.780