File: XRD/25-09-2025/XY Data/BTO_Mapping_Theta2Theta_25-09-2025_001_08_27-406_12-202.xy
20.00000 559.193
20.04000 550.916
20.08000 557.136
20.12000 533.028
20.16000 554.678
20.20000 543.994
20.24000 555.020
20.28000 580.124
20.32000 560.261
20.36000 565.247
20.40000 558.250
20.44000 551.408
20.48000 536.892
20.52000 571.987
20.56000 556.250
20.60000 556.900
20.64000 527.728
20.68000 542.940
20.72000 532.332
20.76000 556.622
20.80000 555.024
20.84000 563.844
20.88000 551.106
20.92000 541.511
20.96000 563.181
21.00000 544.206
21.04000 516.873
21.08000 536.277
21.12000 547.025
21.16000 547.730
21.20000 547.191
21.24000 542.354
21.28000 558.927
21.32000 545.384
21.36000 540.882
21.40000 527.271
21.44000 534.930
21.48000 528.145
21.52000 528.036
21.56000 538.122
21.60000 535.262
21.64000 531.379
21.68000 551.201
21.72000 553.788
21.76000 556.553
21.80000 547.601
21.84000 547.332
21.88000 585.005
21.92000 577.192
21.96000 570.555
22.00000 566.835
22.04000 591.752
22.08000 593.506
22.12000 603.584
22.16000 611.490
22.20000 605.061
22.24000 611.132
22.28000 602.372
22.32000 586.208
22.36000 568.938
22.40000 570.832
22.44000 552.121
22.48000 546.867
22.52000 554.347
22.56000 533.295
22.60000 505.956
22.64000 529.865
22.68000 520.087
22.72000 502.736
22.76000 503.517
22.80000 486.127
22.84000 495.828
22.88000 492.599
22.92000 531.057
22.96000 510.873
23.00000 504.094
23.04000 496.872
23.08000 516.348
23.12000 501.225
23.16000 509.156
23.20000 513.756
23.24000 518.355
23.28000 524.361
23.32000 486.757
23.36000 488.890
23.40000 510.951
23.44000 498.501
23.48000 503.294
23.52000 511.079
23.56000 496.269
23.60000 500.287
23.64000 489.216
23.68000 491.770
23.72000 496.958
23.76000 497.045
23.80000 497.849
23.84000 508.455
23.88000 500.921
23.92000 508.056
23.96000 484.146
24.00000 482.327
24.04000 463.708
24.08000 499.749
24.12000 488.752
24.16000 471.263
24.20000 497.097
24.24000 489.484
24.28000 469.021
24.32000 489.782
24.36000 484.988
24.40000 489.389
24.44000 479.539
24.48000 478.923
24.52000 491.009
24.56000 480.704
24.60000 489.867
24.64000 473.676
24.68000 480.634
24.72000 486.588
24.76000 471.111
24.80000 478.765
24.84000 474.398
24.88000 474.897
24.92000 469.225
24.96000 478.261
25.00000 464.410
25.04000 466.779
25.08000 463.865
25.12000 463.905
25.16000 455.245
25.20000 464.425
25.24000 469.101
25.28000 464.554
25.32000 464.118
25.36000 461.243
25.40000 456.242
25.44000 476.058
25.48000 454.707
25.52000 452.628
25.56000 444.132
25.60000 455.781
25.64000 468.578
25.68000 461.322
25.72000 466.962
25.76000 447.575
25.80000 468.914
25.84000 467.780
25.88000 456.481
25.92000 452.142
25.96000 426.276
26.00000 447.454
26.04000 462.527
26.08000 459.036
26.12000 431.471
26.16000 462.799
26.20000 448.238
26.24000 446.822
26.28000 450.525
26.32000 438.318
26.36000 464.875
26.40000 437.137
26.44000 451.626
26.48000 435.371
26.52000 432.459
26.56000 442.796
26.60000 448.323
26.64000 430.824
26.68000 446.134
26.72000 452.046
26.76000 447.857
26.80000 458.982
26.84000 450.739
26.88000 446.628
26.92000 437.538
26.96000 438.116
27.00000 442.423
27.04000 412.971
27.08000 458.841
27.12000 428.549
27.16000 412.343
27.20000 437.981
27.24000 455.413
27.28000 438.287
27.32000 427.342
27.36000 429.457
27.40000 420.359
27.44000 426.372
27.48000 451.199
27.52000 448.560
27.56000 435.291
27.60000 424.426
27.64000 420.954
27.68000 429.338
27.72000 417.763
27.76000 417.628
27.80000 435.061
27.84000 426.467
27.88000 413.553
27.92000 428.671
27.96000 427.021
28.00000 417.577
28.04000 423.408
28.08000 423.240
28.12000 429.800
28.16000 427.171
28.20000 433.644
28.24000 423.461
28.28000 406.260
28.32000 418.556
28.36000 409.005
28.40000 401.830
28.44000 423.689
28.48000 418.833
28.52000 423.436
28.56000 424.305
28.60000 418.565
28.64000 407.050
28.68000 425.547
28.72000 401.387
28.76000 411.908
28.80000 423.082
28.84000 400.971
28.88000 407.025
28.92000 423.881
28.96000 418.684
29.00000 402.146
29.04000 420.929
29.08000 419.813
29.12000 398.784
29.16000 397.496
29.20000 418.518
29.24000 418.011
29.28000 419.736
29.32000 412.590
29.36000 417.694
29.40000 409.466
29.44000 390.330
29.48000 406.421
29.52000 399.363
29.56000 410.285
29.60000 404.777
29.64000 386.158
29.68000 388.693
29.72000 416.883
29.76000 406.073
29.80000 405.058
29.84000 428.012
29.88000 415.698
29.92000 411.270
29.96000 395.322
30.00000 418.763
30.04000 415.559
30.08000 417.387
30.12000 405.879
30.16000 406.240
30.20000 421.227
30.24000 403.868
30.28000 424.322
30.32000 412.326
30.36000 389.956
30.40000 402.404
30.44000 412.463
30.48000 405.978
30.52000 404.610
30.56000 411.011
30.60000 405.131
30.64000 426.598
30.68000 422.032
30.72000 420.188
30.76000 427.700
30.80000 428.379
30.84000 428.510
30.88000 447.464
30.92000 463.059
30.96000 490.005
31.00000 504.926
31.04000 521.315
31.08000 577.328
31.12000 648.418
31.16000 704.147
31.20000 807.717
31.24000 929.357
31.28000 1046.125
31.32000 1155.954
31.36000 1253.656
31.40000 1313.934
31.44000 1316.871
31.48000 1232.397
31.52000 1122.790
31.56000 1023.061
31.60000 886.450
31.64000 794.373
31.68000 697.782
31.72000 626.633
31.76000 577.045
31.80000 517.632
31.84000 481.140
31.88000 473.853
31.92000 429.087
31.96000 438.864
32.00000 429.474
32.04000 423.319
32.08000 414.189
32.12000 413.144
32.16000 394.665
32.20000 371.985
32.24000 387.064
32.28000 385.021
32.32000 378.102
32.36000 391.421
32.40000 379.906
32.44000 394.436
32.48000 368.477
32.52000 370.924
32.56000 383.718
32.60000 391.711
32.64000 352.612
32.68000 375.177
32.72000 361.739
32.76000 349.374
32.80000 357.855
32.84000 350.317
32.88000 379.029
32.92000 386.850
32.96000 362.978
33.00000 365.848
33.04000 369.197
33.08000 343.628
33.12000 336.723
33.16000 325.024
33.20000 342.728
33.24000 331.001
33.28000 345.824
33.32000 355.149
33.36000 328.098
33.40000 348.708
33.44000 338.845
33.48000 343.742
33.52000 323.650
33.56000 335.480
33.60000 348.328
33.64000 323.232
33.68000 340.472
33.72000 338.024
33.76000 341.360
33.80000 327.798
33.84000 334.543
33.88000 360.957
33.92000 324.108
33.96000 326.212
34.00000 323.500
34.04000 329.766
34.08000 325.557
34.12000 330.194
34.16000 330.060
34.20000 331.634
34.24000 316.589
34.28000 319.837
34.32000 329.614
34.36000 323.269
34.40000 324.372
34.44000 323.969
34.48000 308.018
34.52000 322.218
34.56000 323.103
34.60000 296.014
34.64000 313.532
34.68000 316.372
34.72000 323.501
34.76000 319.149
34.80000 319.027
34.84000 318.339
34.88000 317.775
34.92000 325.512
34.96000 314.325
35.00000 301.947
35.04000 310.001
35.08000 311.886
35.12000 316.608
35.16000 314.054
35.20000 328.112
35.24000 319.995
35.28000 309.316
35.32000 306.657
35.36000 324.873
35.40000 303.975
35.44000 303.423
35.48000 291.096
35.52000 299.273
35.56000 309.094
35.60000 293.158
35.64000 304.595
35.68000 296.174
35.72000 287.911
35.76000 302.695
35.80000 297.590
35.84000 298.308
35.88000 293.916
35.92000 313.279
35.96000 300.965
36.00000 297.627
36.04000 283.006
36.08000 297.294
36.12000 304.506
36.16000 303.709
36.20000 284.583
36.24000 298.893
36.28000 288.349
36.32000 302.558
36.36000 306.937
36.40000 301.949
36.44000 302.540
36.48000 295.725
36.52000 293.701
36.56000 300.522
36.60000 295.254
36.64000 306.290
36.68000 284.290
36.72000 287.930
36.76000 273.711
36.80000 287.561
36.84000 283.529
36.88000 302.776
36.92000 280.584
36.96000 309.946
37.00000 293.641
37.04000 296.059
37.08000 289.813
37.12000 288.095
37.16000 304.993
37.20000 286.586
37.24000 289.776
37.28000 281.521
37.32000 304.976
37.36000 302.365
37.40000 276.433
37.44000 281.684
37.48000 262.189
37.52000 298.909
37.56000 283.025
37.60000 290.483
37.64000 285.550
37.68000 289.071
37.72000 280.512
37.76000 273.921
37.80000 278.743
37.84000 276.361
37.88000 282.562
37.92000 274.345
37.96000 277.770
38.00000 284.413
38.04000 279.219
38.08000 276.629
38.12000 294.122
38.16000 284.144
38.20000 291.991
38.24000 303.569
38.28000 301.326
38.32000 291.372
38.36000 324.556
38.40000 318.111
38.44000 366.709
38.48000 375.303
38.52000 427.852
38.56000 465.938
38.60000 526.233
38.64000 590.472
38.68000 653.733
38.72000 654.229
38.76000 612.712
38.80000 568.916
38.84000 511.287
38.88000 486.436
38.92000 425.267
38.96000 363.238
39.00000 323.883
39.04000 314.580
39.08000 303.978
39.12000 299.045
39.16000 283.048
39.20000 282.527
39.24000 287.967
39.28000 258.094
39.32000 270.627
39.36000 266.494
39.40000 282.444
39.44000 275.706
39.48000 253.918
39.52000 265.450
39.56000 259.399
39.60000 264.353
39.64000 267.757
39.68000 268.599
39.72000 263.135
39.76000 250.622
39.80000 249.395
39.84000 252.373
39.88000 249.164
39.92000 267.355
39.96000 268.952
40.00000 249.589
40.04000 240.087
40.08000 251.134
40.12000 245.622
40.16000 261.481
40.20000 262.719
40.24000 254.857
40.28000 243.515
40.32000 260.474
40.36000 252.387
40.40000 253.893
40.44000 248.078
40.48000 257.046
40.52000 247.029
40.56000 252.159
40.60000 244.800
40.64000 253.192
40.68000 255.668
40.72000 264.133
40.76000 240.554
40.80000 243.812
40.84000 241.430
40.88000 245.685
40.92000 249.646
40.96000 235.816
41.00000 236.418
41.04000 240.563
41.08000 241.326
41.12000 236.226
41.16000 245.179
41.20000 242.920
41.24000 248.514
41.28000 227.923
41.32000 231.028
41.36000 245.586
41.40000 231.490
41.44000 238.993
41.48000 235.560
41.52000 236.061
41.56000 231.634
41.60000 233.787
41.64000 242.800
41.68000 242.809
41.72000 235.338
41.76000 243.982
41.80000 238.938
41.84000 237.629
41.88000 238.674
41.92000 232.649
41.96000 230.167
42.00000 238.396
42.04000 242.276
42.08000 226.816
42.12000 224.851
42.16000 229.002
42.20000 236.803
42.24000 241.530
42.28000 237.338
42.32000 227.665
42.36000 220.032
42.40000 229.339
42.44000 235.701
42.48000 222.120
42.52000 227.659
42.56000 224.248
42.60000 234.337
42.64000 231.840
42.68000 243.766
42.72000 232.917
42.76000 227.668
42.80000 219.238
42.84000 216.134
42.88000 229.284
42.92000 229.215
42.96000 224.432
43.00000 225.998
43.04000 218.072
43.08000 227.230
43.12000 229.540
43.16000 221.005
43.20000 228.067
43.24000 216.991
43.28000 219.987
43.32000 222.224
43.36000 224.657
43.40000 231.086
43.44000 225.518
43.48000 224.867
43.52000 216.434
43.56000 220.708
43.60000 218.689
43.64000 226.624
43.68000 215.178
43.72000 206.344
43.76000 203.185
43.80000 215.360
43.84000 216.862
43.88000 213.769
43.92000 221.470
43.96000 214.627
44.00000 234.653
44.04000 213.187
44.08000 217.744
44.12000 218.805
44.16000 219.769
44.20000 209.905
44.24000 220.424
44.28000 215.287
44.32000 220.494
44.36000 206.434
44.40000 218.688
44.44000 226.577
44.48000 223.379
44.52000 222.839
44.56000 223.830
44.60000 212.101
44.64000 214.626
44.68000 212.671
44.72000 228.099
44.76000 219.703
44.80000 232.510
44.84000 242.265
44.88000 225.132
44.92000 219.303
44.96000 230.997
45.00000 235.953
45.04000 247.123
45.08000 262.547
45.12000 256.023
45.16000 247.203
45.20000 244.752
45.24000 255.484
45.28000 243.329
45.32000 248.980
45.36000 255.148
45.40000 249.345
45.44000 254.478
45.48000 267.693
45.52000 253.380
45.56000 244.746
45.60000 255.503
45.64000 237.821
45.68000 235.756
45.72000 245.158
45.76000 239.499
45.80000 240.224
45.84000 212.830
45.88000 225.843
45.92000 209.743
45.96000 215.051
46.00000 226.089
46.04000 214.162
46.08000 206.552
46.12000 202.631
46.16000 206.191
46.20000 208.246
46.24000 199.312
46.28000 201.980
46.32000 188.823
46.36000 193.855
46.40000 199.296
46.44000 195.099
46.48000 197.374
46.52000 198.953
46.56000 195.378
46.60000 200.800
46.64000 181.544
46.68000 204.821
46.72000 202.197
46.76000 199.713
46.80000 198.840
46.84000 201.184
46.88000 198.240
46.92000 189.836
46.96000 197.861
47.00000 200.861
47.04000 190.382
47.08000 193.345
47.12000 195.940
47.16000 205.215
47.20000 188.153
47.24000 198.277
47.28000 210.007
47.32000 192.906
47.36000 192.389
47.40000 182.163
47.44000 179.352
47.48000 189.877
47.52000 186.833
47.56000 196.510
47.60000 197.184
47.64000 195.589
47.68000 178.250
47.72000 182.739
47.76000 182.864
47.80000 186.252
47.84000 191.260
47.88000 185.651
47.92000 189.782
47.96000 186.439
48.00000 178.201
48.04000 185.870
48.08000 176.800
48.12000 181.614
48.16000 177.928
48.20000 171.746
48.24000 182.812
48.28000 166.988
48.32000 180.403
48.36000 190.259
48.40000 171.832
48.44000 176.089
48.48000 186.426
48.52000 181.932
48.56000 182.520
48.60000 172.750
48.64000 179.675
48.68000 188.714
48.72000 172.198
48.76000 178.546
48.80000 167.548
48.84000 175.643
48.88000 169.265
48.92000 168.334
48.96000 176.837
49.00000 183.381
49.04000 175.962
49.08000 175.100
49.12000 190.510
49.16000 199.242
49.20000 182.351
49.24000 177.901
49.28000 166.812
49.32000 187.732
49.36000 184.903
49.40000 175.012
49.44000 171.489
49.48000 172.344
49.52000 160.502
49.56000 169.633
49.60000 176.437
49.64000 177.848
49.68000 171.749
49.72000 178.221
49.76000 172.738
49.80000 176.221
49.84000 182.116
49.88000 169.798
49.92000 179.192
49.96000 168.898
50.00000 167.434
50.04000 162.076
50.08000 173.665
50.12000 171.476
50.16000 188.579
50.20000 187.621
50.24000 173.047
50.28000 164.689
50.32000 177.121
50.36000 171.530
50.40000 162.106
50.44000 178.124
50.48000 176.556
50.52000 181.822
50.56000 170.154
50.60000 187.064
50.64000 177.616
50.68000 170.626
50.72000 168.868
50.76000 179.179
50.80000 196.700
50.84000 171.949
50.88000 180.144
50.92000 170.157
50.96000 169.422
51.00000 179.324
51.04000 184.709
51.08000 160.005
51.12000 177.149
51.16000 163.877
51.20000 168.719
51.24000 166.735
51.28000 167.869
51.32000 166.119
51.36000 176.375
51.40000 151.924
51.44000 153.280
51.48000 159.432
51.52000 163.018
51.56000 178.158
51.60000 161.919
51.64000 160.459
51.68000 158.235
51.72000 151.742
51.76000 165.855
51.80000 181.558
51.84000 166.455
51.88000 157.161
51.92000 156.282
51.96000 172.084
52.00000 160.296
52.04000 159.579
52.08000 154.687
52.12000 163.747
52.16000 167.972
52.20000 160.330
52.24000 159.544
52.28000 158.915
52.32000 164.888
52.36000 159.584
52.40000 152.386
52.44000 146.429
52.48000 160.050
52.52000 163.538
52.56000 151.612
52.60000 157.573
52.64000 155.365
52.68000 161.370
52.72000 155.353
52.76000 149.349
52.80000 158.067
52.84000 157.735
52.88000 161.918
52.92000 162.074
52.96000 153.482
53.00000 159.089
53.04000 151.733
53.08000 166.559
53.12000 160.944
53.16000 160.956
53.20000 153.100
53.24000 165.220
53.28000 165.563
53.32000 158.057
53.36000 149.438
53.40000 156.664
53.44000 153.825
53.48000 154.095
53.52000 159.357
53.56000 159.820
53.60000 156.979
53.64000 158.900
53.68000 153.754
53.72000 154.423
53.76000 152.997
53.80000 143.077
53.84000 152.790
53.88000 153.058
53.92000 148.188
53.96000 148.206
54.00000 153.057
54.04000 157.293
54.08000 150.221
54.12000 154.138
54.16000 150.248
54.20000 164.244
54.24000 152.382
54.28000 150.713
54.32000 146.028
54.36000 157.336
54.40000 170.810
54.44000 162.438
54.48000 158.253
54.52000 152.063
54.56000 148.691
54.60000 158.335
54.64000 149.175
54.68000 153.268
54.72000 147.932
54.76000 155.987
54.80000 153.507
54.84000 157.053
54.88000 155.482
54.92000 158.828
54.96000 152.895
55.00000 147.212
55.04000 146.629
55.08000 163.558
55.12000 156.552
55.16000 160.967
55.20000 168.316
55.24000 164.846
55.28000 163.110
55.32000 162.874
55.36000 168.929
55.40000 172.128
55.44000 160.972
55.48000 182.588
55.52000 192.983
55.56000 193.132
55.60000 198.322
55.64000 208.832
55.68000 227.193
55.72000 239.154
55.76000 259.018
55.80000 277.965
55.84000 295.005
55.88000 303.703
55.92000 313.328
55.96000 322.025
56.00000 316.908
56.04000 304.637
56.08000 286.915
56.12000 284.263
56.16000 253.768
56.20000 235.284
56.24000 211.930
56.28000 216.442
56.32000 193.602
56.36000 195.989
56.40000 188.033
56.44000 170.236
56.48000 173.786
56.52000 167.577
56.56000 163.974
56.60000 154.231
56.64000 155.431
56.68000 148.632
56.72000 150.461
56.76000 154.034
56.80000 143.165
56.84000 146.522
56.88000 149.810
56.92000 147.016
56.96000 151.278
57.00000 143.535
57.04000 148.225
57.08000 150.884
57.12000 135.282
57.16000 149.692
57.20000 146.282
57.24000 145.509
57.28000 137.906
57.32000 140.531
57.36000 141.910
57.40000 135.342
57.44000 147.178
57.48000 130.464
57.52000 138.117
57.56000 142.611
57.60000 155.634
57.64000 146.847
57.68000 141.179
57.72000 129.916
57.76000 137.298
57.80000 134.904
57.84000 150.135
57.88000 136.441
57.92000 139.904
57.96000 143.701
58.00000 139.981
58.04000 137.716
58.08000 137.191
58.12000 141.446
58.16000 142.601
58.20000 136.650
58.24000 139.629
58.28000 133.694
58.32000 144.175
58.36000 142.815
58.40000 138.271
58.44000 141.712
58.48000 141.936
58.52000 131.663
58.56000 138.658
58.60000 131.400
58.64000 132.195
58.68000 140.358
58.72000 137.671
58.76000 137.313
58.80000 134.511
58.84000 137.297
58.88000 138.568
58.92000 138.278
58.96000 130.925
59.00000 136.875
59.04000 140.683
59.08000 119.936
59.12000 134.827
59.16000 138.874
59.20000 132.825
59.24000 127.263
59.28000 133.486
59.32000 139.615
59.36000 137.712
59.40000 134.049
59.44000 132.411
59.48000 144.142
59.52000 131.473
59.56000 130.434
59.60000 129.674
59.64000 138.073
59.68000 133.480
59.72000 139.067
59.76000 131.474
59.80000 132.730
59.84000 131.896
59.88000 127.080
59.92000 137.599
59.96000 137.629
60.00000 133.780
60.04000 131.299
60.08000 126.135
60.12000 134.256
60.16000 131.820
60.20000 139.214
60.24000 139.504
60.28000 131.752
60.32000 121.633
60.36000 136.430
60.40000 142.008
60.44000 136.721
60.48000 124.628
60.52000 132.399
60.56000 136.350
60.60000 122.780
60.64000 136.624
60.68000 134.144
60.72000 135.804
60.76000 128.213
60.80000 132.718
60.84000 134.525
60.88000 137.172
60.92000 139.031
60.96000 139.045
61.00000 133.144
61.04000 134.711
61.08000 137.591
61.12000 143.087
61.16000 142.477
61.20000 139.235
61.24000 147.866
61.28000 134.782
61.32000 141.958
61.36000 132.584
61.40000 143.031
61.44000 136.148
61.48000 150.091
61.52000 149.625
61.56000 182.801
61.60000 214.990
61.64000 258.816
61.68000 269.279
61.72000 265.988
61.76000 264.489
61.80000 221.084
61.84000 170.447
61.88000 155.082
61.92000 147.300
61.96000 135.896
62.00000 139.799
62.04000 144.849
62.08000 141.059
62.12000 136.871
62.16000 137.938
62.20000 144.195
62.24000 149.024
62.28000 153.399
62.32000 137.962
62.36000 135.333
62.40000 137.767
62.44000 139.607
62.48000 136.252
62.52000 138.408
62.56000 147.887
62.60000 136.899
62.64000 138.252
62.68000 139.431
62.72000 140.604
62.76000 137.567
62.80000 137.119
62.84000 145.152
62.88000 150.957
62.92000 140.264
62.96000 147.955
63.00000 150.769
63.04000 148.508
63.08000 146.719
63.12000 152.284
63.16000 148.041
63.20000 143.775
63.24000 147.147
63.28000 152.070
63.32000 142.508
63.36000 146.510
63.40000 147.383
63.44000 143.516
63.48000 155.668
63.52000 151.972
63.56000 151.258
63.60000 144.739
63.64000 145.986
63.68000 148.987
63.72000 152.150
63.76000 156.427
63.80000 153.821
63.84000 153.412
63.88000 159.128
63.92000 163.774
63.96000 155.989
64.00000 162.099
64.04000 158.462
64.08000 155.592
64.12000 145.172
64.16000 155.991
64.20000 160.837
64.24000 166.480
64.28000 150.872
64.32000 162.974
64.36000 166.757
64.40000 164.830
64.44000 162.033
64.48000 159.000
64.52000 168.589
64.56000 171.996
64.60000 181.232
64.64000 175.095
64.68000 166.439
64.72000 173.697
64.76000 182.411
64.80000 177.806
64.84000 182.934
64.88000 182.546
64.92000 173.693
64.96000 184.959
65.00000 178.501
65.04000 204.685
65.08000 202.004
65.12000 203.699
65.16000 200.932
65.20000 212.904
65.24000 212.415
65.28000 223.644
65.32000 210.877
65.36000 227.607
65.40000 251.232
65.44000 252.585
65.48000 266.284
65.52000 271.893
65.56000 277.151
65.60000 291.551
65.64000 321.687
65.68000 386.219
65.72000 497.466
65.76000 709.303
65.80000 893.223
65.84000 1041.467
65.88000 1037.230
65.92000 1012.049
65.96000 900.408
66.00000 683.649
66.04000 481.199
66.08000 356.564
66.12000 329.564
66.16000 301.154
66.20000 310.189
66.24000 323.771
66.28000 331.505
66.32000 375.252
66.36000 421.016
66.40000 457.544
66.44000 426.124
66.48000 440.184
66.52000 421.856
66.56000 368.929
66.60000 338.493
66.64000 335.563
66.68000 320.962
66.72000 339.344
66.76000 325.393
66.80000 342.957
66.84000 338.819
66.88000 336.464
66.92000 319.227
66.96000 339.055
67.00000 353.672
67.04000 351.472
67.08000 357.262
67.12000 369.145
67.16000 367.875
67.20000 381.429
67.24000 380.391
67.28000 388.235
67.32000 404.003
67.36000 396.966
67.40000 416.303
67.44000 412.546
67.48000 444.710
67.52000 432.343
67.56000 433.901
67.60000 448.362
67.64000 452.175
67.68000 460.468
67.72000 460.885
67.76000 454.479
67.80000 490.345
67.84000 501.573
67.88000 479.030
67.92000 500.039
67.96000 519.832
68.00000 540.838
68.04000 534.013
68.08000 555.532
68.12000 581.857
68.16000 590.606
68.20000 593.539
68.24000 621.163
68.28000 623.319
68.32000 645.232
68.36000 686.414
68.40000 684.620
68.44000 712.703
68.48000 759.774
68.52000 796.499
68.56000 837.488
68.60000 923.013
68.64000 1075.705
68.68000 1233.234
68.72000 1463.081
68.76000 1632.139
68.80000 1848.626
68.84000 2097.715
68.88000 2532.861
68.92000 3921.635
68.96000 9577.350
69.00000 23493.816
69.04000 40655.949
69.08000 50670.145
69.12000 53103.887
69.16000 55138.883
69.20000 56475.000
69.24000 49271.027
69.28000 37089.121
69.32000 29635.885
69.36000 26639.531
69.40000 22986.465
69.44000 15099.771
69.48000 7154.800
69.52000 3098.539
69.56000 1897.744
69.60000 1489.917
69.64000 1251.830
69.68000 1117.213
69.72000 987.933
69.76000 926.635
69.80000 849.618
69.84000 780.926
69.88000 757.623
69.92000 694.634
69.96000 690.177
70.00000 671.855