File: XRD/25-09-2025/XY Data/BTO_Mapping_Theta2Theta_25-09-2025_001_43_-10-000_-17-321.xy
20.00000 541.586
20.04000 559.997
20.08000 547.352
20.12000 548.638
20.16000 549.666
20.20000 573.480
20.24000 561.394
20.28000 539.727
20.32000 536.412
20.36000 556.404
20.40000 552.721
20.44000 554.007
20.48000 558.548
20.52000 558.891
20.56000 544.853
20.60000 547.858
20.64000 525.034
20.68000 539.326
20.72000 554.360
20.76000 555.202
20.80000 550.284
20.84000 561.917
20.88000 530.079
20.92000 569.582
20.96000 542.468
21.00000 549.042
21.04000 544.594
21.08000 542.469
21.12000 557.566
21.16000 548.329
21.20000 547.087
21.24000 546.018
21.28000 545.090
21.32000 539.830
21.36000 529.748
21.40000 538.272
21.44000 537.857
21.48000 545.134
21.52000 548.857
21.56000 552.204
21.60000 554.051
21.64000 571.224
21.68000 567.978
21.72000 585.767
21.76000 582.687
21.80000 601.509
21.84000 615.138
21.88000 654.129
21.92000 693.221
21.96000 744.559
22.00000 745.688
22.04000 739.671
22.08000 759.395
22.12000 748.043
22.16000 698.701
22.20000 683.398
22.24000 687.749
22.28000 644.685
22.32000 618.724
22.36000 613.371
22.40000 587.621
22.44000 583.620
22.48000 588.221
22.52000 554.030
22.56000 551.931
22.60000 535.234
22.64000 528.237
22.68000 530.856
22.72000 525.915
22.76000 528.513
22.80000 526.570
22.84000 531.949
22.88000 515.842
22.92000 502.195
22.96000 510.065
23.00000 522.461
23.04000 480.817
23.08000 492.062
23.12000 492.333
23.16000 504.584
23.20000 493.470
23.24000 507.369
23.28000 504.653
23.32000 499.862
23.36000 501.954
23.40000 500.170
23.44000 468.437
23.48000 509.604
23.52000 496.730
23.56000 481.929
23.60000 493.820
23.64000 499.687
23.68000 492.723
23.72000 487.167
23.76000 494.008
23.80000 495.398
23.84000 484.413
23.88000 485.604
23.92000 505.083
23.96000 479.232
24.00000 491.981
24.04000 490.428
24.08000 502.798
24.12000 501.332
24.16000 480.293
24.20000 485.518
24.24000 466.996
24.28000 488.503
24.32000 488.999
24.36000 473.059
24.40000 482.189
24.44000 473.419
24.48000 470.424
24.52000 465.647
24.56000 487.598
24.60000 479.007
24.64000 502.391
24.68000 498.998
24.72000 475.451
24.76000 479.652
24.80000 488.241
24.84000 474.601
24.88000 468.070
24.92000 473.668
24.96000 484.155
25.00000 470.668
25.04000 475.864
25.08000 479.125
25.12000 461.316
25.16000 460.123
25.20000 472.024
25.24000 483.419
25.28000 459.267
25.32000 463.577
25.36000 470.430
25.40000 453.412
25.44000 461.845
25.48000 481.991
25.52000 467.387
25.56000 463.533
25.60000 445.535
25.64000 458.668
25.68000 451.073
25.72000 466.187
25.76000 452.803
25.80000 440.869
25.84000 447.858
25.88000 459.405
25.92000 441.366
25.96000 445.529
26.00000 443.559
26.04000 440.054
26.08000 449.269
26.12000 459.933
26.16000 439.052
26.20000 449.109
26.24000 447.156
26.28000 462.605
26.32000 436.450
26.36000 453.073
26.40000 458.657
26.44000 449.407
26.48000 437.221
26.52000 445.175
26.56000 432.662
26.60000 449.909
26.64000 440.714
26.68000 434.336
26.72000 443.817
26.76000 433.462
26.80000 451.508
26.84000 439.839
26.88000 440.714
26.92000 450.999
26.96000 434.942
27.00000 432.472
27.04000 414.680
27.08000 432.523
27.12000 420.418
27.16000 455.396
27.20000 444.171
27.24000 426.817
27.28000 425.678
27.32000 424.831
27.36000 424.084
27.40000 424.442
27.44000 434.326
27.48000 434.485
27.52000 430.103
27.56000 445.830
27.60000 424.666
27.64000 439.975
27.68000 430.477
27.72000 432.566
27.76000 409.720
27.80000 422.386
27.84000 431.739
27.88000 419.552
27.92000 412.806
27.96000 426.834
28.00000 420.529
28.04000 434.261
28.08000 402.427
28.12000 422.739
28.16000 419.325
28.20000 448.146
28.24000 423.961
28.28000 421.889
28.32000 408.274
28.36000 409.463
28.40000 438.538
28.44000 414.866
28.48000 397.159
28.52000 410.721
28.56000 409.711
28.60000 415.498
28.64000 401.692
28.68000 418.241
28.72000 396.608
28.76000 397.374
28.80000 413.773
28.84000 415.995
28.88000 419.720
28.92000 402.969
28.96000 409.791
29.00000 403.042
29.04000 406.976
29.08000 402.334
29.12000 408.340
29.16000 395.027
29.20000 405.826
29.24000 421.520
29.28000 404.312
29.32000 392.197
29.36000 408.706
29.40000 396.349
29.44000 416.976
29.48000 411.268
29.52000 413.142
29.56000 398.823
29.60000 391.136
29.64000 404.553
29.68000 399.401
29.72000 398.946
29.76000 406.643
29.80000 418.157
29.84000 421.702
29.88000 416.671
29.92000 422.387
29.96000 420.578
30.00000 415.764
30.04000 410.031
30.08000 432.546
30.12000 427.347
30.16000 423.929
30.20000 435.793
30.24000 405.769
30.28000 408.657
30.32000 409.286
30.36000 431.682
30.40000 402.548
30.44000 402.978
30.48000 412.539
30.52000 404.192
30.56000 401.947
30.60000 430.196
30.64000 423.012
30.68000 437.802
30.72000 428.434
30.76000 423.512
30.80000 424.160
30.84000 457.136
30.88000 461.627
30.92000 481.638
30.96000 532.718
31.00000 556.182
31.04000 667.491
31.08000 790.629
31.12000 938.315
31.16000 1131.050
31.20000 1374.588
31.24000 1646.562
31.28000 1918.884
31.32000 2084.514
31.36000 2169.283
31.40000 2167.108
31.44000 2083.657
31.48000 1859.492
31.52000 1658.549
31.56000 1395.751
31.60000 1165.232
31.64000 987.181
31.68000 817.053
31.72000 719.199
31.76000 609.354
31.80000 550.366
31.84000 516.388
31.88000 476.836
31.92000 475.468
31.96000 424.384
32.00000 433.663
32.04000 407.492
32.08000 399.259
32.12000 390.735
32.16000 389.200
32.20000 369.921
32.24000 395.444
32.28000 390.245
32.32000 382.019
32.36000 384.494
32.40000 376.030
32.44000 378.002
32.48000 373.378
32.52000 363.363
32.56000 363.368
32.60000 373.982
32.64000 355.863
32.68000 373.520
32.72000 376.093
32.76000 368.521
32.80000 369.131
32.84000 355.985
32.88000 387.520
32.92000 378.827
32.96000 390.012
33.00000 373.042
33.04000 361.605
33.08000 362.672
33.12000 362.195
33.16000 341.633
33.20000 346.443
33.24000 344.830
33.28000 343.119
33.32000 337.765
33.36000 327.501
33.40000 349.672
33.44000 331.030
33.48000 341.126
33.52000 346.913
33.56000 340.265
33.60000 351.180
33.64000 330.884
33.68000 311.252
33.72000 337.761
33.76000 336.389
33.80000 323.794
33.84000 321.027
33.88000 325.040
33.92000 332.890
33.96000 319.671
34.00000 337.843
34.04000 332.508
34.08000 331.660
34.12000 325.082
34.16000 320.871
34.20000 308.837
34.24000 321.095
34.28000 324.112
34.32000 328.821
34.36000 318.995
34.40000 330.552
34.44000 325.174
34.48000 315.104
34.52000 324.012
34.56000 314.606
34.60000 362.751
34.64000 325.474
34.68000 332.133
34.72000 328.284
34.76000 299.110
34.80000 308.586
34.84000 321.978
34.88000 312.971
34.92000 327.161
34.96000 317.021
35.00000 319.584
35.04000 322.650
35.08000 305.913
35.12000 296.293
35.16000 295.151
35.20000 294.729
35.24000 318.743
35.28000 314.392
35.32000 302.024
35.36000 302.632
35.40000 304.286
35.44000 313.921
35.48000 312.396
35.52000 290.852
35.56000 295.302
35.60000 306.948
35.64000 297.917
35.68000 302.034
35.72000 297.021
35.76000 308.507
35.80000 316.028
35.84000 303.730
35.88000 304.238
35.92000 308.302
35.96000 301.553
36.00000 302.432
36.04000 297.103
36.08000 312.755
36.12000 294.976
36.16000 296.097
36.20000 298.042
36.24000 295.161
36.28000 305.960
36.32000 283.064
36.36000 288.821
36.40000 300.282
36.44000 288.296
36.48000 283.821
36.52000 274.660
36.56000 287.047
36.60000 299.608
36.64000 296.783
36.68000 312.673
36.72000 284.462
36.76000 301.454
36.80000 277.244
36.84000 298.210
36.88000 287.016
36.92000 294.168
36.96000 303.236
37.00000 310.680
37.04000 281.848
37.08000 290.685
37.12000 275.699
37.16000 302.529
37.20000 295.940
37.24000 303.703
37.28000 283.818
37.32000 293.185
37.36000 284.466
37.40000 279.953
37.44000 289.194
37.48000 286.627
37.52000 293.606
37.56000 281.964
37.60000 282.927
37.64000 289.818
37.68000 279.060
37.72000 274.458
37.76000 278.017
37.80000 274.006
37.84000 282.113
37.88000 275.106
37.92000 290.838
37.96000 288.433
38.00000 284.965
38.04000 280.595
38.08000 290.152
38.12000 281.338
38.16000 284.915
38.20000 304.533
38.24000 320.861
38.28000 291.375
38.32000 305.956
38.36000 338.401
38.40000 366.709
38.44000 386.684
38.48000 417.856
38.52000 474.932
38.56000 516.106
38.60000 559.963
38.64000 602.115
38.68000 611.552
38.72000 615.724
38.76000 600.771
38.80000 536.587
38.84000 523.757
38.88000 459.602
38.92000 426.011
38.96000 398.232
39.00000 340.091
39.04000 322.325
39.08000 303.934
39.12000 286.711
39.16000 270.010
39.20000 263.386
39.24000 268.390
39.28000 269.579
39.32000 284.827
39.36000 264.711
39.40000 280.733
39.44000 269.263
39.48000 278.216
39.52000 265.892
39.56000 269.043
39.60000 264.046
39.64000 261.494
39.68000 260.324
39.72000 255.909
39.76000 251.180
39.80000 252.956
39.84000 266.484
39.88000 239.372
39.92000 255.393
39.96000 248.083
40.00000 269.837
40.04000 247.328
40.08000 249.360
40.12000 246.196
40.16000 251.097
40.20000 262.960
40.24000 252.924
40.28000 256.483
40.32000 242.135
40.36000 261.287
40.40000 252.992
40.44000 251.379
40.48000 246.265
40.52000 255.131
40.56000 248.538
40.60000 238.334
40.64000 255.102
40.68000 239.995
40.72000 258.784
40.76000 253.291
40.80000 235.167
40.84000 246.737
40.88000 246.376
40.92000 242.484
40.96000 241.642
41.00000 251.512
41.04000 239.222
41.08000 235.941
41.12000 238.383
41.16000 226.799
41.20000 226.003
41.24000 242.792
41.28000 251.346
41.32000 245.414
41.36000 242.614
41.40000 247.761
41.44000 228.100
41.48000 233.159
41.52000 229.179
41.56000 239.191
41.60000 231.750
41.64000 234.125
41.68000 237.847
41.72000 232.117
41.76000 238.953
41.80000 240.965
41.84000 237.459
41.88000 236.881
41.92000 224.917
41.96000 228.634
42.00000 235.862
42.04000 237.746
42.08000 232.646
42.12000 221.742
42.16000 228.874
42.20000 226.962
42.24000 239.467
42.28000 240.320
42.32000 237.372
42.36000 233.266
42.40000 242.000
42.44000 222.467
42.48000 226.764
42.52000 226.969
42.56000 223.998
42.60000 249.694
42.64000 228.204
42.68000 231.718
42.72000 224.119
42.76000 236.408
42.80000 232.073
42.84000 221.907
42.88000 221.842
42.92000 218.104
42.96000 218.814
43.00000 225.971
43.04000 228.412
43.08000 222.213
43.12000 225.556
43.16000 226.139
43.20000 219.005
43.24000 231.224
43.28000 227.986
43.32000 226.812
43.36000 225.446
43.40000 219.158
43.44000 229.709
43.48000 232.832
43.52000 237.818
43.56000 216.081
43.60000 217.286
43.64000 223.619
43.68000 222.461
43.72000 216.216
43.76000 229.648
43.80000 211.762
43.84000 214.806
43.88000 210.686
43.92000 209.527
43.96000 219.923
44.00000 217.663
44.04000 214.131
44.08000 224.017
44.12000 231.390
44.16000 217.990
44.20000 229.210
44.24000 219.366
44.28000 214.760
44.32000 211.323
44.36000 222.220
44.40000 224.051
44.44000 221.044
44.48000 227.614
44.52000 220.472
44.56000 235.908
44.60000 246.257
44.64000 246.992
44.68000 264.331
44.72000 280.556
44.76000 281.411
44.80000 295.055
44.84000 302.404
44.88000 332.667
44.92000 339.219
44.96000 357.242
45.00000 357.767
45.04000 366.542
45.08000 358.791
45.12000 347.241
45.16000 336.638
45.20000 351.416
45.24000 319.838
45.28000 319.473
45.32000 310.361
45.36000 301.355
45.40000 290.394
45.44000 279.543
45.48000 268.097
45.52000 279.796
45.56000 258.225
45.60000 274.555
45.64000 246.328
45.68000 246.851
45.72000 254.682
45.76000 240.704
45.80000 236.410
45.84000 239.851
45.88000 219.850
45.92000 227.634
45.96000 229.599
46.00000 222.230
46.04000 227.961
46.08000 216.462
46.12000 192.790
46.16000 220.808
46.20000 221.609
46.24000 213.945
46.28000 210.738
46.32000 195.964
46.36000 199.542
46.40000 207.797
46.44000 195.170
46.48000 191.415
46.52000 208.781
46.56000 193.874
46.60000 193.728
46.64000 192.758
46.68000 193.901
46.72000 189.407
46.76000 197.344
46.80000 191.936
46.84000 200.389
46.88000 190.628
46.92000 191.695
46.96000 201.082
47.00000 199.474
47.04000 192.160
47.08000 192.523
47.12000 195.975
47.16000 187.946
47.20000 183.334
47.24000 211.609
47.28000 181.221
47.32000 183.148
47.36000 205.514
47.40000 187.627
47.44000 188.727
47.48000 174.934
47.52000 187.181
47.56000 185.376
47.60000 183.795
47.64000 195.841
47.68000 177.717
47.72000 186.243
47.76000 187.237
47.80000 182.066
47.84000 176.915
47.88000 178.120
47.92000 184.534
47.96000 187.905
48.00000 179.250
48.04000 189.813
48.08000 186.426
48.12000 170.947
48.16000 180.247
48.20000 195.648
48.24000 193.924
48.28000 190.667
48.32000 181.783
48.36000 181.806
48.40000 178.863
48.44000 175.155
48.48000 193.039
48.52000 180.544
48.56000 180.545
48.60000 174.956
48.64000 177.350
48.68000 184.352
48.72000 179.773
48.76000 173.295
48.80000 170.801
48.84000 171.984
48.88000 195.733
48.92000 176.803
48.96000 172.612
49.00000 190.586
49.04000 181.071
49.08000 178.885
49.12000 194.406
49.16000 174.835
49.20000 169.439
49.24000 164.912
49.28000 169.705
49.32000 166.626
49.36000 185.363
49.40000 168.674
49.44000 174.233
49.48000 168.560
49.52000 175.795
49.56000 178.630
49.60000 180.345
49.64000 170.491
49.68000 158.999
49.72000 174.046
49.76000 181.585
49.80000 172.211
49.84000 173.955
49.88000 174.219
49.92000 170.840
49.96000 173.901
50.00000 169.782
50.04000 180.465
50.08000 173.874
50.12000 178.515
50.16000 173.135
50.20000 177.621
50.24000 175.985
50.28000 184.270
50.32000 186.108
50.36000 193.928
50.40000 195.776
50.44000 217.011
50.48000 196.029
50.52000 220.094
50.56000 223.892
50.60000 228.053
50.64000 229.137
50.68000 223.555
50.72000 211.913
50.76000 221.841
50.80000 213.088
50.84000 211.147
50.88000 214.438
50.92000 195.597
50.96000 203.910
51.00000 200.781
51.04000 187.840
51.08000 186.387
51.12000 173.542
51.16000 185.047
51.20000 171.643
51.24000 175.584
51.28000 170.401
51.32000 170.165
51.36000 180.906
51.40000 167.618
51.44000 164.686
51.48000 159.361
51.52000 153.335
51.56000 172.911
51.60000 163.257
51.64000 155.160
51.68000 170.443
51.72000 152.968
51.76000 164.928
51.80000 164.099
51.84000 164.613
51.88000 165.084
51.92000 155.570
51.96000 159.460
52.00000 156.211
52.04000 156.676
52.08000 155.725
52.12000 162.426
52.16000 160.286
52.20000 157.681
52.24000 153.011
52.28000 153.477
52.32000 161.800
52.36000 154.035
52.40000 163.816
52.44000 164.744
52.48000 145.233
52.52000 161.080
52.56000 161.021
52.60000 154.999
52.64000 162.983
52.68000 156.353
52.72000 162.397
52.76000 165.347
52.80000 165.922
52.84000 147.766
52.88000 154.241
52.92000 152.468
52.96000 147.650
53.00000 154.112
53.04000 157.752
53.08000 166.756
53.12000 154.269
53.16000 149.182
53.20000 159.110
53.24000 155.981
53.28000 161.207
53.32000 151.114
53.36000 167.961
53.40000 155.421
53.44000 151.354
53.48000 140.772
53.52000 160.478
53.56000 136.052
53.60000 156.854
53.64000 160.407
53.68000 150.249
53.72000 153.623
53.76000 155.387
53.80000 159.809
53.84000 158.187
53.88000 153.710
53.92000 158.922
53.96000 143.844
54.00000 168.555
54.04000 151.186
54.08000 148.508
54.12000 145.967
54.16000 152.310
54.20000 158.258
54.24000 146.895
54.28000 155.320
54.32000 158.503
54.36000 153.909
54.40000 143.151
54.44000 156.721
54.48000 149.553
54.52000 141.786
54.56000 156.631
54.60000 141.028
54.64000 150.196
54.68000 157.333
54.72000 163.922
54.76000 152.142
54.80000 148.261
54.84000 157.512
54.88000 164.789
54.92000 151.247
54.96000 141.664
55.00000 162.765
55.04000 151.556
55.08000 157.217
55.12000 163.277
55.16000 159.031
55.20000 155.594
55.24000 159.692
55.28000 167.104
55.32000 170.015
55.36000 171.857
55.40000 188.550
55.44000 181.899
55.48000 196.879
55.52000 207.170
55.56000 218.730
55.60000 237.744
55.64000 276.535
55.68000 302.468
55.72000 326.301
55.76000 355.852
55.80000 389.275
55.84000 382.279
55.88000 400.262
55.92000 414.673
55.96000 401.758
56.00000 384.828
56.04000 345.272
56.08000 359.854
56.12000 324.259
56.16000 292.491
56.20000 269.534
56.24000 246.938
56.28000 228.467
56.32000 215.977
56.36000 205.146
56.40000 188.046
56.44000 188.382
56.48000 186.605
56.52000 176.089
56.56000 161.451
56.60000 168.362
56.64000 165.301
56.68000 162.532
56.72000 155.157
56.76000 150.349
56.80000 156.879
56.84000 155.414
56.88000 148.428
56.92000 151.294
56.96000 152.372
57.00000 138.902
57.04000 135.882
57.08000 146.400
57.12000 146.406
57.16000 150.843
57.20000 142.764
57.24000 150.784
57.28000 145.072
57.32000 136.954
57.36000 143.903
57.40000 139.489
57.44000 139.319
57.48000 137.507
57.52000 137.166
57.56000 138.894
57.60000 142.062
57.64000 140.560
57.68000 145.509
57.72000 141.518
57.76000 137.586
57.80000 141.259
57.84000 140.134
57.88000 137.437
57.92000 131.285
57.96000 138.508
58.00000 134.785
58.04000 148.605
58.08000 140.107
58.12000 138.012
58.16000 150.651
58.20000 134.130
58.24000 140.525
58.28000 140.381
58.32000 137.732
58.36000 134.506
58.40000 129.453
58.44000 137.503
58.48000 139.842
58.52000 138.652
58.56000 145.625
58.60000 135.551
58.64000 140.464
58.68000 131.645
58.72000 139.424
58.76000 120.561
58.80000 132.943
58.84000 130.671
58.88000 124.307
58.92000 128.393
58.96000 132.243
59.00000 125.372
59.04000 134.238
59.08000 135.461
59.12000 124.702
59.16000 141.304
59.20000 136.381
59.24000 135.238
59.28000 131.908
59.32000 131.831
59.36000 135.398
59.40000 137.362
59.44000 132.203
59.48000 134.774
59.52000 133.098
59.56000 141.152
59.60000 125.469
59.64000 139.220
59.68000 137.657
59.72000 133.801
59.76000 130.975
59.80000 130.807
59.84000 135.562
59.88000 128.673
59.92000 123.542
59.96000 127.669
60.00000 146.810
60.04000 132.120
60.08000 128.505
60.12000 133.726
60.16000 133.979
60.20000 128.429
60.24000 130.019
60.28000 141.976
60.32000 131.876
60.36000 134.068
60.40000 131.883
60.44000 134.737
60.48000 129.005
60.52000 142.801
60.56000 128.434
60.60000 131.047
60.64000 138.987
60.68000 130.124
60.72000 142.531
60.76000 136.690
60.80000 121.350
60.84000 126.802
60.88000 137.070
60.92000 140.346
60.96000 128.184
61.00000 136.207
61.04000 130.226
61.08000 133.899
61.12000 139.323
61.16000 123.887
61.20000 132.788
61.24000 140.682
61.28000 131.075
61.32000 148.061
61.36000 147.199
61.40000 140.788
61.44000 136.824
61.48000 159.090
61.52000 174.684
61.56000 203.727
61.60000 254.364
61.64000 286.188
61.68000 298.497
61.72000 293.832
61.76000 281.267
61.80000 219.495
61.84000 181.551
61.88000 157.028
61.92000 153.967
61.96000 128.051
62.00000 154.803
62.04000 143.540
62.08000 145.993
62.12000 140.247
62.16000 152.862
62.20000 140.053
62.24000 144.075
62.28000 143.546
62.32000 131.895
62.36000 134.439
62.40000 138.467
62.44000 136.168
62.48000 144.384
62.52000 138.594
62.56000 148.324
62.60000 143.560
62.64000 145.011
62.68000 145.202
62.72000 139.843
62.76000 147.756
62.80000 135.323
62.84000 141.866
62.88000 133.391
62.92000 143.943
62.96000 141.542
63.00000 137.919
63.04000 148.487
63.08000 137.812
63.12000 135.222
63.16000 150.391
63.20000 139.222
63.24000 154.050
63.28000 149.967
63.32000 140.706
63.36000 145.150
63.40000 154.241
63.44000 150.003
63.48000 138.008
63.52000 141.209
63.56000 142.077
63.60000 141.700
63.64000 153.137
63.68000 144.354
63.72000 154.767
63.76000 151.322
63.80000 157.220
63.84000 151.218
63.88000 158.904
63.92000 156.317
63.96000 157.884
64.00000 152.492
64.04000 161.545
64.08000 166.052
64.12000 160.717
64.16000 158.619
64.20000 157.382
64.24000 175.879
64.28000 152.857
64.32000 160.729
64.36000 167.092
64.40000 165.617
64.44000 156.412
64.48000 167.216
64.52000 181.382
64.56000 179.999
64.60000 182.656
64.64000 173.297
64.68000 166.074
64.72000 176.837
64.76000 171.114
64.80000 179.902
64.84000 195.463
64.88000 201.277
64.92000 193.092
64.96000 193.927
65.00000 202.315
65.04000 198.833
65.08000 217.862
65.12000 225.450
65.16000 231.691
65.20000 235.883
65.24000 251.113
65.28000 253.653
65.32000 271.348
65.36000 271.840
65.40000 281.678
65.44000 300.643
65.48000 300.696
65.52000 316.325
65.56000 331.763
65.60000 368.157
65.64000 401.329
65.68000 461.620
65.72000 651.699
65.76000 904.019
65.80000 1122.620
65.84000 1224.223
65.88000 1245.417
65.92000 1205.699
65.96000 1017.997
66.00000 737.360
66.04000 527.468
66.08000 374.255
66.12000 357.965
66.16000 323.031
66.20000 334.274
66.24000 339.984
66.28000 378.374
66.32000 419.568
66.36000 479.551
66.40000 501.180
66.44000 492.553
66.48000 490.285
66.52000 459.793
66.56000 409.663
66.60000 364.948
66.64000 331.397
66.68000 344.525
66.72000 343.866
66.76000 333.796
66.80000 331.061
66.84000 346.568
66.88000 346.938
66.92000 347.045
66.96000 355.923
67.00000 366.859
67.04000 373.735
67.08000 389.870
67.12000 399.112
67.16000 404.751
67.20000 395.362
67.24000 401.911
67.28000 394.059
67.32000 430.888
67.36000 422.402
67.40000 425.296
67.44000 447.266
67.48000 430.234
67.52000 451.511
67.56000 448.970
67.60000 469.984
67.64000 473.407
67.68000 497.802
67.72000 481.897
67.76000 513.816
67.80000 490.745
67.84000 523.778
67.88000 520.939
67.92000 528.906
67.96000 539.280
68.00000 568.419
68.04000 572.955
68.08000 571.548
68.12000 591.786
68.16000 634.073
68.20000 629.387
68.24000 631.151
68.28000 638.965
68.32000 702.355
68.36000 707.371
68.40000 755.003
68.44000 772.549
68.48000 793.307
68.52000 864.620
68.56000 920.112
68.60000 1046.972
68.64000 1247.012
68.68000 1458.087
68.72000 1735.461
68.76000 1961.666
68.80000 2266.048
68.84000 2677.018
68.88000 3406.124
68.92000 5878.077
68.96000 14909.601
69.00000 33035.465
69.04000 52302.645
69.08000 62154.734
69.12000 64347.910
69.16000 66789.352
69.20000 66609.133
69.24000 55455.750
69.28000 42553.160
69.32000 34760.855
69.36000 31195.357
69.40000 25606.119
69.44000 15528.125
69.48000 7436.361
69.52000 3308.320
69.56000 2041.189
69.60000 1593.126
69.64000 1384.149
69.68000 1171.045
69.72000 1043.379
69.76000 956.838
69.80000 880.313
69.84000 845.060
69.88000 794.895
69.92000 749.420
69.96000 726.559
70.00000 690.056