File: XRD/17-09-2025/XY Data/BTO_Mapping_Theta2Theta_09-17-2025_001_01_-15-000_-45-000.xy
20.00000 548.822
20.04000 545.565
20.08000 546.106
20.12000 538.821
20.16000 529.522
20.20000 547.730
20.24000 549.650
20.28000 551.545
20.32000 562.196
20.36000 549.753
20.40000 554.653
20.44000 560.172
20.48000 538.460
20.52000 545.425
20.56000 542.837
20.60000 548.757
20.64000 553.034
20.68000 559.762
20.72000 533.261
20.76000 519.963
20.80000 526.923
20.84000 573.469
20.88000 531.465
20.92000 517.847
20.96000 538.162
21.00000 520.293
21.04000 533.005
21.08000 537.976
21.12000 533.975
21.16000 543.709
21.20000 523.614
21.24000 506.347
21.28000 534.406
21.32000 532.609
21.36000 550.841
21.40000 530.797
21.44000 506.693
21.48000 542.450
21.52000 536.088
21.56000 553.738
21.60000 541.018
21.64000 524.128
21.68000 522.143
21.72000 545.606
21.76000 531.275
21.80000 558.694
21.84000 592.140
21.88000 602.112
21.92000 580.679
21.96000 623.995
22.00000 627.561
22.04000 640.916
22.08000 648.793
22.12000 640.081
22.16000 646.347
22.20000 619.239
22.24000 596.049
22.28000 563.712
22.32000 555.079
22.36000 546.431
22.40000 524.792
22.44000 538.431
22.48000 503.936
22.52000 528.975
22.56000 527.494
22.60000 508.568
22.64000 507.452
22.68000 518.141
22.72000 515.590
22.76000 511.502
22.80000 498.577
22.84000 513.591
22.88000 502.339
22.92000 493.479
22.96000 490.507
23.00000 509.534
23.04000 508.498
23.08000 506.123
23.12000 506.052
23.16000 504.492
23.20000 513.275
23.24000 494.291
23.28000 486.936
23.32000 497.789
23.36000 484.098
23.40000 499.116
23.44000 504.139
23.48000 502.418
23.52000 510.753
23.56000 489.114
23.60000 481.327
23.64000 496.214
23.68000 481.796
23.72000 482.552
23.76000 476.007
23.80000 497.259
23.84000 497.023
23.88000 495.428
23.92000 480.443
23.96000 487.970
24.00000 476.681
24.04000 486.414
24.08000 477.364
24.12000 491.245
24.16000 482.500
24.20000 480.423
24.24000 470.732
24.28000 485.460
24.32000 447.083
24.36000 480.114
24.40000 486.381
24.44000 481.863
24.48000 491.757
24.52000 465.738
24.56000 472.408
24.60000 463.971
24.64000 458.858
24.68000 484.698
24.72000 483.824
24.76000 470.626
24.80000 467.252
24.84000 461.325
24.88000 471.364
24.92000 462.330
24.96000 480.782
25.00000 471.365
25.04000 444.904
25.08000 466.929
25.12000 463.333
25.16000 455.957
25.20000 472.606
25.24000 461.795
25.28000 464.905
25.32000 462.128
25.36000 444.089
25.40000 465.181
25.44000 465.957
25.48000 445.549
25.52000 438.017
25.56000 444.400
25.60000 454.678
25.64000 455.967
25.68000 457.814
25.72000 466.396
25.76000 454.364
25.80000 463.788
25.84000 450.393
25.88000 468.373
25.92000 456.564
25.96000 461.273
26.00000 456.903
26.04000 449.076
26.08000 438.926
26.12000 449.651
26.16000 445.667
26.20000 456.492
26.24000 447.358
26.28000 443.313
26.32000 433.275
26.36000 446.671
26.40000 440.917
26.44000 446.478
26.48000 450.430
26.52000 456.494
26.56000 432.089
26.60000 439.697
26.64000 431.808
26.68000 443.124
26.72000 434.408
26.76000 434.197
26.80000 410.977
26.84000 443.882
26.88000 435.919
26.92000 435.442
26.96000 446.326
27.00000 427.276
27.04000 431.605
27.08000 452.881
27.12000 434.604
27.16000 442.113
27.20000 428.023
27.24000 438.736
27.28000 412.771
27.32000 428.766
27.36000 433.029
27.40000 438.782
27.44000 407.094
27.48000 439.127
27.52000 433.519
27.56000 425.155
27.60000 428.871
27.64000 432.863
27.68000 429.074
27.72000 420.831
27.76000 432.897
27.80000 433.719
27.84000 405.659
27.88000 418.695
27.92000 427.460
27.96000 429.162
28.00000 408.598
28.04000 423.412
28.08000 416.053
28.12000 415.941
28.16000 412.111
28.20000 432.264
28.24000 422.209
28.28000 406.507
28.32000 423.730
28.36000 413.113
28.40000 416.933
28.44000 435.587
28.48000 404.850
28.52000 411.856
28.56000 400.950
28.60000 422.968
28.64000 428.023
28.68000 423.999
28.72000 417.077
28.76000 402.210
28.80000 416.684
28.84000 413.111
28.88000 428.043
28.92000 400.583
28.96000 411.280
29.00000 395.136
29.04000 393.702
29.08000 405.106
29.12000 395.558
29.16000 409.474
29.20000 423.085
29.24000 392.852
29.28000 394.136
29.32000 406.613
29.36000 387.136
29.40000 407.055
29.44000 405.089
29.48000 394.110
29.52000 405.983
29.56000 403.075
29.60000 395.312
29.64000 387.973
29.68000 379.010
29.72000 397.233
29.76000 388.906
29.80000 405.702
29.84000 397.528
29.88000 410.645
29.92000 396.358
29.96000 422.185
30.00000 415.861
30.04000 419.735
30.08000 412.799
30.12000 399.474
30.16000 425.135
30.20000 409.145
30.24000 390.150
30.28000 392.620
30.32000 401.761
30.36000 408.564
30.40000 394.462
30.44000 381.755
30.48000 399.715
30.52000 397.837
30.56000 396.418
30.60000 406.830
30.64000 401.506
30.68000 407.880
30.72000 402.945
30.76000 408.489
30.80000 423.278
30.84000 421.988
30.88000 438.338
30.92000 452.230
30.96000 463.546
31.00000 501.697
31.04000 537.419
31.08000 588.250
31.12000 694.647
31.16000 824.142
31.20000 1021.416
31.24000 1287.086
31.28000 1526.611
31.32000 1870.135
31.36000 2067.132
31.40000 2262.341
31.44000 2239.321
31.48000 2059.823
31.52000 1802.924
31.56000 1449.833
31.60000 1144.122
31.64000 874.656
31.68000 688.730
31.72000 554.517
31.76000 484.626
31.80000 443.502
31.84000 425.136
31.88000 420.004
31.92000 407.054
31.96000 393.584
32.00000 396.044
32.04000 384.814
32.08000 379.111
32.12000 386.991
32.16000 366.925
32.20000 349.638
32.24000 367.076
32.28000 362.400
32.32000 361.385
32.36000 363.680
32.40000 370.172
32.44000 374.803
32.48000 347.738
32.52000 351.261
32.56000 342.458
32.60000 352.758
32.64000 342.056
32.68000 348.915
32.72000 343.091
32.76000 360.091
32.80000 347.436
32.84000 349.550
32.88000 339.081
32.92000 349.789
32.96000 334.782
33.00000 345.714
33.04000 343.739
33.08000 347.599
33.12000 346.843
33.16000 325.938
33.20000 343.450
33.24000 359.899
33.28000 338.343
33.32000 332.168
33.36000 338.805
33.40000 332.886
33.44000 344.050
33.48000 338.619
33.52000 328.445
33.56000 319.934
33.60000 329.372
33.64000 331.685
33.68000 333.250
33.72000 328.891
33.76000 328.956
33.80000 322.123
33.84000 343.801
33.88000 319.085
33.92000 319.014
33.96000 338.709
34.00000 331.666
34.04000 334.373
34.08000 314.248
34.12000 309.683
34.16000 327.461
34.20000 317.683
34.24000 306.886
34.28000 320.510
34.32000 317.055
34.36000 321.013
34.40000 301.848
34.44000 323.059
34.48000 310.352
34.52000 321.953
34.56000 326.757
34.60000 304.722
34.64000 310.320
34.68000 307.163
34.72000 325.169
34.76000 319.790
34.80000 314.321
34.84000 307.219
34.88000 316.051
34.92000 319.079
34.96000 312.006
35.00000 299.362
35.04000 298.706
35.08000 294.412
35.12000 316.259
35.16000 304.135
35.20000 305.236
35.24000 310.294
35.28000 316.375
35.32000 305.282
35.36000 312.363
35.40000 306.502
35.44000 312.508
35.48000 309.462
35.52000 308.375
35.56000 323.724
35.60000 289.712
35.64000 293.653
35.68000 288.635
35.72000 294.281
35.76000 304.773
35.80000 293.439
35.84000 306.819
35.88000 296.830
35.92000 289.468
35.96000 295.117
36.00000 276.035
36.04000 308.351
36.08000 292.256
36.12000 302.974
36.16000 298.067
36.20000 284.214
36.24000 303.501
36.28000 276.875
36.32000 299.556
36.36000 283.385
36.40000 281.869
36.44000 300.058
36.48000 292.343
36.52000 300.346
36.56000 276.083
36.60000 309.446
36.64000 298.235
36.68000 300.933
36.72000 283.751
36.76000 282.541
36.80000 287.209
36.84000 296.562
36.88000 283.327
36.92000 295.749
36.96000 292.169
37.00000 288.906
37.04000 300.387
37.08000 279.589
37.12000 292.511
37.16000 287.687
37.20000 281.788
37.24000 286.906
37.28000 285.085
37.32000 282.658
37.36000 294.857
37.40000 266.909
37.44000 283.193
37.48000 281.347
37.52000 277.046
37.56000 284.856
37.60000 285.282
37.64000 279.315
37.68000 290.861
37.72000 281.627
37.76000 271.014
37.80000 283.683
37.84000 290.541
37.88000 276.881
37.92000 267.066
37.96000 276.585
38.00000 257.664
38.04000 276.247
38.08000 291.430
38.12000 279.155
38.16000 279.774
38.20000 280.933
38.24000 276.936
38.28000 284.067
38.32000 282.039
38.36000 292.991
38.40000 292.498
38.44000 301.347
38.48000 305.163
38.52000 323.725
38.56000 329.101
38.60000 354.432
38.64000 372.673
38.68000 377.840
38.72000 379.788
38.76000 406.988
38.80000 388.921
38.84000 364.783
38.88000 351.968
38.92000 320.212
38.96000 310.063
39.00000 292.042
39.04000 291.358
39.08000 290.878
39.12000 264.556
39.16000 261.797
39.20000 254.982
39.24000 265.073
39.28000 259.448
39.32000 267.735
39.36000 250.796
39.40000 257.771
39.44000 269.001
39.48000 265.574
39.52000 266.644
39.56000 268.855
39.60000 252.528
39.64000 254.496
39.68000 248.548
39.72000 257.431
39.76000 247.165
39.80000 257.796
39.84000 248.236
39.88000 262.641
39.92000 250.607
39.96000 263.185
40.00000 247.420
40.04000 248.748
40.08000 257.604
40.12000 247.263
40.16000 254.389
40.20000 250.032
40.24000 245.619
40.28000 238.790
40.32000 244.373
40.36000 252.041
40.40000 261.005
40.44000 248.430
40.48000 238.405
40.52000 242.334
40.56000 238.419
40.60000 229.630
40.64000 245.600
40.68000 249.009
40.72000 262.747
40.76000 249.036
40.80000 245.076
40.84000 226.779
40.88000 252.179
40.92000 238.101
40.96000 251.171
41.00000 243.861
41.04000 245.958
41.08000 229.213
41.12000 235.480
41.16000 237.380
41.20000 248.170
41.24000 237.472
41.28000 233.333
41.32000 236.017
41.36000 234.234
41.40000 228.196
41.44000 248.169
41.48000 238.427
41.52000 240.576
41.56000 230.624
41.60000 245.174
41.64000 240.314
41.68000 233.343
41.72000 229.796
41.76000 225.246
41.80000 240.839
41.84000 223.811
41.88000 240.401
41.92000 236.658
41.96000 231.757
42.00000 236.026
42.04000 222.824
42.08000 236.266
42.12000 222.079
42.16000 232.669
42.20000 227.699
42.24000 236.410
42.28000 228.073
42.32000 227.674
42.36000 226.596
42.40000 225.182
42.44000 225.098
42.48000 224.865
42.52000 228.432
42.56000 212.881
42.60000 225.860
42.64000 228.376
42.68000 220.906
42.72000 232.805
42.76000 239.939
42.80000 220.226
42.84000 220.686
42.88000 225.905
42.92000 223.504
42.96000 232.303
43.00000 218.465
43.04000 229.151
43.08000 232.711
43.12000 228.474
43.16000 236.494
43.20000 228.964
43.24000 221.815
43.28000 208.970
43.32000 222.446
43.36000 219.797
43.40000 216.246
43.44000 211.559
43.48000 211.476
43.52000 209.552
43.56000 216.787
43.60000 221.456
43.64000 231.320
43.68000 221.579
43.72000 226.463
43.76000 219.162
43.80000 213.237
43.84000 214.488
43.88000 213.651
43.92000 210.535
43.96000 213.207
44.00000 223.063
44.04000 213.250
44.08000 201.605
44.12000 222.421
44.16000 208.501
44.20000 223.234
44.24000 221.425
44.28000 218.414
44.32000 207.514
44.36000 215.679
44.40000 211.374
44.44000 213.977
44.48000 214.016
44.52000 220.789
44.56000 223.734
44.60000 233.377
44.64000 229.674
44.68000 222.763
44.72000 248.764
44.76000 241.881
44.80000 254.216
44.84000 259.740
44.88000 268.527
44.92000 284.699
44.96000 300.717
45.00000 297.225
45.04000 329.246
45.08000 321.411
45.12000 338.312
45.16000 318.415
45.20000 305.679
45.24000 285.761
45.28000 274.762
45.32000 278.822
45.36000 262.855
45.40000 252.258
45.44000 230.436
45.48000 240.523
45.52000 229.421
45.56000 229.139
45.60000 218.491
45.64000 216.867
45.68000 216.622
45.72000 206.600
45.76000 219.127
45.80000 208.549
45.84000 201.220
45.88000 205.045
45.92000 195.497
45.96000 195.952
46.00000 206.366
46.04000 199.269
46.08000 205.027
46.12000 202.946
46.16000 198.566
46.20000 207.807
46.24000 195.629
46.28000 191.926
46.32000 196.551
46.36000 215.104
46.40000 189.513
46.44000 182.328
46.48000 197.726
46.52000 188.247
46.56000 197.744
46.60000 201.716
46.64000 192.991
46.68000 191.001
46.72000 193.705
46.76000 187.058
46.80000 188.408
46.84000 194.424
46.88000 193.764
46.92000 188.516
46.96000 195.496
47.00000 174.844
47.04000 180.831
47.08000 193.435
47.12000 184.783
47.16000 196.746
47.20000 189.549
47.24000 186.098
47.28000 195.483
47.32000 188.918
47.36000 185.308
47.40000 187.490
47.44000 173.226
47.48000 171.775
47.52000 181.241
47.56000 177.765
47.60000 182.402
47.64000 171.986
47.68000 176.242
47.72000 179.071
47.76000 175.078
47.80000 174.440
47.84000 182.384
47.88000 179.109
47.92000 188.394
47.96000 180.663
48.00000 164.608
48.04000 182.228
48.08000 174.877
48.12000 167.670
48.16000 189.153
48.20000 181.308
48.24000 191.103
48.28000 175.466
48.32000 171.072
48.36000 183.942
48.40000 179.107
48.44000 188.882
48.48000 173.982
48.52000 188.361
48.56000 176.569
48.60000 169.656
48.64000 181.675
48.68000 173.102
48.72000 177.533
48.76000 174.954
48.80000 176.102
48.84000 175.177
48.88000 171.729
48.92000 172.467
48.96000 164.410
49.00000 180.250
49.04000 176.903
49.08000 179.098
49.12000 182.188
49.16000 175.226
49.20000 165.040
49.24000 170.948
49.28000 179.416
49.32000 184.000
49.36000 161.966
49.40000 175.016
49.44000 181.407
49.48000 173.201
49.52000 177.058
49.56000 185.626
49.60000 176.015
49.64000 172.321
49.68000 161.909
49.72000 167.145
49.76000 178.593
49.80000 162.593
49.84000 169.130
49.88000 166.387
49.92000 182.208
49.96000 176.258
50.00000 170.390
50.04000 180.936
50.08000 172.066
50.12000 176.214
50.16000 166.790
50.20000 172.572
50.24000 175.174
50.28000 175.719
50.32000 173.721
50.36000 172.585
50.40000 171.015
50.44000 187.857
50.48000 199.074
50.52000 187.674
50.56000 200.084
50.60000 210.409
50.64000 207.142
50.68000 202.721
50.72000 227.833
50.76000 203.694
50.80000 207.149
50.84000 203.214
50.88000 201.023
50.92000 209.929
50.96000 194.616
51.00000 198.885
51.04000 164.190
51.08000 180.976
51.12000 169.676
51.16000 179.495
51.20000 167.402
51.24000 163.839
51.28000 170.151
51.32000 168.023
51.36000 167.684
51.40000 160.556
51.44000 171.919
51.48000 172.749
51.52000 155.160
51.56000 162.998
51.60000 163.595
51.64000 164.196
51.68000 161.218
51.72000 162.578
51.76000 156.046
51.80000 159.320
51.84000 149.178
51.88000 163.328
51.92000 161.494
51.96000 157.023
52.00000 164.397
52.04000 160.967
52.08000 155.875
52.12000 163.636
52.16000 144.016
52.20000 166.050
52.24000 157.591
52.28000 155.455
52.32000 158.305
52.36000 155.829
52.40000 158.659
52.44000 170.044
52.48000 155.286
52.52000 160.903
52.56000 160.453
52.60000 165.310
52.64000 169.494
52.68000 153.232
52.72000 142.542
52.76000 152.764
52.80000 153.506
52.84000 151.807
52.88000 141.708
52.92000 149.476
52.96000 160.557
53.00000 161.374
53.04000 154.690
53.08000 152.899
53.12000 164.253
53.16000 157.679
53.20000 157.367
53.24000 150.946
53.28000 157.961
53.32000 145.651
53.36000 148.271
53.40000 150.351
53.44000 148.120
53.48000 148.016
53.52000 150.931
53.56000 150.659
53.60000 145.404
53.64000 164.930
53.68000 152.999
53.72000 149.052
53.76000 158.679
53.80000 154.394
53.84000 151.662
53.88000 152.197
53.92000 157.552
53.96000 143.045
54.00000 140.410
54.04000 149.650
54.08000 137.365
54.12000 152.613
54.16000 146.306
54.20000 149.011
54.24000 150.171
54.28000 152.434
54.32000 145.546
54.36000 144.140
54.40000 159.634
54.44000 145.458
54.48000 140.951
54.52000 144.272
54.56000 157.577
54.60000 149.730
54.64000 139.436
54.68000 154.071
54.72000 137.341
54.76000 156.529
54.80000 141.176
54.84000 141.310
54.88000 156.947
54.92000 153.834
54.96000 149.126
55.00000 152.329
55.04000 147.808
55.08000 151.745
55.12000 149.002
55.16000 146.097
55.20000 149.817
55.24000 142.932
55.28000 155.461
55.32000 159.015
55.36000 156.018
55.40000 146.874
55.44000 155.424
55.48000 141.628
55.52000 164.119
55.56000 169.738
55.60000 184.454
55.64000 187.776
55.68000 191.203
55.72000 205.481
55.76000 224.384
55.80000 245.975
55.84000 246.835
55.88000 282.218
55.92000 267.373
55.96000 268.351
56.00000 274.636
56.04000 259.080
56.08000 241.922
56.12000 232.303
56.16000 231.593
56.20000 222.840
56.24000 203.374
56.28000 194.918
56.32000 186.790
56.36000 166.873
56.40000 160.792
56.44000 151.302
56.48000 153.135
56.52000 153.316
56.56000 152.227
56.60000 131.229
56.64000 143.966
56.68000 137.457
56.72000 134.460
56.76000 146.748
56.80000 131.605
56.84000 142.982
56.88000 144.427
56.92000 143.301
56.96000 141.301
57.00000 148.402
57.04000 137.735
57.08000 136.079
57.12000 141.137
57.16000 142.445
57.20000 149.272
57.24000 132.985
57.28000 146.094
57.32000 131.431
57.36000 134.564
57.40000 130.925
57.44000 146.507
57.48000 139.612
57.52000 139.709
57.56000 144.828
57.60000 142.432
57.64000 138.032
57.68000 133.357
57.72000 130.730
57.76000 131.609
57.80000 146.889
57.84000 138.507
57.88000 142.106
57.92000 135.441
57.96000 126.624
58.00000 140.902
58.04000 130.809
58.08000 134.118
58.12000 134.338
58.16000 136.871
58.20000 138.930
58.24000 124.545
58.28000 140.493
58.32000 134.839
58.36000 134.764
58.40000 135.466
58.44000 129.458
58.48000 134.037
58.52000 132.292
58.56000 145.244
58.60000 139.054
58.64000 133.754
58.68000 135.322
58.72000 131.352
58.76000 129.833
58.80000 139.162
58.84000 125.136
58.88000 141.501
58.92000 139.062
58.96000 137.205
59.00000 133.993
59.04000 140.990
59.08000 122.592
59.12000 126.493
59.16000 131.315
59.20000 142.752
59.24000 133.532
59.28000 128.203
59.32000 130.860
59.36000 137.777
59.40000 125.854
59.44000 131.295
59.48000 131.777
59.52000 123.894
59.56000 134.324
59.60000 148.333
59.64000 128.840
59.68000 123.048
59.72000 129.918
59.76000 134.123
59.80000 134.995
59.84000 132.325
59.88000 125.206
59.92000 138.116
59.96000 135.195
60.00000 136.196
60.04000 142.235
60.08000 140.595
60.12000 131.554
60.16000 131.849
60.20000 130.718
60.24000 138.175
60.28000 135.668
60.32000 123.440
60.36000 134.704
60.40000 128.867
60.44000 135.021
60.48000 129.762
60.52000 136.179
60.56000 135.147
60.60000 121.672
60.64000 149.455
60.68000 137.120
60.72000 122.339
60.76000 128.169
60.80000 134.106
60.84000 142.258
60.88000 130.690
60.92000 128.896
60.96000 139.950
61.00000 134.401
61.04000 136.119
61.08000 130.239
61.12000 129.389
61.16000 136.526
61.20000 130.100
61.24000 150.819
61.28000 138.150
61.32000 134.432
61.36000 136.522
61.40000 141.018
61.44000 136.262
61.48000 147.012
61.52000 166.476
61.56000 201.679
61.60000 238.227
61.64000 275.536
61.68000 289.668
61.72000 285.286
61.76000 264.212
61.80000 236.337
61.84000 175.848
61.88000 161.527
61.92000 155.873
61.96000 146.025
62.00000 140.918
62.04000 141.161
62.08000 137.001
62.12000 141.365
62.16000 140.577
62.20000 145.038
62.24000 141.900
62.28000 142.791
62.32000 137.597
62.36000 143.319
62.40000 132.504
62.44000 141.833
62.48000 127.612
62.52000 146.768
62.56000 144.973
62.60000 139.638
62.64000 146.372
62.68000 148.963
62.72000 147.764
62.76000 138.028
62.80000 145.474
62.84000 146.949
62.88000 142.085
62.92000 144.869
62.96000 148.529
63.00000 138.333
63.04000 139.959
63.08000 143.866
63.12000 146.438
63.16000 141.001
63.20000 155.720
63.24000 151.153
63.28000 142.383
63.32000 149.604
63.36000 147.611
63.40000 149.202
63.44000 154.010
63.48000 147.583
63.52000 154.951
63.56000 145.525
63.60000 148.150
63.64000 149.266
63.68000 158.307
63.72000 158.284
63.76000 155.253
63.80000 147.197
63.84000 148.294
63.88000 155.316
63.92000 166.542
63.96000 158.468
64.00000 153.849
64.04000 153.704
64.08000 160.027
64.12000 157.196
64.16000 166.357
64.20000 158.732
64.24000 159.357
64.28000 161.646
64.32000 169.481
64.36000 168.560
64.40000 164.167
64.44000 159.207
64.48000 163.728
64.52000 168.211
64.56000 162.480
64.60000 165.617
64.64000 179.355
64.68000 169.256
64.72000 167.481
64.76000 168.162
64.80000 173.751
64.84000 184.365
64.88000 169.922
64.92000 183.200
64.96000 188.199
65.00000 181.721
65.04000 192.547
65.08000 199.743
65.12000 198.349
65.16000 217.068
65.20000 232.908
65.24000 230.398
65.28000 242.858
65.32000 250.879
65.36000 261.099
65.40000 280.956
65.44000 294.656
65.48000 312.713
65.52000 330.244
65.56000 344.614
65.60000 387.309
65.64000 408.390
65.68000 464.003
65.72000 610.597
65.76000 797.322
65.80000 1036.912
65.84000 1104.849
65.88000 1104.687
65.92000 1035.631
65.96000 885.045
66.00000 647.944
66.04000 463.404
66.08000 373.524
66.12000 315.041
66.16000 297.248
66.20000 314.485
66.24000 312.746
66.28000 329.933
66.32000 407.248
66.36000 426.311
66.40000 443.728
66.44000 459.580
66.48000 439.500
66.52000 421.073
66.56000 359.665
66.60000 336.861
66.64000 318.100
66.68000 335.833
66.72000 354.514
66.76000 314.949
66.80000 344.647
66.84000 344.491
66.88000 338.160
66.92000 337.934
66.96000 355.626
67.00000 352.348
67.04000 340.118
67.08000 364.817
67.12000 373.518
67.16000 366.024
67.20000 378.999
67.24000 399.736
67.28000 386.309
67.32000 391.946
67.36000 405.969
67.40000 428.344
67.44000 420.941
67.48000 431.782
67.52000 423.960
67.56000 460.995
67.60000 463.432
67.64000 466.229
67.68000 474.670
67.72000 478.378
67.76000 488.835
67.80000 496.809
67.84000 519.079
67.88000 528.657
67.92000 548.074
67.96000 548.942
68.00000 558.435
68.04000 560.912
68.08000 568.025
68.12000 587.213
68.16000 600.802
68.20000 603.399
68.24000 647.416
68.28000 649.491
68.32000 667.995
68.36000 711.372
68.40000 709.655
68.44000 751.348
68.48000 810.237
68.52000 858.198
68.56000 931.751
68.60000 1028.186
68.64000 1204.193
68.68000 1447.158
68.72000 1647.087
68.76000 1901.375
68.80000 2129.407
68.84000 2465.587
68.88000 3202.032
68.92000 5739.328
68.96000 14967.632
69.00000 33713.656
69.04000 52865.727
69.08000 62024.855
69.12000 63573.863
69.16000 66142.938
69.20000 65131.699
69.24000 55246.051
69.28000 42326.742
69.32000 34403.504
69.36000 30897.957
69.40000 24804.541
69.44000 15273.225
69.48000 7069.050
69.52000 3082.614
69.56000 1976.901
69.60000 1544.270
69.64000 1382.415
69.68000 1181.684
69.72000 1073.346
69.76000 965.151
69.80000 930.520
69.84000 838.189
69.88000 802.488
69.92000 774.149
69.96000 712.463
70.00000 722.895