File: XRD/17-09-2025/XY Data/BTO_Mapping_Theta2Theta_09-17-2025_001_17_-30-000_0-000.xy
20.00000 580.640
20.04000 563.120
20.08000 554.585
20.12000 574.185
20.16000 554.274
20.20000 551.782
20.24000 564.731
20.28000 562.900
20.32000 575.361
20.36000 553.669
20.40000 532.798
20.44000 554.142
20.48000 547.228
20.52000 555.002
20.56000 570.712
20.60000 545.977
20.64000 576.902
20.68000 561.730
20.72000 545.965
20.76000 574.523
20.80000 566.486
20.84000 582.663
20.88000 562.132
20.92000 564.578
20.96000 567.677
21.00000 574.199
21.04000 567.671
21.08000 551.770
21.12000 565.695
21.16000 560.989
21.20000 547.913
21.24000 550.713
21.28000 552.077
21.32000 568.172
21.36000 552.402
21.40000 550.011
21.44000 560.445
21.48000 599.334
21.52000 596.193
21.56000 574.248
21.60000 600.061
21.64000 636.738
21.68000 652.750
21.72000 684.222
21.76000 739.606
21.80000 828.757
21.84000 916.916
21.88000 974.416
21.92000 1025.872
21.96000 1046.388
22.00000 1072.089
22.04000 1015.527
22.08000 934.729
22.12000 839.396
22.16000 748.208
22.20000 706.909
22.24000 645.094
22.28000 596.363
22.32000 583.444
22.36000 590.245
22.40000 561.837
22.44000 555.714
22.48000 542.341
22.52000 554.706
22.56000 557.446
22.60000 541.826
22.64000 535.910
22.68000 558.651
22.72000 530.846
22.76000 523.646
22.80000 511.791
22.84000 528.789
22.88000 524.313
22.92000 519.167
22.96000 525.900
23.00000 496.741
23.04000 531.990
23.08000 507.981
23.12000 525.100
23.16000 511.980
23.20000 514.776
23.24000 512.606
23.28000 509.069
23.32000 533.700
23.36000 511.386
23.40000 519.930
23.44000 529.741
23.48000 519.672
23.52000 504.890
23.56000 512.416
23.60000 503.225
23.64000 499.104
23.68000 513.482
23.72000 502.061
23.76000 521.003
23.80000 510.056
23.84000 506.911
23.88000 494.898
23.92000 497.355
23.96000 500.588
24.00000 501.719
24.04000 505.210
24.08000 503.576
24.12000 497.141
24.16000 502.201
24.20000 487.725
24.24000 502.758
24.28000 511.439
24.32000 493.565
24.36000 505.643
24.40000 497.116
24.44000 497.132
24.48000 485.169
24.52000 497.259
24.56000 509.318
24.60000 499.458
24.64000 502.142
24.68000 487.368
24.72000 486.999
24.76000 507.979
24.80000 498.030
24.84000 473.202
24.88000 507.225
24.92000 473.588
24.96000 469.080
25.00000 488.737
25.04000 477.394
25.08000 495.943
25.12000 487.691
25.16000 497.529
25.20000 483.366
25.24000 482.936
25.28000 486.525
25.32000 473.771
25.36000 475.725
25.40000 466.885
25.44000 481.338
25.48000 473.317
25.52000 482.451
25.56000 476.843
25.60000 481.710
25.64000 470.949
25.68000 484.780
25.72000 489.816
25.76000 480.346
25.80000 479.434
25.84000 487.311
25.88000 472.913
25.92000 486.366
25.96000 484.296
26.00000 485.785
26.04000 471.801
26.08000 466.069
26.12000 453.709
26.16000 466.517
26.20000 489.282
26.24000 472.639
26.28000 467.718
26.32000 460.853
26.36000 472.878
26.40000 466.406
26.44000 482.678
26.48000 484.780
26.52000 463.906
26.56000 464.832
26.60000 464.368
26.64000 468.932
26.68000 475.738
26.72000 469.749
26.76000 454.291
26.80000 475.355
26.84000 458.688
26.88000 456.978
26.92000 488.904
26.96000 460.167
27.00000 451.922
27.04000 467.477
27.08000 465.652
27.12000 447.788
27.16000 449.598
27.20000 457.560
27.24000 448.161
27.28000 444.667
27.32000 457.327
27.36000 459.962
27.40000 453.102
27.44000 444.923
27.48000 446.324
27.52000 455.335
27.56000 454.415
27.60000 449.507
27.64000 463.368
27.68000 450.927
27.72000 450.456
27.76000 474.375
27.80000 437.284
27.84000 450.427
27.88000 467.816
27.92000 438.789
27.96000 460.704
28.00000 444.879
28.04000 449.758
28.08000 454.968
28.12000 467.251
28.16000 463.740
28.20000 445.286
28.24000 437.629
28.28000 449.086
28.32000 445.093
28.36000 439.121
28.40000 444.923
28.44000 441.800
28.48000 446.223
28.52000 450.662
28.56000 441.183
28.60000 456.362
28.64000 471.085
28.68000 445.991
28.72000 439.705
28.76000 425.578
28.80000 441.615
28.84000 439.823
28.88000 429.532
28.92000 429.875
28.96000 439.931
29.00000 441.229
29.04000 427.036
29.08000 436.249
29.12000 438.550
29.16000 439.218
29.20000 439.556
29.24000 434.065
29.28000 431.005
29.32000 433.900
29.36000 431.945
29.40000 437.541
29.44000 438.922
29.48000 432.788
29.52000 432.023
29.56000 423.006
29.60000 439.926
29.64000 428.413
29.68000 447.065
29.72000 455.892
29.76000 445.117
29.80000 465.734
29.84000 466.218
29.88000 454.473
29.92000 456.183
29.96000 466.810
30.00000 450.562
30.04000 480.966
30.08000 466.865
30.12000 430.926
30.16000 464.641
30.20000 451.072
30.24000 447.270
30.28000 460.649
30.32000 453.007
30.36000 452.076
30.40000 450.924
30.44000 445.789
30.48000 455.518
30.52000 452.565
30.56000 446.079
30.60000 453.209
30.64000 466.869
30.68000 488.765
30.72000 491.493
30.76000 505.013
30.80000 526.164
30.84000 549.252
30.88000 621.281
30.92000 644.104
30.96000 731.711
31.00000 945.146
31.04000 1236.278
31.08000 1634.172
31.12000 2150.237
31.16000 2736.920
31.20000 3279.815
31.24000 3637.099
31.28000 3766.196
31.32000 3585.122
31.36000 3232.320
31.40000 2557.953
31.44000 2018.185
31.48000 1572.035
31.52000 1136.076
31.56000 889.374
31.60000 734.964
31.64000 641.712
31.68000 600.897
31.72000 540.060
31.76000 529.950
31.80000 489.436
31.84000 472.166
31.88000 478.085
31.92000 460.738
31.96000 436.916
32.00000 448.208
32.04000 424.502
32.08000 442.810
32.12000 430.816
32.16000 423.507
32.20000 407.827
32.24000 408.944
32.28000 417.139
32.32000 398.925
32.36000 402.888
32.40000 399.110
32.44000 387.463
32.48000 386.410
32.52000 383.744
32.56000 388.484
32.60000 394.744
32.64000 379.732
32.68000 389.414
32.72000 371.785
32.76000 371.401
32.80000 363.216
32.84000 359.440
32.88000 361.202
32.92000 364.258
32.96000 359.807
33.00000 374.834
33.04000 372.459
33.08000 362.632
33.12000 376.369
33.16000 351.248
33.20000 340.519
33.24000 354.630
33.28000 374.789
33.32000 368.054
33.36000 368.151
33.40000 351.942
33.44000 374.014
33.48000 357.341
33.52000 342.324
33.56000 364.043
33.60000 355.405
33.64000 352.759
33.68000 351.607
33.72000 363.200
33.76000 360.261
33.80000 340.334
33.84000 357.636
33.88000 338.351
33.92000 336.010
33.96000 341.163
34.00000 337.046
34.04000 335.943
34.08000 339.091
34.12000 338.372
34.16000 347.621
34.20000 340.717
34.24000 332.630
34.28000 339.675
34.32000 329.562
34.36000 333.510
34.40000 326.492
34.44000 341.167
34.48000 349.814
34.52000 330.349
34.56000 327.379
34.60000 320.755
34.64000 335.391
34.68000 344.341
34.72000 324.217
34.76000 333.055
34.80000 330.392
34.84000 319.668
34.88000 332.282
34.92000 320.161
34.96000 324.599
35.00000 321.107
35.04000 327.778
35.08000 353.981
35.12000 335.114
35.16000 335.093
35.20000 317.821
35.24000 321.207
35.28000 319.098
35.32000 318.946
35.36000 321.226
35.40000 310.260
35.44000 319.915
35.48000 316.515
35.52000 303.410
35.56000 319.529
35.60000 296.619
35.64000 303.491
35.68000 309.554
35.72000 314.663
35.76000 294.133
35.80000 316.650
35.84000 304.917
35.88000 320.520
35.92000 311.806
35.96000 300.095
36.00000 313.442
36.04000 304.298
36.08000 303.982
36.12000 311.448
36.16000 291.438
36.20000 306.731
36.24000 310.885
36.28000 310.188
36.32000 296.635
36.36000 304.424
36.40000 307.603
36.44000 308.244
36.48000 306.763
36.52000 309.246
36.56000 299.884
36.60000 308.186
36.64000 317.927
36.68000 307.450
36.72000 299.089
36.76000 306.332
36.80000 312.187
36.84000 306.407
36.88000 302.197
36.92000 307.697
36.96000 310.880
37.00000 313.703
37.04000 288.617
37.08000 286.475
37.12000 297.006
37.16000 307.856
37.20000 313.359
37.24000 298.186
37.28000 293.850
37.32000 295.208
37.36000 296.859
37.40000 296.751
37.44000 294.305
37.48000 288.853
37.52000 299.933
37.56000 292.794
37.60000 297.005
37.64000 298.094
37.68000 290.881
37.72000 305.764
37.76000 299.512
37.80000 293.201
37.84000 297.373
37.88000 291.938
37.92000 305.321
37.96000 299.227
38.00000 312.685
38.04000 308.250
38.08000 309.200
38.12000 308.104
38.16000 323.139
38.20000 326.749
38.24000 327.403
38.28000 342.800
38.32000 350.148
38.36000 386.294
38.40000 409.559
38.44000 440.786
38.48000 457.125
38.52000 485.996
38.56000 502.224
38.60000 495.096
38.64000 468.002
38.68000 459.145
38.72000 426.854
38.76000 393.685
38.80000 375.670
38.84000 364.762
38.88000 340.414
38.92000 335.999
38.96000 317.733
39.00000 306.108
39.04000 300.846
39.08000 304.354
39.12000 294.526
39.16000 286.382
39.20000 288.828
39.24000 284.909
39.28000 281.704
39.32000 278.722
39.36000 269.311
39.40000 278.569
39.44000 281.120
39.48000 274.611
39.52000 262.334
39.56000 279.919
39.60000 274.837
39.64000 274.745
39.68000 270.334
39.72000 277.327
39.76000 260.773
39.80000 267.369
39.84000 259.498
39.88000 279.250
39.92000 258.059
39.96000 256.063
40.00000 260.719
40.04000 264.869
40.08000 279.508
40.12000 270.847
40.16000 262.553
40.20000 268.319
40.24000 252.541
40.28000 255.129
40.32000 272.625
40.36000 250.870
40.40000 262.193
40.44000 251.555
40.48000 249.619
40.52000 257.616
40.56000 250.313
40.60000 267.147
40.64000 266.371
40.68000 253.118
40.72000 247.456
40.76000 270.199
40.80000 241.547
40.84000 253.550
40.88000 257.541
40.92000 254.191
40.96000 254.823
41.00000 256.312
41.04000 259.968
41.08000 252.021
41.12000 253.599
41.16000 254.414
41.20000 253.141
41.24000 255.256
41.28000 252.212
41.32000 242.555
41.36000 259.190
41.40000 242.034
41.44000 243.959
41.48000 250.850
41.52000 260.850
41.56000 239.539
41.60000 240.076
41.64000 236.850
41.68000 230.718
41.72000 233.217
41.76000 254.275
41.80000 253.636
41.84000 238.479
41.88000 231.508
41.92000 242.710
41.96000 231.158
42.00000 237.423
42.04000 235.146
42.08000 249.788
42.12000 231.141
42.16000 243.375
42.20000 232.644
42.24000 231.047
42.28000 234.602
42.32000 240.008
42.36000 228.418
42.40000 238.854
42.44000 246.841
42.48000 250.353
42.52000 232.260
42.56000 236.918
42.60000 245.732
42.64000 247.907
42.68000 246.624
42.72000 237.720
42.76000 231.459
42.80000 255.563
42.84000 235.594
42.88000 237.678
42.92000 238.884
42.96000 232.880
43.00000 249.591
43.04000 242.789
43.08000 232.201
43.12000 238.364
43.16000 240.512
43.20000 231.115
43.24000 252.510
43.28000 236.279
43.32000 242.599
43.36000 229.661
43.40000 232.336
43.44000 235.899
43.48000 231.103
43.52000 228.269
43.56000 239.748
43.60000 232.040
43.64000 236.896
43.68000 239.557
43.72000 247.371
43.76000 242.745
43.80000 243.569
43.84000 231.033
43.88000 234.003
43.92000 234.371
43.96000 221.694
44.00000 240.214
44.04000 244.755
44.08000 239.239
44.12000 234.842
44.16000 248.328
44.20000 249.307
44.24000 246.008
44.28000 251.385
44.32000 249.453
44.36000 254.362
44.40000 258.259
44.44000 283.438
44.48000 292.979
44.52000 329.510
44.56000 342.334
44.60000 369.925
44.64000 415.488
44.68000 466.307
44.72000 528.853
44.76000 604.664
44.80000 644.719
44.84000 643.137
44.88000 662.779
44.92000 672.623
44.96000 674.739
45.00000 624.386
45.04000 610.342
45.08000 527.573
45.12000 469.577
45.16000 426.039
45.20000 405.217
45.24000 371.469
45.28000 338.289
45.32000 308.482
45.36000 286.756
45.40000 283.450
45.44000 270.309
45.48000 255.596
45.52000 252.484
45.56000 230.280
45.60000 246.845
45.64000 240.560
45.68000 234.046
45.72000 233.706
45.76000 228.099
45.80000 226.275
45.84000 209.315
45.88000 213.647
45.92000 217.749
45.96000 220.857
46.00000 216.094
46.04000 213.654
46.08000 203.942
46.12000 215.738
46.16000 213.867
46.20000 204.019
46.24000 202.503
46.28000 205.028
46.32000 203.513
46.36000 208.218
46.40000 207.677
46.44000 216.771
46.48000 209.101
46.52000 206.689
46.56000 192.625
46.60000 206.895
46.64000 213.764
46.68000 209.101
46.72000 205.957
46.76000 204.759
46.80000 198.776
46.84000 210.482
46.88000 200.254
46.92000 192.964
46.96000 197.386
47.00000 206.037
47.04000 203.430
47.08000 203.962
47.12000 192.761
47.16000 204.275
47.20000 208.560
47.24000 197.541
47.28000 202.619
47.32000 192.630
47.36000 197.286
47.40000 185.512
47.44000 198.690
47.48000 218.325
47.52000 204.206
47.56000 196.991
47.60000 200.867
47.64000 202.653
47.68000 187.510
47.72000 195.529
47.76000 194.610
47.80000 182.554
47.84000 192.870
47.88000 187.360
47.92000 190.809
47.96000 197.999
48.00000 188.647
48.04000 196.418
48.08000 191.057
48.12000 180.520
48.16000 193.592
48.20000 191.273
48.24000 184.116
48.28000 188.088
48.32000 186.060
48.36000 199.090
48.40000 192.327
48.44000 180.846
48.48000 192.020
48.52000 198.258
48.56000 190.407
48.60000 183.308
48.64000 199.484
48.68000 181.507
48.72000 186.023
48.76000 190.963
48.80000 186.580
48.84000 172.864
48.88000 185.140
48.92000 197.443
48.96000 185.940
49.00000 178.081
49.04000 188.470
49.08000 188.316
49.12000 188.037
49.16000 176.349
49.20000 179.730
49.24000 182.911
49.28000 190.412
49.32000 184.398
49.36000 186.286
49.40000 182.620
49.44000 185.338
49.48000 194.838
49.52000 176.317
49.56000 175.844
49.60000 190.651
49.64000 190.887
49.68000 193.501
49.72000 182.217
49.76000 186.193
49.80000 175.109
49.84000 189.071
49.88000 183.126
49.92000 172.956
49.96000 183.854
50.00000 192.894
50.04000 192.795
50.08000 195.587
50.12000 188.378
50.16000 209.879
50.20000 208.033
50.24000 221.479
50.28000 228.559
50.32000 226.962
50.36000 249.548
50.40000 245.000
50.44000 284.844
50.48000 295.939
50.52000 269.360
50.56000 282.798
50.60000 277.059
50.64000 269.775
50.68000 263.085
50.72000 240.218
50.76000 246.302
50.80000 220.117
50.84000 221.532
50.88000 203.480
50.92000 195.068
50.96000 181.311
51.00000 192.139
51.04000 201.790
51.08000 186.444
51.12000 184.932
51.16000 178.405
51.20000 185.691
51.24000 187.142
51.28000 186.179
51.32000 178.463
51.36000 162.121
51.40000 171.904
51.44000 174.419
51.48000 175.045
51.52000 172.757
51.56000 168.474
51.60000 173.923
51.64000 163.405
51.68000 175.433
51.72000 165.993
51.76000 170.334
51.80000 176.229
51.84000 178.793
51.88000 169.436
51.92000 166.792
51.96000 163.437
52.00000 173.350
52.04000 169.173
52.08000 163.805
52.12000 170.372
52.16000 157.721
52.20000 160.253
52.24000 175.622
52.28000 161.499
52.32000 154.647
52.36000 165.764
52.40000 162.492
52.44000 169.282
52.48000 162.623
52.52000 163.199
52.56000 166.156
52.60000 168.570
52.64000 168.034
52.68000 164.167
52.72000 172.790
52.76000 175.250
52.80000 174.793
52.84000 164.559
52.88000 169.819
52.92000 167.926
52.96000 160.614
53.00000 166.671
53.04000 168.896
53.08000 162.121
53.12000 168.290
53.16000 174.962
53.20000 157.870
53.24000 167.235
53.28000 162.151
53.32000 161.966
53.36000 168.947
53.40000 161.335
53.44000 164.037
53.48000 168.055
53.52000 157.886
53.56000 167.760
53.60000 167.086
53.64000 160.087
53.68000 175.392
53.72000 160.234
53.76000 157.832
53.80000 159.055
53.84000 164.088
53.88000 162.111
53.92000 164.116
53.96000 155.858
54.00000 153.847
54.04000 167.392
54.08000 166.620
54.12000 166.746
54.16000 163.825
54.20000 167.257
54.24000 154.476
54.28000 157.681
54.32000 160.805
54.36000 165.115
54.40000 164.346
54.44000 168.399
54.48000 169.149
54.52000 165.790
54.56000 161.492
54.60000 152.348
54.64000 160.616
54.68000 164.322
54.72000 166.792
54.76000 158.845
54.80000 165.132
54.84000 162.507
54.88000 162.187
54.92000 175.136
54.96000 165.428
55.00000 174.538
55.04000 187.386
55.08000 168.732
55.12000 166.217
55.16000 188.266
55.20000 196.626
55.24000 189.629
55.28000 210.551
55.32000 228.615
55.36000 239.705
55.40000 266.567
55.44000 271.933
55.48000 325.477
55.52000 369.898
55.56000 393.327
55.60000 453.118
55.64000 484.476
55.68000 483.113
55.72000 523.415
55.76000 510.566
55.80000 524.438
55.84000 485.960
55.88000 463.939
55.92000 415.135
55.96000 371.539
56.00000 330.371
56.04000 297.714
56.08000 281.259
56.12000 239.166
56.16000 227.664
56.20000 203.737
56.24000 201.952
56.28000 178.856
56.32000 189.481
56.36000 194.840
56.40000 179.046
56.44000 158.443
56.48000 160.777
56.52000 170.117
56.56000 161.837
56.60000 167.453
56.64000 167.007
56.68000 155.918
56.72000 166.877
56.76000 157.321
56.80000 156.698
56.84000 158.481
56.88000 149.152
56.92000 145.927
56.96000 157.786
57.00000 141.678
57.04000 156.261
57.08000 147.878
57.12000 155.770
57.16000 150.806
57.20000 160.413
57.24000 143.327
57.28000 149.370
57.32000 150.153
57.36000 148.481
57.40000 135.017
57.44000 135.369
57.48000 153.383
57.52000 156.108
57.56000 154.009
57.60000 151.521
57.64000 147.204
57.68000 139.984
57.72000 144.699
57.76000 144.018
57.80000 139.132
57.84000 139.225
57.88000 149.588
57.92000 144.000
57.96000 133.296
58.00000 140.003
58.04000 151.427
58.08000 140.113
58.12000 140.437
58.16000 139.819
58.20000 145.802
58.24000 142.731
58.28000 142.162
58.32000 135.985
58.36000 142.427
58.40000 137.479
58.44000 146.972
58.48000 134.917
58.52000 144.459
58.56000 139.386
58.60000 136.216
58.64000 131.640
58.68000 142.087
58.72000 142.970
58.76000 138.210
58.80000 141.806
58.84000 131.629
58.88000 134.680
58.92000 138.356
58.96000 142.815
59.00000 137.450
59.04000 153.151
59.08000 132.196
59.12000 135.645
59.16000 141.866
59.20000 142.176
59.24000 135.578
59.28000 135.950
59.32000 136.291
59.36000 134.415
59.40000 138.520
59.44000 136.489
59.48000 134.230
59.52000 128.177
59.56000 129.330
59.60000 135.612
59.64000 132.999
59.68000 140.206
59.72000 135.147
59.76000 134.124
59.80000 133.931
59.84000 143.670
59.88000 145.006
59.92000 134.254
59.96000 129.322
60.00000 134.199
60.04000 136.700
60.08000 133.922
60.12000 128.603
60.16000 139.233
60.20000 137.069
60.24000 133.655
60.28000 136.648
60.32000 147.322
60.36000 137.568
60.40000 140.327
60.44000 132.010
60.48000 137.522
60.52000 139.742
60.56000 128.382
60.60000 132.527
60.64000 131.170
60.68000 136.526
60.72000 139.939
60.76000 136.900
60.80000 139.104
60.84000 140.847
60.88000 136.095
60.92000 132.315
60.96000 131.638
61.00000 133.195
61.04000 134.254
61.08000 130.604
61.12000 146.199
61.16000 127.334
61.20000 134.610
61.24000 133.964
61.28000 139.792
61.32000 138.767
61.36000 144.270
61.40000 138.544
61.44000 145.379
61.48000 166.127
61.52000 178.389
61.56000 243.790
61.60000 294.230
61.64000 340.327
61.68000 347.288
61.72000 369.970
61.76000 317.399
61.80000 270.326
61.84000 208.505
61.88000 163.830
61.92000 153.667
61.96000 147.132
62.00000 139.488
62.04000 139.977
62.08000 150.973
62.12000 153.462
62.16000 142.294
62.20000 148.108
62.24000 146.207
62.28000 131.435
62.32000 155.283
62.36000 144.030
62.40000 141.407
62.44000 138.013
62.48000 158.538
62.52000 145.633
62.56000 140.900
62.60000 135.777
62.64000 134.124
62.68000 149.336
62.72000 151.493
62.76000 151.611
62.80000 131.319
62.84000 134.872
62.88000 139.773
62.92000 159.023
62.96000 147.915
63.00000 142.034
63.04000 150.797
63.08000 147.879
63.12000 145.536
63.16000 150.253
63.20000 150.687
63.24000 145.629
63.28000 150.354
63.32000 153.998
63.36000 152.130
63.40000 146.479
63.44000 153.073
63.48000 148.077
63.52000 151.203
63.56000 142.486
63.60000 151.662
63.64000 149.466
63.68000 158.839
63.72000 157.690
63.76000 162.318
63.80000 151.128
63.84000 157.368
63.88000 158.752
63.92000 159.309
63.96000 152.459
64.00000 157.394
64.04000 157.850
64.08000 158.334
64.12000 173.569
64.16000 156.635
64.20000 157.482
64.24000 167.642
64.28000 167.981
64.32000 173.637
64.36000 170.335
64.40000 183.538
64.44000 176.067
64.48000 178.289
64.52000 171.756
64.56000 180.869
64.60000 174.355
64.64000 182.398
64.68000 184.676
64.72000 174.845
64.76000 195.372
64.80000 199.394
64.84000 214.516
64.88000 199.033
64.92000 217.077
64.96000 225.185
65.00000 246.937
65.04000 281.097
65.08000 316.577
65.12000 309.086
65.16000 333.880
65.20000 387.041
65.24000 389.843
65.28000 416.137
65.32000 413.977
65.36000 403.609
65.40000 399.698
65.44000 400.039
65.48000 390.444
65.52000 373.173
65.56000 379.250
65.60000 378.151
65.64000 403.864
65.68000 525.275
65.72000 739.961
65.76000 979.943
65.80000 1230.575
65.84000 1361.390
65.88000 1384.799
65.92000 1321.076
65.96000 1096.705
66.00000 799.781
66.04000 530.462
66.08000 411.323
66.12000 368.570
66.16000 331.546
66.20000 322.617
66.24000 363.307
66.28000 396.761
66.32000 464.739
66.36000 512.539
66.40000 528.300
66.44000 522.182
66.48000 505.359
66.52000 498.130
66.56000 413.144
66.60000 373.541
66.64000 345.125
66.68000 336.303
66.72000 341.662
66.76000 335.258
66.80000 338.774
66.84000 357.156
66.88000 364.188
66.92000 366.982
66.96000 372.112
67.00000 375.368
67.04000 385.360
67.08000 392.077
67.12000 396.264
67.16000 400.819
67.20000 412.922
67.24000 407.394
67.28000 418.110
67.32000 420.919
67.36000 450.954
67.40000 442.163
67.44000 449.703
67.48000 464.384
67.52000 483.210
67.56000 464.894
67.60000 495.301
67.64000 516.449
67.68000 496.249
67.72000 515.489
67.76000 530.567
67.80000 551.948
67.84000 535.503
67.88000 561.177
67.92000 566.646
67.96000 591.457
68.00000 602.863
68.04000 596.552
68.08000 627.716
68.12000 625.342
68.16000 637.563
68.20000 662.158
68.24000 698.913
68.28000 698.890
68.32000 760.037
68.36000 801.045
68.40000 817.394
68.44000 841.485
68.48000 896.176
68.52000 967.196
68.56000 1055.564
68.60000 1195.796
68.64000 1417.908
68.68000 1770.044
68.72000 2032.447
68.76000 2302.879
68.80000 2649.447
68.84000 3342.349
68.88000 4788.761
68.92000 9501.325
68.96000 23196.723
69.00000 47731.195
69.04000 71701.305
69.08000 83773.836
69.12000 86642.719
69.16000 89240.813
69.20000 86402.094
69.24000 73645.539
69.28000 57503.949
69.32000 47066.367
69.36000 40909.793
69.40000 32175.838
69.44000 20127.127
69.48000 9666.111
69.52000 4305.644
69.56000 2600.164
69.60000 1903.545
69.64000 1618.379
69.68000 1379.690
69.72000 1243.443
69.76000 1122.350
69.80000 1027.378
69.84000 987.394
69.88000 896.066
69.92000 859.888
69.96000 800.419
70.00000 764.137