File: XRD/17-09-2025/XY Data/BTO_Mapping_Theta2Theta_09-17-2025_001_36_0-000_45-000.xy
20.00000 546.251
20.04000 569.071
20.08000 541.852
20.12000 549.720
20.16000 549.122
20.20000 561.163
20.24000 553.922
20.28000 536.231
20.32000 575.201
20.36000 546.086
20.40000 534.582
20.44000 549.846
20.48000 544.082
20.52000 533.675
20.56000 554.361
20.60000 530.833
20.64000 563.461
20.68000 545.949
20.72000 536.499
20.76000 545.662
20.80000 545.466
20.84000 561.778
20.88000 547.751
20.92000 527.801
20.96000 545.964
21.00000 540.402
21.04000 555.391
21.08000 537.788
21.12000 532.153
21.16000 544.280
21.20000 535.827
21.24000 539.990
21.28000 556.937
21.32000 535.646
21.36000 541.242
21.40000 538.472
21.44000 552.486
21.48000 550.672
21.52000 551.165
21.56000 561.800
21.60000 545.911
21.64000 543.762
21.68000 542.125
21.72000 565.101
21.76000 561.917
21.80000 578.478
21.84000 584.602
21.88000 588.720
21.92000 591.896
21.96000 608.670
22.00000 595.208
22.04000 618.170
22.08000 605.030
22.12000 619.050
22.16000 596.825
22.20000 577.243
22.24000 581.861
22.28000 573.936
22.32000 544.877
22.36000 555.359
22.40000 528.209
22.44000 539.185
22.48000 543.376
22.52000 541.519
22.56000 554.864
22.60000 536.620
22.64000 526.348
22.68000 520.662
22.72000 513.124
22.76000 525.423
22.80000 523.478
22.84000 506.589
22.88000 526.633
22.92000 496.657
22.96000 508.874
23.00000 508.852
23.04000 497.998
23.08000 505.084
23.12000 521.104
23.16000 515.539
23.20000 504.130
23.24000 502.895
23.28000 490.927
23.32000 510.028
23.36000 502.076
23.40000 494.320
23.44000 508.983
23.48000 496.871
23.52000 505.226
23.56000 497.986
23.60000 506.605
23.64000 507.164
23.68000 524.470
23.72000 494.007
23.76000 503.677
23.80000 515.103
23.84000 495.841
23.88000 496.094
23.92000 523.295
23.96000 515.759
24.00000 520.258
24.04000 492.259
24.08000 507.423
24.12000 502.263
24.16000 487.466
24.20000 484.441
24.24000 501.395
24.28000 473.668
24.32000 483.603
24.36000 484.433
24.40000 473.857
24.44000 487.457
24.48000 490.884
24.52000 484.399
24.56000 495.835
24.60000 488.251
24.64000 475.771
24.68000 488.925
24.72000 473.215
24.76000 472.039
24.80000 496.173
24.84000 480.412
24.88000 460.568
24.92000 465.135
24.96000 473.544
25.00000 475.778
25.04000 479.271
25.08000 472.108
25.12000 465.322
25.16000 466.081
25.20000 471.315
25.24000 469.097
25.28000 462.985
25.32000 458.323
25.36000 452.521
25.40000 469.337
25.44000 470.224
25.48000 453.533
25.52000 459.554
25.56000 474.173
25.60000 465.724
25.64000 450.992
25.68000 444.491
25.72000 465.541
25.76000 464.599
25.80000 458.020
25.84000 456.099
25.88000 460.763
25.92000 459.241
25.96000 459.653
26.00000 439.570
26.04000 444.460
26.08000 451.497
26.12000 450.517
26.16000 449.078
26.20000 448.871
26.24000 453.066
26.28000 448.016
26.32000 453.152
26.36000 446.251
26.40000 455.115
26.44000 434.922
26.48000 468.878
26.52000 467.668
26.56000 431.826
26.60000 438.506
26.64000 430.466
26.68000 453.144
26.72000 458.451
26.76000 438.502
26.80000 444.829
26.84000 456.207
26.88000 441.939
26.92000 449.019
26.96000 451.730
27.00000 448.637
27.04000 455.678
27.08000 441.853
27.12000 440.741
27.16000 433.928
27.20000 433.597
27.24000 455.586
27.28000 425.483
27.32000 418.289
27.36000 458.796
27.40000 431.134
27.44000 432.934
27.48000 435.767
27.52000 445.990
27.56000 434.866
27.60000 416.769
27.64000 425.280
27.68000 430.561
27.72000 424.634
27.76000 439.974
27.80000 436.649
27.84000 416.684
27.88000 430.620
27.92000 430.443
27.96000 437.789
28.00000 430.128
28.04000 436.759
28.08000 402.300
28.12000 415.830
28.16000 422.459
28.20000 429.997
28.24000 417.170
28.28000 429.022
28.32000 415.977
28.36000 429.087
28.40000 422.918
28.44000 430.928
28.48000 430.371
28.52000 436.580
28.56000 397.526
28.60000 417.550
28.64000 411.906
28.68000 423.205
28.72000 417.284
28.76000 427.863
28.80000 436.383
28.84000 408.217
28.88000 394.416
28.92000 420.207
28.96000 407.644
29.00000 414.874
29.04000 412.136
29.08000 417.815
29.12000 416.029
29.16000 427.249
29.20000 406.892
29.24000 409.705
29.28000 401.626
29.32000 412.001
29.36000 401.872
29.40000 412.763
29.44000 401.120
29.48000 409.783
29.52000 402.458
29.56000 401.056
29.60000 409.321
29.64000 401.221
29.68000 403.286
29.72000 413.180
29.76000 408.233
29.80000 403.959
29.84000 412.103
29.88000 409.068
29.92000 392.297
29.96000 408.353
30.00000 405.247
30.04000 399.879
30.08000 389.580
30.12000 396.763
30.16000 404.759
30.20000 410.868
30.24000 410.307
30.28000 394.314
30.32000 396.600
30.36000 395.086
30.40000 398.212
30.44000 411.036
30.48000 406.041
30.52000 408.395
30.56000 416.164
30.60000 412.567
30.64000 405.429
30.68000 414.431
30.72000 416.366
30.76000 426.184
30.80000 427.082
30.84000 449.499
30.88000 449.534
30.92000 472.805
30.96000 482.631
31.00000 514.242
31.04000 543.491
31.08000 631.430
31.12000 694.267
31.16000 794.230
31.20000 894.843
31.24000 1007.801
31.28000 1066.945
31.32000 1155.371
31.36000 1137.241
31.40000 1136.890
31.44000 1106.380
31.48000 1008.575
31.52000 916.707
31.56000 780.142
31.60000 650.784
31.64000 604.342
31.68000 528.476
31.72000 495.820
31.76000 455.850
31.80000 421.949
31.84000 408.987
31.88000 432.665
31.92000 399.934
31.96000 384.586
32.00000 377.710
32.04000 388.606
32.08000 381.041
32.12000 372.122
32.16000 359.137
32.20000 391.475
32.24000 369.875
32.28000 360.134
32.32000 375.579
32.36000 373.921
32.40000 376.576
32.44000 357.753
32.48000 350.142
32.52000 362.936
32.56000 353.799
32.60000 358.549
32.64000 353.407
32.68000 354.756
32.72000 354.373
32.76000 353.109
32.80000 344.901
32.84000 338.208
32.88000 353.666
32.92000 359.333
32.96000 336.142
33.00000 355.145
33.04000 342.975
33.08000 347.202
33.12000 323.647
33.16000 342.175
33.20000 337.944
33.24000 341.237
33.28000 339.921
33.32000 341.159
33.36000 336.903
33.40000 332.861
33.44000 337.468
33.48000 359.455
33.52000 343.758
33.56000 324.031
33.60000 325.710
33.64000 317.992
33.68000 340.228
33.72000 339.983
33.76000 337.036
33.80000 337.026
33.84000 333.898
33.88000 339.274
33.92000 319.715
33.96000 311.884
34.00000 344.732
34.04000 334.518
34.08000 322.760
34.12000 321.445
34.16000 303.752
34.20000 339.788
34.24000 319.435
34.28000 333.165
34.32000 324.004
34.36000 318.377
34.40000 321.764
34.44000 332.070
34.48000 332.278
34.52000 311.006
34.56000 320.266
34.60000 321.947
34.64000 337.635
34.68000 325.140
34.72000 308.987
34.76000 318.126
34.80000 316.741
34.84000 314.857
34.88000 321.001
34.92000 309.182
34.96000 304.689
35.00000 317.771
35.04000 306.577
35.08000 302.053
35.12000 310.086
35.16000 315.478
35.20000 316.080
35.24000 308.147
35.28000 305.952
35.32000 297.718
35.36000 313.455
35.40000 304.036
35.44000 312.548
35.48000 306.940
35.52000 301.039
35.56000 313.530
35.60000 308.323
35.64000 296.830
35.68000 310.241
35.72000 297.985
35.76000 293.830
35.80000 295.185
35.84000 296.709
35.88000 300.333
35.92000 281.555
35.96000 307.250
36.00000 304.732
36.04000 308.990
36.08000 321.109
36.12000 297.265
36.16000 295.755
36.20000 298.695
36.24000 295.483
36.28000 301.374
36.32000 300.359
36.36000 294.527
36.40000 292.573
36.44000 280.407
36.48000 297.066
36.52000 302.625
36.56000 282.450
36.60000 290.856
36.64000 283.750
36.68000 289.975
36.72000 295.001
36.76000 280.284
36.80000 292.562
36.84000 288.606
36.88000 290.394
36.92000 298.149
36.96000 297.592
37.00000 294.111
37.04000 287.403
37.08000 304.575
37.12000 287.675
37.16000 279.277
37.20000 292.175
37.24000 280.280
37.28000 266.372
37.32000 287.490
37.36000 288.482
37.40000 272.441
37.44000 282.504
37.48000 284.927
37.52000 278.078
37.56000 282.610
37.60000 299.595
37.64000 285.166
37.68000 280.791
37.72000 275.260
37.76000 294.938
37.80000 281.637
37.84000 279.385
37.88000 282.543
37.92000 287.086
37.96000 279.807
38.00000 280.705
38.04000 287.638
38.08000 291.105
38.12000 285.675
38.16000 291.900
38.20000 285.205
38.24000 278.473
38.28000 274.602
38.32000 327.154
38.36000 332.541
38.40000 340.558
38.44000 342.210
38.48000 372.030
38.52000 368.373
38.56000 409.089
38.60000 421.460
38.64000 449.198
38.68000 449.861
38.72000 449.231
38.76000 431.379
38.80000 414.739
38.84000 391.597
38.88000 385.943
38.92000 352.032
38.96000 325.853
39.00000 320.282
39.04000 293.571
39.08000 285.261
39.12000 298.351
39.16000 291.575
39.20000 266.869
39.24000 266.977
39.28000 265.523
39.32000 271.785
39.36000 258.358
39.40000 257.615
39.44000 256.996
39.48000 260.515
39.52000 262.459
39.56000 255.710
39.60000 258.446
39.64000 259.052
39.68000 253.678
39.72000 259.758
39.76000 268.521
39.80000 233.940
39.84000 265.157
39.88000 247.392
39.92000 258.265
39.96000 239.275
40.00000 260.983
40.04000 254.590
40.08000 261.133
40.12000 244.332
40.16000 255.863
40.20000 259.402
40.24000 256.720
40.28000 263.114
40.32000 257.208
40.36000 248.206
40.40000 243.736
40.44000 250.895
40.48000 246.800
40.52000 256.757
40.56000 254.336
40.60000 240.837
40.64000 247.750
40.68000 258.604
40.72000 246.534
40.76000 255.353
40.80000 244.162
40.84000 237.716
40.88000 245.315
40.92000 254.140
40.96000 237.490
41.00000 260.165
41.04000 256.082
41.08000 238.789
41.12000 229.428
41.16000 243.037
41.20000 244.159
41.24000 238.955
41.28000 238.010
41.32000 248.980
41.36000 246.472
41.40000 249.432
41.44000 238.898
41.48000 231.432
41.52000 234.428
41.56000 243.169
41.60000 238.018
41.64000 244.518
41.68000 233.591
41.72000 224.649
41.76000 228.750
41.80000 232.346
41.84000 245.525
41.88000 232.977
41.92000 234.071
41.96000 231.988
42.00000 249.180
42.04000 229.524
42.08000 235.752
42.12000 245.044
42.16000 241.579
42.20000 247.313
42.24000 229.222
42.28000 235.389
42.32000 229.260
42.36000 228.172
42.40000 225.529
42.44000 236.536
42.48000 230.291
42.52000 223.747
42.56000 231.835
42.60000 233.201
42.64000 213.561
42.68000 229.722
42.72000 216.991
42.76000 226.186
42.80000 228.122
42.84000 228.922
42.88000 228.399
42.92000 227.641
42.96000 218.816
43.00000 235.670
43.04000 223.386
43.08000 217.704
43.12000 224.369
43.16000 226.296
43.20000 217.136
43.24000 214.766
43.28000 232.103
43.32000 226.608
43.36000 232.200
43.40000 228.245
43.44000 229.565
43.48000 215.799
43.52000 216.170
43.56000 225.868
43.60000 227.042
43.64000 233.861
43.68000 215.742
43.72000 224.558
43.76000 224.404
43.80000 225.168
43.84000 206.532
43.88000 218.409
43.92000 214.169
43.96000 216.650
44.00000 215.028
44.04000 210.607
44.08000 223.014
44.12000 219.167
44.16000 224.106
44.20000 235.609
44.24000 220.772
44.28000 214.699
44.32000 230.545
44.36000 227.794
44.40000 229.047
44.44000 222.541
44.48000 234.770
44.52000 230.285
44.56000 223.254
44.60000 235.560
44.64000 235.503
44.68000 239.836
44.72000 224.529
44.76000 248.262
44.80000 250.777
44.84000 254.976
44.88000 263.767
44.92000 268.486
44.96000 268.774
45.00000 280.172
45.04000 273.268
45.08000 288.833
45.12000 258.869
45.16000 258.331
45.20000 265.499
45.24000 254.878
45.28000 262.494
45.32000 245.182
45.36000 250.022
45.40000 240.754
45.44000 241.469
45.48000 234.333
45.52000 234.068
45.56000 216.549
45.60000 214.939
45.64000 225.601
45.68000 218.209
45.72000 204.706
45.76000 208.923
45.80000 210.173
45.84000 201.373
45.88000 200.347
45.92000 201.696
45.96000 212.625
46.00000 201.819
46.04000 200.729
46.08000 209.181
46.12000 198.622
46.16000 210.801
46.20000 199.420
46.24000 201.453
46.28000 200.868
46.32000 196.796
46.36000 203.769
46.40000 195.916
46.44000 199.020
46.48000 197.820
46.52000 190.279
46.56000 195.905
46.60000 191.450
46.64000 200.294
46.68000 197.654
46.72000 187.528
46.76000 182.392
46.80000 196.618
46.84000 193.141
46.88000 177.229
46.92000 195.873
46.96000 190.355
47.00000 194.411
47.04000 190.145
47.08000 185.413
47.12000 187.846
47.16000 200.619
47.20000 199.481
47.24000 195.484
47.28000 181.740
47.32000 187.396
47.36000 185.778
47.40000 183.407
47.44000 188.212
47.48000 185.958
47.52000 181.567
47.56000 185.422
47.60000 190.203
47.64000 191.214
47.68000 183.980
47.72000 175.797
47.76000 178.833
47.80000 185.170
47.84000 183.764
47.88000 185.565
47.92000 185.451
47.96000 181.474
48.00000 186.817
48.04000 182.291
48.08000 174.677
48.12000 183.373
48.16000 176.564
48.20000 173.078
48.24000 183.121
48.28000 180.226
48.32000 189.750
48.36000 181.828
48.40000 180.391
48.44000 187.870
48.48000 184.525
48.52000 183.515
48.56000 184.910
48.60000 176.163
48.64000 178.097
48.68000 196.126
48.72000 184.828
48.76000 181.612
48.80000 184.995
48.84000 171.362
48.88000 179.997
48.92000 178.180
48.96000 192.213
49.00000 175.350
49.04000 182.189
49.08000 169.445
49.12000 173.787
49.16000 172.196
49.20000 177.012
49.24000 181.270
49.28000 177.487
49.32000 174.964
49.36000 167.098
49.40000 185.479
49.44000 180.661
49.48000 174.738
49.52000 181.034
49.56000 174.691
49.60000 170.110
49.64000 174.987
49.68000 168.219
49.72000 173.329
49.76000 177.922
49.80000 172.745
49.84000 175.027
49.88000 159.024
49.92000 166.763
49.96000 180.464
50.00000 164.554
50.04000 175.426
50.08000 181.257
50.12000 164.515
50.16000 165.740
50.20000 181.868
50.24000 175.211
50.28000 175.109
50.32000 183.180
50.36000 184.320
50.40000 200.205
50.44000 185.334
50.48000 184.476
50.52000 180.846
50.56000 195.437
50.60000 198.790
50.64000 203.392
50.68000 200.292
50.72000 190.880
50.76000 195.072
50.80000 189.218
50.84000 191.920
50.88000 184.113
50.92000 175.364
50.96000 180.752
51.00000 168.388
51.04000 174.470
51.08000 171.390
51.12000 169.175
51.16000 161.134
51.20000 167.213
51.24000 159.004
51.28000 158.455
51.32000 157.037
51.36000 163.502
51.40000 164.585
51.44000 159.753
51.48000 160.034
51.52000 164.776
51.56000 167.493
51.60000 163.986
51.64000 156.351
51.68000 164.337
51.72000 159.494
51.76000 171.774
51.80000 166.112
51.84000 156.816
51.88000 160.559
51.92000 159.611
51.96000 149.167
52.00000 150.690
52.04000 150.505
52.08000 158.083
52.12000 159.715
52.16000 166.835
52.20000 163.877
52.24000 155.297
52.28000 159.488
52.32000 164.553
52.36000 159.481
52.40000 154.548
52.44000 178.150
52.48000 150.674
52.52000 158.183
52.56000 155.425
52.60000 156.310
52.64000 157.500
52.68000 164.673
52.72000 160.959
52.76000 155.125
52.80000 152.667
52.84000 161.134
52.88000 156.302
52.92000 158.249
52.96000 157.221
53.00000 156.953
53.04000 156.870
53.08000 155.337
53.12000 144.796
53.16000 150.022
53.20000 139.640
53.24000 151.565
53.28000 165.004
53.32000 149.977
53.36000 152.442
53.40000 148.363
53.44000 152.243
53.48000 158.181
53.52000 160.831
53.56000 144.026
53.60000 142.901
53.64000 161.041
53.68000 152.026
53.72000 146.316
53.76000 163.270
53.80000 149.637
53.84000 159.926
53.88000 145.249
53.92000 143.808
53.96000 160.773
54.00000 152.415
54.04000 154.792
54.08000 143.580
54.12000 143.928
54.16000 145.606
54.20000 166.034
54.24000 154.359
54.28000 157.004
54.32000 152.578
54.36000 146.201
54.40000 149.145
54.44000 149.861
54.48000 142.703
54.52000 146.943
54.56000 152.577
54.60000 143.819
54.64000 150.778
54.68000 154.994
54.72000 151.466
54.76000 153.657
54.80000 139.687
54.84000 155.682
54.88000 161.462
54.92000 160.933
54.96000 170.315
55.00000 159.900
55.04000 157.253
55.08000 151.431
55.12000 157.281
55.16000 153.992
55.20000 164.936
55.24000 151.745
55.28000 155.399
55.32000 160.761
55.36000 175.943
55.40000 164.452
55.44000 172.828
55.48000 182.578
55.52000 195.868
55.56000 196.245
55.60000 192.146
55.64000 206.631
55.68000 231.843
55.72000 230.853
55.76000 262.231
55.80000 257.819
55.84000 275.425
55.88000 278.893
55.92000 274.463
55.96000 269.897
56.00000 253.895
56.04000 237.625
56.08000 227.532
56.12000 219.940
56.16000 220.972
56.20000 193.918
56.24000 181.835
56.28000 181.378
56.32000 173.175
56.36000 164.738
56.40000 170.262
56.44000 152.744
56.48000 161.613
56.52000 153.626
56.56000 146.952
56.60000 145.138
56.64000 139.488
56.68000 145.028
56.72000 144.265
56.76000 141.440
56.80000 143.453
56.84000 139.126
56.88000 141.287
56.92000 143.033
56.96000 141.075
57.00000 141.384
57.04000 141.896
57.08000 140.844
57.12000 141.114
57.16000 132.048
57.20000 147.523
57.24000 144.423
57.28000 136.423
57.32000 146.642
57.36000 146.209
57.40000 145.408
57.44000 132.989
57.48000 133.917
57.52000 141.911
57.56000 137.644
57.60000 133.443
57.64000 141.992
57.68000 138.310
57.72000 146.973
57.76000 152.906
57.80000 137.839
57.84000 143.700
57.88000 130.144
57.92000 129.105
57.96000 144.132
58.00000 138.402
58.04000 128.223
58.08000 136.884
58.12000 127.842
58.16000 132.435
58.20000 133.998
58.24000 135.840
58.28000 133.745
58.32000 129.152
58.36000 136.485
58.40000 139.262
58.44000 127.731
58.48000 122.828
58.52000 132.498
58.56000 134.904
58.60000 131.460
58.64000 129.520
58.68000 127.087
58.72000 138.328
58.76000 138.336
58.80000 132.408
58.84000 132.697
58.88000 131.587
58.92000 131.677
58.96000 135.381
59.00000 141.036
59.04000 139.938
59.08000 132.788
59.12000 131.711
59.16000 138.031
59.20000 125.901
59.24000 134.317
59.28000 126.678
59.32000 132.325
59.36000 137.452
59.40000 128.988
59.44000 130.455
59.48000 134.922
59.52000 132.480
59.56000 125.396
59.60000 123.147
59.64000 131.831
59.68000 126.236
59.72000 139.886
59.76000 128.327
59.80000 130.057
59.84000 130.338
59.88000 130.161
59.92000 129.203
59.96000 136.585
60.00000 144.904
60.04000 130.973
60.08000 145.015
60.12000 133.130
60.16000 143.844
60.20000 142.452
60.24000 135.725
60.28000 128.685
60.32000 130.116
60.36000 129.565
60.40000 136.310
60.44000 140.468
60.48000 128.663
60.52000 139.180
60.56000 132.380
60.60000 135.694
60.64000 135.498
60.68000 136.953
60.72000 135.509
60.76000 131.781
60.80000 120.488
60.84000 128.706
60.88000 129.273
60.92000 137.095
60.96000 138.955
61.00000 139.212
61.04000 139.846
61.08000 142.870
61.12000 128.863
61.16000 142.857
61.20000 127.865
61.24000 132.822
61.28000 127.662
61.32000 137.462
61.36000 133.310
61.40000 136.705
61.44000 137.381
61.48000 151.117
61.52000 159.123
61.56000 188.654
61.60000 214.944
61.64000 237.930
61.68000 258.318
61.72000 262.208
61.76000 248.707
61.80000 230.449
61.84000 189.574
61.88000 161.723
61.92000 149.360
61.96000 139.754
62.00000 143.183
62.04000 135.918
62.08000 139.149
62.12000 142.812
62.16000 143.274
62.20000 138.527
62.24000 133.177
62.28000 138.079
62.32000 143.868
62.36000 133.172
62.40000 137.885
62.44000 139.938
62.48000 140.488
62.52000 138.746
62.56000 139.104
62.60000 141.361
62.64000 137.967
62.68000 141.823
62.72000 142.662
62.76000 140.810
62.80000 143.585
62.84000 139.138
62.88000 140.835
62.92000 145.713
62.96000 145.645
63.00000 146.188
63.04000 150.076
63.08000 152.756
63.12000 143.535
63.16000 148.527
63.20000 144.921
63.24000 138.890
63.28000 151.578
63.32000 165.752
63.36000 152.054
63.40000 158.395
63.44000 140.467
63.48000 140.455
63.52000 157.094
63.56000 150.279
63.60000 146.578
63.64000 149.137
63.68000 155.253
63.72000 155.226
63.76000 150.783
63.80000 155.010
63.84000 158.658
63.88000 163.931
63.92000 163.332
63.96000 159.628
64.00000 170.265
64.04000 156.039
64.08000 165.217
64.12000 158.500
64.16000 159.964
64.20000 162.705
64.24000 157.549
64.28000 169.179
64.32000 158.994
64.36000 173.668
64.40000 161.949
64.44000 156.791
64.48000 162.926
64.52000 164.260
64.56000 166.429
64.60000 176.972
64.64000 171.539
64.68000 165.869
64.72000 170.812
64.76000 172.195
64.80000 179.730
64.84000 189.501
64.88000 186.763
64.92000 191.494
64.96000 192.352
65.00000 193.842
65.04000 188.941
65.08000 193.845
65.12000 205.149
65.16000 226.252
65.20000 215.647
65.24000 214.879
65.28000 221.702
65.32000 216.737
65.36000 236.711
65.40000 229.326
65.44000 246.128
65.48000 241.046
65.52000 248.612
65.56000 254.451
65.60000 281.765
65.64000 288.682
65.68000 357.743
65.72000 449.556
65.76000 629.221
65.80000 802.127
65.84000 909.341
65.88000 929.198
65.92000 898.498
65.96000 783.081
66.00000 586.422
66.04000 427.813
66.08000 341.885
66.12000 302.741
66.16000 285.978
66.20000 287.800
66.24000 307.626
66.28000 310.933
66.32000 360.559
66.36000 403.476
66.40000 404.037
66.44000 426.660
66.48000 423.938
66.52000 397.245
66.56000 354.534
66.60000 314.959
66.64000 322.454
66.68000 314.372
66.72000 316.446
66.76000 325.709
66.80000 316.949
66.84000 315.488
66.88000 320.595
66.92000 336.441
66.96000 338.699
67.00000 349.310
67.04000 337.216
67.08000 346.929
67.12000 344.690
67.16000 374.522
67.20000 369.889
67.24000 376.039
67.28000 381.700
67.32000 393.108
67.36000 392.111
67.40000 397.620
67.44000 408.657
67.48000 404.963
67.52000 415.714
67.56000 413.241
67.60000 447.301
67.64000 449.836
67.68000 462.229
67.72000 469.744
67.76000 472.931
67.80000 474.127
67.84000 499.902
67.88000 509.222
67.92000 498.599
67.96000 517.858
68.00000 500.876
68.04000 554.436
68.08000 587.228
68.12000 566.437
68.16000 584.207
68.20000 603.559
68.24000 614.253
68.28000 653.956
68.32000 650.608
68.36000 656.403
68.40000 699.818
68.44000 724.072
68.48000 760.015
68.52000 777.684
68.56000 841.687
68.60000 920.573
68.64000 1080.494
68.68000 1276.505
68.72000 1470.790
68.76000 1685.310
68.80000 1836.603
68.84000 2146.333
68.88000 2672.766
68.92000 4316.862
68.96000 10743.050
69.00000 25702.686
69.04000 43029.406
69.08000 52853.090
69.12000 54395.590
69.16000 56014.270
69.20000 56976.422
69.24000 48649.805
69.28000 37223.266
69.32000 29911.070
69.36000 26956.727
69.40000 22796.246
69.44000 14298.465
69.48000 6790.390
69.52000 2935.711
69.56000 1853.733
69.60000 1477.513
69.64000 1278.144
69.68000 1117.896
69.72000 1030.842
69.76000 931.705
69.80000 871.909
69.84000 799.515
69.88000 749.785
69.92000 726.043
69.96000 695.735
70.00000 664.975