File: XRD/17-09-2025/XY Data/BTO_Mapping_Theta2Theta_09-17-2025_001_29_45-000_15-000.xy
20.00000 576.894
20.04000 596.078
20.08000 586.424
20.12000 597.554
20.16000 575.282
20.20000 578.524
20.24000 588.349
20.28000 570.007
20.32000 551.829
20.36000 563.517
20.40000 555.990
20.44000 575.648
20.48000 584.225
20.52000 569.812
20.56000 547.301
20.60000 560.560
20.64000 583.087
20.68000 556.565
20.72000 563.242
20.76000 568.374
20.80000 575.165
20.84000 572.199
20.88000 563.342
20.92000 567.871
20.96000 566.893
21.00000 555.539
21.04000 553.277
21.08000 561.119
21.12000 551.185
21.16000 569.107
21.20000 557.298
21.24000 543.717
21.28000 527.660
21.32000 532.230
21.36000 533.501
21.40000 538.021
21.44000 521.373
21.48000 559.558
21.52000 549.105
21.56000 532.168
21.60000 553.994
21.64000 550.664
21.68000 546.681
21.72000 532.932
21.76000 540.890
21.80000 534.202
21.84000 525.799
21.88000 555.451
21.92000 564.100
21.96000 534.972
22.00000 551.476
22.04000 563.371
22.08000 555.010
22.12000 541.915
22.16000 538.354
22.20000 553.298
22.24000 545.373
22.28000 555.890
22.32000 535.530
22.36000 539.679
22.40000 531.348
22.44000 527.614
22.48000 512.814
22.52000 503.425
22.56000 506.419
22.60000 536.606
22.64000 524.742
22.68000 517.388
22.72000 509.277
22.76000 506.097
22.80000 512.442
22.84000 516.619
22.88000 511.748
22.92000 498.096
22.96000 520.034
23.00000 491.478
23.04000 515.332
23.08000 504.538
23.12000 514.261
23.16000 497.147
23.20000 498.238
23.24000 509.688
23.28000 482.749
23.32000 510.312
23.36000 489.907
23.40000 520.523
23.44000 484.190
23.48000 497.624
23.52000 475.022
23.56000 500.317
23.60000 488.955
23.64000 498.001
23.68000 514.890
23.72000 493.598
23.76000 493.475
23.80000 491.615
23.84000 521.537
23.88000 492.094
23.92000 505.257
23.96000 489.604
24.00000 485.722
24.04000 508.216
24.08000 486.161
24.12000 485.212
24.16000 496.799
24.20000 485.133
24.24000 495.335
24.28000 502.513
24.32000 488.127
24.36000 481.021
24.40000 481.697
24.44000 494.091
24.48000 488.129
24.52000 488.187
24.56000 455.806
24.60000 474.708
24.64000 476.617
24.68000 486.300
24.72000 479.709
24.76000 469.228
24.80000 479.517
24.84000 451.295
24.88000 472.531
24.92000 469.927
24.96000 463.098
25.00000 462.236
25.04000 474.152
25.08000 485.239
25.12000 459.099
25.16000 481.669
25.20000 451.795
25.24000 458.070
25.28000 462.292
25.32000 454.851
25.36000 455.128
25.40000 457.032
25.44000 456.581
25.48000 474.616
25.52000 443.387
25.56000 455.283
25.60000 454.266
25.64000 460.661
25.68000 460.556
25.72000 460.020
25.76000 445.004
25.80000 472.297
25.84000 467.212
25.88000 443.718
25.92000 451.406
25.96000 445.049
26.00000 448.888
26.04000 447.248
26.08000 441.952
26.12000 463.165
26.16000 431.444
26.20000 441.989
26.24000 432.501
26.28000 451.710
26.32000 446.774
26.36000 435.731
26.40000 440.030
26.44000 439.752
26.48000 451.681
26.52000 440.394
26.56000 451.493
26.60000 441.872
26.64000 432.144
26.68000 441.726
26.72000 450.900
26.76000 426.588
26.80000 441.741
26.84000 430.675
26.88000 435.979
26.92000 414.333
26.96000 448.111
27.00000 428.471
27.04000 439.270
27.08000 422.264
27.12000 410.457
27.16000 410.499
27.20000 433.983
27.24000 443.751
27.28000 425.319
27.32000 440.173
27.36000 421.517
27.40000 425.396
27.44000 440.468
27.48000 438.067
27.52000 417.952
27.56000 420.203
27.60000 425.372
27.64000 414.726
27.68000 395.823
27.72000 414.782
27.76000 427.939
27.80000 408.606
27.84000 411.884
27.88000 415.272
27.92000 422.299
27.96000 427.880
28.00000 418.585
28.04000 423.066
28.08000 396.796
28.12000 405.628
28.16000 399.499
28.20000 417.741
28.24000 410.900
28.28000 416.396
28.32000 413.855
28.36000 403.160
28.40000 408.529
28.44000 419.783
28.48000 405.528
28.52000 409.100
28.56000 423.721
28.60000 401.913
28.64000 418.867
28.68000 407.142
28.72000 401.241
28.76000 422.073
28.80000 396.453
28.84000 388.634
28.88000 396.175
28.92000 397.207
28.96000 400.009
29.00000 389.569
29.04000 386.336
29.08000 382.172
29.12000 399.468
29.16000 402.006
29.20000 382.916
29.24000 399.476
29.28000 388.325
29.32000 390.875
29.36000 398.338
29.40000 389.170
29.44000 403.796
29.48000 400.074
29.52000 394.899
29.56000 384.742
29.60000 374.461
29.64000 400.195
29.68000 383.645
29.72000 393.521
29.76000 382.485
29.80000 385.974
29.84000 376.479
29.88000 382.309
29.92000 385.863
29.96000 380.755
30.00000 378.783
30.04000 392.949
30.08000 384.922
30.12000 362.956
30.16000 375.428
30.20000 387.138
30.24000 374.815
30.28000 389.721
30.32000 385.070
30.36000 372.932
30.40000 371.630
30.44000 367.158
30.48000 374.729
30.52000 386.559
30.56000 358.151
30.60000 377.599
30.64000 371.862
30.68000 379.584
30.72000 366.239
30.76000 381.658
30.80000 384.395
30.84000 369.630
30.88000 379.478
30.92000 381.054
30.96000 381.593
31.00000 380.435
31.04000 404.052
31.08000 400.584
31.12000 411.330
31.16000 439.067
31.20000 435.228
31.24000 448.098
31.28000 442.142
31.32000 451.816
31.36000 439.818
31.40000 424.960
31.44000 410.060
31.48000 399.135
31.52000 398.432
31.56000 391.863
31.60000 374.636
31.64000 385.202
31.68000 370.870
31.72000 380.774
31.76000 373.350
31.80000 353.503
31.84000 353.681
31.88000 365.109
31.92000 364.511
31.96000 346.916
32.00000 365.273
32.04000 337.579
32.08000 343.190
32.12000 361.540
32.16000 348.646
32.20000 330.328
32.24000 348.271
32.28000 331.348
32.32000 349.849
32.36000 345.575
32.40000 342.929
32.44000 346.061
32.48000 353.211
32.52000 347.422
32.56000 335.216
32.60000 351.282
32.64000 332.952
32.68000 340.587
32.72000 355.066
32.76000 334.643
32.80000 322.117
32.84000 336.224
32.88000 333.737
32.92000 333.114
32.96000 332.267
33.00000 329.063
33.04000 343.994
33.08000 331.168
33.12000 342.423
33.16000 325.333
33.20000 323.601
33.24000 339.083
33.28000 327.177
33.32000 345.267
33.36000 324.739
33.40000 331.110
33.44000 334.276
33.48000 329.757
33.52000 320.698
33.56000 327.872
33.60000 331.465
33.64000 323.151
33.68000 326.392
33.72000 330.892
33.76000 318.505
33.80000 312.703
33.84000 309.561
33.88000 321.126
33.92000 322.833
33.96000 323.408
34.00000 331.860
34.04000 324.637
34.08000 306.603
34.12000 314.498
34.16000 322.207
34.20000 326.695
34.24000 311.732
34.28000 307.313
34.32000 327.904
34.36000 323.152
34.40000 318.923
34.44000 315.952
34.48000 304.436
34.52000 321.586
34.56000 316.321
34.60000 307.775
34.64000 307.099
34.68000 316.873
34.72000 307.329
34.76000 317.585
34.80000 302.856
34.84000 317.238
34.88000 314.136
34.92000 313.651
34.96000 323.056
35.00000 321.410
35.04000 306.233
35.08000 299.836
35.12000 312.769
35.16000 303.221
35.20000 307.281
35.24000 308.078
35.28000 308.044
35.32000 307.164
35.36000 315.046
35.40000 298.044
35.44000 303.723
35.48000 314.403
35.52000 311.395
35.56000 304.776
35.60000 303.287
35.64000 312.087
35.68000 311.181
35.72000 287.772
35.76000 299.504
35.80000 293.613
35.84000 301.732
35.88000 310.103
35.92000 290.040
35.96000 295.047
36.00000 312.694
36.04000 285.959
36.08000 297.794
36.12000 296.019
36.16000 300.578
36.20000 303.926
36.24000 283.291
36.28000 286.342
36.32000 289.652
36.36000 283.843
36.40000 294.427
36.44000 291.614
36.48000 288.243
36.52000 286.595
36.56000 285.684
36.60000 279.649
36.64000 280.640
36.68000 287.697
36.72000 285.102
36.76000 287.612
36.80000 290.478
36.84000 289.679
36.88000 292.696
36.92000 295.368
36.96000 274.944
37.00000 276.462
37.04000 268.976
37.08000 288.677
37.12000 281.944
37.16000 284.654
37.20000 281.102
37.24000 273.938
37.28000 282.573
37.32000 277.486
37.36000 274.677
37.40000 285.014
37.44000 275.914
37.48000 283.658
37.52000 271.258
37.56000 266.993
37.60000 276.427
37.64000 284.607
37.68000 272.913
37.72000 266.409
37.76000 272.346
37.80000 278.157
37.84000 273.725
37.88000 266.833
37.92000 259.172
37.96000 275.850
38.00000 295.624
38.04000 269.768
38.08000 265.506
38.12000 259.995
38.16000 269.735
38.20000 253.660
38.24000 257.092
38.28000 260.026
38.32000 276.313
38.36000 271.458
38.40000 269.136
38.44000 279.471
38.48000 280.447
38.52000 283.260
38.56000 282.706
38.60000 286.438
38.64000 278.294
38.68000 274.859
38.72000 277.957
38.76000 272.302
38.80000 270.192
38.84000 270.682
38.88000 273.431
38.92000 249.646
38.96000 260.400
39.00000 260.029
39.04000 249.614
39.08000 258.382
39.12000 277.402
39.16000 252.632
39.20000 254.758
39.24000 246.649
39.28000 244.854
39.32000 235.553
39.36000 251.367
39.40000 249.352
39.44000 238.682
39.48000 258.564
39.52000 252.346
39.56000 243.234
39.60000 250.625
39.64000 244.322
39.68000 253.883
39.72000 250.796
39.76000 233.549
39.80000 242.156
39.84000 257.175
39.88000 253.476
39.92000 266.282
39.96000 256.097
40.00000 246.230
40.04000 248.120
40.08000 254.493
40.12000 246.569
40.16000 244.192
40.20000 251.491
40.24000 246.082
40.28000 247.153
40.32000 252.458
40.36000 255.185
40.40000 235.191
40.44000 233.126
40.48000 250.746
40.52000 246.588
40.56000 241.804
40.60000 231.829
40.64000 242.250
40.68000 239.947
40.72000 244.966
40.76000 234.404
40.80000 240.536
40.84000 242.406
40.88000 243.870
40.92000 236.743
40.96000 234.255
41.00000 234.006
41.04000 234.855
41.08000 243.154
41.12000 229.744
41.16000 237.602
41.20000 233.955
41.24000 233.480
41.28000 230.826
41.32000 239.782
41.36000 241.021
41.40000 236.648
41.44000 233.048
41.48000 231.484
41.52000 235.324
41.56000 240.057
41.60000 233.576
41.64000 234.091
41.68000 235.487
41.72000 230.980
41.76000 222.568
41.80000 241.408
41.84000 225.272
41.88000 216.179
41.92000 230.020
41.96000 243.970
42.00000 235.110
42.04000 230.380
42.08000 223.061
42.12000 242.648
42.16000 233.082
42.20000 239.128
42.24000 219.156
42.28000 222.487
42.32000 218.433
42.36000 227.025
42.40000 222.092
42.44000 211.316
42.48000 220.983
42.52000 217.229
42.56000 219.216
42.60000 228.423
42.64000 202.588
42.68000 215.797
42.72000 230.031
42.76000 224.354
42.80000 215.187
42.84000 223.552
42.88000 218.345
42.92000 230.016
42.96000 223.101
43.00000 222.071
43.04000 212.512
43.08000 207.816
43.12000 221.264
43.16000 209.997
43.20000 223.779
43.24000 211.110
43.28000 214.260
43.32000 209.488
43.36000 216.718
43.40000 214.389
43.44000 211.657
43.48000 211.527
43.52000 203.757
43.56000 211.160
43.60000 213.646
43.64000 212.429
43.68000 217.659
43.72000 213.142
43.76000 224.028
43.80000 219.215
43.84000 205.347
43.88000 212.483
43.92000 215.599
43.96000 200.142
44.00000 200.700
44.04000 217.792
44.08000 213.592
44.12000 216.058
44.16000 210.235
44.20000 197.744
44.24000 198.143
44.28000 215.395
44.32000 219.481
44.36000 208.895
44.40000 218.305
44.44000 211.118
44.48000 204.907
44.52000 202.020
44.56000 208.454
44.60000 201.278
44.64000 196.183
44.68000 210.647
44.72000 212.455
44.76000 207.251
44.80000 203.481
44.84000 202.609
44.88000 205.109
44.92000 199.130
44.96000 208.687
45.00000 214.865
45.04000 204.880
45.08000 211.029
45.12000 212.031
45.16000 204.516
45.20000 202.964
45.24000 207.197
45.28000 199.374
45.32000 210.765
45.36000 187.564
45.40000 205.256
45.44000 196.855
45.48000 195.357
45.52000 204.185
45.56000 193.418
45.60000 212.236
45.64000 191.883
45.68000 198.842
45.72000 196.571
45.76000 195.240
45.80000 188.388
45.84000 189.447
45.88000 197.137
45.92000 192.612
45.96000 184.603
46.00000 186.505
46.04000 194.679
46.08000 186.167
46.12000 190.676
46.16000 177.156
46.20000 193.484
46.24000 186.822
46.28000 202.092
46.32000 201.917
46.36000 176.673
46.40000 198.466
46.44000 204.674
46.48000 192.545
46.52000 181.672
46.56000 188.589
46.60000 194.329
46.64000 186.407
46.68000 187.505
46.72000 178.491
46.76000 183.393
46.80000 193.383
46.84000 183.466
46.88000 192.883
46.92000 182.419
46.96000 176.427
47.00000 180.038
47.04000 177.682
47.08000 182.776
47.12000 193.278
47.16000 197.118
47.20000 176.793
47.24000 184.227
47.28000 189.948
47.32000 182.424
47.36000 188.205
47.40000 195.107
47.44000 177.519
47.48000 179.267
47.52000 179.379
47.56000 176.867
47.60000 173.832
47.64000 191.098
47.68000 179.571
47.72000 189.118
47.76000 176.763
47.80000 171.055
47.84000 183.746
47.88000 183.469
47.92000 176.810
47.96000 181.135
48.00000 171.462
48.04000 178.932
48.08000 179.389
48.12000 179.800
48.16000 190.237
48.20000 187.971
48.24000 173.267
48.28000 176.378
48.32000 178.268
48.36000 177.701
48.40000 168.966
48.44000 172.154
48.48000 175.501
48.52000 163.898
48.56000 173.390
48.60000 169.783
48.64000 180.099
48.68000 178.774
48.72000 171.465
48.76000 180.428
48.80000 168.516
48.84000 175.199
48.88000 185.833
48.92000 175.219
48.96000 161.362
49.00000 166.619
49.04000 174.238
49.08000 172.189
49.12000 180.489
49.16000 174.449
49.20000 175.782
49.24000 168.402
49.28000 161.866
49.32000 171.021
49.36000 184.772
49.40000 168.322
49.44000 177.043
49.48000 159.759
49.52000 168.702
49.56000 171.247
49.60000 171.328
49.64000 175.465
49.68000 172.664
49.72000 167.557
49.76000 174.805
49.80000 165.242
49.84000 168.776
49.88000 163.026
49.92000 175.046
49.96000 164.714
50.00000 170.433
50.04000 163.379
50.08000 170.593
50.12000 160.618
50.16000 166.421
50.20000 160.741
50.24000 163.213
50.28000 159.840
50.32000 169.334
50.36000 171.023
50.40000 151.631
50.44000 175.437
50.48000 163.794
50.52000 167.160
50.56000 166.656
50.60000 155.731
50.64000 163.875
50.68000 160.308
50.72000 164.610
50.76000 165.432
50.80000 157.752
50.84000 165.177
50.88000 167.657
50.92000 165.893
50.96000 163.378
51.00000 156.443
51.04000 161.040
51.08000 153.889
51.12000 159.682
51.16000 161.064
51.20000 163.512
51.24000 158.353
51.28000 162.842
51.32000 159.738
51.36000 166.860
51.40000 160.793
51.44000 164.918
51.48000 163.459
51.52000 162.312
51.56000 148.424
51.60000 150.974
51.64000 154.076
51.68000 154.834
51.72000 138.637
51.76000 156.175
51.80000 156.761
51.84000 142.919
51.88000 155.190
51.92000 155.558
51.96000 169.769
52.00000 151.300
52.04000 148.711
52.08000 162.746
52.12000 159.053
52.16000 162.580
52.20000 156.192
52.24000 159.837
52.28000 154.704
52.32000 155.736
52.36000 148.823
52.40000 153.969
52.44000 148.911
52.48000 161.151
52.52000 151.107
52.56000 143.737
52.60000 150.106
52.64000 148.246
52.68000 150.193
52.72000 150.845
52.76000 152.600
52.80000 156.043
52.84000 152.242
52.88000 157.169
52.92000 161.327
52.96000 143.990
53.00000 147.531
53.04000 142.689
53.08000 146.161
53.12000 158.189
53.16000 166.076
53.20000 138.869
53.24000 147.222
53.28000 155.540
53.32000 152.051
53.36000 159.781
53.40000 155.622
53.44000 144.473
53.48000 151.252
53.52000 149.652
53.56000 144.426
53.60000 154.884
53.64000 154.462
53.68000 138.787
53.72000 145.874
53.76000 148.504
53.80000 154.421
53.84000 150.824
53.88000 149.333
53.92000 149.221
53.96000 146.666
54.00000 152.035
54.04000 146.398
54.08000 140.718
54.12000 143.793
54.16000 137.219
54.20000 133.778
54.24000 141.476
54.28000 137.157
54.32000 142.365
54.36000 141.023
54.40000 147.934
54.44000 152.150
54.48000 143.964
54.52000 138.560
54.56000 148.422
54.60000 145.512
54.64000 155.630
54.68000 150.734
54.72000 144.489
54.76000 145.145
54.80000 144.707
54.84000 153.951
54.88000 151.782
54.92000 145.314
54.96000 145.621
55.00000 146.777
55.04000 146.816
55.08000 145.857
55.12000 152.726
55.16000 140.374
55.20000 138.745
55.24000 144.928
55.28000 137.685
55.32000 145.070
55.36000 141.321
55.40000 143.765
55.44000 143.808
55.48000 128.732
55.52000 137.868
55.56000 140.623
55.60000 141.920
55.64000 137.529
55.68000 145.596
55.72000 145.379
55.76000 147.779
55.80000 138.691
55.84000 133.276
55.88000 142.114
55.92000 138.040
55.96000 131.382
56.00000 145.688
56.04000 145.987
56.08000 131.731
56.12000 137.327
56.16000 143.330
56.20000 136.963
56.24000 133.689
56.28000 143.261
56.32000 138.323
56.36000 144.591
56.40000 147.197
56.44000 138.987
56.48000 139.879
56.52000 131.040
56.56000 136.985
56.60000 144.449
56.64000 137.184
56.68000 132.201
56.72000 143.140
56.76000 129.986
56.80000 138.987
56.84000 134.130
56.88000 145.232
56.92000 133.035
56.96000 134.613
57.00000 128.850
57.04000 139.104
57.08000 125.566
57.12000 125.887
57.16000 140.461
57.20000 139.585
57.24000 130.596
57.28000 135.707
57.32000 130.038
57.36000 137.203
57.40000 135.537
57.44000 135.637
57.48000 141.159
57.52000 127.833
57.56000 135.416
57.60000 138.524
57.64000 125.730
57.68000 129.941
57.72000 140.973
57.76000 138.617
57.80000 134.809
57.84000 134.992
57.88000 136.295
57.92000 130.411
57.96000 140.989
58.00000 119.081
58.04000 145.986
58.08000 135.278
58.12000 139.975
58.16000 136.888
58.20000 135.422
58.24000 132.527
58.28000 127.527
58.32000 129.334
58.36000 124.364
58.40000 122.524
58.44000 127.217
58.48000 131.684
58.52000 134.497
58.56000 127.125
58.60000 130.580
58.64000 137.052
58.68000 135.216
58.72000 137.057
58.76000 139.684
58.80000 132.872
58.84000 134.656
58.88000 135.388
58.92000 121.974
58.96000 135.949
59.00000 128.790
59.04000 128.486
59.08000 135.267
59.12000 130.034
59.16000 123.440
59.20000 132.938
59.24000 141.672
59.28000 123.846
59.32000 132.649
59.36000 134.340
59.40000 129.039
59.44000 129.192
59.48000 134.447
59.52000 130.209
59.56000 122.793
59.60000 117.696
59.64000 129.586
59.68000 127.528
59.72000 131.607
59.76000 133.594
59.80000 130.793
59.84000 130.563
59.88000 139.476
59.92000 133.909
59.96000 131.415
60.00000 132.276
60.04000 140.747
60.08000 137.135
60.12000 139.388
60.16000 132.553
60.20000 124.582
60.24000 123.057
60.28000 132.966
60.32000 136.441
60.36000 140.750
60.40000 131.028
60.44000 132.981
60.48000 128.168
60.52000 118.478
60.56000 126.435
60.60000 129.048
60.64000 140.971
60.68000 122.547
60.72000 132.524
60.76000 127.327
60.80000 120.725
60.84000 129.059
60.88000 133.510
60.92000 127.336
60.96000 137.457
61.00000 128.243
61.04000 127.466
61.08000 134.106
61.12000 139.210
61.16000 151.539
61.20000 136.360
61.24000 138.432
61.28000 137.595
61.32000 131.219
61.36000 128.284
61.40000 136.521
61.44000 132.462
61.48000 141.388
61.52000 157.819
61.56000 187.952
61.60000 221.636
61.64000 238.867
61.68000 240.341
61.72000 250.437
61.76000 258.635
61.80000 218.064
61.84000 187.632
61.88000 158.774
61.92000 147.652
61.96000 143.659
62.00000 143.519
62.04000 142.418
62.08000 142.318
62.12000 136.919
62.16000 133.101
62.20000 139.883
62.24000 139.021
62.28000 141.109
62.32000 134.552
62.36000 133.095
62.40000 147.086
62.44000 136.627
62.48000 147.357
62.52000 143.068
62.56000 151.337
62.60000 138.528
62.64000 143.306
62.68000 137.111
62.72000 138.366
62.76000 135.306
62.80000 128.908
62.84000 140.833
62.88000 146.977
62.92000 130.979
62.96000 136.425
63.00000 144.546
63.04000 144.290
63.08000 139.217
63.12000 129.364
63.16000 150.728
63.20000 146.205
63.24000 144.479
63.28000 150.579
63.32000 153.379
63.36000 140.709
63.40000 140.285
63.44000 147.449
63.48000 144.880
63.52000 149.764
63.56000 157.519
63.60000 156.377
63.64000 158.413
63.68000 155.335
63.72000 151.324
63.76000 144.927
63.80000 152.955
63.84000 151.753
63.88000 163.277
63.92000 154.606
63.96000 161.874
64.00000 151.821
64.04000 158.824
64.08000 161.878
64.12000 156.295
64.16000 164.088
64.20000 159.640
64.24000 159.992
64.28000 167.397
64.32000 156.571
64.36000 165.655
64.40000 158.628
64.44000 160.941
64.48000 172.893
64.52000 169.328
64.56000 174.012
64.60000 167.563
64.64000 168.901
64.68000 179.410
64.72000 159.313
64.76000 170.080
64.80000 190.992
64.84000 179.499
64.88000 170.336
64.92000 179.788
64.96000 176.705
65.00000 172.158
65.04000 183.864
65.08000 182.938
65.12000 181.048
65.16000 184.259
65.20000 188.060
65.24000 196.448
65.28000 198.978
65.32000 199.971
65.36000 193.283
65.40000 204.422
65.44000 207.125
65.48000 209.824
65.52000 219.113
65.56000 226.044
65.60000 249.637
65.64000 260.276
65.68000 302.240
65.72000 409.014
65.76000 605.270
65.80000 756.998
65.84000 879.722
65.88000 892.316
65.92000 896.250
65.96000 810.878
66.00000 601.070
66.04000 452.716
66.08000 342.973
66.12000 289.630
66.16000 287.646
66.20000 275.482
66.24000 288.099
66.28000 315.782
66.32000 344.682
66.36000 390.377
66.40000 434.169
66.44000 408.464
66.48000 403.684
66.52000 397.115
66.56000 365.322
66.60000 333.648
66.64000 319.801
66.68000 319.505
66.72000 309.301
66.76000 316.953
66.80000 322.080
66.84000 311.202
66.88000 331.768
66.92000 316.325
66.96000 347.393
67.00000 358.846
67.04000 347.005
67.08000 351.781
67.12000 355.889
67.16000 393.171
67.20000 375.394
67.24000 384.738
67.28000 404.574
67.32000 401.984
67.36000 409.834
67.40000 415.652
67.44000 427.210
67.48000 437.147
67.52000 414.520
67.56000 428.531
67.60000 437.926
67.64000 456.483
67.68000 490.318
67.72000 479.712
67.76000 468.828
67.80000 490.167
67.84000 499.278
67.88000 505.981
67.92000 520.690
67.96000 543.735
68.00000 542.497
68.04000 560.217
68.08000 567.910
68.12000 597.459
68.16000 569.604
68.20000 628.732
68.24000 624.062
68.28000 658.110
68.32000 682.390
68.36000 665.504
68.40000 714.245
68.44000 740.471
68.48000 757.502
68.52000 791.549
68.56000 835.330
68.60000 928.344
68.64000 1082.030
68.68000 1284.795
68.72000 1478.911
68.76000 1669.458
68.80000 1870.334
68.84000 2095.471
68.88000 2451.368
68.92000 3800.803
68.96000 9357.770
69.00000 23380.643
69.04000 41923.492
69.08000 52948.688
69.12000 55137.188
69.16000 56478.480
69.20000 58660.230
69.24000 51513.359
69.28000 39006.332
69.32000 31197.000
69.36000 27885.896
69.40000 24155.910
69.44000 15975.403
69.48000 7510.042
69.52000 3261.693
69.56000 1978.967
69.60000 1528.476
69.64000 1341.052
69.68000 1182.870
69.72000 1076.296
69.76000 958.283
69.80000 896.298
69.84000 841.924
69.88000 795.090
69.92000 773.493
69.96000 715.859
70.00000 682.120