File: XRD/17-09-2025/XY Data/BTO_Mapping_Theta2Theta_09-17-2025_001_22_45-000_0-000.xy
20.00000 576.253
20.04000 554.529
20.08000 569.916
20.12000 562.832
20.16000 566.102
20.20000 546.596
20.24000 550.933
20.28000 548.269
20.32000 575.342
20.36000 532.397
20.40000 550.660
20.44000 536.480
20.48000 559.185
20.52000 554.476
20.56000 536.558
20.60000 530.939
20.64000 541.056
20.68000 544.319
20.72000 534.756
20.76000 550.780
20.80000 572.013
20.84000 553.502
20.88000 529.735
20.92000 542.156
20.96000 520.500
21.00000 545.768
21.04000 539.130
21.08000 552.870
21.12000 555.803
21.16000 544.612
21.20000 522.098
21.24000 534.889
21.28000 528.989
21.32000 534.025
21.36000 520.626
21.40000 545.683
21.44000 560.827
21.48000 550.489
21.52000 544.424
21.56000 537.617
21.60000 555.580
21.64000 543.240
21.68000 563.186
21.72000 556.843
21.76000 567.259
21.80000 563.528
21.84000 547.355
21.88000 585.512
21.92000 611.744
21.96000 625.046
22.00000 623.307
22.04000 658.891
22.08000 635.002
22.12000 631.177
22.16000 630.038
22.20000 639.051
22.24000 621.198
22.28000 581.861
22.32000 597.037
22.36000 573.577
22.40000 561.272
22.44000 555.351
22.48000 542.892
22.52000 532.264
22.56000 541.273
22.60000 527.482
22.64000 525.319
22.68000 530.865
22.72000 502.754
22.76000 518.094
22.80000 506.403
22.84000 497.783
22.88000 503.148
22.92000 518.404
22.96000 528.479
23.00000 538.160
23.04000 517.678
23.08000 511.926
23.12000 521.098
23.16000 514.888
23.20000 495.784
23.24000 494.900
23.28000 488.429
23.32000 507.906
23.36000 501.918
23.40000 495.123
23.44000 500.633
23.48000 507.725
23.52000 505.821
23.56000 509.004
23.60000 508.271
23.64000 486.328
23.68000 500.034
23.72000 523.160
23.76000 518.483
23.80000 534.128
23.84000 516.000
23.88000 532.295
23.92000 540.842
23.96000 549.552
24.00000 531.656
24.04000 552.438
24.08000 552.760
24.12000 542.953
24.16000 531.885
24.20000 499.644
24.24000 495.274
24.28000 492.437
24.32000 495.770
24.36000 501.070
24.40000 486.530
24.44000 478.042
24.48000 480.482
24.52000 491.386
24.56000 486.293
24.60000 470.319
24.64000 477.746
24.68000 494.709
24.72000 472.270
24.76000 480.925
24.80000 476.061
24.84000 483.310
24.88000 467.559
24.92000 482.414
24.96000 483.807
25.00000 464.957
25.04000 474.574
25.08000 492.018
25.12000 470.405
25.16000 464.995
25.20000 454.845
25.24000 460.079
25.28000 466.979
25.32000 469.419
25.36000 472.664
25.40000 461.867
25.44000 448.552
25.48000 468.136
25.52000 469.427
25.56000 471.813
25.60000 472.077
25.64000 459.247
25.68000 459.250
25.72000 470.811
25.76000 479.202
25.80000 464.979
25.84000 460.863
25.88000 461.262
25.92000 444.672
25.96000 468.857
26.00000 447.337
26.04000 460.686
26.08000 468.126
26.12000 460.271
26.16000 445.168
26.20000 446.646
26.24000 451.213
26.28000 441.453
26.32000 463.449
26.36000 445.830
26.40000 449.945
26.44000 447.768
26.48000 458.486
26.52000 451.302
26.56000 440.079
26.60000 432.765
26.64000 446.798
26.68000 446.046
26.72000 448.723
26.76000 443.714
26.80000 452.991
26.84000 446.960
26.88000 445.684
26.92000 437.917
26.96000 441.660
27.00000 454.763
27.04000 439.843
27.08000 437.015
27.12000 428.988
27.16000 435.008
27.20000 425.913
27.24000 433.486
27.28000 436.273
27.32000 425.665
27.36000 421.636
27.40000 424.871
27.44000 423.117
27.48000 429.539
27.52000 433.160
27.56000 458.326
27.60000 455.290
27.64000 427.620
27.68000 418.346
27.72000 427.559
27.76000 427.633
27.80000 435.867
27.84000 417.477
27.88000 422.494
27.92000 418.130
27.96000 412.045
28.00000 403.181
28.04000 412.136
28.08000 426.337
28.12000 421.307
28.16000 425.801
28.20000 406.666
28.24000 408.723
28.28000 414.821
28.32000 421.960
28.36000 416.578
28.40000 437.126
28.44000 445.052
28.48000 409.548
28.52000 412.120
28.56000 411.361
28.60000 413.762
28.64000 426.177
28.68000 418.245
28.72000 428.411
28.76000 411.282
28.80000 411.751
28.84000 387.681
28.88000 404.908
28.92000 420.343
28.96000 402.435
29.00000 401.462
29.04000 411.488
29.08000 428.443
29.12000 418.107
29.16000 428.046
29.20000 414.756
29.24000 397.058
29.28000 420.125
29.32000 398.758
29.36000 406.487
29.40000 397.413
29.44000 390.766
29.48000 395.960
29.52000 406.530
29.56000 396.435
29.60000 401.559
29.64000 396.730
29.68000 394.466
29.72000 391.113
29.76000 395.696
29.80000 397.819
29.84000 399.391
29.88000 421.256
29.92000 422.132
29.96000 399.456
30.00000 410.830
30.04000 415.122
30.08000 408.059
30.12000 419.320
30.16000 406.136
30.20000 401.592
30.24000 419.355
30.28000 399.368
30.32000 394.935
30.36000 406.902
30.40000 401.368
30.44000 407.978
30.48000 401.034
30.52000 399.153
30.56000 408.158
30.60000 396.932
30.64000 422.426
30.68000 426.275
30.72000 430.168
30.76000 403.895
30.80000 423.207
30.84000 421.430
30.88000 439.931
30.92000 449.008
30.96000 464.430
31.00000 476.065
31.04000 521.432
31.08000 546.481
31.12000 620.249
31.16000 718.111
31.20000 843.654
31.24000 967.921
31.28000 1149.032
31.32000 1293.758
31.36000 1374.068
31.40000 1423.174
31.44000 1403.853
31.48000 1333.560
31.52000 1153.102
31.56000 1010.161
31.60000 891.459
31.64000 718.353
31.68000 627.817
31.72000 569.944
31.76000 513.608
31.80000 497.173
31.84000 463.309
31.88000 435.311
31.92000 413.362
31.96000 424.807
32.00000 402.651
32.04000 392.513
32.08000 413.128
32.12000 395.934
32.16000 384.312
32.20000 391.701
32.24000 394.778
32.28000 398.429
32.32000 372.267
32.36000 397.694
32.40000 378.006
32.44000 367.689
32.48000 398.968
32.52000 368.515
32.56000 367.920
32.60000 369.803
32.64000 382.285
32.68000 372.583
32.72000 356.091
32.76000 365.454
32.80000 351.202
32.84000 360.542
32.88000 349.352
32.92000 357.916
32.96000 359.331
33.00000 342.433
33.04000 340.647
33.08000 344.944
33.12000 329.876
33.16000 351.083
33.20000 336.287
33.24000 337.099
33.28000 351.413
33.32000 347.456
33.36000 339.690
33.40000 345.697
33.44000 331.716
33.48000 340.420
33.52000 335.085
33.56000 340.499
33.60000 345.881
33.64000 326.410
33.68000 357.136
33.72000 330.672
33.76000 328.466
33.80000 333.885
33.84000 328.769
33.88000 344.138
33.92000 342.914
33.96000 348.587
34.00000 348.720
34.04000 346.434
34.08000 350.223
34.12000 344.086
34.16000 357.757
34.20000 354.898
34.24000 357.498
34.28000 349.905
34.32000 349.918
34.36000 349.342
34.40000 355.187
34.44000 351.143
34.48000 355.689
34.52000 348.011
34.56000 332.616
34.60000 344.354
34.64000 335.023
34.68000 353.122
34.72000 337.505
34.76000 323.104
34.80000 317.683
34.84000 310.707
34.88000 342.386
34.92000 322.405
34.96000 315.608
35.00000 307.481
35.04000 319.803
35.08000 306.467
35.12000 315.487
35.16000 330.588
35.20000 325.736
35.24000 312.803
35.28000 297.925
35.32000 306.976
35.36000 310.036
35.40000 295.430
35.44000 304.212
35.48000 304.136
35.52000 304.477
35.56000 304.618
35.60000 303.856
35.64000 306.417
35.68000 303.696
35.72000 298.450
35.76000 288.843
35.80000 315.602
35.84000 298.272
35.88000 295.675
35.92000 298.825
35.96000 298.691
36.00000 298.267
36.04000 284.070
36.08000 297.658
36.12000 293.922
36.16000 292.521
36.20000 289.473
36.24000 314.182
36.28000 301.099
36.32000 312.511
36.36000 298.996
36.40000 294.632
36.44000 309.645
36.48000 308.604
36.52000 298.331
36.56000 302.209
36.60000 293.840
36.64000 277.288
36.68000 303.661
36.72000 301.369
36.76000 276.371
36.80000 284.167
36.84000 294.101
36.88000 295.233
36.92000 282.690
36.96000 302.813
37.00000 298.722
37.04000 276.416
37.08000 292.251
37.12000 295.882
37.16000 292.022
37.20000 313.280
37.24000 297.476
37.28000 286.233
37.32000 286.679
37.36000 297.584
37.40000 272.575
37.44000 275.856
37.48000 281.099
37.52000 281.385
37.56000 277.639
37.60000 298.781
37.64000 286.995
37.68000 281.310
37.72000 287.899
37.76000 285.282
37.80000 280.360
37.84000 264.462
37.88000 275.318
37.92000 297.036
37.96000 285.177
38.00000 291.788
38.04000 284.770
38.08000 272.099
38.12000 277.648
38.16000 286.252
38.20000 291.673
38.24000 291.654
38.28000 291.209
38.32000 305.800
38.36000 328.190
38.40000 315.502
38.44000 355.101
38.48000 404.051
38.52000 459.865
38.56000 548.881
38.60000 656.795
38.64000 754.820
38.68000 815.558
38.72000 850.805
38.76000 844.476
38.80000 781.585
38.84000 711.432
38.88000 617.732
38.92000 525.682
38.96000 454.492
39.00000 382.015
39.04000 336.527
39.08000 319.634
39.12000 297.889
39.16000 283.567
39.20000 302.422
39.24000 282.386
39.28000 285.110
39.32000 282.717
39.36000 278.528
39.40000 272.164
39.44000 283.893
39.48000 275.842
39.52000 270.109
39.56000 269.196
39.60000 269.314
39.64000 257.511
39.68000 266.807
39.72000 263.980
39.76000 258.682
39.80000 258.147
39.84000 259.283
39.88000 260.068
39.92000 260.981
39.96000 255.978
40.00000 258.607
40.04000 248.621
40.08000 253.493
40.12000 251.144
40.16000 258.685
40.20000 250.912
40.24000 260.219
40.28000 256.191
40.32000 265.949
40.36000 259.636
40.40000 253.771
40.44000 242.575
40.48000 250.979
40.52000 245.284
40.56000 250.554
40.60000 257.322
40.64000 260.091
40.68000 248.644
40.72000 238.216
40.76000 244.548
40.80000 245.605
40.84000 243.145
40.88000 247.947
40.92000 243.780
40.96000 249.194
41.00000 237.648
41.04000 240.947
41.08000 254.689
41.12000 230.800
41.16000 236.106
41.20000 227.761
41.24000 244.233
41.28000 237.926
41.32000 234.939
41.36000 246.565
41.40000 245.535
41.44000 254.523
41.48000 233.111
41.52000 243.349
41.56000 236.340
41.60000 239.979
41.64000 241.629
41.68000 227.385
41.72000 241.569
41.76000 239.292
41.80000 237.928
41.84000 242.215
41.88000 241.080
41.92000 239.942
41.96000 226.736
42.00000 235.439
42.04000 245.988
42.08000 253.549
42.12000 248.751
42.16000 242.703
42.20000 234.077
42.24000 233.138
42.28000 239.731
42.32000 252.994
42.36000 245.640
42.40000 242.211
42.44000 234.367
42.48000 247.508
42.52000 244.380
42.56000 243.970
42.60000 236.281
42.64000 230.593
42.68000 221.453
42.72000 227.596
42.76000 230.246
42.80000 231.886
42.84000 224.207
42.88000 232.490
42.92000 225.100
42.96000 219.699
43.00000 222.960
43.04000 227.290
43.08000 220.282
43.12000 221.889
43.16000 228.894
43.20000 225.502
43.24000 222.322
43.28000 229.806
43.32000 223.640
43.36000 215.944
43.40000 228.720
43.44000 221.462
43.48000 228.008
43.52000 217.186
43.56000 212.196
43.60000 216.940
43.64000 213.375
43.68000 228.777
43.72000 226.601
43.76000 210.604
43.80000 219.989
43.84000 218.194
43.88000 221.323
43.92000 210.530
43.96000 219.281
44.00000 217.250
44.04000 218.258
44.08000 206.577
44.12000 221.266
44.16000 210.129
44.20000 214.347
44.24000 213.138
44.28000 235.569
44.32000 226.246
44.36000 221.598
44.40000 217.445
44.44000 232.895
44.48000 236.136
44.52000 227.675
44.56000 235.889
44.60000 233.932
44.64000 249.241
44.68000 249.960
44.72000 233.456
44.76000 240.867
44.80000 241.529
44.84000 266.233
44.88000 265.028
44.92000 280.997
44.96000 277.880
45.00000 279.503
45.04000 293.833
45.08000 301.234
45.12000 303.944
45.16000 290.988
45.20000 287.855
45.24000 293.369
45.28000 284.765
45.32000 262.686
45.36000 276.629
45.40000 270.956
45.44000 257.668
45.48000 241.039
45.52000 252.934
45.56000 241.409
45.60000 231.335
45.64000 231.541
45.68000 228.444
45.72000 223.209
45.76000 225.112
45.80000 211.095
45.84000 212.361
45.88000 215.770
45.92000 208.737
45.96000 211.004
46.00000 199.690
46.04000 212.498
46.08000 205.467
46.12000 203.463
46.16000 211.682
46.20000 204.615
46.24000 200.187
46.28000 218.997
46.32000 205.752
46.36000 213.557
46.40000 207.274
46.44000 191.601
46.48000 214.972
46.52000 199.520
46.56000 204.252
46.60000 201.643
46.64000 207.364
46.68000 208.576
46.72000 193.296
46.76000 193.024
46.80000 200.380
46.84000 202.212
46.88000 188.398
46.92000 185.649
46.96000 197.426
47.00000 189.445
47.04000 193.191
47.08000 195.275
47.12000 199.032
47.16000 194.343
47.20000 181.998
47.24000 188.309
47.28000 193.540
47.32000 184.825
47.36000 185.480
47.40000 179.524
47.44000 184.720
47.48000 194.149
47.52000 186.065
47.56000 191.533
47.60000 196.085
47.64000 179.469
47.68000 194.796
47.72000 193.510
47.76000 184.702
47.80000 183.548
47.84000 195.704
47.88000 186.169
47.92000 182.326
47.96000 187.012
48.00000 185.255
48.04000 189.400
48.08000 181.181
48.12000 181.916
48.16000 194.452
48.20000 192.916
48.24000 185.542
48.28000 182.805
48.32000 185.285
48.36000 179.159
48.40000 181.729
48.44000 188.873
48.48000 173.782
48.52000 184.015
48.56000 183.527
48.60000 177.266
48.64000 174.418
48.68000 186.260
48.72000 177.496
48.76000 174.522
48.80000 180.522
48.84000 177.732
48.88000 177.825
48.92000 190.186
48.96000 185.083
49.00000 175.519
49.04000 182.873
49.08000 182.630
49.12000 177.692
49.16000 175.350
49.20000 179.646
49.24000 191.121
49.28000 178.899
49.32000 173.187
49.36000 168.420
49.40000 168.056
49.44000 185.083
49.48000 167.905
49.52000 175.678
49.56000 174.802
49.60000 180.655
49.64000 171.041
49.68000 170.713
49.72000 173.496
49.76000 173.564
49.80000 172.173
49.84000 171.644
49.88000 169.314
49.92000 175.249
49.96000 184.801
50.00000 162.669
50.04000 176.767
50.08000 168.935
50.12000 178.134
50.16000 172.406
50.20000 171.233
50.24000 170.278
50.28000 163.453
50.32000 179.625
50.36000 181.477
50.40000 179.239
50.44000 170.791
50.48000 186.541
50.52000 188.256
50.56000 199.963
50.60000 192.905
50.64000 199.604
50.68000 201.609
50.72000 195.877
50.76000 204.608
50.80000 194.717
50.84000 202.181
50.88000 189.903
50.92000 188.951
50.96000 184.946
51.00000 190.849
51.04000 179.101
51.08000 178.675
51.12000 176.770
51.16000 173.652
51.20000 179.214
51.24000 173.703
51.28000 176.084
51.32000 174.600
51.36000 165.836
51.40000 168.251
51.44000 164.448
51.48000 163.302
51.52000 173.489
51.56000 169.704
51.60000 166.243
51.64000 187.322
51.68000 165.134
51.72000 160.641
51.76000 147.103
51.80000 168.475
51.84000 153.024
51.88000 165.214
51.92000 159.105
51.96000 166.013
52.00000 163.697
52.04000 162.974
52.08000 153.197
52.12000 158.789
52.16000 172.546
52.20000 168.459
52.24000 163.154
52.28000 154.845
52.32000 157.180
52.36000 156.805
52.40000 158.292
52.44000 157.481
52.48000 166.565
52.52000 153.427
52.56000 161.919
52.60000 149.418
52.64000 162.217
52.68000 147.708
52.72000 159.610
52.76000 145.090
52.80000 160.319
52.84000 157.125
52.88000 157.608
52.92000 153.805
52.96000 160.361
53.00000 157.567
53.04000 159.856
53.08000 168.035
53.12000 151.675
53.16000 148.637
53.20000 151.440
53.24000 173.006
53.28000 154.047
53.32000 159.414
53.36000 157.443
53.40000 156.175
53.44000 158.672
53.48000 165.182
53.52000 159.270
53.56000 162.757
53.60000 151.235
53.64000 155.976
53.68000 159.371
53.72000 160.316
53.76000 162.675
53.80000 145.017
53.84000 156.607
53.88000 158.613
53.92000 156.601
53.96000 156.038
54.00000 152.675
54.04000 154.591
54.08000 152.619
54.12000 157.938
54.16000 157.215
54.20000 163.536
54.24000 156.301
54.28000 150.422
54.32000 148.753
54.36000 158.613
54.40000 153.024
54.44000 161.190
54.48000 147.354
54.52000 159.104
54.56000 159.991
54.60000 161.025
54.64000 162.763
54.68000 154.239
54.72000 158.825
54.76000 155.199
54.80000 153.722
54.84000 152.574
54.88000 152.595
54.92000 160.841
54.96000 159.796
55.00000 154.904
55.04000 155.829
55.08000 148.782
55.12000 152.397
55.16000 163.523
55.20000 156.878
55.24000 151.864
55.28000 159.033
55.32000 180.331
55.36000 175.731
55.40000 167.370
55.44000 181.065
55.48000 188.746
55.52000 196.053
55.56000 199.516
55.60000 218.743
55.64000 234.505
55.68000 271.730
55.72000 293.163
55.76000 326.269
55.80000 353.015
55.84000 419.643
55.88000 460.162
55.92000 470.326
55.96000 480.221
56.00000 494.529
56.04000 468.006
56.08000 410.176
56.12000 385.122
56.16000 355.782
56.20000 323.140
56.24000 283.933
56.28000 273.511
56.32000 224.130
56.36000 208.791
56.40000 197.920
56.44000 184.020
56.48000 171.580
56.52000 175.551
56.56000 162.027
56.60000 169.664
56.64000 166.862
56.68000 154.541
56.72000 160.488
56.76000 144.565
56.80000 151.911
56.84000 147.855
56.88000 154.161
56.92000 129.626
56.96000 139.997
57.00000 143.798
57.04000 149.109
57.08000 142.876
57.12000 150.238
57.16000 138.741
57.20000 131.348
57.24000 150.102
57.28000 138.909
57.32000 142.037
57.36000 149.817
57.40000 145.021
57.44000 146.848
57.48000 144.017
57.52000 154.913
57.56000 146.059
57.60000 139.844
57.64000 147.070
57.68000 129.841
57.72000 145.176
57.76000 147.411
57.80000 143.163
57.84000 139.174
57.88000 146.114
57.92000 138.730
57.96000 137.159
58.00000 146.272
58.04000 134.658
58.08000 134.945
58.12000 128.240
58.16000 140.728
58.20000 143.710
58.24000 153.743
58.28000 134.101
58.32000 140.933
58.36000 128.899
58.40000 133.913
58.44000 130.138
58.48000 134.889
58.52000 135.914
58.56000 147.010
58.60000 137.810
58.64000 131.388
58.68000 134.067
58.72000 138.262
58.76000 145.697
58.80000 147.764
58.84000 135.129
58.88000 120.920
58.92000 135.388
58.96000 133.708
59.00000 135.255
59.04000 134.659
59.08000 138.765
59.12000 138.149
59.16000 141.517
59.20000 130.177
59.24000 137.400
59.28000 122.691
59.32000 132.821
59.36000 139.005
59.40000 127.554
59.44000 128.696
59.48000 132.008
59.52000 132.001
59.56000 134.038
59.60000 127.205
59.64000 134.904
59.68000 125.011
59.72000 131.214
59.76000 132.946
59.80000 137.203
59.84000 131.094
59.88000 130.809
59.92000 133.189
59.96000 135.085
60.00000 121.230
60.04000 142.329
60.08000 132.158
60.12000 127.545
60.16000 125.267
60.20000 130.082
60.24000 131.503
60.28000 133.751
60.32000 127.944
60.36000 133.913
60.40000 126.458
60.44000 134.465
60.48000 136.817
60.52000 127.883
60.56000 130.654
60.60000 138.684
60.64000 124.041
60.68000 128.905
60.72000 135.731
60.76000 135.088
60.80000 118.893
60.84000 138.415
60.88000 131.584
60.92000 133.827
60.96000 138.028
61.00000 135.411
61.04000 131.503
61.08000 132.435
61.12000 133.880
61.16000 135.221
61.20000 140.501
61.24000 140.032
61.28000 133.685
61.32000 129.923
61.36000 134.480
61.40000 138.316
61.44000 142.223
61.48000 147.192
61.52000 156.517
61.56000 188.867
61.60000 223.536
61.64000 251.489
61.68000 244.831
61.72000 255.343
61.76000 248.477
61.80000 211.053
61.84000 173.048
61.88000 152.111
61.92000 146.413
61.96000 138.226
62.00000 143.968
62.04000 142.903
62.08000 136.858
62.12000 134.484
62.16000 142.032
62.20000 124.861
62.24000 123.970
62.28000 143.038
62.32000 136.347
62.36000 135.570
62.40000 140.335
62.44000 148.869
62.48000 155.526
62.52000 136.002
62.56000 136.970
62.60000 137.452
62.64000 149.532
62.68000 138.872
62.72000 143.125
62.76000 147.939
62.80000 135.697
62.84000 138.693
62.88000 138.633
62.92000 143.275
62.96000 150.505
63.00000 135.019
63.04000 150.725
63.08000 146.485
63.12000 134.188
63.16000 146.283
63.20000 138.995
63.24000 141.460
63.28000 150.025
63.32000 143.436
63.36000 146.614
63.40000 148.035
63.44000 142.475
63.48000 151.967
63.52000 152.300
63.56000 148.969
63.60000 146.034
63.64000 145.704
63.68000 149.672
63.72000 154.485
63.76000 156.322
63.80000 154.488
63.84000 151.050
63.88000 148.966
63.92000 149.230
63.96000 153.838
64.00000 154.558
64.04000 151.256
64.08000 159.000
64.12000 156.460
64.16000 160.527
64.20000 155.644
64.24000 158.512
64.28000 150.444
64.32000 164.440
64.36000 155.425
64.40000 161.736
64.44000 155.905
64.48000 165.239
64.52000 162.043
64.56000 172.161
64.60000 157.630
64.64000 155.727
64.68000 161.975
64.72000 179.610
64.76000 166.977
64.80000 186.352
64.84000 193.306
64.88000 164.194
64.92000 167.107
64.96000 178.498
65.00000 177.589
65.04000 182.640
65.08000 204.385
65.12000 191.738
65.16000 205.732
65.20000 209.089
65.24000 201.373
65.28000 205.188
65.32000 221.442
65.36000 222.027
65.40000 220.888
65.44000 253.568
65.48000 264.603
65.52000 270.750
65.56000 279.983
65.60000 300.381
65.64000 317.240
65.68000 368.863
65.72000 472.259
65.76000 644.075
65.80000 806.367
65.84000 878.837
65.88000 922.746
65.92000 909.555
65.96000 799.875
66.00000 614.325
66.04000 411.519
66.08000 357.344
66.12000 292.668
66.16000 276.800
66.20000 288.719
66.24000 291.821
66.28000 303.816
66.32000 346.417
66.36000 378.787
66.40000 391.268
66.44000 396.692
66.48000 390.441
66.52000 382.914
66.56000 344.480
66.60000 319.111
66.64000 312.144
66.68000 292.073
66.72000 290.564
66.76000 308.038
66.80000 307.223
66.84000 314.857
66.88000 316.547
66.92000 328.822
66.96000 333.505
67.00000 324.551
67.04000 319.224
67.08000 329.496
67.12000 356.277
67.16000 330.872
67.20000 351.429
67.24000 365.505
67.28000 372.454
67.32000 382.099
67.36000 393.158
67.40000 394.775
67.44000 373.914
67.48000 383.283
67.52000 402.713
67.56000 410.624
67.60000 419.275
67.64000 422.699
67.68000 433.980
67.72000 448.609
67.76000 446.561
67.80000 476.202
67.84000 471.209
67.88000 488.461
67.92000 483.216
67.96000 483.593
68.00000 516.955
68.04000 514.378
68.08000 538.465
68.12000 536.599
68.16000 547.430
68.20000 569.117
68.24000 575.393
68.28000 626.754
68.32000 609.899
68.36000 637.291
68.40000 637.813
68.44000 696.797
68.48000 704.911
68.52000 769.575
68.56000 809.874
68.60000 841.216
68.64000 1057.047
68.68000 1182.538
68.72000 1403.009
68.76000 1583.786
68.80000 1779.559
68.84000 1969.441
68.88000 2423.011
68.92000 3779.655
68.96000 9545.286
69.00000 23326.117
69.04000 40079.988
69.08000 49609.863
69.12000 51316.559
69.16000 53092.180
69.20000 54329.289
69.24000 47034.605
69.28000 35629.066
69.32000 28548.518
69.36000 25565.756
69.40000 21860.648
69.44000 14167.018
69.48000 6603.522
69.52000 2889.352
69.56000 1773.362
69.60000 1372.206
69.64000 1188.737
69.68000 1051.065
69.72000 909.312
69.76000 876.716
69.80000 815.777
69.84000 774.231
69.88000 732.456
69.92000 717.410
69.96000 674.299
70.00000 661.459