File: XRD/17-09-2025/XY Data/BTO_Mapping_Theta2Theta_09-17-2025_001_08_30-000_-30-000.xy
20.00000 549.682
20.04000 542.524
20.08000 540.919
20.12000 572.240
20.16000 551.262
20.20000 551.221
20.24000 543.715
20.28000 554.401
20.32000 555.504
20.36000 532.260
20.40000 537.425
20.44000 539.083
20.48000 554.538
20.52000 531.138
20.56000 536.069
20.60000 566.645
20.64000 544.194
20.68000 543.727
20.72000 536.845
20.76000 546.664
20.80000 540.206
20.84000 533.642
20.88000 551.983
20.92000 542.266
20.96000 547.382
21.00000 542.592
21.04000 532.432
21.08000 544.160
21.12000 534.502
21.16000 549.788
21.20000 531.032
21.24000 552.242
21.28000 529.376
21.32000 536.365
21.36000 550.953
21.40000 557.349
21.44000 533.671
21.48000 549.435
21.52000 544.897
21.56000 545.597
21.60000 552.693
21.64000 542.589
21.68000 559.382
21.72000 549.627
21.76000 551.239
21.80000 558.822
21.84000 569.030
21.88000 594.867
21.92000 605.921
21.96000 612.352
22.00000 637.628
22.04000 636.220
22.08000 671.380
22.12000 655.838
22.16000 629.152
22.20000 624.638
22.24000 602.942
22.28000 587.098
22.32000 579.449
22.36000 563.168
22.40000 560.005
22.44000 537.206
22.48000 535.506
22.52000 506.021
22.56000 525.798
22.60000 532.577
22.64000 517.710
22.68000 524.995
22.72000 515.174
22.76000 515.300
22.80000 514.970
22.84000 500.102
22.88000 508.880
22.92000 505.402
22.96000 505.048
23.00000 516.111
23.04000 504.101
23.08000 515.526
23.12000 503.573
23.16000 491.178
23.20000 514.980
23.24000 520.335
23.28000 508.721
23.32000 505.860
23.36000 509.202
23.40000 496.231
23.44000 495.999
23.48000 492.145
23.52000 497.929
23.56000 492.895
23.60000 483.811
23.64000 506.751
23.68000 507.995
23.72000 524.814
23.76000 500.280
23.80000 529.165
23.84000 514.209
23.88000 520.904
23.92000 529.299
23.96000 539.438
24.00000 519.647
24.04000 503.939
24.08000 520.756
24.12000 526.256
24.16000 509.599
24.20000 494.354
24.24000 506.069
24.28000 491.768
24.32000 494.885
24.36000 485.684
24.40000 484.398
24.44000 486.306
24.48000 479.218
24.52000 489.528
24.56000 478.764
24.60000 481.285
24.64000 469.386
24.68000 476.953
24.72000 476.946
24.76000 496.537
24.80000 477.805
24.84000 470.823
24.88000 469.814
24.92000 472.623
24.96000 462.832
25.00000 468.301
25.04000 460.548
25.08000 450.732
25.12000 465.912
25.16000 472.440
25.20000 464.905
25.24000 464.517
25.28000 449.733
25.32000 462.837
25.36000 459.288
25.40000 472.646
25.44000 462.640
25.48000 466.552
25.52000 459.853
25.56000 473.228
25.60000 453.981
25.64000 453.839
25.68000 451.194
25.72000 447.427
25.76000 456.956
25.80000 443.693
25.84000 467.572
25.88000 451.160
25.92000 450.113
25.96000 438.741
26.00000 457.415
26.04000 459.876
26.08000 447.476
26.12000 462.380
26.16000 451.947
26.20000 437.977
26.24000 454.805
26.28000 465.813
26.32000 448.644
26.36000 453.024
26.40000 439.510
26.44000 446.845
26.48000 456.784
26.52000 429.818
26.56000 429.974
26.60000 450.380
26.64000 431.495
26.68000 439.117
26.72000 439.155
26.76000 445.958
26.80000 448.949
26.84000 449.732
26.88000 449.583
26.92000 438.382
26.96000 424.173
27.00000 442.053
27.04000 440.293
27.08000 440.715
27.12000 445.366
27.16000 428.191
27.20000 422.650
27.24000 427.518
27.28000 439.366
27.32000 428.836
27.36000 442.549
27.40000 442.722
27.44000 434.855
27.48000 445.981
27.52000 427.244
27.56000 434.958
27.60000 427.331
27.64000 430.769
27.68000 434.380
27.72000 430.134
27.76000 445.563
27.80000 417.842
27.84000 405.257
27.88000 436.883
27.92000 421.100
27.96000 407.623
28.00000 414.778
28.04000 411.938
28.08000 425.639
28.12000 432.563
28.16000 421.534
28.20000 410.728
28.24000 430.807
28.28000 441.240
28.32000 423.835
28.36000 417.836
28.40000 414.969
28.44000 396.068
28.48000 402.793
28.52000 416.744
28.56000 402.660
28.60000 410.660
28.64000 402.035
28.68000 413.798
28.72000 415.213
28.76000 421.404
28.80000 407.605
28.84000 416.653
28.88000 425.854
28.92000 415.895
28.96000 404.889
29.00000 404.918
29.04000 403.056
29.08000 414.571
29.12000 408.617
29.16000 406.855
29.20000 411.378
29.24000 413.434
29.28000 405.721
29.32000 418.334
29.36000 398.956
29.40000 384.949
29.44000 415.474
29.48000 399.623
29.52000 399.587
29.56000 406.736
29.60000 398.994
29.64000 407.667
29.68000 396.174
29.72000 417.382
29.76000 394.808
29.80000 384.120
29.84000 411.453
29.88000 402.255
29.92000 413.301
29.96000 386.443
30.00000 407.549
30.04000 420.254
30.08000 425.564
30.12000 427.235
30.16000 409.543
30.20000 413.847
30.24000 414.903
30.28000 405.257
30.32000 395.857
30.36000 401.692
30.40000 407.283
30.44000 433.566
30.48000 410.149
30.52000 419.597
30.56000 414.332
30.60000 412.716
30.64000 418.134
30.68000 409.475
30.72000 409.488
30.76000 405.617
30.80000 428.943
30.84000 436.858
30.88000 449.070
30.92000 451.321
30.96000 473.831
31.00000 492.042
31.04000 522.903
31.08000 597.049
31.12000 712.697
31.16000 843.131
31.20000 1096.622
31.24000 1343.271
31.28000 1668.491
31.32000 1958.948
31.36000 2175.735
31.40000 2190.488
31.44000 2112.446
31.48000 1945.898
31.52000 1649.141
31.56000 1328.462
31.60000 1059.310
31.64000 820.924
31.68000 684.052
31.72000 574.862
31.76000 512.071
31.80000 468.904
31.84000 452.036
31.88000 418.055
31.92000 429.618
31.96000 393.537
32.00000 424.721
32.04000 404.994
32.08000 383.992
32.12000 402.312
32.16000 403.977
32.20000 418.270
32.24000 384.082
32.28000 384.163
32.32000 379.943
32.36000 374.271
32.40000 390.077
32.44000 367.273
32.48000 384.563
32.52000 378.060
32.56000 381.999
32.60000 381.901
32.64000 360.799
32.68000 361.167
32.72000 360.882
32.76000 363.763
32.80000 366.098
32.84000 337.278
32.88000 349.958
32.92000 334.667
32.96000 340.593
33.00000 351.975
33.04000 349.897
33.08000 347.093
33.12000 341.820
33.16000 337.544
33.20000 335.773
33.24000 337.941
33.28000 345.524
33.32000 338.559
33.36000 338.388
33.40000 345.672
33.44000 333.683
33.48000 336.791
33.52000 351.667
33.56000 338.968
33.60000 337.353
33.64000 349.090
33.68000 342.937
33.72000 347.195
33.76000 321.704
33.80000 337.344
33.84000 331.533
33.88000 346.718
33.92000 362.118
33.96000 333.316
34.00000 335.629
34.04000 341.369
34.08000 341.875
34.12000 332.791
34.16000 362.500
34.20000 362.465
34.24000 348.651
34.28000 349.983
34.32000 347.254
34.36000 355.812
34.40000 341.704
34.44000 360.151
34.48000 351.653
34.52000 347.264
34.56000 339.842
34.60000 332.124
34.64000 337.688
34.68000 334.679
34.72000 333.509
34.76000 323.770
34.80000 317.708
34.84000 315.368
34.88000 300.759
34.92000 323.673
34.96000 308.329
35.00000 325.570
35.04000 310.685
35.08000 306.694
35.12000 319.899
35.16000 330.732
35.20000 292.313
35.24000 296.009
35.28000 310.031
35.32000 320.651
35.36000 307.718
35.40000 310.883
35.44000 307.208
35.48000 298.879
35.52000 312.933
35.56000 308.001
35.60000 303.712
35.64000 299.773
35.68000 302.858
35.72000 308.913
35.76000 312.727
35.80000 307.998
35.84000 303.828
35.88000 303.007
35.92000 318.967
35.96000 299.701
36.00000 291.941
36.04000 297.291
36.08000 289.795
36.12000 293.206
36.16000 291.624
36.20000 283.345
36.24000 291.311
36.28000 296.494
36.32000 285.173
36.36000 293.469
36.40000 286.864
36.44000 297.411
36.48000 290.082
36.52000 306.508
36.56000 304.124
36.60000 291.542
36.64000 299.986
36.68000 287.781
36.72000 294.303
36.76000 308.963
36.80000 284.943
36.84000 290.702
36.88000 286.738
36.92000 293.446
36.96000 283.225
37.00000 304.101
37.04000 303.784
37.08000 310.872
37.12000 289.749
37.16000 303.777
37.20000 292.954
37.24000 303.153
37.28000 294.493
37.32000 287.031
37.36000 284.194
37.40000 288.081
37.44000 288.510
37.48000 279.775
37.52000 290.132
37.56000 266.266
37.60000 281.941
37.64000 282.179
37.68000 274.157
37.72000 291.132
37.76000 282.638
37.80000 279.712
37.84000 285.508
37.88000 285.478
37.92000 298.780
37.96000 284.784
38.00000 281.085
38.04000 296.087
38.08000 289.515
38.12000 290.244
38.16000 293.403
38.20000 284.663
38.24000 291.026
38.28000 304.183
38.32000 305.309
38.36000 324.486
38.40000 328.959
38.44000 373.678
38.48000 413.112
38.52000 491.352
38.56000 583.984
38.60000 714.615
38.64000 844.924
38.68000 935.953
38.72000 1032.795
38.76000 1018.439
38.80000 1027.292
38.84000 927.359
38.88000 793.805
38.92000 666.350
38.96000 547.408
39.00000 416.235
39.04000 366.701
39.08000 322.879
39.12000 308.786
39.16000 290.416
39.20000 283.098
39.24000 296.026
39.28000 276.638
39.32000 280.493
39.36000 282.220
39.40000 265.571
39.44000 278.034
39.48000 258.163
39.52000 267.933
39.56000 261.357
39.60000 273.191
39.64000 264.559
39.68000 263.486
39.72000 259.010
39.76000 261.777
39.80000 261.691
39.84000 255.240
39.88000 270.819
39.92000 261.130
39.96000 259.443
40.00000 259.267
40.04000 257.745
40.08000 269.922
40.12000 265.978
40.16000 265.187
40.20000 268.725
40.24000 258.363
40.28000 266.074
40.32000 259.897
40.36000 263.240
40.40000 245.838
40.44000 239.731
40.48000 254.019
40.52000 254.816
40.56000 238.248
40.60000 262.556
40.64000 265.688
40.68000 235.518
40.72000 248.581
40.76000 239.387
40.80000 235.231
40.84000 241.423
40.88000 250.481
40.92000 238.426
40.96000 232.696
41.00000 243.004
41.04000 247.164
41.08000 244.955
41.12000 242.738
41.16000 242.883
41.20000 233.870
41.24000 232.971
41.28000 236.350
41.32000 242.907
41.36000 230.989
41.40000 233.296
41.44000 245.239
41.48000 252.100
41.52000 242.282
41.56000 239.668
41.60000 235.953
41.64000 234.563
41.68000 238.492
41.72000 235.788
41.76000 253.839
41.80000 228.892
41.84000 237.945
41.88000 233.205
41.92000 240.824
41.96000 227.144
42.00000 223.193
42.04000 230.805
42.08000 243.366
42.12000 226.162
42.16000 236.778
42.20000 240.026
42.24000 233.019
42.28000 236.846
42.32000 245.673
42.36000 233.396
42.40000 225.580
42.44000 239.540
42.48000 240.250
42.52000 240.363
42.56000 217.470
42.60000 223.518
42.64000 233.437
42.68000 227.466
42.72000 232.083
42.76000 234.561
42.80000 233.412
42.84000 217.777
42.88000 230.872
42.92000 218.936
42.96000 230.699
43.00000 224.423
43.04000 214.774
43.08000 221.798
43.12000 226.339
43.16000 226.300
43.20000 226.456
43.24000 218.752
43.28000 225.872
43.32000 218.053
43.36000 228.412
43.40000 226.125
43.44000 229.830
43.48000 225.754
43.52000 218.346
43.56000 217.763
43.60000 214.548
43.64000 218.466
43.68000 220.806
43.72000 218.188
43.76000 208.917
43.80000 216.095
43.84000 223.718
43.88000 199.895
43.92000 209.438
43.96000 216.923
44.00000 216.490
44.04000 220.156
44.08000 222.049
44.12000 208.874
44.16000 220.001
44.20000 210.153
44.24000 223.465
44.28000 221.789
44.32000 216.335
44.36000 228.922
44.40000 210.064
44.44000 219.597
44.48000 225.697
44.52000 238.166
44.56000 231.031
44.60000 235.560
44.64000 243.224
44.68000 244.564
44.72000 229.917
44.76000 231.607
44.80000 256.447
44.84000 255.508
44.88000 259.829
44.92000 265.357
44.96000 278.507
45.00000 281.657
45.04000 289.424
45.08000 309.186
45.12000 314.185
45.16000 303.274
45.20000 298.084
45.24000 289.444
45.28000 287.439
45.32000 258.078
45.36000 269.852
45.40000 253.088
45.44000 244.816
45.48000 236.566
45.52000 241.925
45.56000 226.090
45.60000 223.674
45.64000 216.767
45.68000 216.304
45.72000 224.748
45.76000 219.670
45.80000 214.443
45.84000 216.126
45.88000 207.416
45.92000 196.236
45.96000 202.616
46.00000 196.852
46.04000 214.706
46.08000 201.383
46.12000 203.015
46.16000 202.569
46.20000 205.671
46.24000 187.663
46.28000 191.890
46.32000 195.467
46.36000 192.795
46.40000 197.775
46.44000 198.705
46.48000 204.300
46.52000 201.169
46.56000 202.622
46.60000 195.733
46.64000 192.389
46.68000 192.537
46.72000 192.910
46.76000 196.465
46.80000 202.426
46.84000 197.695
46.88000 193.093
46.92000 198.884
46.96000 201.744
47.00000 193.527
47.04000 189.184
47.08000 184.459
47.12000 189.103
47.16000 197.434
47.20000 184.666
47.24000 188.344
47.28000 196.683
47.32000 184.062
47.36000 183.246
47.40000 193.098
47.44000 183.179
47.48000 184.652
47.52000 189.230
47.56000 182.028
47.60000 185.669
47.64000 184.780
47.68000 191.495
47.72000 185.091
47.76000 189.713
47.80000 198.141
47.84000 178.538
47.88000 187.565
47.92000 179.833
47.96000 170.248
48.00000 174.433
48.04000 172.131
48.08000 178.248
48.12000 172.269
48.16000 195.302
48.20000 184.818
48.24000 187.029
48.28000 183.693
48.32000 181.715
48.36000 186.251
48.40000 171.241
48.44000 173.319
48.48000 177.920
48.52000 187.410
48.56000 176.207
48.60000 185.677
48.64000 185.948
48.68000 181.399
48.72000 179.856
48.76000 169.020
48.80000 168.533
48.84000 181.670
48.88000 183.161
48.92000 170.948
48.96000 166.650
49.00000 178.219
49.04000 191.648
49.08000 187.845
49.12000 179.283
49.16000 172.635
49.20000 182.820
49.24000 179.225
49.28000 174.113
49.32000 176.988
49.36000 179.005
49.40000 171.622
49.44000 173.134
49.48000 176.179
49.52000 176.759
49.56000 181.239
49.60000 175.081
49.64000 166.661
49.68000 169.792
49.72000 176.610
49.76000 177.333
49.80000 182.892
49.84000 167.065
49.88000 168.284
49.92000 164.658
49.96000 172.930
50.00000 172.131
50.04000 169.640
50.08000 165.261
50.12000 177.984
50.16000 180.958
50.20000 170.481
50.24000 176.611
50.28000 165.519
50.32000 179.221
50.36000 177.536
50.40000 194.509
50.44000 185.985
50.48000 191.719
50.52000 179.174
50.56000 196.032
50.60000 199.581
50.64000 224.420
50.68000 213.292
50.72000 217.616
50.76000 234.749
50.80000 221.118
50.84000 211.443
50.88000 207.641
50.92000 197.644
50.96000 193.923
51.00000 188.288
51.04000 183.664
51.08000 178.211
51.12000 166.058
51.16000 166.894
51.20000 157.995
51.24000 169.095
51.28000 165.034
51.32000 160.485
51.36000 166.663
51.40000 164.578
51.44000 171.484
51.48000 162.048
51.52000 157.501
51.56000 168.379
51.60000 170.859
51.64000 162.229
51.68000 165.753
51.72000 167.627
51.76000 153.107
51.80000 167.671
51.84000 172.886
51.88000 157.953
51.92000 155.488
51.96000 170.388
52.00000 158.765
52.04000 163.316
52.08000 152.167
52.12000 150.835
52.16000 159.837
52.20000 162.868
52.24000 155.803
52.28000 146.765
52.32000 160.926
52.36000 158.368
52.40000 162.429
52.44000 166.977
52.48000 145.501
52.52000 145.944
52.56000 146.257
52.60000 154.233
52.64000 160.614
52.68000 161.584
52.72000 154.985
52.76000 161.062
52.80000 159.875
52.84000 157.717
52.88000 151.196
52.92000 166.633
52.96000 159.898
53.00000 152.210
53.04000 166.163
53.08000 161.116
53.12000 147.164
53.16000 156.897
53.20000 156.948
53.24000 159.806
53.28000 165.380
53.32000 165.022
53.36000 163.861
53.40000 171.502
53.44000 160.359
53.48000 158.766
53.52000 161.343
53.56000 158.883
53.60000 150.302
53.64000 156.251
53.68000 154.300
53.72000 160.015
53.76000 154.300
53.80000 165.025
53.84000 151.619
53.88000 147.856
53.92000 157.946
53.96000 152.156
54.00000 152.491
54.04000 155.879
54.08000 152.911
54.12000 144.981
54.16000 157.201
54.20000 153.385
54.24000 160.554
54.28000 159.411
54.32000 153.182
54.36000 164.223
54.40000 158.587
54.44000 163.569
54.48000 152.640
54.52000 160.217
54.56000 146.765
54.60000 138.637
54.64000 152.025
54.68000 157.090
54.72000 150.781
54.76000 152.088
54.80000 162.311
54.84000 153.982
54.88000 152.554
54.92000 147.544
54.96000 152.587
55.00000 160.334
55.04000 160.379
55.08000 148.011
55.12000 158.759
55.16000 162.792
55.20000 160.862
55.24000 159.912
55.28000 163.005
55.32000 169.136
55.36000 148.544
55.40000 173.512
55.44000 172.711
55.48000 178.610
55.52000 183.066
55.56000 199.283
55.60000 212.042
55.64000 231.601
55.68000 270.050
55.72000 305.171
55.76000 346.345
55.80000 422.214
55.84000 484.754
55.88000 509.840
55.92000 561.776
55.96000 598.178
56.00000 605.827
56.04000 568.157
56.08000 535.773
56.12000 487.544
56.16000 411.231
56.20000 359.579
56.24000 314.592
56.28000 296.453
56.32000 248.814
56.36000 221.181
56.40000 195.433
56.44000 181.803
56.48000 167.613
56.52000 165.385
56.56000 162.212
56.60000 153.313
56.64000 164.292
56.68000 151.311
56.72000 146.842
56.76000 144.831
56.80000 144.543
56.84000 155.593
56.88000 153.427
56.92000 131.847
56.96000 149.047
57.00000 153.459
57.04000 139.533
57.08000 141.569
57.12000 145.286
57.16000 150.033
57.20000 147.924
57.24000 139.542
57.28000 140.211
57.32000 143.496
57.36000 138.507
57.40000 144.872
57.44000 141.998
57.48000 138.869
57.52000 133.815
57.56000 140.111
57.60000 136.188
57.64000 137.265
57.68000 135.391
57.72000 135.816
57.76000 140.307
57.80000 138.348
57.84000 146.971
57.88000 139.420
57.92000 143.002
57.96000 140.714
58.00000 145.265
58.04000 140.948
58.08000 138.974
58.12000 142.835
58.16000 138.739
58.20000 136.883
58.24000 136.405
58.28000 144.237
58.32000 127.269
58.36000 132.648
58.40000 130.831
58.44000 134.873
58.48000 132.565
58.52000 129.170
58.56000 126.375
58.60000 131.215
58.64000 126.539
58.68000 128.785
58.72000 127.615
58.76000 128.114
58.80000 131.445
58.84000 135.876
58.88000 133.121
58.92000 134.555
58.96000 143.844
59.00000 130.337
59.04000 131.878
59.08000 131.287
59.12000 134.955
59.16000 139.418
59.20000 140.909
59.24000 130.318
59.28000 123.191
59.32000 141.226
59.36000 135.114
59.40000 133.007
59.44000 133.446
59.48000 125.177
59.52000 130.794
59.56000 129.236
59.60000 135.771
59.64000 132.686
59.68000 139.317
59.72000 141.041
59.76000 133.522
59.80000 129.141
59.84000 126.382
59.88000 125.863
59.92000 124.989
59.96000 129.688
60.00000 132.073
60.04000 136.217
60.08000 127.154
60.12000 133.827
60.16000 137.041
60.20000 134.493
60.24000 126.857
60.28000 132.037
60.32000 131.401
60.36000 137.706
60.40000 137.537
60.44000 133.769
60.48000 133.925
60.52000 144.322
60.56000 137.838
60.60000 121.194
60.64000 137.225
60.68000 125.860
60.72000 140.033
60.76000 134.846
60.80000 138.650
60.84000 130.170
60.88000 132.249
60.92000 139.548
60.96000 143.581
61.00000 127.614
61.04000 140.924
61.08000 135.560
61.12000 129.766
61.16000 124.392
61.20000 132.882
61.24000 126.550
61.28000 132.394
61.32000 139.601
61.36000 123.783
61.40000 143.603
61.44000 138.970
61.48000 132.721
61.52000 156.841
61.56000 177.617
61.60000 233.540
61.64000 246.391
61.68000 230.048
61.72000 246.116
61.76000 241.534
61.80000 206.202
61.84000 182.461
61.88000 146.121
61.92000 147.765
61.96000 138.699
62.00000 139.503
62.04000 150.714
62.08000 132.539
62.12000 143.179
62.16000 140.197
62.20000 139.566
62.24000 143.896
62.28000 135.029
62.32000 129.467
62.36000 135.729
62.40000 118.944
62.44000 136.500
62.48000 148.100
62.52000 140.196
62.56000 140.978
62.60000 140.237
62.64000 134.060
62.68000 132.678
62.72000 145.176
62.76000 134.326
62.80000 148.450
62.84000 145.148
62.88000 130.170
62.92000 149.412
62.96000 144.115
63.00000 137.902
63.04000 131.870
63.08000 136.932
63.12000 146.134
63.16000 141.273
63.20000 146.069
63.24000 148.837
63.28000 142.075
63.32000 136.414
63.36000 146.967
63.40000 134.189
63.44000 147.256
63.48000 142.177
63.52000 159.733
63.56000 153.102
63.60000 157.621
63.64000 144.342
63.68000 151.773
63.72000 140.243
63.76000 144.746
63.80000 150.578
63.84000 153.688
63.88000 151.077
63.92000 146.794
63.96000 142.910
64.00000 152.400
64.04000 156.402
64.08000 155.299
64.12000 151.815
64.16000 161.194
64.20000 158.504
64.24000 165.206
64.28000 153.390
64.32000 167.056
64.36000 163.333
64.40000 160.896
64.44000 158.390
64.48000 156.468
64.52000 163.447
64.56000 151.615
64.60000 155.158
64.64000 156.137
64.68000 162.883
64.72000 176.664
64.76000 165.594
64.80000 173.279
64.84000 178.021
64.88000 169.013
64.92000 179.652
64.96000 176.638
65.00000 184.396
65.04000 190.673
65.08000 175.465
65.12000 188.031
65.16000 197.607
65.20000 216.761
65.24000 210.466
65.28000 209.469
65.32000 231.851
65.36000 251.840
65.40000 249.891
65.44000 274.093
65.48000 289.797
65.52000 306.883
65.56000 332.766
65.60000 349.723
65.64000 362.632
65.68000 419.722
65.72000 497.556
65.76000 693.971
65.80000 803.823
65.84000 895.660
65.88000 891.124
65.92000 864.734
65.96000 743.677
66.00000 543.093
66.04000 395.731
66.08000 323.371
66.12000 275.054
66.16000 279.211
66.20000 271.889
66.24000 285.905
66.28000 309.843
66.32000 335.814
66.36000 379.594
66.40000 382.375
66.44000 398.080
66.48000 395.059
66.52000 342.086
66.56000 338.445
66.60000 291.903
66.64000 294.644
66.68000 300.919
66.72000 283.376
66.76000 293.891
66.80000 309.402
66.84000 296.330
66.88000 299.292
66.92000 318.213
66.96000 321.929
67.00000 320.326
67.04000 338.292
67.08000 320.762
67.12000 328.191
67.16000 333.270
67.20000 343.102
67.24000 360.537
67.28000 348.088
67.32000 371.899
67.36000 363.248
67.40000 377.928
67.44000 393.619
67.48000 393.781
67.52000 399.753
67.56000 430.077
67.60000 408.921
67.64000 422.172
67.68000 418.919
67.72000 428.491
67.76000 435.541
67.80000 445.128
67.84000 452.075
67.88000 454.292
67.92000 464.818
67.96000 473.933
68.00000 521.476
68.04000 531.856
68.08000 501.809
68.12000 536.516
68.16000 538.323
68.20000 565.164
68.24000 571.752
68.28000 577.230
68.32000 595.235
68.36000 644.003
68.40000 657.898
68.44000 671.478
68.48000 704.435
68.52000 734.971
68.56000 785.275
68.60000 889.698
68.64000 1029.524
68.68000 1188.323
68.72000 1360.842
68.76000 1562.836
68.80000 1709.419
68.84000 1946.316
68.88000 2411.342
68.92000 4134.556
68.96000 10926.248
69.00000 25385.307
69.04000 40739.828
69.08000 48083.398
69.12000 49165.043
69.16000 51016.879
69.20000 51494.773
69.24000 42977.809
69.28000 32557.188
69.32000 26673.826
69.36000 24178.914
69.40000 20027.414
69.44000 11934.083
69.48000 5428.386
69.52000 2452.407
69.56000 1639.749
69.60000 1303.025
69.64000 1158.716
69.68000 993.367
69.72000 925.581
69.76000 834.766
69.80000 795.300
69.84000 764.527
69.88000 690.125
69.92000 676.033
69.96000 657.089
70.00000 623.321