File: XRD/17-09-2025/XY Data/BTO_Mapping_Theta2Theta_09-17-2025_001_27_15-000_15-000.xy
20.00000 544.468
20.04000 573.057
20.08000 564.977
20.12000 563.948
20.16000 555.496
20.20000 552.895
20.24000 568.235
20.28000 543.210
20.32000 551.621
20.36000 553.531
20.40000 565.071
20.44000 558.115
20.48000 566.995
20.52000 532.683
20.56000 568.122
20.60000 549.127
20.64000 551.525
20.68000 561.285
20.72000 533.928
20.76000 534.350
20.80000 537.701
20.84000 525.709
20.88000 534.152
20.92000 537.105
20.96000 552.318
21.00000 544.720
21.04000 527.174
21.08000 546.077
21.12000 539.178
21.16000 531.824
21.20000 531.031
21.24000 534.606
21.28000 541.903
21.32000 534.967
21.36000 532.259
21.40000 530.754
21.44000 527.238
21.48000 538.728
21.52000 536.327
21.56000 547.525
21.60000 552.570
21.64000 555.549
21.68000 525.043
21.72000 535.086
21.76000 529.354
21.80000 582.956
21.84000 563.499
21.88000 570.504
21.92000 570.570
21.96000 611.702
22.00000 616.311
22.04000 670.228
22.08000 645.480
22.12000 635.863
22.16000 618.721
22.20000 622.847
22.24000 607.332
22.28000 614.852
22.32000 557.032
22.36000 561.181
22.40000 529.495
22.44000 551.695
22.48000 518.362
22.52000 525.235
22.56000 514.677
22.60000 541.562
22.64000 514.564
22.68000 514.114
22.72000 526.260
22.76000 510.677
22.80000 531.430
22.84000 513.733
22.88000 489.495
22.92000 506.537
22.96000 499.234
23.00000 508.909
23.04000 489.880
23.08000 482.237
23.12000 512.106
23.16000 521.322
23.20000 507.748
23.24000 503.826
23.28000 501.312
23.32000 519.713
23.36000 510.359
23.40000 497.631
23.44000 503.959
23.48000 494.121
23.52000 500.904
23.56000 497.251
23.60000 493.135
23.64000 486.694
23.68000 515.954
23.72000 490.849
23.76000 502.412
23.80000 514.019
23.84000 522.372
23.88000 505.931
23.92000 499.620
23.96000 489.643
24.00000 483.778
24.04000 515.524
24.08000 492.241
24.12000 498.302
24.16000 510.788
24.20000 502.508
24.24000 494.067
24.28000 470.478
24.32000 500.539
24.36000 499.211
24.40000 483.065
24.44000 478.062
24.48000 475.811
24.52000 480.319
24.56000 475.181
24.60000 474.956
24.64000 476.601
24.68000 488.530
24.72000 495.087
24.76000 474.151
24.80000 477.835
24.84000 472.101
24.88000 487.962
24.92000 461.028
24.96000 475.328
25.00000 476.426
25.04000 466.339
25.08000 472.301
25.12000 461.338
25.16000 472.839
25.20000 472.280
25.24000 458.336
25.28000 473.936
25.32000 460.394
25.36000 455.213
25.40000 470.317
25.44000 453.359
25.48000 467.032
25.52000 466.670
25.56000 451.194
25.60000 445.497
25.64000 449.266
25.68000 453.592
25.72000 437.474
25.76000 470.135
25.80000 495.607
25.84000 456.645
25.88000 452.627
25.92000 460.029
25.96000 452.385
26.00000 460.045
26.04000 446.342
26.08000 452.360
26.12000 461.436
26.16000 459.011
26.20000 451.486
26.24000 452.225
26.28000 460.940
26.32000 435.867
26.36000 433.363
26.40000 437.235
26.44000 441.288
26.48000 450.139
26.52000 422.958
26.56000 444.128
26.60000 453.966
26.64000 434.847
26.68000 442.029
26.72000 444.247
26.76000 441.863
26.80000 439.653
26.84000 430.698
26.88000 433.775
26.92000 436.058
26.96000 434.682
27.00000 440.010
27.04000 444.961
27.08000 455.623
27.12000 433.507
27.16000 433.703
27.20000 427.592
27.24000 429.551
27.28000 428.613
27.32000 435.991
27.36000 424.285
27.40000 426.733
27.44000 436.841
27.48000 434.027
27.52000 440.291
27.56000 419.670
27.60000 410.060
27.64000 433.851
27.68000 441.348
27.72000 422.247
27.76000 422.593
27.80000 438.932
27.84000 433.613
27.88000 413.190
27.92000 422.591
27.96000 402.339
28.00000 429.655
28.04000 435.956
28.08000 423.177
28.12000 429.711
28.16000 423.859
28.20000 428.959
28.24000 427.445
28.28000 433.307
28.32000 418.850
28.36000 424.937
28.40000 429.359
28.44000 420.455
28.48000 420.079
28.52000 404.683
28.56000 411.079
28.60000 395.654
28.64000 408.913
28.68000 400.952
28.72000 418.119
28.76000 407.176
28.80000 417.001
28.84000 398.495
28.88000 396.096
28.92000 422.150
28.96000 427.949
29.00000 400.003
29.04000 415.097
29.08000 413.154
29.12000 408.613
29.16000 413.544
29.20000 415.430
29.24000 408.535
29.28000 402.729
29.32000 412.253
29.36000 402.348
29.40000 410.856
29.44000 394.850
29.48000 399.725
29.52000 415.420
29.56000 406.779
29.60000 402.686
29.64000 398.760
29.68000 403.022
29.72000 412.156
29.76000 408.956
29.80000 408.799
29.84000 409.511
29.88000 415.402
29.92000 430.149
29.96000 430.400
30.00000 447.748
30.04000 421.606
30.08000 431.478
30.12000 455.519
30.16000 434.146
30.20000 430.952
30.24000 411.656
30.28000 418.745
30.32000 436.675
30.36000 414.458
30.40000 407.644
30.44000 441.318
30.48000 424.498
30.52000 414.929
30.56000 414.192
30.60000 429.428
30.64000 433.063
30.68000 425.493
30.72000 416.932
30.76000 452.980
30.80000 430.523
30.84000 451.022
30.88000 445.052
30.92000 485.061
30.96000 491.169
31.00000 521.189
31.04000 578.472
31.08000 659.940
31.12000 761.785
31.16000 979.871
31.20000 1316.603
31.24000 1713.055
31.28000 2185.447
31.32000 2592.087
31.36000 2970.855
31.40000 3049.867
31.44000 2983.290
31.48000 2722.362
31.52000 2206.337
31.56000 1758.426
31.60000 1320.350
31.64000 979.062
31.68000 732.663
31.72000 619.460
31.76000 543.237
31.80000 464.799
31.84000 457.482
31.88000 455.300
31.92000 416.710
31.96000 413.667
32.00000 412.783
32.04000 395.463
32.08000 417.352
32.12000 396.938
32.16000 406.255
32.20000 399.201
32.24000 395.257
32.28000 392.588
32.32000 391.073
32.36000 399.305
32.40000 401.069
32.44000 370.901
32.48000 366.887
32.52000 410.988
32.56000 377.125
32.60000 371.792
32.64000 374.741
32.68000 370.851
32.72000 362.112
32.76000 347.707
32.80000 364.277
32.84000 355.718
32.88000 367.008
32.92000 355.899
32.96000 348.742
33.00000 351.513
33.04000 361.304
33.08000 347.157
33.12000 363.433
33.16000 340.974
33.20000 344.382
33.24000 342.774
33.28000 349.592
33.32000 340.888
33.36000 343.192
33.40000 345.952
33.44000 346.233
33.48000 335.935
33.52000 335.852
33.56000 342.098
33.60000 334.734
33.64000 321.123
33.68000 334.441
33.72000 333.907
33.76000 323.160
33.80000 322.277
33.84000 310.894
33.88000 337.918
33.92000 326.612
33.96000 316.014
34.00000 342.373
34.04000 329.553
34.08000 329.316
34.12000 339.099
34.16000 317.406
34.20000 333.497
34.24000 335.640
34.28000 347.078
34.32000 331.715
34.36000 338.576
34.40000 337.190
34.44000 331.713
34.48000 349.111
34.52000 345.591
34.56000 324.469
34.60000 324.145
34.64000 322.744
34.68000 322.208
34.72000 328.313
34.76000 320.609
34.80000 316.077
34.84000 317.277
34.88000 315.908
34.92000 319.726
34.96000 327.659
35.00000 329.379
35.04000 314.391
35.08000 320.595
35.12000 321.501
35.16000 306.724
35.20000 320.317
35.24000 317.081
35.28000 301.688
35.32000 299.131
35.36000 307.994
35.40000 308.139
35.44000 295.370
35.48000 309.795
35.52000 298.638
35.56000 304.664
35.60000 293.090
35.64000 300.876
35.68000 292.042
35.72000 310.636
35.76000 299.949
35.80000 293.899
35.84000 288.722
35.88000 298.637
35.92000 299.304
35.96000 305.209
36.00000 301.263
36.04000 286.659
36.08000 303.581
36.12000 307.827
36.16000 303.077
36.20000 292.420
36.24000 308.254
36.28000 304.672
36.32000 281.160
36.36000 295.207
36.40000 295.146
36.44000 295.310
36.48000 278.738
36.52000 282.891
36.56000 291.024
36.60000 294.176
36.64000 271.494
36.68000 272.201
36.72000 298.258
36.76000 297.672
36.80000 295.756
36.84000 312.941
36.88000 306.410
36.92000 304.877
36.96000 309.879
37.00000 289.962
37.04000 298.576
37.08000 307.006
37.12000 293.439
37.16000 290.702
37.20000 298.803
37.24000 288.872
37.28000 267.775
37.32000 284.172
37.36000 303.418
37.40000 279.701
37.44000 289.045
37.48000 290.142
37.52000 274.236
37.56000 283.553
37.60000 296.892
37.64000 290.252
37.68000 291.962
37.72000 280.651
37.76000 281.899
37.80000 271.780
37.84000 278.716
37.88000 281.059
37.92000 270.880
37.96000 285.166
38.00000 293.298
38.04000 298.740
38.08000 284.000
38.12000 300.886
38.16000 292.337
38.20000 315.856
38.24000 301.663
38.28000 313.672
38.32000 321.169
38.36000 333.996
38.40000 352.971
38.44000 404.929
38.48000 431.412
38.52000 509.239
38.56000 593.933
38.60000 713.227
38.64000 828.547
38.68000 942.867
38.72000 1032.120
38.76000 1071.154
38.80000 1023.418
38.84000 886.650
38.88000 768.387
38.92000 643.052
38.96000 516.817
39.00000 445.619
39.04000 367.093
39.08000 331.165
39.12000 288.021
39.16000 294.327
39.20000 282.398
39.24000 276.439
39.28000 279.429
39.32000 275.314
39.36000 288.921
39.40000 279.805
39.44000 266.257
39.48000 265.069
39.52000 273.011
39.56000 256.049
39.60000 255.582
39.64000 280.196
39.68000 270.775
39.72000 254.711
39.76000 259.597
39.80000 258.624
39.84000 260.897
39.88000 267.646
39.92000 250.050
39.96000 269.006
40.00000 261.078
40.04000 252.178
40.08000 252.213
40.12000 251.139
40.16000 267.490
40.20000 260.461
40.24000 244.810
40.28000 257.011
40.32000 249.320
40.36000 246.180
40.40000 258.732
40.44000 247.474
40.48000 242.509
40.52000 255.937
40.56000 232.262
40.60000 250.854
40.64000 258.185
40.68000 263.479
40.72000 240.795
40.76000 245.643
40.80000 247.811
40.84000 245.599
40.88000 238.065
40.92000 241.367
40.96000 227.526
41.00000 235.410
41.04000 256.764
41.08000 252.789
41.12000 242.762
41.16000 231.915
41.20000 238.059
41.24000 227.968
41.28000 243.848
41.32000 240.045
41.36000 221.752
41.40000 253.598
41.44000 234.350
41.48000 235.686
41.52000 235.999
41.56000 231.777
41.60000 242.488
41.64000 249.683
41.68000 254.566
41.72000 225.542
41.76000 233.783
41.80000 230.866
41.84000 234.675
41.88000 242.063
41.92000 244.336
41.96000 234.356
42.00000 219.632
42.04000 238.225
42.08000 225.224
42.12000 231.607
42.16000 231.579
42.20000 229.551
42.24000 227.868
42.28000 224.878
42.32000 219.455
42.36000 233.822
42.40000 240.010
42.44000 238.635
42.48000 238.312
42.52000 232.052
42.56000 232.689
42.60000 221.231
42.64000 230.194
42.68000 225.280
42.72000 232.862
42.76000 227.091
42.80000 228.792
42.84000 233.662
42.88000 216.426
42.92000 219.936
42.96000 226.408
43.00000 224.756
43.04000 226.113
43.08000 223.227
43.12000 222.012
43.16000 233.882
43.20000 215.981
43.24000 220.074
43.28000 223.081
43.32000 229.948
43.36000 216.864
43.40000 221.287
43.44000 225.308
43.48000 208.960
43.52000 220.902
43.56000 222.411
43.60000 214.039
43.64000 229.331
43.68000 201.026
43.72000 204.537
43.76000 209.708
43.80000 222.184
43.84000 218.523
43.88000 221.163
43.92000 221.044
43.96000 214.648
44.00000 211.121
44.04000 213.089
44.08000 219.624
44.12000 222.532
44.16000 213.029
44.20000 209.711
44.24000 208.837
44.28000 222.100
44.32000 209.924
44.36000 221.098
44.40000 212.399
44.44000 217.055
44.48000 229.136
44.52000 217.242
44.56000 224.199
44.60000 207.093
44.64000 234.115
44.68000 224.974
44.72000 229.510
44.76000 228.053
44.80000 237.341
44.84000 238.889
44.88000 243.152
44.92000 270.118
44.96000 274.324
45.00000 274.255
45.04000 289.534
45.08000 297.258
45.12000 324.264
45.16000 297.514
45.20000 308.365
45.24000 306.655
45.28000 291.003
45.32000 277.160
45.36000 270.064
45.40000 260.798
45.44000 237.777
45.48000 239.644
45.52000 232.071
45.56000 214.824
45.60000 208.244
45.64000 215.307
45.68000 207.918
45.72000 219.965
45.76000 201.523
45.80000 200.760
45.84000 208.460
45.88000 207.844
45.92000 200.365
45.96000 197.944
46.00000 208.692
46.04000 190.843
46.08000 204.521
46.12000 208.966
46.16000 215.002
46.20000 197.759
46.24000 199.348
46.28000 192.830
46.32000 195.056
46.36000 202.216
46.40000 203.884
46.44000 203.082
46.48000 202.371
46.52000 208.478
46.56000 193.692
46.60000 195.399
46.64000 200.773
46.68000 194.628
46.72000 192.010
46.76000 176.551
46.80000 195.905
46.84000 199.559
46.88000 196.347
46.92000 184.967
46.96000 192.841
47.00000 194.360
47.04000 198.236
47.08000 201.886
47.12000 192.931
47.16000 190.724
47.20000 193.515
47.24000 189.988
47.28000 183.706
47.32000 195.104
47.36000 185.663
47.40000 199.476
47.44000 183.955
47.48000 166.455
47.52000 187.643
47.56000 180.743
47.60000 187.370
47.64000 178.422
47.68000 189.793
47.72000 183.346
47.76000 179.241
47.80000 183.594
47.84000 187.814
47.88000 189.063
47.92000 180.368
47.96000 184.599
48.00000 176.226
48.04000 185.518
48.08000 181.809
48.12000 181.970
48.16000 187.102
48.20000 175.799
48.24000 177.183
48.28000 181.795
48.32000 182.390
48.36000 185.371
48.40000 171.352
48.44000 183.597
48.48000 183.773
48.52000 188.575
48.56000 178.957
48.60000 184.441
48.64000 177.126
48.68000 175.162
48.72000 169.988
48.76000 173.386
48.80000 176.404
48.84000 192.623
48.88000 168.506
48.92000 183.659
48.96000 170.886
49.00000 179.921
49.04000 170.592
49.08000 189.050
49.12000 184.590
49.16000 172.089
49.20000 182.361
49.24000 191.776
49.28000 173.282
49.32000 176.961
49.36000 179.125
49.40000 178.000
49.44000 185.187
49.48000 171.321
49.52000 178.160
49.56000 173.964
49.60000 182.160
49.64000 173.881
49.68000 173.763
49.72000 172.688
49.76000 168.703
49.80000 166.449
49.84000 172.244
49.88000 163.149
49.92000 175.967
49.96000 176.513
50.00000 184.350
50.04000 177.807
50.08000 176.576
50.12000 179.819
50.16000 176.854
50.20000 179.978
50.24000 175.453
50.28000 183.765
50.32000 173.437
50.36000 185.614
50.40000 175.694
50.44000 191.192
50.48000 181.755
50.52000 200.657
50.56000 216.399
50.60000 226.174
50.64000 231.943
50.68000 247.110
50.72000 243.904
50.76000 234.106
50.80000 254.074
50.84000 238.290
50.88000 229.332
50.92000 225.845
50.96000 205.334
51.00000 194.626
51.04000 175.019
51.08000 184.197
51.12000 166.357
51.16000 160.201
51.20000 169.320
51.24000 156.490
51.28000 158.813
51.32000 168.890
51.36000 161.692
51.40000 163.140
51.44000 149.695
51.48000 163.831
51.52000 158.499
51.56000 157.704
51.60000 151.101
51.64000 157.454
51.68000 154.172
51.72000 162.404
51.76000 156.536
51.80000 157.575
51.84000 158.625
51.88000 155.933
51.92000 161.788
51.96000 151.677
52.00000 147.385
52.04000 159.903
52.08000 160.204
52.12000 155.314
52.16000 176.008
52.20000 155.594
52.24000 162.202
52.28000 166.410
52.32000 160.371
52.36000 160.306
52.40000 165.995
52.44000 165.492
52.48000 146.309
52.52000 163.176
52.56000 160.740
52.60000 166.141
52.64000 158.089
52.68000 151.589
52.72000 170.029
52.76000 163.518
52.80000 153.728
52.84000 152.577
52.88000 160.423
52.92000 159.623
52.96000 161.597
53.00000 157.366
53.04000 155.846
53.08000 160.809
53.12000 155.757
53.16000 166.739
53.20000 163.426
53.24000 153.392
53.28000 158.821
53.32000 158.578
53.36000 152.162
53.40000 160.208
53.44000 164.753
53.48000 153.723
53.52000 167.886
53.56000 160.940
53.60000 160.824
53.64000 159.571
53.68000 161.993
53.72000 149.031
53.76000 153.277
53.80000 153.708
53.84000 163.445
53.88000 150.950
53.92000 154.048
53.96000 160.942
54.00000 143.262
54.04000 154.548
54.08000 151.988
54.12000 143.846
54.16000 160.836
54.20000 154.142
54.24000 158.519
54.28000 147.728
54.32000 146.455
54.36000 149.687
54.40000 141.438
54.44000 147.560
54.48000 148.916
54.52000 140.003
54.56000 149.122
54.60000 157.083
54.64000 158.395
54.68000 159.268
54.72000 155.514
54.76000 148.488
54.80000 161.822
54.84000 155.988
54.88000 146.986
54.92000 148.042
54.96000 141.108
55.00000 154.839
55.04000 161.220
55.08000 152.205
55.12000 150.702
55.16000 157.159
55.20000 147.024
55.24000 160.490
55.28000 157.834
55.32000 169.456
55.36000 166.043
55.40000 168.033
55.44000 179.282
55.48000 188.771
55.52000 187.721
55.56000 192.325
55.60000 205.148
55.64000 233.346
55.68000 278.343
55.72000 303.089
55.76000 355.801
55.80000 416.011
55.84000 489.629
55.88000 564.792
55.92000 607.566
55.96000 619.585
56.00000 637.628
56.04000 593.035
56.08000 563.029
56.12000 491.439
56.16000 434.713
56.20000 363.184
56.24000 320.011
56.28000 273.000
56.32000 240.158
56.36000 206.774
56.40000 205.902
56.44000 191.206
56.48000 170.051
56.52000 169.508
56.56000 170.872
56.60000 170.846
56.64000 160.622
56.68000 159.668
56.72000 146.755
56.76000 155.389
56.80000 144.770
56.84000 144.638
56.88000 149.349
56.92000 143.965
56.96000 152.728
57.00000 131.440
57.04000 150.864
57.08000 145.306
57.12000 145.997
57.16000 145.574
57.20000 139.023
57.24000 149.297
57.28000 141.229
57.32000 143.261
57.36000 135.630
57.40000 145.726
57.44000 143.671
57.48000 145.524
57.52000 143.095
57.56000 148.925
57.60000 146.971
57.64000 141.143
57.68000 133.965
57.72000 143.311
57.76000 144.441
57.80000 146.764
57.84000 139.519
57.88000 142.085
57.92000 144.154
57.96000 136.037
58.00000 144.664
58.04000 144.223
58.08000 130.754
58.12000 139.059
58.16000 127.117
58.20000 128.385
58.24000 145.596
58.28000 142.461
58.32000 140.204
58.36000 125.023
58.40000 144.446
58.44000 139.055
58.48000 131.786
58.52000 131.156
58.56000 136.498
58.60000 136.095
58.64000 123.574
58.68000 130.184
58.72000 137.190
58.76000 136.140
58.80000 134.606
58.84000 132.904
58.88000 138.033
58.92000 138.947
58.96000 134.814
59.00000 137.900
59.04000 137.621
59.08000 139.719
59.12000 132.239
59.16000 133.140
59.20000 133.239
59.24000 132.096
59.28000 137.720
59.32000 136.859
59.36000 127.200
59.40000 132.594
59.44000 124.883
59.48000 128.701
59.52000 123.764
59.56000 140.729
59.60000 140.080
59.64000 128.411
59.68000 127.533
59.72000 129.647
59.76000 134.863
59.80000 126.719
59.84000 138.941
59.88000 134.893
59.92000 127.189
59.96000 130.430
60.00000 133.648
60.04000 132.257
60.08000 133.743
60.12000 127.882
60.16000 130.232
60.20000 127.036
60.24000 125.206
60.28000 130.261
60.32000 133.197
60.36000 118.734
60.40000 123.986
60.44000 133.420
60.48000 132.453
60.52000 134.524
60.56000 128.015
60.60000 123.764
60.64000 129.976
60.68000 131.059
60.72000 132.554
60.76000 123.552
60.80000 126.548
60.84000 140.324
60.88000 129.673
60.92000 128.432
60.96000 138.437
61.00000 135.388
61.04000 142.667
61.08000 138.440
61.12000 135.640
61.16000 145.476
61.20000 134.481
61.24000 125.600
61.28000 137.845
61.32000 129.949
61.36000 140.885
61.40000 133.331
61.44000 148.523
61.48000 124.186
61.52000 153.679
61.56000 196.318
61.60000 223.084
61.64000 245.016
61.68000 242.788
61.72000 242.527
61.76000 227.427
61.80000 210.186
61.84000 173.372
61.88000 142.425
61.92000 141.450
61.96000 139.192
62.00000 145.628
62.04000 141.551
62.08000 139.869
62.12000 136.487
62.16000 135.077
62.20000 134.486
62.24000 142.441
62.28000 130.321
62.32000 129.548
62.36000 136.086
62.40000 145.369
62.44000 145.995
62.48000 146.328
62.52000 137.293
62.56000 139.468
62.60000 145.128
62.64000 140.393
62.68000 142.690
62.72000 142.988
62.76000 137.647
62.80000 144.396
62.84000 145.867
62.88000 133.354
62.92000 139.253
62.96000 146.819
63.00000 153.964
63.04000 135.237
63.08000 146.088
63.12000 135.066
63.16000 143.976
63.20000 133.278
63.24000 138.471
63.28000 141.314
63.32000 149.359
63.36000 141.120
63.40000 140.175
63.44000 156.801
63.48000 148.243
63.52000 145.623
63.56000 151.935
63.60000 147.798
63.64000 139.815
63.68000 139.933
63.72000 141.595
63.76000 146.370
63.80000 153.152
63.84000 147.099
63.88000 151.377
63.92000 146.235
63.96000 155.703
64.00000 155.373
64.04000 160.807
64.08000 148.864
64.12000 165.576
64.16000 150.428
64.20000 153.812
64.24000 152.321
64.28000 164.759
64.32000 153.558
64.36000 159.907
64.40000 165.874
64.44000 164.239
64.48000 161.535
64.52000 161.890
64.56000 161.725
64.60000 169.315
64.64000 176.336
64.68000 162.282
64.72000 174.991
64.76000 160.596
64.80000 171.515
64.84000 176.152
64.88000 181.124
64.92000 180.330
64.96000 180.767
65.00000 184.961
65.04000 189.083
65.08000 179.361
65.12000 194.181
65.16000 196.554
65.20000 227.092
65.24000 226.843
65.28000 226.139
65.32000 263.100
65.36000 283.308
65.40000 292.302
65.44000 300.024
65.48000 325.139
65.52000 344.260
65.56000 384.087
65.60000 397.627
65.64000 411.553
65.68000 465.336
65.72000 545.271
65.76000 712.784
65.80000 847.108
65.84000 904.210
65.88000 938.645
65.92000 893.964
65.96000 765.407
66.00000 543.357
66.04000 398.655
66.08000 320.363
66.12000 305.394
66.16000 282.275
66.20000 271.698
66.24000 277.693
66.28000 298.055
66.32000 337.190
66.36000 368.134
66.40000 362.604
66.44000 379.570
66.48000 370.782
66.52000 353.718
66.56000 324.122
66.60000 299.288
66.64000 290.855
66.68000 295.813
66.72000 291.381
66.76000 288.540
66.80000 306.251
66.84000 307.781
66.88000 297.331
66.92000 312.752
66.96000 312.546
67.00000 325.793
67.04000 331.368
67.08000 322.394
67.12000 340.128
67.16000 331.679
67.20000 332.964
67.24000 348.425
67.28000 357.235
67.32000 362.613
67.36000 367.780
67.40000 374.113
67.44000 369.875
67.48000 377.572
67.52000 370.351
67.56000 405.773
67.60000 398.652
67.64000 417.603
67.68000 427.151
67.72000 424.170
67.76000 423.131
67.80000 418.955
67.84000 451.952
67.88000 468.778
67.92000 477.350
67.96000 455.748
68.00000 462.457
68.04000 486.754
68.08000 517.038
68.12000 533.635
68.16000 532.253
68.20000 551.527
68.24000 540.868
68.28000 575.968
68.32000 591.600
68.36000 606.062
68.40000 628.254
68.44000 657.218
68.48000 688.431
68.52000 705.930
68.56000 781.418
68.60000 848.988
68.64000 998.861
68.68000 1155.153
68.72000 1329.952
68.76000 1489.056
68.80000 1678.160
68.84000 1937.035
68.88000 2291.407
68.92000 3811.859
68.96000 10034.330
69.00000 24042.475
69.04000 39266.172
69.08000 47205.777
69.12000 48281.328
69.16000 49970.703
69.20000 50852.391
69.24000 42974.891
69.28000 32575.037
69.32000 26690.865
69.36000 23825.645
69.40000 20083.457
69.44000 12326.568
69.48000 5647.247
69.52000 2477.360
69.56000 1590.509
69.60000 1284.705
69.64000 1135.586
69.68000 978.053
69.72000 916.427
69.76000 831.134
69.80000 777.942
69.84000 746.425
69.88000 697.425
69.92000 669.891
69.96000 657.320
70.00000 643.029