File: XRD/17-09-2025/XY Data/BTO_Mapping_Theta2Theta_09-17-2025_001_06_0-000_-30-000.xy
20.00000 555.326
20.04000 571.105
20.08000 553.522
20.12000 549.917
20.16000 564.007
20.20000 538.089
20.24000 557.397
20.28000 559.245
20.32000 576.628
20.36000 549.334
20.40000 546.877
20.44000 566.507
20.48000 551.676
20.52000 559.675
20.56000 549.763
20.60000 521.874
20.64000 530.884
20.68000 537.964
20.72000 547.288
20.76000 555.575
20.80000 558.781
20.84000 535.059
20.88000 537.125
20.92000 524.077
20.96000 533.014
21.00000 552.480
21.04000 537.769
21.08000 518.678
21.12000 517.949
21.16000 541.366
21.20000 539.405
21.24000 543.512
21.28000 531.891
21.32000 548.559
21.36000 510.173
21.40000 566.663
21.44000 544.583
21.48000 546.293
21.52000 547.639
21.56000 544.295
21.60000 550.939
21.64000 528.196
21.68000 556.644
21.72000 581.912
21.76000 594.327
21.80000 592.297
21.84000 602.174
21.88000 623.237
21.92000 680.629
21.96000 737.423
22.00000 762.063
22.04000 783.924
22.08000 779.920
22.12000 758.385
22.16000 747.876
22.20000 688.885
22.24000 651.825
22.28000 596.753
22.32000 556.183
22.36000 559.294
22.40000 540.886
22.44000 517.208
22.48000 540.562
22.52000 526.272
22.56000 532.994
22.60000 524.435
22.64000 514.071
22.68000 517.681
22.72000 528.835
22.76000 520.877
22.80000 505.785
22.84000 513.955
22.88000 516.475
22.92000 489.364
22.96000 511.900
23.00000 508.841
23.04000 506.203
23.08000 508.586
23.12000 521.648
23.16000 500.381
23.20000 528.670
23.24000 526.339
23.28000 497.504
23.32000 491.026
23.36000 503.076
23.40000 501.846
23.44000 488.429
23.48000 509.696
23.52000 488.482
23.56000 518.846
23.60000 498.823
23.64000 487.526
23.68000 509.305
23.72000 499.267
23.76000 496.831
23.80000 486.742
23.84000 493.985
23.88000 490.623
23.92000 482.948
23.96000 488.395
24.00000 484.513
24.04000 462.630
24.08000 493.392
24.12000 489.231
24.16000 481.554
24.20000 483.894
24.24000 473.014
24.28000 482.640
24.32000 503.711
24.36000 472.516
24.40000 472.024
24.44000 487.143
24.48000 466.765
24.52000 477.639
24.56000 470.893
24.60000 501.110
24.64000 488.848
24.68000 491.606
24.72000 470.820
24.76000 476.209
24.80000 475.538
24.84000 483.663
24.88000 481.431
24.92000 481.248
24.96000 474.913
25.00000 468.744
25.04000 481.969
25.08000 489.924
25.12000 478.511
25.16000 499.878
25.20000 470.454
25.24000 468.057
25.28000 483.169
25.32000 459.646
25.36000 463.227
25.40000 460.100
25.44000 470.099
25.48000 467.677
25.52000 460.288
25.56000 447.895
25.60000 462.092
25.64000 464.722
25.68000 452.806
25.72000 450.288
25.76000 461.270
25.80000 442.949
25.84000 463.132
25.88000 455.829
25.92000 457.674
25.96000 445.006
26.00000 455.056
26.04000 452.409
26.08000 454.156
26.12000 451.912
26.16000 436.514
26.20000 447.287
26.24000 451.951
26.28000 461.061
26.32000 456.802
26.36000 456.985
26.40000 435.005
26.44000 443.463
26.48000 451.856
26.52000 444.451
26.56000 448.019
26.60000 457.739
26.64000 452.464
26.68000 458.807
26.72000 439.595
26.76000 435.029
26.80000 436.226
26.84000 458.032
26.88000 443.065
26.92000 427.365
26.96000 427.561
27.00000 420.120
27.04000 446.361
27.08000 431.999
27.12000 438.199
27.16000 436.130
27.20000 438.005
27.24000 434.923
27.28000 437.864
27.32000 431.314
27.36000 416.386
27.40000 428.809
27.44000 448.423
27.48000 434.545
27.52000 447.940
27.56000 432.509
27.60000 437.226
27.64000 428.803
27.68000 439.581
27.72000 441.261
27.76000 441.139
27.80000 431.814
27.84000 422.037
27.88000 423.220
27.92000 430.739
27.96000 433.034
28.00000 420.018
28.04000 423.187
28.08000 416.381
28.12000 426.055
28.16000 437.086
28.20000 433.479
28.24000 428.636
28.28000 431.715
28.32000 445.627
28.36000 422.652
28.40000 420.572
28.44000 409.566
28.48000 419.353
28.52000 421.884
28.56000 424.118
28.60000 426.956
28.64000 414.973
28.68000 394.451
28.72000 420.738
28.76000 414.890
28.80000 407.863
28.84000 410.254
28.88000 406.123
28.92000 409.280
28.96000 411.159
29.00000 419.720
29.04000 426.643
29.08000 414.744
29.12000 410.087
29.16000 412.621
29.20000 423.331
29.24000 414.011
29.28000 403.259
29.32000 423.115
29.36000 405.044
29.40000 395.429
29.44000 407.772
29.48000 424.941
29.52000 423.711
29.56000 412.547
29.60000 422.581
29.64000 414.370
29.68000 409.309
29.72000 423.765
29.76000 417.080
29.80000 424.134
29.84000 437.492
29.88000 424.559
29.92000 424.848
29.96000 451.119
30.00000 447.803
30.04000 431.357
30.08000 455.119
30.12000 447.660
30.16000 452.292
30.20000 433.943
30.24000 450.329
30.28000 417.773
30.32000 412.710
30.36000 438.190
30.40000 438.835
30.44000 421.281
30.48000 416.036
30.52000 437.967
30.56000 424.168
30.60000 436.369
30.64000 439.296
30.68000 430.011
30.72000 441.544
30.76000 458.254
30.80000 431.664
30.84000 474.007
30.88000 484.426
30.92000 511.960
30.96000 573.182
31.00000 585.062
31.04000 660.379
31.08000 798.598
31.12000 988.784
31.16000 1294.216
31.20000 1718.161
31.24000 2262.316
31.28000 2856.904
31.32000 3380.981
31.36000 3812.398
31.40000 3900.113
31.44000 3660.364
31.48000 3209.283
31.52000 2566.751
31.56000 1943.736
31.60000 1413.007
31.64000 1009.878
31.68000 776.675
31.72000 626.171
31.76000 545.418
31.80000 506.119
31.84000 483.831
31.88000 456.892
31.92000 437.118
31.96000 414.548
32.00000 442.947
32.04000 409.121
32.08000 409.620
32.12000 392.719
32.16000 408.283
32.20000 392.742
32.24000 398.028
32.28000 381.786
32.32000 373.483
32.36000 381.806
32.40000 391.287
32.44000 367.451
32.48000 374.913
32.52000 379.985
32.56000 376.945
32.60000 364.275
32.64000 379.777
32.68000 352.226
32.72000 372.399
32.76000 367.317
32.80000 376.937
32.84000 357.860
32.88000 365.208
32.92000 367.301
32.96000 350.002
33.00000 348.779
33.04000 348.758
33.08000 348.357
33.12000 353.476
33.16000 355.514
33.20000 348.550
33.24000 340.050
33.28000 351.796
33.32000 334.038
33.36000 338.544
33.40000 337.109
33.44000 338.886
33.48000 332.563
33.52000 336.688
33.56000 334.093
33.60000 332.305
33.64000 347.104
33.68000 339.292
33.72000 327.069
33.76000 347.363
33.80000 334.306
33.84000 343.466
33.88000 326.730
33.92000 327.862
33.96000 326.632
34.00000 338.287
34.04000 328.751
34.08000 335.485
34.12000 320.312
34.16000 315.192
34.20000 326.022
34.24000 326.734
34.28000 333.611
34.32000 316.655
34.36000 319.805
34.40000 327.550
34.44000 321.123
34.48000 306.023
34.52000 326.948
34.56000 341.517
34.60000 321.334
34.64000 322.467
34.68000 320.378
34.72000 311.780
34.76000 317.510
34.80000 317.478
34.84000 310.627
34.88000 309.178
34.92000 316.953
34.96000 320.218
35.00000 314.474
35.04000 324.577
35.08000 315.308
35.12000 302.212
35.16000 310.681
35.20000 317.849
35.24000 312.615
35.28000 332.084
35.32000 307.590
35.36000 309.390
35.40000 306.099
35.44000 309.420
35.48000 310.094
35.52000 318.371
35.56000 301.785
35.60000 307.787
35.64000 310.325
35.68000 311.125
35.72000 307.781
35.76000 296.008
35.80000 286.295
35.84000 304.254
35.88000 298.338
35.92000 290.830
35.96000 307.673
36.00000 287.528
36.04000 319.949
36.08000 310.402
36.12000 304.996
36.16000 308.168
36.20000 292.756
36.24000 300.056
36.28000 297.638
36.32000 294.627
36.36000 296.572
36.40000 301.167
36.44000 293.093
36.48000 297.013
36.52000 294.478
36.56000 303.413
36.60000 296.377
36.64000 289.470
36.68000 297.261
36.72000 306.269
36.76000 280.220
36.80000 288.369
36.84000 297.895
36.88000 292.933
36.92000 293.520
36.96000 308.153
37.00000 294.950
37.04000 282.352
37.08000 300.606
37.12000 307.189
37.16000 300.951
37.20000 298.226
37.24000 289.405
37.28000 282.191
37.32000 304.317
37.36000 300.694
37.40000 295.935
37.44000 287.038
37.48000 293.940
37.52000 292.675
37.56000 303.467
37.60000 289.279
37.64000 290.528
37.68000 285.005
37.72000 288.475
37.76000 278.892
37.80000 288.234
37.84000 305.246
37.88000 290.542
37.92000 289.527
37.96000 286.973
38.00000 288.769
38.04000 290.115
38.08000 289.294
38.12000 303.235
38.16000 299.910
38.20000 293.516
38.24000 307.116
38.28000 318.198
38.32000 322.297
38.36000 326.485
38.40000 349.557
38.44000 373.498
38.48000 420.100
38.52000 500.338
38.56000 564.589
38.60000 656.376
38.64000 741.541
38.68000 827.215
38.72000 880.252
38.76000 854.516
38.80000 789.307
38.84000 712.798
38.88000 626.597
38.92000 512.083
38.96000 440.763
39.00000 388.874
39.04000 319.029
39.08000 310.331
39.12000 300.060
39.16000 295.772
39.20000 286.677
39.24000 284.332
39.28000 287.135
39.32000 270.542
39.36000 269.650
39.40000 278.214
39.44000 258.426
39.48000 272.971
39.52000 270.232
39.56000 262.129
39.60000 267.922
39.64000 263.135
39.68000 261.561
39.72000 267.058
39.76000 277.325
39.80000 268.053
39.84000 267.187
39.88000 249.384
39.92000 268.098
39.96000 253.107
40.00000 260.492
40.04000 263.975
40.08000 250.894
40.12000 273.789
40.16000 257.904
40.20000 251.900
40.24000 263.989
40.28000 258.018
40.32000 261.975
40.36000 261.301
40.40000 250.504
40.44000 251.036
40.48000 251.929
40.52000 241.458
40.56000 249.553
40.60000 254.395
40.64000 252.090
40.68000 264.675
40.72000 242.734
40.76000 232.115
40.80000 247.265
40.84000 237.470
40.88000 257.143
40.92000 249.978
40.96000 250.517
41.00000 245.201
41.04000 254.737
41.08000 244.653
41.12000 246.463
41.16000 237.782
41.20000 246.364
41.24000 233.193
41.28000 253.296
41.32000 252.455
41.36000 248.853
41.40000 249.558
41.44000 242.379
41.48000 240.506
41.52000 245.874
41.56000 227.890
41.60000 235.841
41.64000 234.555
41.68000 248.560
41.72000 225.667
41.76000 234.848
41.80000 236.733
41.84000 236.629
41.88000 228.082
41.92000 227.949
41.96000 234.899
42.00000 249.707
42.04000 230.309
42.08000 223.009
42.12000 212.391
42.16000 224.694
42.20000 230.699
42.24000 244.988
42.28000 230.101
42.32000 226.608
42.36000 238.808
42.40000 225.831
42.44000 225.660
42.48000 223.177
42.52000 239.703
42.56000 222.069
42.60000 218.770
42.64000 224.506
42.68000 230.122
42.72000 227.712
42.76000 233.162
42.80000 228.981
42.84000 236.662
42.88000 223.050
42.92000 219.658
42.96000 242.895
43.00000 230.427
43.04000 238.515
43.08000 232.483
43.12000 225.232
43.16000 238.726
43.20000 222.418
43.24000 226.296
43.28000 226.817
43.32000 211.427
43.36000 227.528
43.40000 214.710
43.44000 213.159
43.48000 228.289
43.52000 225.766
43.56000 220.763
43.60000 226.605
43.64000 228.915
43.68000 206.041
43.72000 218.587
43.76000 224.678
43.80000 212.257
43.84000 231.439
43.88000 214.426
43.92000 217.076
43.96000 226.333
44.00000 222.565
44.04000 228.937
44.08000 221.998
44.12000 216.781
44.16000 222.385
44.20000 220.510
44.24000 220.179
44.28000 226.613
44.32000 229.399
44.36000 224.556
44.40000 220.094
44.44000 224.611
44.48000 234.942
44.52000 221.114
44.56000 234.785
44.60000 230.134
44.64000 235.887
44.68000 221.679
44.72000 248.447
44.76000 249.193
44.80000 263.949
44.84000 287.188
44.88000 288.260
44.92000 330.585
44.96000 361.692
45.00000 386.555
45.04000 408.462
45.08000 427.227
45.12000 430.508
45.16000 410.962
45.20000 406.739
45.24000 366.192
45.28000 333.644
45.32000 297.871
45.36000 299.833
45.40000 270.271
45.44000 261.734
45.48000 250.236
45.52000 237.936
45.56000 205.019
45.60000 222.197
45.64000 228.859
45.68000 220.320
45.72000 223.928
45.76000 217.952
45.80000 215.844
45.84000 203.749
45.88000 221.939
45.92000 208.183
45.96000 227.598
46.00000 216.069
46.04000 211.725
46.08000 195.042
46.12000 202.626
46.16000 213.603
46.20000 203.416
46.24000 206.363
46.28000 198.985
46.32000 197.580
46.36000 215.094
46.40000 204.262
46.44000 207.210
46.48000 192.391
46.52000 193.638
46.56000 193.992
46.60000 195.597
46.64000 196.078
46.68000 202.298
46.72000 195.332
46.76000 192.079
46.80000 203.917
46.84000 199.608
46.88000 179.726
46.92000 194.798
46.96000 191.468
47.00000 189.693
47.04000 185.804
47.08000 183.700
47.12000 186.089
47.16000 185.788
47.20000 191.200
47.24000 183.545
47.28000 181.809
47.32000 186.964
47.36000 198.656
47.40000 182.729
47.44000 190.498
47.48000 187.673
47.52000 194.139
47.56000 191.416
47.60000 180.302
47.64000 179.830
47.68000 185.924
47.72000 181.000
47.76000 190.345
47.80000 181.064
47.84000 185.449
47.88000 180.931
47.92000 184.623
47.96000 180.902
48.00000 174.673
48.04000 198.430
48.08000 187.842
48.12000 176.246
48.16000 184.883
48.20000 181.640
48.24000 177.605
48.28000 188.803
48.32000 176.069
48.36000 176.861
48.40000 183.488
48.44000 184.314
48.48000 174.756
48.52000 185.324
48.56000 186.515
48.60000 181.655
48.64000 205.786
48.68000 181.988
48.72000 178.995
48.76000 178.861
48.80000 176.060
48.84000 174.183
48.88000 179.199
48.92000 177.863
48.96000 175.170
49.00000 169.583
49.04000 176.424
49.08000 178.437
49.12000 186.996
49.16000 185.784
49.20000 181.311
49.24000 169.182
49.28000 171.290
49.32000 171.047
49.36000 167.979
49.40000 174.482
49.44000 171.889
49.48000 178.634
49.52000 177.494
49.56000 179.765
49.60000 173.662
49.64000 170.847
49.68000 182.279
49.72000 178.143
49.76000 179.531
49.80000 177.683
49.84000 168.130
49.88000 178.941
49.92000 170.206
49.96000 171.229
50.00000 176.367
50.04000 186.135
50.08000 169.668
50.12000 172.818
50.16000 172.127
50.20000 178.619
50.24000 175.782
50.28000 184.212
50.32000 181.950
50.36000 189.092
50.40000 200.813
50.44000 189.170
50.48000 206.519
50.52000 211.964
50.56000 230.773
50.60000 263.006
50.64000 260.694
50.68000 271.241
50.72000 274.751
50.76000 273.654
50.80000 259.993
50.84000 247.781
50.88000 248.867
50.92000 210.659
50.96000 210.322
51.00000 212.110
51.04000 198.145
51.08000 195.451
51.12000 188.090
51.16000 174.884
51.20000 170.360
51.24000 167.214
51.28000 171.545
51.32000 175.210
51.36000 166.554
51.40000 167.399
51.44000 173.650
51.48000 167.313
51.52000 156.382
51.56000 161.806
51.60000 170.697
51.64000 164.518
51.68000 166.401
51.72000 157.250
51.76000 166.556
51.80000 147.958
51.84000 171.585
51.88000 162.258
51.92000 158.158
51.96000 171.669
52.00000 161.209
52.04000 164.947
52.08000 161.054
52.12000 164.719
52.16000 164.827
52.20000 159.021
52.24000 158.931
52.28000 166.418
52.32000 160.181
52.36000 169.840
52.40000 153.339
52.44000 149.886
52.48000 161.389
52.52000 161.135
52.56000 161.962
52.60000 162.492
52.64000 162.874
52.68000 171.034
52.72000 152.789
52.76000 155.928
52.80000 159.616
52.84000 150.481
52.88000 158.128
52.92000 161.399
52.96000 157.075
53.00000 161.084
53.04000 163.385
53.08000 156.197
53.12000 165.788
53.16000 154.785
53.20000 167.840
53.24000 156.175
53.28000 161.062
53.32000 160.139
53.36000 166.222
53.40000 152.594
53.44000 158.422
53.48000 162.269
53.52000 162.835
53.56000 153.562
53.60000 147.155
53.64000 153.754
53.68000 156.496
53.72000 164.887
53.76000 150.638
53.80000 153.951
53.84000 159.421
53.88000 160.672
53.92000 149.807
53.96000 153.317
54.00000 161.199
54.04000 156.101
54.08000 154.372
54.12000 157.128
54.16000 149.509
54.20000 159.914
54.24000 154.994
54.28000 158.668
54.32000 140.981
54.36000 163.981
54.40000 162.473
54.44000 151.981
54.48000 150.656
54.52000 147.124
54.56000 155.877
54.60000 169.473
54.64000 172.730
54.68000 157.740
54.72000 158.232
54.76000 160.917
54.80000 151.002
54.84000 150.140
54.88000 157.714
54.92000 158.255
54.96000 170.368
55.00000 152.186
55.04000 154.632
55.08000 157.299
55.12000 153.261
55.16000 161.304
55.20000 169.913
55.24000 157.075
55.28000 165.897
55.32000 160.025
55.36000 165.476
55.40000 164.991
55.44000 176.184
55.48000 189.142
55.52000 192.398
55.56000 201.150
55.60000 227.577
55.64000 252.750
55.68000 315.309
55.72000 336.081
55.76000 393.547
55.80000 477.838
55.84000 552.485
55.88000 609.063
55.92000 657.686
55.96000 671.158
56.00000 663.313
56.04000 617.581
56.08000 549.719
56.12000 498.070
56.16000 418.433
56.20000 373.900
56.24000 317.722
56.28000 258.681
56.32000 231.389
56.36000 213.682
56.40000 201.458
56.44000 181.662
56.48000 165.319
56.52000 162.423
56.56000 161.729
56.60000 164.609
56.64000 164.053
56.68000 156.757
56.72000 157.432
56.76000 147.872
56.80000 147.469
56.84000 144.937
56.88000 140.668
56.92000 143.526
56.96000 131.759
57.00000 146.686
57.04000 149.240
57.08000 146.949
57.12000 158.581
57.16000 144.232
57.20000 144.964
57.24000 140.902
57.28000 149.638
57.32000 137.012
57.36000 143.363
57.40000 150.255
57.44000 157.436
57.48000 142.696
57.52000 149.512
57.56000 134.812
57.60000 149.857
57.64000 149.643
57.68000 146.085
57.72000 145.048
57.76000 145.827
57.80000 138.372
57.84000 148.285
57.88000 134.305
57.92000 135.111
57.96000 143.979
58.00000 142.403
58.04000 144.281
58.08000 140.131
58.12000 139.323
58.16000 138.518
58.20000 140.744
58.24000 143.940
58.28000 128.029
58.32000 133.579
58.36000 139.052
58.40000 137.413
58.44000 135.249
58.48000 133.755
58.52000 131.389
58.56000 135.570
58.60000 124.454
58.64000 130.333
58.68000 128.260
58.72000 136.063
58.76000 139.713
58.80000 138.737
58.84000 138.812
58.88000 130.924
58.92000 135.747
58.96000 134.628
59.00000 132.939
59.04000 116.997
59.08000 130.309
59.12000 140.388
59.16000 128.439
59.20000 136.681
59.24000 130.804
59.28000 136.789
59.32000 127.969
59.36000 145.721
59.40000 121.410
59.44000 126.479
59.48000 137.085
59.52000 137.507
59.56000 137.348
59.60000 126.321
59.64000 124.760
59.68000 131.291
59.72000 138.529
59.76000 132.661
59.80000 129.240
59.84000 133.494
59.88000 130.622
59.92000 136.752
59.96000 125.250
60.00000 136.886
60.04000 129.834
60.08000 129.635
60.12000 135.361
60.16000 134.407
60.20000 131.359
60.24000 139.510
60.28000 130.106
60.32000 130.380
60.36000 132.569
60.40000 138.048
60.44000 133.259
60.48000 124.490
60.52000 132.888
60.56000 126.700
60.60000 134.477
60.64000 130.872
60.68000 135.094
60.72000 132.394
60.76000 129.315
60.80000 132.308
60.84000 121.975
60.88000 133.128
60.92000 123.222
60.96000 140.840
61.00000 142.870
61.04000 137.470
61.08000 128.776
61.12000 128.049
61.16000 127.640
61.20000 129.776
61.24000 139.002
61.28000 150.640
61.32000 144.216
61.36000 127.240
61.40000 141.261
61.44000 135.327
61.48000 155.143
61.52000 170.652
61.56000 213.827
61.60000 266.593
61.64000 299.786
61.68000 321.491
61.72000 320.753
61.76000 277.568
61.80000 235.833
61.84000 186.079
61.88000 151.315
61.92000 148.524
61.96000 136.368
62.00000 143.874
62.04000 142.941
62.08000 149.335
62.12000 139.926
62.16000 132.054
62.20000 139.492
62.24000 145.804
62.28000 141.418
62.32000 137.468
62.36000 136.935
62.40000 140.808
62.44000 140.598
62.48000 130.872
62.52000 140.091
62.56000 152.968
62.60000 138.791
62.64000 142.419
62.68000 155.459
62.72000 139.792
62.76000 142.725
62.80000 147.814
62.84000 153.143
62.88000 145.106
62.92000 157.193
62.96000 145.591
63.00000 150.061
63.04000 136.752
63.08000 152.909
63.12000 148.272
63.16000 147.618
63.20000 151.035
63.24000 145.826
63.28000 146.443
63.32000 149.242
63.36000 152.008
63.40000 148.221
63.44000 139.612
63.48000 152.464
63.52000 153.695
63.56000 151.829
63.60000 156.795
63.64000 150.800
63.68000 150.557
63.72000 150.491
63.76000 153.036
63.80000 148.699
63.84000 135.075
63.88000 144.379
63.92000 150.780
63.96000 157.173
64.00000 153.542
64.04000 162.055
64.08000 150.599
64.12000 158.535
64.16000 165.631
64.20000 168.368
64.24000 160.963
64.28000 155.768
64.32000 161.895
64.36000 169.951
64.40000 167.313
64.44000 159.880
64.48000 161.141
64.52000 172.827
64.56000 157.576
64.60000 171.717
64.64000 175.409
64.68000 161.443
64.72000 166.939
64.76000 188.673
64.80000 176.104
64.84000 185.312
64.88000 181.713
64.92000 190.669
64.96000 188.333
65.00000 186.790
65.04000 191.424
65.08000 210.193
65.12000 214.403
65.16000 214.353
65.20000 234.048
65.24000 249.683
65.28000 249.595
65.32000 288.938
65.36000 316.754
65.40000 330.029
65.44000 359.391
65.48000 414.161
65.52000 436.464
65.56000 454.585
65.60000 487.271
65.64000 529.669
65.68000 606.224
65.72000 775.709
65.76000 1021.346
65.80000 1193.736
65.84000 1297.282
65.88000 1322.203
65.92000 1203.890
65.96000 982.915
66.00000 696.271
66.04000 479.008
66.08000 369.964
66.12000 322.320
66.16000 316.346
66.20000 324.430
66.24000 331.187
66.28000 373.267
66.32000 415.161
66.36000 474.261
66.40000 480.277
66.44000 464.749
66.48000 450.912
66.52000 419.938
66.56000 371.692
66.60000 335.928
66.64000 326.260
66.68000 312.311
66.72000 321.142
66.76000 328.125
66.80000 334.404
66.84000 346.145
66.88000 336.307
66.92000 337.620
66.96000 356.089
67.00000 345.489
67.04000 390.259
67.08000 366.839
67.12000 380.806
67.16000 380.803
67.20000 385.667
67.24000 415.264
67.28000 413.467
67.32000 406.165
67.36000 435.854
67.40000 431.579
67.44000 451.212
67.48000 435.055
67.52000 432.060
67.56000 437.618
67.60000 479.497
67.64000 488.645
67.68000 475.657
67.72000 479.106
67.76000 506.993
67.80000 525.958
67.84000 534.814
67.88000 528.870
67.92000 546.746
67.96000 565.830
68.00000 573.664
68.04000 592.521
68.08000 584.465
68.12000 611.116
68.16000 625.119
68.20000 659.897
68.24000 660.299
68.28000 683.207
68.32000 712.079
68.36000 759.634
68.40000 731.635
68.44000 794.085
68.48000 831.241
68.52000 902.617
68.56000 983.802
68.60000 1091.988
68.64000 1355.577
68.68000 1580.512
68.72000 1833.126
68.76000 2095.336
68.80000 2420.557
68.84000 2966.526
68.88000 4094.864
68.92000 7799.610
68.96000 19837.914
69.00000 42319.457
69.04000 63837.332
69.08000 74181.367
69.12000 75735.242
69.16000 78004.000
69.20000 76520.602
69.24000 63217.172
69.28000 49041.012
69.32000 40042.602
69.36000 35769.336
69.40000 28384.990
69.44000 16577.547
69.48000 7713.154
69.52000 3369.117
69.56000 2127.540
69.60000 1668.080
69.64000 1429.608
69.68000 1257.396
69.72000 1112.691
69.76000 1024.636
69.80000 939.799
69.84000 902.891
69.88000 830.262
69.92000 803.373
69.96000 781.304
70.00000 746.479