File: XRD/17-09-2025/XY Data/BTO_Mapping_Theta2Theta_09-17-2025_001_21_30-000_0-000.xy
20.00000 546.103
20.04000 570.843
20.08000 578.014
20.12000 542.489
20.16000 550.508
20.20000 547.441
20.24000 554.631
20.28000 561.215
20.32000 566.915
20.36000 547.288
20.40000 538.348
20.44000 536.478
20.48000 555.207
20.52000 542.930
20.56000 543.816
20.60000 561.728
20.64000 553.871
20.68000 552.628
20.72000 535.077
20.76000 544.559
20.80000 554.278
20.84000 536.907
20.88000 530.453
20.92000 521.504
20.96000 562.890
21.00000 556.461
21.04000 556.938
21.08000 556.152
21.12000 541.452
21.16000 545.701
21.20000 542.438
21.24000 547.775
21.28000 544.342
21.32000 537.208
21.36000 579.476
21.40000 539.179
21.44000 552.631
21.48000 536.782
21.52000 531.028
21.56000 530.441
21.60000 544.645
21.64000 525.667
21.68000 532.287
21.72000 550.588
21.76000 559.554
21.80000 554.524
21.84000 575.146
21.88000 588.421
21.92000 593.443
21.96000 611.649
22.00000 631.115
22.04000 644.340
22.08000 651.763
22.12000 643.339
22.16000 607.939
22.20000 608.793
22.24000 582.608
22.28000 589.753
22.32000 552.469
22.36000 535.476
22.40000 541.826
22.44000 527.243
22.48000 553.649
22.52000 531.486
22.56000 520.900
22.60000 505.623
22.64000 524.591
22.68000 515.930
22.72000 517.598
22.76000 497.649
22.80000 517.449
22.84000 500.427
22.88000 517.005
22.92000 516.173
22.96000 512.487
23.00000 504.780
23.04000 493.422
23.08000 501.999
23.12000 487.281
23.16000 500.993
23.20000 509.089
23.24000 499.010
23.28000 516.584
23.32000 506.812
23.36000 510.003
23.40000 503.373
23.44000 496.442
23.48000 496.545
23.52000 503.885
23.56000 492.073
23.60000 488.060
23.64000 514.570
23.68000 497.990
23.72000 524.758
23.76000 514.017
23.80000 503.507
23.84000 521.723
23.88000 525.612
23.92000 518.530
23.96000 520.435
24.00000 517.545
24.04000 512.880
24.08000 518.493
24.12000 515.262
24.16000 511.888
24.20000 511.989
24.24000 510.618
24.28000 491.331
24.32000 497.861
24.36000 496.720
24.40000 485.996
24.44000 473.327
24.48000 495.512
24.52000 505.057
24.56000 487.916
24.60000 473.912
24.64000 480.393
24.68000 472.472
24.72000 472.177
24.76000 467.476
24.80000 461.690
24.84000 446.608
24.88000 475.595
24.92000 477.052
24.96000 461.987
25.00000 478.128
25.04000 466.356
25.08000 479.826
25.12000 456.417
25.16000 478.682
25.20000 468.228
25.24000 460.176
25.28000 486.767
25.32000 472.308
25.36000 458.194
25.40000 473.837
25.44000 451.837
25.48000 438.282
25.52000 459.314
25.56000 475.296
25.60000 457.599
25.64000 458.179
25.68000 464.519
25.72000 459.763
25.76000 432.694
25.80000 471.742
25.84000 469.247
25.88000 449.860
25.92000 449.380
25.96000 459.407
26.00000 431.642
26.04000 444.615
26.08000 438.543
26.12000 466.116
26.16000 445.199
26.20000 425.349
26.24000 452.471
26.28000 453.038
26.32000 433.296
26.36000 450.034
26.40000 451.884
26.44000 445.717
26.48000 442.396
26.52000 438.275
26.56000 446.037
26.60000 443.576
26.64000 448.974
26.68000 456.502
26.72000 422.369
26.76000 436.355
26.80000 439.355
26.84000 441.937
26.88000 451.867
26.92000 455.322
26.96000 446.194
27.00000 441.464
27.04000 446.419
27.08000 442.503
27.12000 426.814
27.16000 433.080
27.20000 427.261
27.24000 438.980
27.28000 429.325
27.32000 445.685
27.36000 437.373
27.40000 446.829
27.44000 439.054
27.48000 430.429
27.52000 441.180
27.56000 436.773
27.60000 425.758
27.64000 437.320
27.68000 430.263
27.72000 428.569
27.76000 445.704
27.80000 431.150
27.84000 440.861
27.88000 418.840
27.92000 421.281
27.96000 412.833
28.00000 413.506
28.04000 422.225
28.08000 431.372
28.12000 416.888
28.16000 414.775
28.20000 424.606
28.24000 420.728
28.28000 433.216
28.32000 412.747
28.36000 414.941
28.40000 429.469
28.44000 422.085
28.48000 396.606
28.52000 412.994
28.56000 385.192
28.60000 404.073
28.64000 419.174
28.68000 396.239
28.72000 404.465
28.76000 412.770
28.80000 396.736
28.84000 421.526
28.88000 399.558
28.92000 414.919
28.96000 408.692
29.00000 422.231
29.04000 406.756
29.08000 414.609
29.12000 421.687
29.16000 404.622
29.20000 391.325
29.24000 392.549
29.28000 406.923
29.32000 422.214
29.36000 385.459
29.40000 405.903
29.44000 409.589
29.48000 403.218
29.52000 396.523
29.56000 396.685
29.60000 392.437
29.64000 388.527
29.68000 410.338
29.72000 406.806
29.76000 406.765
29.80000 403.262
29.84000 393.244
29.88000 401.700
29.92000 408.613
29.96000 411.403
30.00000 410.059
30.04000 424.845
30.08000 420.844
30.12000 420.608
30.16000 410.929
30.20000 404.829
30.24000 400.471
30.28000 419.282
30.32000 400.009
30.36000 396.484
30.40000 397.237
30.44000 405.182
30.48000 398.370
30.52000 403.381
30.56000 388.576
30.60000 411.029
30.64000 396.470
30.68000 418.065
30.72000 407.590
30.76000 423.728
30.80000 428.105
30.84000 446.384
30.88000 447.949
30.92000 454.045
30.96000 479.850
31.00000 483.402
31.04000 551.715
31.08000 597.076
31.12000 674.586
31.16000 848.643
31.20000 1055.078
31.24000 1302.328
31.28000 1597.306
31.32000 1850.627
31.36000 2054.646
31.40000 2122.274
31.44000 2035.617
31.48000 1806.744
31.52000 1539.095
31.56000 1251.591
31.60000 977.879
31.64000 775.174
31.68000 649.043
31.72000 552.694
31.76000 501.102
31.80000 448.915
31.84000 450.901
31.88000 418.518
31.92000 418.504
31.96000 398.600
32.00000 385.741
32.04000 400.010
32.08000 417.968
32.12000 387.690
32.16000 382.565
32.20000 393.034
32.24000 396.628
32.28000 398.393
32.32000 381.565
32.36000 401.789
32.40000 389.690
32.44000 382.857
32.48000 375.853
32.52000 393.107
32.56000 394.735
32.60000 370.068
32.64000 379.088
32.68000 362.624
32.72000 352.381
32.76000 350.017
32.80000 349.269
32.84000 354.964
32.88000 330.035
32.92000 358.773
32.96000 352.360
33.00000 360.088
33.04000 347.664
33.08000 340.728
33.12000 347.950
33.16000 345.397
33.20000 345.444
33.24000 337.017
33.28000 338.329
33.32000 338.219
33.36000 334.118
33.40000 355.772
33.44000 312.449
33.48000 345.136
33.52000 346.601
33.56000 327.880
33.60000 335.760
33.64000 326.362
33.68000 340.510
33.72000 326.475
33.76000 332.537
33.80000 350.387
33.84000 354.441
33.88000 341.635
33.92000 339.991
33.96000 348.904
34.00000 338.556
34.04000 340.877
34.08000 342.175
34.12000 341.971
34.16000 346.650
34.20000 358.060
34.24000 357.890
34.28000 355.800
34.32000 351.705
34.36000 372.327
34.40000 350.113
34.44000 347.437
34.48000 341.372
34.52000 364.087
34.56000 351.169
34.60000 336.595
34.64000 332.998
34.68000 337.493
34.72000 329.260
34.76000 323.769
34.80000 333.960
34.84000 328.236
34.88000 325.618
34.92000 322.428
34.96000 324.940
35.00000 319.851
35.04000 322.209
35.08000 309.996
35.12000 312.366
35.16000 311.901
35.20000 319.506
35.24000 301.776
35.28000 314.125
35.32000 317.488
35.36000 300.633
35.40000 311.681
35.44000 306.453
35.48000 290.882
35.52000 311.941
35.56000 317.438
35.60000 307.179
35.64000 304.967
35.68000 297.365
35.72000 296.492
35.76000 297.505
35.80000 311.465
35.84000 303.635
35.88000 309.079
35.92000 283.744
35.96000 302.941
36.00000 298.377
36.04000 311.038
36.08000 303.398
36.12000 304.705
36.16000 296.518
36.20000 299.234
36.24000 296.532
36.28000 300.543
36.32000 287.060
36.36000 281.129
36.40000 289.508
36.44000 304.129
36.48000 300.161
36.52000 285.712
36.56000 282.727
36.60000 280.668
36.64000 296.897
36.68000 290.878
36.72000 269.800
36.76000 287.111
36.80000 300.181
36.84000 288.916
36.88000 293.843
36.92000 294.646
36.96000 301.602
37.00000 314.572
37.04000 297.245
37.08000 297.997
37.12000 298.549
37.16000 301.973
37.20000 295.071
37.24000 295.657
37.28000 300.670
37.32000 299.747
37.36000 290.888
37.40000 292.640
37.44000 302.898
37.48000 294.235
37.52000 290.144
37.56000 303.857
37.60000 287.785
37.64000 279.024
37.68000 300.139
37.72000 288.617
37.76000 277.962
37.80000 285.790
37.84000 287.788
37.88000 283.132
37.92000 287.091
37.96000 298.083
38.00000 277.135
38.04000 291.820
38.08000 296.252
38.12000 295.914
38.16000 296.101
38.20000 295.610
38.24000 290.174
38.28000 299.518
38.32000 323.801
38.36000 323.995
38.40000 338.342
38.44000 391.884
38.48000 447.918
38.52000 505.473
38.56000 614.498
38.60000 753.990
38.64000 929.070
38.68000 1050.496
38.72000 1148.406
38.76000 1161.772
38.80000 1120.030
38.84000 994.683
38.88000 854.759
38.92000 714.255
38.96000 567.811
39.00000 476.927
39.04000 383.915
39.08000 341.935
39.12000 311.017
39.16000 296.894
39.20000 286.951
39.24000 283.216
39.28000 282.835
39.32000 272.490
39.36000 281.463
39.40000 277.618
39.44000 284.466
39.48000 267.002
39.52000 257.035
39.56000 276.551
39.60000 262.065
39.64000 270.215
39.68000 263.496
39.72000 269.297
39.76000 258.694
39.80000 264.900
39.84000 264.475
39.88000 271.725
39.92000 256.173
39.96000 252.923
40.00000 257.543
40.04000 252.485
40.08000 258.656
40.12000 258.776
40.16000 250.284
40.20000 255.307
40.24000 267.497
40.28000 248.462
40.32000 245.607
40.36000 237.594
40.40000 251.216
40.44000 247.447
40.48000 265.426
40.52000 248.247
40.56000 266.088
40.60000 262.057
40.64000 237.713
40.68000 254.199
40.72000 249.923
40.76000 253.244
40.80000 259.245
40.84000 248.005
40.88000 253.519
40.92000 241.537
40.96000 242.546
41.00000 238.438
41.04000 250.376
41.08000 251.236
41.12000 241.588
41.16000 239.858
41.20000 238.716
41.24000 234.241
41.28000 220.203
41.32000 237.105
41.36000 235.467
41.40000 244.510
41.44000 235.687
41.48000 224.397
41.52000 235.504
41.56000 228.155
41.60000 235.605
41.64000 244.021
41.68000 243.969
41.72000 236.142
41.76000 251.780
41.80000 239.346
41.84000 255.763
41.88000 241.855
41.92000 253.291
41.96000 239.136
42.00000 236.514
42.04000 240.725
42.08000 237.088
42.12000 235.629
42.16000 229.992
42.20000 244.285
42.24000 243.445
42.28000 236.953
42.32000 231.951
42.36000 230.037
42.40000 230.085
42.44000 226.383
42.48000 230.966
42.52000 236.468
42.56000 238.408
42.60000 231.264
42.64000 225.731
42.68000 221.900
42.72000 215.271
42.76000 236.896
42.80000 238.685
42.84000 243.629
42.88000 231.238
42.92000 237.382
42.96000 222.972
43.00000 225.715
43.04000 207.928
43.08000 221.530
43.12000 228.530
43.16000 224.111
43.20000 222.204
43.24000 225.284
43.28000 224.394
43.32000 223.097
43.36000 214.147
43.40000 229.925
43.44000 228.493
43.48000 222.013
43.52000 218.499
43.56000 218.169
43.60000 214.191
43.64000 222.093
43.68000 230.290
43.72000 225.219
43.76000 223.532
43.80000 222.196
43.84000 209.527
43.88000 215.536
43.92000 225.293
43.96000 224.049
44.00000 217.037
44.04000 217.057
44.08000 212.378
44.12000 221.717
44.16000 221.591
44.20000 216.222
44.24000 211.526
44.28000 211.572
44.32000 217.534
44.36000 217.354
44.40000 232.382
44.44000 221.413
44.48000 219.573
44.52000 228.979
44.56000 225.729
44.60000 228.451
44.64000 230.937
44.68000 229.330
44.72000 238.018
44.76000 241.429
44.80000 239.448
44.84000 250.616
44.88000 262.153
44.92000 269.429
44.96000 267.399
45.00000 276.381
45.04000 305.907
45.08000 318.977
45.12000 306.957
45.16000 300.709
45.20000 284.362
45.24000 290.763
45.28000 283.268
45.32000 263.976
45.36000 251.882
45.40000 241.717
45.44000 249.965
45.48000 229.867
45.52000 236.845
45.56000 225.942
45.60000 224.594
45.64000 229.936
45.68000 215.279
45.72000 214.463
45.76000 225.395
45.80000 214.694
45.84000 211.689
45.88000 206.356
45.92000 205.349
45.96000 201.000
46.00000 198.341
46.04000 205.184
46.08000 199.033
46.12000 195.869
46.16000 189.210
46.20000 189.061
46.24000 206.032
46.28000 206.379
46.32000 199.078
46.36000 191.384
46.40000 206.496
46.44000 204.604
46.48000 195.515
46.52000 199.768
46.56000 210.243
46.60000 192.408
46.64000 191.583
46.68000 202.934
46.72000 204.808
46.76000 203.858
46.80000 202.637
46.84000 209.810
46.88000 194.907
46.92000 195.021
46.96000 188.295
47.00000 201.180
47.04000 197.345
47.08000 191.920
47.12000 188.730
47.16000 179.912
47.20000 192.366
47.24000 184.744
47.28000 188.333
47.32000 186.310
47.36000 197.669
47.40000 183.590
47.44000 179.152
47.48000 189.726
47.52000 187.703
47.56000 180.207
47.60000 202.886
47.64000 187.790
47.68000 181.996
47.72000 178.564
47.76000 192.172
47.80000 185.620
47.84000 181.266
47.88000 181.208
47.92000 180.325
47.96000 184.121
48.00000 180.620
48.04000 177.365
48.08000 174.688
48.12000 182.115
48.16000 180.945
48.20000 178.666
48.24000 176.572
48.28000 183.860
48.32000 187.488
48.36000 185.901
48.40000 182.299
48.44000 198.288
48.48000 175.572
48.52000 174.640
48.56000 179.557
48.60000 172.984
48.64000 176.910
48.68000 175.723
48.72000 181.491
48.76000 180.950
48.80000 174.626
48.84000 178.962
48.88000 177.948
48.92000 177.720
48.96000 164.567
49.00000 167.785
49.04000 172.238
49.08000 188.223
49.12000 184.610
49.16000 180.376
49.20000 179.926
49.24000 177.601
49.28000 177.048
49.32000 179.095
49.36000 177.337
49.40000 176.376
49.44000 184.926
49.48000 175.623
49.52000 182.890
49.56000 170.487
49.60000 162.103
49.64000 167.163
49.68000 168.291
49.72000 180.960
49.76000 177.711
49.80000 169.298
49.84000 164.482
49.88000 169.516
49.92000 179.282
49.96000 178.119
50.00000 174.104
50.04000 174.464
50.08000 173.092
50.12000 172.374
50.16000 182.204
50.20000 181.275
50.24000 171.814
50.28000 160.465
50.32000 184.044
50.36000 179.665
50.40000 187.482
50.44000 193.079
50.48000 190.847
50.52000 204.484
50.56000 208.272
50.60000 225.522
50.64000 219.732
50.68000 216.341
50.72000 216.452
50.76000 209.594
50.80000 218.295
50.84000 212.777
50.88000 198.396
50.92000 192.881
50.96000 197.868
51.00000 191.618
51.04000 165.639
51.08000 176.900
51.12000 179.836
51.16000 173.258
51.20000 173.328
51.24000 168.190
51.28000 165.879
51.32000 168.348
51.36000 168.406
51.40000 165.211
51.44000 163.919
51.48000 160.695
51.52000 158.657
51.56000 168.591
51.60000 158.589
51.64000 165.004
51.68000 165.138
51.72000 164.502
51.76000 161.185
51.80000 161.860
51.84000 164.975
51.88000 159.306
51.92000 169.817
51.96000 155.413
52.00000 154.113
52.04000 168.849
52.08000 163.952
52.12000 158.640
52.16000 152.646
52.20000 168.375
52.24000 162.675
52.28000 163.465
52.32000 161.368
52.36000 142.996
52.40000 162.167
52.44000 164.090
52.48000 158.820
52.52000 165.615
52.56000 164.811
52.60000 156.387
52.64000 168.448
52.68000 158.988
52.72000 155.515
52.76000 158.585
52.80000 160.713
52.84000 157.145
52.88000 157.327
52.92000 157.106
52.96000 161.906
53.00000 151.226
53.04000 158.057
53.08000 161.869
53.12000 158.436
53.16000 155.125
53.20000 158.454
53.24000 157.697
53.28000 168.925
53.32000 155.427
53.36000 162.864
53.40000 160.290
53.44000 163.615
53.48000 153.183
53.52000 164.860
53.56000 163.277
53.60000 159.190
53.64000 154.416
53.68000 156.339
53.72000 158.196
53.76000 154.730
53.80000 154.151
53.84000 154.366
53.88000 149.094
53.92000 150.572
53.96000 148.810
54.00000 143.555
54.04000 158.892
54.08000 162.784
54.12000 150.047
54.16000 157.044
54.20000 151.947
54.24000 158.338
54.28000 161.855
54.32000 153.142
54.36000 146.874
54.40000 161.033
54.44000 148.210
54.48000 149.784
54.52000 156.554
54.56000 156.011
54.60000 151.468
54.64000 154.322
54.68000 158.440
54.72000 155.032
54.76000 152.534
54.80000 151.615
54.84000 160.255
54.88000 161.748
54.92000 155.508
54.96000 144.341
55.00000 166.572
55.04000 156.056
55.08000 153.145
55.12000 150.009
55.16000 155.829
55.20000 167.223
55.24000 163.574
55.28000 166.245
55.32000 166.450
55.36000 173.892
55.40000 176.791
55.44000 167.035
55.48000 179.453
55.52000 182.259
55.56000 200.670
55.60000 213.035
55.64000 240.672
55.68000 271.500
55.72000 320.800
55.76000 362.411
55.80000 422.367
55.84000 465.235
55.88000 535.848
55.92000 567.397
55.96000 595.536
56.00000 572.989
56.04000 555.842
56.08000 527.651
56.12000 474.505
56.16000 412.434
56.20000 358.359
56.24000 309.288
56.28000 274.925
56.32000 235.486
56.36000 216.775
56.40000 199.304
56.44000 192.808
56.48000 176.003
56.52000 170.054
56.56000 163.168
56.60000 171.246
56.64000 156.103
56.68000 157.725
56.72000 151.016
56.76000 156.669
56.80000 141.784
56.84000 143.116
56.88000 137.815
56.92000 153.458
56.96000 142.143
57.00000 143.385
57.04000 139.412
57.08000 138.624
57.12000 141.478
57.16000 133.639
57.20000 145.235
57.24000 147.939
57.28000 141.724
57.32000 139.231
57.36000 146.180
57.40000 142.606
57.44000 136.991
57.48000 135.176
57.52000 138.988
57.56000 136.539
57.60000 144.220
57.64000 139.342
57.68000 139.175
57.72000 140.034
57.76000 136.807
57.80000 143.251
57.84000 147.402
57.88000 142.226
57.92000 133.885
57.96000 137.669
58.00000 147.629
58.04000 134.558
58.08000 129.587
58.12000 146.308
58.16000 130.218
58.20000 147.770
58.24000 138.592
58.28000 142.105
58.32000 136.135
58.36000 138.254
58.40000 138.952
58.44000 128.569
58.48000 125.260
58.52000 128.069
58.56000 139.598
58.60000 137.915
58.64000 144.317
58.68000 140.385
58.72000 134.370
58.76000 131.082
58.80000 139.891
58.84000 133.259
58.88000 137.753
58.92000 126.940
58.96000 135.730
59.00000 144.490
59.04000 138.003
59.08000 142.015
59.12000 132.686
59.16000 124.094
59.20000 123.413
59.24000 125.373
59.28000 131.189
59.32000 136.976
59.36000 130.886
59.40000 128.540
59.44000 130.462
59.48000 131.243
59.52000 131.333
59.56000 116.249
59.60000 146.592
59.64000 139.893
59.68000 137.752
59.72000 135.706
59.76000 132.836
59.80000 136.518
59.84000 121.931
59.88000 129.872
59.92000 140.206
59.96000 134.561
60.00000 108.711
60.04000 124.775
60.08000 138.051
60.12000 140.290
60.16000 137.272
60.20000 131.582
60.24000 133.070
60.28000 127.494
60.32000 111.846
60.36000 131.364
60.40000 124.212
60.44000 127.896
60.48000 133.491
60.52000 137.533
60.56000 130.267
60.60000 122.935
60.64000 128.948
60.68000 131.447
60.72000 134.481
60.76000 128.974
60.80000 141.080
60.84000 138.284
60.88000 129.364
60.92000 128.393
60.96000 131.589
61.00000 139.846
61.04000 132.288
61.08000 132.505
61.12000 128.146
61.16000 129.051
61.20000 138.003
61.24000 139.319
61.28000 138.151
61.32000 126.982
61.36000 139.578
61.40000 138.729
61.44000 139.008
61.48000 139.794
61.52000 152.805
61.56000 179.216
61.60000 208.041
61.64000 239.924
61.68000 253.407
61.72000 255.346
61.76000 243.463
61.80000 204.487
61.84000 172.366
61.88000 159.569
61.92000 147.021
61.96000 130.434
62.00000 137.524
62.04000 141.742
62.08000 132.445
62.12000 143.689
62.16000 134.262
62.20000 138.393
62.24000 150.727
62.28000 133.573
62.32000 134.801
62.36000 137.437
62.40000 138.189
62.44000 140.721
62.48000 147.834
62.52000 134.855
62.56000 133.726
62.60000 147.884
62.64000 143.364
62.68000 140.927
62.72000 143.861
62.76000 137.121
62.80000 145.912
62.84000 146.107
62.88000 140.810
62.92000 141.754
62.96000 147.918
63.00000 140.181
63.04000 145.732
63.08000 147.895
63.12000 143.473
63.16000 142.795
63.20000 134.573
63.24000 135.637
63.28000 140.438
63.32000 137.484
63.36000 152.995
63.40000 156.321
63.44000 150.711
63.48000 149.295
63.52000 143.363
63.56000 147.528
63.60000 137.588
63.64000 143.072
63.68000 143.581
63.72000 152.177
63.76000 151.110
63.80000 150.764
63.84000 159.134
63.88000 150.647
63.92000 159.629
63.96000 149.597
64.00000 150.778
64.04000 150.018
64.08000 153.063
64.12000 163.674
64.16000 159.677
64.20000 160.667
64.24000 147.943
64.28000 160.792
64.32000 151.882
64.36000 157.906
64.40000 153.491
64.44000 164.401
64.48000 166.458
64.52000 161.166
64.56000 162.056
64.60000 164.254
64.64000 167.548
64.68000 157.022
64.72000 170.949
64.76000 195.724
64.80000 179.296
64.84000 182.865
64.88000 181.044
64.92000 178.516
64.96000 182.241
65.00000 181.579
65.04000 173.869
65.08000 196.536
65.12000 191.112
65.16000 202.003
65.20000 196.079
65.24000 209.108
65.28000 230.563
65.32000 229.272
65.36000 259.340
65.40000 255.159
65.44000 285.941
65.48000 295.655
65.52000 297.344
65.56000 318.533
65.60000 333.816
65.64000 346.315
65.68000 407.018
65.72000 506.569
65.76000 650.781
65.80000 813.039
65.84000 892.101
65.88000 876.646
65.92000 851.709
65.96000 757.046
66.00000 568.127
66.04000 402.075
66.08000 324.385
66.12000 292.162
66.16000 282.963
66.20000 272.072
66.24000 295.639
66.28000 296.296
66.32000 333.279
66.36000 374.590
66.40000 387.996
66.44000 373.492
66.48000 384.973
66.52000 369.329
66.56000 336.945
66.60000 305.964
66.64000 309.096
66.68000 283.891
66.72000 278.766
66.76000 293.486
66.80000 314.804
66.84000 301.524
66.88000 315.440
66.92000 311.198
66.96000 330.588
67.00000 317.642
67.04000 327.367
67.08000 325.295
67.12000 332.083
67.16000 339.388
67.20000 341.620
67.24000 346.897
67.28000 368.412
67.32000 365.560
67.36000 358.236
67.40000 374.700
67.44000 371.306
67.48000 374.560
67.52000 413.292
67.56000 401.580
67.60000 416.004
67.64000 419.926
67.68000 414.547
67.72000 415.706
67.76000 436.232
67.80000 449.326
67.84000 448.376
67.88000 474.178
67.92000 481.424
67.96000 478.575
68.00000 480.479
68.04000 487.975
68.08000 525.998
68.12000 533.024
68.16000 553.121
68.20000 556.001
68.24000 545.254
68.28000 580.234
68.32000 599.077
68.36000 634.323
68.40000 652.564
68.44000 679.142
68.48000 674.102
68.52000 709.038
68.56000 772.790
68.60000 894.092
68.64000 1006.743
68.68000 1188.294
68.72000 1327.472
68.76000 1484.848
68.80000 1667.930
68.84000 1909.404
68.88000 2307.955
68.92000 3859.958
68.96000 9826.429
69.00000 23655.041
69.04000 39036.793
69.08000 46985.199
69.12000 48682.379
69.16000 50029.957
69.20000 50865.605
69.24000 43096.914
69.28000 32698.430
69.32000 26507.352
69.36000 23842.420
69.40000 20106.014
69.44000 12559.939
69.48000 5715.228
69.52000 2587.735
69.56000 1633.626
69.60000 1280.881
69.64000 1118.961
69.68000 1005.464
69.72000 947.429
69.76000 834.064
69.80000 780.479
69.84000 750.890
69.88000 702.417
69.92000 694.918
69.96000 649.066
70.00000 627.451