File: XRD/17-09-2025/XY Data/BTO_Mapping_Theta2Theta_09-17-2025_001_24_-30-000_15-000.xy
20.00000 532.743
20.04000 555.154
20.08000 569.798
20.12000 560.878
20.16000 557.282
20.20000 536.176
20.24000 577.214
20.28000 573.465
20.32000 575.265
20.36000 556.779
20.40000 584.914
20.44000 540.535
20.48000 556.802
20.52000 551.175
20.56000 566.722
20.60000 552.555
20.64000 560.391
20.68000 554.322
20.72000 553.410
20.76000 563.337
20.80000 575.297
20.84000 543.754
20.88000 553.418
20.92000 539.112
20.96000 551.227
21.00000 533.373
21.04000 543.251
21.08000 566.054
21.12000 575.373
21.16000 545.504
21.20000 554.086
21.24000 555.341
21.28000 550.960
21.32000 570.637
21.36000 556.049
21.40000 547.868
21.44000 555.493
21.48000 545.703
21.52000 556.736
21.56000 582.877
21.60000 568.568
21.64000 577.928
21.68000 612.094
21.72000 649.248
21.76000 652.144
21.80000 726.530
21.84000 780.238
21.88000 838.230
21.92000 932.456
21.96000 972.095
22.00000 990.793
22.04000 982.609
22.08000 910.377
22.12000 821.593
22.16000 759.809
22.20000 687.689
22.24000 622.846
22.28000 609.190
22.32000 574.916
22.36000 578.567
22.40000 560.803
22.44000 556.906
22.48000 529.057
22.52000 537.405
22.56000 545.183
22.60000 529.263
22.64000 533.665
22.68000 523.996
22.72000 523.879
22.76000 526.857
22.80000 512.628
22.84000 523.249
22.88000 526.433
22.92000 507.263
22.96000 530.751
23.00000 510.531
23.04000 523.072
23.08000 527.341
23.12000 517.618
23.16000 533.344
23.20000 520.923
23.24000 500.357
23.28000 504.740
23.32000 506.952
23.36000 513.322
23.40000 513.835
23.44000 508.253
23.48000 509.507
23.52000 512.200
23.56000 506.427
23.60000 518.350
23.64000 513.450
23.68000 510.155
23.72000 486.193
23.76000 504.332
23.80000 503.958
23.84000 499.193
23.88000 484.853
23.92000 490.734
23.96000 508.777
24.00000 513.410
24.04000 504.417
24.08000 496.617
24.12000 519.703
24.16000 485.531
24.20000 490.744
24.24000 496.531
24.28000 492.822
24.32000 516.287
24.36000 484.098
24.40000 505.827
24.44000 495.210
24.48000 486.043
24.52000 482.753
24.56000 506.320
24.60000 471.906
24.64000 468.113
24.68000 499.658
24.72000 489.203
24.76000 484.013
24.80000 492.008
24.84000 487.384
24.88000 460.723
24.92000 491.940
24.96000 508.450
25.00000 476.513
25.04000 484.883
25.08000 475.615
25.12000 482.750
25.16000 512.388
25.20000 474.530
25.24000 469.517
25.28000 477.233
25.32000 468.015
25.36000 493.844
25.40000 483.711
25.44000 483.400
25.48000 467.635
25.52000 478.736
25.56000 480.213
25.60000 463.000
25.64000 462.640
25.68000 478.010
25.72000 484.886
25.76000 483.954
25.80000 463.277
25.84000 490.718
25.88000 463.323
25.92000 484.217
25.96000 486.734
26.00000 457.822
26.04000 466.622
26.08000 474.760
26.12000 457.624
26.16000 467.682
26.20000 465.100
26.24000 474.869
26.28000 456.486
26.32000 464.329
26.36000 472.848
26.40000 455.279
26.44000 457.704
26.48000 450.284
26.52000 458.501
26.56000 450.904
26.60000 464.955
26.64000 441.690
26.68000 449.812
26.72000 456.649
26.76000 466.211
26.80000 448.300
26.84000 465.187
26.88000 446.140
26.92000 451.097
26.96000 469.071
27.00000 456.871
27.04000 446.540
27.08000 454.440
27.12000 452.827
27.16000 442.779
27.20000 443.873
27.24000 429.181
27.28000 444.601
27.32000 433.721
27.36000 463.467
27.40000 437.958
27.44000 447.341
27.48000 442.763
27.52000 439.061
27.56000 446.938
27.60000 438.764
27.64000 473.035
27.68000 432.719
27.72000 444.381
27.76000 452.609
27.80000 436.210
27.84000 417.592
27.88000 431.931
27.92000 453.366
27.96000 422.284
28.00000 447.519
28.04000 443.619
28.08000 453.662
28.12000 442.077
28.16000 443.171
28.20000 418.677
28.24000 440.941
28.28000 444.700
28.32000 437.065
28.36000 463.334
28.40000 432.211
28.44000 441.527
28.48000 445.361
28.52000 432.689
28.56000 435.795
28.60000 430.675
28.64000 435.708
28.68000 432.871
28.72000 417.958
28.76000 421.972
28.80000 424.862
28.84000 440.768
28.88000 428.233
28.92000 417.610
28.96000 423.310
29.00000 428.294
29.04000 416.380
29.08000 436.075
29.12000 433.874
29.16000 417.734
29.20000 427.568
29.24000 430.141
29.28000 434.790
29.32000 427.655
29.36000 422.087
29.40000 422.257
29.44000 429.142
29.48000 419.290
29.52000 441.903
29.56000 433.549
29.60000 442.837
29.64000 428.938
29.68000 410.119
29.72000 422.493
29.76000 435.227
29.80000 449.051
29.84000 436.786
29.88000 454.751
29.92000 452.243
29.96000 460.627
30.00000 460.922
30.04000 462.973
30.08000 452.339
30.12000 463.327
30.16000 439.638
30.20000 451.406
30.24000 437.838
30.28000 430.638
30.32000 432.163
30.36000 435.594
30.40000 449.758
30.44000 451.346
30.48000 436.732
30.52000 445.635
30.56000 433.617
30.60000 446.734
30.64000 478.696
30.68000 452.388
30.72000 484.658
30.76000 458.349
30.80000 492.815
30.84000 489.081
30.88000 524.328
30.92000 563.053
30.96000 610.990
31.00000 742.653
31.04000 920.074
31.08000 1217.537
31.12000 1617.122
31.16000 2174.635
31.20000 2834.986
31.24000 3415.597
31.28000 3771.316
31.32000 3911.717
31.36000 3702.638
31.40000 3189.605
31.44000 2587.276
31.48000 2010.224
31.52000 1446.254
31.56000 1074.856
31.60000 819.925
31.64000 670.551
31.68000 567.043
31.72000 537.100
31.76000 496.062
31.80000 492.368
31.84000 458.939
31.88000 453.184
31.92000 442.115
31.96000 442.982
32.00000 424.722
32.04000 426.834
32.08000 422.222
32.12000 426.814
32.16000 416.719
32.20000 408.631
32.24000 406.241
32.28000 404.050
32.32000 417.770
32.36000 399.646
32.40000 379.719
32.44000 394.363
32.48000 395.523
32.52000 387.202
32.56000 380.545
32.60000 383.467
32.64000 380.652
32.68000 383.320
32.72000 376.825
32.76000 363.825
32.80000 385.501
32.84000 362.546
32.88000 370.409
32.92000 381.807
32.96000 366.443
33.00000 370.104
33.04000 367.005
33.08000 360.818
33.12000 369.526
33.16000 372.327
33.20000 356.808
33.24000 354.446
33.28000 343.383
33.32000 359.961
33.36000 365.375
33.40000 352.222
33.44000 348.151
33.48000 347.906
33.52000 363.672
33.56000 354.079
33.60000 344.140
33.64000 355.923
33.68000 335.899
33.72000 340.392
33.76000 348.663
33.80000 348.440
33.84000 326.063
33.88000 342.053
33.92000 337.210
33.96000 347.655
34.00000 344.938
34.04000 321.494
34.08000 343.216
34.12000 326.843
34.16000 355.940
34.20000 350.396
34.24000 340.609
34.28000 342.857
34.32000 325.874
34.36000 315.668
34.40000 324.557
34.44000 338.791
34.48000 332.140
34.52000 328.833
34.56000 322.949
34.60000 341.199
34.64000 331.568
34.68000 331.503
34.72000 321.906
34.76000 313.345
34.80000 316.116
34.84000 315.929
34.88000 326.020
34.92000 328.202
34.96000 314.394
35.00000 304.329
35.04000 319.355
35.08000 302.047
35.12000 317.978
35.16000 317.978
35.20000 307.141
35.24000 314.441
35.28000 320.755
35.32000 311.036
35.36000 316.547
35.40000 335.756
35.44000 322.185
35.48000 310.912
35.52000 329.907
35.56000 314.173
35.60000 323.498
35.64000 324.657
35.68000 318.782
35.72000 311.446
35.76000 307.164
35.80000 310.450
35.84000 304.446
35.88000 308.173
35.92000 320.383
35.96000 301.059
36.00000 303.236
36.04000 301.373
36.08000 317.105
36.12000 307.895
36.16000 308.993
36.20000 303.674
36.24000 314.973
36.28000 293.140
36.32000 281.887
36.36000 313.917
36.40000 304.650
36.44000 288.431
36.48000 293.925
36.52000 307.009
36.56000 304.892
36.60000 296.806
36.64000 310.833
36.68000 311.714
36.72000 315.285
36.76000 322.758
36.80000 304.983
36.84000 299.432
36.88000 307.383
36.92000 296.889
36.96000 315.977
37.00000 305.158
37.04000 311.932
37.08000 303.808
37.12000 300.078
37.16000 279.657
37.20000 301.879
37.24000 290.273
37.28000 298.408
37.32000 303.166
37.36000 281.906
37.40000 298.762
37.44000 295.085
37.48000 273.303
37.52000 292.457
37.56000 278.138
37.60000 288.452
37.64000 291.732
37.68000 291.500
37.72000 287.421
37.76000 293.222
37.80000 281.870
37.84000 284.479
37.88000 298.895
37.92000 316.453
37.96000 311.002
38.00000 313.810
38.04000 296.990
38.08000 287.230
38.12000 305.985
38.16000 311.655
38.20000 301.989
38.24000 318.713
38.28000 326.978
38.32000 331.654
38.36000 355.595
38.40000 358.426
38.44000 397.142
38.48000 432.040
38.52000 470.434
38.56000 483.730
38.60000 508.132
38.64000 491.096
38.68000 476.853
38.72000 459.904
38.76000 437.801
38.80000 393.555
38.84000 366.545
38.88000 362.844
38.92000 318.645
38.96000 312.624
39.00000 303.953
39.04000 300.516
39.08000 290.115
39.12000 284.947
39.16000 286.051
39.20000 282.787
39.24000 274.919
39.28000 273.245
39.32000 264.865
39.36000 275.209
39.40000 278.487
39.44000 263.038
39.48000 282.158
39.52000 269.212
39.56000 273.186
39.60000 268.613
39.64000 278.549
39.68000 251.212
39.72000 281.554
39.76000 260.411
39.80000 278.616
39.84000 272.756
39.88000 270.726
39.92000 272.758
39.96000 250.833
40.00000 262.264
40.04000 254.760
40.08000 261.919
40.12000 247.185
40.16000 264.724
40.20000 263.677
40.24000 257.062
40.28000 252.072
40.32000 262.046
40.36000 256.269
40.40000 253.736
40.44000 257.724
40.48000 241.691
40.52000 247.126
40.56000 259.271
40.60000 258.003
40.64000 254.268
40.68000 250.737
40.72000 245.504
40.76000 258.523
40.80000 267.053
40.84000 248.262
40.88000 234.877
40.92000 245.182
40.96000 260.802
41.00000 267.263
41.04000 255.438
41.08000 260.157
41.12000 243.887
41.16000 245.218
41.20000 247.394
41.24000 254.433
41.28000 237.411
41.32000 239.119
41.36000 246.021
41.40000 235.125
41.44000 243.085
41.48000 233.708
41.52000 244.166
41.56000 234.493
41.60000 259.494
41.64000 254.424
41.68000 247.481
41.72000 245.344
41.76000 233.955
41.80000 246.401
41.84000 234.495
41.88000 234.589
41.92000 233.771
41.96000 228.046
42.00000 241.231
42.04000 251.705
42.08000 243.820
42.12000 233.958
42.16000 242.141
42.20000 242.552
42.24000 234.148
42.28000 228.855
42.32000 241.821
42.36000 229.067
42.40000 231.066
42.44000 242.064
42.48000 226.836
42.52000 231.748
42.56000 235.329
42.60000 227.837
42.64000 237.030
42.68000 230.432
42.72000 222.403
42.76000 235.193
42.80000 224.393
42.84000 234.094
42.88000 232.764
42.92000 227.424
42.96000 222.935
43.00000 235.535
43.04000 250.060
43.08000 229.112
43.12000 234.727
43.16000 234.863
43.20000 214.997
43.24000 225.343
43.28000 239.126
43.32000 220.303
43.36000 240.174
43.40000 234.350
43.44000 237.849
43.48000 242.652
43.52000 220.092
43.56000 225.885
43.60000 215.690
43.64000 229.234
43.68000 240.934
43.72000 223.411
43.76000 232.026
43.80000 225.077
43.84000 216.559
43.88000 212.690
43.92000 231.051
43.96000 226.648
44.00000 233.155
44.04000 227.877
44.08000 226.092
44.12000 236.399
44.16000 235.520
44.20000 237.897
44.24000 230.961
44.28000 233.993
44.32000 230.243
44.36000 246.660
44.40000 248.834
44.44000 245.393
44.48000 255.312
44.52000 267.464
44.56000 267.431
44.60000 306.086
44.64000 311.223
44.68000 361.765
44.72000 386.793
44.76000 446.157
44.80000 499.540
44.84000 575.371
44.88000 613.014
44.92000 605.537
44.96000 639.199
45.00000 640.472
45.04000 584.793
45.08000 525.803
45.12000 490.719
45.16000 451.026
45.20000 404.610
45.24000 359.375
45.28000 324.300
45.32000 306.943
45.36000 270.154
45.40000 258.028
45.44000 264.940
45.48000 245.756
45.52000 249.129
45.56000 233.947
45.60000 232.143
45.64000 231.563
45.68000 221.814
45.72000 226.570
45.76000 204.871
45.80000 224.453
45.84000 218.450
45.88000 219.743
45.92000 217.218
45.96000 231.891
46.00000 208.010
46.04000 201.226
46.08000 210.926
46.12000 207.116
46.16000 219.065
46.20000 201.936
46.24000 216.427
46.28000 200.654
46.32000 209.250
46.36000 204.848
46.40000 199.720
46.44000 204.213
46.48000 223.052
46.52000 201.498
46.56000 202.684
46.60000 192.048
46.64000 206.270
46.68000 211.604
46.72000 202.577
46.76000 193.937
46.80000 194.139
46.84000 196.923
46.88000 209.085
46.92000 197.068
46.96000 205.862
47.00000 201.074
47.04000 193.106
47.08000 204.827
47.12000 185.652
47.16000 197.200
47.20000 178.198
47.24000 192.374
47.28000 190.122
47.32000 189.439
47.36000 189.069
47.40000 192.292
47.44000 197.150
47.48000 199.191
47.52000 186.678
47.56000 186.501
47.60000 191.736
47.64000 187.643
47.68000 181.290
47.72000 187.718
47.76000 179.612
47.80000 185.104
47.84000 181.230
47.88000 180.519
47.92000 188.908
47.96000 196.742
48.00000 193.283
48.04000 187.889
48.08000 179.861
48.12000 175.210
48.16000 174.716
48.20000 182.966
48.24000 171.755
48.28000 179.040
48.32000 186.795
48.36000 177.878
48.40000 186.580
48.44000 166.233
48.48000 182.965
48.52000 200.250
48.56000 183.644
48.60000 176.574
48.64000 190.201
48.68000 190.450
48.72000 194.378
48.76000 186.504
48.80000 198.173
48.84000 191.014
48.88000 186.285
48.92000 183.570
48.96000 170.031
49.00000 188.771
49.04000 186.444
49.08000 183.039
49.12000 188.721
49.16000 185.549
49.20000 187.380
49.24000 174.705
49.28000 187.489
49.32000 177.376
49.36000 190.873
49.40000 189.197
49.44000 177.730
49.48000 172.655
49.52000 174.238
49.56000 182.977
49.60000 190.480
49.64000 182.088
49.68000 188.838
49.72000 183.976
49.76000 184.683
49.80000 178.264
49.84000 174.564
49.88000 177.803
49.92000 163.530
49.96000 189.554
50.00000 182.088
50.04000 186.173
50.08000 186.296
50.12000 186.260
50.16000 188.675
50.20000 205.393
50.24000 204.818
50.28000 202.979
50.32000 221.077
50.36000 234.556
50.40000 241.546
50.44000 238.366
50.48000 268.924
50.52000 286.861
50.56000 300.170
50.60000 292.112
50.64000 283.800
50.68000 292.844
50.72000 280.946
50.76000 264.285
50.80000 242.717
50.84000 247.356
50.88000 221.280
50.92000 212.119
50.96000 193.057
51.00000 188.797
51.04000 190.469
51.08000 191.497
51.12000 181.427
51.16000 180.450
51.20000 167.627
51.24000 170.074
51.28000 177.605
51.32000 181.106
51.36000 174.223
51.40000 167.011
51.44000 166.679
51.48000 158.579
51.52000 169.925
51.56000 174.432
51.60000 175.285
51.64000 169.236
51.68000 167.790
51.72000 173.167
51.76000 173.675
51.80000 168.822
51.84000 161.434
51.88000 160.288
51.92000 161.714
51.96000 176.986
52.00000 158.682
52.04000 160.717
52.08000 168.168
52.12000 168.086
52.16000 166.806
52.20000 161.560
52.24000 157.238
52.28000 159.678
52.32000 162.849
52.36000 164.488
52.40000 164.581
52.44000 162.932
52.48000 159.483
52.52000 158.256
52.56000 161.957
52.60000 165.670
52.64000 152.026
52.68000 170.016
52.72000 159.007
52.76000 159.046
52.80000 157.535
52.84000 168.021
52.88000 149.915
52.92000 157.655
52.96000 159.412
53.00000 170.417
53.04000 160.313
53.08000 168.939
53.12000 163.523
53.16000 160.356
53.20000 151.807
53.24000 155.686
53.28000 148.155
53.32000 166.258
53.36000 166.995
53.40000 170.168
53.44000 170.426
53.48000 167.127
53.52000 164.164
53.56000 160.193
53.60000 166.441
53.64000 146.494
53.68000 155.570
53.72000 159.765
53.76000 151.379
53.80000 150.791
53.84000 159.148
53.88000 145.699
53.92000 162.927
53.96000 157.530
54.00000 156.698
54.04000 157.688
54.08000 149.471
54.12000 156.356
54.16000 154.921
54.20000 150.023
54.24000 154.132
54.28000 158.057
54.32000 151.666
54.36000 155.208
54.40000 151.331
54.44000 161.450
54.48000 153.457
54.52000 154.091
54.56000 175.725
54.60000 159.916
54.64000 160.839
54.68000 156.576
54.72000 156.502
54.76000 146.650
54.80000 162.527
54.84000 148.179
54.88000 159.534
54.92000 158.953
54.96000 163.995
55.00000 162.517
55.04000 166.009
55.08000 163.844
55.12000 170.224
55.16000 164.244
55.20000 179.322
55.24000 179.377
55.28000 183.118
55.32000 191.063
55.36000 170.300
55.40000 200.992
55.44000 237.388
55.48000 259.809
55.52000 297.212
55.56000 343.320
55.60000 398.753
55.64000 451.933
55.68000 513.254
55.72000 554.127
55.76000 586.166
55.80000 587.891
55.84000 601.534
55.88000 582.316
55.92000 511.806
55.96000 497.141
56.00000 433.495
56.04000 358.497
56.08000 312.499
56.12000 281.404
56.16000 230.318
56.20000 229.579
56.24000 207.802
56.28000 188.147
56.32000 187.680
56.36000 175.108
56.40000 178.453
56.44000 155.301
56.48000 184.082
56.52000 168.623
56.56000 163.085
56.60000 163.092
56.64000 157.510
56.68000 161.117
56.72000 146.316
56.76000 157.132
56.80000 160.162
56.84000 157.447
56.88000 151.155
56.92000 142.658
56.96000 148.378
57.00000 156.249
57.04000 142.793
57.08000 146.090
57.12000 147.012
57.16000 157.514
57.20000 146.977
57.24000 158.068
57.28000 142.419
57.32000 159.093
57.36000 146.920
57.40000 153.205
57.44000 151.268
57.48000 153.328
57.52000 144.552
57.56000 137.616
57.60000 142.056
57.64000 154.642
57.68000 141.073
57.72000 150.928
57.76000 147.016
57.80000 150.188
57.84000 151.204
57.88000 137.058
57.92000 134.813
57.96000 151.412
58.00000 146.585
58.04000 144.912
58.08000 146.362
58.12000 151.746
58.16000 137.632
58.20000 137.384
58.24000 139.343
58.28000 147.123
58.32000 143.330
58.36000 136.352
58.40000 133.560
58.44000 139.608
58.48000 131.317
58.52000 139.458
58.56000 138.849
58.60000 152.690
58.64000 142.342
58.68000 135.879
58.72000 142.589
58.76000 136.325
58.80000 135.125
58.84000 138.326
58.88000 140.249
58.92000 127.925
58.96000 145.433
59.00000 139.535
59.04000 142.089
59.08000 141.538
59.12000 133.901
59.16000 134.106
59.20000 139.421
59.24000 130.057
59.28000 137.528
59.32000 130.845
59.36000 134.736
59.40000 132.693
59.44000 133.800
59.48000 135.183
59.52000 135.161
59.56000 131.781
59.60000 142.107
59.64000 135.131
59.68000 134.497
59.72000 140.014
59.76000 136.496
59.80000 132.562
59.84000 131.458
59.88000 137.505
59.92000 135.156
59.96000 133.159
60.00000 130.482
60.04000 132.960
60.08000 138.820
60.12000 136.321
60.16000 131.641
60.20000 142.783
60.24000 131.719
60.28000 128.355
60.32000 135.052
60.36000 131.863
60.40000 136.906
60.44000 134.255
60.48000 135.297
60.52000 122.155
60.56000 140.011
60.60000 131.336
60.64000 130.141
60.68000 142.419
60.72000 139.355
60.76000 136.556
60.80000 138.017
60.84000 124.572
60.88000 134.911
60.92000 126.795
60.96000 136.121
61.00000 140.928
61.04000 127.639
61.08000 141.069
61.12000 137.278
61.16000 127.711
61.20000 139.738
61.24000 138.964
61.28000 143.253
61.32000 134.320
61.36000 138.275
61.40000 141.849
61.44000 150.289
61.48000 159.692
61.52000 181.035
61.56000 246.030
61.60000 284.645
61.64000 325.381
61.68000 348.034
61.72000 362.551
61.76000 315.319
61.80000 270.426
61.84000 200.943
61.88000 178.128
61.92000 159.315
61.96000 162.081
62.00000 152.626
62.04000 152.548
62.08000 155.063
62.12000 151.430
62.16000 151.026
62.20000 144.682
62.24000 152.094
62.28000 150.148
62.32000 146.322
62.36000 146.228
62.40000 142.901
62.44000 143.068
62.48000 149.907
62.52000 152.542
62.56000 152.119
62.60000 152.748
62.64000 144.682
62.68000 143.151
62.72000 152.983
62.76000 140.139
62.80000 149.205
62.84000 139.074
62.88000 145.170
62.92000 152.102
62.96000 150.122
63.00000 143.060
63.04000 149.593
63.08000 150.934
63.12000 143.808
63.16000 146.202
63.20000 152.011
63.24000 140.593
63.28000 145.985
63.32000 153.294
63.36000 153.574
63.40000 153.622
63.44000 159.633
63.48000 154.228
63.52000 148.519
63.56000 145.031
63.60000 145.922
63.64000 150.820
63.68000 157.495
63.72000 157.373
63.76000 153.779
63.80000 149.258
63.84000 149.170
63.88000 157.220
63.92000 149.574
63.96000 158.392
64.00000 163.518
64.04000 153.997
64.08000 158.013
64.12000 155.656
64.16000 157.257
64.20000 159.712
64.24000 157.325
64.28000 170.313
64.32000 167.672
64.36000 169.299
64.40000 166.123
64.44000 157.115
64.48000 169.795
64.52000 175.543
64.56000 185.088
64.60000 175.115
64.64000 178.440
64.68000 170.980
64.72000 180.407
64.76000 184.543
64.80000 192.742
64.84000 177.864
64.88000 187.560
64.92000 201.998
64.96000 203.808
65.00000 212.401
65.04000 227.629
65.08000 248.172
65.12000 276.964
65.16000 286.834
65.20000 326.575
65.24000 368.969
65.28000 383.550
65.32000 407.389
65.36000 414.523
65.40000 441.622
65.44000 441.661
65.48000 441.638
65.52000 428.870
65.56000 418.622
65.60000 426.834
65.64000 446.305
65.68000 546.967
65.72000 758.883
65.76000 1036.162
65.80000 1268.075
65.84000 1389.278
65.88000 1414.151
65.92000 1363.223
65.96000 1135.910
66.00000 848.525
66.04000 578.112
66.08000 411.457
66.12000 346.362
66.16000 342.042
66.20000 343.152
66.24000 341.832
66.28000 386.752
66.32000 457.761
66.36000 492.189
66.40000 537.189
66.44000 518.573
66.48000 510.863
66.52000 479.492
66.56000 411.931
66.60000 370.206
66.64000 367.659
66.68000 345.670
66.72000 347.241
66.76000 371.597
66.80000 353.805
66.84000 352.493
66.88000 356.678
66.92000 368.126
66.96000 379.845
67.00000 386.116
67.04000 375.354
67.08000 380.848
67.12000 411.460
67.16000 402.448
67.20000 430.104
67.24000 412.883
67.28000 429.757
67.32000 433.386
67.36000 451.652
67.40000 472.860
67.44000 469.049
67.48000 472.402
67.52000 468.987
67.56000 477.509
67.60000 495.153
67.64000 494.750
67.68000 517.431
67.72000 525.661
67.76000 546.489
67.80000 556.585
67.84000 575.993
67.88000 565.640
67.92000 604.929
67.96000 604.996
68.00000 598.484
68.04000 607.967
68.08000 625.359
68.12000 659.314
68.16000 668.890
68.20000 691.451
68.24000 694.965
68.28000 725.695
68.32000 740.551
68.36000 791.703
68.40000 787.716
68.44000 840.234
68.48000 881.941
68.52000 961.149
68.56000 1055.011
68.60000 1191.366
68.64000 1439.685
68.68000 1756.857
68.72000 2083.506
68.76000 2348.732
68.80000 2725.297
68.84000 3318.044
68.88000 4742.610
68.92000 9257.585
68.96000 22544.172
69.00000 47569.863
69.04000 72883.859
69.08000 85958.289
69.12000 89212.234
69.16000 91829.383
69.20000 89407.992
69.24000 76515.633
69.28000 59729.633
69.32000 48507.012
69.36000 42362.547
69.40000 33672.801
69.44000 21182.416
69.48000 10197.914
69.52000 4440.718
69.56000 2666.563
69.60000 1965.132
69.64000 1636.123
69.68000 1440.735
69.72000 1296.771
69.76000 1155.502
69.80000 1075.050
69.84000 988.988
69.88000 934.608
69.92000 899.496
69.96000 854.966
70.00000 786.677