File: XRD/17-09-2025/XY Data/BTO_Mapping_Theta2Theta_09-17-2025_001_11_-15-000_-15-000.xy
20.00000 539.649
20.04000 552.751
20.08000 558.605
20.12000 548.514
20.16000 575.461
20.20000 570.317
20.24000 566.173
20.28000 541.461
20.32000 537.472
20.36000 559.484
20.40000 550.124
20.44000 561.830
20.48000 554.334
20.52000 542.975
20.56000 547.972
20.60000 555.351
20.64000 536.964
20.68000 542.895
20.72000 544.876
20.76000 549.209
20.80000 549.497
20.84000 535.542
20.88000 544.832
20.92000 543.745
20.96000 555.183
21.00000 551.947
21.04000 544.678
21.08000 555.423
21.12000 553.164
21.16000 546.990
21.20000 527.205
21.24000 552.662
21.28000 553.078
21.32000 543.693
21.36000 549.128
21.40000 536.217
21.44000 536.777
21.48000 539.420
21.52000 549.422
21.56000 555.151
21.60000 571.516
21.64000 545.110
21.68000 587.200
21.72000 594.485
21.76000 606.644
21.80000 666.465
21.84000 689.626
21.88000 754.656
21.92000 802.316
21.96000 858.760
22.00000 894.579
22.04000 891.806
22.08000 862.204
22.12000 806.007
22.16000 769.583
22.20000 672.162
22.24000 619.818
22.28000 577.563
22.32000 574.153
22.36000 558.506
22.40000 552.737
22.44000 550.596
22.48000 526.577
22.52000 527.980
22.56000 523.703
22.60000 523.609
22.64000 531.621
22.68000 518.492
22.72000 540.490
22.76000 539.725
22.80000 514.084
22.84000 523.860
22.88000 524.296
22.92000 507.702
22.96000 521.651
23.00000 499.546
23.04000 481.037
23.08000 501.089
23.12000 509.146
23.16000 508.023
23.20000 528.994
23.24000 491.503
23.28000 504.892
23.32000 503.570
23.36000 516.327
23.40000 513.883
23.44000 501.120
23.48000 506.752
23.52000 497.567
23.56000 483.835
23.60000 486.393
23.64000 521.186
23.68000 494.350
23.72000 518.407
23.76000 488.363
23.80000 502.872
23.84000 497.616
23.88000 488.633
23.92000 491.420
23.96000 493.431
24.00000 486.444
24.04000 510.079
24.08000 483.687
24.12000 473.962
24.16000 504.849
24.20000 492.149
24.24000 495.525
24.28000 480.952
24.32000 487.494
24.36000 478.056
24.40000 494.255
24.44000 481.429
24.48000 495.405
24.52000 487.781
24.56000 472.752
24.60000 488.462
24.64000 461.282
24.68000 501.327
24.72000 477.569
24.76000 463.109
24.80000 482.729
24.84000 479.105
24.88000 486.158
24.92000 467.959
24.96000 485.818
25.00000 462.910
25.04000 476.768
25.08000 474.375
25.12000 475.371
25.16000 486.210
25.20000 484.189
25.24000 490.351
25.28000 469.535
25.32000 471.794
25.36000 474.025
25.40000 473.289
25.44000 470.572
25.48000 494.402
25.52000 459.648
25.56000 464.836
25.60000 477.310
25.64000 461.462
25.68000 471.503
25.72000 452.069
25.76000 456.967
25.80000 451.438
25.84000 470.782
25.88000 465.125
25.92000 470.946
25.96000 453.702
26.00000 457.720
26.04000 451.990
26.08000 444.864
26.12000 441.694
26.16000 453.466
26.20000 471.244
26.24000 465.475
26.28000 460.481
26.32000 452.043
26.36000 463.319
26.40000 449.226
26.44000 472.926
26.48000 466.190
26.52000 433.806
26.56000 446.952
26.60000 465.223
26.64000 432.871
26.68000 452.121
26.72000 459.247
26.76000 448.048
26.80000 459.307
26.84000 459.465
26.88000 449.725
26.92000 449.538
26.96000 436.089
27.00000 426.311
27.04000 453.294
27.08000 436.400
27.12000 453.837
27.16000 440.076
27.20000 438.543
27.24000 452.908
27.28000 451.310
27.32000 440.322
27.36000 433.488
27.40000 441.136
27.44000 467.070
27.48000 440.309
27.52000 437.327
27.56000 427.164
27.60000 454.405
27.64000 435.296
27.68000 434.770
27.72000 440.816
27.76000 434.362
27.80000 442.562
27.84000 445.960
27.88000 428.750
27.92000 447.968
27.96000 441.786
28.00000 434.134
28.04000 440.028
28.08000 438.220
28.12000 418.044
28.16000 434.128
28.20000 452.104
28.24000 444.838
28.28000 430.471
28.32000 436.626
28.36000 437.532
28.40000 407.307
28.44000 433.134
28.48000 426.700
28.52000 430.980
28.56000 420.629
28.60000 429.367
28.64000 438.700
28.68000 438.543
28.72000 404.465
28.76000 409.081
28.80000 430.027
28.84000 424.292
28.88000 411.331
28.92000 439.309
28.96000 430.655
29.00000 426.049
29.04000 419.456
29.08000 425.772
29.12000 423.126
29.16000 425.674
29.20000 414.097
29.24000 412.390
29.28000 428.694
29.32000 421.845
29.36000 424.146
29.40000 422.524
29.44000 411.732
29.48000 414.470
29.52000 419.019
29.56000 427.264
29.60000 420.708
29.64000 417.223
29.68000 431.001
29.72000 433.372
29.76000 449.278
29.80000 446.650
29.84000 431.938
29.88000 440.997
29.92000 441.991
29.96000 457.982
30.00000 453.785
30.04000 445.919
30.08000 431.452
30.12000 445.335
30.16000 448.230
30.20000 441.354
30.24000 445.863
30.28000 447.250
30.32000 442.679
30.36000 442.440
30.40000 436.113
30.44000 443.829
30.48000 446.498
30.52000 446.082
30.56000 442.261
30.60000 449.663
30.64000 447.140
30.68000 439.659
30.72000 450.522
30.76000 472.367
30.80000 486.806
30.84000 483.678
30.88000 504.917
30.92000 533.085
30.96000 579.761
31.00000 636.734
31.04000 777.612
31.08000 943.894
31.12000 1266.499
31.16000 1713.916
31.20000 2288.263
31.24000 2960.465
31.28000 3567.223
31.32000 3912.205
31.36000 4060.902
31.40000 3810.672
31.44000 3292.986
31.48000 2652.571
31.52000 1970.018
31.56000 1386.531
31.60000 1024.081
31.64000 793.105
31.68000 637.131
31.72000 569.960
31.76000 515.699
31.80000 488.781
31.84000 476.061
31.88000 460.106
31.92000 451.950
31.96000 430.403
32.00000 439.198
32.04000 419.137
32.08000 428.627
32.12000 412.997
32.16000 427.495
32.20000 413.171
32.24000 402.631
32.28000 401.061
32.32000 394.089
32.36000 404.327
32.40000 384.050
32.44000 389.310
32.48000 371.782
32.52000 370.652
32.56000 377.388
32.60000 381.412
32.64000 357.080
32.68000 369.357
32.72000 389.925
32.76000 372.438
32.80000 358.654
32.84000 378.366
32.88000 371.367
32.92000 361.030
32.96000 361.795
33.00000 358.626
33.04000 341.003
33.08000 350.786
33.12000 358.225
33.16000 347.935
33.20000 366.260
33.24000 360.316
33.28000 348.217
33.32000 337.059
33.36000 362.981
33.40000 348.591
33.44000 364.587
33.48000 347.839
33.52000 333.970
33.56000 349.488
33.60000 357.148
33.64000 336.467
33.68000 337.535
33.72000 340.512
33.76000 342.078
33.80000 337.030
33.84000 342.827
33.88000 341.771
33.92000 327.974
33.96000 347.868
34.00000 338.315
34.04000 325.787
34.08000 324.747
34.12000 332.818
34.16000 321.494
34.20000 324.603
34.24000 330.708
34.28000 339.897
34.32000 337.178
34.36000 331.054
34.40000 319.641
34.44000 319.996
34.48000 336.205
34.52000 325.389
34.56000 327.916
34.60000 327.946
34.64000 324.732
34.68000 323.865
34.72000 341.869
34.76000 323.844
34.80000 320.980
34.84000 325.227
34.88000 318.758
34.92000 324.395
34.96000 311.642
35.00000 313.855
35.04000 332.337
35.08000 329.028
35.12000 316.103
35.16000 313.667
35.20000 322.165
35.24000 311.884
35.28000 319.476
35.32000 297.718
35.36000 308.048
35.40000 289.049
35.44000 311.257
35.48000 324.017
35.52000 311.115
35.56000 308.795
35.60000 305.868
35.64000 317.681
35.68000 312.622
35.72000 307.375
35.76000 292.878
35.80000 327.647
35.84000 327.096
35.88000 303.288
35.92000 303.437
35.96000 305.197
36.00000 316.815
36.04000 312.592
36.08000 296.224
36.12000 294.575
36.16000 310.356
36.20000 295.777
36.24000 317.453
36.28000 296.672
36.32000 298.973
36.36000 286.641
36.40000 296.884
36.44000 286.458
36.48000 305.974
36.52000 300.533
36.56000 297.681
36.60000 297.462
36.64000 306.789
36.68000 290.910
36.72000 301.734
36.76000 284.240
36.80000 293.359
36.84000 280.448
36.88000 306.178
36.92000 297.469
36.96000 304.738
37.00000 288.499
37.04000 309.489
37.08000 307.197
37.12000 306.122
37.16000 302.378
37.20000 303.746
37.24000 303.796
37.28000 294.528
37.32000 283.726
37.36000 284.446
37.40000 295.575
37.44000 290.911
37.48000 277.680
37.52000 284.838
37.56000 297.014
37.60000 298.222
37.64000 289.237
37.68000 298.820
37.72000 303.916
37.76000 289.194
37.80000 289.876
37.84000 289.909
37.88000 293.141
37.92000 295.454
37.96000 290.122
38.00000 285.933
38.04000 284.788
38.08000 302.496
38.12000 306.022
38.16000 291.402
38.20000 303.495
38.24000 313.769
38.28000 323.618
38.32000 317.735
38.36000 328.612
38.40000 370.418
38.44000 380.776
38.48000 426.839
38.52000 491.338
38.56000 546.505
38.60000 580.649
38.64000 609.680
38.68000 614.485
38.72000 610.825
38.76000 558.692
38.80000 510.552
38.84000 439.246
38.88000 414.101
38.92000 359.057
38.96000 336.470
39.00000 302.519
39.04000 299.862
39.08000 313.019
39.12000 295.365
39.16000 286.320
39.20000 275.639
39.24000 281.529
39.28000 284.086
39.32000 284.749
39.36000 280.533
39.40000 274.990
39.44000 276.138
39.48000 275.313
39.52000 267.170
39.56000 267.240
39.60000 278.947
39.64000 272.833
39.68000 268.011
39.72000 260.376
39.76000 265.228
39.80000 266.470
39.84000 251.733
39.88000 265.214
39.92000 258.801
39.96000 274.341
40.00000 268.443
40.04000 255.105
40.08000 246.747
40.12000 256.692
40.16000 272.732
40.20000 254.124
40.24000 252.724
40.28000 275.204
40.32000 266.962
40.36000 239.228
40.40000 261.770
40.44000 262.361
40.48000 248.397
40.52000 256.063
40.56000 238.698
40.60000 254.021
40.64000 258.226
40.68000 249.268
40.72000 253.380
40.76000 251.493
40.80000 250.923
40.84000 252.199
40.88000 253.292
40.92000 242.161
40.96000 241.007
41.00000 248.244
41.04000 249.372
41.08000 245.700
41.12000 257.371
41.16000 245.378
41.20000 254.516
41.24000 239.699
41.28000 243.969
41.32000 243.264
41.36000 237.239
41.40000 233.358
41.44000 232.078
41.48000 239.815
41.52000 260.510
41.56000 255.359
41.60000 249.131
41.64000 250.730
41.68000 242.956
41.72000 242.358
41.76000 239.788
41.80000 238.286
41.84000 241.716
41.88000 243.662
41.92000 245.133
41.96000 250.204
42.00000 239.274
42.04000 249.344
42.08000 236.593
42.12000 233.714
42.16000 240.540
42.20000 222.847
42.24000 233.862
42.28000 228.487
42.32000 239.488
42.36000 233.558
42.40000 238.466
42.44000 230.352
42.48000 231.575
42.52000 235.937
42.56000 231.718
42.60000 245.775
42.64000 229.904
42.68000 229.824
42.72000 228.277
42.76000 228.213
42.80000 228.110
42.84000 231.246
42.88000 230.781
42.92000 221.497
42.96000 238.607
43.00000 237.259
43.04000 232.683
43.08000 229.605
43.12000 228.591
43.16000 234.091
43.20000 222.832
43.24000 220.354
43.28000 230.942
43.32000 227.162
43.36000 220.616
43.40000 232.319
43.44000 223.657
43.48000 232.620
43.52000 226.224
43.56000 232.300
43.60000 222.819
43.64000 226.756
43.68000 223.622
43.72000 212.796
43.76000 224.808
43.80000 228.228
43.84000 223.476
43.88000 226.457
43.92000 221.593
43.96000 229.368
44.00000 228.237
44.04000 228.723
44.08000 231.089
44.12000 220.104
44.16000 220.260
44.20000 234.021
44.24000 218.846
44.28000 229.466
44.32000 228.638
44.36000 229.691
44.40000 235.179
44.44000 229.588
44.48000 242.612
44.52000 238.503
44.56000 239.354
44.60000 240.985
44.64000 262.147
44.68000 276.215
44.72000 301.318
44.76000 332.256
44.80000 367.351
44.84000 421.033
44.88000 469.312
44.92000 515.862
44.96000 537.321
45.00000 553.355
45.04000 552.187
45.08000 514.840
45.12000 476.280
45.16000 433.586
45.20000 388.746
45.24000 333.080
45.28000 323.006
45.32000 298.304
45.36000 288.593
45.40000 260.584
45.44000 259.913
45.48000 234.645
45.52000 244.499
45.56000 224.367
45.60000 217.087
45.64000 217.678
45.68000 217.585
45.72000 214.343
45.76000 225.905
45.80000 210.373
45.84000 211.961
45.88000 223.941
45.92000 212.260
45.96000 215.408
46.00000 221.773
46.04000 218.070
46.08000 215.348
46.12000 205.878
46.16000 211.480
46.20000 201.136
46.24000 217.685
46.28000 213.022
46.32000 216.707
46.36000 189.943
46.40000 213.134
46.44000 205.419
46.48000 208.834
46.52000 187.805
46.56000 209.209
46.60000 200.550
46.64000 205.967
46.68000 190.236
46.72000 199.567
46.76000 197.424
46.80000 201.952
46.84000 198.064
46.88000 209.559
46.92000 196.462
46.96000 202.430
47.00000 188.514
47.04000 190.533
47.08000 199.394
47.12000 186.915
47.16000 198.051
47.20000 198.697
47.24000 198.110
47.28000 201.112
47.32000 183.855
47.36000 190.080
47.40000 200.065
47.44000 187.717
47.48000 191.350
47.52000 187.332
47.56000 186.560
47.60000 184.927
47.64000 187.847
47.68000 189.839
47.72000 185.812
47.76000 185.703
47.80000 186.753
47.84000 192.887
47.88000 192.040
47.92000 181.879
47.96000 189.282
48.00000 187.878
48.04000 194.069
48.08000 178.397
48.12000 174.281
48.16000 189.433
48.20000 185.500
48.24000 199.758
48.28000 188.112
48.32000 191.805
48.36000 194.290
48.40000 181.854
48.44000 173.653
48.48000 174.669
48.52000 176.156
48.56000 182.583
48.60000 182.365
48.64000 192.590
48.68000 187.328
48.72000 187.611
48.76000 183.856
48.80000 170.812
48.84000 183.865
48.88000 175.834
48.92000 169.529
48.96000 184.247
49.00000 185.577
49.04000 183.393
49.08000 180.564
49.12000 178.672
49.16000 182.719
49.20000 178.785
49.24000 175.039
49.28000 183.422
49.32000 177.790
49.36000 179.648
49.40000 178.164
49.44000 190.399
49.48000 183.722
49.52000 186.152
49.56000 183.090
49.60000 179.240
49.64000 175.056
49.68000 184.848
49.72000 191.228
49.76000 182.749
49.80000 170.685
49.84000 182.116
49.88000 175.930
49.92000 163.875
49.96000 174.114
50.00000 178.313
50.04000 173.077
50.08000 181.546
50.12000 183.615
50.16000 188.462
50.20000 178.466
50.24000 183.279
50.28000 184.515
50.32000 192.191
50.36000 210.848
50.40000 212.329
50.44000 232.675
50.48000 256.354
50.52000 272.320
50.56000 285.998
50.60000 298.381
50.64000 298.943
50.68000 291.865
50.72000 286.319
50.76000 281.005
50.80000 268.444
50.84000 241.305
50.88000 226.103
50.92000 226.928
50.96000 210.676
51.00000 182.445
51.04000 194.441
51.08000 198.451
51.12000 171.566
51.16000 172.239
51.20000 161.090
51.24000 179.445
51.28000 165.180
51.32000 163.761
51.36000 168.102
51.40000 166.264
51.44000 174.083
51.48000 160.389
51.52000 169.550
51.56000 157.602
51.60000 158.869
51.64000 164.770
51.68000 158.026
51.72000 166.104
51.76000 169.435
51.80000 173.069
51.84000 174.555
51.88000 163.985
51.92000 167.807
51.96000 154.139
52.00000 157.607
52.04000 168.144
52.08000 165.075
52.12000 156.286
52.16000 165.088
52.20000 168.469
52.24000 167.003
52.28000 165.367
52.32000 151.658
52.36000 164.047
52.40000 174.867
52.44000 166.253
52.48000 156.848
52.52000 166.434
52.56000 148.947
52.60000 170.109
52.64000 162.538
52.68000 154.068
52.72000 162.473
52.76000 166.527
52.80000 162.904
52.84000 158.750
52.88000 162.869
52.92000 157.981
52.96000 154.931
53.00000 155.305
53.04000 159.673
53.08000 156.797
53.12000 161.193
53.16000 164.833
53.20000 158.919
53.24000 164.407
53.28000 163.360
53.32000 160.033
53.36000 159.766
53.40000 167.869
53.44000 151.140
53.48000 161.731
53.52000 157.299
53.56000 156.686
53.60000 168.549
53.64000 154.873
53.68000 170.488
53.72000 154.110
53.76000 164.722
53.80000 153.815
53.84000 153.482
53.88000 154.584
53.92000 149.331
53.96000 160.782
54.00000 161.882
54.04000 158.046
54.08000 151.482
54.12000 144.321
54.16000 160.777
54.20000 155.799
54.24000 163.009
54.28000 171.660
54.32000 157.215
54.36000 153.464
54.40000 150.959
54.44000 157.525
54.48000 154.580
54.52000 146.801
54.56000 151.804
54.60000 156.172
54.64000 153.757
54.68000 152.500
54.72000 163.112
54.76000 150.238
54.80000 155.875
54.84000 153.034
54.88000 156.423
54.92000 161.527
54.96000 155.856
55.00000 167.144
55.04000 161.010
55.08000 153.506
55.12000 161.132
55.16000 155.792
55.20000 165.724
55.24000 170.148
55.28000 168.970
55.32000 178.891
55.36000 175.892
55.40000 186.026
55.44000 216.860
55.48000 208.242
55.52000 236.266
55.56000 277.958
55.60000 302.759
55.64000 358.943
55.68000 422.286
55.72000 489.975
55.76000 552.145
55.80000 609.518
55.84000 650.349
55.88000 681.258
55.92000 636.479
55.96000 587.343
56.00000 555.245
56.04000 497.757
56.08000 398.000
56.12000 359.137
56.16000 314.324
56.20000 269.457
56.24000 230.373
56.28000 204.015
56.32000 204.918
56.36000 189.070
56.40000 177.184
56.44000 167.527
56.48000 170.677
56.52000 158.087
56.56000 162.656
56.60000 154.262
56.64000 156.178
56.68000 160.844
56.72000 157.854
56.76000 157.624
56.80000 153.680
56.84000 153.604
56.88000 165.306
56.92000 139.500
56.96000 150.277
57.00000 147.405
57.04000 139.664
57.08000 152.043
57.12000 154.882
57.16000 150.050
57.20000 153.363
57.24000 143.925
57.28000 149.981
57.32000 143.395
57.36000 142.841
57.40000 151.934
57.44000 155.692
57.48000 142.768
57.52000 148.537
57.56000 141.492
57.60000 147.643
57.64000 153.006
57.68000 150.040
57.72000 139.974
57.76000 144.262
57.80000 140.299
57.84000 141.388
57.88000 148.541
57.92000 150.814
57.96000 147.734
58.00000 136.434
58.04000 156.955
58.08000 145.972
58.12000 150.031
58.16000 145.200
58.20000 145.444
58.24000 143.803
58.28000 143.111
58.32000 136.154
58.36000 147.230
58.40000 144.191
58.44000 135.002
58.48000 134.559
58.52000 137.350
58.56000 135.293
58.60000 143.501
58.64000 137.276
58.68000 139.747
58.72000 142.525
58.76000 129.642
58.80000 134.463
58.84000 132.029
58.88000 134.592
58.92000 139.457
58.96000 137.515
59.00000 135.195
59.04000 135.329
59.08000 131.310
59.12000 126.088
59.16000 130.883
59.20000 133.129
59.24000 142.830
59.28000 144.092
59.32000 125.956
59.36000 125.613
59.40000 138.276
59.44000 136.220
59.48000 134.644
59.52000 128.611
59.56000 131.175
59.60000 134.426
59.64000 146.382
59.68000 130.188
59.72000 133.823
59.76000 130.260
59.80000 144.563
59.84000 129.295
59.88000 128.328
59.92000 133.414
59.96000 130.961
60.00000 144.162
60.04000 130.182
60.08000 132.107
60.12000 133.624
60.16000 135.378
60.20000 139.429
60.24000 137.373
60.28000 141.249
60.32000 128.182
60.36000 128.180
60.40000 132.696
60.44000 136.481
60.48000 126.420
60.52000 127.790
60.56000 132.144
60.60000 130.757
60.64000 129.931
60.68000 132.647
60.72000 132.199
60.76000 137.153
60.80000 128.700
60.84000 137.230
60.88000 136.225
60.92000 128.709
60.96000 141.096
61.00000 135.304
61.04000 140.939
61.08000 138.669
61.12000 144.728
61.16000 138.237
61.20000 129.396
61.24000 137.711
61.28000 127.787
61.32000 134.650
61.36000 151.487
61.40000 143.742
61.44000 139.240
61.48000 155.313
61.52000 179.642
61.56000 241.151
61.60000 294.139
61.64000 320.685
61.68000 338.195
61.72000 337.996
61.76000 314.863
61.80000 242.365
61.84000 191.976
61.88000 155.009
61.92000 144.991
61.96000 144.462
62.00000 151.817
62.04000 143.039
62.08000 147.665
62.12000 146.282
62.16000 136.031
62.20000 137.788
62.24000 139.988
62.28000 144.845
62.32000 146.707
62.36000 138.963
62.40000 136.114
62.44000 146.728
62.48000 146.695
62.52000 137.804
62.56000 145.079
62.60000 132.996
62.64000 149.901
62.68000 144.543
62.72000 140.147
62.76000 146.565
62.80000 145.189
62.84000 139.463
62.88000 133.133
62.92000 146.907
62.96000 148.522
63.00000 146.904
63.04000 146.252
63.08000 141.804
63.12000 147.473
63.16000 149.626
63.20000 153.458
63.24000 138.658
63.28000 149.824
63.32000 141.406
63.36000 146.873
63.40000 141.736
63.44000 155.791
63.48000 157.678
63.52000 156.498
63.56000 146.654
63.60000 144.762
63.64000 156.109
63.68000 150.362
63.72000 162.438
63.76000 156.942
63.80000 157.603
63.84000 150.246
63.88000 163.750
63.92000 151.242
63.96000 160.905
64.00000 149.594
64.04000 162.165
64.08000 149.496
64.12000 149.584
64.16000 155.073
64.20000 170.340
64.24000 164.799
64.28000 162.844
64.32000 155.327
64.36000 161.999
64.40000 163.688
64.44000 161.668
64.48000 181.735
64.52000 176.351
64.56000 172.143
64.60000 173.207
64.64000 176.053
64.68000 180.113
64.72000 172.957
64.76000 183.573
64.80000 190.190
64.84000 187.401
64.88000 178.478
64.92000 195.049
64.96000 201.843
65.00000 211.949
65.04000 207.770
65.08000 233.455
65.12000 247.040
65.16000 251.706
65.20000 279.134
65.24000 300.137
65.28000 331.863
65.32000 356.265
65.36000 376.641
65.40000 414.639
65.44000 448.165
65.48000 456.646
65.52000 479.836
65.56000 477.330
65.60000 492.961
65.64000 517.858
65.68000 618.663
65.72000 784.525
65.76000 1069.509
65.80000 1244.937
65.84000 1390.110
65.88000 1427.567
65.92000 1333.786
65.96000 1077.914
66.00000 764.484
66.04000 515.312
66.08000 384.831
66.12000 362.306
66.16000 330.751
66.20000 327.358
66.24000 351.548
66.28000 382.520
66.32000 455.762
66.36000 480.730
66.40000 499.424
66.44000 512.998
66.48000 507.616
66.52000 481.526
66.56000 399.472
66.60000 351.926
66.64000 348.060
66.68000 341.632
66.72000 347.217
66.76000 353.190
66.80000 339.428
66.84000 342.449
66.88000 350.219
66.92000 380.257
66.96000 355.099
67.00000 378.027
67.04000 389.214
67.08000 384.158
67.12000 398.029
67.16000 421.130
67.20000 415.346
67.24000 409.690
67.28000 429.340
67.32000 430.610
67.36000 436.421
67.40000 458.571
67.44000 441.450
67.48000 465.839
67.52000 476.385
67.56000 503.221
67.60000 492.673
67.64000 496.092
67.68000 501.138
67.72000 517.967
67.76000 516.763
67.80000 537.120
67.84000 553.795
67.88000 536.620
67.92000 568.100
67.96000 586.112
68.00000 587.744
68.04000 596.768
68.08000 618.249
68.12000 642.553
68.16000 648.130
68.20000 656.142
68.24000 683.596
68.28000 731.635
68.32000 748.367
68.36000 772.203
68.40000 793.600
68.44000 831.028
68.48000 861.959
68.52000 929.722
68.56000 1012.769
68.60000 1178.049
68.64000 1444.125
68.68000 1689.731
68.72000 2013.064
68.76000 2294.979
68.80000 2574.201
68.84000 3271.426
68.88000 4670.735
68.92000 9212.714
68.96000 23151.316
69.00000 47812.555
69.04000 71339.602
69.08000 82471.523
69.12000 84936.344
69.16000 87561.109
69.20000 84758.648
69.24000 70656.359
69.28000 54903.727
69.32000 44983.395
69.36000 39906.363
69.40000 31188.777
69.44000 18789.168
69.48000 8867.886
69.52000 3929.550
69.56000 2371.243
69.60000 1798.645
69.64000 1541.168
69.68000 1343.672
69.72000 1193.616
69.76000 1094.347
69.80000 1004.063
69.84000 968.540
69.88000 898.133
69.92000 876.748
69.96000 838.175
70.00000 800.437