File: XRD/17-09-2025/XY Data/BTO_Mapping_Theta2Theta_09-17-2025_001_34_30-000_30-000.xy
20.00000 563.635
20.04000 549.400
20.08000 539.747
20.12000 555.585
20.16000 556.212
20.20000 536.586
20.24000 556.758
20.28000 569.285
20.32000 568.775
20.36000 563.760
20.40000 549.528
20.44000 547.718
20.48000 554.689
20.52000 526.356
20.56000 547.892
20.60000 534.841
20.64000 532.498
20.68000 549.901
20.72000 527.242
20.76000 543.619
20.80000 562.361
20.84000 556.792
20.88000 551.925
20.92000 548.689
20.96000 517.411
21.00000 543.491
21.04000 544.509
21.08000 533.501
21.12000 536.512
21.16000 553.755
21.20000 540.468
21.24000 542.124
21.28000 537.181
21.32000 542.301
21.36000 524.672
21.40000 553.156
21.44000 530.438
21.48000 535.459
21.52000 536.940
21.56000 532.721
21.60000 546.724
21.64000 539.601
21.68000 553.819
21.72000 544.490
21.76000 560.531
21.80000 580.543
21.84000 586.031
21.88000 591.813
21.92000 609.582
21.96000 630.126
22.00000 650.604
22.04000 675.639
22.08000 668.101
22.12000 678.318
22.16000 654.621
22.20000 654.752
22.24000 613.001
22.28000 589.619
22.32000 585.329
22.36000 573.427
22.40000 565.350
22.44000 545.692
22.48000 523.662
22.52000 532.996
22.56000 525.458
22.60000 516.619
22.64000 508.810
22.68000 504.364
22.72000 514.788
22.76000 517.409
22.80000 524.219
22.84000 503.388
22.88000 488.699
22.92000 513.031
22.96000 522.753
23.00000 519.437
23.04000 491.027
23.08000 513.841
23.12000 515.814
23.16000 505.380
23.20000 534.664
23.24000 516.391
23.28000 510.204
23.32000 505.853
23.36000 500.228
23.40000 512.506
23.44000 510.141
23.48000 505.907
23.52000 477.762
23.56000 501.926
23.60000 507.243
23.64000 506.403
23.68000 506.103
23.72000 498.269
23.76000 531.287
23.80000 515.290
23.84000 528.241
23.88000 520.482
23.92000 542.077
23.96000 531.119
24.00000 534.063
24.04000 524.093
24.08000 537.571
24.12000 521.938
24.16000 528.040
24.20000 525.217
24.24000 528.047
24.28000 497.286
24.32000 512.025
24.36000 472.478
24.40000 500.437
24.44000 491.519
24.48000 507.405
24.52000 493.396
24.56000 456.446
24.60000 478.016
24.64000 465.298
24.68000 479.356
24.72000 474.443
24.76000 487.025
24.80000 479.070
24.84000 474.516
24.88000 455.547
24.92000 470.684
24.96000 444.287
25.00000 461.728
25.04000 476.799
25.08000 440.680
25.12000 471.619
25.16000 458.034
25.20000 469.644
25.24000 468.582
25.28000 480.253
25.32000 496.087
25.36000 458.523
25.40000 456.222
25.44000 466.853
25.48000 466.555
25.52000 450.213
25.56000 466.106
25.60000 435.955
25.64000 453.850
25.68000 454.818
25.72000 427.899
25.76000 449.338
25.80000 449.334
25.84000 442.684
25.88000 443.501
25.92000 459.522
25.96000 453.860
26.00000 454.396
26.04000 448.392
26.08000 465.396
26.12000 445.634
26.16000 444.899
26.20000 439.329
26.24000 448.972
26.28000 440.299
26.32000 448.366
26.36000 444.321
26.40000 446.835
26.44000 434.279
26.48000 439.102
26.52000 430.035
26.56000 448.508
26.60000 440.001
26.64000 449.650
26.68000 437.108
26.72000 452.896
26.76000 447.210
26.80000 445.260
26.84000 447.593
26.88000 445.059
26.92000 458.827
26.96000 414.315
27.00000 422.627
27.04000 431.583
27.08000 432.704
27.12000 429.211
27.16000 453.274
27.20000 444.698
27.24000 433.656
27.28000 438.364
27.32000 434.952
27.36000 433.503
27.40000 431.240
27.44000 442.076
27.48000 434.223
27.52000 403.769
27.56000 440.838
27.60000 432.690
27.64000 405.952
27.68000 417.667
27.72000 432.288
27.76000 436.242
27.80000 419.489
27.84000 414.241
27.88000 433.249
27.92000 427.991
27.96000 433.352
28.00000 428.585
28.04000 429.175
28.08000 427.344
28.12000 425.236
28.16000 443.037
28.20000 419.998
28.24000 424.042
28.28000 419.923
28.32000 413.841
28.36000 419.179
28.40000 402.008
28.44000 409.172
28.48000 419.694
28.52000 418.723
28.56000 413.978
28.60000 397.007
28.64000 416.805
28.68000 400.106
28.72000 411.082
28.76000 416.497
28.80000 399.913
28.84000 424.541
28.88000 412.295
28.92000 409.158
28.96000 408.550
29.00000 419.698
29.04000 416.625
29.08000 419.316
29.12000 401.549
29.16000 395.594
29.20000 396.561
29.24000 400.774
29.28000 396.777
29.32000 379.754
29.36000 402.682
29.40000 408.055
29.44000 410.086
29.48000 406.737
29.52000 399.519
29.56000 419.717
29.60000 395.848
29.64000 417.222
29.68000 398.213
29.72000 393.223
29.76000 381.140
29.80000 394.597
29.84000 398.981
29.88000 404.537
29.92000 426.428
29.96000 400.926
30.00000 410.134
30.04000 411.569
30.08000 424.887
30.12000 423.076
30.16000 388.246
30.20000 408.433
30.24000 409.556
30.28000 416.743
30.32000 420.190
30.36000 380.831
30.40000 397.594
30.44000 406.843
30.48000 424.171
30.52000 427.469
30.56000 424.646
30.60000 399.358
30.64000 425.282
30.68000 405.400
30.72000 412.919
30.76000 427.480
30.80000 435.831
30.84000 434.667
30.88000 429.314
30.92000 441.336
30.96000 458.754
31.00000 472.523
31.04000 499.270
31.08000 550.803
31.12000 643.208
31.16000 751.419
31.20000 895.755
31.24000 1105.691
31.28000 1347.138
31.32000 1533.042
31.36000 1669.638
31.40000 1718.985
31.44000 1682.424
31.48000 1558.217
31.52000 1342.392
31.56000 1107.411
31.60000 933.588
31.64000 735.906
31.68000 647.136
31.72000 567.996
31.76000 507.671
31.80000 481.122
31.84000 443.085
31.88000 423.707
31.92000 401.124
31.96000 400.301
32.00000 413.006
32.04000 402.985
32.08000 393.108
32.12000 378.671
32.16000 378.473
32.20000 396.624
32.24000 395.286
32.28000 380.578
32.32000 380.427
32.36000 384.654
32.40000 375.237
32.44000 365.573
32.48000 388.668
32.52000 373.482
32.56000 381.204
32.60000 363.745
32.64000 368.252
32.68000 358.090
32.72000 366.303
32.76000 364.562
32.80000 371.980
32.84000 345.636
32.88000 349.300
32.92000 356.364
32.96000 337.556
33.00000 348.473
33.04000 342.464
33.08000 356.871
33.12000 347.427
33.16000 349.068
33.20000 342.610
33.24000 339.194
33.28000 329.148
33.32000 330.535
33.36000 342.638
33.40000 337.999
33.44000 339.115
33.48000 328.209
33.52000 333.154
33.56000 343.940
33.60000 344.743
33.64000 349.089
33.68000 340.878
33.72000 344.172
33.76000 337.871
33.80000 335.664
33.84000 335.436
33.88000 340.935
33.92000 338.999
33.96000 333.130
34.00000 349.300
34.04000 368.119
34.08000 352.820
34.12000 349.568
34.16000 337.219
34.20000 351.199
34.24000 354.980
34.28000 352.556
34.32000 363.604
34.36000 354.844
34.40000 358.579
34.44000 364.966
34.48000 358.224
34.52000 354.417
34.56000 364.190
34.60000 347.498
34.64000 346.448
34.68000 344.214
34.72000 331.526
34.76000 310.111
34.80000 324.215
34.84000 319.640
34.88000 325.704
34.92000 330.578
34.96000 308.651
35.00000 332.353
35.04000 307.491
35.08000 323.703
35.12000 318.038
35.16000 316.606
35.20000 322.557
35.24000 318.152
35.28000 303.623
35.32000 313.514
35.36000 319.657
35.40000 293.336
35.44000 309.957
35.48000 305.791
35.52000 329.206
35.56000 308.941
35.60000 307.567
35.64000 300.994
35.68000 296.814
35.72000 311.206
35.76000 301.435
35.80000 300.892
35.84000 316.850
35.88000 302.616
35.92000 290.814
35.96000 293.719
36.00000 294.388
36.04000 309.102
36.08000 294.022
36.12000 297.923
36.16000 311.315
36.20000 296.480
36.24000 289.040
36.28000 303.133
36.32000 301.087
36.36000 293.958
36.40000 288.775
36.44000 290.770
36.48000 300.032
36.52000 282.491
36.56000 301.165
36.60000 292.737
36.64000 272.734
36.68000 292.359
36.72000 292.037
36.76000 294.660
36.80000 291.049
36.84000 297.382
36.88000 284.171
36.92000 298.464
36.96000 304.732
37.00000 304.742
37.04000 298.393
37.08000 302.596
37.12000 295.555
37.16000 291.923
37.20000 290.069
37.24000 290.230
37.28000 303.054
37.32000 289.874
37.36000 275.745
37.40000 294.481
37.44000 306.080
37.48000 282.521
37.52000 276.534
37.56000 272.403
37.60000 280.582
37.64000 278.263
37.68000 284.849
37.72000 285.429
37.76000 304.370
37.80000 279.278
37.84000 287.689
37.88000 291.599
37.92000 279.064
37.96000 277.842
38.00000 280.549
38.04000 291.067
38.08000 279.634
38.12000 282.680
38.16000 291.696
38.20000 288.715
38.24000 290.858
38.28000 297.396
38.32000 306.541
38.36000 306.208
38.40000 324.681
38.44000 356.524
38.48000 414.291
38.52000 444.481
38.56000 521.663
38.60000 635.802
38.64000 738.886
38.68000 830.687
38.72000 947.206
38.76000 953.004
38.80000 886.357
38.84000 805.987
38.88000 715.962
38.92000 599.719
38.96000 515.837
39.00000 432.745
39.04000 357.177
39.08000 337.051
39.12000 315.071
39.16000 301.490
39.20000 299.681
39.24000 276.641
39.28000 283.352
39.32000 293.652
39.36000 273.061
39.40000 261.258
39.44000 276.216
39.48000 286.646
39.52000 266.922
39.56000 280.001
39.60000 282.023
39.64000 263.499
39.68000 271.257
39.72000 288.753
39.76000 275.298
39.80000 276.261
39.84000 281.714
39.88000 270.103
39.92000 269.777
39.96000 266.880
40.00000 262.796
40.04000 255.996
40.08000 260.560
40.12000 263.156
40.16000 261.584
40.20000 264.638
40.24000 248.233
40.28000 249.266
40.32000 249.661
40.36000 269.752
40.40000 258.486
40.44000 250.342
40.48000 252.955
40.52000 236.124
40.56000 262.212
40.60000 244.408
40.64000 253.462
40.68000 250.004
40.72000 245.244
40.76000 237.010
40.80000 245.248
40.84000 247.104
40.88000 250.584
40.92000 249.830
40.96000 252.169
41.00000 239.704
41.04000 245.933
41.08000 236.220
41.12000 240.518
41.16000 247.544
41.20000 248.258
41.24000 240.358
41.28000 251.906
41.32000 223.810
41.36000 239.752
41.40000 227.165
41.44000 231.600
41.48000 237.647
41.52000 239.987
41.56000 245.977
41.60000 238.148
41.64000 223.516
41.68000 225.990
41.72000 252.649
41.76000 236.710
41.80000 236.228
41.84000 246.112
41.88000 248.248
41.92000 252.168
41.96000 231.730
42.00000 242.070
42.04000 242.631
42.08000 227.271
42.12000 230.150
42.16000 223.341
42.20000 238.681
42.24000 242.239
42.28000 245.182
42.32000 230.845
42.36000 235.302
42.40000 246.964
42.44000 244.870
42.48000 234.248
42.52000 242.635
42.56000 243.246
42.60000 232.415
42.64000 228.123
42.68000 234.365
42.72000 230.663
42.76000 222.333
42.80000 231.844
42.84000 218.895
42.88000 228.680
42.92000 232.314
42.96000 226.303
43.00000 228.389
43.04000 217.695
43.08000 224.914
43.12000 223.475
43.16000 223.426
43.20000 226.973
43.24000 219.704
43.28000 223.678
43.32000 230.351
43.36000 221.098
43.40000 213.592
43.44000 219.968
43.48000 210.494
43.52000 229.038
43.56000 211.376
43.60000 231.616
43.64000 233.807
43.68000 229.789
43.72000 222.076
43.76000 231.171
43.80000 231.059
43.84000 220.842
43.88000 214.462
43.92000 220.323
43.96000 224.020
44.00000 209.874
44.04000 229.223
44.08000 228.360
44.12000 219.716
44.16000 224.512
44.20000 207.514
44.24000 218.770
44.28000 219.114
44.32000 232.184
44.36000 229.547
44.40000 224.074
44.44000 227.222
44.48000 220.911
44.52000 236.546
44.56000 228.541
44.60000 231.617
44.64000 223.296
44.68000 250.440
44.72000 249.109
44.76000 238.398
44.80000 255.561
44.84000 275.127
44.88000 270.157
44.92000 279.469
44.96000 297.934
45.00000 310.843
45.04000 334.346
45.08000 333.555
45.12000 326.323
45.16000 329.120
45.20000 339.141
45.24000 323.525
45.28000 294.570
45.32000 291.418
45.36000 273.191
45.40000 267.032
45.44000 252.917
45.48000 239.128
45.52000 245.066
45.56000 247.531
45.60000 232.934
45.64000 221.031
45.68000 216.985
45.72000 198.055
45.76000 218.943
45.80000 213.758
45.84000 217.572
45.88000 206.097
45.92000 204.364
45.96000 205.235
46.00000 204.242
46.04000 215.116
46.08000 199.089
46.12000 202.328
46.16000 198.982
46.20000 195.876
46.24000 194.988
46.28000 201.380
46.32000 198.902
46.36000 214.503
46.40000 207.370
46.44000 199.237
46.48000 191.656
46.52000 192.904
46.56000 207.669
46.60000 186.007
46.64000 201.753
46.68000 190.419
46.72000 201.141
46.76000 186.195
46.80000 199.551
46.84000 204.844
46.88000 212.254
46.92000 202.262
46.96000 192.125
47.00000 190.759
47.04000 194.988
47.08000 215.867
47.12000 196.187
47.16000 192.495
47.20000 195.965
47.24000 181.425
47.28000 195.188
47.32000 189.159
47.36000 178.285
47.40000 183.167
47.44000 185.821
47.48000 184.063
47.52000 190.971
47.56000 186.887
47.60000 179.449
47.64000 184.525
47.68000 182.624
47.72000 175.554
47.76000 193.163
47.80000 170.555
47.84000 186.240
47.88000 192.345
47.92000 177.047
47.96000 180.704
48.00000 182.313
48.04000 195.944
48.08000 195.203
48.12000 179.990
48.16000 190.411
48.20000 178.386
48.24000 174.956
48.28000 185.342
48.32000 168.277
48.36000 187.703
48.40000 186.771
48.44000 174.747
48.48000 187.142
48.52000 181.582
48.56000 178.525
48.60000 183.189
48.64000 170.392
48.68000 168.455
48.72000 168.977
48.76000 179.014
48.80000 182.649
48.84000 187.278
48.88000 167.466
48.92000 178.702
48.96000 179.015
49.00000 177.937
49.04000 172.369
49.08000 176.338
49.12000 187.078
49.16000 177.864
49.20000 175.623
49.24000 178.617
49.28000 175.815
49.32000 173.353
49.36000 180.026
49.40000 177.989
49.44000 172.734
49.48000 182.453
49.52000 185.274
49.56000 183.050
49.60000 174.034
49.64000 167.682
49.68000 182.471
49.72000 190.503
49.76000 166.076
49.80000 183.653
49.84000 179.905
49.88000 171.996
49.92000 163.115
49.96000 175.367
50.00000 180.315
50.04000 177.249
50.08000 178.114
50.12000 171.679
50.16000 178.098
50.20000 176.996
50.24000 172.755
50.28000 162.798
50.32000 179.454
50.36000 179.285
50.40000 180.645
50.44000 175.853
50.48000 201.509
50.52000 181.995
50.56000 201.108
50.60000 198.710
50.64000 213.242
50.68000 204.175
50.72000 211.454
50.76000 224.493
50.80000 219.289
50.84000 215.851
50.88000 202.608
50.92000 205.554
50.96000 192.290
51.00000 187.494
51.04000 181.834
51.08000 184.371
51.12000 167.390
51.16000 175.817
51.20000 167.488
51.24000 180.544
51.28000 159.215
51.32000 169.099
51.36000 151.519
51.40000 161.129
51.44000 163.153
51.48000 176.395
51.52000 163.860
51.56000 161.747
51.60000 162.558
51.64000 156.011
51.68000 166.274
51.72000 155.430
51.76000 154.152
51.80000 156.789
51.84000 169.006
51.88000 160.248
51.92000 155.859
51.96000 158.747
52.00000 156.622
52.04000 152.717
52.08000 159.861
52.12000 167.646
52.16000 145.170
52.20000 158.557
52.24000 170.472
52.28000 165.109
52.32000 152.253
52.36000 164.415
52.40000 161.915
52.44000 152.821
52.48000 151.307
52.52000 161.431
52.56000 159.150
52.60000 152.341
52.64000 152.870
52.68000 155.606
52.72000 157.132
52.76000 151.223
52.80000 153.068
52.84000 155.727
52.88000 172.359
52.92000 158.463
52.96000 154.118
53.00000 153.520
53.04000 152.804
53.08000 164.725
53.12000 155.528
53.16000 160.483
53.20000 169.061
53.24000 154.984
53.28000 154.735
53.32000 163.017
53.36000 164.124
53.40000 171.395
53.44000 156.214
53.48000 152.599
53.52000 166.977
53.56000 160.221
53.60000 146.853
53.64000 164.842
53.68000 159.493
53.72000 157.274
53.76000 153.891
53.80000 166.166
53.84000 166.289
53.88000 156.303
53.92000 159.828
53.96000 147.964
54.00000 147.140
54.04000 148.900
54.08000 154.339
54.12000 158.300
54.16000 159.541
54.20000 149.436
54.24000 152.018
54.28000 150.023
54.32000 159.334
54.36000 149.040
54.40000 157.062
54.44000 148.059
54.48000 141.959
54.52000 142.089
54.56000 158.028
54.60000 154.000
54.64000 167.649
54.68000 159.667
54.72000 161.948
54.76000 152.220
54.80000 151.370
54.84000 158.067
54.88000 158.901
54.92000 158.532
54.96000 155.413
55.00000 145.018
55.04000 157.555
55.08000 166.858
55.12000 168.366
55.16000 151.811
55.20000 161.697
55.24000 157.572
55.28000 169.099
55.32000 164.821
55.36000 173.362
55.40000 188.477
55.44000 173.617
55.48000 191.560
55.52000 192.743
55.56000 191.749
55.60000 214.177
55.64000 234.357
55.68000 255.223
55.72000 299.722
55.76000 331.293
55.80000 394.759
55.84000 447.866
55.88000 480.811
55.92000 530.770
55.96000 551.405
56.00000 553.383
56.04000 514.774
56.08000 502.512
56.12000 426.521
56.16000 389.685
56.20000 352.655
56.24000 301.607
56.28000 257.275
56.32000 242.739
56.36000 214.407
56.40000 186.751
56.44000 187.855
56.48000 183.128
56.52000 172.777
56.56000 165.108
56.60000 155.382
56.64000 157.601
56.68000 150.504
56.72000 135.075
56.76000 151.697
56.80000 144.203
56.84000 150.557
56.88000 153.029
56.92000 151.238
56.96000 141.353
57.00000 140.245
57.04000 141.405
57.08000 142.029
57.12000 130.867
57.16000 145.159
57.20000 139.607
57.24000 135.291
57.28000 140.750
57.32000 137.746
57.36000 137.308
57.40000 152.165
57.44000 147.626
57.48000 137.955
57.52000 133.613
57.56000 133.136
57.60000 136.425
57.64000 136.623
57.68000 144.575
57.72000 139.324
57.76000 132.669
57.80000 127.278
57.84000 140.599
57.88000 138.419
57.92000 145.022
57.96000 147.164
58.00000 139.030
58.04000 144.251
58.08000 148.019
58.12000 142.017
58.16000 139.943
58.20000 133.144
58.24000 135.444
58.28000 143.376
58.32000 139.177
58.36000 133.987
58.40000 135.505
58.44000 139.348
58.48000 141.963
58.52000 129.496
58.56000 135.161
58.60000 133.133
58.64000 133.389
58.68000 131.031
58.72000 137.874
58.76000 132.910
58.80000 136.458
58.84000 133.874
58.88000 141.623
58.92000 132.332
58.96000 132.131
59.00000 132.254
59.04000 145.322
59.08000 143.324
59.12000 137.952
59.16000 135.698
59.20000 131.878
59.24000 121.625
59.28000 122.819
59.32000 137.521
59.36000 135.732
59.40000 141.314
59.44000 131.704
59.48000 126.545
59.52000 134.172
59.56000 137.781
59.60000 137.749
59.64000 126.286
59.68000 122.805
59.72000 126.250
59.76000 132.398
59.80000 126.611
59.84000 129.080
59.88000 120.209
59.92000 127.972
59.96000 124.478
60.00000 131.943
60.04000 132.194
60.08000 125.104
60.12000 133.911
60.16000 134.518
60.20000 135.935
60.24000 121.159
60.28000 124.873
60.32000 136.224
60.36000 133.552
60.40000 128.754
60.44000 132.810
60.48000 126.604
60.52000 125.604
60.56000 129.150
60.60000 139.264
60.64000 131.094
60.68000 128.256
60.72000 140.278
60.76000 135.372
60.80000 134.084
60.84000 134.404
60.88000 128.760
60.92000 130.847
60.96000 132.324
61.00000 134.057
61.04000 135.076
61.08000 131.435
61.12000 124.212
61.16000 134.531
61.20000 140.014
61.24000 126.511
61.28000 142.611
61.32000 145.527
61.36000 141.690
61.40000 144.707
61.44000 141.365
61.48000 137.503
61.52000 143.881
61.56000 171.690
61.60000 207.222
61.64000 236.995
61.68000 247.632
61.72000 248.938
61.76000 232.810
61.80000 203.979
61.84000 179.484
61.88000 150.862
61.92000 145.760
61.96000 147.174
62.00000 135.051
62.04000 138.178
62.08000 139.990
62.12000 136.416
62.16000 135.468
62.20000 141.511
62.24000 138.776
62.28000 147.087
62.32000 139.644
62.36000 138.199
62.40000 142.422
62.44000 144.069
62.48000 149.681
62.52000 145.354
62.56000 137.712
62.60000 148.770
62.64000 141.527
62.68000 144.999
62.72000 147.784
62.76000 140.944
62.80000 147.747
62.84000 140.494
62.88000 136.478
62.92000 134.698
62.96000 140.522
63.00000 136.790
63.04000 144.376
63.08000 139.556
63.12000 142.523
63.16000 141.201
63.20000 139.360
63.24000 138.856
63.28000 137.825
63.32000 147.583
63.36000 145.254
63.40000 140.340
63.44000 137.266
63.48000 148.358
63.52000 143.084
63.56000 146.361
63.60000 145.070
63.64000 141.866
63.68000 152.868
63.72000 146.150
63.76000 147.317
63.80000 148.593
63.84000 158.312
63.88000 155.123
63.92000 152.911
63.96000 150.520
64.00000 159.040
64.04000 159.417
64.08000 153.153
64.12000 155.678
64.16000 150.830
64.20000 158.835
64.24000 166.345
64.28000 164.315
64.32000 161.002
64.36000 158.319
64.40000 164.365
64.44000 153.299
64.48000 156.191
64.52000 168.942
64.56000 166.314
64.60000 170.747
64.64000 156.757
64.68000 158.455
64.72000 169.974
64.76000 162.413
64.80000 159.671
64.84000 175.844
64.88000 171.055
64.92000 178.200
64.96000 176.840
65.00000 173.181
65.04000 185.511
65.08000 196.568
65.12000 185.102
65.16000 212.463
65.20000 203.073
65.24000 198.890
65.28000 212.349
65.32000 217.084
65.36000 230.398
65.40000 253.442
65.44000 258.348
65.48000 282.929
65.52000 282.516
65.56000 300.767
65.60000 324.206
65.64000 312.048
65.68000 382.298
65.72000 459.816
65.76000 600.913
65.80000 735.316
65.84000 838.699
65.88000 854.001
65.92000 848.842
65.96000 753.972
66.00000 550.131
66.04000 395.000
66.08000 323.601
66.12000 300.880
66.16000 279.867
66.20000 289.126
66.24000 277.502
66.28000 288.351
66.32000 320.515
66.36000 358.513
66.40000 365.426
66.44000 387.930
66.48000 375.409
66.52000 367.064
66.56000 328.834
66.60000 297.088
66.64000 296.327
66.68000 292.141
66.72000 298.963
66.76000 291.797
66.80000 290.729
66.84000 290.421
66.88000 308.611
66.92000 296.243
66.96000 307.078
67.00000 319.162
67.04000 327.377
67.08000 328.000
67.12000 324.178
67.16000 324.183
67.20000 347.763
67.24000 351.734
67.28000 356.427
67.32000 364.782
67.36000 364.942
67.40000 378.006
67.44000 381.925
67.48000 395.263
67.52000 391.189
67.56000 413.424
67.60000 401.705
67.64000 424.615
67.68000 430.647
67.72000 422.325
67.76000 419.664
67.80000 452.306
67.84000 472.679
67.88000 446.886
67.92000 475.592
67.96000 484.148
68.00000 487.280
68.04000 498.328
68.08000 493.268
68.12000 526.721
68.16000 535.933
68.20000 566.307
68.24000 555.632
68.28000 583.260
68.32000 596.236
68.36000 615.560
68.40000 638.980
68.44000 665.123
68.48000 696.019
68.52000 725.450
68.56000 780.679
68.60000 840.481
68.64000 994.050
68.68000 1152.253
68.72000 1293.318
68.76000 1498.628
68.80000 1672.784
68.84000 1934.845
68.88000 2266.914
68.92000 3448.990
68.96000 8548.143
69.00000 21173.580
69.04000 37311.438
69.08000 47002.133
69.12000 49143.977
69.16000 50300.258
69.20000 51979.090
69.24000 45469.070
69.28000 34559.824
69.32000 27573.219
69.36000 24727.000
69.40000 21284.373
69.44000 14091.781
69.48000 6667.030
69.52000 2861.701
69.56000 1750.022
69.60000 1362.311
69.64000 1190.120
69.68000 1052.880
69.72000 943.710
69.76000 878.248
69.80000 798.768
69.84000 774.002
69.88000 737.442
69.92000 708.257
69.96000 678.611
70.00000 665.728