File: XRD/17-09-2025/XY Data/BTO_Mapping_Theta2Theta_09-17-2025_001_23_-45-000_15-000.xy
20.00000 555.731
20.04000 547.101
20.08000 539.714
20.12000 565.913
20.16000 558.458
20.20000 544.051
20.24000 545.101
20.28000 553.851
20.32000 557.737
20.36000 536.011
20.40000 547.297
20.44000 523.639
20.48000 538.409
20.52000 547.611
20.56000 545.150
20.60000 546.591
20.64000 549.769
20.68000 537.033
20.72000 540.931
20.76000 529.546
20.80000 553.081
20.84000 525.791
20.88000 543.398
20.92000 538.993
20.96000 534.642
21.00000 527.269
21.04000 541.412
21.08000 525.125
21.12000 506.724
21.16000 529.056
21.20000 540.268
21.24000 534.044
21.28000 538.971
21.32000 528.362
21.36000 547.915
21.40000 528.853
21.44000 523.607
21.48000 530.550
21.52000 523.461
21.56000 509.215
21.60000 530.564
21.64000 522.032
21.68000 529.693
21.72000 520.695
21.76000 537.631
21.80000 553.543
21.84000 546.092
21.88000 524.950
21.92000 530.208
21.96000 552.765
22.00000 541.642
22.04000 525.478
22.08000 549.317
22.12000 546.374
22.16000 527.053
22.20000 527.563
22.24000 517.458
22.28000 516.959
22.32000 513.284
22.36000 512.205
22.40000 503.704
22.44000 510.425
22.48000 513.710
22.52000 506.030
22.56000 503.877
22.60000 492.505
22.64000 496.723
22.68000 503.384
22.72000 517.452
22.76000 470.822
22.80000 502.913
22.84000 494.570
22.88000 477.594
22.92000 506.278
22.96000 503.876
23.00000 468.478
23.04000 498.844
23.08000 521.519
23.12000 508.698
23.16000 500.192
23.20000 501.079
23.24000 500.049
23.28000 486.675
23.32000 480.251
23.36000 483.124
23.40000 490.255
23.44000 492.582
23.48000 510.798
23.52000 466.890
23.56000 491.247
23.60000 479.700
23.64000 491.864
23.68000 493.042
23.72000 478.525
23.76000 478.281
23.80000 460.262
23.84000 485.620
23.88000 477.877
23.92000 479.590
23.96000 477.700
24.00000 472.936
24.04000 488.986
24.08000 463.799
24.12000 475.106
24.16000 460.709
24.20000 479.593
24.24000 483.188
24.28000 478.721
24.32000 492.026
24.36000 472.134
24.40000 469.472
24.44000 475.688
24.48000 492.330
24.52000 479.842
24.56000 450.643
24.60000 458.755
24.64000 452.541
24.68000 449.644
24.72000 473.719
24.76000 445.695
24.80000 465.443
24.84000 464.470
24.88000 464.864
24.92000 461.334
24.96000 464.337
25.00000 462.896
25.04000 464.653
25.08000 468.127
25.12000 451.128
25.16000 463.037
25.20000 459.641
25.24000 449.018
25.28000 457.522
25.32000 455.737
25.36000 455.528
25.40000 477.800
25.44000 458.719
25.48000 472.634
25.52000 475.618
25.56000 444.391
25.60000 471.598
25.64000 452.647
25.68000 444.812
25.72000 445.410
25.76000 441.524
25.80000 450.546
25.84000 441.034
25.88000 444.154
25.92000 441.926
25.96000 449.958
26.00000 438.845
26.04000 437.567
26.08000 434.497
26.12000 447.631
26.16000 440.515
26.20000 459.462
26.24000 439.349
26.28000 438.186
26.32000 444.479
26.36000 440.771
26.40000 436.342
26.44000 414.593
26.48000 437.796
26.52000 450.864
26.56000 419.852
26.60000 435.555
26.64000 435.998
26.68000 418.407
26.72000 435.054
26.76000 419.122
26.80000 424.047
26.84000 437.097
26.88000 449.192
26.92000 440.879
26.96000 427.918
27.00000 419.731
27.04000 437.457
27.08000 414.303
27.12000 402.827
27.16000 430.865
27.20000 421.368
27.24000 441.746
27.28000 409.636
27.32000 442.810
27.36000 427.843
27.40000 408.256
27.44000 427.438
27.48000 415.820
27.52000 414.236
27.56000 402.235
27.60000 410.281
27.64000 404.742
27.68000 421.456
27.72000 423.236
27.76000 400.731
27.80000 415.282
27.84000 404.003
27.88000 402.930
27.92000 417.300
27.96000 417.510
28.00000 407.965
28.04000 407.305
28.08000 405.808
28.12000 393.585
28.16000 394.737
28.20000 415.001
28.24000 430.325
28.28000 399.557
28.32000 415.397
28.36000 418.316
28.40000 399.894
28.44000 407.115
28.48000 405.574
28.52000 404.193
28.56000 401.646
28.60000 391.270
28.64000 391.869
28.68000 397.508
28.72000 381.141
28.76000 389.218
28.80000 394.252
28.84000 387.609
28.88000 386.265
28.92000 414.792
28.96000 379.014
29.00000 385.728
29.04000 389.398
29.08000 387.282
29.12000 400.574
29.16000 387.307
29.20000 380.949
29.24000 373.675
29.28000 401.961
29.32000 403.697
29.36000 390.344
29.40000 379.686
29.44000 378.099
29.48000 384.256
29.52000 375.313
29.56000 387.144
29.60000 382.369
29.64000 382.447
29.68000 376.036
29.72000 377.312
29.76000 366.004
29.80000 383.067
29.84000 374.559
29.88000 384.646
29.92000 387.540
29.96000 382.071
30.00000 381.994
30.04000 366.943
30.08000 364.830
30.12000 359.685
30.16000 358.191
30.20000 368.118
30.24000 387.775
30.28000 374.106
30.32000 374.946
30.36000 369.726
30.40000 359.994
30.44000 381.774
30.48000 365.860
30.52000 359.220
30.56000 383.160
30.60000 378.607
30.64000 364.004
30.68000 370.590
30.72000 368.308
30.76000 369.940
30.80000 361.962
30.84000 353.633
30.88000 349.183
30.92000 343.410
30.96000 400.438
31.00000 367.394
31.04000 360.236
31.08000 369.720
31.12000 361.493
31.16000 362.870
31.20000 342.150
31.24000 365.864
31.28000 374.936
31.32000 368.598
31.36000 362.823
31.40000 350.346
31.44000 361.656
31.48000 335.726
31.52000 370.155
31.56000 357.642
31.60000 359.398
31.64000 354.537
31.68000 338.401
31.72000 362.093
31.76000 350.359
31.80000 351.741
31.84000 357.943
31.88000 339.836
31.92000 350.471
31.96000 354.713
32.00000 339.467
32.04000 342.934
32.08000 345.958
32.12000 357.376
32.16000 350.641
32.20000 362.883
32.24000 345.945
32.28000 349.305
32.32000 342.618
32.36000 351.250
32.40000 337.491
32.44000 339.111
32.48000 335.436
32.52000 357.670
32.56000 352.524
32.60000 350.373
32.64000 337.629
32.68000 343.595
32.72000 314.579
32.76000 345.390
32.80000 343.167
32.84000 333.526
32.88000 323.727
32.92000 336.563
32.96000 334.960
33.00000 330.073
33.04000 335.191
33.08000 332.953
33.12000 328.074
33.16000 328.897
33.20000 339.455
33.24000 311.645
33.28000 334.220
33.32000 351.669
33.36000 334.297
33.40000 326.980
33.44000 331.891
33.48000 328.280
33.52000 318.592
33.56000 331.077
33.60000 340.350
33.64000 309.849
33.68000 335.685
33.72000 317.459
33.76000 325.959
33.80000 337.371
33.84000 346.812
33.88000 331.508
33.92000 315.981
33.96000 321.939
34.00000 315.184
34.04000 318.620
34.08000 321.879
34.12000 322.891
34.16000 324.831
34.20000 315.294
34.24000 307.480
34.28000 322.454
34.32000 309.510
34.36000 297.442
34.40000 315.232
34.44000 333.785
34.48000 302.959
34.52000 304.175
34.56000 299.155
34.60000 320.093
34.64000 324.844
34.68000 311.904
34.72000 305.302
34.76000 306.857
34.80000 311.156
34.84000 308.502
34.88000 306.489
34.92000 300.771
34.96000 300.005
35.00000 291.760
35.04000 300.404
35.08000 285.180
35.12000 302.650
35.16000 302.887
35.20000 307.367
35.24000 307.800
35.28000 293.379
35.32000 312.620
35.36000 305.790
35.40000 317.230
35.44000 301.944
35.48000 300.999
35.52000 300.614
35.56000 298.030
35.60000 291.427
35.64000 304.366
35.68000 297.110
35.72000 303.912
35.76000 301.736
35.80000 294.015
35.84000 305.511
35.88000 295.568
35.92000 291.837
35.96000 293.066
36.00000 301.076
36.04000 296.977
36.08000 301.484
36.12000 280.599
36.16000 289.893
36.20000 294.159
36.24000 298.359
36.28000 304.646
36.32000 281.450
36.36000 293.842
36.40000 298.156
36.44000 294.810
36.48000 291.816
36.52000 289.747
36.56000 286.445
36.60000 285.004
36.64000 275.426
36.68000 292.740
36.72000 286.054
36.76000 278.218
36.80000 287.547
36.84000 287.865
36.88000 272.707
36.92000 284.394
36.96000 286.768
37.00000 285.005
37.04000 263.768
37.08000 269.410
37.12000 276.867
37.16000 273.063
37.20000 272.362
37.24000 271.693
37.28000 275.391
37.32000 272.243
37.36000 290.001
37.40000 269.379
37.44000 277.055
37.48000 279.476
37.52000 274.157
37.56000 266.199
37.60000 274.372
37.64000 269.078
37.68000 275.168
37.72000 273.842
37.76000 286.569
37.80000 258.708
37.84000 266.869
37.88000 291.274
37.92000 272.213
37.96000 269.166
38.00000 273.143
38.04000 269.407
38.08000 270.567
38.12000 265.505
38.16000 265.921
38.20000 271.862
38.24000 270.423
38.28000 268.010
38.32000 256.508
38.36000 250.554
38.40000 269.281
38.44000 264.294
38.48000 263.479
38.52000 254.615
38.56000 263.501
38.60000 260.581
38.64000 251.299
38.68000 245.104
38.72000 249.903
38.76000 254.884
38.80000 254.886
38.84000 247.748
38.88000 255.789
38.92000 268.697
38.96000 257.158
39.00000 261.749
39.04000 248.756
39.08000 256.966
39.12000 253.737
39.16000 256.559
39.20000 258.314
39.24000 266.843
39.28000 250.016
39.32000 249.207
39.36000 259.622
39.40000 257.051
39.44000 265.086
39.48000 244.824
39.52000 256.742
39.56000 249.671
39.60000 241.959
39.64000 259.031
39.68000 249.020
39.72000 239.579
39.76000 249.838
39.80000 236.946
39.84000 234.972
39.88000 245.238
39.92000 247.655
39.96000 236.623
40.00000 234.061
40.04000 263.696
40.08000 246.153
40.12000 253.823
40.16000 237.929
40.20000 238.251
40.24000 245.068
40.28000 247.720
40.32000 237.696
40.36000 260.547
40.40000 256.633
40.44000 250.603
40.48000 220.993
40.52000 249.000
40.56000 243.461
40.60000 242.197
40.64000 230.612
40.68000 244.556
40.72000 236.597
40.76000 238.372
40.80000 246.454
40.84000 237.448
40.88000 244.715
40.92000 234.219
40.96000 226.753
41.00000 237.472
41.04000 225.668
41.08000 237.521
41.12000 239.429
41.16000 229.514
41.20000 225.440
41.24000 240.742
41.28000 228.281
41.32000 228.539
41.36000 232.683
41.40000 230.834
41.44000 239.970
41.48000 238.842
41.52000 229.844
41.56000 237.473
41.60000 224.396
41.64000 228.443
41.68000 234.362
41.72000 235.298
41.76000 225.662
41.80000 225.498
41.84000 213.941
41.88000 231.622
41.92000 251.622
41.96000 223.739
42.00000 227.281
42.04000 216.338
42.08000 230.040
42.12000 223.689
42.16000 229.499
42.20000 228.116
42.24000 232.507
42.28000 223.892
42.32000 217.448
42.36000 219.787
42.40000 211.878
42.44000 222.890
42.48000 216.545
42.52000 212.999
42.56000 230.752
42.60000 222.713
42.64000 216.886
42.68000 227.198
42.72000 232.593
42.76000 201.574
42.80000 228.886
42.84000 211.067
42.88000 220.095
42.92000 210.081
42.96000 215.582
43.00000 234.982
43.04000 217.779
43.08000 213.656
43.12000 218.858
43.16000 207.696
43.20000 224.128
43.24000 210.014
43.28000 216.971
43.32000 219.265
43.36000 231.871
43.40000 224.501
43.44000 213.739
43.48000 214.210
43.52000 211.905
43.56000 222.314
43.60000 226.784
43.64000 213.611
43.68000 218.502
43.72000 216.082
43.76000 215.218
43.80000 216.387
43.84000 213.275
43.88000 199.143
43.92000 217.173
43.96000 210.474
44.00000 207.182
44.04000 206.669
44.08000 212.121
44.12000 211.673
44.16000 211.506
44.20000 198.215
44.24000 204.955
44.28000 200.256
44.32000 200.040
44.36000 216.150
44.40000 190.076
44.44000 203.599
44.48000 207.112
44.52000 200.308
44.56000 205.396
44.60000 207.607
44.64000 199.825
44.68000 193.934
44.72000 222.863
44.76000 198.817
44.80000 207.419
44.84000 195.320
44.88000 208.501
44.92000 202.363
44.96000 204.449
45.00000 190.575
45.04000 201.822
45.08000 189.881
45.12000 198.450
45.16000 191.028
45.20000 196.684
45.24000 205.091
45.28000 197.405
45.32000 193.985
45.36000 208.253
45.40000 194.760
45.44000 188.502
45.48000 188.333
45.52000 200.725
45.56000 208.068
45.60000 209.343
45.64000 196.814
45.68000 198.808
45.72000 204.575
45.76000 206.536
45.80000 199.424
45.84000 182.741
45.88000 193.119
45.92000 195.810
45.96000 195.626
46.00000 194.633
46.04000 180.126
46.08000 190.347
46.12000 196.493
46.16000 184.466
46.20000 195.867
46.24000 192.493
46.28000 206.197
46.32000 191.568
46.36000 195.442
46.40000 178.126
46.44000 187.183
46.48000 192.883
46.52000 187.358
46.56000 180.487
46.60000 192.691
46.64000 189.351
46.68000 190.462
46.72000 194.570
46.76000 186.058
46.80000 194.289
46.84000 182.156
46.88000 181.972
46.92000 194.468
46.96000 193.878
47.00000 174.491
47.04000 179.561
47.08000 192.414
47.12000 195.597
47.16000 184.452
47.20000 176.671
47.24000 184.526
47.28000 193.669
47.32000 179.299
47.36000 186.951
47.40000 178.525
47.44000 177.201
47.48000 184.304
47.52000 174.310
47.56000 184.888
47.60000 181.866
47.64000 175.387
47.68000 169.226
47.72000 174.993
47.76000 178.125
47.80000 176.367
47.84000 188.434
47.88000 193.839
47.92000 174.074
47.96000 186.736
48.00000 185.559
48.04000 186.828
48.08000 180.602
48.12000 187.257
48.16000 182.589
48.20000 194.489
48.24000 176.768
48.28000 175.023
48.32000 187.406
48.36000 172.593
48.40000 180.198
48.44000 176.454
48.48000 175.302
48.52000 170.362
48.56000 181.082
48.60000 175.193
48.64000 174.132
48.68000 176.413
48.72000 179.400
48.76000 168.295
48.80000 174.389
48.84000 179.280
48.88000 176.123
48.92000 178.488
48.96000 173.085
49.00000 167.644
49.04000 183.935
49.08000 161.900
49.12000 172.492
49.16000 173.774
49.20000 167.899
49.24000 167.854
49.28000 178.576
49.32000 170.354
49.36000 177.737
49.40000 173.730
49.44000 177.498
49.48000 158.845
49.52000 165.742
49.56000 164.417
49.60000 161.887
49.64000 169.353
49.68000 168.893
49.72000 160.724
49.76000 158.496
49.80000 159.982
49.84000 171.242
49.88000 169.861
49.92000 167.670
49.96000 172.056
50.00000 166.331
50.04000 166.193
50.08000 181.520
50.12000 176.080
50.16000 168.493
50.20000 166.269
50.24000 165.794
50.28000 166.773
50.32000 168.015
50.36000 165.390
50.40000 160.094
50.44000 165.914
50.48000 172.961
50.52000 160.296
50.56000 160.336
50.60000 160.418
50.64000 168.825
50.68000 169.962
50.72000 172.598
50.76000 160.202
50.80000 158.895
50.84000 151.936
50.88000 151.323
50.92000 155.415
50.96000 156.582
51.00000 156.069
51.04000 162.049
51.08000 168.176
51.12000 170.283
51.16000 155.903
51.20000 159.315
51.24000 169.872
51.28000 156.482
51.32000 152.589
51.36000 150.134
51.40000 162.925
51.44000 161.765
51.48000 149.375
51.52000 157.737
51.56000 152.425
51.60000 169.102
51.64000 172.228
51.68000 161.074
51.72000 163.418
51.76000 153.308
51.80000 152.274
51.84000 160.730
51.88000 158.214
51.92000 159.741
51.96000 148.901
52.00000 161.304
52.04000 156.531
52.08000 158.726
52.12000 150.433
52.16000 161.092
52.20000 150.299
52.24000 158.844
52.28000 150.578
52.32000 155.552
52.36000 151.648
52.40000 150.285
52.44000 157.387
52.48000 148.198
52.52000 155.373
52.56000 163.844
52.60000 166.398
52.64000 155.419
52.68000 148.969
52.72000 150.789
52.76000 150.460
52.80000 165.297
52.84000 147.945
52.88000 151.052
52.92000 154.214
52.96000 147.004
53.00000 154.619
53.04000 154.390
53.08000 148.334
53.12000 152.010
53.16000 142.406
53.20000 149.956
53.24000 144.350
53.28000 150.497
53.32000 149.284
53.36000 144.987
53.40000 144.428
53.44000 147.718
53.48000 135.936
53.52000 154.497
53.56000 145.670
53.60000 150.707
53.64000 152.708
53.68000 145.344
53.72000 151.511
53.76000 143.296
53.80000 147.033
53.84000 149.078
53.88000 155.209
53.92000 139.812
53.96000 142.025
54.00000 154.914
54.04000 143.778
54.08000 142.310
54.12000 142.335
54.16000 136.153
54.20000 149.499
54.24000 142.182
54.28000 150.010
54.32000 150.859
54.36000 144.749
54.40000 148.320
54.44000 133.422
54.48000 137.171
54.52000 140.576
54.56000 143.312
54.60000 146.201
54.64000 152.280
54.68000 144.983
54.72000 139.442
54.76000 149.835
54.80000 144.500
54.84000 145.385
54.88000 137.233
54.92000 143.341
54.96000 144.690
55.00000 156.312
55.04000 138.488
55.08000 145.416
55.12000 152.957
55.16000 139.917
55.20000 139.599
55.24000 150.802
55.28000 140.484
55.32000 149.153
55.36000 144.451
55.40000 152.800
55.44000 130.815
55.48000 137.724
55.52000 137.730
55.56000 135.681
55.60000 140.352
55.64000 140.530
55.68000 149.068
55.72000 140.227
55.76000 137.616
55.80000 139.087
55.84000 151.589
55.88000 145.291
55.92000 133.810
55.96000 137.170
56.00000 137.383
56.04000 141.944
56.08000 138.445
56.12000 132.555
56.16000 147.890
56.20000 135.370
56.24000 142.653
56.28000 134.790
56.32000 140.241
56.36000 140.655
56.40000 134.339
56.44000 145.917
56.48000 141.206
56.52000 144.481
56.56000 142.189
56.60000 129.197
56.64000 139.945
56.68000 140.101
56.72000 136.734
56.76000 141.421
56.80000 140.942
56.84000 143.066
56.88000 146.210
56.92000 135.738
56.96000 133.287
57.00000 134.565
57.04000 136.510
57.08000 131.918
57.12000 148.538
57.16000 133.469
57.20000 135.899
57.24000 128.365
57.28000 129.168
57.32000 126.076
57.36000 137.607
57.40000 143.695
57.44000 135.110
57.48000 131.034
57.52000 137.092
57.56000 141.184
57.60000 132.176
57.64000 129.784
57.68000 125.823
57.72000 137.227
57.76000 139.015
57.80000 129.225
57.84000 141.370
57.88000 133.379
57.92000 143.370
57.96000 138.099
58.00000 141.117
58.04000 131.122
58.08000 126.456
58.12000 131.958
58.16000 131.067
58.20000 128.256
58.24000 137.197
58.28000 128.591
58.32000 128.309
58.36000 130.338
58.40000 131.197
58.44000 131.837
58.48000 133.327
58.52000 137.592
58.56000 134.103
58.60000 133.208
58.64000 123.502
58.68000 136.271
58.72000 131.124
58.76000 138.173
58.80000 129.134
58.84000 134.508
58.88000 125.433
58.92000 129.280
58.96000 134.851
59.00000 128.694
59.04000 135.766
59.08000 137.629
59.12000 126.177
59.16000 125.429
59.20000 126.623
59.24000 128.482
59.28000 136.902
59.32000 127.452
59.36000 124.763
59.40000 130.295
59.44000 141.329
59.48000 133.447
59.52000 135.576
59.56000 133.555
59.60000 125.281
59.64000 128.699
59.68000 129.570
59.72000 136.823
59.76000 130.178
59.80000 127.767
59.84000 131.284
59.88000 137.160
59.92000 131.111
59.96000 134.378
60.00000 131.829
60.04000 136.335
60.08000 128.993
60.12000 145.146
60.16000 136.335
60.20000 138.937
60.24000 130.391
60.28000 131.293
60.32000 136.891
60.36000 127.136
60.40000 129.549
60.44000 132.001
60.48000 134.594
60.52000 128.897
60.56000 131.523
60.60000 125.614
60.64000 126.782
60.68000 140.061
60.72000 123.832
60.76000 130.408
60.80000 129.938
60.84000 133.498
60.88000 135.181
60.92000 133.964
60.96000 134.556
61.00000 137.069
61.04000 135.428
61.08000 141.851
61.12000 139.483
61.16000 139.204
61.20000 129.845
61.24000 127.143
61.28000 131.834
61.32000 136.445
61.36000 132.863
61.40000 135.188
61.44000 143.967
61.48000 144.035
61.52000 161.891
61.56000 184.820
61.60000 222.743
61.64000 236.945
61.68000 252.223
61.72000 249.600
61.76000 248.080
61.80000 206.681
61.84000 175.694
61.88000 147.876
61.92000 148.095
61.96000 156.266
62.00000 146.154
62.04000 146.511
62.08000 135.543
62.12000 139.831
62.16000 138.191
62.20000 139.763
62.24000 140.923
62.28000 144.050
62.32000 138.829
62.36000 146.365
62.40000 148.076
62.44000 145.253
62.48000 139.874
62.52000 138.560
62.56000 135.949
62.60000 141.207
62.64000 140.197
62.68000 140.298
62.72000 145.353
62.76000 141.786
62.80000 138.080
62.84000 145.914
62.88000 141.194
62.92000 137.935
62.96000 133.218
63.00000 138.138
63.04000 140.071
63.08000 138.310
63.12000 147.495
63.16000 147.570
63.20000 150.149
63.24000 142.458
63.28000 145.053
63.32000 138.669
63.36000 150.020
63.40000 142.334
63.44000 147.737
63.48000 139.499
63.52000 149.648
63.56000 154.962
63.60000 144.174
63.64000 169.279
63.68000 152.658
63.72000 149.563
63.76000 158.408
63.80000 160.017
63.84000 159.203
63.88000 160.451
63.92000 154.633
63.96000 157.588
64.00000 149.771
64.04000 152.175
64.08000 159.184
64.12000 159.542
64.16000 160.448
64.20000 146.212
64.24000 152.170
64.28000 156.633
64.32000 159.019
64.36000 179.907
64.40000 164.651
64.44000 173.611
64.48000 159.157
64.52000 178.947
64.56000 163.106
64.60000 165.401
64.64000 165.781
64.68000 171.251
64.72000 178.510
64.76000 183.807
64.80000 178.209
64.84000 165.955
64.88000 183.538
64.92000 176.750
64.96000 182.401
65.00000 182.418
65.04000 177.119
65.08000 176.738
65.12000 181.102
65.16000 182.656
65.20000 187.305
65.24000 191.243
65.28000 197.941
65.32000 205.757
65.36000 199.543
65.40000 206.122
65.44000 193.819
65.48000 211.949
65.52000 224.392
65.56000 233.915
65.60000 238.506
65.64000 270.515
65.68000 323.063
65.72000 444.784
65.76000 630.741
65.80000 824.845
65.84000 890.652
65.88000 906.770
65.92000 898.979
65.96000 787.638
66.00000 586.723
66.04000 426.869
66.08000 329.722
66.12000 307.184
66.16000 293.089
66.20000 283.144
66.24000 295.680
66.28000 334.295
66.32000 364.741
66.36000 394.095
66.40000 439.299
66.44000 427.018
66.48000 414.667
66.52000 390.502
66.56000 356.253
66.60000 323.315
66.64000 313.324
66.68000 332.082
66.72000 336.863
66.76000 330.926
66.80000 322.292
66.84000 334.891
66.88000 316.037
66.92000 331.118
66.96000 348.367
67.00000 348.141
67.04000 350.919
67.08000 359.425
67.12000 385.409
67.16000 375.598
67.20000 374.365
67.24000 388.956
67.28000 391.007
67.32000 423.540
67.36000 411.939
67.40000 417.875
67.44000 418.066
67.48000 430.399
67.52000 448.201
67.56000 452.652
67.60000 441.768
67.64000 461.016
67.68000 465.881
67.72000 481.563
67.76000 480.617
67.80000 507.394
67.84000 488.890
67.88000 507.592
67.92000 517.434
67.96000 544.749
68.00000 555.570
68.04000 566.869
68.08000 584.467
68.12000 594.593
68.16000 616.913
68.20000 609.485
68.24000 620.612
68.28000 645.255
68.32000 688.800
68.36000 683.791
68.40000 740.484
68.44000 765.829
68.48000 777.942
68.52000 807.215
68.56000 863.065
68.60000 985.206
68.64000 1140.211
68.68000 1307.286
68.72000 1532.537
68.76000 1736.398
68.80000 1877.066
68.84000 2132.891
68.88000 2628.168
68.92000 4357.416
68.96000 11456.659
69.00000 27473.615
69.04000 45220.773
69.08000 53882.488
69.12000 55319.648
69.16000 56742.590
69.20000 57110.645
69.24000 49964.801
69.28000 37450.523
69.32000 30077.391
69.36000 27099.348
69.40000 22526.043
69.44000 14544.055
69.48000 6608.491
69.52000 2818.645
69.56000 1817.361
69.60000 1465.761
69.64000 1253.059
69.68000 1165.091
69.72000 1031.679
69.76000 934.896
69.80000 868.764
69.84000 840.700
69.88000 779.808
69.92000 742.446
69.96000 698.714
70.00000 665.219