File: XRD/17-09-2025/XY Data/BTO_Mapping_Theta2Theta_09-17-2025_001_37_15-000_45-000.xy
20.00000 557.204
20.04000 549.015
20.08000 564.692
20.12000 552.413
20.16000 552.866
20.20000 550.091
20.24000 530.043
20.28000 557.824
20.32000 531.226
20.36000 545.793
20.40000 548.751
20.44000 559.151
20.48000 545.558
20.52000 551.792
20.56000 544.161
20.60000 528.960
20.64000 548.149
20.68000 526.345
20.72000 540.932
20.76000 534.513
20.80000 545.477
20.84000 527.214
20.88000 549.436
20.92000 521.908
20.96000 535.769
21.00000 521.782
21.04000 517.385
21.08000 526.623
21.12000 550.659
21.16000 539.489
21.20000 535.702
21.24000 542.649
21.28000 539.185
21.32000 553.225
21.36000 537.061
21.40000 516.643
21.44000 510.938
21.48000 527.572
21.52000 545.291
21.56000 522.919
21.60000 528.056
21.64000 547.270
21.68000 527.580
21.72000 508.488
21.76000 521.854
21.80000 528.148
21.84000 534.785
21.88000 510.582
21.92000 525.779
21.96000 514.178
22.00000 528.121
22.04000 505.947
22.08000 504.857
22.12000 501.884
22.16000 519.951
22.20000 514.369
22.24000 517.149
22.28000 495.532
22.32000 504.257
22.36000 486.828
22.40000 525.368
22.44000 524.350
22.48000 538.429
22.52000 497.050
22.56000 507.603
22.60000 499.776
22.64000 495.679
22.68000 481.544
22.72000 513.755
22.76000 499.425
22.80000 494.640
22.84000 500.262
22.88000 515.786
22.92000 491.542
22.96000 508.625
23.00000 520.658
23.04000 503.302
23.08000 480.534
23.12000 499.711
23.16000 508.160
23.20000 490.569
23.24000 488.866
23.28000 488.807
23.32000 495.547
23.36000 495.868
23.40000 503.123
23.44000 503.022
23.48000 509.361
23.52000 498.054
23.56000 479.615
23.60000 488.990
23.64000 500.046
23.68000 484.737
23.72000 488.161
23.76000 494.695
23.80000 481.466
23.84000 479.343
23.88000 480.016
23.92000 492.028
23.96000 482.687
24.00000 489.834
24.04000 468.672
24.08000 469.853
24.12000 467.166
24.16000 486.952
24.20000 481.405
24.24000 503.375
24.28000 480.233
24.32000 474.093
24.36000 451.255
24.40000 467.823
24.44000 472.414
24.48000 468.769
24.52000 462.404
24.56000 498.257
24.60000 458.426
24.64000 455.485
24.68000 473.843
24.72000 466.745
24.76000 468.430
24.80000 475.936
24.84000 461.728
24.88000 461.263
24.92000 470.585
24.96000 457.274
25.00000 464.769
25.04000 459.022
25.08000 440.624
25.12000 440.461
25.16000 446.604
25.20000 466.462
25.24000 453.103
25.28000 468.113
25.32000 456.301
25.36000 444.095
25.40000 451.042
25.44000 452.468
25.48000 450.568
25.52000 472.177
25.56000 462.487
25.60000 435.095
25.64000 465.611
25.68000 439.839
25.72000 439.314
25.76000 441.494
25.80000 447.092
25.84000 447.429
25.88000 437.479
25.92000 426.586
25.96000 450.564
26.00000 449.742
26.04000 453.194
26.08000 457.685
26.12000 428.049
26.16000 430.666
26.20000 440.310
26.24000 438.062
26.28000 446.338
26.32000 440.468
26.36000 422.830
26.40000 433.784
26.44000 435.435
26.48000 424.511
26.52000 426.359
26.56000 447.090
26.60000 432.176
26.64000 439.334
26.68000 413.217
26.72000 438.048
26.76000 418.610
26.80000 432.206
26.84000 445.016
26.88000 446.657
26.92000 437.201
26.96000 423.515
27.00000 436.409
27.04000 425.978
27.08000 419.909
27.12000 449.901
27.16000 430.010
27.20000 423.956
27.24000 422.361
27.28000 422.800
27.32000 413.644
27.36000 416.185
27.40000 431.480
27.44000 406.388
27.48000 426.154
27.52000 434.180
27.56000 422.973
27.60000 425.875
27.64000 423.460
27.68000 417.397
27.72000 410.922
27.76000 419.106
27.80000 410.959
27.84000 407.035
27.88000 416.646
27.92000 422.137
27.96000 404.614
28.00000 397.673
28.04000 396.248
28.08000 395.597
28.12000 421.518
28.16000 394.400
28.20000 417.273
28.24000 424.355
28.28000 395.401
28.32000 400.461
28.36000 411.420
28.40000 398.260
28.44000 409.406
28.48000 399.533
28.52000 401.314
28.56000 402.542
28.60000 411.166
28.64000 405.298
28.68000 394.165
28.72000 413.113
28.76000 408.986
28.80000 389.220
28.84000 377.919
28.88000 406.676
28.92000 393.580
28.96000 389.200
29.00000 411.586
29.04000 388.890
29.08000 388.745
29.12000 371.154
29.16000 391.429
29.20000 379.632
29.24000 393.759
29.28000 396.332
29.32000 390.740
29.36000 396.052
29.40000 382.888
29.44000 391.615
29.48000 398.035
29.52000 395.546
29.56000 370.570
29.60000 376.387
29.64000 395.231
29.68000 379.303
29.72000 390.954
29.76000 385.383
29.80000 388.837
29.84000 381.850
29.88000 379.980
29.92000 374.040
29.96000 365.727
30.00000 385.348
30.04000 378.262
30.08000 373.477
30.12000 390.778
30.16000 364.110
30.20000 370.670
30.24000 381.414
30.28000 370.121
30.32000 354.136
30.36000 358.263
30.40000 367.059
30.44000 383.496
30.48000 380.110
30.52000 368.952
30.56000 371.017
30.60000 362.914
30.64000 369.616
30.68000 355.383
30.72000 371.048
30.76000 382.563
30.80000 375.047
30.84000 371.668
30.88000 369.013
30.92000 361.921
30.96000 377.532
31.00000 364.780
31.04000 341.084
31.08000 364.113
31.12000 378.842
31.16000 377.858
31.20000 359.513
31.24000 352.801
31.28000 358.924
31.32000 357.585
31.36000 364.001
31.40000 345.801
31.44000 351.844
31.48000 359.331
31.52000 365.180
31.56000 344.764
31.60000 357.338
31.64000 364.359
31.68000 346.159
31.72000 351.620
31.76000 361.980
31.80000 348.854
31.84000 345.133
31.88000 360.571
31.92000 339.952
31.96000 351.625
32.00000 355.241
32.04000 354.612
32.08000 349.450
32.12000 341.943
32.16000 347.048
32.20000 361.750
32.24000 334.433
32.28000 336.660
32.32000 337.431
32.36000 332.004
32.40000 342.590
32.44000 354.794
32.48000 341.055
32.52000 339.633
32.56000 340.805
32.60000 346.006
32.64000 334.230
32.68000 346.862
32.72000 347.151
32.76000 338.932
32.80000 325.864
32.84000 336.856
32.88000 336.721
32.92000 317.254
32.96000 330.038
33.00000 332.805
33.04000 327.719
33.08000 331.366
33.12000 322.341
33.16000 339.720
33.20000 328.836
33.24000 329.275
33.28000 335.112
33.32000 332.290
33.36000 326.117
33.40000 329.889
33.44000 329.909
33.48000 315.354
33.52000 323.219
33.56000 301.661
33.60000 317.918
33.64000 335.539
33.68000 329.406
33.72000 330.549
33.76000 324.703
33.80000 326.302
33.84000 327.575
33.88000 324.414
33.92000 329.199
33.96000 314.175
34.00000 329.901
34.04000 322.407
34.08000 311.412
34.12000 313.240
34.16000 306.321
34.20000 309.855
34.24000 313.616
34.28000 321.064
34.32000 310.857
34.36000 311.715
34.40000 312.970
34.44000 307.523
34.48000 309.266
34.52000 328.080
34.56000 304.095
34.60000 316.923
34.64000 305.168
34.68000 328.398
34.72000 312.242
34.76000 302.521
34.80000 310.520
34.84000 304.839
34.88000 312.186
34.92000 311.255
34.96000 304.853
35.00000 324.897
35.04000 297.276
35.08000 307.499
35.12000 299.276
35.16000 304.620
35.20000 297.067
35.24000 304.656
35.28000 306.357
35.32000 296.707
35.36000 306.119
35.40000 285.011
35.44000 303.026
35.48000 305.960
35.52000 283.362
35.56000 296.536
35.60000 293.852
35.64000 296.960
35.68000 302.604
35.72000 322.885
35.76000 300.046
35.80000 297.782
35.84000 300.061
35.88000 303.419
35.92000 286.009
35.96000 295.818
36.00000 287.873
36.04000 305.903
36.08000 302.630
36.12000 288.501
36.16000 287.149
36.20000 294.522
36.24000 299.939
36.28000 293.711
36.32000 301.801
36.36000 296.822
36.40000 290.422
36.44000 264.769
36.48000 290.068
36.52000 296.731
36.56000 289.162
36.60000 289.397
36.64000 279.883
36.68000 296.357
36.72000 298.951
36.76000 306.278
36.80000 291.021
36.84000 278.871
36.88000 279.980
36.92000 276.722
36.96000 297.189
37.00000 278.594
37.04000 277.593
37.08000 273.944
37.12000 286.476
37.16000 276.526
37.20000 282.260
37.24000 276.034
37.28000 289.203
37.32000 280.866
37.36000 280.119
37.40000 265.498
37.44000 276.885
37.48000 275.642
37.52000 263.287
37.56000 280.483
37.60000 276.719
37.64000 271.786
37.68000 252.211
37.72000 280.029
37.76000 264.909
37.80000 259.152
37.84000 261.482
37.88000 275.268
37.92000 268.729
37.96000 274.459
38.00000 266.412
38.04000 261.097
38.08000 256.479
38.12000 268.351
38.16000 269.272
38.20000 269.068
38.24000 282.407
38.28000 265.951
38.32000 256.464
38.36000 269.331
38.40000 270.563
38.44000 263.265
38.48000 261.990
38.52000 263.798
38.56000 271.051
38.60000 266.834
38.64000 263.255
38.68000 270.458
38.72000 273.619
38.76000 271.333
38.80000 272.016
38.84000 264.376
38.88000 267.702
38.92000 263.748
38.96000 265.670
39.00000 263.281
39.04000 248.297
39.08000 259.680
39.12000 253.252
39.16000 249.893
39.20000 252.683
39.24000 262.612
39.28000 267.910
39.32000 268.753
39.36000 258.921
39.40000 253.550
39.44000 251.544
39.48000 261.678
39.52000 259.564
39.56000 265.244
39.60000 258.330
39.64000 241.469
39.68000 252.905
39.72000 262.275
39.76000 243.654
39.80000 244.327
39.84000 252.434
39.88000 243.968
39.92000 257.923
39.96000 236.085
40.00000 243.638
40.04000 253.094
40.08000 253.708
40.12000 252.619
40.16000 260.696
40.20000 247.178
40.24000 244.868
40.28000 238.018
40.32000 238.394
40.36000 242.400
40.40000 249.980
40.44000 240.515
40.48000 238.596
40.52000 245.179
40.56000 229.516
40.60000 239.026
40.64000 231.317
40.68000 249.069
40.72000 232.490
40.76000 232.733
40.80000 257.639
40.84000 240.319
40.88000 245.117
40.92000 248.562
40.96000 236.069
41.00000 239.786
41.04000 232.641
41.08000 234.482
41.12000 235.248
41.16000 238.060
41.20000 229.472
41.24000 223.039
41.28000 240.146
41.32000 242.536
41.36000 239.970
41.40000 226.334
41.44000 220.577
41.48000 229.640
41.52000 236.581
41.56000 242.330
41.60000 231.387
41.64000 227.357
41.68000 227.300
41.72000 238.808
41.76000 230.057
41.80000 238.546
41.84000 224.116
41.88000 230.551
41.92000 243.104
41.96000 230.151
42.00000 240.825
42.04000 220.998
42.08000 231.797
42.12000 231.050
42.16000 237.443
42.20000 231.459
42.24000 224.848
42.28000 214.839
42.32000 232.414
42.36000 221.114
42.40000 228.238
42.44000 237.317
42.48000 216.587
42.52000 227.153
42.56000 223.084
42.60000 220.695
42.64000 218.510
42.68000 234.050
42.72000 220.570
42.76000 223.402
42.80000 211.864
42.84000 214.317
42.88000 209.340
42.92000 216.311
42.96000 215.554
43.00000 212.441
43.04000 222.915
43.08000 218.361
43.12000 214.986
43.16000 200.138
43.20000 214.403
43.24000 220.005
43.28000 208.936
43.32000 222.905
43.36000 216.146
43.40000 210.537
43.44000 212.665
43.48000 217.309
43.52000 214.906
43.56000 221.858
43.60000 208.652
43.64000 202.786
43.68000 219.923
43.72000 214.379
43.76000 227.201
43.80000 212.348
43.84000 213.587
43.88000 211.124
43.92000 204.410
43.96000 207.541
44.00000 210.548
44.04000 209.837
44.08000 204.418
44.12000 219.330
44.16000 213.193
44.20000 207.441
44.24000 197.294
44.28000 202.866
44.32000 198.428
44.36000 210.959
44.40000 205.968
44.44000 196.262
44.48000 211.785
44.52000 202.502
44.56000 206.103
44.60000 215.541
44.64000 192.576
44.68000 202.386
44.72000 197.810
44.76000 207.836
44.80000 211.896
44.84000 201.985
44.88000 203.406
44.92000 210.942
44.96000 202.711
45.00000 199.040
45.04000 206.082
45.08000 199.334
45.12000 187.753
45.16000 198.268
45.20000 209.691
45.24000 207.817
45.28000 198.490
45.32000 186.513
45.36000 194.176
45.40000 201.172
45.44000 200.984
45.48000 201.747
45.52000 200.634
45.56000 196.642
45.60000 196.705
45.64000 191.762
45.68000 194.791
45.72000 194.683
45.76000 201.586
45.80000 202.440
45.84000 193.776
45.88000 187.500
45.92000 199.131
45.96000 193.986
46.00000 186.764
46.04000 194.811
46.08000 185.429
46.12000 182.650
46.16000 194.590
46.20000 185.177
46.24000 190.932
46.28000 190.638
46.32000 185.951
46.36000 190.949
46.40000 186.059
46.44000 180.401
46.48000 182.592
46.52000 191.782
46.56000 183.125
46.60000 189.796
46.64000 192.539
46.68000 189.937
46.72000 176.915
46.76000 190.118
46.80000 176.558
46.84000 187.292
46.88000 187.199
46.92000 182.876
46.96000 182.407
47.00000 183.627
47.04000 190.386
47.08000 181.146
47.12000 189.061
47.16000 180.289
47.20000 194.122
47.24000 182.889
47.28000 177.151
47.32000 178.986
47.36000 175.691
47.40000 183.466
47.44000 190.753
47.48000 183.621
47.52000 186.101
47.56000 176.224
47.60000 182.773
47.64000 180.981
47.68000 185.469
47.72000 192.180
47.76000 193.214
47.80000 173.572
47.84000 185.972
47.88000 178.373
47.92000 166.247
47.96000 170.033
48.00000 181.987
48.04000 185.728
48.08000 188.490
48.12000 175.160
48.16000 180.391
48.20000 181.546
48.24000 183.938
48.28000 180.786
48.32000 175.237
48.36000 179.807
48.40000 187.782
48.44000 162.555
48.48000 177.379
48.52000 172.831
48.56000 177.436
48.60000 177.702
48.64000 170.044
48.68000 181.199
48.72000 185.112
48.76000 176.207
48.80000 163.270
48.84000 171.946
48.88000 175.258
48.92000 169.999
48.96000 168.172
49.00000 168.161
49.04000 174.956
49.08000 173.425
49.12000 169.656
49.16000 173.668
49.20000 171.466
49.24000 166.086
49.28000 177.302
49.32000 177.184
49.36000 180.685
49.40000 170.588
49.44000 179.386
49.48000 179.567
49.52000 169.577
49.56000 166.766
49.60000 171.297
49.64000 162.066
49.68000 175.922
49.72000 173.616
49.76000 169.998
49.80000 160.368
49.84000 161.406
49.88000 164.043
49.92000 156.818
49.96000 171.972
50.00000 162.349
50.04000 165.739
50.08000 161.998
50.12000 161.859
50.16000 169.926
50.20000 162.155
50.24000 166.838
50.28000 174.789
50.32000 155.539
50.36000 167.017
50.40000 169.595
50.44000 160.520
50.48000 156.546
50.52000 160.469
50.56000 165.927
50.60000 158.337
50.64000 163.215
50.68000 158.863
50.72000 159.522
50.76000 168.295
50.80000 165.938
50.84000 169.319
50.88000 163.050
50.92000 173.987
50.96000 158.812
51.00000 147.752
51.04000 163.584
51.08000 160.742
51.12000 164.833
51.16000 155.954
51.20000 153.332
51.24000 155.051
51.28000 167.711
51.32000 158.755
51.36000 160.121
51.40000 148.862
51.44000 156.514
51.48000 162.675
51.52000 156.982
51.56000 162.313
51.60000 161.418
51.64000 163.220
51.68000 159.095
51.72000 161.075
51.76000 171.086
51.80000 156.219
51.84000 158.100
51.88000 168.369
51.92000 162.956
51.96000 164.748
52.00000 157.596
52.04000 164.443
52.08000 149.704
52.12000 164.850
52.16000 144.651
52.20000 154.372
52.24000 162.256
52.28000 156.831
52.32000 157.474
52.36000 157.209
52.40000 160.044
52.44000 158.524
52.48000 148.264
52.52000 150.591
52.56000 150.161
52.60000 148.078
52.64000 147.379
52.68000 152.497
52.72000 157.879
52.76000 150.192
52.80000 156.034
52.84000 156.538
52.88000 141.229
52.92000 159.664
52.96000 151.468
53.00000 152.115
53.04000 142.504
53.08000 164.476
53.12000 149.183
53.16000 156.287
53.20000 147.152
53.24000 144.651
53.28000 140.782
53.32000 153.188
53.36000 151.418
53.40000 161.200
53.44000 145.344
53.48000 146.930
53.52000 146.690
53.56000 154.774
53.60000 147.358
53.64000 152.170
53.68000 149.835
53.72000 148.336
53.76000 152.139
53.80000 152.009
53.84000 147.963
53.88000 150.247
53.92000 151.908
53.96000 149.225
54.00000 147.783
54.04000 147.258
54.08000 146.321
54.12000 149.902
54.16000 139.906
54.20000 142.750
54.24000 142.621
54.28000 142.010
54.32000 146.922
54.36000 147.583
54.40000 154.373
54.44000 139.224
54.48000 136.302
54.52000 142.871
54.56000 132.732
54.60000 140.597
54.64000 138.835
54.68000 146.459
54.72000 148.992
54.76000 141.933
54.80000 142.373
54.84000 141.241
54.88000 144.145
54.92000 136.041
54.96000 141.520
55.00000 139.492
55.04000 139.766
55.08000 135.355
55.12000 143.683
55.16000 150.249
55.20000 143.020
55.24000 133.763
55.28000 137.712
55.32000 154.419
55.36000 146.528
55.40000 136.544
55.44000 132.621
55.48000 143.553
55.52000 132.475
55.56000 130.654
55.60000 146.715
55.64000 146.564
55.68000 146.472
55.72000 135.761
55.76000 130.652
55.80000 139.855
55.84000 135.576
55.88000 144.412
55.92000 143.545
55.96000 141.585
56.00000 135.877
56.04000 139.102
56.08000 154.065
56.12000 131.215
56.16000 129.197
56.20000 131.238
56.24000 134.613
56.28000 138.258
56.32000 139.303
56.36000 143.213
56.40000 141.262
56.44000 143.235
56.48000 142.019
56.52000 135.373
56.56000 147.906
56.60000 134.594
56.64000 138.543
56.68000 130.800
56.72000 144.054
56.76000 137.592
56.80000 126.712
56.84000 135.336
56.88000 134.275
56.92000 127.734
56.96000 124.443
57.00000 135.163
57.04000 143.035
57.08000 127.195
57.12000 132.125
57.16000 129.276
57.20000 138.414
57.24000 128.229
57.28000 134.202
57.32000 137.956
57.36000 125.065
57.40000 134.621
57.44000 144.945
57.48000 129.050
57.52000 134.861
57.56000 135.166
57.60000 133.394
57.64000 142.674
57.68000 136.210
57.72000 135.483
57.76000 134.489
57.80000 137.158
57.84000 121.688
57.88000 132.345
57.92000 130.889
57.96000 130.259
58.00000 131.388
58.04000 132.974
58.08000 130.907
58.12000 141.395
58.16000 136.331
58.20000 129.922
58.24000 138.279
58.28000 133.421
58.32000 144.618
58.36000 132.747
58.40000 136.217
58.44000 131.760
58.48000 135.149
58.52000 137.666
58.56000 133.606
58.60000 141.637
58.64000 131.348
58.68000 126.864
58.72000 141.193
58.76000 133.426
58.80000 129.852
58.84000 127.368
58.88000 140.099
58.92000 132.949
58.96000 136.106
59.00000 134.786
59.04000 136.905
59.08000 147.469
59.12000 134.687
59.16000 137.116
59.20000 141.819
59.24000 123.307
59.28000 128.459
59.32000 141.078
59.36000 136.588
59.40000 128.969
59.44000 123.737
59.48000 141.062
59.52000 132.433
59.56000 131.050
59.60000 138.732
59.64000 134.237
59.68000 136.232
59.72000 141.184
59.76000 129.098
59.80000 140.631
59.84000 134.911
59.88000 135.051
59.92000 130.776
59.96000 128.486
60.00000 134.679
60.04000 134.930
60.08000 132.995
60.12000 143.044
60.16000 133.667
60.20000 126.240
60.24000 131.099
60.28000 138.315
60.32000 131.916
60.36000 127.669
60.40000 132.684
60.44000 135.640
60.48000 131.290
60.52000 140.131
60.56000 131.497
60.60000 125.480
60.64000 132.031
60.68000 128.768
60.72000 136.415
60.76000 134.793
60.80000 130.545
60.84000 136.585
60.88000 131.524
60.92000 136.766
60.96000 134.260
61.00000 133.517
61.04000 130.088
61.08000 138.885
61.12000 128.665
61.16000 136.616
61.20000 137.162
61.24000 136.439
61.28000 145.361
61.32000 130.232
61.36000 129.211
61.40000 136.108
61.44000 130.942
61.48000 141.047
61.52000 161.370
61.56000 179.922
61.60000 236.286
61.64000 242.469
61.68000 253.979
61.72000 259.346
61.76000 252.992
61.80000 209.945
61.84000 181.973
61.88000 139.522
61.92000 144.524
61.96000 139.674
62.00000 136.843
62.04000 138.521
62.08000 146.904
62.12000 142.160
62.16000 130.598
62.20000 148.692
62.24000 149.336
62.28000 147.031
62.32000 143.941
62.36000 135.408
62.40000 132.879
62.44000 142.197
62.48000 157.455
62.52000 147.597
62.56000 143.764
62.60000 157.151
62.64000 137.989
62.68000 145.508
62.72000 137.688
62.76000 146.966
62.80000 136.442
62.84000 144.026
62.88000 143.640
62.92000 148.130
62.96000 143.177
63.00000 144.177
63.04000 152.826
63.08000 151.006
63.12000 148.970
63.16000 151.024
63.20000 158.594
63.24000 150.102
63.28000 149.605
63.32000 137.056
63.36000 144.326
63.40000 153.021
63.44000 147.357
63.48000 154.127
63.52000 156.905
63.56000 153.240
63.60000 152.009
63.64000 155.736
63.68000 152.379
63.72000 156.633
63.76000 145.854
63.80000 149.319
63.84000 146.764
63.88000 148.142
63.92000 152.494
63.96000 160.364
64.00000 151.816
64.04000 141.006
64.08000 163.848
64.12000 163.507
64.16000 164.564
64.20000 170.476
64.24000 171.822
64.28000 169.626
64.32000 160.635
64.36000 159.037
64.40000 166.765
64.44000 164.195
64.48000 167.831
64.52000 157.260
64.56000 172.210
64.60000 172.725
64.64000 170.255
64.68000 171.555
64.72000 177.215
64.76000 168.686
64.80000 170.350
64.84000 184.670
64.88000 164.252
64.92000 185.624
64.96000 190.361
65.00000 184.705
65.04000 185.249
65.08000 183.167
65.12000 186.554
65.16000 186.574
65.20000 198.225
65.24000 188.647
65.28000 184.704
65.32000 200.797
65.36000 208.796
65.40000 203.192
65.44000 210.450
65.48000 211.740
65.52000 209.162
65.56000 231.420
65.60000 239.608
65.64000 266.565
65.68000 315.257
65.72000 423.882
65.76000 612.701
65.80000 780.905
65.84000 887.580
65.88000 921.480
65.92000 900.380
65.96000 778.257
66.00000 622.077
66.04000 437.340
66.08000 336.055
66.12000 298.684
66.16000 301.513
66.20000 293.638
66.24000 293.664
66.28000 332.853
66.32000 354.038
66.36000 392.548
66.40000 423.108
66.44000 426.306
66.48000 412.933
66.52000 401.095
66.56000 366.699
66.60000 328.582
66.64000 328.023
66.68000 313.534
66.72000 312.218
66.76000 315.230
66.80000 316.170
66.84000 319.452
66.88000 334.024
66.92000 356.218
66.96000 345.711
67.00000 342.784
67.04000 354.342
67.08000 359.115
67.12000 365.693
67.16000 377.590
67.20000 376.089
67.24000 392.811
67.28000 396.527
67.32000 401.652
67.36000 404.752
67.40000 407.665
67.44000 408.203
67.48000 439.456
67.52000 447.022
67.56000 446.875
67.60000 451.502
67.64000 466.312
67.68000 484.459
67.72000 477.471
67.76000 458.893
67.80000 507.903
67.84000 507.660
67.88000 526.582
67.92000 521.245
67.96000 552.609
68.00000 559.271
68.04000 573.859
68.08000 570.196
68.12000 603.889
68.16000 609.708
68.20000 594.629
68.24000 615.272
68.28000 662.174
68.32000 664.559
68.36000 702.774
68.40000 672.880
68.44000 742.230
68.48000 772.793
68.52000 807.777
68.56000 848.601
68.60000 954.922
68.64000 1098.492
68.68000 1247.068
68.72000 1517.354
68.76000 1700.609
68.80000 1908.360
68.84000 2163.926
68.88000 2620.530
68.92000 3961.096
68.96000 9820.615
69.00000 24296.264
69.04000 42545.938
69.08000 53229.543
69.12000 55217.410
69.16000 56843.184
69.20000 58579.258
69.24000 51124.184
69.28000 38965.047
69.32000 31005.748
69.36000 27788.506
69.40000 23959.363
69.44000 15550.366
69.48000 7351.322
69.52000 3216.681
69.56000 1938.428
69.60000 1499.028
69.64000 1306.315
69.68000 1159.489
69.72000 1060.879
69.76000 940.992
69.80000 877.529
69.84000 835.598
69.88000 797.539
69.92000 732.868
69.96000 711.469
70.00000 686.612