File: XRD/17-09-2025/XY Data/BTO_Mapping_Theta2Theta_09-17-2025_001_07_15-000_-30-000.xy
20.00000 551.563
20.04000 562.265
20.08000 555.966
20.12000 550.791
20.16000 556.172
20.20000 584.324
20.24000 561.833
20.28000 558.045
20.32000 567.777
20.36000 524.658
20.40000 542.843
20.44000 564.672
20.48000 535.875
20.52000 544.542
20.56000 556.456
20.60000 563.498
20.64000 543.750
20.68000 541.366
20.72000 541.719
20.76000 538.103
20.80000 540.376
20.84000 551.054
20.88000 538.258
20.92000 546.566
20.96000 518.088
21.00000 554.850
21.04000 557.895
21.08000 533.810
21.12000 543.765
21.16000 530.702
21.20000 548.156
21.24000 534.470
21.28000 540.642
21.32000 547.337
21.36000 511.330
21.40000 538.228
21.44000 553.517
21.48000 536.909
21.52000 538.968
21.56000 556.138
21.60000 536.490
21.64000 556.395
21.68000 529.716
21.72000 555.184
21.76000 548.120
21.80000 563.897
21.84000 573.310
21.88000 581.922
21.92000 617.046
21.96000 625.013
22.00000 656.187
22.04000 635.921
22.08000 664.967
22.12000 651.043
22.16000 639.117
22.20000 622.302
22.24000 631.336
22.28000 595.029
22.32000 562.400
22.36000 559.306
22.40000 537.066
22.44000 547.992
22.48000 531.536
22.52000 527.361
22.56000 517.365
22.60000 540.881
22.64000 521.992
22.68000 527.092
22.72000 512.558
22.76000 498.684
22.80000 513.052
22.84000 515.061
22.88000 507.409
22.92000 510.903
22.96000 504.432
23.00000 518.439
23.04000 488.149
23.08000 501.076
23.12000 517.521
23.16000 495.900
23.20000 500.473
23.24000 528.734
23.28000 489.673
23.32000 519.315
23.36000 510.678
23.40000 499.347
23.44000 500.089
23.48000 509.378
23.52000 513.485
23.56000 506.164
23.60000 486.374
23.64000 493.715
23.68000 491.907
23.72000 481.510
23.76000 497.399
23.80000 491.853
23.84000 483.720
23.88000 482.714
23.92000 506.255
23.96000 496.925
24.00000 505.637
24.04000 514.888
24.08000 486.487
24.12000 475.377
24.16000 496.968
24.20000 485.447
24.24000 497.205
24.28000 479.076
24.32000 478.890
24.36000 485.234
24.40000 484.934
24.44000 505.169
24.48000 464.719
24.52000 498.989
24.56000 470.513
24.60000 489.638
24.64000 473.989
24.68000 465.073
24.72000 464.696
24.76000 483.277
24.80000 489.990
24.84000 477.128
24.88000 488.647
24.92000 469.495
24.96000 478.899
25.00000 471.729
25.04000 452.753
25.08000 458.212
25.12000 479.954
25.16000 465.399
25.20000 468.670
25.24000 466.123
25.28000 478.190
25.32000 483.172
25.36000 485.418
25.40000 469.066
25.44000 466.951
25.48000 473.147
25.52000 470.701
25.56000 467.259
25.60000 438.092
25.64000 449.269
25.68000 453.693
25.72000 453.926
25.76000 446.739
25.80000 452.456
25.84000 454.578
25.88000 451.037
25.92000 471.394
25.96000 450.436
26.00000 441.805
26.04000 446.104
26.08000 466.033
26.12000 461.258
26.16000 460.364
26.20000 454.280
26.24000 436.643
26.28000 452.880
26.32000 456.865
26.36000 424.527
26.40000 468.962
26.44000 448.366
26.48000 444.262
26.52000 438.319
26.56000 456.214
26.60000 456.702
26.64000 451.792
26.68000 441.592
26.72000 450.673
26.76000 443.623
26.80000 433.450
26.84000 443.918
26.88000 439.983
26.92000 456.296
26.96000 439.585
27.00000 445.665
27.04000 438.371
27.08000 444.920
27.12000 419.985
27.16000 431.354
27.20000 435.827
27.24000 439.657
27.28000 432.140
27.32000 438.910
27.36000 439.332
27.40000 433.692
27.44000 450.505
27.48000 441.210
27.52000 444.958
27.56000 416.098
27.60000 426.399
27.64000 417.471
27.68000 426.225
27.72000 447.203
27.76000 426.104
27.80000 422.783
27.84000 426.315
27.88000 418.131
27.92000 432.444
27.96000 431.464
28.00000 421.477
28.04000 421.066
28.08000 415.569
28.12000 435.376
28.16000 423.609
28.20000 409.398
28.24000 406.136
28.28000 426.485
28.32000 425.753
28.36000 404.997
28.40000 417.514
28.44000 412.334
28.48000 409.878
28.52000 402.651
28.56000 396.197
28.60000 410.977
28.64000 416.533
28.68000 414.424
28.72000 425.966
28.76000 397.964
28.80000 393.950
28.84000 413.149
28.88000 408.144
28.92000 394.009
28.96000 414.824
29.00000 403.387
29.04000 414.093
29.08000 407.098
29.12000 419.938
29.16000 413.828
29.20000 432.778
29.24000 397.900
29.28000 416.686
29.32000 397.292
29.36000 391.819
29.40000 396.079
29.44000 408.162
29.48000 415.110
29.52000 420.975
29.56000 403.762
29.60000 404.105
29.64000 394.176
29.68000 403.853
29.72000 391.333
29.76000 404.550
29.80000 401.354
29.84000 412.696
29.88000 422.604
29.92000 415.971
29.96000 428.220
30.00000 435.371
30.04000 411.095
30.08000 431.453
30.12000 437.300
30.16000 442.018
30.20000 422.105
30.24000 414.922
30.28000 415.878
30.32000 420.410
30.36000 402.322
30.40000 408.241
30.44000 399.357
30.48000 410.997
30.52000 408.162
30.56000 427.065
30.60000 421.328
30.64000 420.878
30.68000 438.689
30.72000 427.688
30.76000 449.408
30.80000 447.498
30.84000 446.430
30.88000 481.007
30.92000 490.038
30.96000 504.775
31.00000 529.666
31.04000 589.177
31.08000 674.881
31.12000 839.263
31.16000 1066.519
31.20000 1394.778
31.24000 1820.157
31.28000 2374.952
31.32000 2870.760
31.36000 3243.659
31.40000 3389.332
31.44000 3246.485
31.48000 2945.195
31.52000 2402.853
31.56000 1859.372
31.60000 1444.250
31.64000 1061.687
31.68000 740.937
31.72000 639.663
31.76000 552.003
31.80000 479.162
31.84000 475.590
31.88000 455.065
31.92000 444.786
31.96000 425.859
32.00000 416.124
32.04000 406.474
32.08000 384.902
32.12000 396.434
32.16000 394.089
32.20000 389.418
32.24000 380.348
32.28000 384.159
32.32000 375.341
32.36000 384.527
32.40000 394.121
32.44000 383.998
32.48000 381.331
32.52000 388.656
32.56000 370.280
32.60000 360.574
32.64000 374.185
32.68000 363.407
32.72000 372.630
32.76000 356.583
32.80000 368.691
32.84000 369.098
32.88000 347.178
32.92000 359.263
32.96000 347.148
33.00000 334.249
33.04000 344.223
33.08000 347.603
33.12000 352.669
33.16000 344.993
33.20000 349.551
33.24000 330.310
33.28000 344.426
33.32000 338.938
33.36000 357.018
33.40000 338.753
33.44000 334.717
33.48000 333.473
33.52000 345.616
33.56000 353.479
33.60000 339.818
33.64000 344.985
33.68000 337.218
33.72000 337.344
33.76000 342.766
33.80000 328.301
33.84000 329.464
33.88000 316.603
33.92000 332.499
33.96000 332.978
34.00000 324.836
34.04000 332.451
34.08000 331.632
34.12000 326.515
34.16000 314.408
34.20000 330.135
34.24000 346.299
34.28000 325.831
34.32000 327.323
34.36000 336.857
34.40000 335.259
34.44000 326.374
34.48000 328.893
34.52000 320.549
34.56000 335.829
34.60000 334.747
34.64000 321.353
34.68000 321.263
34.72000 334.205
34.76000 333.575
34.80000 309.712
34.84000 318.765
34.88000 315.995
34.92000 314.593
34.96000 320.771
35.00000 323.028
35.04000 326.453
35.08000 319.023
35.12000 310.467
35.16000 317.770
35.20000 299.200
35.24000 304.154
35.28000 306.529
35.32000 304.614
35.36000 300.393
35.40000 309.882
35.44000 310.216
35.48000 296.328
35.52000 307.607
35.56000 312.516
35.60000 294.714
35.64000 297.126
35.68000 307.592
35.72000 316.698
35.76000 303.549
35.80000 293.911
35.84000 307.905
35.88000 297.441
35.92000 287.934
35.96000 294.965
36.00000 291.371
36.04000 303.146
36.08000 291.035
36.12000 301.114
36.16000 291.300
36.20000 292.802
36.24000 298.294
36.28000 294.205
36.32000 289.270
36.36000 289.539
36.40000 295.521
36.44000 305.080
36.48000 299.611
36.52000 291.045
36.56000 284.754
36.60000 297.408
36.64000 304.294
36.68000 298.459
36.72000 300.844
36.76000 292.591
36.80000 285.842
36.84000 299.050
36.88000 293.560
36.92000 298.180
36.96000 288.279
37.00000 301.600
37.04000 313.233
37.08000 292.492
37.12000 287.329
37.16000 305.460
37.20000 293.895
37.24000 289.742
37.28000 292.694
37.32000 302.740
37.36000 285.348
37.40000 277.657
37.44000 274.238
37.48000 302.881
37.52000 301.166
37.56000 289.517
37.60000 294.389
37.64000 287.475
37.68000 286.232
37.72000 283.369
37.76000 297.265
37.80000 289.789
37.84000 298.166
37.88000 284.087
37.92000 282.046
37.96000 284.247
38.00000 297.507
38.04000 304.377
38.08000 292.744
38.12000 294.156
38.16000 300.120
38.20000 305.393
38.24000 307.434
38.28000 313.939
38.32000 317.722
38.36000 328.303
38.40000 352.820
38.44000 390.316
38.48000 439.485
38.52000 484.272
38.56000 581.560
38.60000 703.009
38.64000 833.210
38.68000 917.074
38.72000 992.896
38.76000 1016.697
38.80000 961.638
38.84000 894.821
38.88000 766.208
38.92000 629.039
38.96000 525.515
39.00000 419.367
39.04000 361.877
39.08000 328.258
39.12000 310.987
39.16000 295.261
39.20000 292.016
39.24000 274.680
39.28000 272.478
39.32000 273.432
39.36000 272.416
39.40000 274.892
39.44000 270.972
39.48000 260.958
39.52000 280.207
39.56000 265.493
39.60000 270.702
39.64000 272.663
39.68000 267.151
39.72000 269.573
39.76000 267.909
39.80000 257.485
39.84000 257.316
39.88000 254.568
39.92000 251.562
39.96000 244.370
40.00000 265.352
40.04000 271.785
40.08000 268.114
40.12000 265.613
40.16000 254.881
40.20000 254.794
40.24000 244.728
40.28000 268.814
40.32000 241.123
40.36000 247.496
40.40000 250.686
40.44000 259.167
40.48000 254.255
40.52000 248.412
40.56000 239.618
40.60000 252.729
40.64000 257.870
40.68000 253.392
40.72000 256.852
40.76000 240.315
40.80000 259.008
40.84000 257.536
40.88000 267.936
40.92000 246.717
40.96000 248.214
41.00000 256.024
41.04000 245.854
41.08000 256.836
41.12000 234.871
41.16000 246.348
41.20000 241.343
41.24000 231.489
41.28000 225.040
41.32000 248.421
41.36000 235.408
41.40000 238.216
41.44000 226.449
41.48000 234.355
41.52000 224.610
41.56000 239.445
41.60000 243.053
41.64000 229.761
41.68000 236.741
41.72000 238.756
41.76000 231.796
41.80000 236.349
41.84000 230.667
41.88000 242.151
41.92000 232.498
41.96000 252.169
42.00000 234.246
42.04000 230.296
42.08000 229.952
42.12000 233.018
42.16000 238.609
42.20000 241.396
42.24000 219.774
42.28000 226.195
42.32000 230.852
42.36000 227.769
42.40000 223.857
42.44000 233.267
42.48000 231.726
42.52000 228.062
42.56000 238.481
42.60000 243.982
42.64000 242.150
42.68000 220.023
42.72000 223.132
42.76000 232.095
42.80000 217.750
42.84000 227.313
42.88000 232.161
42.92000 234.644
42.96000 221.974
43.00000 219.837
43.04000 230.492
43.08000 228.125
43.12000 218.689
43.16000 225.423
43.20000 233.683
43.24000 229.699
43.28000 219.504
43.32000 220.532
43.36000 219.865
43.40000 208.758
43.44000 219.095
43.48000 218.587
43.52000 219.614
43.56000 211.903
43.60000 216.713
43.64000 207.064
43.68000 223.780
43.72000 216.918
43.76000 215.186
43.80000 218.655
43.84000 216.661
43.88000 218.309
43.92000 223.138
43.96000 229.910
44.00000 217.414
44.04000 213.582
44.08000 221.335
44.12000 225.541
44.16000 214.128
44.20000 226.899
44.24000 214.822
44.28000 211.757
44.32000 212.177
44.36000 222.267
44.40000 212.014
44.44000 218.513
44.48000 214.210
44.52000 218.961
44.56000 217.777
44.60000 227.549
44.64000 236.436
44.68000 239.186
44.72000 227.245
44.76000 225.658
44.80000 224.820
44.84000 240.604
44.88000 256.410
44.92000 266.118
44.96000 265.219
45.00000 281.943
45.04000 304.731
45.08000 317.475
45.12000 328.649
45.16000 312.764
45.20000 319.772
45.24000 320.902
45.28000 283.613
45.32000 268.956
45.36000 270.938
45.40000 257.243
45.44000 248.737
45.48000 237.633
45.52000 233.978
45.56000 230.393
45.60000 224.810
45.64000 223.739
45.68000 216.098
45.72000 211.429
45.76000 220.937
45.80000 208.224
45.84000 229.000
45.88000 219.105
45.92000 214.839
45.96000 210.636
46.00000 194.943
46.04000 198.279
46.08000 205.472
46.12000 197.107
46.16000 201.399
46.20000 196.433
46.24000 192.638
46.28000 193.412
46.32000 206.697
46.36000 195.302
46.40000 206.481
46.44000 199.804
46.48000 203.206
46.52000 200.923
46.56000 212.481
46.60000 201.712
46.64000 206.143
46.68000 202.418
46.72000 208.764
46.76000 204.625
46.80000 195.099
46.84000 196.075
46.88000 183.178
46.92000 196.826
46.96000 196.937
47.00000 191.080
47.04000 197.577
47.08000 192.363
47.12000 196.111
47.16000 188.157
47.20000 195.006
47.24000 186.035
47.28000 176.828
47.32000 193.621
47.36000 184.937
47.40000 191.801
47.44000 181.399
47.48000 183.641
47.52000 176.545
47.56000 193.630
47.60000 180.825
47.64000 179.151
47.68000 189.928
47.72000 184.278
47.76000 180.856
47.80000 198.227
47.84000 185.099
47.88000 189.937
47.92000 179.133
47.96000 179.819
48.00000 178.501
48.04000 175.622
48.08000 191.659
48.12000 183.535
48.16000 182.657
48.20000 178.804
48.24000 176.537
48.28000 183.955
48.32000 174.470
48.36000 182.144
48.40000 181.481
48.44000 164.023
48.48000 183.784
48.52000 178.843
48.56000 189.378
48.60000 181.359
48.64000 193.411
48.68000 178.308
48.72000 176.114
48.76000 172.372
48.80000 181.358
48.84000 171.163
48.88000 174.653
48.92000 175.045
48.96000 173.602
49.00000 183.057
49.04000 163.414
49.08000 183.102
49.12000 175.714
49.16000 175.111
49.20000 175.694
49.24000 168.608
49.28000 185.194
49.32000 174.173
49.36000 179.629
49.40000 166.496
49.44000 169.927
49.48000 181.242
49.52000 179.691
49.56000 179.537
49.60000 180.225
49.64000 168.560
49.68000 164.402
49.72000 176.637
49.76000 162.503
49.80000 167.097
49.84000 174.390
49.88000 161.384
49.92000 168.274
49.96000 166.323
50.00000 181.206
50.04000 184.411
50.08000 190.473
50.12000 170.130
50.16000 166.702
50.20000 187.161
50.24000 178.959
50.28000 174.238
50.32000 184.668
50.36000 191.897
50.40000 193.654
50.44000 202.431
50.48000 206.357
50.52000 202.504
50.56000 219.834
50.60000 216.257
50.64000 233.545
50.68000 237.207
50.72000 251.836
50.76000 255.790
50.80000 254.801
50.84000 255.264
50.88000 238.280
50.92000 217.546
50.96000 212.440
51.00000 195.533
51.04000 199.874
51.08000 189.209
51.12000 192.222
51.16000 172.687
51.20000 170.313
51.24000 176.636
51.28000 169.893
51.32000 177.541
51.36000 173.152
51.40000 156.989
51.44000 150.234
51.48000 158.679
51.52000 173.865
51.56000 159.281
51.60000 165.881
51.64000 163.401
51.68000 159.434
51.72000 163.626
51.76000 159.845
51.80000 160.745
51.84000 168.972
51.88000 164.673
51.92000 159.310
51.96000 158.251
52.00000 159.559
52.04000 158.449
52.08000 152.316
52.12000 160.037
52.16000 155.965
52.20000 165.745
52.24000 170.450
52.28000 168.884
52.32000 156.530
52.36000 153.076
52.40000 158.234
52.44000 163.655
52.48000 162.901
52.52000 154.239
52.56000 156.282
52.60000 160.487
52.64000 151.171
52.68000 156.584
52.72000 153.990
52.76000 158.258
52.80000 160.697
52.84000 151.989
52.88000 144.259
52.92000 154.955
52.96000 150.779
53.00000 150.301
53.04000 147.390
53.08000 157.780
53.12000 161.428
53.16000 148.490
53.20000 149.810
53.24000 165.561
53.28000 154.467
53.32000 164.131
53.36000 161.471
53.40000 163.116
53.44000 159.975
53.48000 150.019
53.52000 150.348
53.56000 159.744
53.60000 166.659
53.64000 152.012
53.68000 154.552
53.72000 155.776
53.76000 147.796
53.80000 162.598
53.84000 157.771
53.88000 166.237
53.92000 152.817
53.96000 155.044
54.00000 153.042
54.04000 145.943
54.08000 153.366
54.12000 156.684
54.16000 153.083
54.20000 140.999
54.24000 153.457
54.28000 164.930
54.32000 160.406
54.36000 162.011
54.40000 154.237
54.44000 158.280
54.48000 154.069
54.52000 148.371
54.56000 147.032
54.60000 157.946
54.64000 155.624
54.68000 154.991
54.72000 153.510
54.76000 154.799
54.80000 157.625
54.84000 137.592
54.88000 151.306
54.92000 160.095
54.96000 150.657
55.00000 155.889
55.04000 160.480
55.08000 157.620
55.12000 167.597
55.16000 159.643
55.20000 161.711
55.24000 161.322
55.28000 152.711
55.32000 168.098
55.36000 171.420
55.40000 168.749
55.44000 179.110
55.48000 179.654
55.52000 200.369
55.56000 203.243
55.60000 213.126
55.64000 234.825
55.68000 254.072
55.72000 306.456
55.76000 347.910
55.80000 428.289
55.84000 492.864
55.88000 568.179
55.92000 596.735
55.96000 634.561
56.00000 621.538
56.04000 628.025
56.08000 581.891
56.12000 528.423
56.16000 468.849
56.20000 398.282
56.24000 333.245
56.28000 283.454
56.32000 257.339
56.36000 234.272
56.40000 201.179
56.44000 186.344
56.48000 178.756
56.52000 169.684
56.56000 166.553
56.60000 155.575
56.64000 157.103
56.68000 156.029
56.72000 166.534
56.76000 154.978
56.80000 151.308
56.84000 142.837
56.88000 147.358
56.92000 159.007
56.96000 147.791
57.00000 147.334
57.04000 144.725
57.08000 146.231
57.12000 133.272
57.16000 135.886
57.20000 138.255
57.24000 142.477
57.28000 148.493
57.32000 147.285
57.36000 153.358
57.40000 145.221
57.44000 145.132
57.48000 141.890
57.52000 153.921
57.56000 135.125
57.60000 135.012
57.64000 143.573
57.68000 143.372
57.72000 142.514
57.76000 142.771
57.80000 138.648
57.84000 138.968
57.88000 134.439
57.92000 146.460
57.96000 130.883
58.00000 136.386
58.04000 146.276
58.08000 146.569
58.12000 141.887
58.16000 140.679
58.20000 142.429
58.24000 134.401
58.28000 140.416
58.32000 138.849
58.36000 137.149
58.40000 141.786
58.44000 141.626
58.48000 125.407
58.52000 137.036
58.56000 133.483
58.60000 137.410
58.64000 130.496
58.68000 144.174
58.72000 140.389
58.76000 134.823
58.80000 131.885
58.84000 135.588
58.88000 135.678
58.92000 133.954
58.96000 133.040
59.00000 135.787
59.04000 133.575
59.08000 141.108
59.12000 137.143
59.16000 135.139
59.20000 135.252
59.24000 139.443
59.28000 136.007
59.32000 136.710
59.36000 132.379
59.40000 130.755
59.44000 130.770
59.48000 142.973
59.52000 138.071
59.56000 127.888
59.60000 131.272
59.64000 129.758
59.68000 128.721
59.72000 136.973
59.76000 129.801
59.80000 124.472
59.84000 131.666
59.88000 128.804
59.92000 145.897
59.96000 129.059
60.00000 139.351
60.04000 128.653
60.08000 135.991
60.12000 122.847
60.16000 134.440
60.20000 134.319
60.24000 131.925
60.28000 133.729
60.32000 129.342
60.36000 125.001
60.40000 134.876
60.44000 123.098
60.48000 132.642
60.52000 134.185
60.56000 133.299
60.60000 141.366
60.64000 123.435
60.68000 125.889
60.72000 126.041
60.76000 127.613
60.80000 132.530
60.84000 133.430
60.88000 132.905
60.92000 128.362
60.96000 138.790
61.00000 136.527
61.04000 139.954
61.08000 128.484
61.12000 126.976
61.16000 141.012
61.20000 138.989
61.24000 139.320
61.28000 128.858
61.32000 128.241
61.36000 138.093
61.40000 131.610
61.44000 146.400
61.48000 147.456
61.52000 162.071
61.56000 187.690
61.60000 227.150
61.64000 254.654
61.68000 246.402
61.72000 265.938
61.76000 236.509
61.80000 203.032
61.84000 172.765
61.88000 150.582
61.92000 146.505
61.96000 145.157
62.00000 144.977
62.04000 141.395
62.08000 126.681
62.12000 133.064
62.16000 141.632
62.20000 140.015
62.24000 130.181
62.28000 141.470
62.32000 140.237
62.36000 139.636
62.40000 147.189
62.44000 140.616
62.48000 142.635
62.52000 134.401
62.56000 142.008
62.60000 133.771
62.64000 138.162
62.68000 156.339
62.72000 143.365
62.76000 149.064
62.80000 141.550
62.84000 147.317
62.88000 152.690
62.92000 148.115
62.96000 142.966
63.00000 145.105
63.04000 143.662
63.08000 129.047
63.12000 150.961
63.16000 142.755
63.20000 152.787
63.24000 156.913
63.28000 146.936
63.32000 140.653
63.36000 142.478
63.40000 136.262
63.44000 137.347
63.48000 141.623
63.52000 159.895
63.56000 145.679
63.60000 147.613
63.64000 156.591
63.68000 143.646
63.72000 146.349
63.76000 144.165
63.80000 137.078
63.84000 149.713
63.88000 152.009
63.92000 153.288
63.96000 147.113
64.00000 156.077
64.04000 155.885
64.08000 152.179
64.12000 149.274
64.16000 141.521
64.20000 158.848
64.24000 151.959
64.28000 152.936
64.32000 164.084
64.36000 180.952
64.40000 161.550
64.44000 167.734
64.48000 167.957
64.52000 159.830
64.56000 159.554
64.60000 171.215
64.64000 172.020
64.68000 168.741
64.72000 164.901
64.76000 174.015
64.80000 174.860
64.84000 172.806
64.88000 169.277
64.92000 181.684
64.96000 192.377
65.00000 182.717
65.04000 184.019
65.08000 191.243
65.12000 193.068
65.16000 198.281
65.20000 225.514
65.24000 228.610
65.28000 237.498
65.32000 244.178
65.36000 261.929
65.40000 290.667
65.44000 332.920
65.48000 329.448
65.52000 384.057
65.56000 389.628
65.60000 419.597
65.64000 441.903
65.68000 478.419
65.72000 615.559
65.76000 799.244
65.80000 958.035
65.84000 992.570
65.88000 992.825
65.92000 941.505
65.96000 795.829
66.00000 541.981
66.04000 399.711
66.08000 324.423
66.12000 299.846
66.16000 295.204
66.20000 279.607
66.24000 293.674
66.28000 321.448
66.32000 370.211
66.36000 386.553
66.40000 405.547
66.44000 416.411
66.48000 409.449
66.52000 394.578
66.56000 346.830
66.60000 306.730
66.64000 292.862
66.68000 295.319
66.72000 291.763
66.76000 301.215
66.80000 308.717
66.84000 310.326
66.88000 310.593
66.92000 331.059
66.96000 315.133
67.00000 319.714
67.04000 334.242
67.08000 321.450
67.12000 338.944
67.16000 337.011
67.20000 347.024
67.24000 363.652
67.28000 364.698
67.32000 348.394
67.36000 369.239
67.40000 377.124
67.44000 378.641
67.48000 406.375
67.52000 419.710
67.56000 412.066
67.60000 409.859
67.64000 429.541
67.68000 422.487
67.72000 433.504
67.76000 440.254
67.80000 442.210
67.84000 449.462
67.88000 470.414
67.92000 476.522
67.96000 491.996
68.00000 486.536
68.04000 486.868
68.08000 510.398
68.12000 517.826
68.16000 541.049
68.20000 560.414
68.24000 577.254
68.28000 585.035
68.32000 617.460
68.36000 639.653
68.40000 649.548
68.44000 668.663
68.48000 703.863
68.52000 732.462
68.56000 794.693
68.60000 926.491
68.64000 1044.568
68.68000 1224.516
68.72000 1447.350
68.76000 1616.269
68.80000 1827.873
68.84000 2056.457
68.88000 2637.340
68.92000 4721.841
68.96000 12780.466
69.00000 29121.707
69.04000 44748.535
69.08000 51761.656
69.12000 52573.109
69.16000 54958.582
69.20000 54711.996
69.24000 44732.531
69.28000 34219.715
69.32000 28057.252
69.36000 25483.594
69.40000 20572.990
69.44000 11925.515
69.48000 5410.827
69.52000 2398.975
69.56000 1605.745
69.60000 1319.609
69.64000 1125.105
69.68000 1028.098
69.72000 913.978
69.76000 866.549
69.80000 782.992
69.84000 764.071
69.88000 729.213
69.92000 716.012
69.96000 671.079
70.00000 637.252