File: XRD/17-09-2025/XY Data/BTO_Mapping_Theta2Theta_09-17-2025_001_14_30-000_-15-000.xy
20.00000 565.680
20.04000 568.987
20.08000 526.920
20.12000 548.687
20.16000 550.691
20.20000 560.759
20.24000 547.627
20.28000 551.513
20.32000 561.940
20.36000 564.622
20.40000 545.643
20.44000 560.680
20.48000 538.411
20.52000 555.558
20.56000 535.628
20.60000 534.601
20.64000 531.258
20.68000 555.676
20.72000 564.575
20.76000 545.044
20.80000 537.442
20.84000 550.667
20.88000 543.594
20.92000 544.146
20.96000 547.714
21.00000 560.778
21.04000 531.957
21.08000 520.090
21.12000 540.232
21.16000 560.113
21.20000 549.722
21.24000 558.898
21.28000 524.460
21.32000 545.145
21.36000 554.028
21.40000 540.632
21.44000 529.156
21.48000 550.724
21.52000 532.834
21.56000 535.615
21.60000 537.819
21.64000 533.067
21.68000 548.600
21.72000 537.885
21.76000 560.252
21.80000 544.741
21.84000 571.966
21.88000 579.090
21.92000 599.325
21.96000 595.998
22.00000 616.778
22.04000 629.504
22.08000 672.548
22.12000 628.913
22.16000 621.785
22.20000 605.718
22.24000 583.602
22.28000 564.072
22.32000 560.480
22.36000 554.752
22.40000 522.125
22.44000 533.232
22.48000 539.139
22.52000 524.339
22.56000 530.544
22.60000 519.178
22.64000 510.754
22.68000 521.848
22.72000 523.367
22.76000 508.283
22.80000 494.418
22.84000 505.178
22.88000 501.030
22.92000 507.135
22.96000 506.213
23.00000 509.091
23.04000 509.234
23.08000 506.781
23.12000 486.740
23.16000 503.572
23.20000 503.743
23.24000 524.542
23.28000 506.401
23.32000 498.472
23.36000 499.626
23.40000 508.015
23.44000 508.288
23.48000 500.548
23.52000 487.796
23.56000 488.728
23.60000 510.311
23.64000 492.677
23.68000 490.380
23.72000 503.175
23.76000 522.010
23.80000 501.776
23.84000 530.337
23.88000 504.394
23.92000 525.106
23.96000 526.092
24.00000 527.689
24.04000 543.719
24.08000 525.636
24.12000 515.055
24.16000 518.907
24.20000 504.284
24.24000 492.314
24.28000 496.199
24.32000 497.625
24.36000 499.409
24.40000 492.670
24.44000 487.075
24.48000 483.869
24.52000 482.172
24.56000 509.212
24.60000 456.034
24.64000 495.557
24.68000 467.437
24.72000 480.222
24.76000 465.880
24.80000 478.513
24.84000 462.261
24.88000 483.734
24.92000 467.192
24.96000 484.176
25.00000 460.465
25.04000 467.691
25.08000 471.467
25.12000 472.280
25.16000 468.149
25.20000 438.657
25.24000 452.338
25.28000 465.786
25.32000 470.646
25.36000 484.220
25.40000 451.832
25.44000 463.581
25.48000 465.195
25.52000 453.634
25.56000 471.470
25.60000 465.790
25.64000 469.976
25.68000 472.214
25.72000 464.565
25.76000 467.911
25.80000 453.254
25.84000 460.336
25.88000 448.857
25.92000 449.669
25.96000 454.425
26.00000 464.822
26.04000 456.869
26.08000 448.632
26.12000 446.695
26.16000 456.502
26.20000 451.535
26.24000 450.189
26.28000 447.131
26.32000 455.255
26.36000 441.447
26.40000 433.086
26.44000 445.317
26.48000 443.976
26.52000 448.420
26.56000 456.804
26.60000 447.685
26.64000 437.488
26.68000 435.310
26.72000 434.632
26.76000 433.031
26.80000 439.057
26.84000 439.142
26.88000 437.153
26.92000 436.816
26.96000 420.791
27.00000 424.931
27.04000 437.311
27.08000 449.439
27.12000 434.531
27.16000 419.622
27.20000 413.636
27.24000 414.366
27.28000 443.556
27.32000 439.502
27.36000 437.068
27.40000 423.509
27.44000 419.747
27.48000 430.617
27.52000 441.304
27.56000 434.547
27.60000 432.795
27.64000 418.469
27.68000 412.158
27.72000 418.958
27.76000 439.568
27.80000 421.973
27.84000 424.053
27.88000 428.309
27.92000 415.107
27.96000 418.098
28.00000 424.248
28.04000 423.651
28.08000 432.944
28.12000 423.981
28.16000 433.332
28.20000 418.337
28.24000 418.133
28.28000 413.282
28.32000 429.004
28.36000 429.228
28.40000 421.917
28.44000 408.591
28.48000 416.004
28.52000 411.471
28.56000 411.078
28.60000 420.453
28.64000 408.378
28.68000 410.791
28.72000 411.880
28.76000 413.533
28.80000 415.861
28.84000 417.466
28.88000 420.200
28.92000 404.782
28.96000 413.633
29.00000 405.724
29.04000 404.593
29.08000 421.406
29.12000 400.507
29.16000 399.537
29.20000 407.298
29.24000 413.231
29.28000 407.348
29.32000 410.678
29.36000 398.034
29.40000 397.952
29.44000 400.597
29.48000 407.378
29.52000 405.825
29.56000 401.760
29.60000 398.743
29.64000 398.842
29.68000 400.566
29.72000 423.617
29.76000 402.064
29.80000 403.936
29.84000 414.273
29.88000 407.210
29.92000 414.013
29.96000 419.821
30.00000 417.661
30.04000 436.409
30.08000 422.711
30.12000 416.924
30.16000 403.444
30.20000 415.966
30.24000 412.214
30.28000 405.402
30.32000 388.686
30.36000 389.850
30.40000 408.111
30.44000 420.968
30.48000 408.477
30.52000 397.833
30.56000 411.457
30.60000 400.531
30.64000 407.843
30.68000 421.110
30.72000 411.984
30.76000 456.696
30.80000 421.392
30.84000 428.546
30.88000 446.492
30.92000 441.734
30.96000 457.692
31.00000 500.072
31.04000 521.229
31.08000 606.176
31.12000 713.425
31.16000 872.125
31.20000 1088.276
31.24000 1355.310
31.28000 1690.729
31.32000 1939.536
31.36000 2123.165
31.40000 2174.990
31.44000 2069.481
31.48000 1863.630
31.52000 1588.113
31.56000 1271.089
31.60000 1013.713
31.64000 793.744
31.68000 643.809
31.72000 570.000
31.76000 513.486
31.80000 445.737
31.84000 434.718
31.88000 441.259
31.92000 420.616
31.96000 396.152
32.00000 396.835
32.04000 398.535
32.08000 381.657
32.12000 391.987
32.16000 398.882
32.20000 387.635
32.24000 397.074
32.28000 385.169
32.32000 385.663
32.36000 381.699
32.40000 378.145
32.44000 364.275
32.48000 369.851
32.52000 382.087
32.56000 371.029
32.60000 347.577
32.64000 365.644
32.68000 364.980
32.72000 365.436
32.76000 362.043
32.80000 368.197
32.84000 355.725
32.88000 354.365
32.92000 348.580
32.96000 354.561
33.00000 364.533
33.04000 344.527
33.08000 335.228
33.12000 351.639
33.16000 349.821
33.20000 348.833
33.24000 344.822
33.28000 346.913
33.32000 331.464
33.36000 336.453
33.40000 332.373
33.44000 330.852
33.48000 332.248
33.52000 341.180
33.56000 335.284
33.60000 355.622
33.64000 333.546
33.68000 340.880
33.72000 346.547
33.76000 342.335
33.80000 334.638
33.84000 349.856
33.88000 329.572
33.92000 333.831
33.96000 327.415
34.00000 361.656
34.04000 349.673
34.08000 347.087
34.12000 334.237
34.16000 340.832
34.20000 331.145
34.24000 352.449
34.28000 356.083
34.32000 355.386
34.36000 381.345
34.40000 353.948
34.44000 352.716
34.48000 345.820
34.52000 344.563
34.56000 344.232
34.60000 348.527
34.64000 341.342
34.68000 343.839
34.72000 322.019
34.76000 314.553
34.80000 314.817
34.84000 319.787
34.88000 333.558
34.92000 315.269
34.96000 313.673
35.00000 314.636
35.04000 311.490
35.08000 304.345
35.12000 307.827
35.16000 317.218
35.20000 302.185
35.24000 302.883
35.28000 299.526
35.32000 315.069
35.36000 303.248
35.40000 294.206
35.44000 295.891
35.48000 306.298
35.52000 284.697
35.56000 304.213
35.60000 313.266
35.64000 297.334
35.68000 302.424
35.72000 306.918
35.76000 309.350
35.80000 307.625
35.84000 303.296
35.88000 304.235
35.92000 306.199
35.96000 301.976
36.00000 318.274
36.04000 293.139
36.08000 294.625
36.12000 292.115
36.16000 298.636
36.20000 295.935
36.24000 286.337
36.28000 304.463
36.32000 305.265
36.36000 305.066
36.40000 300.407
36.44000 278.831
36.48000 304.853
36.52000 296.295
36.56000 284.159
36.60000 296.245
36.64000 296.480
36.68000 297.627
36.72000 316.890
36.76000 299.227
36.80000 294.826
36.84000 290.276
36.88000 293.477
36.92000 303.027
36.96000 297.571
37.00000 292.661
37.04000 296.204
37.08000 300.808
37.12000 297.918
37.16000 298.120
37.20000 293.366
37.24000 292.743
37.28000 297.291
37.32000 288.580
37.36000 296.786
37.40000 299.545
37.44000 298.796
37.48000 293.727
37.52000 291.163
37.56000 298.260
37.60000 286.545
37.64000 291.186
37.68000 306.468
37.72000 286.692
37.76000 296.948
37.80000 288.850
37.84000 268.321
37.88000 280.446
37.92000 295.528
37.96000 296.783
38.00000 291.248
38.04000 283.007
38.08000 305.364
38.12000 294.294
38.16000 295.985
38.20000 302.162
38.24000 308.475
38.28000 299.724
38.32000 324.791
38.36000 341.891
38.40000 357.487
38.44000 395.623
38.48000 427.141
38.52000 519.466
38.56000 633.574
38.60000 780.947
38.64000 929.489
38.68000 1038.189
38.72000 1096.811
38.76000 1146.674
38.80000 1086.346
38.84000 985.774
38.88000 857.250
38.92000 699.989
38.96000 566.892
39.00000 455.311
39.04000 378.540
39.08000 331.951
39.12000 315.803
39.16000 304.477
39.20000 296.984
39.24000 295.907
39.28000 283.393
39.32000 288.521
39.36000 261.451
39.40000 271.823
39.44000 271.181
39.48000 276.804
39.52000 282.724
39.56000 265.888
39.60000 276.562
39.64000 267.420
39.68000 256.829
39.72000 266.148
39.76000 281.490
39.80000 275.770
39.84000 261.865
39.88000 272.653
39.92000 274.687
39.96000 256.066
40.00000 270.023
40.04000 249.740
40.08000 259.391
40.12000 258.306
40.16000 267.734
40.20000 258.431
40.24000 253.958
40.28000 240.038
40.32000 251.018
40.36000 258.849
40.40000 249.033
40.44000 255.311
40.48000 240.552
40.52000 249.144
40.56000 263.950
40.60000 243.129
40.64000 240.458
40.68000 251.979
40.72000 241.497
40.76000 246.059
40.80000 237.188
40.84000 245.037
40.88000 240.435
40.92000 245.895
40.96000 244.717
41.00000 247.333
41.04000 249.248
41.08000 245.892
41.12000 242.628
41.16000 247.246
41.20000 229.528
41.24000 244.393
41.28000 256.159
41.32000 246.049
41.36000 235.247
41.40000 244.579
41.44000 240.022
41.48000 220.567
41.52000 251.320
41.56000 249.769
41.60000 248.307
41.64000 228.779
41.68000 231.922
41.72000 241.241
41.76000 231.412
41.80000 246.005
41.84000 240.454
41.88000 225.962
41.92000 247.000
41.96000 235.350
42.00000 243.832
42.04000 240.124
42.08000 238.645
42.12000 228.192
42.16000 228.508
42.20000 233.639
42.24000 229.190
42.28000 230.977
42.32000 226.146
42.36000 238.244
42.40000 236.549
42.44000 232.911
42.48000 225.560
42.52000 225.790
42.56000 242.915
42.60000 232.804
42.64000 224.361
42.68000 236.343
42.72000 215.088
42.76000 224.442
42.80000 214.615
42.84000 235.513
42.88000 234.191
42.92000 224.024
42.96000 226.268
43.00000 220.800
43.04000 215.827
43.08000 237.194
43.12000 227.884
43.16000 238.641
43.20000 223.618
43.24000 231.698
43.28000 224.560
43.32000 227.472
43.36000 229.435
43.40000 215.942
43.44000 232.778
43.48000 208.228
43.52000 210.977
43.56000 224.687
43.60000 235.026
43.64000 237.863
43.68000 229.454
43.72000 219.494
43.76000 225.820
43.80000 211.645
43.84000 215.861
43.88000 204.651
43.92000 226.429
43.96000 210.924
44.00000 230.787
44.04000 214.791
44.08000 224.444
44.12000 220.882
44.16000 226.199
44.20000 211.424
44.24000 218.402
44.28000 202.979
44.32000 212.376
44.36000 219.000
44.40000 226.183
44.44000 214.086
44.48000 227.783
44.52000 220.088
44.56000 235.390
44.60000 230.903
44.64000 218.176
44.68000 225.548
44.72000 220.868
44.76000 249.636
44.80000 235.342
44.84000 249.071
44.88000 261.146
44.92000 270.534
44.96000 279.008
45.00000 287.595
45.04000 295.806
45.08000 300.705
45.12000 303.122
45.16000 303.775
45.20000 295.432
45.24000 271.955
45.28000 292.705
45.32000 266.889
45.36000 245.761
45.40000 242.672
45.44000 241.800
45.48000 242.927
45.52000 221.939
45.56000 230.904
45.60000 225.620
45.64000 214.424
45.68000 214.616
45.72000 219.316
45.76000 197.538
45.80000 208.410
45.84000 201.853
45.88000 198.995
45.92000 203.977
45.96000 190.097
46.00000 196.476
46.04000 207.860
46.08000 194.455
46.12000 205.743
46.16000 200.408
46.20000 206.660
46.24000 206.682
46.28000 196.193
46.32000 213.922
46.36000 192.718
46.40000 213.568
46.44000 202.734
46.48000 197.931
46.52000 198.109
46.56000 203.000
46.60000 206.435
46.64000 205.569
46.68000 193.614
46.72000 199.887
46.76000 192.203
46.80000 200.304
46.84000 202.010
46.88000 194.462
46.92000 198.189
46.96000 204.040
47.00000 187.024
47.04000 182.484
47.08000 195.336
47.12000 193.365
47.16000 197.603
47.20000 186.767
47.24000 185.344
47.28000 178.875
47.32000 196.203
47.36000 184.730
47.40000 191.816
47.44000 186.549
47.48000 196.326
47.52000 182.980
47.56000 189.163
47.60000 183.073
47.64000 189.016
47.68000 195.080
47.72000 194.586
47.76000 173.676
47.80000 178.005
47.84000 186.639
47.88000 185.274
47.92000 181.214
47.96000 185.917
48.00000 188.950
48.04000 183.348
48.08000 177.937
48.12000 177.085
48.16000 182.672
48.20000 178.653
48.24000 175.450
48.28000 181.414
48.32000 188.904
48.36000 172.098
48.40000 182.538
48.44000 180.716
48.48000 176.142
48.52000 176.309
48.56000 169.960
48.60000 164.866
48.64000 170.784
48.68000 178.105
48.72000 177.853
48.76000 188.259
48.80000 172.932
48.84000 169.612
48.88000 172.422
48.92000 173.477
48.96000 176.918
49.00000 188.713
49.04000 187.789
49.08000 180.894
49.12000 182.181
49.16000 179.262
49.20000 187.286
49.24000 180.753
49.28000 172.548
49.32000 174.655
49.36000 174.018
49.40000 168.181
49.44000 170.912
49.48000 180.172
49.52000 166.991
49.56000 168.616
49.60000 166.500
49.64000 180.142
49.68000 175.103
49.72000 167.267
49.76000 171.391
49.80000 181.845
49.84000 169.199
49.88000 177.338
49.92000 179.727
49.96000 170.977
50.00000 164.156
50.04000 168.850
50.08000 177.961
50.12000 170.003
50.16000 163.094
50.20000 175.174
50.24000 176.818
50.28000 176.359
50.32000 184.496
50.36000 183.011
50.40000 182.647
50.44000 190.236
50.48000 179.044
50.52000 202.176
50.56000 196.563
50.60000 214.538
50.64000 219.348
50.68000 218.188
50.72000 206.534
50.76000 212.629
50.80000 216.697
50.84000 206.418
50.88000 204.599
50.92000 206.186
50.96000 194.087
51.00000 181.969
51.04000 181.064
51.08000 179.934
51.12000 172.544
51.16000 171.454
51.20000 170.255
51.24000 161.536
51.28000 163.676
51.32000 167.017
51.36000 162.294
51.40000 158.090
51.44000 173.720
51.48000 161.374
51.52000 176.799
51.56000 170.802
51.60000 170.845
51.64000 173.114
51.68000 158.180
51.72000 148.103
51.76000 154.378
51.80000 155.182
51.84000 159.252
51.88000 159.772
51.92000 166.950
51.96000 153.547
52.00000 166.558
52.04000 159.365
52.08000 159.222
52.12000 157.398
52.16000 154.632
52.20000 161.354
52.24000 167.236
52.28000 159.538
52.32000 163.667
52.36000 149.684
52.40000 156.392
52.44000 151.920
52.48000 159.116
52.52000 154.469
52.56000 161.760
52.60000 154.308
52.64000 154.415
52.68000 155.623
52.72000 161.415
52.76000 150.829
52.80000 166.448
52.84000 156.569
52.88000 147.592
52.92000 157.721
52.96000 143.937
53.00000 161.524
53.04000 156.231
53.08000 158.011
53.12000 163.227
53.16000 154.730
53.20000 155.512
53.24000 160.827
53.28000 170.141
53.32000 168.136
53.36000 158.087
53.40000 157.148
53.44000 158.590
53.48000 156.065
53.52000 166.721
53.56000 161.455
53.60000 147.666
53.64000 169.524
53.68000 161.236
53.72000 156.959
53.76000 161.052
53.80000 172.506
53.84000 144.441
53.88000 158.708
53.92000 138.895
53.96000 148.844
54.00000 150.088
54.04000 158.714
54.08000 151.575
54.12000 148.714
54.16000 149.739
54.20000 153.222
54.24000 153.427
54.28000 153.268
54.32000 162.197
54.36000 158.006
54.40000 160.937
54.44000 153.340
54.48000 160.932
54.52000 156.595
54.56000 160.146
54.60000 148.518
54.64000 147.300
54.68000 146.289
54.72000 153.692
54.76000 150.083
54.80000 159.176
54.84000 157.552
54.88000 152.607
54.92000 159.816
54.96000 167.031
55.00000 163.482
55.04000 168.736
55.08000 154.800
55.12000 155.466
55.16000 159.931
55.20000 160.206
55.24000 170.220
55.28000 170.260
55.32000 163.540
55.36000 153.662
55.40000 175.291
55.44000 167.166
55.48000 190.069
55.52000 188.612
55.56000 206.618
55.60000 211.429
55.64000 240.327
55.68000 291.240
55.72000 317.813
55.76000 386.936
55.80000 414.575
55.84000 476.066
55.88000 523.350
55.92000 580.323
55.96000 601.710
56.00000 575.158
56.04000 579.134
56.08000 544.294
56.12000 471.546
56.16000 424.549
56.20000 387.923
56.24000 325.855
56.28000 272.982
56.32000 250.996
56.36000 222.963
56.40000 194.738
56.44000 176.640
56.48000 156.140
56.52000 165.254
56.56000 165.407
56.60000 159.990
56.64000 151.454
56.68000 151.346
56.72000 150.238
56.76000 165.221
56.80000 154.018
56.84000 138.614
56.88000 145.590
56.92000 142.947
56.96000 149.728
57.00000 143.075
57.04000 138.978
57.08000 141.689
57.12000 136.177
57.16000 147.029
57.20000 143.424
57.24000 149.011
57.28000 140.737
57.32000 144.915
57.36000 142.230
57.40000 146.269
57.44000 140.846
57.48000 144.613
57.52000 148.781
57.56000 147.604
57.60000 136.140
57.64000 138.980
57.68000 145.893
57.72000 142.645
57.76000 141.798
57.80000 138.882
57.84000 146.754
57.88000 144.868
57.92000 138.668
57.96000 139.959
58.00000 147.696
58.04000 144.385
58.08000 132.825
58.12000 137.596
58.16000 135.781
58.20000 134.322
58.24000 128.321
58.28000 135.339
58.32000 136.944
58.36000 137.042
58.40000 133.727
58.44000 130.142
58.48000 151.093
58.52000 136.673
58.56000 138.899
58.60000 129.451
58.64000 124.117
58.68000 143.829
58.72000 140.121
58.76000 131.887
58.80000 135.536
58.84000 137.357
58.88000 141.391
58.92000 134.403
58.96000 129.224
59.00000 133.228
59.04000 128.302
59.08000 130.991
59.12000 124.443
59.16000 135.336
59.20000 135.791
59.24000 134.555
59.28000 125.759
59.32000 134.092
59.36000 128.940
59.40000 125.891
59.44000 137.577
59.48000 139.877
59.52000 131.715
59.56000 125.168
59.60000 116.650
59.64000 136.503
59.68000 130.531
59.72000 132.005
59.76000 126.860
59.80000 134.573
59.84000 134.667
59.88000 129.429
59.92000 135.295
59.96000 135.714
60.00000 134.152
60.04000 136.796
60.08000 134.651
60.12000 125.543
60.16000 134.176
60.20000 140.374
60.24000 120.670
60.28000 131.095
60.32000 130.951
60.36000 133.195
60.40000 129.067
60.44000 129.368
60.48000 126.482
60.52000 133.161
60.56000 127.543
60.60000 131.136
60.64000 131.868
60.68000 141.244
60.72000 129.064
60.76000 124.801
60.80000 128.072
60.84000 138.655
60.88000 134.033
60.92000 136.728
60.96000 137.431
61.00000 134.156
61.04000 138.945
61.08000 137.696
61.12000 144.179
61.16000 129.358
61.20000 137.466
61.24000 146.243
61.28000 127.119
61.32000 130.809
61.36000 133.286
61.40000 138.371
61.44000 142.634
61.48000 138.330
61.52000 161.502
61.56000 194.137
61.60000 210.917
61.64000 238.371
61.68000 246.251
61.72000 255.304
61.76000 241.571
61.80000 203.340
61.84000 164.900
61.88000 150.840
61.92000 147.361
61.96000 148.187
62.00000 134.566
62.04000 138.322
62.08000 149.170
62.12000 136.345
62.16000 135.129
62.20000 123.534
62.24000 137.513
62.28000 134.352
62.32000 134.095
62.36000 139.440
62.40000 144.135
62.44000 140.311
62.48000 143.923
62.52000 138.396
62.56000 138.966
62.60000 143.702
62.64000 141.515
62.68000 143.916
62.72000 145.920
62.76000 148.075
62.80000 139.586
62.84000 128.367
62.88000 142.398
62.92000 143.132
62.96000 133.966
63.00000 140.370
63.04000 142.959
63.08000 145.242
63.12000 138.390
63.16000 140.998
63.20000 142.864
63.24000 155.061
63.28000 137.988
63.32000 140.083
63.36000 143.889
63.40000 146.047
63.44000 133.712
63.48000 142.958
63.52000 131.950
63.56000 139.846
63.60000 138.022
63.64000 146.987
63.68000 140.759
63.72000 150.392
63.76000 158.859
63.80000 155.428
63.84000 147.456
63.88000 144.503
63.92000 153.940
63.96000 163.649
64.00000 154.571
64.04000 160.047
64.08000 143.122
64.12000 162.193
64.16000 168.426
64.20000 145.716
64.24000 163.640
64.28000 163.180
64.32000 148.635
64.36000 172.083
64.40000 151.485
64.44000 158.459
64.48000 156.228
64.52000 162.804
64.56000 163.177
64.60000 161.724
64.64000 164.444
64.68000 175.722
64.72000 160.050
64.76000 167.071
64.80000 168.150
64.84000 175.515
64.88000 178.702
64.92000 184.563
64.96000 177.512
65.00000 177.975
65.04000 183.937
65.08000 195.962
65.12000 193.541
65.16000 188.604
65.20000 214.446
65.24000 213.719
65.28000 225.154
65.32000 239.115
65.36000 251.039
65.40000 282.014
65.44000 288.282
65.48000 293.573
65.52000 300.740
65.56000 321.341
65.60000 334.283
65.64000 357.150
65.68000 396.374
65.72000 518.295
65.76000 677.830
65.80000 813.488
65.84000 890.870
65.88000 885.787
65.92000 839.701
65.96000 740.616
66.00000 554.659
66.04000 408.714
66.08000 332.050
66.12000 283.108
66.16000 290.940
66.20000 275.797
66.24000 279.344
66.28000 313.073
66.32000 332.207
66.36000 368.488
66.40000 384.084
66.44000 387.950
66.48000 368.996
66.52000 352.164
66.56000 319.563
66.60000 307.900
66.64000 285.779
66.68000 282.220
66.72000 293.565
66.76000 291.605
66.80000 292.707
66.84000 304.773
66.88000 310.281
66.92000 314.076
66.96000 335.350
67.00000 329.314
67.04000 328.369
67.08000 321.208
67.12000 329.152
67.16000 345.514
67.20000 353.348
67.24000 344.611
67.28000 351.047
67.32000 365.826
67.36000 369.637
67.40000 383.811
67.44000 376.363
67.48000 373.823
67.52000 395.736
67.56000 400.883
67.60000 407.427
67.64000 408.837
67.68000 424.546
67.72000 432.317
67.76000 442.312
67.80000 442.720
67.84000 465.551
67.88000 448.839
67.92000 478.497
67.96000 492.238
68.00000 483.676
68.04000 510.266
68.08000 526.168
68.12000 534.704
68.16000 533.885
68.20000 552.456
68.24000 569.398
68.28000 576.421
68.32000 595.766
68.36000 626.978
68.40000 646.702
68.44000 691.161
68.48000 711.473
68.52000 715.579
68.56000 799.768
68.60000 885.628
68.64000 1008.248
68.68000 1168.528
68.72000 1356.944
68.76000 1536.972
68.80000 1655.364
68.84000 1900.135
68.88000 2429.643
68.92000 4058.038
68.96000 10556.713
69.00000 24681.756
69.04000 39812.039
69.08000 47400.387
69.12000 48240.273
69.16000 50245.332
69.20000 50950.223
69.24000 42404.625
69.28000 32063.602
69.32000 26353.273
69.36000 23737.234
69.40000 19724.813
69.44000 11871.765
69.48000 5482.241
69.52000 2432.979
69.56000 1606.679
69.60000 1291.929
69.64000 1119.721
69.68000 984.426
69.72000 906.430
69.76000 812.224
69.80000 783.654
69.84000 740.020
69.88000 686.559
69.92000 670.686
69.96000 636.703
70.00000 639.510