File: XRD/17-09-2025/XY Data/BTO_Mapping_Theta2Theta_09-17-2025_001_18_-15-000_0-000.xy
20.00000 588.601
20.04000 560.270
20.08000 563.624
20.12000 557.417
20.16000 552.701
20.20000 562.036
20.24000 539.672
20.28000 559.260
20.32000 577.977
20.36000 556.432
20.40000 575.679
20.44000 557.782
20.48000 534.984
20.52000 541.771
20.56000 545.954
20.60000 546.249
20.64000 565.023
20.68000 543.364
20.72000 544.972
20.76000 559.511
20.80000 548.255
20.84000 551.747
20.88000 535.636
20.92000 550.470
20.96000 541.511
21.00000 555.222
21.04000 579.147
21.08000 546.987
21.12000 545.965
21.16000 569.739
21.20000 552.750
21.24000 544.724
21.28000 544.092
21.32000 545.593
21.36000 541.172
21.40000 530.372
21.44000 556.418
21.48000 551.971
21.52000 565.610
21.56000 565.603
21.60000 552.323
21.64000 555.122
21.68000 586.624
21.72000 583.153
21.76000 610.727
21.80000 675.866
21.84000 707.563
21.88000 769.972
21.92000 834.783
21.96000 897.661
22.00000 918.537
22.04000 920.163
22.08000 863.807
22.12000 833.255
22.16000 748.452
22.20000 693.204
22.24000 650.248
22.28000 591.552
22.32000 550.766
22.36000 537.298
22.40000 541.080
22.44000 564.983
22.48000 534.004
22.52000 524.258
22.56000 517.105
22.60000 493.714
22.64000 508.677
22.68000 529.533
22.72000 534.673
22.76000 518.613
22.80000 522.792
22.84000 513.263
22.88000 515.415
22.92000 519.594
22.96000 515.272
23.00000 492.583
23.04000 490.161
23.08000 492.264
23.12000 491.515
23.16000 499.181
23.20000 491.403
23.24000 512.085
23.28000 507.697
23.32000 532.098
23.36000 499.737
23.40000 515.495
23.44000 529.091
23.48000 513.155
23.52000 508.784
23.56000 492.434
23.60000 521.434
23.64000 493.175
23.68000 491.151
23.72000 521.796
23.76000 516.561
23.80000 506.193
23.84000 498.417
23.88000 501.514
23.92000 509.066
23.96000 497.401
24.00000 498.867
24.04000 495.316
24.08000 503.491
24.12000 502.516
24.16000 497.918
24.20000 479.039
24.24000 500.499
24.28000 489.316
24.32000 503.471
24.36000 492.007
24.40000 491.471
24.44000 486.479
24.48000 465.668
24.52000 481.177
24.56000 490.483
24.60000 473.349
24.64000 509.366
24.68000 483.472
24.72000 472.507
24.76000 495.016
24.80000 469.418
24.84000 484.917
24.88000 485.849
24.92000 474.239
24.96000 482.738
25.00000 485.004
25.04000 481.125
25.08000 470.671
25.12000 477.462
25.16000 457.292
25.20000 473.654
25.24000 480.050
25.28000 463.884
25.32000 462.035
25.36000 487.626
25.40000 460.515
25.44000 454.161
25.48000 474.174
25.52000 472.216
25.56000 459.224
25.60000 462.596
25.64000 475.062
25.68000 498.488
25.72000 472.967
25.76000 472.856
25.80000 490.740
25.84000 472.074
25.88000 431.780
25.92000 463.179
25.96000 464.353
26.00000 455.372
26.04000 469.652
26.08000 460.296
26.12000 449.865
26.16000 457.219
26.20000 472.969
26.24000 453.844
26.28000 473.975
26.32000 447.497
26.36000 459.613
26.40000 452.330
26.44000 472.242
26.48000 456.277
26.52000 446.213
26.56000 455.084
26.60000 452.798
26.64000 453.793
26.68000 454.593
26.72000 452.874
26.76000 466.449
26.80000 456.773
26.84000 468.486
26.88000 451.978
26.92000 464.848
26.96000 445.846
27.00000 452.286
27.04000 440.354
27.08000 446.097
27.12000 461.712
27.16000 446.878
27.20000 462.443
27.24000 424.340
27.28000 455.614
27.32000 446.982
27.36000 461.280
27.40000 463.458
27.44000 453.199
27.48000 442.493
27.52000 453.269
27.56000 428.904
27.60000 423.778
27.64000 449.988
27.68000 426.705
27.72000 440.668
27.76000 439.627
27.80000 428.724
27.84000 433.627
27.88000 451.887
27.92000 444.240
27.96000 423.244
28.00000 437.316
28.04000 446.743
28.08000 435.639
28.12000 444.993
28.16000 442.719
28.20000 441.394
28.24000 432.756
28.28000 434.348
28.32000 439.486
28.36000 443.175
28.40000 436.150
28.44000 445.349
28.48000 438.948
28.52000 428.668
28.56000 414.918
28.60000 428.687
28.64000 428.553
28.68000 426.000
28.72000 416.775
28.76000 423.509
28.80000 426.144
28.84000 413.777
28.88000 435.884
28.92000 413.775
28.96000 430.241
29.00000 427.482
29.04000 427.308
29.08000 411.196
29.12000 414.661
29.16000 422.726
29.20000 418.729
29.24000 427.685
29.28000 410.335
29.32000 425.726
29.36000 411.286
29.40000 420.776
29.44000 409.718
29.48000 413.383
29.52000 426.424
29.56000 423.574
29.60000 412.616
29.64000 412.979
29.68000 428.417
29.72000 419.572
29.76000 435.699
29.80000 427.926
29.84000 433.633
29.88000 448.804
29.92000 460.842
29.96000 475.477
30.00000 453.371
30.04000 458.797
30.08000 465.199
30.12000 451.666
30.16000 456.257
30.20000 436.473
30.24000 429.434
30.28000 432.215
30.32000 441.352
30.36000 444.076
30.40000 431.248
30.44000 435.976
30.48000 428.481
30.52000 441.553
30.56000 452.006
30.60000 447.347
30.64000 444.836
30.68000 445.717
30.72000 476.289
30.76000 465.591
30.80000 481.650
30.84000 477.002
30.88000 516.109
30.92000 514.939
30.96000 568.577
31.00000 644.918
31.04000 764.877
31.08000 945.579
31.12000 1260.161
31.16000 1654.973
31.20000 2196.755
31.24000 2856.011
31.28000 3490.472
31.32000 3837.155
31.36000 3896.101
31.40000 3678.154
31.44000 3193.859
31.48000 2595.337
31.52000 1907.708
31.56000 1381.849
31.60000 1006.085
31.64000 763.400
31.68000 645.089
31.72000 577.339
31.76000 525.212
31.80000 488.706
31.84000 482.553
31.88000 465.544
31.92000 449.520
31.96000 437.827
32.00000 434.761
32.04000 436.458
32.08000 415.546
32.12000 428.043
32.16000 418.269
32.20000 427.156
32.24000 409.932
32.28000 389.367
32.32000 398.160
32.36000 402.915
32.40000 388.668
32.44000 386.832
32.48000 401.199
32.52000 399.447
32.56000 390.773
32.60000 384.279
32.64000 389.766
32.68000 378.248
32.72000 364.554
32.76000 381.780
32.80000 368.699
32.84000 360.779
32.88000 370.416
32.92000 365.359
32.96000 364.854
33.00000 351.448
33.04000 358.270
33.08000 355.173
33.12000 371.937
33.16000 350.356
33.20000 348.542
33.24000 337.484
33.28000 337.799
33.32000 333.399
33.36000 337.092
33.40000 341.691
33.44000 361.878
33.48000 360.701
33.52000 342.453
33.56000 342.426
33.60000 344.449
33.64000 346.817
33.68000 350.318
33.72000 338.776
33.76000 337.722
33.80000 345.467
33.84000 338.022
33.88000 339.591
33.92000 340.273
33.96000 350.263
34.00000 337.692
34.04000 353.022
34.08000 327.645
34.12000 350.635
34.16000 321.508
34.20000 326.136
34.24000 327.026
34.28000 322.038
34.32000 337.719
34.36000 341.286
34.40000 324.618
34.44000 326.565
34.48000 316.583
34.52000 319.661
34.56000 316.989
34.60000 323.122
34.64000 321.560
34.68000 331.509
34.72000 318.753
34.76000 312.116
34.80000 323.887
34.84000 322.138
34.88000 314.546
34.92000 317.574
34.96000 312.244
35.00000 315.119
35.04000 316.582
35.08000 319.831
35.12000 325.248
35.16000 309.585
35.20000 316.984
35.24000 316.355
35.28000 306.421
35.32000 309.123
35.36000 299.281
35.40000 320.539
35.44000 313.232
35.48000 326.192
35.52000 296.090
35.56000 300.351
35.60000 300.216
35.64000 304.968
35.68000 310.195
35.72000 303.843
35.76000 309.040
35.80000 304.286
35.84000 310.273
35.88000 297.224
35.92000 314.040
35.96000 299.534
36.00000 301.638
36.04000 298.537
36.08000 308.238
36.12000 296.364
36.16000 307.319
36.20000 302.171
36.24000 298.492
36.28000 296.074
36.32000 291.911
36.36000 304.222
36.40000 310.133
36.44000 300.068
36.48000 289.043
36.52000 286.634
36.56000 302.244
36.60000 310.331
36.64000 307.085
36.68000 301.829
36.72000 305.962
36.76000 320.867
36.80000 302.945
36.84000 295.378
36.88000 297.523
36.92000 299.052
36.96000 306.703
37.00000 313.034
37.04000 313.920
37.08000 302.307
37.12000 296.521
37.16000 299.410
37.20000 291.050
37.24000 293.786
37.28000 308.227
37.32000 295.543
37.36000 279.411
37.40000 302.837
37.44000 281.674
37.48000 301.679
37.52000 287.629
37.56000 299.612
37.60000 289.419
37.64000 299.684
37.68000 286.210
37.72000 295.630
37.76000 285.840
37.80000 287.208
37.84000 286.781
37.88000 285.808
37.92000 289.109
37.96000 302.606
38.00000 298.306
38.04000 288.888
38.08000 294.006
38.12000 306.925
38.16000 289.771
38.20000 319.118
38.24000 307.644
38.28000 327.605
38.32000 339.636
38.36000 361.049
38.40000 381.156
38.44000 389.826
38.48000 450.654
38.52000 499.218
38.56000 548.123
38.60000 579.903
38.64000 622.140
38.68000 603.976
38.72000 607.287
38.76000 564.358
38.80000 529.552
38.84000 458.354
38.88000 421.918
38.92000 359.626
38.96000 352.442
39.00000 331.359
39.04000 296.988
39.08000 304.286
39.12000 297.866
39.16000 275.520
39.20000 282.484
39.24000 281.434
39.28000 280.529
39.32000 290.088
39.36000 272.845
39.40000 256.941
39.44000 273.426
39.48000 284.515
39.52000 266.217
39.56000 273.373
39.60000 265.950
39.64000 270.418
39.68000 257.004
39.72000 265.789
39.76000 244.671
39.80000 260.637
39.84000 268.622
39.88000 273.630
39.92000 262.606
39.96000 261.208
40.00000 266.052
40.04000 276.926
40.08000 265.912
40.12000 274.596
40.16000 237.419
40.20000 256.005
40.24000 253.144
40.28000 247.131
40.32000 262.623
40.36000 261.064
40.40000 252.907
40.44000 242.033
40.48000 238.467
40.52000 248.338
40.56000 252.784
40.60000 256.726
40.64000 252.373
40.68000 251.112
40.72000 252.639
40.76000 244.253
40.80000 254.541
40.84000 261.445
40.88000 251.724
40.92000 251.791
40.96000 245.674
41.00000 236.677
41.04000 250.598
41.08000 257.408
41.12000 244.114
41.16000 243.486
41.20000 245.159
41.24000 255.703
41.28000 256.203
41.32000 238.703
41.36000 239.533
41.40000 231.886
41.44000 257.147
41.48000 242.908
41.52000 250.052
41.56000 241.481
41.60000 255.018
41.64000 242.961
41.68000 235.780
41.72000 233.825
41.76000 236.499
41.80000 231.862
41.84000 236.454
41.88000 236.881
41.92000 238.310
41.96000 238.074
42.00000 237.134
42.04000 240.821
42.08000 239.014
42.12000 244.265
42.16000 243.933
42.20000 230.594
42.24000 222.623
42.28000 228.977
42.32000 231.625
42.36000 240.945
42.40000 237.260
42.44000 233.595
42.48000 227.072
42.52000 230.096
42.56000 238.731
42.60000 220.979
42.64000 222.773
42.68000 228.224
42.72000 239.593
42.76000 240.504
42.80000 233.530
42.84000 221.620
42.88000 245.589
42.92000 233.399
42.96000 255.846
43.00000 232.281
43.04000 232.289
43.08000 236.292
43.12000 229.410
43.16000 231.497
43.20000 235.878
43.24000 223.838
43.28000 220.673
43.32000 228.845
43.36000 225.047
43.40000 230.922
43.44000 228.199
43.48000 225.136
43.52000 223.462
43.56000 240.481
43.60000 219.191
43.64000 223.518
43.68000 237.194
43.72000 224.874
43.76000 222.549
43.80000 224.828
43.84000 223.122
43.88000 224.996
43.92000 230.390
43.96000 233.955
44.00000 219.261
44.04000 229.830
44.08000 226.838
44.12000 226.337
44.16000 225.424
44.20000 237.036
44.24000 225.793
44.28000 224.962
44.32000 229.731
44.36000 234.980
44.40000 233.848
44.44000 230.930
44.48000 236.555
44.52000 241.496
44.56000 249.690
44.60000 240.667
44.64000 263.531
44.68000 271.873
44.72000 291.065
44.76000 339.585
44.80000 377.654
44.84000 427.742
44.88000 477.128
44.92000 510.165
44.96000 550.802
45.00000 568.067
45.04000 581.962
45.08000 533.950
45.12000 494.066
45.16000 441.457
45.20000 397.209
45.24000 362.850
45.28000 327.142
45.32000 285.542
45.36000 284.055
45.40000 272.078
45.44000 267.998
45.48000 251.080
45.52000 252.364
45.56000 225.271
45.60000 226.134
45.64000 240.734
45.68000 220.105
45.72000 227.820
45.76000 217.016
45.80000 214.529
45.84000 215.968
45.88000 224.717
45.92000 202.122
45.96000 223.944
46.00000 222.297
46.04000 215.222
46.08000 216.097
46.12000 205.648
46.16000 207.928
46.20000 216.948
46.24000 205.582
46.28000 208.520
46.32000 208.505
46.36000 211.246
46.40000 209.548
46.44000 194.478
46.48000 198.176
46.52000 214.815
46.56000 208.266
46.60000 192.923
46.64000 192.368
46.68000 211.370
46.72000 190.559
46.76000 203.624
46.80000 202.071
46.84000 193.477
46.88000 194.577
46.92000 187.591
46.96000 192.343
47.00000 184.333
47.04000 191.463
47.08000 197.195
47.12000 197.281
47.16000 191.286
47.20000 200.028
47.24000 196.417
47.28000 208.887
47.32000 189.315
47.36000 188.236
47.40000 182.011
47.44000 186.055
47.48000 189.195
47.52000 186.946
47.56000 189.075
47.60000 186.020
47.64000 186.030
47.68000 187.098
47.72000 199.365
47.76000 194.140
47.80000 188.865
47.84000 182.768
47.88000 189.868
47.92000 188.583
47.96000 192.472
48.00000 200.674
48.04000 188.652
48.08000 185.283
48.12000 191.112
48.16000 182.196
48.20000 180.119
48.24000 191.026
48.28000 191.885
48.32000 186.094
48.36000 186.782
48.40000 179.198
48.44000 193.496
48.48000 186.483
48.52000 191.875
48.56000 177.630
48.60000 185.167
48.64000 177.190
48.68000 176.387
48.72000 184.250
48.76000 180.073
48.80000 181.103
48.84000 186.619
48.88000 186.507
48.92000 193.507
48.96000 179.966
49.00000 180.053
49.04000 179.075
49.08000 166.160
49.12000 175.366
49.16000 179.005
49.20000 182.675
49.24000 172.428
49.28000 179.170
49.32000 179.615
49.36000 168.024
49.40000 171.203
49.44000 171.012
49.48000 172.891
49.52000 177.526
49.56000 181.298
49.60000 182.118
49.64000 177.139
49.68000 177.253
49.72000 185.831
49.76000 177.072
49.80000 179.630
49.84000 176.195
49.88000 176.370
49.92000 181.954
49.96000 188.658
50.00000 173.851
50.04000 172.841
50.08000 189.587
50.12000 183.179
50.16000 201.667
50.20000 178.210
50.24000 187.071
50.28000 202.209
50.32000 201.745
50.36000 212.834
50.40000 218.721
50.44000 236.257
50.48000 251.740
50.52000 273.257
50.56000 284.761
50.60000 298.886
50.64000 306.267
50.68000 299.268
50.72000 295.140
50.76000 268.860
50.80000 254.807
50.84000 250.028
50.88000 232.403
50.92000 198.008
50.96000 194.565
51.00000 218.580
51.04000 188.749
51.08000 187.976
51.12000 168.895
51.16000 179.237
51.20000 176.175
51.24000 176.353
51.28000 170.459
51.32000 169.643
51.36000 165.602
51.40000 170.579
51.44000 166.678
51.48000 168.646
51.52000 169.312
51.56000 174.967
51.60000 160.118
51.64000 156.022
51.68000 170.496
51.72000 158.906
51.76000 169.668
51.80000 173.286
51.84000 174.578
51.88000 169.013
51.92000 166.810
51.96000 168.707
52.00000 168.043
52.04000 165.855
52.08000 160.439
52.12000 147.699
52.16000 157.982
52.20000 155.693
52.24000 164.139
52.28000 163.141
52.32000 153.578
52.36000 157.893
52.40000 154.592
52.44000 176.800
52.48000 155.364
52.52000 162.819
52.56000 158.951
52.60000 153.573
52.64000 158.855
52.68000 154.117
52.72000 155.198
52.76000 170.486
52.80000 154.767
52.84000 168.108
52.88000 156.425
52.92000 154.358
52.96000 162.287
53.00000 158.558
53.04000 175.874
53.08000 156.357
53.12000 156.450
53.16000 156.329
53.20000 166.907
53.24000 160.741
53.28000 145.754
53.32000 163.541
53.36000 164.770
53.40000 153.023
53.44000 161.100
53.48000 158.552
53.52000 160.023
53.56000 157.093
53.60000 165.411
53.64000 156.481
53.68000 157.534
53.72000 157.165
53.76000 150.428
53.80000 144.265
53.84000 155.629
53.88000 163.662
53.92000 149.908
53.96000 153.628
54.00000 156.196
54.04000 157.804
54.08000 163.762
54.12000 151.274
54.16000 158.174
54.20000 162.031
54.24000 158.458
54.28000 158.718
54.32000 164.078
54.36000 154.379
54.40000 160.147
54.44000 171.701
54.48000 168.438
54.52000 173.364
54.56000 151.636
54.60000 159.062
54.64000 150.846
54.68000 149.032
54.72000 160.335
54.76000 154.874
54.80000 157.483
54.84000 162.534
54.88000 161.192
54.92000 158.578
54.96000 151.543
55.00000 163.734
55.04000 159.808
55.08000 167.047
55.12000 166.801
55.16000 166.326
55.20000 169.086
55.24000 169.680
55.28000 175.366
55.32000 169.014
55.36000 176.790
55.40000 186.277
55.44000 191.669
55.48000 203.465
55.52000 228.968
55.56000 260.883
55.60000 290.472
55.64000 365.278
55.68000 407.789
55.72000 491.419
55.76000 540.387
55.80000 594.277
55.84000 612.746
55.88000 648.034
55.92000 639.009
55.96000 573.137
56.00000 554.144
56.04000 471.236
56.08000 398.952
56.12000 345.483
56.16000 293.041
56.20000 267.801
56.24000 218.570
56.28000 207.109
56.32000 185.436
56.36000 181.930
56.40000 175.466
56.44000 167.510
56.48000 176.918
56.52000 173.244
56.56000 157.380
56.60000 155.133
56.64000 152.339
56.68000 153.056
56.72000 148.472
56.76000 155.229
56.80000 149.766
56.84000 148.752
56.88000 152.112
56.92000 173.979
56.96000 149.914
57.00000 153.722
57.04000 139.199
57.08000 145.382
57.12000 151.431
57.16000 161.531
57.20000 163.522
57.24000 152.707
57.28000 151.896
57.32000 156.787
57.36000 149.132
57.40000 148.612
57.44000 137.006
57.48000 146.595
57.52000 137.223
57.56000 135.562
57.60000 141.866
57.64000 142.217
57.68000 138.062
57.72000 142.138
57.76000 142.650
57.80000 151.099
57.84000 151.300
57.88000 149.042
57.92000 143.591
57.96000 136.827
58.00000 136.825
58.04000 151.874
58.08000 145.036
58.12000 139.480
58.16000 142.749
58.20000 141.933
58.24000 134.865
58.28000 148.474
58.32000 135.659
58.36000 141.601
58.40000 146.927
58.44000 132.044
58.48000 136.072
58.52000 144.425
58.56000 148.816
58.60000 141.050
58.64000 141.924
58.68000 138.935
58.72000 148.641
58.76000 137.791
58.80000 140.497
58.84000 130.492
58.88000 132.505
58.92000 136.462
58.96000 130.734
59.00000 135.899
59.04000 137.413
59.08000 137.812
59.12000 139.871
59.16000 134.843
59.20000 138.462
59.24000 133.299
59.28000 133.067
59.32000 131.927
59.36000 139.254
59.40000 133.341
59.44000 134.240
59.48000 140.104
59.52000 132.990
59.56000 148.369
59.60000 134.687
59.64000 122.212
59.68000 131.187
59.72000 132.760
59.76000 131.593
59.80000 136.052
59.84000 139.490
59.88000 138.354
59.92000 131.566
59.96000 127.244
60.00000 142.408
60.04000 130.982
60.08000 141.692
60.12000 131.901
60.16000 132.970
60.20000 130.468
60.24000 137.449
60.28000 127.473
60.32000 133.093
60.36000 128.863
60.40000 138.726
60.44000 144.937
60.48000 139.408
60.52000 136.885
60.56000 129.100
60.60000 120.810
60.64000 135.359
60.68000 139.958
60.72000 136.073
60.76000 130.829
60.80000 138.393
60.84000 124.920
60.88000 134.347
60.92000 127.628
60.96000 139.065
61.00000 131.815
61.04000 134.175
61.08000 143.419
61.12000 139.544
61.16000 134.734
61.20000 142.684
61.24000 144.158
61.28000 132.673
61.32000 139.055
61.36000 132.864
61.40000 142.340
61.44000 139.449
61.48000 155.619
61.52000 188.008
61.56000 238.510
61.60000 296.627
61.64000 328.335
61.68000 342.726
61.72000 327.194
61.76000 310.360
61.80000 242.705
61.84000 195.311
61.88000 159.417
61.92000 156.623
61.96000 148.349
62.00000 142.068
62.04000 149.847
62.08000 144.312
62.12000 134.720
62.16000 140.954
62.20000 147.585
62.24000 143.742
62.28000 145.365
62.32000 142.836
62.36000 136.344
62.40000 125.694
62.44000 142.591
62.48000 146.074
62.52000 137.707
62.56000 145.091
62.60000 143.971
62.64000 145.983
62.68000 153.094
62.72000 147.051
62.76000 157.416
62.80000 144.005
62.84000 141.462
62.88000 151.916
62.92000 146.193
62.96000 143.871
63.00000 158.295
63.04000 138.302
63.08000 151.346
63.12000 147.367
63.16000 141.816
63.20000 137.909
63.24000 140.634
63.28000 147.002
63.32000 151.873
63.36000 155.493
63.40000 155.707
63.44000 154.019
63.48000 153.666
63.52000 155.859
63.56000 152.816
63.60000 161.652
63.64000 156.529
63.68000 156.017
63.72000 157.605
63.76000 151.827
63.80000 154.762
63.84000 129.919
63.88000 158.156
63.92000 154.798
63.96000 163.216
64.00000 149.601
64.04000 153.281
64.08000 150.301
64.12000 163.041
64.16000 155.985
64.20000 163.741
64.24000 154.019
64.28000 162.876
64.32000 167.904
64.36000 161.439
64.40000 169.414
64.44000 179.003
64.48000 163.141
64.52000 167.399
64.56000 176.189
64.60000 179.296
64.64000 167.779
64.68000 171.398
64.72000 184.229
64.76000 191.446
64.80000 176.446
64.84000 189.428
64.88000 192.535
64.92000 194.224
64.96000 200.529
65.00000 202.651
65.04000 204.069
65.08000 222.639
65.12000 223.510
65.16000 246.074
65.20000 263.237
65.24000 302.754
65.28000 313.466
65.32000 354.991
65.36000 377.238
65.40000 423.760
65.44000 421.019
65.48000 449.018
65.52000 442.728
65.56000 452.660
65.60000 497.190
65.64000 508.445
65.68000 589.027
65.72000 778.503
65.76000 1051.824
65.80000 1271.042
65.84000 1361.022
65.88000 1379.532
65.92000 1280.018
65.96000 1057.402
66.00000 725.300
66.04000 501.130
66.08000 395.293
66.12000 333.971
66.16000 340.653
66.20000 328.270
66.24000 341.042
66.28000 400.305
66.32000 445.030
66.36000 487.885
66.40000 529.231
66.44000 510.466
66.48000 499.373
66.52000 450.585
66.56000 395.603
66.60000 366.689
66.64000 331.273
66.68000 345.552
66.72000 334.814
66.76000 352.004
66.80000 340.419
66.84000 340.339
66.88000 355.326
66.92000 367.045
66.96000 367.791
67.00000 378.491
67.04000 386.115
67.08000 391.961
67.12000 388.805
67.16000 402.192
67.20000 402.051
67.24000 424.885
67.28000 437.686
67.32000 425.515
67.36000 441.966
67.40000 434.417
67.44000 436.281
67.48000 475.381
67.52000 455.876
67.56000 478.299
67.60000 487.871
67.64000 496.037
67.68000 467.720
67.72000 518.912
67.76000 510.602
67.80000 534.451
67.84000 540.851
67.88000 559.405
67.92000 567.834
67.96000 576.784
68.00000 580.519
68.04000 622.546
68.08000 598.849
68.12000 623.834
68.16000 630.798
68.20000 654.502
68.24000 683.914
68.28000 691.576
68.32000 718.620
68.36000 737.216
68.40000 794.002
68.44000 831.439
68.48000 875.614
68.52000 918.089
68.56000 1029.479
68.60000 1164.622
68.64000 1429.273
68.68000 1752.378
68.72000 1958.381
68.76000 2269.339
68.80000 2534.832
68.84000 3137.273
68.88000 4526.315
68.92000 8802.212
68.96000 22093.719
69.00000 46232.211
69.04000 69507.531
69.08000 80676.461
69.12000 82889.758
69.16000 85372.289
69.20000 83099.688
69.24000 69221.523
69.28000 54102.469
69.32000 44278.574
69.36000 39084.461
69.40000 30606.844
69.44000 18272.982
69.48000 8695.348
69.52000 3721.329
69.56000 2326.976
69.60000 1791.036
69.64000 1545.785
69.68000 1337.561
69.72000 1210.216
69.76000 1065.063
69.80000 991.535
69.84000 942.713
69.88000 873.393
69.92000 851.893
69.96000 815.969
70.00000 776.271