File: XRD/17-09-2025/XY Data/BTO_Mapping_Theta2Theta_09-17-2025_001_20_15-000_0-000.xy
20.00000 548.785
20.04000 553.193
20.08000 556.916
20.12000 560.454
20.16000 557.613
20.20000 560.837
20.24000 543.932
20.28000 552.963
20.32000 542.769
20.36000 569.943
20.40000 559.542
20.44000 558.113
20.48000 536.104
20.52000 536.906
20.56000 540.541
20.60000 527.953
20.64000 560.019
20.68000 549.263
20.72000 518.498
20.76000 544.343
20.80000 546.611
20.84000 556.300
20.88000 551.667
20.92000 550.459
20.96000 551.035
21.00000 553.886
21.04000 549.451
21.08000 536.419
21.12000 527.993
21.16000 560.784
21.20000 528.414
21.24000 510.456
21.28000 542.780
21.32000 543.438
21.36000 573.886
21.40000 531.134
21.44000 545.765
21.48000 525.354
21.52000 520.269
21.56000 549.668
21.60000 553.446
21.64000 550.629
21.68000 531.846
21.72000 546.584
21.76000 541.486
21.80000 560.230
21.84000 574.922
21.88000 595.565
21.92000 606.219
21.96000 631.045
22.00000 645.149
22.04000 660.014
22.08000 674.789
22.12000 658.071
22.16000 650.409
22.20000 610.617
22.24000 603.911
22.28000 580.126
22.32000 568.512
22.36000 558.096
22.40000 545.900
22.44000 527.932
22.48000 555.183
22.52000 537.501
22.56000 528.384
22.60000 504.007
22.64000 526.399
22.68000 508.593
22.72000 517.505
22.76000 517.613
22.80000 530.599
22.84000 518.189
22.88000 506.501
22.92000 499.144
22.96000 510.885
23.00000 499.669
23.04000 499.113
23.08000 494.922
23.12000 513.323
23.16000 524.787
23.20000 489.321
23.24000 497.886
23.28000 512.737
23.32000 484.155
23.36000 511.434
23.40000 476.329
23.44000 518.605
23.48000 513.231
23.52000 516.068
23.56000 490.032
23.60000 502.356
23.64000 506.464
23.68000 499.989
23.72000 491.195
23.76000 482.043
23.80000 513.563
23.84000 497.641
23.88000 496.403
23.92000 478.702
23.96000 482.903
24.00000 499.281
24.04000 490.253
24.08000 491.448
24.12000 495.104
24.16000 496.556
24.20000 488.868
24.24000 479.372
24.28000 477.278
24.32000 482.038
24.36000 482.865
24.40000 487.484
24.44000 495.336
24.48000 461.988
24.52000 462.194
24.56000 463.466
24.60000 471.099
24.64000 488.266
24.68000 493.676
24.72000 457.564
24.76000 465.357
24.80000 489.897
24.84000 474.248
24.88000 466.900
24.92000 471.936
24.96000 464.049
25.00000 482.977
25.04000 470.175
25.08000 446.441
25.12000 460.129
25.16000 467.416
25.20000 458.820
25.24000 478.813
25.28000 477.230
25.32000 457.018
25.36000 481.263
25.40000 470.381
25.44000 477.166
25.48000 478.944
25.52000 468.418
25.56000 473.100
25.60000 477.742
25.64000 458.228
25.68000 458.401
25.72000 457.502
25.76000 463.701
25.80000 471.743
25.84000 452.138
25.88000 461.425
25.92000 469.877
25.96000 458.234
26.00000 447.148
26.04000 463.464
26.08000 484.626
26.12000 461.165
26.16000 452.505
26.20000 457.744
26.24000 431.557
26.28000 446.582
26.32000 476.406
26.36000 463.372
26.40000 477.270
26.44000 446.615
26.48000 443.270
26.52000 467.723
26.56000 443.781
26.60000 450.078
26.64000 444.197
26.68000 445.572
26.72000 453.252
26.76000 449.724
26.80000 451.376
26.84000 424.643
26.88000 449.294
26.92000 441.742
26.96000 448.923
27.00000 428.480
27.04000 436.253
27.08000 420.322
27.12000 417.090
27.16000 438.589
27.20000 432.389
27.24000 438.863
27.28000 414.498
27.32000 432.102
27.36000 433.529
27.40000 431.650
27.44000 428.909
27.48000 440.793
27.52000 435.471
27.56000 416.616
27.60000 422.830
27.64000 425.711
27.68000 424.699
27.72000 428.639
27.76000 394.744
27.80000 426.890
27.84000 424.779
27.88000 421.968
27.92000 432.986
27.96000 431.438
28.00000 419.155
28.04000 439.472
28.08000 418.151
28.12000 417.368
28.16000 428.208
28.20000 428.290
28.24000 424.366
28.28000 442.648
28.32000 419.695
28.36000 418.853
28.40000 416.706
28.44000 415.383
28.48000 405.287
28.52000 400.860
28.56000 428.413
28.60000 442.654
28.64000 420.180
28.68000 417.391
28.72000 426.368
28.76000 423.639
28.80000 401.806
28.84000 403.393
28.88000 423.042
28.92000 406.444
28.96000 410.027
29.00000 416.803
29.04000 409.932
29.08000 410.279
29.12000 411.808
29.16000 395.444
29.20000 400.278
29.24000 407.273
29.28000 403.184
29.32000 413.297
29.36000 406.250
29.40000 413.192
29.44000 408.854
29.48000 393.208
29.52000 402.331
29.56000 429.170
29.60000 386.527
29.64000 419.520
29.68000 399.053
29.72000 409.452
29.76000 406.834
29.80000 400.516
29.84000 404.468
29.88000 415.179
29.92000 439.714
29.96000 439.384
30.00000 433.104
30.04000 446.083
30.08000 437.895
30.12000 438.721
30.16000 423.838
30.20000 429.032
30.24000 425.616
30.28000 402.441
30.32000 431.092
30.36000 439.564
30.40000 399.837
30.44000 411.808
30.48000 416.363
30.52000 426.581
30.56000 421.469
30.60000 419.423
30.64000 436.346
30.68000 428.590
30.72000 442.819
30.76000 435.638
30.80000 441.436
30.84000 438.514
30.88000 461.600
30.92000 464.192
30.96000 501.648
31.00000 530.740
31.04000 594.971
31.08000 684.933
31.12000 845.770
31.16000 1063.690
31.20000 1395.853
31.24000 1850.524
31.28000 2356.848
31.32000 2804.934
31.36000 3242.974
31.40000 3277.062
31.44000 3122.418
31.48000 2851.322
31.52000 2262.463
31.56000 1766.974
31.60000 1332.411
31.64000 998.669
31.68000 778.391
31.72000 618.676
31.76000 533.485
31.80000 497.215
31.84000 463.516
31.88000 448.820
31.92000 416.243
31.96000 413.008
32.00000 421.332
32.04000 416.089
32.08000 407.290
32.12000 402.608
32.16000 382.926
32.20000 387.530
32.24000 376.084
32.28000 384.522
32.32000 389.727
32.36000 401.326
32.40000 386.029
32.44000 377.956
32.48000 386.322
32.52000 368.767
32.56000 383.306
32.60000 368.765
32.64000 367.537
32.68000 365.550
32.72000 345.682
32.76000 342.920
32.80000 352.682
32.84000 357.214
32.88000 350.692
32.92000 342.582
32.96000 340.055
33.00000 351.668
33.04000 344.961
33.08000 348.687
33.12000 339.855
33.16000 343.447
33.20000 357.201
33.24000 329.825
33.28000 334.796
33.32000 345.937
33.36000 334.858
33.40000 336.667
33.44000 332.018
33.48000 350.325
33.52000 345.270
33.56000 345.099
33.60000 344.434
33.64000 320.483
33.68000 327.855
33.72000 327.314
33.76000 325.039
33.80000 331.759
33.84000 340.449
33.88000 335.202
33.92000 344.975
33.96000 340.790
34.00000 330.713
34.04000 339.762
34.08000 337.789
34.12000 330.744
34.16000 326.914
34.20000 326.323
34.24000 325.556
34.28000 333.570
34.32000 337.052
34.36000 325.398
34.40000 333.992
34.44000 333.044
34.48000 327.273
34.52000 325.368
34.56000 327.498
34.60000 328.263
34.64000 335.750
34.68000 347.848
34.72000 320.015
34.76000 342.676
34.80000 298.212
34.84000 319.289
34.88000 318.175
34.92000 327.465
34.96000 325.566
35.00000 304.800
35.04000 304.480
35.08000 307.607
35.12000 318.624
35.16000 313.721
35.20000 318.294
35.24000 316.006
35.28000 297.164
35.32000 317.107
35.36000 319.075
35.40000 309.277
35.44000 325.042
35.48000 298.295
35.52000 307.278
35.56000 300.030
35.60000 311.292
35.64000 302.163
35.68000 311.174
35.72000 315.188
35.76000 313.447
35.80000 304.773
35.84000 290.513
35.88000 297.887
35.92000 311.499
35.96000 320.093
36.00000 301.661
36.04000 293.277
36.08000 289.917
36.12000 309.773
36.16000 293.406
36.20000 279.063
36.24000 312.615
36.28000 306.834
36.32000 287.318
36.36000 298.150
36.40000 303.627
36.44000 303.227
36.48000 299.362
36.52000 297.743
36.56000 290.469
36.60000 297.053
36.64000 295.077
36.68000 290.257
36.72000 285.776
36.76000 284.579
36.80000 292.452
36.84000 294.378
36.88000 304.637
36.92000 296.132
36.96000 304.296
37.00000 300.674
37.04000 307.201
37.08000 288.107
37.12000 298.528
37.16000 299.280
37.20000 287.440
37.24000 286.418
37.28000 294.114
37.32000 287.609
37.36000 292.003
37.40000 290.954
37.44000 296.818
37.48000 288.737
37.52000 301.949
37.56000 284.408
37.60000 291.007
37.64000 286.676
37.68000 292.890
37.72000 285.431
37.76000 286.951
37.80000 296.972
37.84000 293.675
37.88000 288.922
37.92000 297.400
37.96000 283.499
38.00000 288.151
38.04000 288.109
38.08000 288.509
38.12000 285.159
38.16000 295.433
38.20000 294.280
38.24000 314.339
38.28000 312.561
38.32000 310.297
38.36000 336.562
38.40000 365.237
38.44000 373.967
38.48000 426.168
38.52000 498.339
38.56000 600.482
38.60000 675.496
38.64000 840.616
38.68000 972.088
38.72000 1044.176
38.76000 1025.162
38.80000 1006.896
38.84000 865.507
38.88000 743.257
38.92000 605.631
38.96000 503.662
39.00000 428.282
39.04000 352.173
39.08000 319.957
39.12000 306.445
39.16000 295.596
39.20000 280.918
39.24000 287.754
39.28000 287.623
39.32000 279.295
39.36000 281.118
39.40000 274.204
39.44000 278.445
39.48000 267.743
39.52000 251.676
39.56000 265.225
39.60000 266.208
39.64000 260.428
39.68000 265.461
39.72000 275.888
39.76000 261.322
39.80000 257.777
39.84000 261.195
39.88000 263.014
39.92000 251.162
39.96000 281.844
40.00000 267.638
40.04000 255.546
40.08000 257.236
40.12000 259.151
40.16000 258.571
40.20000 265.659
40.24000 274.352
40.28000 261.358
40.32000 243.582
40.36000 256.363
40.40000 257.398
40.44000 249.592
40.48000 236.683
40.52000 232.612
40.56000 253.936
40.60000 238.144
40.64000 232.800
40.68000 250.520
40.72000 241.770
40.76000 241.222
40.80000 258.008
40.84000 242.803
40.88000 246.841
40.92000 251.133
40.96000 238.002
41.00000 253.346
41.04000 251.465
41.08000 235.609
41.12000 242.505
41.16000 233.368
41.20000 236.096
41.24000 244.995
41.28000 241.721
41.32000 237.708
41.36000 241.143
41.40000 243.524
41.44000 252.045
41.48000 229.036
41.52000 245.585
41.56000 244.765
41.60000 225.473
41.64000 242.978
41.68000 229.205
41.72000 242.572
41.76000 231.730
41.80000 233.240
41.84000 228.578
41.88000 236.862
41.92000 242.885
41.96000 242.923
42.00000 240.147
42.04000 248.287
42.08000 229.448
42.12000 231.547
42.16000 233.793
42.20000 232.341
42.24000 224.655
42.28000 235.976
42.32000 230.542
42.36000 229.282
42.40000 232.672
42.44000 222.995
42.48000 237.023
42.52000 232.659
42.56000 230.674
42.60000 221.031
42.64000 208.065
42.68000 238.237
42.72000 241.565
42.76000 215.609
42.80000 226.883
42.84000 239.063
42.88000 227.824
42.92000 236.931
42.96000 215.035
43.00000 223.333
43.04000 222.218
43.08000 224.206
43.12000 221.767
43.16000 230.986
43.20000 229.732
43.24000 222.328
43.28000 229.376
43.32000 225.382
43.36000 211.873
43.40000 224.032
43.44000 225.587
43.48000 222.595
43.52000 222.510
43.56000 222.143
43.60000 214.947
43.64000 227.871
43.68000 207.084
43.72000 226.303
43.76000 226.249
43.80000 210.670
43.84000 214.586
43.88000 212.582
43.92000 222.393
43.96000 216.705
44.00000 227.422
44.04000 217.780
44.08000 224.483
44.12000 210.072
44.16000 213.424
44.20000 213.125
44.24000 218.723
44.28000 199.302
44.32000 214.633
44.36000 212.793
44.40000 214.227
44.44000 231.247
44.48000 216.961
44.52000 226.933
44.56000 230.119
44.60000 222.136
44.64000 243.676
44.68000 235.870
44.72000 240.401
44.76000 234.223
44.80000 243.634
44.84000 238.724
44.88000 255.028
44.92000 260.329
44.96000 274.395
45.00000 277.311
45.04000 312.137
45.08000 318.415
45.12000 327.356
45.16000 325.383
45.20000 318.599
45.24000 306.949
45.28000 290.209
45.32000 272.329
45.36000 266.224
45.40000 259.587
45.44000 233.091
45.48000 240.212
45.52000 230.854
45.56000 211.863
45.60000 216.045
45.64000 204.556
45.68000 214.932
45.72000 205.705
45.76000 198.924
45.80000 212.044
45.84000 205.344
45.88000 198.250
45.92000 201.267
45.96000 199.482
46.00000 198.743
46.04000 205.884
46.08000 205.472
46.12000 203.284
46.16000 191.186
46.20000 206.278
46.24000 193.192
46.28000 208.616
46.32000 206.431
46.36000 221.587
46.40000 208.370
46.44000 203.209
46.48000 202.929
46.52000 200.717
46.56000 199.306
46.60000 205.592
46.64000 194.736
46.68000 207.891
46.72000 202.652
46.76000 207.038
46.80000 204.283
46.84000 195.709
46.88000 201.132
46.92000 197.214
46.96000 197.205
47.00000 193.926
47.04000 182.498
47.08000 179.532
47.12000 180.028
47.16000 190.385
47.20000 178.563
47.24000 197.320
47.28000 182.226
47.32000 188.248
47.36000 176.496
47.40000 175.478
47.44000 194.810
47.48000 178.296
47.52000 185.911
47.56000 189.266
47.60000 183.849
47.64000 188.771
47.68000 189.130
47.72000 181.722
47.76000 182.936
47.80000 174.760
47.84000 173.175
47.88000 183.335
47.92000 182.005
47.96000 193.231
48.00000 188.019
48.04000 180.116
48.08000 182.808
48.12000 174.639
48.16000 182.873
48.20000 180.150
48.24000 167.805
48.28000 183.671
48.32000 173.038
48.36000 175.865
48.40000 172.506
48.44000 188.998
48.48000 188.562
48.52000 177.141
48.56000 185.224
48.60000 174.578
48.64000 178.554
48.68000 182.831
48.72000 181.570
48.76000 175.747
48.80000 174.967
48.84000 178.979
48.88000 180.405
48.92000 172.965
48.96000 181.163
49.00000 180.552
49.04000 178.489
49.08000 176.218
49.12000 180.726
49.16000 172.746
49.20000 185.596
49.24000 175.233
49.28000 169.193
49.32000 171.965
49.36000 171.841
49.40000 176.857
49.44000 176.074
49.48000 180.970
49.52000 174.019
49.56000 173.685
49.60000 169.743
49.64000 174.058
49.68000 175.466
49.72000 170.282
49.76000 168.052
49.80000 167.599
49.84000 178.711
49.88000 175.083
49.92000 165.131
49.96000 179.146
50.00000 183.203
50.04000 174.576
50.08000 168.178
50.12000 176.454
50.16000 174.661
50.20000 173.081
50.24000 175.337
50.28000 177.201
50.32000 183.484
50.36000 191.666
50.40000 198.342
50.44000 193.896
50.48000 200.710
50.52000 197.745
50.56000 221.213
50.60000 243.548
50.64000 245.656
50.68000 239.615
50.72000 250.467
50.76000 251.902
50.80000 248.428
50.84000 238.504
50.88000 236.371
50.92000 216.813
50.96000 215.027
51.00000 209.084
51.04000 185.398
51.08000 175.561
51.12000 176.899
51.16000 168.249
51.20000 178.485
51.24000 172.781
51.28000 169.010
51.32000 154.423
51.36000 171.237
51.40000 167.987
51.44000 174.062
51.48000 167.107
51.52000 178.301
51.56000 160.743
51.60000 166.674
51.64000 169.048
51.68000 165.544
51.72000 163.301
51.76000 154.856
51.80000 166.481
51.84000 157.106
51.88000 170.041
51.92000 172.008
51.96000 171.623
52.00000 147.742
52.04000 172.490
52.08000 159.110
52.12000 165.462
52.16000 171.582
52.20000 155.304
52.24000 156.413
52.28000 154.561
52.32000 154.387
52.36000 170.236
52.40000 162.119
52.44000 167.952
52.48000 164.419
52.52000 158.895
52.56000 171.279
52.60000 156.276
52.64000 163.209
52.68000 159.025
52.72000 146.478
52.76000 146.785
52.80000 161.266
52.84000 155.256
52.88000 164.753
52.92000 156.093
52.96000 137.960
53.00000 156.306
53.04000 147.113
53.08000 159.210
53.12000 160.937
53.16000 156.446
53.20000 158.299
53.24000 151.065
53.28000 162.306
53.32000 169.070
53.36000 155.661
53.40000 165.709
53.44000 158.414
53.48000 156.692
53.52000 157.181
53.56000 159.284
53.60000 162.874
53.64000 151.436
53.68000 137.707
53.72000 153.172
53.76000 146.488
53.80000 155.465
53.84000 154.395
53.88000 152.793
53.92000 145.379
53.96000 150.145
54.00000 157.225
54.04000 158.138
54.08000 138.952
54.12000 137.140
54.16000 139.137
54.20000 154.960
54.24000 156.114
54.28000 155.520
54.32000 156.993
54.36000 151.889
54.40000 143.748
54.44000 146.105
54.48000 150.316
54.52000 141.866
54.56000 155.453
54.60000 154.306
54.64000 152.483
54.68000 148.110
54.72000 167.161
54.76000 157.682
54.80000 152.287
54.84000 159.853
54.88000 162.168
54.92000 154.667
54.96000 150.003
55.00000 152.488
55.04000 164.951
55.08000 161.676
55.12000 146.109
55.16000 151.076
55.20000 170.556
55.24000 152.130
55.28000 169.298
55.32000 166.887
55.36000 156.320
55.40000 174.602
55.44000 171.947
55.48000 177.991
55.52000 188.934
55.56000 200.369
55.60000 218.389
55.64000 234.260
55.68000 270.544
55.72000 316.422
55.76000 385.245
55.80000 436.605
55.84000 483.890
55.88000 560.352
55.92000 604.596
55.96000 642.380
56.00000 627.496
56.04000 591.305
56.08000 527.788
56.12000 496.584
56.16000 436.690
56.20000 371.410
56.24000 323.410
56.28000 277.658
56.32000 242.152
56.36000 215.204
56.40000 191.120
56.44000 183.188
56.48000 174.419
56.52000 164.698
56.56000 166.069
56.60000 154.714
56.64000 158.435
56.68000 159.179
56.72000 152.355
56.76000 146.147
56.80000 150.762
56.84000 152.889
56.88000 150.104
56.92000 140.410
56.96000 151.513
57.00000 154.128
57.04000 142.708
57.08000 153.064
57.12000 143.195
57.16000 145.896
57.20000 148.266
57.24000 148.188
57.28000 151.463
57.32000 151.590
57.36000 140.382
57.40000 150.725
57.44000 138.726
57.48000 138.489
57.52000 138.390
57.56000 137.829
57.60000 137.541
57.64000 140.489
57.68000 134.112
57.72000 145.473
57.76000 139.967
57.80000 143.713
57.84000 140.039
57.88000 141.448
57.92000 138.623
57.96000 138.254
58.00000 147.274
58.04000 138.421
58.08000 137.727
58.12000 142.517
58.16000 131.370
58.20000 135.191
58.24000 122.671
58.28000 137.874
58.32000 126.933
58.36000 140.086
58.40000 142.824
58.44000 149.057
58.48000 145.919
58.52000 141.755
58.56000 138.776
58.60000 135.907
58.64000 134.926
58.68000 129.201
58.72000 137.802
58.76000 134.765
58.80000 134.477
58.84000 132.919
58.88000 122.147
58.92000 125.292
58.96000 140.956
59.00000 129.278
59.04000 131.675
59.08000 122.182
59.12000 129.793
59.16000 128.795
59.20000 143.615
59.24000 130.274
59.28000 125.353
59.32000 131.605
59.36000 135.992
59.40000 137.358
59.44000 130.037
59.48000 133.128
59.52000 132.974
59.56000 128.100
59.60000 118.602
59.64000 127.598
59.68000 120.181
59.72000 121.824
59.76000 128.986
59.80000 132.826
59.84000 131.998
59.88000 129.383
59.92000 129.885
59.96000 132.771
60.00000 142.614
60.04000 129.678
60.08000 134.373
60.12000 140.637
60.16000 135.586
60.20000 129.566
60.24000 122.991
60.28000 127.752
60.32000 129.956
60.36000 128.314
60.40000 126.900
60.44000 130.723
60.48000 129.795
60.52000 128.405
60.56000 130.918
60.60000 135.582
60.64000 120.077
60.68000 128.199
60.72000 132.820
60.76000 132.070
60.80000 131.900
60.84000 143.354
60.88000 136.217
60.92000 138.715
60.96000 133.117
61.00000 140.038
61.04000 133.272
61.08000 127.240
61.12000 140.909
61.16000 146.225
61.20000 137.515
61.24000 124.982
61.28000 135.763
61.32000 134.251
61.36000 131.611
61.40000 129.245
61.44000 139.247
61.48000 144.096
61.52000 156.590
61.56000 187.199
61.60000 221.022
61.64000 232.229
61.68000 260.977
61.72000 248.968
61.76000 230.467
61.80000 202.036
61.84000 162.268
61.88000 145.033
61.92000 138.705
61.96000 134.792
62.00000 141.651
62.04000 142.046
62.08000 144.996
62.12000 140.231
62.16000 139.953
62.20000 149.228
62.24000 127.736
62.28000 139.453
62.32000 140.805
62.36000 139.140
62.40000 133.412
62.44000 137.827
62.48000 152.093
62.52000 137.918
62.56000 137.125
62.60000 141.792
62.64000 135.061
62.68000 134.894
62.72000 135.930
62.76000 139.951
62.80000 142.020
62.84000 136.547
62.88000 143.902
62.92000 141.790
62.96000 145.804
63.00000 148.341
63.04000 135.357
63.08000 145.730
63.12000 132.485
63.16000 138.043
63.20000 150.020
63.24000 147.944
63.28000 150.217
63.32000 138.239
63.36000 145.667
63.40000 134.113
63.44000 141.176
63.48000 144.264
63.52000 149.235
63.56000 148.374
63.60000 153.557
63.64000 142.998
63.68000 149.736
63.72000 148.304
63.76000 166.197
63.80000 155.119
63.84000 150.716
63.88000 143.426
63.92000 158.415
63.96000 150.830
64.00000 160.513
64.04000 165.787
64.08000 151.777
64.12000 154.221
64.16000 152.604
64.20000 154.381
64.24000 159.079
64.28000 160.109
64.32000 155.332
64.36000 159.214
64.40000 156.691
64.44000 160.087
64.48000 155.970
64.52000 168.085
64.56000 166.365
64.60000 162.102
64.64000 163.953
64.68000 161.720
64.72000 169.192
64.76000 171.041
64.80000 174.178
64.84000 182.102
64.88000 167.066
64.92000 186.114
64.96000 181.890
65.00000 170.365
65.04000 186.822
65.08000 195.134
65.12000 193.745
65.16000 201.435
65.20000 210.545
65.24000 230.141
65.28000 234.578
65.32000 246.551
65.36000 278.763
65.40000 286.658
65.44000 324.305
65.48000 344.174
65.52000 376.456
65.56000 375.196
65.60000 425.543
65.64000 451.216
65.68000 485.884
65.72000 576.914
65.76000 737.613
65.80000 872.119
65.84000 921.248
65.88000 942.988
65.92000 880.299
65.96000 746.428
66.00000 541.955
66.04000 377.206
66.08000 322.818
66.12000 285.048
66.16000 276.264
66.20000 268.587
66.24000 287.710
66.28000 306.175
66.32000 358.508
66.36000 383.880
66.40000 384.381
66.44000 398.228
66.48000 378.074
66.52000 350.897
66.56000 318.846
66.60000 308.337
66.64000 303.046
66.68000 291.668
66.72000 299.453
66.76000 300.546
66.80000 308.401
66.84000 285.842
66.88000 306.527
66.92000 295.953
66.96000 320.497
67.00000 319.809
67.04000 308.132
67.08000 318.601
67.12000 317.563
67.16000 357.398
67.20000 345.566
67.24000 340.808
67.28000 358.342
67.32000 355.414
67.36000 359.788
67.40000 368.765
67.44000 381.697
67.48000 382.524
67.52000 386.404
67.56000 407.456
67.60000 392.054
67.64000 393.874
67.68000 434.967
67.72000 415.936
67.76000 434.823
67.80000 457.089
67.84000 473.775
67.88000 468.367
67.92000 457.755
67.96000 471.726
68.00000 472.951
68.04000 495.752
68.08000 497.815
68.12000 511.547
68.16000 534.149
68.20000 538.141
68.24000 563.201
68.28000 593.244
68.32000 578.287
68.36000 612.322
68.40000 626.320
68.44000 665.545
68.48000 687.566
68.52000 720.713
68.56000 768.704
68.60000 837.120
68.64000 1005.084
68.68000 1160.949
68.72000 1363.136
68.76000 1531.329
68.80000 1673.888
68.84000 1930.676
68.88000 2366.450
68.92000 4123.571
68.96000 10859.351
69.00000 25296.059
69.04000 40457.645
69.08000 47859.527
69.12000 49079.539
69.16000 50724.648
69.20000 51153.281
69.24000 42286.039
69.28000 32254.352
69.32000 26241.730
69.36000 23868.908
69.40000 19820.174
69.44000 11896.346
69.48000 5423.564
69.52000 2423.977
69.56000 1597.821
69.60000 1303.142
69.64000 1110.431
69.68000 1010.201
69.72000 872.246
69.76000 823.862
69.80000 753.410
69.84000 732.838
69.88000 702.504
69.92000 677.312
69.96000 639.694
70.00000 621.280