File: XRD/17-09-2025/XY Data/BTO_Mapping_Theta2Theta_09-17-2025_001_19_0-000_0-000.xy
20.00000 537.074
20.04000 548.340
20.08000 583.641
20.12000 547.399
20.16000 558.287
20.20000 550.582
20.24000 555.877
20.28000 557.585
20.32000 559.133
20.36000 572.372
20.40000 552.442
20.44000 558.949
20.48000 563.528
20.52000 567.115
20.56000 561.535
20.60000 546.440
20.64000 557.439
20.68000 557.618
20.72000 543.783
20.76000 532.999
20.80000 543.461
20.84000 526.178
20.88000 530.604
20.92000 530.625
20.96000 536.284
21.00000 563.881
21.04000 556.858
21.08000 548.425
21.12000 548.736
21.16000 548.248
21.20000 566.455
21.24000 551.148
21.28000 552.786
21.32000 527.260
21.36000 588.474
21.40000 536.380
21.44000 540.410
21.48000 540.115
21.52000 553.229
21.56000 553.296
21.60000 544.855
21.64000 534.095
21.68000 574.292
21.72000 565.433
21.76000 600.019
21.80000 600.331
21.84000 597.998
21.88000 651.916
21.92000 713.919
21.96000 757.233
22.00000 791.257
22.04000 813.783
22.08000 820.034
22.12000 802.338
22.16000 751.599
22.20000 702.835
22.24000 629.750
22.28000 597.370
22.32000 576.266
22.36000 572.733
22.40000 553.636
22.44000 549.944
22.48000 538.539
22.52000 532.588
22.56000 522.174
22.60000 525.720
22.64000 522.655
22.68000 510.543
22.72000 525.777
22.76000 526.429
22.80000 535.815
22.84000 541.459
22.88000 514.289
22.92000 522.749
22.96000 539.826
23.00000 496.239
23.04000 514.980
23.08000 505.975
23.12000 492.198
23.16000 506.053
23.20000 504.884
23.24000 508.927
23.28000 495.844
23.32000 489.080
23.36000 491.475
23.40000 510.309
23.44000 496.450
23.48000 496.536
23.52000 520.911
23.56000 484.537
23.60000 489.711
23.64000 476.648
23.68000 507.031
23.72000 487.709
23.76000 500.147
23.80000 489.434
23.84000 494.011
23.88000 487.438
23.92000 486.574
23.96000 491.502
24.00000 488.878
24.04000 496.064
24.08000 479.753
24.12000 494.736
24.16000 487.662
24.20000 487.852
24.24000 483.984
24.28000 472.332
24.32000 486.055
24.36000 495.614
24.40000 481.971
24.44000 478.644
24.48000 485.934
24.52000 468.780
24.56000 478.009
24.60000 481.212
24.64000 467.041
24.68000 489.951
24.72000 486.433
24.76000 475.812
24.80000 463.222
24.84000 478.460
24.88000 486.122
24.92000 463.626
24.96000 478.690
25.00000 471.447
25.04000 481.626
25.08000 465.677
25.12000 475.297
25.16000 476.660
25.20000 458.322
25.24000 474.611
25.28000 470.654
25.32000 464.433
25.36000 472.667
25.40000 457.682
25.44000 461.734
25.48000 477.678
25.52000 446.131
25.56000 466.322
25.60000 477.904
25.64000 459.950
25.68000 471.250
25.72000 459.473
25.76000 446.558
25.80000 452.839
25.84000 452.785
25.88000 477.621
25.92000 469.156
25.96000 447.409
26.00000 442.162
26.04000 462.545
26.08000 435.147
26.12000 452.747
26.16000 451.070
26.20000 469.818
26.24000 484.597
26.28000 480.336
26.32000 455.023
26.36000 456.837
26.40000 439.929
26.44000 456.540
26.48000 451.668
26.52000 472.194
26.56000 443.314
26.60000 439.340
26.64000 454.861
26.68000 447.237
26.72000 421.268
26.76000 444.743
26.80000 466.887
26.84000 434.446
26.88000 452.012
26.92000 443.616
26.96000 470.078
27.00000 463.692
27.04000 435.827
27.08000 448.882
27.12000 449.698
27.16000 454.580
27.20000 449.058
27.24000 449.569
27.28000 430.784
27.32000 419.999
27.36000 432.301
27.40000 429.570
27.44000 461.740
27.48000 421.875
27.52000 424.736
27.56000 422.482
27.60000 436.115
27.64000 424.475
27.68000 446.181
27.72000 443.628
27.76000 441.030
27.80000 433.608
27.84000 434.508
27.88000 424.410
27.92000 430.926
27.96000 428.974
28.00000 442.235
28.04000 435.823
28.08000 439.413
28.12000 434.183
28.16000 437.571
28.20000 442.682
28.24000 434.802
28.28000 418.503
28.32000 417.997
28.36000 419.400
28.40000 438.037
28.44000 408.235
28.48000 423.002
28.52000 417.499
28.56000 412.619
28.60000 427.372
28.64000 432.265
28.68000 411.905
28.72000 423.124
28.76000 420.659
28.80000 417.162
28.84000 409.549
28.88000 406.831
28.92000 418.527
28.96000 421.170
29.00000 414.888
29.04000 422.069
29.08000 416.412
29.12000 415.748
29.16000 403.847
29.20000 398.717
29.24000 418.817
29.28000 418.028
29.32000 407.576
29.36000 415.127
29.40000 409.183
29.44000 396.385
29.48000 407.174
29.52000 409.471
29.56000 437.671
29.60000 409.339
29.64000 421.741
29.68000 412.293
29.72000 407.644
29.76000 412.124
29.80000 433.686
29.84000 436.300
29.88000 421.948
29.92000 418.186
29.96000 447.388
30.00000 452.530
30.04000 469.908
30.08000 457.580
30.12000 459.178
30.16000 448.311
30.20000 443.095
30.24000 438.568
30.28000 436.734
30.32000 436.290
30.36000 434.248
30.40000 421.206
30.44000 426.420
30.48000 453.271
30.52000 435.183
30.56000 438.130
30.60000 434.057
30.64000 455.328
30.68000 443.203
30.72000 458.480
30.76000 465.610
30.80000 451.569
30.84000 480.600
30.88000 488.528
30.92000 503.701
30.96000 531.898
31.00000 589.452
31.04000 667.087
31.08000 799.632
31.12000 993.529
31.16000 1293.501
31.20000 1679.561
31.24000 2200.503
31.28000 2805.351
31.32000 3330.796
31.36000 3567.786
31.40000 3664.936
31.44000 3370.387
31.48000 2931.393
31.52000 2294.225
31.56000 1749.568
31.60000 1255.648
31.64000 918.721
31.68000 705.738
31.72000 596.626
31.76000 524.038
31.80000 486.949
31.84000 472.607
31.88000 460.680
31.92000 432.188
31.96000 428.328
32.00000 413.580
32.04000 417.042
32.08000 427.309
32.12000 411.980
32.16000 398.911
32.20000 410.814
32.24000 403.238
32.28000 394.307
32.32000 408.635
32.36000 400.194
32.40000 375.450
32.44000 383.915
32.48000 397.073
32.52000 384.854
32.56000 381.540
32.60000 377.709
32.64000 368.639
32.68000 364.136
32.72000 377.218
32.76000 367.569
32.80000 351.801
32.84000 357.237
32.88000 351.066
32.92000 341.534
32.96000 358.538
33.00000 347.688
33.04000 374.095
33.08000 325.151
33.12000 345.147
33.16000 359.615
33.20000 351.680
33.24000 353.758
33.28000 336.604
33.32000 339.103
33.36000 366.387
33.40000 344.125
33.44000 332.633
33.48000 337.123
33.52000 351.380
33.56000 334.017
33.60000 335.050
33.64000 345.921
33.68000 337.154
33.72000 352.585
33.76000 323.936
33.80000 336.391
33.84000 332.661
33.88000 322.299
33.92000 336.233
33.96000 327.407
34.00000 343.472
34.04000 333.829
34.08000 320.060
34.12000 330.171
34.16000 335.310
34.20000 348.006
34.24000 321.779
34.28000 336.614
34.32000 338.497
34.36000 320.331
34.40000 336.274
34.44000 320.696
34.48000 311.038
34.52000 313.660
34.56000 335.385
34.60000 327.978
34.64000 317.884
34.68000 310.398
34.72000 334.964
34.76000 326.670
34.80000 300.121
34.84000 311.995
34.88000 313.378
34.92000 330.601
34.96000 322.118
35.00000 300.802
35.04000 318.830
35.08000 309.142
35.12000 321.792
35.16000 319.962
35.20000 326.621
35.24000 319.003
35.28000 315.412
35.32000 320.946
35.36000 311.212
35.40000 328.621
35.44000 314.905
35.48000 304.553
35.52000 298.733
35.56000 305.117
35.60000 303.884
35.64000 308.203
35.68000 313.489
35.72000 308.306
35.76000 313.156
35.80000 291.793
35.84000 299.533
35.88000 288.220
35.92000 295.709
35.96000 300.894
36.00000 303.452
36.04000 297.886
36.08000 292.680
36.12000 305.706
36.16000 289.833
36.20000 300.853
36.24000 315.553
36.28000 284.717
36.32000 297.229
36.36000 285.041
36.40000 301.121
36.44000 302.842
36.48000 300.623
36.52000 295.788
36.56000 293.790
36.60000 310.243
36.64000 281.079
36.68000 294.994
36.72000 297.929
36.76000 294.233
36.80000 298.313
36.84000 294.583
36.88000 307.406
36.92000 316.438
36.96000 298.057
37.00000 299.970
37.04000 315.518
37.08000 301.460
37.12000 303.784
37.16000 300.457
37.20000 295.442
37.24000 308.195
37.28000 290.029
37.32000 289.611
37.36000 283.682
37.40000 291.452
37.44000 293.361
37.48000 284.840
37.52000 288.707
37.56000 300.077
37.60000 292.096
37.64000 296.892
37.68000 307.214
37.72000 296.317
37.76000 298.447
37.80000 296.335
37.84000 282.547
37.88000 282.543
37.92000 284.276
37.96000 303.164
38.00000 298.644
38.04000 304.667
38.08000 277.626
38.12000 285.292
38.16000 308.089
38.20000 303.659
38.24000 319.057
38.28000 334.214
38.32000 305.985
38.36000 326.152
38.40000 369.303
38.44000 376.965
38.48000 425.406
38.52000 476.162
38.56000 561.927
38.60000 648.144
38.64000 718.626
38.68000 764.042
38.72000 807.128
38.76000 802.514
38.80000 751.199
38.84000 651.108
38.88000 551.652
38.92000 467.706
38.96000 401.526
39.00000 361.604
39.04000 331.013
39.08000 298.103
39.12000 284.866
39.16000 290.412
39.20000 291.787
39.24000 279.772
39.28000 281.739
39.32000 283.119
39.36000 270.370
39.40000 290.908
39.44000 276.034
39.48000 265.097
39.52000 281.287
39.56000 269.424
39.60000 280.049
39.64000 266.446
39.68000 276.088
39.72000 275.870
39.76000 260.204
39.80000 257.328
39.84000 265.248
39.88000 248.430
39.92000 259.827
39.96000 250.706
40.00000 265.903
40.04000 251.365
40.08000 264.978
40.12000 256.213
40.16000 258.122
40.20000 259.927
40.24000 274.442
40.28000 264.684
40.32000 258.425
40.36000 250.042
40.40000 248.099
40.44000 246.986
40.48000 253.043
40.52000 249.383
40.56000 248.714
40.60000 258.821
40.64000 252.303
40.68000 257.451
40.72000 253.365
40.76000 244.130
40.80000 257.771
40.84000 251.277
40.88000 262.621
40.92000 248.114
40.96000 251.313
41.00000 227.970
41.04000 247.001
41.08000 246.133
41.12000 256.906
41.16000 245.315
41.20000 244.123
41.24000 256.134
41.28000 258.721
41.32000 251.606
41.36000 239.440
41.40000 232.877
41.44000 238.062
41.48000 233.145
41.52000 242.886
41.56000 234.172
41.60000 251.548
41.64000 243.479
41.68000 255.481
41.72000 247.246
41.76000 247.372
41.80000 242.296
41.84000 233.835
41.88000 242.798
41.92000 234.569
41.96000 233.032
42.00000 237.574
42.04000 233.616
42.08000 241.434
42.12000 243.314
42.16000 232.055
42.20000 227.954
42.24000 228.273
42.28000 247.946
42.32000 237.610
42.36000 239.082
42.40000 234.584
42.44000 231.531
42.48000 228.931
42.52000 231.719
42.56000 213.114
42.60000 221.156
42.64000 214.181
42.68000 229.759
42.72000 223.548
42.76000 236.444
42.80000 231.613
42.84000 224.257
42.88000 219.641
42.92000 219.537
42.96000 228.476
43.00000 228.258
43.04000 228.472
43.08000 220.588
43.12000 228.736
43.16000 214.160
43.20000 225.890
43.24000 238.117
43.28000 221.355
43.32000 207.221
43.36000 220.989
43.40000 222.482
43.44000 206.342
43.48000 218.253
43.52000 225.756
43.56000 223.408
43.60000 231.825
43.64000 231.457
43.68000 218.639
43.72000 222.560
43.76000 220.214
43.80000 227.370
43.84000 215.543
43.88000 208.107
43.92000 225.960
43.96000 220.521
44.00000 213.807
44.04000 210.736
44.08000 216.334
44.12000 226.389
44.16000 223.445
44.20000 232.645
44.24000 211.330
44.28000 231.546
44.32000 206.588
44.36000 222.664
44.40000 229.505
44.44000 217.898
44.48000 240.452
44.52000 215.932
44.56000 229.454
44.60000 230.745
44.64000 219.743
44.68000 244.081
44.72000 254.234
44.76000 256.775
44.80000 275.667
44.84000 295.308
44.88000 324.583
44.92000 344.928
44.96000 401.907
45.00000 424.943
45.04000 466.612
45.08000 487.159
45.12000 437.751
45.16000 451.328
45.20000 408.724
45.24000 401.227
45.28000 343.917
45.32000 322.700
45.36000 280.578
45.40000 282.403
45.44000 259.982
45.48000 253.035
45.52000 243.809
45.56000 232.486
45.60000 231.783
45.64000 224.036
45.68000 219.099
45.72000 224.911
45.76000 216.874
45.80000 214.534
45.84000 204.455
45.88000 215.943
45.92000 211.766
45.96000 203.736
46.00000 204.587
46.04000 207.144
46.08000 213.541
46.12000 206.835
46.16000 221.681
46.20000 202.417
46.24000 202.949
46.28000 202.926
46.32000 210.588
46.36000 218.296
46.40000 200.040
46.44000 199.406
46.48000 215.782
46.52000 194.520
46.56000 197.866
46.60000 215.158
46.64000 205.656
46.68000 207.923
46.72000 206.144
46.76000 191.386
46.80000 193.140
46.84000 193.472
46.88000 195.492
46.92000 200.942
46.96000 195.511
47.00000 176.143
47.04000 190.363
47.08000 180.782
47.12000 188.751
47.16000 194.748
47.20000 199.574
47.24000 192.561
47.28000 188.609
47.32000 182.603
47.36000 188.093
47.40000 172.966
47.44000 188.391
47.48000 194.886
47.52000 192.493
47.56000 185.026
47.60000 177.949
47.64000 180.470
47.68000 189.380
47.72000 195.138
47.76000 193.507
47.80000 185.307
47.84000 191.368
47.88000 188.015
47.92000 186.467
47.96000 178.025
48.00000 187.181
48.04000 198.635
48.08000 189.482
48.12000 176.299
48.16000 179.746
48.20000 183.986
48.24000 172.465
48.28000 173.876
48.32000 180.960
48.36000 182.396
48.40000 171.371
48.44000 179.393
48.48000 182.372
48.52000 182.835
48.56000 170.426
48.60000 178.198
48.64000 186.962
48.68000 174.576
48.72000 178.155
48.76000 171.205
48.80000 177.218
48.84000 185.318
48.88000 180.194
48.92000 179.729
48.96000 183.547
49.00000 186.512
49.04000 179.195
49.08000 173.206
49.12000 178.625
49.16000 189.448
49.20000 169.311
49.24000 182.688
49.28000 172.095
49.32000 179.861
49.36000 179.545
49.40000 180.553
49.44000 181.933
49.48000 166.185
49.52000 176.661
49.56000 181.355
49.60000 179.674
49.64000 179.413
49.68000 181.149
49.72000 178.741
49.76000 188.973
49.80000 164.775
49.84000 175.397
49.88000 171.733
49.92000 181.447
49.96000 182.605
50.00000 185.789
50.04000 180.102
50.08000 170.617
50.12000 170.972
50.16000 177.289
50.20000 193.894
50.24000 187.575
50.28000 191.664
50.32000 181.367
50.36000 193.984
50.40000 193.299
50.44000 216.506
50.48000 219.206
50.52000 216.496
50.56000 225.826
50.60000 258.601
50.64000 269.925
50.68000 280.097
50.72000 273.760
50.76000 260.607
50.80000 262.510
50.84000 238.144
50.88000 241.651
50.92000 222.636
50.96000 213.477
51.00000 216.029
51.04000 192.344
51.08000 184.384
51.12000 179.847
51.16000 176.797
51.20000 174.296
51.24000 176.286
51.28000 175.137
51.32000 170.192
51.36000 165.891
51.40000 161.796
51.44000 170.347
51.48000 163.365
51.52000 161.494
51.56000 175.259
51.60000 165.269
51.64000 157.140
51.68000 168.028
51.72000 165.050
51.76000 162.263
51.80000 153.385
51.84000 163.795
51.88000 163.127
51.92000 157.883
51.96000 159.927
52.00000 176.151
52.04000 168.157
52.08000 164.794
52.12000 166.289
52.16000 160.164
52.20000 161.973
52.24000 160.787
52.28000 159.924
52.32000 166.981
52.36000 151.060
52.40000 156.342
52.44000 155.144
52.48000 165.415
52.52000 155.288
52.56000 154.257
52.60000 150.993
52.64000 154.349
52.68000 148.250
52.72000 158.477
52.76000 155.376
52.80000 162.743
52.84000 155.092
52.88000 166.185
52.92000 162.830
52.96000 153.933
53.00000 154.870
53.04000 161.397
53.08000 153.231
53.12000 162.266
53.16000 160.527
53.20000 144.759
53.24000 168.954
53.28000 160.939
53.32000 156.080
53.36000 163.061
53.40000 166.989
53.44000 163.931
53.48000 173.671
53.52000 164.852
53.56000 152.178
53.60000 156.982
53.64000 169.492
53.68000 163.160
53.72000 156.670
53.76000 151.657
53.80000 157.763
53.84000 156.287
53.88000 153.600
53.92000 154.538
53.96000 161.793
54.00000 158.855
54.04000 156.536
54.08000 147.975
54.12000 161.170
54.16000 153.592
54.20000 162.451
54.24000 149.598
54.28000 149.866
54.32000 154.145
54.36000 157.099
54.40000 151.255
54.44000 163.548
54.48000 151.032
54.52000 161.683
54.56000 151.112
54.60000 158.664
54.64000 149.589
54.68000 151.914
54.72000 170.412
54.76000 158.020
54.80000 152.028
54.84000 153.082
54.88000 155.785
54.92000 143.544
54.96000 168.742
55.00000 158.678
55.04000 160.126
55.08000 161.885
55.12000 153.837
55.16000 165.746
55.20000 160.231
55.24000 176.771
55.28000 162.460
55.32000 180.075
55.36000 174.177
55.40000 172.925
55.44000 185.810
55.48000 187.595
55.52000 195.600
55.56000 199.802
55.60000 216.102
55.64000 258.435
55.68000 295.504
55.72000 355.582
55.76000 425.740
55.80000 484.403
55.84000 556.567
55.88000 623.037
55.92000 665.795
55.96000 663.439
56.00000 628.309
56.04000 579.380
56.08000 504.276
56.12000 451.601
56.16000 372.778
56.20000 350.793
56.24000 289.657
56.28000 250.876
56.32000 221.385
56.36000 202.335
56.40000 181.178
56.44000 174.610
56.48000 166.296
56.52000 168.458
56.56000 164.403
56.60000 156.848
56.64000 155.330
56.68000 144.379
56.72000 161.188
56.76000 162.946
56.80000 156.480
56.84000 150.967
56.88000 153.433
56.92000 142.039
56.96000 143.356
57.00000 159.483
57.04000 146.509
57.08000 147.101
57.12000 142.142
57.16000 144.115
57.20000 148.010
57.24000 138.254
57.28000 148.953
57.32000 147.212
57.36000 154.402
57.40000 143.105
57.44000 134.650
57.48000 149.501
57.52000 138.005
57.56000 143.413
57.60000 143.671
57.64000 142.795
57.68000 144.888
57.72000 137.060
57.76000 139.009
57.80000 137.430
57.84000 150.298
57.88000 133.047
57.92000 135.960
57.96000 143.385
58.00000 141.660
58.04000 144.448
58.08000 141.561
58.12000 140.365
58.16000 142.291
58.20000 128.162
58.24000 140.158
58.28000 142.235
58.32000 142.106
58.36000 138.630
58.40000 126.563
58.44000 132.809
58.48000 139.018
58.52000 138.622
58.56000 138.278
58.60000 145.575
58.64000 137.339
58.68000 128.887
58.72000 128.841
58.76000 138.532
58.80000 134.893
58.84000 128.043
58.88000 129.844
58.92000 142.019
58.96000 134.307
59.00000 131.523
59.04000 128.691
59.08000 144.331
59.12000 133.478
59.16000 128.653
59.20000 133.664
59.24000 133.659
59.28000 138.551
59.32000 136.723
59.36000 140.221
59.40000 130.913
59.44000 132.755
59.48000 135.652
59.52000 139.472
59.56000 130.641
59.60000 128.646
59.64000 135.928
59.68000 132.305
59.72000 128.666
59.76000 130.135
59.80000 141.082
59.84000 139.771
59.88000 138.305
59.92000 135.281
59.96000 133.070
60.00000 136.210
60.04000 133.184
60.08000 124.408
60.12000 127.091
60.16000 131.135
60.20000 134.983
60.24000 139.023
60.28000 140.839
60.32000 125.759
60.36000 137.329
60.40000 136.021
60.44000 123.867
60.48000 134.300
60.52000 143.868
60.56000 129.292
60.60000 130.498
60.64000 131.679
60.68000 128.969
60.72000 140.896
60.76000 130.880
60.80000 136.671
60.84000 135.686
60.88000 138.412
60.92000 122.751
60.96000 131.106
61.00000 132.955
61.04000 121.969
61.08000 135.940
61.12000 138.017
61.16000 137.923
61.20000 143.117
61.24000 132.254
61.28000 130.925
61.32000 136.118
61.36000 146.781
61.40000 136.646
61.44000 137.341
61.48000 153.307
61.52000 175.015
61.56000 223.910
61.60000 263.532
61.64000 302.171
61.68000 320.317
61.72000 314.398
61.76000 293.679
61.80000 223.290
61.84000 186.013
61.88000 159.248
61.92000 154.908
61.96000 152.914
62.00000 140.371
62.04000 140.932
62.08000 150.727
62.12000 150.398
62.16000 131.649
62.20000 137.623
62.24000 145.794
62.28000 146.087
62.32000 148.033
62.36000 149.445
62.40000 134.138
62.44000 140.151
62.48000 133.744
62.52000 139.060
62.56000 142.009
62.60000 152.929
62.64000 141.263
62.68000 146.566
62.72000 150.902
62.76000 155.422
62.80000 136.828
62.84000 149.262
62.88000 148.452
62.92000 156.676
62.96000 144.540
63.00000 137.090
63.04000 147.495
63.08000 136.254
63.12000 148.140
63.16000 149.445
63.20000 151.624
63.24000 146.637
63.28000 146.699
63.32000 154.722
63.36000 146.569
63.40000 151.524
63.44000 152.998
63.48000 141.999
63.52000 143.393
63.56000 151.240
63.60000 150.672
63.64000 158.371
63.68000 145.895
63.72000 149.479
63.76000 159.716
63.80000 155.863
63.84000 168.044
63.88000 155.214
63.92000 154.757
63.96000 148.745
64.00000 159.936
64.04000 154.772
64.08000 152.135
64.12000 140.318
64.16000 145.721
64.20000 155.364
64.24000 157.283
64.28000 162.962
64.32000 157.226
64.36000 174.658
64.40000 158.823
64.44000 160.395
64.48000 165.541
64.52000 173.950
64.56000 170.740
64.60000 173.058
64.64000 178.427
64.68000 178.293
64.72000 178.773
64.76000 177.882
64.80000 175.662
64.84000 174.213
64.88000 190.594
64.92000 195.271
64.96000 191.227
65.00000 181.311
65.04000 196.997
65.08000 211.081
65.12000 205.032
65.16000 226.355
65.20000 245.862
65.24000 230.806
65.28000 276.244
65.32000 281.372
65.36000 345.712
65.40000 338.026
65.44000 380.055
65.48000 412.655
65.52000 424.893
65.56000 453.227
65.60000 463.722
65.64000 509.223
65.68000 581.292
65.72000 743.157
65.76000 954.604
65.80000 1162.168
65.84000 1281.314
65.88000 1291.347
65.92000 1196.082
65.96000 986.685
66.00000 682.190
66.04000 468.310
66.08000 375.779
66.12000 326.379
66.16000 311.045
66.20000 293.889
66.24000 336.694
66.28000 360.646
66.32000 398.562
66.36000 452.433
66.40000 452.900
66.44000 476.648
66.48000 477.306
66.52000 429.608
66.56000 387.620
66.60000 353.710
66.64000 337.775
66.68000 331.949
66.72000 324.594
66.76000 334.043
66.80000 334.830
66.84000 353.884
66.88000 346.818
66.92000 348.399
66.96000 369.787
67.00000 363.225
67.04000 395.049
67.08000 371.790
67.12000 386.918
67.16000 406.645
67.20000 387.705
67.24000 400.395
67.28000 420.932
67.32000 419.317
67.36000 411.470
67.40000 416.323
67.44000 424.025
67.48000 441.385
67.52000 436.665
67.56000 429.095
67.60000 474.056
67.64000 455.110
67.68000 490.894
67.72000 485.131
67.76000 482.035
67.80000 502.400
67.84000 517.402
67.88000 517.605
67.92000 532.309
67.96000 567.298
68.00000 578.088
68.04000 596.424
68.08000 570.081
68.12000 613.843
68.16000 610.899
68.20000 635.512
68.24000 665.939
68.28000 673.009
68.32000 715.674
68.36000 734.388
68.40000 755.015
68.44000 765.347
68.48000 837.730
68.52000 895.998
68.56000 968.888
68.60000 1080.130
68.64000 1325.833
68.68000 1525.518
68.72000 1836.436
68.76000 2063.344
68.80000 2348.856
68.84000 2769.623
68.88000 3736.534
68.92000 7018.491
68.96000 18363.201
69.00000 40110.055
69.04000 62082.133
69.08000 72584.984
69.12000 74380.328
69.16000 76805.992
69.20000 76234.719
69.24000 62911.188
69.28000 48533.996
69.32000 39673.543
69.36000 35547.980
69.40000 28511.910
69.44000 16946.285
69.48000 7812.913
69.52000 3363.749
69.56000 2128.788
69.60000 1630.292
69.64000 1413.466
69.68000 1244.754
69.72000 1137.398
69.76000 1006.514
69.80000 964.182
69.84000 876.058
69.88000 855.247
69.92000 755.823
69.96000 755.495
70.00000 740.738