File: XRD/24-09-2025 Dep 3/XY Data/BTO_Mapping_Theta2Theta_24-09-2025_001_42_-5-000_-8-660.xy
20.00000 573.678
20.04000 548.639
20.08000 580.008
20.12000 545.621
20.16000 550.333
20.20000 548.355
20.24000 534.289
20.28000 561.413
20.32000 558.651
20.36000 551.509
20.40000 560.252
20.44000 557.468
20.48000 556.619
20.52000 549.593
20.56000 561.063
20.60000 553.699
20.64000 553.506
20.68000 538.513
20.72000 544.410
20.76000 541.453
20.80000 535.772
20.84000 553.229
20.88000 544.890
20.92000 541.057
20.96000 550.786
21.00000 547.295
21.04000 539.121
21.08000 549.062
21.12000 564.326
21.16000 548.392
21.20000 556.617
21.24000 567.590
21.28000 543.150
21.32000 545.281
21.36000 546.239
21.40000 541.503
21.44000 555.114
21.48000 553.994
21.52000 568.367
21.56000 548.368
21.60000 561.219
21.64000 552.626
21.68000 573.048
21.72000 569.615
21.76000 554.401
21.80000 597.803
21.84000 602.249
21.88000 627.366
21.92000 646.511
21.96000 678.354
22.00000 701.259
22.04000 723.261
22.08000 700.491
22.12000 719.543
22.16000 703.379
22.20000 666.549
22.24000 622.396
22.28000 624.332
22.32000 613.449
22.36000 591.236
22.40000 567.295
22.44000 578.107
22.48000 559.298
22.52000 551.174
22.56000 538.927
22.60000 523.109
22.64000 517.415
22.68000 521.877
22.72000 518.320
22.76000 508.560
22.80000 513.882
22.84000 519.741
22.88000 539.574
22.92000 517.720
22.96000 511.579
23.00000 504.238
23.04000 497.323
23.08000 515.021
23.12000 506.087
23.16000 534.226
23.20000 518.535
23.24000 500.410
23.28000 504.501
23.32000 522.829
23.36000 500.620
23.40000 519.556
23.44000 501.354
23.48000 511.460
23.52000 477.239
23.56000 503.288
23.60000 511.311
23.64000 499.742
23.68000 471.461
23.72000 499.205
23.76000 503.087
23.80000 494.021
23.84000 487.499
23.88000 498.252
23.92000 488.041
23.96000 486.573
24.00000 496.843
24.04000 481.001
24.08000 491.578
24.12000 481.243
24.16000 506.949
24.20000 491.724
24.24000 509.523
24.28000 482.259
24.32000 492.017
24.36000 478.731
24.40000 456.798
24.44000 466.649
24.48000 483.520
24.52000 491.285
24.56000 492.590
24.60000 487.506
24.64000 509.394
24.68000 478.573
24.72000 483.837
24.76000 490.315
24.80000 482.942
24.84000 493.792
24.88000 478.847
24.92000 489.764
24.96000 465.882
25.00000 496.421
25.04000 471.910
25.08000 472.035
25.12000 479.209
25.16000 467.215
25.20000 471.068
25.24000 475.310
25.28000 492.769
25.32000 469.413
25.36000 482.575
25.40000 475.670
25.44000 461.342
25.48000 474.988
25.52000 479.740
25.56000 454.318
25.60000 481.236
25.64000 468.039
25.68000 473.252
25.72000 461.067
25.76000 451.664
25.80000 463.333
25.84000 466.467
25.88000 471.481
25.92000 451.189
25.96000 458.094
26.00000 467.833
26.04000 467.050
26.08000 456.807
26.12000 452.957
26.16000 460.260
26.20000 468.973
26.24000 466.393
26.28000 453.005
26.32000 442.820
26.36000 438.858
26.40000 444.269
26.44000 441.991
26.48000 444.595
26.52000 439.964
26.56000 451.762
26.60000 447.141
26.64000 450.629
26.68000 441.687
26.72000 452.208
26.76000 452.576
26.80000 450.175
26.84000 460.010
26.88000 463.852
26.92000 434.911
26.96000 430.790
27.00000 441.287
27.04000 432.007
27.08000 453.435
27.12000 450.002
27.16000 449.967
27.20000 433.172
27.24000 423.061
27.28000 434.354
27.32000 433.118
27.36000 427.706
27.40000 428.235
27.44000 440.693
27.48000 442.715
27.52000 431.517
27.56000 441.283
27.60000 431.668
27.64000 443.124
27.68000 434.402
27.72000 447.548
27.76000 415.544
27.80000 435.899
27.84000 405.961
27.88000 421.673
27.92000 425.154
27.96000 414.636
28.00000 438.824
28.04000 433.231
28.08000 428.349
28.12000 430.876
28.16000 450.067
28.20000 424.503
28.24000 424.246
28.28000 428.965
28.32000 440.408
28.36000 438.514
28.40000 447.841
28.44000 435.591
28.48000 432.473
28.52000 437.276
28.56000 413.935
28.60000 428.161
28.64000 419.925
28.68000 424.496
28.72000 414.762
28.76000 415.659
28.80000 420.493
28.84000 422.665
28.88000 430.423
28.92000 409.965
28.96000 427.083
29.00000 416.845
29.04000 431.016
29.08000 410.037
29.12000 413.189
29.16000 410.116
29.20000 424.047
29.24000 420.735
29.28000 409.378
29.32000 411.425
29.36000 413.499
29.40000 415.964
29.44000 417.106
29.48000 406.376
29.52000 404.327
29.56000 420.659
29.60000 438.759
29.64000 419.247
29.68000 426.351
29.72000 420.626
29.76000 416.312
29.80000 400.406
29.84000 450.158
29.88000 449.094
29.92000 459.813
29.96000 456.623
30.00000 473.836
30.04000 456.902
30.08000 464.202
30.12000 453.221
30.16000 448.890
30.20000 439.111
30.24000 432.895
30.28000 449.217
30.32000 441.812
30.36000 439.249
30.40000 439.937
30.44000 440.264
30.48000 434.564
30.52000 463.402
30.56000 436.555
30.60000 440.720
30.64000 439.458
30.68000 441.627
30.72000 460.531
30.76000 471.061
30.80000 468.909
30.84000 481.490
30.88000 490.116
30.92000 514.742
30.96000 537.264
31.00000 611.952
31.04000 713.605
31.08000 837.708
31.12000 1074.722
31.16000 1356.486
31.20000 1785.129
31.24000 2273.514
31.28000 2743.887
31.32000 3187.236
31.36000 3456.095
31.40000 3489.309
31.44000 3307.036
31.48000 3018.601
31.52000 2500.236
31.56000 2013.008
31.60000 1573.249
31.64000 1182.212
31.68000 946.037
31.72000 772.925
31.76000 640.533
31.80000 590.929
31.84000 538.560
31.88000 484.240
31.92000 464.864
31.96000 436.738
32.00000 437.081
32.04000 436.091
32.08000 436.480
32.12000 410.574
32.16000 404.199
32.20000 409.400
32.24000 419.646
32.28000 393.268
32.32000 392.148
32.36000 391.868
32.40000 400.665
32.44000 381.114
32.48000 382.202
32.52000 396.423
32.56000 400.087
32.60000 361.127
32.64000 385.803
32.68000 382.301
32.72000 392.355
32.76000 383.966
32.80000 397.326
32.84000 438.899
32.88000 482.820
32.92000 458.444
32.96000 477.081
33.00000 489.620
33.04000 460.637
33.08000 408.421
33.12000 362.953
33.16000 362.047
33.20000 365.270
33.24000 358.048
33.28000 349.312
33.32000 347.321
33.36000 352.607
33.40000 336.080
33.44000 344.205
33.48000 348.959
33.52000 342.461
33.56000 333.907
33.60000 343.872
33.64000 366.244
33.68000 343.933
33.72000 340.827
33.76000 334.041
33.80000 329.218
33.84000 337.813
33.88000 330.339
33.92000 333.729
33.96000 342.664
34.00000 336.840
34.04000 328.624
34.08000 328.734
34.12000 319.634
34.16000 333.404
34.20000 342.927
34.24000 336.810
34.28000 330.762
34.32000 333.203
34.36000 317.867
34.40000 331.729
34.44000 341.237
34.48000 335.487
34.52000 336.680
34.56000 315.280
34.60000 332.958
34.64000 324.477
34.68000 329.772
34.72000 314.276
34.76000 305.551
34.80000 338.299
34.84000 336.978
34.88000 337.825
34.92000 323.840
34.96000 318.313
35.00000 310.215
35.04000 316.160
35.08000 322.026
35.12000 310.622
35.16000 295.922
35.20000 310.346
35.24000 308.606
35.28000 297.488
35.32000 306.009
35.36000 302.078
35.40000 308.774
35.44000 320.082
35.48000 323.859
35.52000 303.020
35.56000 309.580
35.60000 295.644
35.64000 317.524
35.68000 314.149
35.72000 309.947
35.76000 318.600
35.80000 316.061
35.84000 302.380
35.88000 290.262
35.92000 310.707
35.96000 308.957
36.00000 305.022
36.04000 296.342
36.08000 296.232
36.12000 296.551
36.16000 296.349
36.20000 296.690
36.24000 299.746
36.28000 293.893
36.32000 288.826
36.36000 306.120
36.40000 288.363
36.44000 302.106
36.48000 293.497
36.52000 285.218
36.56000 310.250
36.60000 291.684
36.64000 299.065
36.68000 304.124
36.72000 281.189
36.76000 292.913
36.80000 313.308
36.84000 300.159
36.88000 307.105
36.92000 330.599
36.96000 314.403
37.00000 313.073
37.04000 313.898
37.08000 328.808
37.12000 313.475
37.16000 287.590
37.20000 309.813
37.24000 303.305
37.28000 293.352
37.32000 293.501
37.36000 308.975
37.40000 299.451
37.44000 300.751
37.48000 297.509
37.52000 303.895
37.56000 295.916
37.60000 293.703
37.64000 293.230
37.68000 298.249
37.72000 292.230
37.76000 299.660
37.80000 304.746
37.84000 287.928
37.88000 294.451
37.92000 290.710
37.96000 298.265
38.00000 299.783
38.04000 307.663
38.08000 303.086
38.12000 310.710
38.16000 320.141
38.20000 330.518
38.24000 317.138
38.28000 336.997
38.32000 360.262
38.36000 402.081
38.40000 438.743
38.44000 538.095
38.48000 634.087
38.52000 776.536
38.56000 972.254
38.60000 1174.412
38.64000 1362.150
38.68000 1486.424
38.72000 1498.426
38.76000 1466.249
38.80000 1269.842
38.84000 1089.535
38.88000 894.007
38.92000 688.821
38.96000 539.882
39.00000 457.817
39.04000 396.293
39.08000 358.419
39.12000 339.799
39.16000 318.663
39.20000 317.211
39.24000 294.927
39.28000 297.018
39.32000 286.729
39.36000 286.710
39.40000 272.039
39.44000 284.763
39.48000 275.334
39.52000 275.726
39.56000 275.456
39.60000 283.882
39.64000 281.572
39.68000 268.323
39.72000 288.850
39.76000 270.948
39.80000 284.585
39.84000 275.370
39.88000 266.072
39.92000 261.633
39.96000 264.061
40.00000 249.531
40.04000 254.258
40.08000 270.645
40.12000 265.431
40.16000 255.832
40.20000 249.304
40.24000 261.872
40.28000 258.751
40.32000 266.028
40.36000 254.234
40.40000 255.770
40.44000 260.966
40.48000 264.444
40.52000 254.264
40.56000 249.547
40.60000 255.520
40.64000 239.394
40.68000 258.918
40.72000 257.241
40.76000 254.490
40.80000 253.933
40.84000 248.274
40.88000 247.184
40.92000 258.824
40.96000 254.154
41.00000 245.623
41.04000 252.728
41.08000 247.235
41.12000 240.764
41.16000 246.451
41.20000 249.621
41.24000 240.500
41.28000 236.604
41.32000 240.661
41.36000 250.678
41.40000 247.294
41.44000 252.252
41.48000 237.659
41.52000 249.540
41.56000 251.279
41.60000 240.776
41.64000 242.661
41.68000 237.689
41.72000 247.611
41.76000 232.396
41.80000 226.581
41.84000 241.915
41.88000 241.228
41.92000 238.573
41.96000 255.742
42.00000 236.076
42.04000 233.836
42.08000 248.234
42.12000 233.673
42.16000 236.607
42.20000 226.357
42.24000 233.116
42.28000 230.548
42.32000 235.191
42.36000 226.670
42.40000 241.360
42.44000 221.520
42.48000 217.592
42.52000 234.549
42.56000 241.671
42.60000 245.636
42.64000 225.667
42.68000 226.616
42.72000 233.381
42.76000 235.329
42.80000 224.121
42.84000 231.972
42.88000 242.765
42.92000 234.217
42.96000 226.864
43.00000 217.808
43.04000 234.499
43.08000 225.568
43.12000 207.313
43.16000 221.485
43.20000 232.076
43.24000 217.065
43.28000 233.412
43.32000 227.105
43.36000 237.358
43.40000 227.063
43.44000 221.262
43.48000 219.183
43.52000 231.193
43.56000 229.607
43.60000 213.279
43.64000 216.675
43.68000 221.877
43.72000 228.110
43.76000 222.160
43.80000 218.505
43.84000 236.493
43.88000 214.070
43.92000 216.190
43.96000 218.165
44.00000 216.202
44.04000 225.766
44.08000 219.759
44.12000 219.651
44.16000 216.073
44.20000 221.072
44.24000 228.805
44.28000 224.331
44.32000 227.011
44.36000 230.374
44.40000 221.190
44.44000 232.783
44.48000 226.184
44.52000 220.852
44.56000 235.326
44.60000 225.413
44.64000 226.274
44.68000 240.087
44.72000 234.162
44.76000 239.192
44.80000 263.663
44.84000 290.643
44.88000 301.413
44.92000 320.157
44.96000 344.752
45.00000 353.693
45.04000 355.026
45.08000 370.156
45.12000 344.263
45.16000 361.008
45.20000 333.095
45.24000 335.206
45.28000 308.206
45.32000 301.021
45.36000 297.710
45.40000 289.713
45.44000 262.362
45.48000 266.912
45.52000 250.937
45.56000 242.859
45.60000 256.678
45.64000 260.912
45.68000 250.173
45.72000 234.713
45.76000 235.059
45.80000 231.281
45.84000 233.360
45.88000 229.934
45.92000 226.764
45.96000 220.733
46.00000 218.564
46.04000 214.391
46.08000 212.736
46.12000 199.549
46.16000 209.525
46.20000 207.438
46.24000 220.524
46.28000 216.059
46.32000 202.206
46.36000 205.624
46.40000 198.484
46.44000 202.158
46.48000 208.462
46.52000 199.384
46.56000 205.391
46.60000 215.887
46.64000 209.168
46.68000 209.428
46.72000 187.686
46.76000 184.493
46.80000 196.801
46.84000 189.461
46.88000 197.404
46.92000 189.990
46.96000 197.757
47.00000 190.639
47.04000 191.627
47.08000 193.132
47.12000 192.792
47.16000 184.651
47.20000 193.124
47.24000 191.420
47.28000 189.951
47.32000 200.751
47.36000 188.239
47.40000 195.435
47.44000 185.568
47.48000 186.707
47.52000 180.662
47.56000 169.928
47.60000 187.828
47.64000 204.768
47.68000 178.743
47.72000 186.108
47.76000 199.080
47.80000 193.672
47.84000 189.546
47.88000 183.773
47.92000 183.681
47.96000 185.015
48.00000 180.758
48.04000 185.961
48.08000 180.681
48.12000 186.502
48.16000 178.213
48.20000 191.986
48.24000 187.946
48.28000 189.138
48.32000 187.265
48.36000 179.429
48.40000 179.279
48.44000 183.111
48.48000 183.351
48.52000 179.296
48.56000 183.289
48.60000 194.175
48.64000 174.901
48.68000 181.522
48.72000 180.632
48.76000 176.508
48.80000 167.761
48.84000 181.779
48.88000 179.458
48.92000 179.583
48.96000 175.766
49.00000 187.187
49.04000 185.952
49.08000 185.434
49.12000 185.157
49.16000 180.534
49.20000 182.035
49.24000 189.055
49.28000 171.141
49.32000 184.172
49.36000 182.499
49.40000 165.914
49.44000 176.911
49.48000 174.922
49.52000 169.108
49.56000 162.917
49.60000 175.973
49.64000 168.178
49.68000 177.976
49.72000 188.804
49.76000 183.456
49.80000 181.824
49.84000 187.088
49.88000 182.318
49.92000 190.805
49.96000 174.457
50.00000 169.991
50.04000 186.788
50.08000 176.688
50.12000 175.877
50.16000 176.191
50.20000 184.364
50.24000 180.227
50.28000 179.265
50.32000 173.243
50.36000 192.758
50.40000 197.104
50.44000 202.238
50.48000 216.737
50.52000 225.344
50.56000 240.973
50.60000 254.569
50.64000 263.826
50.68000 266.713
50.72000 255.020
50.76000 245.995
50.80000 252.775
50.84000 231.094
50.88000 234.166
50.92000 221.440
50.96000 202.759
51.00000 213.445
51.04000 194.395
51.08000 191.263
51.12000 178.401
51.16000 190.305
51.20000 177.308
51.24000 173.874
51.28000 189.138
51.32000 164.959
51.36000 174.639
51.40000 180.152
51.44000 170.858
51.48000 168.178
51.52000 169.979
51.56000 170.465
51.60000 166.239
51.64000 172.643
51.68000 161.433
51.72000 163.319
51.76000 164.321
51.80000 178.949
51.84000 160.272
51.88000 159.380
51.92000 158.776
51.96000 164.316
52.00000 164.656
52.04000 169.110
52.08000 157.655
52.12000 154.959
52.16000 158.544
52.20000 168.274
52.24000 168.672
52.28000 158.532
52.32000 159.500
52.36000 167.427
52.40000 158.585
52.44000 153.452
52.48000 157.224
52.52000 169.802
52.56000 161.897
52.60000 166.811
52.64000 163.958
52.68000 151.886
52.72000 158.190
52.76000 158.218
52.80000 153.574
52.84000 158.497
52.88000 158.482
52.92000 163.839
52.96000 157.323
53.00000 162.072
53.04000 148.533
53.08000 160.475
53.12000 160.615
53.16000 163.703
53.20000 156.533
53.24000 152.657
53.28000 169.627
53.32000 166.866
53.36000 165.949
53.40000 172.603
53.44000 173.728
53.48000 155.033
53.52000 172.951
53.56000 156.166
53.60000 157.672
53.64000 153.897
53.68000 162.176
53.72000 164.916
53.76000 159.080
53.80000 154.304
53.84000 161.518
53.88000 151.644
53.92000 153.818
53.96000 148.680
54.00000 152.826
54.04000 161.884
54.08000 156.198
54.12000 155.386
54.16000 163.594
54.20000 153.746
54.24000 168.443
54.28000 155.569
54.32000 163.344
54.36000 151.375
54.40000 149.812
54.44000 155.286
54.48000 158.966
54.52000 165.691
54.56000 154.918
54.60000 159.769
54.64000 162.996
54.68000 164.456
54.72000 166.055
54.76000 164.515
54.80000 168.472
54.84000 165.564
54.88000 155.300
54.92000 151.842
54.96000 158.949
55.00000 167.830
55.04000 166.461
55.08000 160.904
55.12000 169.299
55.16000 155.940
55.20000 167.962
55.24000 161.286
55.28000 174.108
55.32000 192.583
55.36000 183.099
55.40000 187.367
55.44000 202.674
55.48000 208.474
55.52000 229.112
55.56000 256.299
55.60000 262.591
55.64000 320.799
55.68000 383.191
55.72000 441.717
55.76000 555.015
55.80000 654.500
55.84000 733.502
55.88000 826.222
55.92000 827.766
55.96000 844.964
56.00000 820.078
56.04000 746.482
56.08000 668.751
56.12000 584.623
56.16000 496.682
56.20000 431.395
56.24000 362.973
56.28000 304.785
56.32000 270.208
56.36000 243.788
56.40000 217.630
56.44000 195.481
56.48000 208.287
56.52000 178.509
56.56000 182.962
56.60000 179.278
56.64000 186.070
56.68000 166.384
56.72000 170.411
56.76000 165.145
56.80000 162.710
56.84000 164.957
56.88000 146.459
56.92000 157.464
56.96000 152.627
57.00000 146.880
57.04000 148.722
57.08000 153.914
57.12000 154.509
57.16000 145.401
57.20000 132.553
57.24000 159.436
57.28000 148.401
57.32000 141.680
57.36000 144.552
57.40000 142.406
57.44000 144.623
57.48000 137.472
57.52000 139.692
57.56000 141.186
57.60000 144.503
57.64000 144.559
57.68000 145.422
57.72000 148.304
57.76000 134.233
57.80000 135.016
57.84000 138.422
57.88000 142.158
57.92000 147.133
57.96000 152.644
58.00000 137.124
58.04000 135.156
58.08000 144.347
58.12000 135.065
58.16000 146.519
58.20000 145.105
58.24000 144.963
58.28000 138.677
58.32000 148.227
58.36000 149.051
58.40000 141.942
58.44000 136.719
58.48000 136.714
58.52000 136.818
58.56000 135.007
58.60000 130.900
58.64000 135.657
58.68000 133.339
58.72000 135.262
58.76000 145.157
58.80000 126.075
58.84000 143.985
58.88000 134.263
58.92000 140.052
58.96000 135.003
59.00000 134.494
59.04000 129.581
59.08000 130.803
59.12000 132.421
59.16000 139.391
59.20000 132.155
59.24000 138.597
59.28000 130.522
59.32000 140.561
59.36000 127.801
59.40000 124.257
59.44000 128.601
59.48000 135.889
59.52000 132.991
59.56000 132.954
59.60000 131.744
59.64000 140.756
59.68000 132.200
59.72000 131.481
59.76000 136.957
59.80000 126.839
59.84000 143.488
59.88000 128.809
59.92000 124.892
59.96000 139.038
60.00000 131.980
60.04000 125.863
60.08000 132.861
60.12000 123.773
60.16000 133.109
60.20000 135.287
60.24000 134.399
60.28000 135.080
60.32000 135.671
60.36000 128.102
60.40000 125.876
60.44000 132.092
60.48000 138.957
60.52000 135.747
60.56000 136.799
60.60000 134.531
60.64000 133.108
60.68000 118.005
60.72000 130.274
60.76000 130.941
60.80000 127.665
60.84000 131.127
60.88000 137.164
60.92000 135.688
60.96000 137.302
61.00000 129.567
61.04000 131.844
61.08000 134.848
61.12000 132.568
61.16000 144.101
61.20000 131.948
61.24000 130.802
61.28000 131.008
61.32000 127.466
61.36000 140.334
61.40000 134.203
61.44000 139.159
61.48000 135.085
61.52000 169.211
61.56000 207.446
61.60000 245.128
61.64000 265.749
61.68000 275.331
61.72000 281.433
61.76000 267.589
61.80000 233.986
61.84000 181.439
61.88000 163.771
61.92000 144.753
61.96000 142.202
62.00000 141.275
62.04000 141.593
62.08000 144.130
62.12000 147.113
62.16000 141.194
62.20000 137.127
62.24000 150.402
62.28000 144.698
62.32000 143.386
62.36000 143.651
62.40000 144.028
62.44000 138.776
62.48000 140.527
62.52000 145.586
62.56000 147.226
62.60000 143.069
62.64000 130.844
62.68000 134.741
62.72000 140.878
62.76000 139.167
62.80000 141.421
62.84000 134.238
62.88000 138.490
62.92000 150.852
62.96000 148.057
63.00000 148.895
63.04000 145.025
63.08000 138.340
63.12000 142.441
63.16000 142.607
63.20000 145.094
63.24000 137.980
63.28000 137.966
63.32000 144.375
63.36000 144.753
63.40000 151.460
63.44000 167.961
63.48000 152.543
63.52000 153.467
63.56000 144.585
63.60000 157.867
63.64000 148.432
63.68000 152.422
63.72000 146.000
63.76000 147.170
63.80000 147.372
63.84000 154.653
63.88000 151.327
63.92000 151.987
63.96000 149.051
64.00000 158.863
64.04000 147.982
64.08000 152.421
64.12000 155.580
64.16000 155.877
64.20000 160.142
64.24000 152.794
64.28000 146.769
64.32000 157.317
64.36000 155.272
64.40000 154.322
64.44000 158.484
64.48000 156.710
64.52000 158.683
64.56000 159.613
64.60000 166.819
64.64000 175.877
64.68000 177.930
64.72000 169.013
64.76000 165.986
64.80000 167.816
64.84000 174.506
64.88000 171.486
64.92000 184.968
64.96000 190.559
65.00000 188.089
65.04000 191.425
65.08000 207.016
65.12000 224.379
65.16000 232.319
65.20000 238.386
65.24000 258.846
65.28000 270.021
65.32000 284.820
65.36000 312.355
65.40000 333.273
65.44000 364.788
65.48000 361.721
65.52000 406.851
65.56000 420.589
65.60000 450.045
65.64000 460.708
65.68000 537.582
65.72000 704.829
65.76000 940.681
65.80000 1127.435
65.84000 1212.382
65.88000 1214.474
65.92000 1140.605
65.96000 974.825
66.00000 694.842
66.04000 491.729
66.08000 381.496
66.12000 335.452
66.16000 322.577
66.20000 322.537
66.24000 314.267
66.28000 370.354
66.32000 396.340
66.36000 441.797
66.40000 464.642
66.44000 476.076
66.48000 447.846
66.52000 407.397
66.56000 363.735
66.60000 337.378
66.64000 318.391
66.68000 321.907
66.72000 314.564
66.76000 315.785
66.80000 311.994
66.84000 316.930
66.88000 328.446
66.92000 315.611
66.96000 326.277
67.00000 351.379
67.04000 343.376
67.08000 360.055
67.12000 354.000
67.16000 381.551
67.20000 383.477
67.24000 366.931
67.28000 358.735
67.32000 389.406
67.36000 397.004
67.40000 414.309
67.44000 400.915
67.48000 416.337
67.52000 424.708
67.56000 413.012
67.60000 413.502
67.64000 425.938
67.68000 452.598
67.72000 453.155
67.76000 461.296
67.80000 458.517
67.84000 495.111
67.88000 478.975
67.92000 505.106
67.96000 499.079
68.00000 534.405
68.04000 512.398
68.08000 537.343
68.12000 563.313
68.16000 558.280
68.20000 555.547
68.24000 579.596
68.28000 620.638
68.32000 631.468
68.36000 647.137
68.40000 671.605
68.44000 695.882
68.48000 723.989
68.52000 770.991
68.56000 845.597
68.60000 963.976
68.64000 1127.547
68.68000 1345.028
68.72000 1548.326
68.76000 1755.444
68.80000 2064.893
68.84000 2362.664
68.88000 3112.564
68.92000 5089.082
68.96000 13773.424
69.00000 30492.410
69.04000 47645.969
69.08000 56138.563
69.12000 58396.063
69.16000 60671.840
69.20000 60126.477
69.24000 50222.559
69.28000 38074.090
69.32000 31353.145
69.36000 28260.879
69.40000 23155.488
69.44000 14463.929
69.48000 6562.953
69.52000 2977.242
69.56000 1846.894
69.60000 1463.020
69.64000 1198.271
69.68000 1067.505
69.72000 955.001
69.76000 884.139
69.80000 829.128
69.84000 788.053
69.88000 733.245
69.92000 696.243
69.96000 691.003
70.00000 655.782