File: XRD/24-09-2025 Dep 3/XY Data/BTO_Mapping_Theta2Theta_24-09-2025_001_01_0-000_0-000.xy
20.00000 548.890
20.04000 553.364
20.08000 559.724
20.12000 564.115
20.16000 553.104
20.20000 565.705
20.24000 549.742
20.28000 564.828
20.32000 554.344
20.36000 537.877
20.40000 532.773
20.44000 567.557
20.48000 554.760
20.52000 550.364
20.56000 543.023
20.60000 536.617
20.64000 549.952
20.68000 546.126
20.72000 557.013
20.76000 536.786
20.80000 549.735
20.84000 544.338
20.88000 542.854
20.92000 548.605
20.96000 539.982
21.00000 523.647
21.04000 549.442
21.08000 551.037
21.12000 538.617
21.16000 530.067
21.20000 548.696
21.24000 538.816
21.28000 528.923
21.32000 549.363
21.36000 544.624
21.40000 544.764
21.44000 529.047
21.48000 546.283
21.52000 541.549
21.56000 538.633
21.60000 539.466
21.64000 554.800
21.68000 552.856
21.72000 549.680
21.76000 532.193
21.80000 566.623
21.84000 575.236
21.88000 616.107
21.92000 629.466
21.96000 638.056
22.00000 662.094
22.04000 662.447
22.08000 688.496
22.12000 694.557
22.16000 665.899
22.20000 629.148
22.24000 638.984
22.28000 601.325
22.32000 595.063
22.36000 602.958
22.40000 574.409
22.44000 565.602
22.48000 556.995
22.52000 551.806
22.56000 542.403
22.60000 563.919
22.64000 533.917
22.68000 535.424
22.72000 502.136
22.76000 517.602
22.80000 535.094
22.84000 496.459
22.88000 509.558
22.92000 514.253
22.96000 487.064
23.00000 509.777
23.04000 511.156
23.08000 474.281
23.12000 494.895
23.16000 480.111
23.20000 509.400
23.24000 508.497
23.28000 497.116
23.32000 483.524
23.36000 489.582
23.40000 493.813
23.44000 493.519
23.48000 491.493
23.52000 473.887
23.56000 489.191
23.60000 493.554
23.64000 498.331
23.68000 503.410
23.72000 494.697
23.76000 484.550
23.80000 469.729
23.84000 502.490
23.88000 482.170
23.92000 522.746
23.96000 493.783
24.00000 487.522
24.04000 481.900
24.08000 489.300
24.12000 468.206
24.16000 496.497
24.20000 486.324
24.24000 495.349
24.28000 477.639
24.32000 478.095
24.36000 479.044
24.40000 486.451
24.44000 500.275
24.48000 476.001
24.52000 483.041
24.56000 488.579
24.60000 467.349
24.64000 481.988
24.68000 485.360
24.72000 475.253
24.76000 466.294
24.80000 484.959
24.84000 485.952
24.88000 470.436
24.92000 455.926
24.96000 456.507
25.00000 484.744
25.04000 466.591
25.08000 496.593
25.12000 485.022
25.16000 465.578
25.20000 490.217
25.24000 478.937
25.28000 457.201
25.32000 454.659
25.36000 482.832
25.40000 457.902
25.44000 456.458
25.48000 463.503
25.52000 480.850
25.56000 469.351
25.60000 457.600
25.64000 461.231
25.68000 464.107
25.72000 466.604
25.76000 471.046
25.80000 456.142
25.84000 472.090
25.88000 456.243
25.92000 456.942
25.96000 465.860
26.00000 465.772
26.04000 454.246
26.08000 426.928
26.12000 456.439
26.16000 458.943
26.20000 439.035
26.24000 457.809
26.28000 434.367
26.32000 485.188
26.36000 458.004
26.40000 443.544
26.44000 448.111
26.48000 445.572
26.52000 447.600
26.56000 450.217
26.60000 438.912
26.64000 435.160
26.68000 451.284
26.72000 422.879
26.76000 448.388
26.80000 453.178
26.84000 438.910
26.88000 442.255
26.92000 437.115
26.96000 440.487
27.00000 438.943
27.04000 442.385
27.08000 439.052
27.12000 435.172
27.16000 449.323
27.20000 446.474
27.24000 448.181
27.28000 452.602
27.32000 459.910
27.36000 414.679
27.40000 445.900
27.44000 442.386
27.48000 435.331
27.52000 430.719
27.56000 446.902
27.60000 442.844
27.64000 420.798
27.68000 430.175
27.72000 440.336
27.76000 438.603
27.80000 427.949
27.84000 441.838
27.88000 421.034
27.92000 419.771
27.96000 421.473
28.00000 443.226
28.04000 438.061
28.08000 433.104
28.12000 414.365
28.16000 443.919
28.20000 445.136
28.24000 439.953
28.28000 415.342
28.32000 421.603
28.36000 428.506
28.40000 427.545
28.44000 428.522
28.48000 416.950
28.52000 419.461
28.56000 429.509
28.60000 419.732
28.64000 404.689
28.68000 405.644
28.72000 416.448
28.76000 413.548
28.80000 426.001
28.84000 435.150
28.88000 388.440
28.92000 413.354
28.96000 425.466
29.00000 412.988
29.04000 412.196
29.08000 418.874
29.12000 412.196
29.16000 400.341
29.20000 405.608
29.24000 397.945
29.28000 423.826
29.32000 426.660
29.36000 419.615
29.40000 413.076
29.44000 414.650
29.48000 402.980
29.52000 398.339
29.56000 412.478
29.60000 406.397
29.64000 422.351
29.68000 402.824
29.72000 398.925
29.76000 419.623
29.80000 435.032
29.84000 404.325
29.88000 406.374
29.92000 426.778
29.96000 445.399
30.00000 442.577
30.04000 439.934
30.08000 456.056
30.12000 449.650
30.16000 432.216
30.20000 438.161
30.24000 424.680
30.28000 439.347
30.32000 449.027
30.36000 430.383
30.40000 445.609
30.44000 433.084
30.48000 430.860
30.52000 432.814
30.56000 430.502
30.60000 438.450
30.64000 407.774
30.68000 434.002
30.72000 448.959
30.76000 439.347
30.80000 449.466
30.84000 459.074
30.88000 469.472
30.92000 476.099
30.96000 535.810
31.00000 587.094
31.04000 656.234
31.08000 740.187
31.12000 927.344
31.16000 1201.304
31.20000 1547.050
31.24000 1962.518
31.28000 2393.995
31.32000 2788.905
31.36000 3103.067
31.40000 3104.858
31.44000 3001.801
31.48000 2726.292
31.52000 2306.919
31.56000 1904.273
31.60000 1483.248
31.64000 1131.429
31.68000 894.019
31.72000 744.092
31.76000 643.384
31.80000 563.510
31.84000 521.232
31.88000 496.550
31.92000 467.101
31.96000 449.808
32.00000 443.082
32.04000 433.179
32.08000 421.398
32.12000 427.298
32.16000 423.178
32.20000 395.575
32.24000 411.434
32.28000 410.702
32.32000 393.882
32.36000 393.593
32.40000 388.375
32.44000 391.194
32.48000 366.989
32.52000 392.411
32.56000 376.398
32.60000 394.225
32.64000 379.740
32.68000 363.311
32.72000 381.600
32.76000 366.539
32.80000 393.882
32.84000 440.645
32.88000 457.803
32.92000 485.682
32.96000 495.922
33.00000 454.816
33.04000 445.536
33.08000 421.099
33.12000 371.968
33.16000 351.445
33.20000 357.477
33.24000 350.009
33.28000 336.305
33.32000 355.166
33.36000 350.041
33.40000 357.085
33.44000 352.427
33.48000 342.656
33.52000 334.569
33.56000 336.420
33.60000 342.667
33.64000 338.806
33.68000 350.774
33.72000 324.576
33.76000 333.528
33.80000 343.888
33.84000 335.522
33.88000 334.417
33.92000 323.797
33.96000 326.618
34.00000 330.509
34.04000 321.113
34.08000 339.069
34.12000 350.033
34.16000 326.674
34.20000 338.910
34.24000 326.944
34.28000 335.681
34.32000 330.608
34.36000 326.096
34.40000 320.216
34.44000 340.355
34.48000 325.227
34.52000 296.766
34.56000 333.040
34.60000 328.935
34.64000 313.879
34.68000 322.569
34.72000 317.139
34.76000 322.619
34.80000 333.461
34.84000 334.105
34.88000 319.306
34.92000 313.835
34.96000 323.360
35.00000 313.983
35.04000 303.986
35.08000 321.533
35.12000 314.473
35.16000 315.380
35.20000 312.775
35.24000 309.908
35.28000 310.373
35.32000 316.586
35.36000 319.952
35.40000 326.789
35.44000 316.622
35.48000 318.323
35.52000 306.754
35.56000 304.915
35.60000 316.374
35.64000 314.031
35.68000 315.010
35.72000 306.820
35.76000 318.606
35.80000 315.266
35.84000 309.437
35.88000 306.389
35.92000 312.431
35.96000 309.728
36.00000 293.785
36.04000 305.197
36.08000 313.098
36.12000 295.109
36.16000 297.472
36.20000 302.062
36.24000 311.784
36.28000 300.752
36.32000 295.944
36.36000 307.246
36.40000 307.011
36.44000 290.475
36.48000 293.625
36.52000 308.124
36.56000 293.210
36.60000 299.880
36.64000 292.408
36.68000 302.902
36.72000 287.673
36.76000 307.202
36.80000 298.888
36.84000 313.636
36.88000 302.945
36.92000 297.867
36.96000 318.392
37.00000 311.680
37.04000 328.193
37.08000 308.094
37.12000 308.934
37.16000 313.390
37.20000 309.899
37.24000 289.353
37.28000 299.552
37.32000 293.874
37.36000 306.297
37.40000 301.321
37.44000 289.675
37.48000 298.493
37.52000 303.480
37.56000 302.707
37.60000 288.228
37.64000 300.891
37.68000 283.843
37.72000 308.731
37.76000 299.068
37.80000 294.403
37.84000 300.786
37.88000 288.834
37.92000 289.628
37.96000 287.820
38.00000 297.863
38.04000 294.622
38.08000 307.972
38.12000 314.803
38.16000 292.630
38.20000 316.630
38.24000 325.800
38.28000 336.693
38.32000 363.808
38.36000 386.751
38.40000 421.589
38.44000 492.811
38.48000 590.283
38.52000 739.108
38.56000 934.115
38.60000 1137.594
38.64000 1357.073
38.68000 1477.862
38.72000 1548.370
38.76000 1556.343
38.80000 1390.800
38.84000 1180.899
38.88000 946.065
38.92000 763.171
38.96000 628.075
39.00000 482.805
39.04000 416.818
39.08000 370.730
39.12000 339.587
39.16000 326.997
39.20000 308.317
39.24000 305.242
39.28000 294.952
39.32000 280.844
39.36000 280.776
39.40000 259.564
39.44000 286.462
39.48000 283.548
39.52000 270.110
39.56000 275.814
39.60000 259.993
39.64000 279.320
39.68000 281.619
39.72000 260.708
39.76000 278.641
39.80000 251.703
39.84000 279.174
39.88000 282.348
39.92000 260.735
39.96000 271.620
40.00000 257.094
40.04000 268.769
40.08000 261.967
40.12000 255.658
40.16000 268.834
40.20000 265.322
40.24000 251.667
40.28000 254.098
40.32000 247.689
40.36000 246.688
40.40000 260.744
40.44000 245.917
40.48000 245.671
40.52000 246.013
40.56000 263.243
40.60000 249.571
40.64000 247.488
40.68000 250.448
40.72000 240.902
40.76000 263.176
40.80000 254.198
40.84000 246.413
40.88000 240.522
40.92000 249.679
40.96000 248.504
41.00000 242.410
41.04000 233.274
41.08000 243.538
41.12000 235.370
41.16000 245.038
41.20000 244.026
41.24000 237.490
41.28000 231.105
41.32000 241.235
41.36000 247.669
41.40000 245.214
41.44000 240.352
41.48000 246.440
41.52000 228.298
41.56000 223.873
41.60000 242.028
41.64000 243.796
41.68000 231.934
41.72000 241.359
41.76000 237.638
41.80000 239.699
41.84000 250.707
41.88000 236.226
41.92000 241.868
41.96000 234.443
42.00000 236.990
42.04000 245.958
42.08000 236.154
42.12000 236.222
42.16000 228.494
42.20000 236.739
42.24000 236.174
42.28000 230.626
42.32000 237.901
42.36000 230.183
42.40000 219.571
42.44000 232.112
42.48000 228.443
42.52000 227.023
42.56000 237.237
42.60000 223.946
42.64000 227.581
42.68000 238.225
42.72000 252.580
42.76000 221.039
42.80000 238.630
42.84000 238.230
42.88000 239.235
42.92000 228.800
42.96000 227.211
43.00000 208.498
43.04000 230.429
43.08000 227.366
43.12000 233.047
43.16000 231.691
43.20000 220.264
43.24000 229.027
43.28000 224.339
43.32000 216.444
43.36000 218.307
43.40000 225.153
43.44000 220.680
43.48000 222.462
43.52000 239.543
43.56000 230.425
43.60000 234.025
43.64000 214.546
43.68000 227.346
43.72000 225.211
43.76000 225.985
43.80000 224.596
43.84000 227.175
43.88000 217.930
43.92000 212.593
43.96000 209.375
44.00000 225.275
44.04000 220.011
44.08000 228.623
44.12000 217.439
44.16000 233.801
44.20000 223.941
44.24000 215.445
44.28000 215.934
44.32000 223.867
44.36000 224.837
44.40000 215.044
44.44000 221.148
44.48000 218.178
44.52000 228.254
44.56000 235.832
44.60000 228.667
44.64000 228.785
44.68000 224.655
44.72000 238.384
44.76000 235.653
44.80000 242.996
44.84000 256.191
44.88000 279.997
44.92000 279.473
44.96000 292.489
45.00000 324.741
45.04000 315.004
45.08000 320.258
45.12000 327.537
45.16000 329.099
45.20000 330.362
45.24000 319.381
45.28000 315.382
45.32000 295.604
45.36000 278.583
45.40000 278.809
45.44000 261.719
45.48000 264.499
45.52000 274.254
45.56000 267.416
45.60000 248.735
45.64000 246.922
45.68000 244.398
45.72000 233.616
45.76000 241.005
45.80000 237.499
45.84000 245.367
45.88000 230.787
45.92000 226.424
45.96000 224.618
46.00000 233.340
46.04000 221.529
46.08000 210.428
46.12000 209.244
46.16000 213.945
46.20000 211.666
46.24000 206.396
46.28000 204.702
46.32000 205.164
46.36000 213.767
46.40000 211.784
46.44000 218.385
46.48000 203.598
46.52000 204.964
46.56000 201.948
46.60000 198.706
46.64000 195.750
46.68000 197.683
46.72000 214.934
46.76000 203.332
46.80000 198.916
46.84000 196.812
46.88000 188.794
46.92000 184.424
46.96000 187.885
47.00000 198.043
47.04000 196.231
47.08000 193.767
47.12000 201.373
47.16000 192.449
47.20000 183.464
47.24000 185.214
47.28000 190.100
47.32000 200.016
47.36000 185.525
47.40000 201.872
47.44000 205.358
47.48000 183.002
47.52000 195.380
47.56000 196.933
47.60000 192.850
47.64000 189.701
47.68000 187.130
47.72000 187.008
47.76000 193.648
47.80000 193.645
47.84000 184.048
47.88000 178.595
47.92000 184.113
47.96000 201.675
48.00000 184.955
48.04000 182.349
48.08000 187.311
48.12000 186.814
48.16000 170.337
48.20000 178.245
48.24000 184.708
48.28000 173.503
48.32000 184.931
48.36000 185.482
48.40000 175.606
48.44000 182.100
48.48000 191.169
48.52000 184.756
48.56000 176.765
48.60000 178.225
48.64000 177.088
48.68000 175.625
48.72000 176.508
48.76000 185.809
48.80000 176.268
48.84000 178.271
48.88000 178.473
48.92000 170.327
48.96000 167.828
49.00000 161.620
49.04000 187.691
49.08000 174.169
49.12000 186.418
49.16000 185.241
49.20000 189.153
49.24000 191.392
49.28000 188.780
49.32000 171.354
49.36000 175.570
49.40000 176.705
49.44000 164.740
49.48000 178.888
49.52000 187.044
49.56000 174.072
49.60000 169.650
49.64000 165.989
49.68000 174.524
49.72000 180.861
49.76000 177.078
49.80000 173.241
49.84000 152.461
49.88000 169.770
49.92000 182.043
49.96000 171.540
50.00000 169.264
50.04000 171.192
50.08000 171.977
50.12000 187.561
50.16000 173.230
50.20000 174.722
50.24000 173.676
50.28000 195.736
50.32000 177.646
50.36000 186.151
50.40000 182.799
50.44000 196.341
50.48000 191.797
50.52000 212.519
50.56000 220.705
50.60000 222.447
50.64000 240.566
50.68000 247.541
50.72000 240.706
50.76000 246.384
50.80000 232.347
50.84000 224.140
50.88000 217.241
50.92000 215.854
50.96000 206.807
51.00000 203.717
51.04000 186.111
51.08000 184.659
51.12000 186.589
51.16000 187.092
51.20000 179.437
51.24000 187.448
51.28000 187.067
51.32000 177.150
51.36000 168.306
51.40000 166.747
51.44000 168.354
51.48000 167.628
51.52000 169.898
51.56000 169.528
51.60000 184.820
51.64000 151.034
51.68000 170.968
51.72000 159.162
51.76000 168.507
51.80000 166.194
51.84000 155.259
51.88000 160.521
51.92000 158.245
51.96000 162.482
52.00000 154.296
52.04000 156.360
52.08000 164.555
52.12000 154.862
52.16000 162.482
52.20000 176.201
52.24000 168.727
52.28000 159.027
52.32000 168.806
52.36000 159.362
52.40000 160.677
52.44000 163.265
52.48000 165.532
52.52000 159.449
52.56000 164.936
52.60000 164.345
52.64000 172.303
52.68000 165.604
52.72000 151.267
52.76000 155.762
52.80000 156.684
52.84000 162.310
52.88000 150.145
52.92000 166.937
52.96000 159.698
53.00000 160.119
53.04000 164.027
53.08000 165.027
53.12000 149.460
53.16000 157.771
53.20000 170.048
53.24000 176.046
53.28000 164.825
53.32000 166.298
53.36000 168.198
53.40000 164.978
53.44000 152.106
53.48000 174.627
53.52000 168.028
53.56000 169.102
53.60000 171.973
53.64000 168.463
53.68000 160.118
53.72000 156.528
53.76000 154.930
53.80000 159.729
53.84000 150.179
53.88000 154.271
53.92000 148.556
53.96000 157.284
54.00000 159.412
54.04000 158.219
54.08000 162.595
54.12000 150.404
54.16000 152.412
54.20000 149.459
54.24000 156.775
54.28000 159.858
54.32000 162.989
54.36000 167.249
54.40000 161.102
54.44000 156.621
54.48000 168.908
54.52000 153.920
54.56000 159.180
54.60000 152.085
54.64000 161.814
54.68000 152.465
54.72000 154.608
54.76000 164.106
54.80000 156.771
54.84000 159.524
54.88000 154.141
54.92000 164.262
54.96000 160.457
55.00000 154.674
55.04000 160.486
55.08000 165.836
55.12000 180.419
55.16000 172.206
55.20000 166.091
55.24000 175.422
55.28000 176.955
55.32000 173.352
55.36000 183.052
55.40000 188.416
55.44000 187.903
55.48000 200.949
55.52000 217.417
55.56000 243.341
55.60000 288.418
55.64000 314.877
55.68000 359.869
55.72000 431.225
55.76000 533.670
55.80000 633.506
55.84000 711.091
55.88000 777.615
55.92000 850.167
55.96000 853.657
56.00000 850.639
56.04000 790.835
56.08000 716.740
56.12000 638.787
56.16000 545.057
56.20000 496.876
56.24000 402.270
56.28000 328.919
56.32000 308.503
56.36000 265.876
56.40000 240.465
56.44000 204.227
56.48000 203.252
56.52000 203.220
56.56000 182.194
56.60000 173.426
56.64000 169.472
56.68000 166.746
56.72000 175.996
56.76000 169.640
56.80000 168.900
56.84000 162.896
56.88000 159.643
56.92000 159.865
56.96000 159.852
57.00000 154.250
57.04000 153.604
57.08000 153.893
57.12000 152.370
57.16000 156.503
57.20000 156.339
57.24000 151.261
57.28000 140.765
57.32000 146.140
57.36000 142.076
57.40000 151.264
57.44000 153.913
57.48000 137.880
57.52000 145.117
57.56000 136.484
57.60000 145.753
57.64000 148.380
57.68000 137.006
57.72000 135.968
57.76000 143.833
57.80000 134.656
57.84000 141.053
57.88000 154.335
57.92000 149.299
57.96000 142.110
58.00000 149.246
58.04000 150.271
58.08000 150.280
58.12000 146.360
58.16000 145.596
58.20000 139.120
58.24000 142.031
58.28000 143.590
58.32000 138.139
58.36000 135.892
58.40000 134.343
58.44000 135.791
58.48000 133.484
58.52000 140.694
58.56000 136.958
58.60000 129.269
58.64000 136.199
58.68000 130.537
58.72000 145.535
58.76000 134.708
58.80000 137.934
58.84000 128.064
58.88000 141.732
58.92000 131.096
58.96000 134.470
59.00000 116.841
59.04000 133.223
59.08000 129.436
59.12000 138.895
59.16000 130.796
59.20000 130.125
59.24000 135.665
59.28000 139.741
59.32000 136.609
59.36000 133.852
59.40000 130.721
59.44000 127.194
59.48000 137.044
59.52000 140.374
59.56000 144.806
59.60000 135.614
59.64000 139.065
59.68000 129.014
59.72000 142.811
59.76000 138.664
59.80000 128.987
59.84000 138.091
59.88000 138.980
59.92000 129.863
59.96000 126.005
60.00000 137.314
60.04000 139.221
60.08000 133.637
60.12000 129.327
60.16000 141.859
60.20000 135.963
60.24000 130.592
60.28000 131.687
60.32000 136.022
60.36000 132.760
60.40000 127.420
60.44000 126.635
60.48000 127.757
60.52000 133.013
60.56000 132.102
60.60000 132.449
60.64000 135.011
60.68000 128.563
60.72000 141.574
60.76000 124.667
60.80000 136.817
60.84000 131.346
60.88000 134.174
60.92000 129.448
60.96000 144.835
61.00000 130.330
61.04000 128.965
61.08000 140.018
61.12000 131.299
61.16000 125.336
61.20000 131.413
61.24000 131.586
61.28000 146.818
61.32000 141.323
61.36000 137.922
61.40000 140.953
61.44000 141.687
61.48000 150.600
61.52000 162.930
61.56000 189.446
61.60000 233.100
61.64000 248.662
61.68000 265.743
61.72000 281.059
61.76000 263.670
61.80000 233.648
61.84000 174.209
61.88000 148.345
61.92000 149.845
61.96000 143.865
62.00000 140.603
62.04000 135.730
62.08000 129.800
62.12000 141.823
62.16000 135.675
62.20000 131.675
62.24000 129.199
62.28000 140.802
62.32000 139.400
62.36000 141.730
62.40000 143.734
62.44000 137.969
62.48000 138.821
62.52000 132.463
62.56000 137.858
62.60000 140.262
62.64000 124.597
62.68000 142.613
62.72000 143.479
62.76000 142.408
62.80000 142.627
62.84000 141.005
62.88000 139.561
62.92000 151.166
62.96000 147.149
63.00000 149.660
63.04000 147.706
63.08000 144.119
63.12000 143.705
63.16000 132.551
63.20000 139.700
63.24000 146.817
63.28000 133.784
63.32000 151.147
63.36000 155.804
63.40000 151.722
63.44000 139.048
63.48000 155.644
63.52000 141.098
63.56000 139.938
63.60000 147.793
63.64000 148.572
63.68000 141.678
63.72000 150.964
63.76000 156.428
63.80000 152.726
63.84000 151.452
63.88000 159.021
63.92000 148.394
63.96000 154.920
64.00000 158.682
64.04000 151.794
64.08000 149.047
64.12000 153.037
64.16000 143.872
64.20000 154.939
64.24000 149.604
64.28000 162.210
64.32000 165.489
64.36000 163.609
64.40000 157.592
64.44000 165.080
64.48000 168.699
64.52000 163.572
64.56000 168.421
64.60000 178.463
64.64000 166.121
64.68000 169.817
64.72000 173.666
64.76000 170.152
64.80000 179.508
64.84000 177.998
64.88000 189.067
64.92000 177.239
64.96000 193.375
65.00000 194.283
65.04000 191.306
65.08000 203.748
65.12000 194.021
65.16000 214.270
65.20000 224.588
65.24000 229.708
65.28000 249.268
65.32000 263.431
65.36000 297.071
65.40000 312.844
65.44000 327.906
65.48000 344.685
65.52000 350.894
65.56000 377.878
65.60000 412.983
65.64000 460.825
65.68000 508.739
65.72000 647.945
65.76000 858.774
65.80000 1047.747
65.84000 1134.268
65.88000 1145.736
65.92000 1108.332
65.96000 905.606
66.00000 661.653
66.04000 458.611
66.08000 368.961
66.12000 328.041
66.16000 311.836
66.20000 323.583
66.24000 331.398
66.28000 363.057
66.32000 396.243
66.36000 418.449
66.40000 447.695
66.44000 443.113
66.48000 439.552
66.52000 410.604
66.56000 366.452
66.60000 326.617
66.64000 330.848
66.68000 312.576
66.72000 314.182
66.76000 312.757
66.80000 309.142
66.84000 321.719
66.88000 334.081
66.92000 330.134
66.96000 333.081
67.00000 336.818
67.04000 332.319
67.08000 349.060
67.12000 355.592
67.16000 352.943
67.20000 362.818
67.24000 370.086
67.28000 393.426
67.32000 371.261
67.36000 368.770
67.40000 393.180
67.44000 405.989
67.48000 398.447
67.52000 412.698
67.56000 432.612
67.60000 424.765
67.64000 416.843
67.68000 422.684
67.72000 452.090
67.76000 450.119
67.80000 451.932
67.84000 469.250
67.88000 484.183
67.92000 487.370
67.96000 494.657
68.00000 496.783
68.04000 531.754
68.08000 533.233
68.12000 532.380
68.16000 550.064
68.20000 572.952
68.24000 584.661
68.28000 605.590
68.32000 626.358
68.36000 640.546
68.40000 657.432
68.44000 690.142
68.48000 736.605
68.52000 764.248
68.56000 827.055
68.60000 955.644
68.64000 1082.008
68.68000 1272.585
68.72000 1492.345
68.76000 1712.357
68.80000 1947.947
68.84000 2308.169
68.88000 3001.930
68.92000 4783.085
68.96000 13255.433
69.00000 29293.516
69.04000 45723.742
69.08000 53520.480
69.12000 55262.000
69.16000 57595.734
69.20000 57202.012
69.24000 47482.727
69.28000 35886.480
69.32000 29771.199
69.36000 26892.994
69.40000 21993.547
69.44000 13619.455
69.48000 6045.910
69.52000 2805.630
69.56000 1797.313
69.60000 1373.974
69.64000 1156.367
69.68000 1067.128
69.72000 912.494
69.76000 853.434
69.80000 816.450
69.84000 745.325
69.88000 738.539
69.92000 689.180
69.96000 675.662
70.00000 644.619