File: XRD/24-09-2025 Dep 3/XY Data/BTO_Mapping_Theta2Theta_24-09-2025_001_26_-8-090_5-878.xy
20.00000 585.284
20.04000 578.228
20.08000 570.377
20.12000 566.418
20.16000 564.153
20.20000 548.704
20.24000 552.633
20.28000 568.611
20.32000 560.865
20.36000 564.135
20.40000 581.585
20.44000 561.145
20.48000 562.471
20.52000 554.588
20.56000 561.709
20.60000 549.318
20.64000 571.892
20.68000 562.631
20.72000 569.398
20.76000 564.480
20.80000 565.020
20.84000 565.155
20.88000 544.836
20.92000 541.676
20.96000 558.586
21.00000 555.184
21.04000 556.505
21.08000 540.318
21.12000 535.822
21.16000 547.151
21.20000 556.614
21.24000 546.615
21.28000 543.530
21.32000 562.631
21.36000 554.109
21.40000 555.133
21.44000 535.226
21.48000 570.391
21.52000 534.693
21.56000 564.050
21.60000 550.334
21.64000 545.895
21.68000 556.016
21.72000 574.232
21.76000 577.328
21.80000 594.081
21.84000 611.187
21.88000 637.126
21.92000 670.783
21.96000 705.088
22.00000 727.502
22.04000 756.122
22.08000 753.692
22.12000 766.909
22.16000 721.990
22.20000 693.878
22.24000 658.558
22.28000 606.627
22.32000 616.832
22.36000 613.505
22.40000 567.861
22.44000 570.971
22.48000 558.105
22.52000 548.003
22.56000 533.963
22.60000 568.229
22.64000 530.593
22.68000 515.769
22.72000 529.668
22.76000 516.117
22.80000 523.487
22.84000 529.339
22.88000 509.800
22.92000 512.329
22.96000 513.286
23.00000 496.050
23.04000 520.696
23.08000 510.364
23.12000 505.364
23.16000 502.974
23.20000 511.653
23.24000 498.922
23.28000 498.706
23.32000 522.889
23.36000 497.117
23.40000 505.751
23.44000 510.525
23.48000 504.859
23.52000 504.041
23.56000 527.586
23.60000 512.873
23.64000 497.795
23.68000 501.947
23.72000 504.514
23.76000 503.159
23.80000 478.299
23.84000 495.971
23.88000 480.791
23.92000 525.580
23.96000 490.204
24.00000 473.355
24.04000 516.150
24.08000 497.223
24.12000 496.608
24.16000 486.893
24.20000 501.967
24.24000 478.396
24.28000 495.356
24.32000 480.164
24.36000 487.823
24.40000 492.346
24.44000 482.789
24.48000 504.496
24.52000 486.502
24.56000 488.498
24.60000 476.266
24.64000 491.382
24.68000 481.043
24.72000 476.159
24.76000 483.763
24.80000 485.310
24.84000 480.202
24.88000 485.684
24.92000 492.340
24.96000 468.342
25.00000 478.113
25.04000 502.839
25.08000 484.652
25.12000 490.136
25.16000 464.607
25.20000 488.791
25.24000 489.661
25.28000 469.230
25.32000 458.754
25.36000 474.617
25.40000 469.597
25.44000 462.117
25.48000 465.613
25.52000 480.246
25.56000 440.021
25.60000 452.056
25.64000 461.009
25.68000 446.011
25.72000 455.322
25.76000 466.203
25.80000 464.857
25.84000 463.216
25.88000 460.441
25.92000 470.681
25.96000 469.556
26.00000 460.197
26.04000 461.609
26.08000 449.675
26.12000 438.428
26.16000 475.511
26.20000 473.995
26.24000 459.522
26.28000 467.783
26.32000 444.154
26.36000 453.901
26.40000 450.551
26.44000 454.156
26.48000 440.379
26.52000 448.070
26.56000 450.045
26.60000 453.366
26.64000 463.707
26.68000 455.402
26.72000 428.315
26.76000 456.849
26.80000 444.993
26.84000 440.245
26.88000 458.777
26.92000 440.456
26.96000 441.773
27.00000 459.656
27.04000 442.647
27.08000 442.567
27.12000 433.151
27.16000 441.217
27.20000 423.309
27.24000 428.904
27.28000 444.869
27.32000 455.056
27.36000 451.544
27.40000 450.139
27.44000 443.721
27.48000 431.999
27.52000 429.025
27.56000 446.578
27.60000 430.365
27.64000 452.062
27.68000 447.728
27.72000 429.250
27.76000 436.117
27.80000 429.730
27.84000 425.430
27.88000 438.867
27.92000 432.546
27.96000 439.751
28.00000 423.798
28.04000 433.411
28.08000 420.852
28.12000 424.046
28.16000 435.324
28.20000 434.123
28.24000 444.377
28.28000 452.166
28.32000 460.794
28.36000 436.010
28.40000 434.256
28.44000 427.292
28.48000 430.846
28.52000 421.464
28.56000 423.823
28.60000 435.860
28.64000 429.470
28.68000 424.298
28.72000 420.408
28.76000 417.355
28.80000 419.081
28.84000 419.824
28.88000 421.036
28.92000 420.785
28.96000 411.543
29.00000 422.473
29.04000 404.349
29.08000 433.033
29.12000 406.183
29.16000 414.275
29.20000 417.262
29.24000 423.067
29.28000 404.257
29.32000 423.274
29.36000 414.523
29.40000 404.520
29.44000 408.907
29.48000 420.498
29.52000 399.310
29.56000 405.902
29.60000 427.944
29.64000 424.846
29.68000 424.543
29.72000 420.788
29.76000 421.696
29.80000 437.651
29.84000 430.629
29.88000 437.482
29.92000 469.387
29.96000 467.281
30.00000 447.819
30.04000 460.264
30.08000 469.834
30.12000 446.328
30.16000 451.869
30.20000 441.085
30.24000 432.611
30.28000 433.791
30.32000 421.134
30.36000 434.923
30.40000 412.687
30.44000 439.161
30.48000 424.246
30.52000 425.918
30.56000 441.275
30.60000 435.602
30.64000 431.076
30.68000 448.061
30.72000 449.060
30.76000 458.873
30.80000 475.836
30.84000 472.125
30.88000 485.179
30.92000 530.728
30.96000 557.827
31.00000 611.555
31.04000 720.527
31.08000 884.113
31.12000 1085.174
31.16000 1349.364
31.20000 1803.165
31.24000 2318.958
31.28000 2887.247
31.32000 3336.700
31.36000 3602.021
31.40000 3626.772
31.44000 3423.099
31.48000 3062.099
31.52000 2539.253
31.56000 2061.090
31.60000 1570.455
31.64000 1182.183
31.68000 942.778
31.72000 769.901
31.76000 661.083
31.80000 576.124
31.84000 528.012
31.88000 505.223
31.92000 479.720
31.96000 470.197
32.00000 448.730
32.04000 427.438
32.08000 416.057
32.12000 409.473
32.16000 423.608
32.20000 398.804
32.24000 398.033
32.28000 397.098
32.32000 391.372
32.36000 398.829
32.40000 394.782
32.44000 381.619
32.48000 388.148
32.52000 387.994
32.56000 397.650
32.60000 376.417
32.64000 383.350
32.68000 379.998
32.72000 389.166
32.76000 392.017
32.80000 429.247
32.84000 469.262
32.88000 485.797
32.92000 539.207
32.96000 523.382
33.00000 500.770
33.04000 489.529
33.08000 435.074
33.12000 387.617
33.16000 382.228
33.20000 376.422
33.24000 358.586
33.28000 339.256
33.32000 348.136
33.36000 344.118
33.40000 350.809
33.44000 341.883
33.48000 342.042
33.52000 342.185
33.56000 354.399
33.60000 346.718
33.64000 335.912
33.68000 323.606
33.72000 325.844
33.76000 352.935
33.80000 342.589
33.84000 353.808
33.88000 337.905
33.92000 337.991
33.96000 334.039
34.00000 334.739
34.04000 347.435
34.08000 342.701
34.12000 346.316
34.16000 326.706
34.20000 321.775
34.24000 326.750
34.28000 338.077
34.32000 326.102
34.36000 315.507
34.40000 321.011
34.44000 323.808
34.48000 333.098
34.52000 336.874
34.56000 329.899
34.60000 318.755
34.64000 314.325
34.68000 335.636
34.72000 321.607
34.76000 313.299
34.80000 330.391
34.84000 332.700
34.88000 326.174
34.92000 321.759
34.96000 314.307
35.00000 337.804
35.04000 312.843
35.08000 303.959
35.12000 320.579
35.16000 304.802
35.20000 323.529
35.24000 311.988
35.28000 327.081
35.32000 309.017
35.36000 300.941
35.40000 315.631
35.44000 323.003
35.48000 318.218
35.52000 300.278
35.56000 298.562
35.60000 307.675
35.64000 320.570
35.68000 316.450
35.72000 305.785
35.76000 306.529
35.80000 327.109
35.84000 316.491
35.88000 294.662
35.92000 289.608
35.96000 316.541
36.00000 308.048
36.04000 306.736
36.08000 298.121
36.12000 301.969
36.16000 304.697
36.20000 293.697
36.24000 298.801
36.28000 292.551
36.32000 293.642
36.36000 301.837
36.40000 292.863
36.44000 311.419
36.48000 307.420
36.52000 308.356
36.56000 306.909
36.60000 297.171
36.64000 295.425
36.68000 305.613
36.72000 293.809
36.76000 306.858
36.80000 303.917
36.84000 309.055
36.88000 280.220
36.92000 314.582
36.96000 302.500
37.00000 313.739
37.04000 319.341
37.08000 304.410
37.12000 311.356
37.16000 308.405
37.20000 291.720
37.24000 305.850
37.28000 295.153
37.32000 289.097
37.36000 294.566
37.40000 301.227
37.44000 295.574
37.48000 301.109
37.52000 300.321
37.56000 294.956
37.60000 294.605
37.64000 299.314
37.68000 286.622
37.72000 295.880
37.76000 293.255
37.80000 296.519
37.84000 306.946
37.88000 295.865
37.92000 299.789
37.96000 300.789
38.00000 303.709
38.04000 308.662
38.08000 297.751
38.12000 320.379
38.16000 315.097
38.20000 317.671
38.24000 333.776
38.28000 334.830
38.32000 370.243
38.36000 388.456
38.40000 432.535
38.44000 525.840
38.48000 636.531
38.52000 772.218
38.56000 936.083
38.60000 1134.085
38.64000 1291.108
38.68000 1409.911
38.72000 1403.511
38.76000 1354.760
38.80000 1221.813
38.84000 1004.172
38.88000 853.774
38.92000 685.943
38.96000 536.507
39.00000 454.900
39.04000 387.874
39.08000 358.469
39.12000 334.276
39.16000 321.322
39.20000 307.251
39.24000 294.707
39.28000 304.219
39.32000 284.961
39.36000 289.303
39.40000 293.538
39.44000 278.516
39.48000 269.745
39.52000 286.307
39.56000 277.091
39.60000 288.643
39.64000 266.912
39.68000 271.756
39.72000 278.244
39.76000 262.329
39.80000 272.168
39.84000 265.137
39.88000 258.614
39.92000 267.996
39.96000 272.175
40.00000 259.043
40.04000 259.928
40.08000 270.510
40.12000 269.395
40.16000 262.347
40.20000 262.319
40.24000 268.157
40.28000 261.257
40.32000 256.704
40.36000 247.402
40.40000 262.281
40.44000 267.894
40.48000 257.806
40.52000 244.839
40.56000 254.498
40.60000 254.248
40.64000 257.990
40.68000 245.471
40.72000 256.821
40.76000 250.586
40.80000 246.400
40.84000 261.899
40.88000 259.366
40.92000 252.174
40.96000 248.511
41.00000 247.729
41.04000 268.204
41.08000 251.029
41.12000 247.643
41.16000 230.336
41.20000 254.718
41.24000 232.154
41.28000 247.680
41.32000 247.758
41.36000 241.224
41.40000 247.536
41.44000 236.269
41.48000 246.084
41.52000 250.624
41.56000 248.015
41.60000 228.881
41.64000 251.860
41.68000 257.668
41.72000 245.301
41.76000 240.129
41.80000 235.403
41.84000 242.687
41.88000 238.964
41.92000 239.638
41.96000 237.516
42.00000 230.419
42.04000 242.376
42.08000 241.668
42.12000 232.471
42.16000 234.736
42.20000 236.719
42.24000 238.412
42.28000 232.389
42.32000 227.417
42.36000 239.543
42.40000 246.210
42.44000 233.620
42.48000 230.056
42.52000 223.830
42.56000 224.721
42.60000 235.758
42.64000 227.109
42.68000 233.191
42.72000 228.335
42.76000 224.397
42.80000 239.096
42.84000 236.255
42.88000 236.387
42.92000 231.546
42.96000 218.540
43.00000 224.886
43.04000 218.795
43.08000 229.771
43.12000 240.358
43.16000 245.669
43.20000 221.340
43.24000 233.278
43.28000 234.057
43.32000 219.727
43.36000 233.333
43.40000 215.284
43.44000 213.656
43.48000 218.491
43.52000 226.079
43.56000 233.319
43.60000 221.065
43.64000 229.910
43.68000 239.846
43.72000 225.134
43.76000 220.692
43.80000 229.016
43.84000 218.535
43.88000 231.424
43.92000 229.885
43.96000 226.389
44.00000 230.734
44.04000 225.743
44.08000 216.956
44.12000 237.889
44.16000 218.828
44.20000 218.613
44.24000 229.722
44.28000 216.846
44.32000 229.539
44.36000 217.113
44.40000 216.751
44.44000 245.311
44.48000 215.181
44.52000 223.946
44.56000 237.473
44.60000 233.755
44.64000 227.643
44.68000 250.080
44.72000 260.582
44.76000 285.328
44.80000 288.529
44.84000 299.487
44.88000 324.947
44.92000 355.582
44.96000 370.891
45.00000 385.404
45.04000 403.014
45.08000 415.085
45.12000 400.049
45.16000 392.280
45.20000 362.141
45.24000 341.854
45.28000 326.870
45.32000 311.988
45.36000 298.253
45.40000 316.794
45.44000 281.434
45.48000 255.212
45.52000 260.731
45.56000 256.843
45.60000 254.129
45.64000 243.188
45.68000 250.778
45.72000 225.919
45.76000 232.618
45.80000 228.780
45.84000 232.777
45.88000 223.656
45.92000 236.268
45.96000 233.219
46.00000 226.235
46.04000 222.052
46.08000 209.711
46.12000 211.651
46.16000 212.669
46.20000 199.246
46.24000 203.654
46.28000 197.992
46.32000 223.415
46.36000 198.478
46.40000 203.557
46.44000 205.796
46.48000 204.474
46.52000 213.088
46.56000 210.443
46.60000 197.688
46.64000 215.406
46.68000 206.338
46.72000 206.542
46.76000 194.657
46.80000 196.193
46.84000 188.346
46.88000 204.434
46.92000 192.055
46.96000 192.934
47.00000 192.236
47.04000 220.846
47.08000 195.387
47.12000 203.178
47.16000 194.519
47.20000 195.648
47.24000 200.185
47.28000 199.422
47.32000 196.419
47.36000 189.733
47.40000 195.468
47.44000 198.552
47.48000 184.115
47.52000 190.592
47.56000 184.494
47.60000 190.102
47.64000 188.775
47.68000 191.566
47.72000 185.448
47.76000 189.545
47.80000 183.184
47.84000 175.090
47.88000 185.770
47.92000 183.700
47.96000 192.488
48.00000 186.017
48.04000 184.890
48.08000 183.272
48.12000 180.305
48.16000 181.837
48.20000 182.524
48.24000 180.581
48.28000 200.075
48.32000 189.929
48.36000 189.611
48.40000 174.478
48.44000 186.775
48.48000 170.534
48.52000 182.274
48.56000 180.970
48.60000 181.059
48.64000 186.627
48.68000 182.660
48.72000 172.873
48.76000 181.867
48.80000 179.596
48.84000 178.682
48.88000 181.084
48.92000 172.194
48.96000 178.700
49.00000 172.172
49.04000 177.010
49.08000 170.834
49.12000 185.375
49.16000 170.076
49.20000 173.643
49.24000 192.874
49.28000 185.161
49.32000 191.529
49.36000 181.365
49.40000 171.301
49.44000 175.942
49.48000 179.124
49.52000 173.860
49.56000 181.021
49.60000 185.638
49.64000 168.089
49.68000 170.800
49.72000 181.745
49.76000 172.780
49.80000 185.925
49.84000 184.184
49.88000 167.519
49.92000 176.631
49.96000 176.894
50.00000 176.182
50.04000 187.946
50.08000 187.943
50.12000 177.973
50.16000 188.319
50.20000 174.143
50.24000 184.217
50.28000 187.137
50.32000 192.482
50.36000 191.949
50.40000 197.971
50.44000 205.261
50.48000 240.116
50.52000 235.883
50.56000 252.340
50.60000 264.968
50.64000 268.748
50.68000 280.333
50.72000 262.450
50.76000 263.869
50.80000 253.835
50.84000 245.245
50.88000 246.082
50.92000 227.797
50.96000 207.812
51.00000 201.962
51.04000 209.092
51.08000 188.358
51.12000 180.962
51.16000 177.271
51.20000 184.262
51.24000 184.495
51.28000 174.405
51.32000 178.943
51.36000 178.619
51.40000 179.425
51.44000 170.224
51.48000 178.971
51.52000 167.323
51.56000 165.925
51.60000 159.951
51.64000 157.484
51.68000 165.009
51.72000 166.994
51.76000 160.884
51.80000 175.569
51.84000 163.486
51.88000 164.506
51.92000 171.663
51.96000 163.383
52.00000 162.416
52.04000 169.484
52.08000 160.752
52.12000 159.506
52.16000 157.308
52.20000 174.195
52.24000 161.814
52.28000 159.848
52.32000 170.799
52.36000 165.385
52.40000 159.073
52.44000 167.267
52.48000 161.130
52.52000 169.209
52.56000 162.081
52.60000 169.263
52.64000 147.242
52.68000 161.729
52.72000 163.093
52.76000 153.448
52.80000 157.356
52.84000 163.196
52.88000 161.999
52.92000 159.310
52.96000 160.073
53.00000 153.966
53.04000 162.313
53.08000 163.455
53.12000 160.802
53.16000 162.593
53.20000 172.394
53.24000 158.279
53.28000 152.511
53.32000 167.115
53.36000 162.347
53.40000 168.399
53.44000 174.604
53.48000 160.204
53.52000 167.170
53.56000 163.747
53.60000 159.059
53.64000 153.845
53.68000 158.356
53.72000 157.985
53.76000 161.541
53.80000 157.749
53.84000 160.199
53.88000 158.969
53.92000 163.427
53.96000 152.757
54.00000 168.828
54.04000 168.173
54.08000 150.294
54.12000 157.573
54.16000 168.378
54.20000 161.458
54.24000 160.839
54.28000 146.737
54.32000 151.661
54.36000 158.190
54.40000 158.001
54.44000 152.964
54.48000 160.642
54.52000 155.829
54.56000 162.825
54.60000 153.298
54.64000 155.715
54.68000 166.164
54.72000 164.897
54.76000 157.088
54.80000 162.984
54.84000 152.803
54.88000 157.557
54.92000 159.747
54.96000 159.300
55.00000 172.895
55.04000 155.050
55.08000 168.554
55.12000 159.858
55.16000 167.642
55.20000 171.817
55.24000 178.342
55.28000 187.043
55.32000 177.380
55.36000 177.531
55.40000 196.055
55.44000 197.550
55.48000 210.635
55.52000 228.911
55.56000 250.956
55.60000 290.267
55.64000 330.925
55.68000 389.364
55.72000 449.831
55.76000 523.332
55.80000 654.406
55.84000 727.188
55.88000 751.953
55.92000 808.397
55.96000 782.041
56.00000 768.965
56.04000 724.766
56.08000 650.143
56.12000 559.061
56.16000 474.216
56.20000 407.515
56.24000 342.600
56.28000 304.467
56.32000 262.112
56.36000 240.370
56.40000 211.616
56.44000 201.188
56.48000 199.484
56.52000 188.616
56.56000 177.435
56.60000 169.094
56.64000 168.887
56.68000 175.090
56.72000 168.103
56.76000 154.185
56.80000 162.273
56.84000 154.910
56.88000 159.895
56.92000 157.415
56.96000 154.371
57.00000 149.394
57.04000 149.453
57.08000 148.406
57.12000 145.012
57.16000 153.876
57.20000 141.875
57.24000 159.371
57.28000 155.760
57.32000 141.924
57.36000 144.754
57.40000 147.885
57.44000 151.853
57.48000 143.529
57.52000 146.149
57.56000 141.555
57.60000 138.767
57.64000 142.757
57.68000 139.832
57.72000 135.395
57.76000 145.576
57.80000 146.379
57.84000 145.194
57.88000 141.330
57.92000 145.485
57.96000 141.493
58.00000 146.003
58.04000 144.613
58.08000 139.705
58.12000 134.053
58.16000 143.981
58.20000 149.290
58.24000 143.110
58.28000 138.743
58.32000 139.680
58.36000 148.381
58.40000 131.653
58.44000 138.680
58.48000 146.545
58.52000 146.388
58.56000 144.281
58.60000 131.127
58.64000 133.269
58.68000 130.021
58.72000 138.749
58.76000 139.894
58.80000 134.221
58.84000 139.761
58.88000 137.330
58.92000 137.749
58.96000 135.116
59.00000 147.279
59.04000 141.080
59.08000 141.092
59.12000 131.047
59.16000 132.454
59.20000 126.099
59.24000 135.785
59.28000 137.028
59.32000 143.483
59.36000 133.500
59.40000 141.668
59.44000 134.249
59.48000 137.876
59.52000 140.109
59.56000 135.673
59.60000 132.003
59.64000 131.954
59.68000 134.927
59.72000 125.306
59.76000 137.434
59.80000 136.228
59.84000 130.795
59.88000 136.238
59.92000 130.620
59.96000 136.460
60.00000 130.318
60.04000 133.754
60.08000 135.189
60.12000 129.215
60.16000 134.081
60.20000 138.651
60.24000 138.805
60.28000 125.016
60.32000 137.817
60.36000 126.734
60.40000 135.087
60.44000 135.271
60.48000 138.290
60.52000 127.746
60.56000 135.714
60.60000 133.083
60.64000 148.169
60.68000 127.488
60.72000 131.144
60.76000 131.793
60.80000 135.283
60.84000 133.962
60.88000 123.950
60.92000 131.038
60.96000 142.086
61.00000 134.282
61.04000 128.475
61.08000 132.301
61.12000 127.251
61.16000 134.441
61.20000 135.469
61.24000 143.712
61.28000 127.877
61.32000 138.541
61.36000 140.831
61.40000 138.979
61.44000 145.808
61.48000 145.861
61.52000 166.136
61.56000 213.932
61.60000 244.623
61.64000 274.368
61.68000 286.803
61.72000 306.081
61.76000 271.951
61.80000 222.051
61.84000 183.531
61.88000 160.217
61.92000 143.538
61.96000 140.434
62.00000 139.723
62.04000 148.342
62.08000 145.201
62.12000 134.624
62.16000 142.057
62.20000 138.622
62.24000 138.900
62.28000 136.983
62.32000 146.542
62.36000 145.188
62.40000 139.693
62.44000 146.303
62.48000 146.400
62.52000 146.569
62.56000 137.686
62.60000 149.928
62.64000 132.679
62.68000 143.071
62.72000 150.793
62.76000 143.447
62.80000 137.876
62.84000 147.893
62.88000 146.657
62.92000 137.682
62.96000 148.479
63.00000 138.971
63.04000 158.533
63.08000 146.620
63.12000 148.543
63.16000 142.875
63.20000 146.412
63.24000 152.007
63.28000 149.086
63.32000 139.298
63.36000 156.367
63.40000 144.990
63.44000 145.782
63.48000 145.250
63.52000 145.248
63.56000 138.934
63.60000 149.306
63.64000 147.810
63.68000 148.632
63.72000 164.423
63.76000 155.345
63.80000 160.959
63.84000 136.362
63.88000 144.252
63.92000 146.208
63.96000 157.166
64.00000 152.679
64.04000 162.087
64.08000 154.934
64.12000 155.352
64.16000 164.884
64.20000 150.595
64.24000 164.312
64.28000 153.411
64.32000 160.083
64.36000 160.761
64.40000 161.330
64.44000 162.398
64.48000 161.095
64.52000 176.051
64.56000 169.921
64.60000 172.075
64.64000 173.870
64.68000 166.407
64.72000 179.504
64.76000 180.061
64.80000 177.840
64.84000 172.964
64.88000 179.321
64.92000 195.059
64.96000 207.909
65.00000 195.174
65.04000 201.438
65.08000 200.831
65.12000 220.036
65.16000 236.109
65.20000 258.262
65.24000 278.827
65.28000 274.976
65.32000 296.374
65.36000 326.210
65.40000 353.092
65.44000 377.337
65.48000 387.311
65.52000 413.751
65.56000 448.237
65.60000 445.841
65.64000 495.743
65.68000 565.109
65.72000 730.066
65.76000 980.726
65.80000 1175.065
65.84000 1243.189
65.88000 1237.621
65.92000 1188.303
65.96000 1016.109
66.00000 729.599
66.04000 520.161
66.08000 401.769
66.12000 352.072
66.16000 310.842
66.20000 313.522
66.24000 328.253
66.28000 365.765
66.32000 415.905
66.36000 463.470
66.40000 476.403
66.44000 488.889
66.48000 465.299
66.52000 429.840
66.56000 387.425
66.60000 350.550
66.64000 309.326
66.68000 318.120
66.72000 306.251
66.76000 309.869
66.80000 330.604
66.84000 326.376
66.88000 339.086
66.92000 334.675
66.96000 350.790
67.00000 347.304
67.04000 329.386
67.08000 356.328
67.12000 358.170
67.16000 380.901
67.20000 377.861
67.24000 375.950
67.28000 387.802
67.32000 383.371
67.36000 394.362
67.40000 410.841
67.44000 410.063
67.48000 435.448
67.52000 443.675
67.56000 432.922
67.60000 452.269
67.64000 452.233
67.68000 473.978
67.72000 462.675
67.76000 457.706
67.80000 482.813
67.84000 484.171
67.88000 490.003
67.92000 496.235
67.96000 509.872
68.00000 509.348
68.04000 551.064
68.08000 548.806
68.12000 558.362
68.16000 586.801
68.20000 590.854
68.24000 609.038
68.28000 621.321
68.32000 646.558
68.36000 676.813
68.40000 692.492
68.44000 707.140
68.48000 768.043
68.52000 776.386
68.56000 868.521
68.60000 973.510
68.64000 1157.930
68.68000 1350.947
68.72000 1603.052
68.76000 1835.739
68.80000 2170.252
68.84000 2559.459
68.88000 3354.099
68.92000 5338.504
68.96000 14575.794
69.00000 31744.018
69.04000 50249.027
69.08000 59276.320
69.12000 61682.094
69.16000 64185.723
69.20000 63985.480
69.24000 53514.738
69.28000 40564.801
69.32000 33431.777
69.36000 29935.557
69.40000 24596.424
69.44000 15540.678
69.48000 7057.992
69.52000 3212.020
69.56000 1968.277
69.60000 1512.408
69.64000 1243.723
69.68000 1126.194
69.72000 986.488
69.76000 926.884
69.80000 846.007
69.84000 805.494
69.88000 759.924
69.92000 720.916
69.96000 704.508
70.00000 669.827