File: XRD/24-09-2025 Dep 3/XY Data/BTO_Mapping_Theta2Theta_24-09-2025_001_28_-24-271_17-634.xy
20.00000 566.838
20.04000 545.250
20.08000 558.499
20.12000 586.586
20.16000 570.680
20.20000 552.412
20.24000 547.516
20.28000 552.510
20.32000 583.514
20.36000 556.915
20.40000 560.939
20.44000 570.526
20.48000 559.101
20.52000 532.129
20.56000 566.413
20.60000 553.696
20.64000 563.211
20.68000 564.865
20.72000 551.666
20.76000 558.828
20.80000 554.458
20.84000 542.763
20.88000 547.913
20.92000 560.474
20.96000 553.700
21.00000 566.104
21.04000 565.522
21.08000 539.390
21.12000 553.553
21.16000 565.915
21.20000 577.670
21.24000 547.767
21.28000 547.871
21.32000 552.903
21.36000 552.655
21.40000 554.578
21.44000 547.378
21.48000 539.962
21.52000 550.433
21.56000 559.388
21.60000 565.874
21.64000 549.330
21.68000 597.160
21.72000 602.324
21.76000 601.539
21.80000 670.479
21.84000 710.986
21.88000 789.600
21.92000 860.240
21.96000 930.681
22.00000 976.810
22.04000 980.356
22.08000 952.987
22.12000 896.857
22.16000 834.338
22.20000 773.562
22.24000 705.896
22.28000 649.092
22.32000 637.518
22.36000 581.266
22.40000 575.577
22.44000 561.406
22.48000 576.819
22.52000 566.337
22.56000 539.376
22.60000 539.484
22.64000 541.838
22.68000 510.677
22.72000 528.348
22.76000 539.887
22.80000 529.802
22.84000 524.455
22.88000 519.559
22.92000 522.482
22.96000 504.448
23.00000 537.515
23.04000 525.230
23.08000 516.157
23.12000 507.857
23.16000 510.574
23.20000 508.911
23.24000 522.183
23.28000 506.966
23.32000 519.592
23.36000 516.519
23.40000 518.772
23.44000 509.865
23.48000 509.519
23.52000 514.977
23.56000 490.282
23.60000 512.869
23.64000 518.555
23.68000 509.490
23.72000 499.847
23.76000 493.230
23.80000 505.639
23.84000 492.673
23.88000 504.935
23.92000 483.087
23.96000 496.753
24.00000 496.588
24.04000 500.604
24.08000 482.779
24.12000 505.218
24.16000 498.671
24.20000 482.423
24.24000 484.379
24.28000 511.241
24.32000 498.388
24.36000 488.597
24.40000 483.760
24.44000 482.785
24.48000 493.609
24.52000 495.640
24.56000 484.129
24.60000 487.305
24.64000 486.558
24.68000 482.017
24.72000 492.921
24.76000 468.821
24.80000 480.696
24.84000 462.145
24.88000 473.700
24.92000 474.371
24.96000 492.750
25.00000 492.666
25.04000 477.082
25.08000 489.570
25.12000 476.890
25.16000 479.396
25.20000 491.199
25.24000 483.225
25.28000 476.683
25.32000 472.807
25.36000 476.507
25.40000 480.790
25.44000 479.636
25.48000 466.830
25.52000 466.189
25.56000 457.327
25.60000 458.071
25.64000 468.298
25.68000 473.697
25.72000 477.159
25.76000 462.964
25.80000 447.503
25.84000 456.964
25.88000 483.065
25.92000 467.997
25.96000 491.110
26.00000 460.267
26.04000 459.371
26.08000 437.374
26.12000 460.834
26.16000 474.735
26.20000 461.077
26.24000 466.803
26.28000 456.186
26.32000 465.201
26.36000 450.002
26.40000 455.686
26.44000 460.136
26.48000 479.390
26.52000 457.124
26.56000 459.746
26.60000 446.962
26.64000 442.451
26.68000 461.581
26.72000 464.956
26.76000 459.543
26.80000 454.162
26.84000 453.903
26.88000 440.145
26.92000 459.247
26.96000 446.172
27.00000 445.647
27.04000 439.418
27.08000 450.831
27.12000 453.638
27.16000 440.027
27.20000 457.057
27.24000 434.046
27.28000 446.236
27.32000 446.590
27.36000 446.716
27.40000 424.608
27.44000 433.634
27.48000 453.985
27.52000 457.707
27.56000 439.721
27.60000 443.625
27.64000 433.810
27.68000 448.013
27.72000 434.947
27.76000 425.768
27.80000 431.023
27.84000 427.384
27.88000 425.181
27.92000 425.318
27.96000 420.902
28.00000 446.242
28.04000 456.396
28.08000 438.597
28.12000 426.640
28.16000 431.225
28.20000 430.276
28.24000 431.895
28.28000 424.282
28.32000 421.824
28.36000 425.077
28.40000 428.517
28.44000 419.985
28.48000 448.082
28.52000 429.210
28.56000 416.627
28.60000 424.850
28.64000 421.440
28.68000 440.594
28.72000 421.116
28.76000 421.727
28.80000 439.571
28.84000 415.481
28.88000 442.621
28.92000 412.267
28.96000 425.636
29.00000 433.742
29.04000 410.727
29.08000 435.434
29.12000 422.279
29.16000 411.451
29.20000 407.130
29.24000 411.576
29.28000 387.179
29.32000 424.779
29.36000 427.772
29.40000 415.893
29.44000 422.085
29.48000 427.576
29.52000 425.699
29.56000 399.788
29.60000 415.765
29.64000 404.389
29.68000 426.723
29.72000 414.230
29.76000 433.951
29.80000 432.017
29.84000 430.443
29.88000 439.266
29.92000 444.112
29.96000 451.033
30.00000 455.028
30.04000 465.854
30.08000 461.064
30.12000 453.909
30.16000 448.416
30.20000 439.769
30.24000 425.889
30.28000 435.786
30.32000 438.506
30.36000 430.688
30.40000 433.170
30.44000 443.483
30.48000 418.035
30.52000 431.850
30.56000 443.962
30.60000 425.623
30.64000 447.121
30.68000 439.232
30.72000 457.243
30.76000 477.443
30.80000 461.385
30.84000 494.284
30.88000 526.071
30.92000 542.223
30.96000 575.514
31.00000 647.299
31.04000 719.800
31.08000 908.269
31.12000 1147.161
31.16000 1487.802
31.20000 1914.644
31.24000 2436.643
31.28000 2966.840
31.32000 3363.959
31.36000 3586.318
31.40000 3547.851
31.44000 3294.461
31.48000 2870.847
31.52000 2349.002
31.56000 1855.869
31.60000 1458.134
31.64000 1133.731
31.68000 917.950
31.72000 746.029
31.76000 639.784
31.80000 596.457
31.84000 544.037
31.88000 494.798
31.92000 474.721
31.96000 444.505
32.00000 436.504
32.04000 431.848
32.08000 437.374
32.12000 422.129
32.16000 422.748
32.20000 398.820
32.24000 403.743
32.28000 402.869
32.32000 405.399
32.36000 409.754
32.40000 393.616
32.44000 393.505
32.48000 392.059
32.52000 384.845
32.56000 385.835
32.60000 378.914
32.64000 411.302
32.68000 389.316
32.72000 390.301
32.76000 395.008
32.80000 438.769
32.84000 487.122
32.88000 572.502
32.92000 622.892
32.96000 609.488
33.00000 594.067
33.04000 585.469
33.08000 493.007
33.12000 430.819
33.16000 393.322
33.20000 395.826
33.24000 366.643
33.28000 359.545
33.32000 373.709
33.36000 355.007
33.40000 347.365
33.44000 335.575
33.48000 338.653
33.52000 356.256
33.56000 358.037
33.60000 343.860
33.64000 358.062
33.68000 361.197
33.72000 343.303
33.76000 360.558
33.80000 331.178
33.84000 342.154
33.88000 343.342
33.92000 350.805
33.96000 326.002
34.00000 325.128
34.04000 327.349
34.08000 340.877
34.12000 327.112
34.16000 340.057
34.20000 348.195
34.24000 354.971
34.28000 335.426
34.32000 333.314
34.36000 333.100
34.40000 338.317
34.44000 326.175
34.48000 327.211
34.52000 321.804
34.56000 342.043
34.60000 331.106
34.64000 325.254
34.68000 335.241
34.72000 344.646
34.76000 333.070
34.80000 337.389
34.84000 329.457
34.88000 327.060
34.92000 317.045
34.96000 318.230
35.00000 326.557
35.04000 332.484
35.08000 311.938
35.12000 306.580
35.16000 291.911
35.20000 318.354
35.24000 317.415
35.28000 310.380
35.32000 306.734
35.36000 319.409
35.40000 316.934
35.44000 319.567
35.48000 306.597
35.52000 322.915
35.56000 315.990
35.60000 325.603
35.64000 319.459
35.68000 297.401
35.72000 305.942
35.76000 300.138
35.80000 307.538
35.84000 322.321
35.88000 319.282
35.92000 302.475
35.96000 295.240
36.00000 286.741
36.04000 299.803
36.08000 303.005
36.12000 295.150
36.16000 296.196
36.20000 281.251
36.24000 312.899
36.28000 336.688
36.32000 310.478
36.36000 304.776
36.40000 301.199
36.44000 297.097
36.48000 299.108
36.52000 294.020
36.56000 301.842
36.60000 308.460
36.64000 298.233
36.68000 320.482
36.72000 290.265
36.76000 312.260
36.80000 293.663
36.84000 315.861
36.88000 304.058
36.92000 305.498
36.96000 312.202
37.00000 291.610
37.04000 320.762
37.08000 314.706
37.12000 303.610
37.16000 306.778
37.20000 307.423
37.24000 287.074
37.28000 296.782
37.32000 290.776
37.36000 302.311
37.40000 308.402
37.44000 282.484
37.48000 295.721
37.52000 292.089
37.56000 306.201
37.60000 286.237
37.64000 301.211
37.68000 292.923
37.72000 290.129
37.76000 302.880
37.80000 311.758
37.84000 299.134
37.88000 304.282
37.92000 297.239
37.96000 300.750
38.00000 296.996
38.04000 297.655
38.08000 313.877
38.12000 322.727
38.16000 306.445
38.20000 300.382
38.24000 327.058
38.28000 338.102
38.32000 348.811
38.36000 377.510
38.40000 439.747
38.44000 497.155
38.48000 593.783
38.52000 686.684
38.56000 817.521
38.60000 931.565
38.64000 1012.069
38.68000 1052.231
38.72000 1036.464
38.76000 952.534
38.80000 854.223
38.84000 734.010
38.88000 622.715
38.92000 521.299
38.96000 438.910
39.00000 347.206
39.04000 330.315
39.08000 338.937
39.12000 308.868
39.16000 293.242
39.20000 311.393
39.24000 298.283
39.28000 292.437
39.32000 290.577
39.36000 282.195
39.40000 281.001
39.44000 278.928
39.48000 265.422
39.52000 269.661
39.56000 271.839
39.60000 285.217
39.64000 275.263
39.68000 270.907
39.72000 270.117
39.76000 265.332
39.80000 256.683
39.84000 281.581
39.88000 264.909
39.92000 278.585
39.96000 259.738
40.00000 269.281
40.04000 259.484
40.08000 260.372
40.12000 258.635
40.16000 257.207
40.20000 275.492
40.24000 262.514
40.28000 263.016
40.32000 250.761
40.36000 267.852
40.40000 264.671
40.44000 250.712
40.48000 254.335
40.52000 245.065
40.56000 258.275
40.60000 256.254
40.64000 260.949
40.68000 248.885
40.72000 265.801
40.76000 245.228
40.80000 252.118
40.84000 261.482
40.88000 246.925
40.92000 242.156
40.96000 261.183
41.00000 247.783
41.04000 236.427
41.08000 253.249
41.12000 258.505
41.16000 255.437
41.20000 249.288
41.24000 247.459
41.28000 250.086
41.32000 255.295
41.36000 254.643
41.40000 239.686
41.44000 241.031
41.48000 233.160
41.52000 251.114
41.56000 244.796
41.60000 241.102
41.64000 244.736
41.68000 246.955
41.72000 237.645
41.76000 251.829
41.80000 229.426
41.84000 233.677
41.88000 243.577
41.92000 238.092
41.96000 237.628
42.00000 233.111
42.04000 223.681
42.08000 239.270
42.12000 232.031
42.16000 238.782
42.20000 243.681
42.24000 233.407
42.28000 232.741
42.32000 227.399
42.36000 221.844
42.40000 238.676
42.44000 244.473
42.48000 232.711
42.52000 239.109
42.56000 233.403
42.60000 227.033
42.64000 245.781
42.68000 225.570
42.72000 236.103
42.76000 220.251
42.80000 226.960
42.84000 245.536
42.88000 232.407
42.92000 219.962
42.96000 237.330
43.00000 233.421
43.04000 229.288
43.08000 233.596
43.12000 227.117
43.16000 242.365
43.20000 230.304
43.24000 235.480
43.28000 223.822
43.32000 240.152
43.36000 230.329
43.40000 223.373
43.44000 242.160
43.48000 237.444
43.52000 231.588
43.56000 226.135
43.60000 235.204
43.64000 235.680
43.68000 219.402
43.72000 211.048
43.76000 229.891
43.80000 240.179
43.84000 226.945
43.88000 220.754
43.92000 228.512
43.96000 236.387
44.00000 224.624
44.04000 227.674
44.08000 239.431
44.12000 227.520
44.16000 233.117
44.20000 216.158
44.24000 223.838
44.28000 245.962
44.32000 229.651
44.36000 238.136
44.40000 232.338
44.44000 229.840
44.48000 243.614
44.52000 239.497
44.56000 255.527
44.60000 266.746
44.64000 269.216
44.68000 305.081
44.72000 328.481
44.76000 373.927
44.80000 408.142
44.84000 459.290
44.88000 521.213
44.92000 576.737
44.96000 629.692
45.00000 613.077
45.04000 632.070
45.08000 590.514
45.12000 529.400
45.16000 489.718
45.20000 457.637
45.24000 409.791
45.28000 386.631
45.32000 338.858
45.36000 340.327
45.40000 298.084
45.44000 296.879
45.48000 273.135
45.52000 279.253
45.56000 266.924
45.60000 260.464
45.64000 258.310
45.68000 244.102
45.72000 243.036
45.76000 235.787
45.80000 244.158
45.84000 227.428
45.88000 231.367
45.92000 225.046
45.96000 219.876
46.00000 221.648
46.04000 219.713
46.08000 211.727
46.12000 210.610
46.16000 222.254
46.20000 217.674
46.24000 202.570
46.28000 202.636
46.32000 195.811
46.36000 206.788
46.40000 212.939
46.44000 214.094
46.48000 205.930
46.52000 193.902
46.56000 204.453
46.60000 201.755
46.64000 211.065
46.68000 207.433
46.72000 209.894
46.76000 207.645
46.80000 217.168
46.84000 199.346
46.88000 202.103
46.92000 200.119
46.96000 192.628
47.00000 193.054
47.04000 211.224
47.08000 192.012
47.12000 197.276
47.16000 195.273
47.20000 192.901
47.24000 195.649
47.28000 197.462
47.32000 188.186
47.36000 198.329
47.40000 201.228
47.44000 184.589
47.48000 196.361
47.52000 187.499
47.56000 191.281
47.60000 191.749
47.64000 191.402
47.68000 178.636
47.72000 189.340
47.76000 185.224
47.80000 184.773
47.84000 185.356
47.88000 189.963
47.92000 175.758
47.96000 182.796
48.00000 183.640
48.04000 187.835
48.08000 191.334
48.12000 184.953
48.16000 184.658
48.20000 175.178
48.24000 193.589
48.28000 186.162
48.32000 191.769
48.36000 180.183
48.40000 190.320
48.44000 180.950
48.48000 188.177
48.52000 181.398
48.56000 183.042
48.60000 191.399
48.64000 197.932
48.68000 182.163
48.72000 181.691
48.76000 189.003
48.80000 175.198
48.84000 176.478
48.88000 181.608
48.92000 179.709
48.96000 182.079
49.00000 163.430
49.04000 179.973
49.08000 187.968
49.12000 184.631
49.16000 185.437
49.20000 193.928
49.24000 184.982
49.28000 176.362
49.32000 176.586
49.36000 185.664
49.40000 173.609
49.44000 178.588
49.48000 179.247
49.52000 176.930
49.56000 178.914
49.60000 182.698
49.64000 169.852
49.68000 175.539
49.72000 170.780
49.76000 184.522
49.80000 179.462
49.84000 174.469
49.88000 183.281
49.92000 173.118
49.96000 187.469
50.00000 183.852
50.04000 173.210
50.08000 170.080
50.12000 174.431
50.16000 181.833
50.20000 185.695
50.24000 185.179
50.28000 195.998
50.32000 187.626
50.36000 200.678
50.40000 214.307
50.44000 218.780
50.48000 239.605
50.52000 256.645
50.56000 260.929
50.60000 283.106
50.64000 281.929
50.68000 307.358
50.72000 292.187
50.76000 278.924
50.80000 275.897
50.84000 259.011
50.88000 246.146
50.92000 234.971
50.96000 215.498
51.00000 191.720
51.04000 188.777
51.08000 200.918
51.12000 190.367
51.16000 181.580
51.20000 189.967
51.24000 182.986
51.28000 178.878
51.32000 171.345
51.36000 174.997
51.40000 174.345
51.44000 172.539
51.48000 172.610
51.52000 171.734
51.56000 170.879
51.60000 162.363
51.64000 167.079
51.68000 169.968
51.72000 165.834
51.76000 174.176
51.80000 177.299
51.84000 156.020
51.88000 157.100
51.92000 170.208
51.96000 164.314
52.00000 156.637
52.04000 165.973
52.08000 155.682
52.12000 170.481
52.16000 162.833
52.20000 171.462
52.24000 157.703
52.28000 159.719
52.32000 157.545
52.36000 157.401
52.40000 161.774
52.44000 157.740
52.48000 164.162
52.52000 163.738
52.56000 162.661
52.60000 157.635
52.64000 152.148
52.68000 159.634
52.72000 166.744
52.76000 168.893
52.80000 153.403
52.84000 166.822
52.88000 159.916
52.92000 158.251
52.96000 157.835
53.00000 155.821
53.04000 165.055
53.08000 155.874
53.12000 166.184
53.16000 157.510
53.20000 157.834
53.24000 164.854
53.28000 162.232
53.32000 167.899
53.36000 175.025
53.40000 172.763
53.44000 157.504
53.48000 159.874
53.52000 156.946
53.56000 161.009
53.60000 162.556
53.64000 158.431
53.68000 167.261
53.72000 162.610
53.76000 151.537
53.80000 151.825
53.84000 155.961
53.88000 164.450
53.92000 156.388
53.96000 168.081
54.00000 150.147
54.04000 144.488
54.08000 149.813
54.12000 149.328
54.16000 157.392
54.20000 162.880
54.24000 160.997
54.28000 159.827
54.32000 155.850
54.36000 155.032
54.40000 155.527
54.44000 160.111
54.48000 161.785
54.52000 168.465
54.56000 163.861
54.60000 160.875
54.64000 156.369
54.68000 160.243
54.72000 163.173
54.76000 164.286
54.80000 155.404
54.84000 164.298
54.88000 163.227
54.92000 169.050
54.96000 182.298
55.00000 163.410
55.04000 163.105
55.08000 162.077
55.12000 154.960
55.16000 172.232
55.20000 176.852
55.24000 174.818
55.28000 178.187
55.32000 188.849
55.36000 188.591
55.40000 198.559
55.44000 218.082
55.48000 224.727
55.52000 242.372
55.56000 286.827
55.60000 336.016
55.64000 393.754
55.68000 465.464
55.72000 536.799
55.76000 635.638
55.80000 713.461
55.84000 807.965
55.88000 855.898
55.92000 881.031
55.96000 832.497
56.00000 755.058
56.04000 708.780
56.08000 631.352
56.12000 545.093
56.16000 468.692
56.20000 386.317
56.24000 322.937
56.28000 297.948
56.32000 270.724
56.36000 239.179
56.40000 218.666
56.44000 194.618
56.48000 187.233
56.52000 180.652
56.56000 178.279
56.60000 172.080
56.64000 191.386
56.68000 179.705
56.72000 177.031
56.76000 154.827
56.80000 167.312
56.84000 156.023
56.88000 163.588
56.92000 159.097
56.96000 143.380
57.00000 152.070
57.04000 148.559
57.08000 159.566
57.12000 146.971
57.16000 161.500
57.20000 144.503
57.24000 150.202
57.28000 146.962
57.32000 151.673
57.36000 156.538
57.40000 143.248
57.44000 147.219
57.48000 154.659
57.52000 150.385
57.56000 153.405
57.60000 157.017
57.64000 149.467
57.68000 154.473
57.72000 138.778
57.76000 155.667
57.80000 144.795
57.84000 146.442
57.88000 151.570
57.92000 139.632
57.96000 140.673
58.00000 140.306
58.04000 139.182
58.08000 149.373
58.12000 141.775
58.16000 143.044
58.20000 153.744
58.24000 143.519
58.28000 134.771
58.32000 137.284
58.36000 144.211
58.40000 145.401
58.44000 137.362
58.48000 133.011
58.52000 135.724
58.56000 137.457
58.60000 134.476
58.64000 139.450
58.68000 139.467
58.72000 147.930
58.76000 143.019
58.80000 135.140
58.84000 137.534
58.88000 136.042
58.92000 140.753
58.96000 143.997
59.00000 136.503
59.04000 132.058
59.08000 127.745
59.12000 134.239
59.16000 137.200
59.20000 135.638
59.24000 132.280
59.28000 136.283
59.32000 140.648
59.36000 139.458
59.40000 133.149
59.44000 131.490
59.48000 137.120
59.52000 143.539
59.56000 135.737
59.60000 141.430
59.64000 132.692
59.68000 132.633
59.72000 127.711
59.76000 139.375
59.80000 128.874
59.84000 139.840
59.88000 132.955
59.92000 137.230
59.96000 130.493
60.00000 132.971
60.04000 141.038
60.08000 137.594
60.12000 137.525
60.16000 132.878
60.20000 135.155
60.24000 140.648
60.28000 130.760
60.32000 126.305
60.36000 130.099
60.40000 134.705
60.44000 145.137
60.48000 137.850
60.52000 131.314
60.56000 130.207
60.60000 131.327
60.64000 139.179
60.68000 137.753
60.72000 126.529
60.76000 125.770
60.80000 136.776
60.84000 142.173
60.88000 139.474
60.92000 131.436
60.96000 139.137
61.00000 129.765
61.04000 130.546
61.08000 132.117
61.12000 147.261
61.16000 150.364
61.20000 141.810
61.24000 146.686
61.28000 142.159
61.32000 145.045
61.36000 130.300
61.40000 136.278
61.44000 141.482
61.48000 151.184
61.52000 192.580
61.56000 240.587
61.60000 290.793
61.64000 317.815
61.68000 356.985
61.72000 356.411
61.76000 319.860
61.80000 270.720
61.84000 205.016
61.88000 172.331
61.92000 154.374
61.96000 154.534
62.00000 145.188
62.04000 146.197
62.08000 150.099
62.12000 155.669
62.16000 142.123
62.20000 149.434
62.24000 141.143
62.28000 136.417
62.32000 138.273
62.36000 142.086
62.40000 139.733
62.44000 143.259
62.48000 139.967
62.52000 143.631
62.56000 142.069
62.60000 149.273
62.64000 145.744
62.68000 154.622
62.72000 159.505
62.76000 144.459
62.80000 149.432
62.84000 151.023
62.88000 137.521
62.92000 144.783
62.96000 142.649
63.00000 144.423
63.04000 151.634
63.08000 139.058
63.12000 136.700
63.16000 167.451
63.20000 149.828
63.24000 135.520
63.28000 150.128
63.32000 137.989
63.36000 147.953
63.40000 146.987
63.44000 135.328
63.48000 144.214
63.52000 142.915
63.56000 150.538
63.60000 152.994
63.64000 142.078
63.68000 149.659
63.72000 153.627
63.76000 158.654
63.80000 153.954
63.84000 147.664
63.88000 159.067
63.92000 167.772
63.96000 162.710
64.00000 147.162
64.04000 156.246
64.08000 150.157
64.12000 161.472
64.16000 151.271
64.20000 158.105
64.24000 165.341
64.28000 165.866
64.32000 163.153
64.36000 163.732
64.40000 168.654
64.44000 164.610
64.48000 175.277
64.52000 162.864
64.56000 175.538
64.60000 179.591
64.64000 168.091
64.68000 176.031
64.72000 176.211
64.76000 169.008
64.80000 178.416
64.84000 189.197
64.88000 190.547
64.92000 194.014
64.96000 184.049
65.00000 202.304
65.04000 208.992
65.08000 216.055
65.12000 246.153
65.16000 246.549
65.20000 265.276
65.24000 280.536
65.28000 304.585
65.32000 317.352
65.36000 350.914
65.40000 360.697
65.44000 391.549
65.48000 401.461
65.52000 433.065
65.56000 448.268
65.60000 489.585
65.64000 517.178
65.68000 610.116
65.72000 801.833
65.76000 1112.107
65.80000 1368.696
65.84000 1496.824
65.88000 1575.512
65.92000 1523.144
65.96000 1269.942
66.00000 909.605
66.04000 615.833
66.08000 458.468
66.12000 391.789
66.16000 346.546
66.20000 358.992
66.24000 376.606
66.28000 422.733
66.32000 466.557
66.36000 519.726
66.40000 543.745
66.44000 547.166
66.48000 559.652
66.52000 499.631
66.56000 434.766
66.60000 377.509
66.64000 366.669
66.68000 350.838
66.72000 357.090
66.76000 347.282
66.80000 348.792
66.84000 355.933
66.88000 381.721
66.92000 386.447
66.96000 372.079
67.00000 397.292
67.04000 394.518
67.08000 388.884
67.12000 390.691
67.16000 417.701
67.20000 426.565
67.24000 428.083
67.28000 431.113
67.32000 427.939
67.36000 440.356
67.40000 448.919
67.44000 454.502
67.48000 469.440
67.52000 488.952
67.56000 480.478
67.60000 477.492
67.64000 500.536
67.68000 516.784
67.72000 516.023
67.76000 527.817
67.80000 539.375
67.84000 545.909
67.88000 547.265
67.92000 550.962
67.96000 574.866
68.00000 588.015
68.04000 602.229
68.08000 589.931
68.12000 620.663
68.16000 632.755
68.20000 675.280
68.24000 683.724
68.28000 704.592
68.32000 722.409
68.36000 753.351
68.40000 770.158
68.44000 799.868
68.48000 874.117
68.52000 929.325
68.56000 1018.718
68.60000 1147.788
68.64000 1388.881
68.68000 1664.197
68.72000 1925.867
68.76000 2184.963
68.80000 2623.603
68.84000 3230.598
68.88000 4673.281
68.92000 7700.122
68.96000 19386.814
69.00000 40664.988
69.04000 64499.379
69.08000 77386.156
69.12000 81778.164
69.16000 84647.680
69.20000 83899.469
69.24000 71150.320
69.28000 55506.609
69.32000 44818.883
69.36000 39624.852
69.40000 32517.895
69.44000 21340.713
69.48000 10154.141
69.52000 4548.372
69.56000 2581.562
69.60000 1852.249
69.64000 1558.692
69.68000 1324.493
69.72000 1204.534
69.76000 1111.414
69.80000 1001.041
69.84000 930.588
69.88000 855.609
69.92000 827.969
69.96000 788.565
70.00000 757.143