File: XRD/24-09-2025 Dep 3/XY Data/BTO_Mapping_Theta2Theta_24-09-2025_001_40_-24-271_-17-634.xy
20.00000 557.815
20.04000 549.804
20.08000 570.013
20.12000 571.944
20.16000 560.120
20.20000 579.475
20.24000 558.402
20.28000 573.678
20.32000 581.769
20.36000 549.062
20.40000 559.541
20.44000 565.282
20.48000 568.082
20.52000 570.393
20.56000 546.710
20.60000 573.103
20.64000 577.186
20.68000 564.247
20.72000 548.018
20.76000 559.653
20.80000 555.949
20.84000 554.510
20.88000 558.247
20.92000 576.295
20.96000 556.883
21.00000 557.731
21.04000 540.846
21.08000 549.739
21.12000 570.363
21.16000 557.279
21.20000 536.350
21.24000 554.128
21.28000 542.074
21.32000 572.557
21.36000 542.109
21.40000 557.180
21.44000 553.512
21.48000 570.206
21.52000 570.771
21.56000 558.883
21.60000 564.784
21.64000 565.406
21.68000 569.957
21.72000 602.287
21.76000 647.494
21.80000 657.892
21.84000 729.713
21.88000 836.847
21.92000 893.825
21.96000 915.554
22.00000 956.214
22.04000 953.175
22.08000 915.565
22.12000 887.922
22.16000 805.071
22.20000 743.303
22.24000 675.888
22.28000 627.650
22.32000 612.573
22.36000 577.266
22.40000 560.473
22.44000 557.295
22.48000 564.856
22.52000 541.959
22.56000 549.121
22.60000 538.122
22.64000 532.014
22.68000 537.682
22.72000 528.080
22.76000 526.146
22.80000 521.104
22.84000 515.876
22.88000 524.735
22.92000 520.688
22.96000 542.755
23.00000 537.643
23.04000 530.531
23.08000 519.690
23.12000 510.617
23.16000 533.403
23.20000 499.491
23.24000 520.838
23.28000 521.481
23.32000 501.415
23.36000 511.933
23.40000 494.351
23.44000 494.265
23.48000 496.809
23.52000 484.433
23.56000 507.033
23.60000 490.708
23.64000 499.173
23.68000 509.706
23.72000 494.956
23.76000 496.177
23.80000 502.690
23.84000 490.221
23.88000 484.939
23.92000 508.085
23.96000 498.930
24.00000 497.922
24.04000 494.428
24.08000 493.266
24.12000 495.401
24.16000 492.745
24.20000 508.606
24.24000 484.099
24.28000 482.739
24.32000 490.168
24.36000 478.999
24.40000 499.349
24.44000 485.550
24.48000 488.837
24.52000 481.707
24.56000 486.728
24.60000 480.694
24.64000 472.791
24.68000 506.620
24.72000 487.858
24.76000 476.944
24.80000 497.507
24.84000 476.744
24.88000 487.629
24.92000 496.429
24.96000 469.280
25.00000 474.949
25.04000 471.192
25.08000 483.132
25.12000 481.736
25.16000 474.118
25.20000 468.512
25.24000 483.222
25.28000 482.858
25.32000 466.303
25.36000 461.972
25.40000 476.427
25.44000 463.562
25.48000 462.573
25.52000 455.437
25.56000 490.754
25.60000 461.957
25.64000 464.620
25.68000 461.632
25.72000 474.325
25.76000 467.983
25.80000 468.785
25.84000 469.601
25.88000 459.334
25.92000 466.844
25.96000 471.255
26.00000 465.059
26.04000 478.927
26.08000 469.530
26.12000 463.680
26.16000 454.305
26.20000 466.491
26.24000 460.565
26.28000 459.680
26.32000 454.689
26.36000 446.202
26.40000 446.698
26.44000 445.030
26.48000 459.670
26.52000 449.571
26.56000 467.572
26.60000 476.635
26.64000 458.777
26.68000 451.629
26.72000 459.685
26.76000 455.647
26.80000 460.584
26.84000 433.344
26.88000 454.178
26.92000 462.729
26.96000 436.337
27.00000 460.606
27.04000 444.231
27.08000 438.822
27.12000 439.004
27.16000 452.414
27.20000 433.708
27.24000 454.772
27.28000 457.112
27.32000 445.678
27.36000 438.093
27.40000 432.776
27.44000 440.169
27.48000 455.445
27.52000 444.581
27.56000 437.338
27.60000 437.186
27.64000 444.534
27.68000 440.132
27.72000 447.223
27.76000 435.435
27.80000 447.337
27.84000 422.660
27.88000 436.832
27.92000 426.221
27.96000 458.550
28.00000 447.771
28.04000 437.986
28.08000 437.540
28.12000 445.450
28.16000 442.175
28.20000 436.935
28.24000 420.798
28.28000 432.897
28.32000 427.312
28.36000 441.532
28.40000 425.946
28.44000 425.760
28.48000 432.011
28.52000 422.237
28.56000 417.778
28.60000 427.100
28.64000 412.420
28.68000 428.003
28.72000 433.040
28.76000 422.538
28.80000 413.081
28.84000 408.208
28.88000 412.967
28.92000 422.145
28.96000 422.542
29.00000 413.463
29.04000 426.178
29.08000 453.159
29.12000 430.116
29.16000 430.135
29.20000 430.830
29.24000 411.700
29.28000 423.004
29.32000 421.219
29.36000 416.732
29.40000 433.236
29.44000 428.922
29.48000 407.820
29.52000 409.279
29.56000 415.659
29.60000 426.649
29.64000 421.788
29.68000 417.072
29.72000 418.868
29.76000 424.135
29.80000 430.010
29.84000 416.416
29.88000 439.035
29.92000 460.366
29.96000 444.502
30.00000 456.899
30.04000 458.614
30.08000 452.356
30.12000 446.809
30.16000 445.009
30.20000 431.814
30.24000 453.461
30.28000 452.549
30.32000 424.583
30.36000 428.306
30.40000 434.876
30.44000 439.824
30.48000 439.956
30.52000 427.482
30.56000 444.978
30.60000 449.794
30.64000 450.685
30.68000 454.777
30.72000 441.356
30.76000 454.886
30.80000 479.651
30.84000 479.153
30.88000 521.419
30.92000 549.884
30.96000 620.765
31.00000 695.207
31.04000 825.316
31.08000 1012.826
31.12000 1321.634
31.16000 1700.496
31.20000 2171.803
31.24000 2681.640
31.28000 3139.289
31.32000 3497.959
31.36000 3574.949
31.40000 3469.395
31.44000 3154.479
31.48000 2686.636
31.52000 2175.731
31.56000 1699.452
31.60000 1284.118
31.64000 978.103
31.68000 839.024
31.72000 700.451
31.76000 629.714
31.80000 566.759
31.84000 505.676
31.88000 480.093
31.92000 466.220
31.96000 450.015
32.00000 444.632
32.04000 418.103
32.08000 417.189
32.12000 416.493
32.16000 412.162
32.20000 419.215
32.24000 402.041
32.28000 382.871
32.32000 397.848
32.36000 399.511
32.40000 394.764
32.44000 395.283
32.48000 401.050
32.52000 397.756
32.56000 387.764
32.60000 382.089
32.64000 382.457
32.68000 390.728
32.72000 394.160
32.76000 409.378
32.80000 430.844
32.84000 513.402
32.88000 579.405
32.92000 610.863
32.96000 606.357
33.00000 599.503
33.04000 576.899
33.08000 488.130
33.12000 403.933
33.16000 397.985
33.20000 377.022
33.24000 361.770
33.28000 345.769
33.32000 364.303
33.36000 360.865
33.40000 360.479
33.44000 356.369
33.48000 334.078
33.52000 338.631
33.56000 341.069
33.60000 339.655
33.64000 355.897
33.68000 349.549
33.72000 341.382
33.76000 335.105
33.80000 374.738
33.84000 321.249
33.88000 335.038
33.92000 345.596
33.96000 333.965
34.00000 352.769
34.04000 328.953
34.08000 341.210
34.12000 345.216
34.16000 329.334
34.20000 314.816
34.24000 327.419
34.28000 314.931
34.32000 326.847
34.36000 334.245
34.40000 335.365
34.44000 326.535
34.48000 326.873
34.52000 331.077
34.56000 315.180
34.60000 327.531
34.64000 331.793
34.68000 313.416
34.72000 323.150
34.76000 314.480
34.80000 327.382
34.84000 323.241
34.88000 325.114
34.92000 325.186
34.96000 301.406
35.00000 321.172
35.04000 321.731
35.08000 329.814
35.12000 322.905
35.16000 308.056
35.20000 323.673
35.24000 312.680
35.28000 302.588
35.32000 313.323
35.36000 310.978
35.40000 329.263
35.44000 320.911
35.48000 314.803
35.52000 298.307
35.56000 300.831
35.60000 323.759
35.64000 322.120
35.68000 325.545
35.72000 306.289
35.76000 307.827
35.80000 295.718
35.84000 320.992
35.88000 318.917
35.92000 317.144
35.96000 303.340
36.00000 296.866
36.04000 314.452
36.08000 309.793
36.12000 304.333
36.16000 304.531
36.20000 307.404
36.24000 315.982
36.28000 311.684
36.32000 296.307
36.36000 306.005
36.40000 313.256
36.44000 300.616
36.48000 292.269
36.52000 298.764
36.56000 289.725
36.60000 301.095
36.64000 305.158
36.68000 296.635
36.72000 296.814
36.76000 301.097
36.80000 305.845
36.84000 313.760
36.88000 308.405
36.92000 314.265
36.96000 300.696
37.00000 298.040
37.04000 309.432
37.08000 296.834
37.12000 318.865
37.16000 310.931
37.20000 297.300
37.24000 285.293
37.28000 302.350
37.32000 301.010
37.36000 292.460
37.40000 300.832
37.44000 289.607
37.48000 289.783
37.52000 320.964
37.56000 291.007
37.60000 304.660
37.64000 281.980
37.68000 294.434
37.72000 293.894
37.76000 286.258
37.80000 299.800
37.84000 311.011
37.88000 295.189
37.92000 297.755
37.96000 295.903
38.00000 294.102
38.04000 302.313
38.08000 303.257
38.12000 318.303
38.16000 335.079
38.20000 314.788
38.24000 332.358
38.28000 362.296
38.32000 377.766
38.36000 422.747
38.40000 464.931
38.44000 539.350
38.48000 637.817
38.52000 776.559
38.56000 901.665
38.60000 1015.727
38.64000 1046.468
38.68000 1105.667
38.72000 1028.910
38.76000 977.843
38.80000 848.952
38.84000 691.236
38.88000 583.301
38.92000 486.072
38.96000 414.660
39.00000 359.799
39.04000 339.455
39.08000 317.361
39.12000 317.421
39.16000 301.293
39.20000 290.760
39.24000 290.038
39.28000 294.773
39.32000 275.125
39.36000 281.894
39.40000 277.608
39.44000 281.640
39.48000 281.098
39.52000 291.433
39.56000 274.195
39.60000 266.147
39.64000 277.765
39.68000 267.574
39.72000 265.306
39.76000 260.358
39.80000 268.385
39.84000 270.656
39.88000 256.045
39.92000 263.189
39.96000 275.522
40.00000 261.775
40.04000 264.848
40.08000 253.577
40.12000 262.156
40.16000 258.383
40.20000 278.173
40.24000 258.852
40.28000 274.986
40.32000 257.841
40.36000 253.355
40.40000 254.512
40.44000 241.165
40.48000 265.765
40.52000 258.762
40.56000 251.125
40.60000 255.385
40.64000 248.066
40.68000 258.623
40.72000 250.202
40.76000 262.964
40.80000 260.558
40.84000 243.436
40.88000 250.098
40.92000 263.480
40.96000 244.855
41.00000 251.209
41.04000 264.493
41.08000 240.808
41.12000 240.190
41.16000 266.290
41.20000 251.430
41.24000 252.525
41.28000 239.116
41.32000 250.382
41.36000 244.538
41.40000 257.574
41.44000 252.767
41.48000 252.712
41.52000 227.343
41.56000 250.117
41.60000 234.720
41.64000 239.000
41.68000 252.438
41.72000 239.758
41.76000 238.284
41.80000 240.671
41.84000 244.186
41.88000 242.151
41.92000 238.602
41.96000 236.996
42.00000 244.652
42.04000 231.561
42.08000 225.626
42.12000 238.176
42.16000 220.924
42.20000 243.478
42.24000 235.148
42.28000 232.317
42.32000 228.354
42.36000 237.170
42.40000 231.553
42.44000 242.883
42.48000 228.210
42.52000 239.685
42.56000 228.616
42.60000 235.790
42.64000 228.004
42.68000 230.211
42.72000 227.868
42.76000 226.039
42.80000 229.666
42.84000 229.165
42.88000 243.103
42.92000 239.059
42.96000 232.914
43.00000 241.956
43.04000 238.378
43.08000 229.607
43.12000 216.992
43.16000 243.544
43.20000 221.414
43.24000 252.603
43.28000 236.120
43.32000 226.328
43.36000 227.408
43.40000 226.454
43.44000 230.716
43.48000 224.829
43.52000 218.774
43.56000 235.884
43.60000 234.006
43.64000 220.902
43.68000 233.190
43.72000 210.116
43.76000 232.692
43.80000 228.564
43.84000 225.055
43.88000 233.619
43.92000 225.886
43.96000 234.625
44.00000 225.408
44.04000 230.857
44.08000 230.759
44.12000 218.016
44.16000 232.613
44.20000 230.764
44.24000 230.121
44.28000 221.588
44.32000 241.321
44.36000 228.247
44.40000 224.293
44.44000 245.584
44.48000 240.183
44.52000 255.434
44.56000 265.254
44.60000 279.753
44.64000 289.469
44.68000 308.678
44.72000 341.073
44.76000 381.489
44.80000 437.018
44.84000 472.269
44.88000 539.183
44.92000 595.822
44.96000 627.764
45.00000 596.212
45.04000 590.232
45.08000 564.695
45.12000 518.037
45.16000 466.972
45.20000 435.246
45.24000 394.130
45.28000 367.939
45.32000 339.286
45.36000 311.720
45.40000 293.549
45.44000 295.581
45.48000 294.611
45.52000 268.031
45.56000 257.719
45.60000 259.140
45.64000 257.605
45.68000 226.955
45.72000 255.861
45.76000 233.221
45.80000 240.777
45.84000 232.033
45.88000 235.514
45.92000 232.809
45.96000 212.732
46.00000 214.995
46.04000 211.714
46.08000 211.821
46.12000 212.247
46.16000 218.779
46.20000 219.453
46.24000 203.972
46.28000 207.324
46.32000 208.169
46.36000 200.883
46.40000 214.262
46.44000 210.690
46.48000 199.664
46.52000 208.178
46.56000 206.990
46.60000 202.155
46.64000 192.122
46.68000 197.100
46.72000 207.037
46.76000 206.705
46.80000 204.142
46.84000 203.839
46.88000 189.818
46.92000 203.312
46.96000 195.292
47.00000 190.750
47.04000 204.108
47.08000 203.326
47.12000 196.115
47.16000 198.469
47.20000 200.108
47.24000 190.581
47.28000 194.765
47.32000 201.697
47.36000 194.249
47.40000 187.096
47.44000 185.537
47.48000 187.401
47.52000 191.808
47.56000 191.277
47.60000 190.262
47.64000 179.812
47.68000 184.022
47.72000 191.971
47.76000 186.156
47.80000 178.852
47.84000 188.853
47.88000 181.471
47.92000 175.822
47.96000 174.863
48.00000 182.183
48.04000 190.241
48.08000 189.796
48.12000 187.604
48.16000 177.434
48.20000 185.555
48.24000 187.088
48.28000 193.331
48.32000 177.035
48.36000 184.755
48.40000 196.008
48.44000 190.034
48.48000 193.139
48.52000 190.526
48.56000 182.679
48.60000 173.323
48.64000 182.243
48.68000 183.920
48.72000 170.445
48.76000 183.682
48.80000 187.354
48.84000 189.979
48.88000 178.885
48.92000 173.565
48.96000 172.571
49.00000 184.696
49.04000 187.376
49.08000 190.845
49.12000 171.474
49.16000 179.203
49.20000 180.558
49.24000 185.021
49.28000 179.074
49.32000 173.981
49.36000 169.873
49.40000 168.026
49.44000 180.906
49.48000 184.858
49.52000 169.534
49.56000 167.773
49.60000 176.318
49.64000 173.345
49.68000 177.000
49.72000 180.599
49.76000 179.709
49.80000 182.099
49.84000 191.600
49.88000 182.232
49.92000 178.920
49.96000 186.848
50.00000 184.750
50.04000 186.925
50.08000 181.902
50.12000 181.873
50.16000 188.692
50.20000 193.064
50.24000 178.018
50.28000 191.086
50.32000 188.073
50.36000 227.466
50.40000 222.682
50.44000 230.979
50.48000 249.120
50.52000 262.032
50.56000 266.478
50.60000 292.141
50.64000 265.761
50.68000 281.077
50.72000 277.365
50.76000 254.800
50.80000 252.705
50.84000 254.746
50.88000 233.324
50.92000 222.782
50.96000 202.616
51.00000 206.919
51.04000 203.193
51.08000 178.321
51.12000 187.330
51.16000 175.960
51.20000 198.038
51.24000 182.289
51.28000 180.427
51.32000 172.922
51.36000 166.119
51.40000 173.048
51.44000 184.264
51.48000 170.523
51.52000 163.078
51.56000 167.151
51.60000 165.765
51.64000 169.077
51.68000 155.397
51.72000 155.586
51.76000 174.853
51.80000 162.677
51.84000 169.164
51.88000 180.279
51.92000 169.359
51.96000 169.593
52.00000 149.790
52.04000 156.862
52.08000 165.060
52.12000 161.279
52.16000 162.656
52.20000 164.966
52.24000 160.046
52.28000 170.599
52.32000 163.091
52.36000 161.487
52.40000 148.040
52.44000 166.933
52.48000 159.034
52.52000 160.825
52.56000 166.417
52.60000 164.125
52.64000 163.724
52.68000 164.010
52.72000 151.452
52.76000 156.974
52.80000 163.254
52.84000 162.208
52.88000 160.596
52.92000 160.148
52.96000 161.280
53.00000 166.374
53.04000 169.360
53.08000 161.151
53.12000 163.724
53.16000 168.060
53.20000 180.784
53.24000 161.851
53.28000 155.548
53.32000 169.710
53.36000 164.354
53.40000 172.300
53.44000 163.076
53.48000 161.744
53.52000 175.640
53.56000 170.079
53.60000 167.960
53.64000 151.839
53.68000 160.662
53.72000 164.207
53.76000 163.950
53.80000 162.425
53.84000 169.411
53.88000 158.373
53.92000 159.535
53.96000 145.183
54.00000 161.910
54.04000 161.669
54.08000 162.418
54.12000 174.125
54.16000 151.720
54.20000 162.553
54.24000 161.620
54.28000 169.950
54.32000 158.863
54.36000 159.196
54.40000 167.624
54.44000 156.128
54.48000 160.410
54.52000 163.485
54.56000 148.688
54.60000 163.311
54.64000 160.353
54.68000 163.884
54.72000 158.494
54.76000 160.528
54.80000 155.610
54.84000 162.548
54.88000 167.950
54.92000 163.344
54.96000 158.210
55.00000 185.420
55.04000 170.944
55.08000 176.846
55.12000 177.830
55.16000 178.218
55.20000 176.130
55.24000 173.411
55.28000 188.071
55.32000 188.526
55.36000 197.383
55.40000 218.888
55.44000 223.592
55.48000 244.071
55.52000 262.194
55.56000 307.595
55.60000 368.118
55.64000 441.013
55.68000 527.044
55.72000 610.046
55.76000 730.932
55.80000 808.070
55.84000 867.313
55.88000 909.776
55.92000 924.872
55.96000 842.304
56.00000 754.990
56.04000 694.285
56.08000 600.469
56.12000 528.101
56.16000 443.871
56.20000 366.018
56.24000 322.824
56.28000 278.834
56.32000 246.577
56.36000 238.010
56.40000 213.901
56.44000 186.409
56.48000 191.735
56.52000 187.655
56.56000 181.828
56.60000 174.522
56.64000 167.140
56.68000 160.959
56.72000 161.222
56.76000 166.278
56.80000 162.159
56.84000 151.144
56.88000 155.108
56.92000 159.904
56.96000 156.342
57.00000 160.030
57.04000 151.243
57.08000 156.258
57.12000 147.161
57.16000 145.937
57.20000 140.552
57.24000 142.088
57.28000 153.111
57.32000 146.066
57.36000 155.070
57.40000 156.550
57.44000 148.661
57.48000 150.225
57.52000 153.838
57.56000 151.209
57.60000 148.474
57.64000 153.757
57.68000 149.388
57.72000 139.612
57.76000 134.979
57.80000 150.857
57.84000 149.001
57.88000 150.198
57.92000 143.855
57.96000 138.115
58.00000 141.534
58.04000 143.128
58.08000 131.765
58.12000 139.824
58.16000 148.738
58.20000 143.804
58.24000 150.044
58.28000 127.772
58.32000 141.429
58.36000 140.919
58.40000 146.718
58.44000 138.947
58.48000 140.860
58.52000 137.165
58.56000 142.314
58.60000 146.440
58.64000 146.134
58.68000 147.586
58.72000 128.713
58.76000 144.450
58.80000 134.400
58.84000 138.112
58.88000 134.357
58.92000 141.700
58.96000 140.253
59.00000 134.038
59.04000 136.131
59.08000 144.453
59.12000 143.236
59.16000 137.680
59.20000 127.133
59.24000 131.116
59.28000 133.912
59.32000 136.964
59.36000 135.649
59.40000 136.777
59.44000 137.673
59.48000 129.787
59.52000 139.611
59.56000 134.382
59.60000 134.198
59.64000 126.068
59.68000 141.672
59.72000 148.493
59.76000 130.694
59.80000 123.685
59.84000 141.067
59.88000 133.565
59.92000 137.653
59.96000 134.135
60.00000 136.610
60.04000 128.668
60.08000 128.613
60.12000 138.677
60.16000 132.969
60.20000 129.666
60.24000 127.287
60.28000 135.759
60.32000 142.601
60.36000 142.347
60.40000 127.035
60.44000 129.784
60.48000 125.349
60.52000 127.904
60.56000 125.850
60.60000 130.609
60.64000 135.295
60.68000 142.117
60.72000 126.957
60.76000 132.612
60.80000 134.411
60.84000 134.542
60.88000 142.405
60.92000 141.495
60.96000 136.516
61.00000 135.346
61.04000 143.069
61.08000 133.260
61.12000 136.450
61.16000 144.627
61.20000 136.350
61.24000 133.374
61.28000 140.827
61.32000 141.243
61.36000 139.819
61.40000 135.900
61.44000 146.758
61.48000 165.316
61.52000 185.166
61.56000 238.440
61.60000 305.050
61.64000 325.607
61.68000 337.575
61.72000 353.630
61.76000 316.922
61.80000 260.810
61.84000 192.295
61.88000 163.929
61.92000 160.131
61.96000 153.815
62.00000 141.053
62.04000 138.206
62.08000 148.845
62.12000 134.826
62.16000 155.012
62.20000 149.560
62.24000 142.163
62.28000 137.029
62.32000 150.436
62.36000 148.473
62.40000 156.241
62.44000 134.651
62.48000 140.385
62.52000 137.286
62.56000 142.222
62.60000 143.606
62.64000 142.403
62.68000 140.181
62.72000 149.826
62.76000 145.778
62.80000 148.691
62.84000 155.256
62.88000 138.857
62.92000 144.237
62.96000 134.756
63.00000 146.638
63.04000 151.480
63.08000 148.935
63.12000 137.453
63.16000 142.680
63.20000 147.829
63.24000 139.777
63.28000 147.432
63.32000 150.216
63.36000 143.962
63.40000 147.924
63.44000 151.210
63.48000 158.756
63.52000 150.194
63.56000 156.671
63.60000 138.477
63.64000 153.909
63.68000 161.988
63.72000 152.998
63.76000 150.259
63.80000 151.019
63.84000 153.252
63.88000 151.844
63.92000 154.506
63.96000 164.031
64.00000 154.443
64.04000 147.639
64.08000 166.609
64.12000 158.414
64.16000 157.037
64.20000 167.469
64.24000 164.706
64.28000 157.144
64.32000 157.703
64.36000 167.393
64.40000 164.443
64.44000 165.773
64.48000 168.206
64.52000 174.496
64.56000 180.639
64.60000 171.339
64.64000 167.226
64.68000 176.550
64.72000 179.014
64.76000 177.480
64.80000 190.405
64.84000 193.965
64.88000 197.812
64.92000 207.180
64.96000 214.534
65.00000 219.182
65.04000 226.479
65.08000 228.958
65.12000 238.440
65.16000 265.065
65.20000 278.342
65.24000 300.606
65.28000 320.632
65.32000 323.383
65.36000 348.986
65.40000 375.938
65.44000 383.519
65.48000 420.968
65.52000 432.271
65.56000 451.790
65.60000 457.025
65.64000 507.738
65.68000 596.155
65.72000 844.746
65.76000 1145.276
65.80000 1422.141
65.84000 1542.924
65.88000 1587.637
65.92000 1504.851
65.96000 1228.346
66.00000 845.015
66.04000 594.185
66.08000 427.867
66.12000 379.530
66.16000 344.707
66.20000 348.381
66.24000 381.446
66.28000 418.304
66.32000 467.152
66.36000 525.211
66.40000 545.237
66.44000 551.197
66.48000 533.812
66.52000 505.870
66.56000 432.439
66.60000 383.788
66.64000 369.754
66.68000 353.213
66.72000 331.160
66.76000 351.303
66.80000 362.082
66.84000 342.292
66.88000 367.203
66.92000 359.566
66.96000 378.668
67.00000 398.379
67.04000 394.027
67.08000 409.069
67.12000 397.736
67.16000 400.016
67.20000 407.840
67.24000 407.884
67.28000 412.627
67.32000 456.741
67.36000 438.327
67.40000 443.846
67.44000 451.213
67.48000 450.126
67.52000 461.449
67.56000 467.832
67.60000 486.890
67.64000 499.045
67.68000 493.534
67.72000 520.918
67.76000 535.668
67.80000 547.333
67.84000 545.350
67.88000 530.183
67.92000 563.274
67.96000 585.080
68.00000 601.171
68.04000 606.493
68.08000 612.880
68.12000 619.956
68.16000 638.227
68.20000 660.059
68.24000 682.058
68.28000 709.774
68.32000 732.871
68.36000 749.972
68.40000 783.160
68.44000 816.413
68.48000 845.655
68.52000 913.155
68.56000 1007.167
68.60000 1138.586
68.64000 1378.757
68.68000 1689.942
68.72000 1953.085
68.76000 2257.441
68.80000 2546.115
68.84000 3169.968
68.88000 4521.815
68.92000 8105.875
68.96000 20903.086
69.00000 43168.328
69.04000 66365.352
69.08000 78328.344
69.12000 82129.422
69.16000 84743.453
69.20000 83029.508
69.24000 69482.945
69.28000 54290.340
69.32000 44384.000
69.36000 39274.652
69.40000 31374.332
69.44000 19853.205
69.48000 9499.553
69.52000 4277.367
69.56000 2473.984
69.60000 1816.108
69.64000 1490.289
69.68000 1269.098
69.72000 1140.502
69.76000 1047.201
69.80000 981.446
69.84000 928.993
69.88000 862.412
69.92000 806.979
69.96000 785.207
70.00000 750.374