File: XRD/24-09-2025 Dep 3/XY Data/BTO_Mapping_Theta2Theta_24-09-2025_001_23_-10-000_17-321.xy
20.00000 585.812
20.04000 569.856
20.08000 570.869
20.12000 566.693
20.16000 578.822
20.20000 559.052
20.24000 541.974
20.28000 545.047
20.32000 541.336
20.36000 568.443
20.40000 570.780
20.44000 572.740
20.48000 567.371
20.52000 567.629
20.56000 550.859
20.60000 534.846
20.64000 558.142
20.68000 554.735
20.72000 555.371
20.76000 567.346
20.80000 567.703
20.84000 540.709
20.88000 550.621
20.92000 560.261
20.96000 557.940
21.00000 566.980
21.04000 556.322
21.08000 560.488
21.12000 534.277
21.16000 574.943
21.20000 544.532
21.24000 564.542
21.28000 553.229
21.32000 558.945
21.36000 535.717
21.40000 546.368
21.44000 550.619
21.48000 536.682
21.52000 535.657
21.56000 540.685
21.60000 557.435
21.64000 564.849
21.68000 577.637
21.72000 573.529
21.76000 587.246
21.80000 596.550
21.84000 624.543
21.88000 659.996
21.92000 688.874
21.96000 726.900
22.00000 754.206
22.04000 802.774
22.08000 781.308
22.12000 767.317
22.16000 747.647
22.20000 700.573
22.24000 669.458
22.28000 649.200
22.32000 621.894
22.36000 598.929
22.40000 594.718
22.44000 572.801
22.48000 578.697
22.52000 553.300
22.56000 530.756
22.60000 539.899
22.64000 539.374
22.68000 527.376
22.72000 529.247
22.76000 496.659
22.80000 533.778
22.84000 518.280
22.88000 509.421
22.92000 506.010
22.96000 506.657
23.00000 493.290
23.04000 515.282
23.08000 523.065
23.12000 512.859
23.16000 502.535
23.20000 514.432
23.24000 519.886
23.28000 508.859
23.32000 500.872
23.36000 497.260
23.40000 512.150
23.44000 513.117
23.48000 499.475
23.52000 507.862
23.56000 493.750
23.60000 507.153
23.64000 516.149
23.68000 510.735
23.72000 489.966
23.76000 507.108
23.80000 496.245
23.84000 513.033
23.88000 505.623
23.92000 493.340
23.96000 494.440
24.00000 498.485
24.04000 508.289
24.08000 495.029
24.12000 484.962
24.16000 496.520
24.20000 492.926
24.24000 507.026
24.28000 492.772
24.32000 494.962
24.36000 481.956
24.40000 490.305
24.44000 473.073
24.48000 490.826
24.52000 496.825
24.56000 483.692
24.60000 471.048
24.64000 476.758
24.68000 481.555
24.72000 466.134
24.76000 468.816
24.80000 476.544
24.84000 472.917
24.88000 475.141
24.92000 459.855
24.96000 480.358
25.00000 483.379
25.04000 479.625
25.08000 492.529
25.12000 456.086
25.16000 454.465
25.20000 459.866
25.24000 473.331
25.28000 444.058
25.32000 462.064
25.36000 477.805
25.40000 476.363
25.44000 466.168
25.48000 471.962
25.52000 482.245
25.56000 473.133
25.60000 459.495
25.64000 460.205
25.68000 474.365
25.72000 458.514
25.76000 463.031
25.80000 462.765
25.84000 472.751
25.88000 473.441
25.92000 464.401
25.96000 465.603
26.00000 478.777
26.04000 454.920
26.08000 439.660
26.12000 461.009
26.16000 466.369
26.20000 448.343
26.24000 459.767
26.28000 459.923
26.32000 471.392
26.36000 453.205
26.40000 458.193
26.44000 450.046
26.48000 440.614
26.52000 441.578
26.56000 457.945
26.60000 462.431
26.64000 448.660
26.68000 455.532
26.72000 453.623
26.76000 440.263
26.80000 445.158
26.84000 451.946
26.88000 442.084
26.92000 439.165
26.96000 432.751
27.00000 442.508
27.04000 443.160
27.08000 440.287
27.12000 458.138
27.16000 450.983
27.20000 454.768
27.24000 437.286
27.28000 443.009
27.32000 439.373
27.36000 429.166
27.40000 440.989
27.44000 441.748
27.48000 426.756
27.52000 430.528
27.56000 417.069
27.60000 433.067
27.64000 445.503
27.68000 439.849
27.72000 434.725
27.76000 420.419
27.80000 430.864
27.84000 428.614
27.88000 437.731
27.92000 434.974
27.96000 445.636
28.00000 448.782
28.04000 416.010
28.08000 421.730
28.12000 423.353
28.16000 422.490
28.20000 434.876
28.24000 423.964
28.28000 428.335
28.32000 447.171
28.36000 437.270
28.40000 429.859
28.44000 438.014
28.48000 436.241
28.52000 433.674
28.56000 429.568
28.60000 429.680
28.64000 425.946
28.68000 426.619
28.72000 425.871
28.76000 405.940
28.80000 418.111
28.84000 422.451
28.88000 421.044
28.92000 447.739
28.96000 431.621
29.00000 431.514
29.04000 419.908
29.08000 419.123
29.12000 392.424
29.16000 407.908
29.20000 409.591
29.24000 417.384
29.28000 414.314
29.32000 408.420
29.36000 406.245
29.40000 403.115
29.44000 408.196
29.48000 424.959
29.52000 417.417
29.56000 421.746
29.60000 420.676
29.64000 413.852
29.68000 412.096
29.72000 420.351
29.76000 438.054
29.80000 424.846
29.84000 438.160
29.88000 430.858
29.92000 426.536
29.96000 447.274
30.00000 436.332
30.04000 455.729
30.08000 459.963
30.12000 455.321
30.16000 460.424
30.20000 447.095
30.24000 423.159
30.28000 446.648
30.32000 432.217
30.36000 415.132
30.40000 434.982
30.44000 412.518
30.48000 428.088
30.52000 416.030
30.56000 436.862
30.60000 434.884
30.64000 429.754
30.68000 450.402
30.72000 444.887
30.76000 464.401
30.80000 456.351
30.84000 477.472
30.88000 496.569
30.92000 518.934
30.96000 551.020
31.00000 586.637
31.04000 675.180
31.08000 794.539
31.12000 1028.491
31.16000 1335.346
31.20000 1706.331
31.24000 2215.623
31.28000 2708.682
31.32000 3238.074
31.36000 3474.431
31.40000 3641.535
31.44000 3507.058
31.48000 3065.383
31.52000 2575.042
31.56000 2098.910
31.60000 1620.136
31.64000 1237.486
31.68000 948.637
31.72000 786.709
31.76000 672.528
31.80000 596.645
31.84000 545.285
31.88000 493.092
31.92000 480.012
31.96000 471.987
32.00000 442.204
32.04000 450.500
32.08000 459.537
32.12000 416.604
32.16000 423.179
32.20000 417.103
32.24000 400.930
32.28000 396.920
32.32000 401.994
32.36000 402.171
32.40000 390.692
32.44000 396.453
32.48000 386.019
32.52000 390.140
32.56000 385.570
32.60000 387.629
32.64000 375.336
32.68000 383.799
32.72000 382.560
32.76000 381.766
32.80000 401.864
32.84000 447.668
32.88000 508.675
32.92000 514.321
32.96000 511.014
33.00000 529.779
33.04000 514.292
33.08000 466.692
33.12000 399.416
33.16000 390.376
33.20000 371.715
33.24000 341.497
33.28000 368.508
33.32000 350.195
33.36000 349.410
33.40000 345.308
33.44000 347.556
33.48000 340.689
33.52000 343.036
33.56000 338.962
33.60000 359.650
33.64000 344.785
33.68000 351.351
33.72000 339.767
33.76000 350.470
33.80000 340.000
33.84000 338.078
33.88000 329.009
33.92000 339.184
33.96000 336.834
34.00000 320.106
34.04000 343.392
34.08000 327.078
34.12000 324.549
34.16000 344.146
34.20000 332.708
34.24000 345.267
34.28000 330.357
34.32000 335.646
34.36000 306.296
34.40000 323.538
34.44000 318.246
34.48000 337.143
34.52000 333.547
34.56000 328.870
34.60000 332.020
34.64000 321.478
34.68000 333.883
34.72000 334.168
34.76000 323.340
34.80000 335.357
34.84000 322.204
34.88000 314.668
34.92000 314.210
34.96000 314.107
35.00000 331.264
35.04000 323.982
35.08000 310.204
35.12000 310.885
35.16000 317.550
35.20000 321.583
35.24000 313.558
35.28000 304.776
35.32000 321.306
35.36000 307.958
35.40000 296.381
35.44000 308.467
35.48000 302.934
35.52000 304.050
35.56000 326.214
35.60000 308.569
35.64000 312.283
35.68000 323.846
35.72000 311.234
35.76000 315.267
35.80000 303.916
35.84000 308.520
35.88000 317.059
35.92000 309.859
35.96000 305.462
36.00000 300.890
36.04000 302.603
36.08000 299.943
36.12000 286.945
36.16000 306.665
36.20000 305.517
36.24000 296.543
36.28000 307.055
36.32000 317.836
36.36000 301.198
36.40000 292.507
36.44000 294.644
36.48000 297.092
36.52000 292.944
36.56000 286.660
36.60000 287.685
36.64000 289.459
36.68000 302.697
36.72000 296.236
36.76000 300.492
36.80000 315.375
36.84000 296.934
36.88000 306.255
36.92000 312.561
36.96000 333.013
37.00000 312.081
37.04000 302.173
37.08000 307.445
37.12000 295.881
37.16000 310.366
37.20000 309.988
37.24000 322.901
37.28000 322.424
37.32000 291.880
37.36000 293.816
37.40000 296.930
37.44000 315.657
37.48000 286.736
37.52000 296.035
37.56000 307.895
37.60000 299.959
37.64000 297.917
37.68000 301.901
37.72000 308.023
37.76000 307.938
37.80000 297.448
37.84000 307.997
37.88000 302.958
37.92000 302.322
37.96000 290.585
38.00000 302.325
38.04000 307.446
38.08000 314.716
38.12000 310.728
38.16000 330.499
38.20000 323.285
38.24000 325.783
38.28000 351.603
38.32000 347.781
38.36000 388.485
38.40000 434.388
38.44000 501.771
38.48000 577.828
38.52000 739.287
38.56000 930.593
38.60000 1103.180
38.64000 1272.879
38.68000 1377.885
38.72000 1406.373
38.76000 1369.490
38.80000 1234.176
38.84000 1047.204
38.88000 864.779
38.92000 681.811
38.96000 544.718
39.00000 469.622
39.04000 369.052
39.08000 348.579
39.12000 316.846
39.16000 319.526
39.20000 324.310
39.24000 294.502
39.28000 302.028
39.32000 294.686
39.36000 277.275
39.40000 282.817
39.44000 284.911
39.48000 273.597
39.52000 275.955
39.56000 275.678
39.60000 270.776
39.64000 277.539
39.68000 278.425
39.72000 262.253
39.76000 267.751
39.80000 263.832
39.84000 264.950
39.88000 260.928
39.92000 275.563
39.96000 258.551
40.00000 259.762
40.04000 270.419
40.08000 270.830
40.12000 253.076
40.16000 254.570
40.20000 253.442
40.24000 242.845
40.28000 264.413
40.32000 262.152
40.36000 248.123
40.40000 249.879
40.44000 247.853
40.48000 253.640
40.52000 253.273
40.56000 252.226
40.60000 253.484
40.64000 244.092
40.68000 250.481
40.72000 250.960
40.76000 259.008
40.80000 256.184
40.84000 241.305
40.88000 242.199
40.92000 246.171
40.96000 248.916
41.00000 248.970
41.04000 257.757
41.08000 249.138
41.12000 246.803
41.16000 247.851
41.20000 244.227
41.24000 258.300
41.28000 239.305
41.32000 241.587
41.36000 238.767
41.40000 249.975
41.44000 248.887
41.48000 231.982
41.52000 240.144
41.56000 234.805
41.60000 238.000
41.64000 256.485
41.68000 246.790
41.72000 249.110
41.76000 239.965
41.80000 250.529
41.84000 225.267
41.88000 241.616
41.92000 249.318
41.96000 238.994
42.00000 233.537
42.04000 236.950
42.08000 230.734
42.12000 232.063
42.16000 224.991
42.20000 235.706
42.24000 233.218
42.28000 243.017
42.32000 234.191
42.36000 231.038
42.40000 241.903
42.44000 239.785
42.48000 231.198
42.52000 226.987
42.56000 242.247
42.60000 233.103
42.64000 233.097
42.68000 228.890
42.72000 230.612
42.76000 221.334
42.80000 222.057
42.84000 233.216
42.88000 229.938
42.92000 218.576
42.96000 225.406
43.00000 240.169
43.04000 230.566
43.08000 226.643
43.12000 226.816
43.16000 227.762
43.20000 229.132
43.24000 237.922
43.28000 218.653
43.32000 217.182
43.36000 222.969
43.40000 230.700
43.44000 228.681
43.48000 231.652
43.52000 236.048
43.56000 232.815
43.60000 217.888
43.64000 218.652
43.68000 203.596
43.72000 226.622
43.76000 222.872
43.80000 217.170
43.84000 208.710
43.88000 220.255
43.92000 226.455
43.96000 212.699
44.00000 218.236
44.04000 226.677
44.08000 210.806
44.12000 224.644
44.16000 237.021
44.20000 224.010
44.24000 220.819
44.28000 216.687
44.32000 221.167
44.36000 221.120
44.40000 217.421
44.44000 212.837
44.48000 214.017
44.52000 236.563
44.56000 223.043
44.60000 234.287
44.64000 240.993
44.68000 254.855
44.72000 248.423
44.76000 257.103
44.80000 274.940
44.84000 293.747
44.88000 314.782
44.92000 357.127
44.96000 371.341
45.00000 385.130
45.04000 405.950
45.08000 402.152
45.12000 413.436
45.16000 390.737
45.20000 381.437
45.24000 365.025
45.28000 328.483
45.32000 319.692
45.36000 306.015
45.40000 303.212
45.44000 296.716
45.48000 288.664
45.52000 273.097
45.56000 253.928
45.60000 252.652
45.64000 242.014
45.68000 252.628
45.72000 243.882
45.76000 246.263
45.80000 229.348
45.84000 239.321
45.88000 225.753
45.92000 218.913
45.96000 217.481
46.00000 222.650
46.04000 217.118
46.08000 208.665
46.12000 217.949
46.16000 208.233
46.20000 200.603
46.24000 209.491
46.28000 204.892
46.32000 222.279
46.36000 216.118
46.40000 199.833
46.44000 209.131
46.48000 207.630
46.52000 205.066
46.56000 208.140
46.60000 198.382
46.64000 206.944
46.68000 200.433
46.72000 199.908
46.76000 197.945
46.80000 197.888
46.84000 193.629
46.88000 198.584
46.92000 192.664
46.96000 191.008
47.00000 204.173
47.04000 184.323
47.08000 187.392
47.12000 189.197
47.16000 203.939
47.20000 191.274
47.24000 188.162
47.28000 178.907
47.32000 183.974
47.36000 192.677
47.40000 192.845
47.44000 191.065
47.48000 191.456
47.52000 179.885
47.56000 183.279
47.60000 185.962
47.64000 186.928
47.68000 184.626
47.72000 188.989
47.76000 179.620
47.80000 187.531
47.84000 181.669
47.88000 188.927
47.92000 191.494
47.96000 162.799
48.00000 183.717
48.04000 182.837
48.08000 172.639
48.12000 184.098
48.16000 186.898
48.20000 181.887
48.24000 196.005
48.28000 196.779
48.32000 177.275
48.36000 186.079
48.40000 189.767
48.44000 178.801
48.48000 185.119
48.52000 184.032
48.56000 183.835
48.60000 176.594
48.64000 186.187
48.68000 180.402
48.72000 191.216
48.76000 171.992
48.80000 183.078
48.84000 181.089
48.88000 181.313
48.92000 178.085
48.96000 174.640
49.00000 182.709
49.04000 176.563
49.08000 183.498
49.12000 175.163
49.16000 192.878
49.20000 186.197
49.24000 173.692
49.28000 180.302
49.32000 180.886
49.36000 174.722
49.40000 200.048
49.44000 181.030
49.48000 162.398
49.52000 164.626
49.56000 178.048
49.60000 174.352
49.64000 171.153
49.68000 172.873
49.72000 172.717
49.76000 172.303
49.80000 173.746
49.84000 179.870
49.88000 177.571
49.92000 166.605
49.96000 171.951
50.00000 174.566
50.04000 181.942
50.08000 171.726
50.12000 181.434
50.16000 184.146
50.20000 177.663
50.24000 189.300
50.28000 182.666
50.32000 195.705
50.36000 187.091
50.40000 196.367
50.44000 200.218
50.48000 216.866
50.52000 250.952
50.56000 246.778
50.60000 268.743
50.64000 268.323
50.68000 285.583
50.72000 276.336
50.76000 269.268
50.80000 263.605
50.84000 254.201
50.88000 237.802
50.92000 206.113
50.96000 221.856
51.00000 216.836
51.04000 188.969
51.08000 196.642
51.12000 192.920
51.16000 198.521
51.20000 183.531
51.24000 180.715
51.28000 179.529
51.32000 174.450
51.36000 181.680
51.40000 179.459
51.44000 168.076
51.48000 151.999
51.52000 162.468
51.56000 163.821
51.60000 164.428
51.64000 167.109
51.68000 169.060
51.72000 173.486
51.76000 163.514
51.80000 158.090
51.84000 164.841
51.88000 170.539
51.92000 160.009
51.96000 155.120
52.00000 174.060
52.04000 171.660
52.08000 163.536
52.12000 160.010
52.16000 156.805
52.20000 154.835
52.24000 165.973
52.28000 156.405
52.32000 152.412
52.36000 162.037
52.40000 163.531
52.44000 156.484
52.48000 155.711
52.52000 169.993
52.56000 170.697
52.60000 167.757
52.64000 162.352
52.68000 155.899
52.72000 162.079
52.76000 150.914
52.80000 159.797
52.84000 165.082
52.88000 169.288
52.92000 161.222
52.96000 145.095
53.00000 158.853
53.04000 158.033
53.08000 153.724
53.12000 153.517
53.16000 156.225
53.20000 167.009
53.24000 157.082
53.28000 155.048
53.32000 168.612
53.36000 161.239
53.40000 169.674
53.44000 172.610
53.48000 160.771
53.52000 170.636
53.56000 176.881
53.60000 161.734
53.64000 167.535
53.68000 159.056
53.72000 156.766
53.76000 163.259
53.80000 158.406
53.84000 153.453
53.88000 152.381
53.92000 165.807
53.96000 161.778
54.00000 163.881
54.04000 150.897
54.08000 160.978
54.12000 155.289
54.16000 162.083
54.20000 152.423
54.24000 156.880
54.28000 156.485
54.32000 147.616
54.36000 154.040
54.40000 158.827
54.44000 162.463
54.48000 160.300
54.52000 153.260
54.56000 152.534
54.60000 154.319
54.64000 155.279
54.68000 162.794
54.72000 153.286
54.76000 156.779
54.80000 151.807
54.84000 155.450
54.88000 161.408
54.92000 164.863
54.96000 162.220
55.00000 175.547
55.04000 151.083
55.08000 160.446
55.12000 164.430
55.16000 169.661
55.20000 172.730
55.24000 174.520
55.28000 174.307
55.32000 170.663
55.36000 180.933
55.40000 188.024
55.44000 188.704
55.48000 208.589
55.52000 219.263
55.56000 236.220
55.60000 269.657
55.64000 300.962
55.68000 351.628
55.72000 425.428
55.76000 510.111
55.80000 636.592
55.84000 684.215
55.88000 777.106
55.92000 816.172
55.96000 791.401
56.00000 797.435
56.04000 718.264
56.08000 636.384
56.12000 580.501
56.16000 493.124
56.20000 441.709
56.24000 353.889
56.28000 321.305
56.32000 284.959
56.36000 229.435
56.40000 220.799
56.44000 213.609
56.48000 196.249
56.52000 187.746
56.56000 184.887
56.60000 172.691
56.64000 185.135
56.68000 172.594
56.72000 162.527
56.76000 168.128
56.80000 163.009
56.84000 171.124
56.88000 145.010
56.92000 145.556
56.96000 142.325
57.00000 150.916
57.04000 163.457
57.08000 150.197
57.12000 155.146
57.16000 146.285
57.20000 153.955
57.24000 155.804
57.28000 146.796
57.32000 148.662
57.36000 145.898
57.40000 142.467
57.44000 136.141
57.48000 138.441
57.52000 145.428
57.56000 155.430
57.60000 142.649
57.64000 146.630
57.68000 146.759
57.72000 142.081
57.76000 140.424
57.80000 141.803
57.84000 143.994
57.88000 140.694
57.92000 137.754
57.96000 144.946
58.00000 147.782
58.04000 155.089
58.08000 135.065
58.12000 148.731
58.16000 149.598
58.20000 127.868
58.24000 141.864
58.28000 131.343
58.32000 135.324
58.36000 147.731
58.40000 149.797
58.44000 139.248
58.48000 147.350
58.52000 137.509
58.56000 133.557
58.60000 136.013
58.64000 144.324
58.68000 137.497
58.72000 147.647
58.76000 138.858
58.80000 135.163
58.84000 137.323
58.88000 149.060
58.92000 136.719
58.96000 132.972
59.00000 127.090
59.04000 139.910
59.08000 139.205
59.12000 142.572
59.16000 131.970
59.20000 127.199
59.24000 131.728
59.28000 136.352
59.32000 131.891
59.36000 138.580
59.40000 137.156
59.44000 142.046
59.48000 134.750
59.52000 132.020
59.56000 132.509
59.60000 132.485
59.64000 142.819
59.68000 127.677
59.72000 133.736
59.76000 135.303
59.80000 139.654
59.84000 134.479
59.88000 132.933
59.92000 137.661
59.96000 149.950
60.00000 132.502
60.04000 130.399
60.08000 132.898
60.12000 134.864
60.16000 138.914
60.20000 128.007
60.24000 134.004
60.28000 136.359
60.32000 131.486
60.36000 127.058
60.40000 137.644
60.44000 140.748
60.48000 125.517
60.52000 129.769
60.56000 126.009
60.60000 135.621
60.64000 127.971
60.68000 127.847
60.72000 135.078
60.76000 123.839
60.80000 126.713
60.84000 136.208
60.88000 143.829
60.92000 130.606
60.96000 139.988
61.00000 134.226
61.04000 136.133
61.08000 135.880
61.12000 130.718
61.16000 134.448
61.20000 133.622
61.24000 133.090
61.28000 136.429
61.32000 130.467
61.36000 133.658
61.40000 133.511
61.44000 136.162
61.48000 155.170
61.52000 165.400
61.56000 204.091
61.60000 259.152
61.64000 283.794
61.68000 288.254
61.72000 297.834
61.76000 296.322
61.80000 240.053
61.84000 191.836
61.88000 160.148
61.92000 148.812
61.96000 144.512
62.00000 144.153
62.04000 146.595
62.08000 139.108
62.12000 138.573
62.16000 137.890
62.20000 137.800
62.24000 141.009
62.28000 139.937
62.32000 140.614
62.36000 139.016
62.40000 138.391
62.44000 141.075
62.48000 146.188
62.52000 129.017
62.56000 146.381
62.60000 141.556
62.64000 141.001
62.68000 145.364
62.72000 135.953
62.76000 145.113
62.80000 131.378
62.84000 134.489
62.88000 149.638
62.92000 141.791
62.96000 133.454
63.00000 148.197
63.04000 142.180
63.08000 145.861
63.12000 146.596
63.16000 147.267
63.20000 152.755
63.24000 146.031
63.28000 145.040
63.32000 143.126
63.36000 138.734
63.40000 151.589
63.44000 151.416
63.48000 142.376
63.52000 151.822
63.56000 157.378
63.60000 156.197
63.64000 148.129
63.68000 142.022
63.72000 145.515
63.76000 136.917
63.80000 145.469
63.84000 154.878
63.88000 138.619
63.92000 154.401
63.96000 153.443
64.00000 152.197
64.04000 151.009
64.08000 153.099
64.12000 155.101
64.16000 158.389
64.20000 148.394
64.24000 141.798
64.28000 168.479
64.32000 161.573
64.36000 154.863
64.40000 165.821
64.44000 163.279
64.48000 167.290
64.52000 162.485
64.56000 161.317
64.60000 177.238
64.64000 171.916
64.68000 174.487
64.72000 169.683
64.76000 173.725
64.80000 180.175
64.84000 181.524
64.88000 182.153
64.92000 187.558
64.96000 192.534
65.00000 184.712
65.04000 204.141
65.08000 198.630
65.12000 210.450
65.16000 238.812
65.20000 238.870
65.24000 262.361
65.28000 276.231
65.32000 301.329
65.36000 330.621
65.40000 350.241
65.44000 355.340
65.48000 410.053
65.52000 427.271
65.56000 424.551
65.60000 442.205
65.64000 485.489
65.68000 558.494
65.72000 701.533
65.76000 949.377
65.80000 1183.113
65.84000 1315.152
65.88000 1332.799
65.92000 1250.269
65.96000 1020.574
66.00000 753.567
66.04000 515.304
66.08000 401.077
66.12000 330.402
66.16000 335.199
66.20000 336.476
66.24000 351.477
66.28000 379.438
66.32000 418.879
66.36000 451.561
66.40000 489.516
66.44000 487.901
66.48000 480.613
66.52000 445.608
66.56000 398.259
66.60000 348.044
66.64000 330.958
66.68000 323.589
66.72000 338.377
66.76000 326.475
66.80000 339.418
66.84000 344.764
66.88000 337.965
66.92000 347.361
66.96000 370.751
67.00000 348.406
67.04000 362.802
67.08000 370.524
67.12000 364.358
67.16000 372.103
67.20000 367.767
67.24000 378.290
67.28000 389.509
67.32000 390.880
67.36000 422.129
67.40000 406.714
67.44000 428.304
67.48000 425.924
67.52000 415.515
67.56000 438.490
67.60000 435.626
67.64000 465.153
67.68000 459.415
67.72000 460.170
67.76000 487.793
67.80000 500.238
67.84000 474.081
67.88000 507.455
67.92000 515.388
67.96000 537.073
68.00000 554.712
68.04000 555.131
68.08000 560.747
68.12000 566.633
68.16000 581.324
68.20000 592.074
68.24000 625.568
68.28000 634.507
68.32000 651.547
68.36000 688.800
68.40000 695.016
68.44000 737.309
68.48000 739.277
68.52000 847.966
68.56000 893.619
68.60000 995.504
68.64000 1144.490
68.68000 1370.279
68.72000 1612.217
68.76000 1874.602
68.80000 2163.828
68.84000 2580.025
68.88000 3409.567
68.92000 5325.388
68.96000 14085.203
69.00000 31239.193
69.04000 50313.426
69.08000 60309.691
69.12000 63065.621
69.16000 65309.148
69.20000 65149.367
69.24000 55506.145
69.28000 42205.379
69.32000 34382.504
69.36000 30707.770
69.40000 25460.232
69.44000 16545.855
69.48000 7527.167
69.52000 3408.708
69.56000 2012.951
69.60000 1544.933
69.64000 1269.439
69.68000 1119.657
69.72000 1032.543
69.76000 917.900
69.80000 841.928
69.84000 817.484
69.88000 777.145
69.92000 721.996
69.96000 691.427
70.00000 685.683