File: XRD/24-09-2025 Dep 3/XY Data/BTO_Mapping_Theta2Theta_24-09-2025_001_22_-5-000_8-660.xy
20.00000 543.762
20.04000 567.338
20.08000 553.345
20.12000 546.430
20.16000 574.399
20.20000 574.193
20.24000 545.604
20.28000 560.895
20.32000 551.273
20.36000 550.276
20.40000 571.710
20.44000 571.896
20.48000 548.908
20.52000 547.724
20.56000 573.854
20.60000 554.395
20.64000 560.939
20.68000 558.232
20.72000 550.108
20.76000 560.352
20.80000 544.460
20.84000 552.085
20.88000 549.778
20.92000 526.288
20.96000 541.780
21.00000 537.147
21.04000 548.400
21.08000 536.556
21.12000 551.243
21.16000 553.396
21.20000 548.148
21.24000 567.873
21.28000 535.547
21.32000 543.037
21.36000 546.477
21.40000 553.667
21.44000 547.870
21.48000 532.041
21.52000 548.088
21.56000 546.244
21.60000 560.698
21.64000 555.041
21.68000 555.112
21.72000 568.700
21.76000 564.035
21.80000 588.018
21.84000 600.322
21.88000 627.811
21.92000 665.821
21.96000 680.182
22.00000 713.481
22.04000 719.073
22.08000 766.590
22.12000 728.519
22.16000 695.689
22.20000 688.257
22.24000 658.619
22.28000 616.759
22.32000 623.505
22.36000 601.943
22.40000 586.393
22.44000 570.523
22.48000 570.391
22.52000 553.248
22.56000 542.687
22.60000 553.074
22.64000 539.955
22.68000 518.448
22.72000 492.955
22.76000 502.568
22.80000 516.163
22.84000 521.969
22.88000 506.270
22.92000 527.566
22.96000 515.449
23.00000 509.497
23.04000 490.762
23.08000 498.261
23.12000 509.377
23.16000 504.887
23.20000 507.567
23.24000 513.787
23.28000 498.592
23.32000 507.101
23.36000 508.040
23.40000 517.320
23.44000 517.093
23.48000 502.423
23.52000 492.204
23.56000 484.268
23.60000 490.097
23.64000 509.071
23.68000 496.242
23.72000 493.236
23.76000 502.541
23.80000 489.828
23.84000 488.893
23.88000 490.599
23.92000 494.297
23.96000 506.275
24.00000 490.241
24.04000 493.561
24.08000 478.765
24.12000 498.393
24.16000 481.282
24.20000 474.731
24.24000 489.049
24.28000 477.509
24.32000 493.448
24.36000 498.313
24.40000 487.789
24.44000 471.864
24.48000 477.184
24.52000 473.286
24.56000 483.224
24.60000 486.253
24.64000 498.113
24.68000 479.100
24.72000 462.452
24.76000 485.294
24.80000 487.341
24.84000 491.706
24.88000 475.774
24.92000 493.473
24.96000 479.666
25.00000 472.243
25.04000 470.938
25.08000 461.621
25.12000 458.648
25.16000 471.930
25.20000 457.553
25.24000 462.575
25.28000 465.226
25.32000 463.018
25.36000 464.889
25.40000 483.963
25.44000 489.146
25.48000 476.959
25.52000 476.470
25.56000 468.325
25.60000 470.501
25.64000 470.148
25.68000 482.374
25.72000 461.821
25.76000 471.612
25.80000 457.559
25.84000 452.215
25.88000 454.818
25.92000 465.350
25.96000 477.677
26.00000 467.646
26.04000 451.620
26.08000 449.984
26.12000 451.882
26.16000 440.050
26.20000 456.591
26.24000 468.241
26.28000 468.924
26.32000 456.708
26.36000 461.934
26.40000 468.789
26.44000 447.070
26.48000 448.620
26.52000 445.557
26.56000 461.650
26.60000 460.323
26.64000 455.632
26.68000 451.289
26.72000 464.494
26.76000 442.363
26.80000 434.000
26.84000 449.894
26.88000 452.702
26.92000 451.563
26.96000 444.974
27.00000 446.600
27.04000 451.831
27.08000 446.464
27.12000 435.539
27.16000 440.695
27.20000 447.606
27.24000 433.471
27.28000 440.753
27.32000 425.371
27.36000 433.115
27.40000 456.515
27.44000 402.970
27.48000 443.623
27.52000 437.579
27.56000 429.268
27.60000 444.583
27.64000 435.331
27.68000 444.105
27.72000 438.063
27.76000 433.715
27.80000 434.657
27.84000 426.644
27.88000 424.620
27.92000 422.724
27.96000 450.030
28.00000 421.838
28.04000 442.958
28.08000 429.967
28.12000 444.677
28.16000 457.785
28.20000 426.707
28.24000 422.580
28.28000 434.504
28.32000 435.723
28.36000 431.535
28.40000 429.238
28.44000 442.971
28.48000 428.188
28.52000 431.045
28.56000 428.927
28.60000 431.739
28.64000 428.037
28.68000 424.053
28.72000 441.361
28.76000 416.509
28.80000 408.026
28.84000 404.713
28.88000 417.449
28.92000 424.151
28.96000 426.232
29.00000 408.812
29.04000 419.207
29.08000 424.639
29.12000 425.386
29.16000 418.153
29.20000 424.949
29.24000 429.464
29.28000 415.746
29.32000 410.988
29.36000 416.043
29.40000 407.032
29.44000 419.538
29.48000 424.124
29.52000 411.852
29.56000 432.445
29.60000 426.935
29.64000 421.225
29.68000 405.626
29.72000 414.220
29.76000 403.568
29.80000 423.281
29.84000 432.381
29.88000 437.813
29.92000 440.459
29.96000 442.153
30.00000 447.494
30.04000 464.554
30.08000 480.958
30.12000 457.807
30.16000 433.300
30.20000 442.457
30.24000 444.275
30.28000 450.831
30.32000 438.207
30.36000 439.970
30.40000 423.860
30.44000 425.104
30.48000 437.033
30.52000 429.125
30.56000 428.794
30.60000 431.078
30.64000 458.342
30.68000 434.823
30.72000 428.304
30.76000 451.397
30.80000 441.025
30.84000 484.237
30.88000 490.049
30.92000 517.020
30.96000 548.978
31.00000 602.011
31.04000 670.040
31.08000 805.854
31.12000 998.441
31.16000 1295.486
31.20000 1697.400
31.24000 2153.429
31.28000 2672.590
31.32000 3130.171
31.36000 3433.597
31.40000 3492.706
31.44000 3399.844
31.48000 3031.329
31.52000 2557.432
31.56000 2054.446
31.60000 1582.704
31.64000 1195.606
31.68000 936.342
31.72000 778.120
31.76000 665.193
31.80000 608.181
31.84000 540.619
31.88000 491.947
31.92000 474.306
31.96000 460.053
32.00000 441.575
32.04000 434.845
32.08000 438.819
32.12000 411.911
32.16000 407.584
32.20000 421.821
32.24000 416.771
32.28000 400.583
32.32000 418.738
32.36000 405.712
32.40000 394.485
32.44000 400.464
32.48000 406.709
32.52000 385.847
32.56000 380.310
32.60000 382.742
32.64000 368.622
32.68000 387.291
32.72000 366.830
32.76000 393.942
32.80000 410.778
32.84000 438.311
32.88000 482.818
32.92000 506.982
32.96000 516.841
33.00000 525.166
33.04000 490.386
33.08000 423.131
33.12000 394.984
33.16000 367.464
33.20000 362.429
33.24000 340.836
33.28000 376.967
33.32000 345.447
33.36000 349.073
33.40000 343.056
33.44000 365.124
33.48000 346.389
33.52000 361.248
33.56000 352.644
33.60000 328.046
33.64000 337.601
33.68000 343.743
33.72000 335.376
33.76000 340.248
33.80000 333.503
33.84000 354.974
33.88000 343.250
33.92000 334.148
33.96000 336.097
34.00000 329.950
34.04000 338.475
34.08000 339.936
34.12000 349.816
34.16000 329.785
34.20000 335.231
34.24000 340.758
34.28000 336.423
34.32000 330.967
34.36000 316.440
34.40000 334.728
34.44000 345.461
34.48000 311.475
34.52000 317.547
34.56000 320.279
34.60000 325.553
34.64000 340.881
34.68000 325.802
34.72000 314.470
34.76000 342.873
34.80000 311.897
34.84000 317.052
34.88000 316.034
34.92000 318.510
34.96000 312.154
35.00000 331.684
35.04000 317.317
35.08000 326.712
35.12000 315.540
35.16000 320.936
35.20000 314.647
35.24000 330.774
35.28000 319.275
35.32000 315.352
35.36000 328.759
35.40000 310.063
35.44000 318.707
35.48000 323.610
35.52000 305.570
35.56000 311.096
35.60000 304.447
35.64000 308.121
35.68000 297.571
35.72000 321.134
35.76000 309.010
35.80000 318.839
35.84000 304.339
35.88000 308.494
35.92000 320.984
35.96000 307.878
36.00000 286.905
36.04000 324.939
36.08000 304.532
36.12000 294.940
36.16000 305.781
36.20000 319.476
36.24000 304.950
36.28000 314.213
36.32000 286.011
36.36000 284.613
36.40000 315.078
36.44000 291.850
36.48000 293.368
36.52000 302.036
36.56000 305.564
36.60000 295.061
36.64000 293.736
36.68000 302.744
36.72000 309.588
36.76000 301.522
36.80000 309.431
36.84000 298.536
36.88000 311.842
36.92000 319.621
36.96000 323.808
37.00000 310.375
37.04000 311.187
37.08000 316.845
37.12000 310.978
37.16000 309.708
37.20000 304.984
37.24000 316.297
37.28000 312.590
37.32000 290.943
37.36000 306.363
37.40000 299.624
37.44000 288.953
37.48000 294.908
37.52000 314.301
37.56000 282.481
37.60000 300.561
37.64000 305.571
37.68000 304.763
37.72000 294.204
37.76000 288.641
37.80000 298.406
37.84000 312.690
37.88000 293.519
37.92000 302.410
37.96000 316.717
38.00000 301.841
38.04000 305.356
38.08000 310.250
38.12000 319.233
38.16000 307.558
38.20000 329.945
38.24000 327.960
38.28000 337.691
38.32000 366.731
38.36000 382.737
38.40000 432.936
38.44000 504.502
38.48000 566.783
38.52000 732.437
38.56000 939.423
38.60000 1083.490
38.64000 1313.076
38.68000 1451.329
38.72000 1472.110
38.76000 1432.755
38.80000 1314.187
38.84000 1128.415
38.88000 905.802
38.92000 699.024
38.96000 573.948
39.00000 487.810
39.04000 397.487
39.08000 359.304
39.12000 309.923
39.16000 302.231
39.20000 298.638
39.24000 308.390
39.28000 278.624
39.32000 292.564
39.36000 287.871
39.40000 278.836
39.44000 294.923
39.48000 282.442
39.52000 286.545
39.56000 274.865
39.60000 264.476
39.64000 279.539
39.68000 275.210
39.72000 267.877
39.76000 274.041
39.80000 267.709
39.84000 274.657
39.88000 265.535
39.92000 258.212
39.96000 266.441
40.00000 264.613
40.04000 255.870
40.08000 257.743
40.12000 267.215
40.16000 256.247
40.20000 255.435
40.24000 267.244
40.28000 261.410
40.32000 264.270
40.36000 266.292
40.40000 251.658
40.44000 267.905
40.48000 258.410
40.52000 248.077
40.56000 254.902
40.60000 258.209
40.64000 265.752
40.68000 256.265
40.72000 248.709
40.76000 252.645
40.80000 252.599
40.84000 245.145
40.88000 242.713
40.92000 247.138
40.96000 246.965
41.00000 240.176
41.04000 251.614
41.08000 247.121
41.12000 248.154
41.16000 246.583
41.20000 242.807
41.24000 232.351
41.28000 244.383
41.32000 242.254
41.36000 249.477
41.40000 241.384
41.44000 248.713
41.48000 242.145
41.52000 258.488
41.56000 253.184
41.60000 230.353
41.64000 248.383
41.68000 248.066
41.72000 228.144
41.76000 239.715
41.80000 236.655
41.84000 243.726
41.88000 234.632
41.92000 244.735
41.96000 236.996
42.00000 222.743
42.04000 245.455
42.08000 240.062
42.12000 251.038
42.16000 249.972
42.20000 220.649
42.24000 227.715
42.28000 231.356
42.32000 231.260
42.36000 243.586
42.40000 244.597
42.44000 229.252
42.48000 241.311
42.52000 259.807
42.56000 226.767
42.60000 238.955
42.64000 238.392
42.68000 229.880
42.72000 240.039
42.76000 225.992
42.80000 233.880
42.84000 230.196
42.88000 226.128
42.92000 235.532
42.96000 234.932
43.00000 232.254
43.04000 227.270
43.08000 235.354
43.12000 230.439
43.16000 223.771
43.20000 228.180
43.24000 228.204
43.28000 230.012
43.32000 237.823
43.36000 220.855
43.40000 218.336
43.44000 233.681
43.48000 224.618
43.52000 217.130
43.56000 230.264
43.60000 227.582
43.64000 215.254
43.68000 222.113
43.72000 215.373
43.76000 218.891
43.80000 228.785
43.84000 220.233
43.88000 215.646
43.92000 228.654
43.96000 211.942
44.00000 216.765
44.04000 208.004
44.08000 213.084
44.12000 214.148
44.16000 214.561
44.20000 216.005
44.24000 223.075
44.28000 230.663
44.32000 218.689
44.36000 236.039
44.40000 226.931
44.44000 227.104
44.48000 213.071
44.52000 217.124
44.56000 227.335
44.60000 229.193
44.64000 219.430
44.68000 248.929
44.72000 248.685
44.76000 256.676
44.80000 271.050
44.84000 290.092
44.88000 299.772
44.92000 322.337
44.96000 352.609
45.00000 362.030
45.04000 366.845
45.08000 349.038
45.12000 361.423
45.16000 347.512
45.20000 329.862
45.24000 327.320
45.28000 316.882
45.32000 300.148
45.36000 296.755
45.40000 292.088
45.44000 289.506
45.48000 248.234
45.52000 269.235
45.56000 265.599
45.60000 247.692
45.64000 238.996
45.68000 250.913
45.72000 227.051
45.76000 251.206
45.80000 247.990
45.84000 230.835
45.88000 243.779
45.92000 234.705
45.96000 227.697
46.00000 214.246
46.04000 218.071
46.08000 216.848
46.12000 210.098
46.16000 213.837
46.20000 221.887
46.24000 198.334
46.28000 204.158
46.32000 211.185
46.36000 211.741
46.40000 204.767
46.44000 201.396
46.48000 205.617
46.52000 196.025
46.56000 197.277
46.60000 197.613
46.64000 202.615
46.68000 204.010
46.72000 199.727
46.76000 197.957
46.80000 209.124
46.84000 213.017
46.88000 194.601
46.92000 197.095
46.96000 193.821
47.00000 193.534
47.04000 192.451
47.08000 200.323
47.12000 203.806
47.16000 181.194
47.20000 193.213
47.24000 194.504
47.28000 195.801
47.32000 191.110
47.36000 188.746
47.40000 181.128
47.44000 182.449
47.48000 199.304
47.52000 189.723
47.56000 188.322
47.60000 181.875
47.64000 184.461
47.68000 193.947
47.72000 181.319
47.76000 187.737
47.80000 189.158
47.84000 189.823
47.88000 201.273
47.92000 178.737
47.96000 184.629
48.00000 187.100
48.04000 190.028
48.08000 178.758
48.12000 182.699
48.16000 177.464
48.20000 177.978
48.24000 181.435
48.28000 183.429
48.32000 186.017
48.36000 183.114
48.40000 191.630
48.44000 178.995
48.48000 182.202
48.52000 189.981
48.56000 192.406
48.60000 186.828
48.64000 179.163
48.68000 172.497
48.72000 184.756
48.76000 185.218
48.80000 183.745
48.84000 177.743
48.88000 172.389
48.92000 192.638
48.96000 175.035
49.00000 178.549
49.04000 178.392
49.08000 165.334
49.12000 184.331
49.16000 167.769
49.20000 176.870
49.24000 176.414
49.28000 184.444
49.32000 175.344
49.36000 177.325
49.40000 169.488
49.44000 172.535
49.48000 173.953
49.52000 176.558
49.56000 167.550
49.60000 178.411
49.64000 183.704
49.68000 178.503
49.72000 168.818
49.76000 181.660
49.80000 187.415
49.84000 178.569
49.88000 180.824
49.92000 185.032
49.96000 169.671
50.00000 183.341
50.04000 173.894
50.08000 178.564
50.12000 175.021
50.16000 170.325
50.20000 180.541
50.24000 193.251
50.28000 185.491
50.32000 183.384
50.36000 173.103
50.40000 198.842
50.44000 212.160
50.48000 226.763
50.52000 233.805
50.56000 240.415
50.60000 259.110
50.64000 264.956
50.68000 265.462
50.72000 256.152
50.76000 271.240
50.80000 246.506
50.84000 247.383
50.88000 232.226
50.92000 228.481
50.96000 221.218
51.00000 209.943
51.04000 192.490
51.08000 188.033
51.12000 202.036
51.16000 192.475
51.20000 177.082
51.24000 183.603
51.28000 181.530
51.32000 188.582
51.36000 171.145
51.40000 175.960
51.44000 172.534
51.48000 158.574
51.52000 168.030
51.56000 158.975
51.60000 182.252
51.64000 169.768
51.68000 169.747
51.72000 166.746
51.76000 174.042
51.80000 167.361
51.84000 171.143
51.88000 176.570
51.92000 165.601
51.96000 165.064
52.00000 161.512
52.04000 171.736
52.08000 161.110
52.12000 150.959
52.16000 158.488
52.20000 167.830
52.24000 158.144
52.28000 159.548
52.32000 167.895
52.36000 157.657
52.40000 173.851
52.44000 161.195
52.48000 167.235
52.52000 159.165
52.56000 156.580
52.60000 158.016
52.64000 162.258
52.68000 163.655
52.72000 164.086
52.76000 155.634
52.80000 162.190
52.84000 159.461
52.88000 167.213
52.92000 160.367
52.96000 162.733
53.00000 164.214
53.04000 154.778
53.08000 161.445
53.12000 164.749
53.16000 165.510
53.20000 162.679
53.24000 164.723
53.28000 175.166
53.32000 166.392
53.36000 171.871
53.40000 162.063
53.44000 186.508
53.48000 168.169
53.52000 165.671
53.56000 163.468
53.60000 152.408
53.64000 165.954
53.68000 157.344
53.72000 158.629
53.76000 146.937
53.80000 166.760
53.84000 162.062
53.88000 158.802
53.92000 159.826
53.96000 162.065
54.00000 162.145
54.04000 151.375
54.08000 157.196
54.12000 155.088
54.16000 152.825
54.20000 150.443
54.24000 158.737
54.28000 155.041
54.32000 154.585
54.36000 153.179
54.40000 151.080
54.44000 167.436
54.48000 159.216
54.52000 152.113
54.56000 168.719
54.60000 150.607
54.64000 169.314
54.68000 158.957
54.72000 163.846
54.76000 149.692
54.80000 164.424
54.84000 157.609
54.88000 164.538
54.92000 159.363
54.96000 160.401
55.00000 168.217
55.04000 164.869
55.08000 171.788
55.12000 166.479
55.16000 166.083
55.20000 173.502
55.24000 173.278
55.28000 178.851
55.32000 180.151
55.36000 180.079
55.40000 183.588
55.44000 199.229
55.48000 208.174
55.52000 207.613
55.56000 231.120
55.60000 278.473
55.64000 311.031
55.68000 375.277
55.72000 438.449
55.76000 524.362
55.80000 589.242
55.84000 703.241
55.88000 764.890
55.92000 816.512
55.96000 815.095
56.00000 767.918
56.04000 760.398
56.08000 654.534
56.12000 590.469
56.16000 512.935
56.20000 416.641
56.24000 374.766
56.28000 306.532
56.32000 270.104
56.36000 246.096
56.40000 226.790
56.44000 209.926
56.48000 192.245
56.52000 190.331
56.56000 192.338
56.60000 176.986
56.64000 176.408
56.68000 165.154
56.72000 161.752
56.76000 164.391
56.80000 162.093
56.84000 158.946
56.88000 151.482
56.92000 161.558
56.96000 153.273
57.00000 156.818
57.04000 152.797
57.08000 155.449
57.12000 153.363
57.16000 144.263
57.20000 151.766
57.24000 146.833
57.28000 145.994
57.32000 149.964
57.36000 147.313
57.40000 146.100
57.44000 145.499
57.48000 155.751
57.52000 152.480
57.56000 148.648
57.60000 143.784
57.64000 143.170
57.68000 148.647
57.72000 143.830
57.76000 149.660
57.80000 135.856
57.84000 145.798
57.88000 143.256
57.92000 151.183
57.96000 147.492
58.00000 141.310
58.04000 133.833
58.08000 133.293
58.12000 136.678
58.16000 135.988
58.20000 148.046
58.24000 136.170
58.28000 145.349
58.32000 136.149
58.36000 143.536
58.40000 132.456
58.44000 135.613
58.48000 133.412
58.52000 134.797
58.56000 139.689
58.60000 123.511
58.64000 141.161
58.68000 134.031
58.72000 135.534
58.76000 130.129
58.80000 133.238
58.84000 134.753
58.88000 132.698
58.92000 121.155
58.96000 139.181
59.00000 132.809
59.04000 134.539
59.08000 135.093
59.12000 126.387
59.16000 132.149
59.20000 132.231
59.24000 130.034
59.28000 122.799
59.32000 130.771
59.36000 131.065
59.40000 132.161
59.44000 135.207
59.48000 134.737
59.52000 127.633
59.56000 126.300
59.60000 130.919
59.64000 136.901
59.68000 137.799
59.72000 136.728
59.76000 135.787
59.80000 134.176
59.84000 127.146
59.88000 132.518
59.92000 128.659
59.96000 129.056
60.00000 133.761
60.04000 129.407
60.08000 129.188
60.12000 136.385
60.16000 134.471
60.20000 128.763
60.24000 130.745
60.28000 128.738
60.32000 134.199
60.36000 133.194
60.40000 138.786
60.44000 147.220
60.48000 121.059
60.52000 130.240
60.56000 124.072
60.60000 126.246
60.64000 121.840
60.68000 128.761
60.72000 130.706
60.76000 134.621
60.80000 127.355
60.84000 143.085
60.88000 133.375
60.92000 137.838
60.96000 141.856
61.00000 133.220
61.04000 131.775
61.08000 132.698
61.12000 133.915
61.16000 144.441
61.20000 131.832
61.24000 143.079
61.28000 138.330
61.32000 138.039
61.36000 138.508
61.40000 132.494
61.44000 147.905
61.48000 141.155
61.52000 163.265
61.56000 206.945
61.60000 235.299
61.64000 276.505
61.68000 281.050
61.72000 287.884
61.76000 278.108
61.80000 229.345
61.84000 184.150
61.88000 151.514
61.92000 141.452
61.96000 145.221
62.00000 145.677
62.04000 141.294
62.08000 140.020
62.12000 143.662
62.16000 143.899
62.20000 133.358
62.24000 140.859
62.28000 142.592
62.32000 154.964
62.36000 145.222
62.40000 132.870
62.44000 138.613
62.48000 129.504
62.52000 138.943
62.56000 140.997
62.60000 147.490
62.64000 141.566
62.68000 142.913
62.72000 145.231
62.76000 145.997
62.80000 131.824
62.84000 137.491
62.88000 140.434
62.92000 147.700
62.96000 134.740
63.00000 144.893
63.04000 140.318
63.08000 138.318
63.12000 151.812
63.16000 144.905
63.20000 150.730
63.24000 163.369
63.28000 144.191
63.32000 146.732
63.36000 141.941
63.40000 152.639
63.44000 147.338
63.48000 141.000
63.52000 138.487
63.56000 132.333
63.60000 144.150
63.64000 140.990
63.68000 147.251
63.72000 156.941
63.76000 138.422
63.80000 154.747
63.84000 148.715
63.88000 147.686
63.92000 158.528
63.96000 149.472
64.00000 161.602
64.04000 151.836
64.08000 153.656
64.12000 151.487
64.16000 153.385
64.20000 152.049
64.24000 163.760
64.28000 150.445
64.32000 159.343
64.36000 166.754
64.40000 157.864
64.44000 160.019
64.48000 160.832
64.52000 155.067
64.56000 171.154
64.60000 166.025
64.64000 169.387
64.68000 164.669
64.72000 176.411
64.76000 189.470
64.80000 166.745
64.84000 169.616
64.88000 182.575
64.92000 174.274
64.96000 186.145
65.00000 186.326
65.04000 197.129
65.08000 211.781
65.12000 212.205
65.16000 239.729
65.20000 244.864
65.24000 253.636
65.28000 272.714
65.32000 274.774
65.36000 313.129
65.40000 329.071
65.44000 374.647
65.48000 374.848
65.52000 414.487
65.56000 413.460
65.60000 420.027
65.64000 478.639
65.68000 533.962
65.72000 707.323
65.76000 927.677
65.80000 1140.110
65.84000 1203.804
65.88000 1243.172
65.92000 1154.325
65.96000 988.742
66.00000 739.657
66.04000 508.903
66.08000 384.195
66.12000 336.284
66.16000 315.922
66.20000 302.003
66.24000 345.090
66.28000 360.370
66.32000 402.376
66.36000 427.099
66.40000 453.150
66.44000 469.024
66.48000 461.996
66.52000 406.090
66.56000 378.402
66.60000 334.710
66.64000 319.585
66.68000 316.407
66.72000 309.194
66.76000 312.095
66.80000 322.622
66.84000 339.796
66.88000 319.788
66.92000 333.002
66.96000 341.107
67.00000 340.255
67.04000 360.886
67.08000 365.556
67.12000 353.441
67.16000 358.914
67.20000 370.293
67.24000 369.247
67.28000 376.984
67.32000 386.691
67.36000 379.378
67.40000 404.945
67.44000 391.504
67.48000 440.738
67.52000 414.301
67.56000 431.492
67.60000 430.792
67.64000 434.650
67.68000 441.956
67.72000 442.892
67.76000 439.641
67.80000 481.569
67.84000 482.348
67.88000 500.606
67.92000 494.808
67.96000 506.711
68.00000 516.903
68.04000 527.081
68.08000 556.532
68.12000 551.589
68.16000 539.934
68.20000 562.405
68.24000 583.983
68.28000 618.173
68.32000 618.522
68.36000 648.927
68.40000 680.248
68.44000 694.831
68.48000 740.690
68.52000 772.602
68.56000 858.758
68.60000 944.457
68.64000 1130.344
68.68000 1344.097
68.72000 1543.313
68.76000 1767.887
68.80000 2061.438
68.84000 2400.387
68.88000 3180.185
68.92000 4929.567
68.96000 13527.475
69.00000 30093.975
69.04000 47886.492
69.08000 56440.680
69.12000 58848.566
69.16000 61254.000
69.20000 61146.188
69.24000 51375.398
69.28000 38832.723
69.32000 31898.273
69.36000 28665.211
69.40000 23623.594
69.44000 14988.406
69.48000 6699.125
69.52000 3073.975
69.56000 1875.509
69.60000 1474.524
69.64000 1219.701
69.68000 1083.591
69.72000 979.114
69.76000 884.317
69.80000 844.090
69.84000 764.398
69.88000 761.734
69.92000 711.542
69.96000 696.276
70.00000 648.370