File: XRD/24-09-2025 Dep 3/XY Data/BTO_Mapping_Theta2Theta_24-09-2025_001_41_-32-361_-23-511.xy
20.00000 552.625
20.04000 565.163
20.08000 562.735
20.12000 557.540
20.16000 549.660
20.20000 553.769
20.24000 557.556
20.28000 572.436
20.32000 556.440
20.36000 562.318
20.40000 566.877
20.44000 544.158
20.48000 555.473
20.52000 549.507
20.56000 565.127
20.60000 564.527
20.64000 554.948
20.68000 564.256
20.72000 561.905
20.76000 544.334
20.80000 547.037
20.84000 543.711
20.88000 549.978
20.92000 557.554
20.96000 558.927
21.00000 552.610
21.04000 565.659
21.08000 555.250
21.12000 561.351
21.16000 555.793
21.20000 550.128
21.24000 564.403
21.28000 543.740
21.32000 554.734
21.36000 548.325
21.40000 556.426
21.44000 555.645
21.48000 546.074
21.52000 557.723
21.56000 534.443
21.60000 554.656
21.64000 579.779
21.68000 608.169
21.72000 645.899
21.76000 673.734
21.80000 735.290
21.84000 806.942
21.88000 879.086
21.92000 952.061
21.96000 955.887
22.00000 974.873
22.04000 986.462
22.08000 894.291
22.12000 823.194
22.16000 740.385
22.20000 675.776
22.24000 624.265
22.28000 613.366
22.32000 596.547
22.36000 574.323
22.40000 549.972
22.44000 549.271
22.48000 544.986
22.52000 544.591
22.56000 532.166
22.60000 534.211
22.64000 523.049
22.68000 523.370
22.72000 529.921
22.76000 533.152
22.80000 534.339
22.84000 518.128
22.88000 520.290
22.92000 534.999
22.96000 521.928
23.00000 516.550
23.04000 503.389
23.08000 513.897
23.12000 502.673
23.16000 499.767
23.20000 505.922
23.24000 504.741
23.28000 523.059
23.32000 508.537
23.36000 521.290
23.40000 498.609
23.44000 494.681
23.48000 498.233
23.52000 505.056
23.56000 489.751
23.60000 512.308
23.64000 500.307
23.68000 515.084
23.72000 496.918
23.76000 493.677
23.80000 500.298
23.84000 503.954
23.88000 488.999
23.92000 489.721
23.96000 499.914
24.00000 501.753
24.04000 485.585
24.08000 500.296
24.12000 487.781
24.16000 496.022
24.20000 513.398
24.24000 500.729
24.28000 490.983
24.32000 499.946
24.36000 518.164
24.40000 496.610
24.44000 496.892
24.48000 506.170
24.52000 483.189
24.56000 477.231
24.60000 497.483
24.64000 497.918
24.68000 478.578
24.72000 470.628
24.76000 486.690
24.80000 481.328
24.84000 466.438
24.88000 467.709
24.92000 500.706
24.96000 489.207
25.00000 460.590
25.04000 482.694
25.08000 489.830
25.12000 479.661
25.16000 485.273
25.20000 467.688
25.24000 466.306
25.28000 478.736
25.32000 477.558
25.36000 471.039
25.40000 455.185
25.44000 463.176
25.48000 451.471
25.52000 469.205
25.56000 483.023
25.60000 467.592
25.64000 455.120
25.68000 462.719
25.72000 462.758
25.76000 453.821
25.80000 474.594
25.84000 472.867
25.88000 473.358
25.92000 465.217
25.96000 453.712
26.00000 473.355
26.04000 471.200
26.08000 456.169
26.12000 471.183
26.16000 471.401
26.20000 480.586
26.24000 458.651
26.28000 464.018
26.32000 457.539
26.36000 456.242
26.40000 465.275
26.44000 451.467
26.48000 446.687
26.52000 479.989
26.56000 461.763
26.60000 462.266
26.64000 449.780
26.68000 476.095
26.72000 464.338
26.76000 444.546
26.80000 448.895
26.84000 457.458
26.88000 445.958
26.92000 445.793
26.96000 448.087
27.00000 459.376
27.04000 439.344
27.08000 469.809
27.12000 455.497
27.16000 434.674
27.20000 469.507
27.24000 429.773
27.28000 447.579
27.32000 423.055
27.36000 435.561
27.40000 428.211
27.44000 451.927
27.48000 431.996
27.52000 429.903
27.56000 456.872
27.60000 437.633
27.64000 445.681
27.68000 430.890
27.72000 446.152
27.76000 438.840
27.80000 435.992
27.84000 444.741
27.88000 432.218
27.92000 419.684
27.96000 451.118
28.00000 445.658
28.04000 455.879
28.08000 432.391
28.12000 439.754
28.16000 438.892
28.20000 433.988
28.24000 445.516
28.28000 432.691
28.32000 443.043
28.36000 423.542
28.40000 433.733
28.44000 440.189
28.48000 436.917
28.52000 431.010
28.56000 440.939
28.60000 419.429
28.64000 438.576
28.68000 427.407
28.72000 433.132
28.76000 403.186
28.80000 436.846
28.84000 416.011
28.88000 406.546
28.92000 430.242
28.96000 428.302
29.00000 427.096
29.04000 425.908
29.08000 399.800
29.12000 428.242
29.16000 433.627
29.20000 423.364
29.24000 426.221
29.28000 413.117
29.32000 426.039
29.36000 417.990
29.40000 425.343
29.44000 420.978
29.48000 417.712
29.52000 416.430
29.56000 402.536
29.60000 404.044
29.64000 431.484
29.68000 442.379
29.72000 428.448
29.76000 447.696
29.80000 462.198
29.84000 457.885
29.88000 458.358
29.92000 454.822
29.96000 487.934
30.00000 487.601
30.04000 469.455
30.08000 451.075
30.12000 445.268
30.16000 445.046
30.20000 443.908
30.24000 450.617
30.28000 449.008
30.32000 437.852
30.36000 437.474
30.40000 438.411
30.44000 455.427
30.48000 438.687
30.52000 449.620
30.56000 464.503
30.60000 454.123
30.64000 448.304
30.68000 475.742
30.72000 474.258
30.76000 474.385
30.80000 481.342
30.84000 522.097
30.88000 561.945
30.92000 580.331
30.96000 683.911
31.00000 819.355
31.04000 1015.716
31.08000 1324.125
31.12000 1762.561
31.16000 2364.870
31.20000 3049.996
31.24000 3703.781
31.28000 4195.038
31.32000 4512.963
31.36000 4441.521
31.40000 4048.120
31.44000 3462.725
31.48000 2776.262
31.52000 2122.845
31.56000 1582.098
31.60000 1162.607
31.64000 906.592
31.68000 727.234
31.72000 646.615
31.76000 566.998
31.80000 522.331
31.84000 502.333
31.88000 457.451
31.92000 444.080
31.96000 448.184
32.00000 434.551
32.04000 423.955
32.08000 440.209
32.12000 421.912
32.16000 395.330
32.20000 409.903
32.24000 403.958
32.28000 384.225
32.32000 395.303
32.36000 374.052
32.40000 391.851
32.44000 380.419
32.48000 382.356
32.52000 381.106
32.56000 375.101
32.60000 371.243
32.64000 394.569
32.68000 381.108
32.72000 382.596
32.76000 401.116
32.80000 441.964
32.84000 552.514
32.88000 611.332
32.92000 641.607
32.96000 653.742
33.00000 633.908
33.04000 590.834
33.08000 503.681
33.12000 414.074
33.16000 398.825
33.20000 370.551
33.24000 365.363
33.28000 337.104
33.32000 365.774
33.36000 355.028
33.40000 358.117
33.44000 353.711
33.48000 367.166
33.52000 338.375
33.56000 354.011
33.60000 369.922
33.64000 365.853
33.68000 349.652
33.72000 324.535
33.76000 333.256
33.80000 342.103
33.84000 355.762
33.88000 334.417
33.92000 343.059
33.96000 355.287
34.00000 344.234
34.04000 340.289
34.08000 343.061
34.12000 337.241
34.16000 343.543
34.20000 338.643
34.24000 333.583
34.28000 337.821
34.32000 317.055
34.36000 328.788
34.40000 340.479
34.44000 344.833
34.48000 337.568
34.52000 335.122
34.56000 335.225
34.60000 321.442
34.64000 318.437
34.68000 329.440
34.72000 337.246
34.76000 327.159
34.80000 335.468
34.84000 325.297
34.88000 325.750
34.92000 315.836
34.96000 333.329
35.00000 319.721
35.04000 318.066
35.08000 328.210
35.12000 318.840
35.16000 311.060
35.20000 321.819
35.24000 317.466
35.28000 308.362
35.32000 318.442
35.36000 311.768
35.40000 316.313
35.44000 323.421
35.48000 298.385
35.52000 308.717
35.56000 316.246
35.60000 305.431
35.64000 318.884
35.68000 303.830
35.72000 305.421
35.76000 304.036
35.80000 302.983
35.84000 316.837
35.88000 311.458
35.92000 314.975
35.96000 309.468
36.00000 316.430
36.04000 302.646
36.08000 305.068
36.12000 297.380
36.16000 308.935
36.20000 303.408
36.24000 304.957
36.28000 315.211
36.32000 319.184
36.36000 297.417
36.40000 300.780
36.44000 297.873
36.48000 307.447
36.52000 302.544
36.56000 308.892
36.60000 284.243
36.64000 294.728
36.68000 312.778
36.72000 300.659
36.76000 296.889
36.80000 292.007
36.84000 308.582
36.88000 306.014
36.92000 295.936
36.96000 311.234
37.00000 305.498
37.04000 305.343
37.08000 312.673
37.12000 306.306
37.16000 294.435
37.20000 300.461
37.24000 306.138
37.28000 295.671
37.32000 289.120
37.36000 297.488
37.40000 304.168
37.44000 304.417
37.48000 303.870
37.52000 300.858
37.56000 297.145
37.60000 304.876
37.64000 305.870
37.68000 309.099
37.72000 293.127
37.76000 297.748
37.80000 283.721
37.84000 280.722
37.88000 305.935
37.92000 299.560
37.96000 311.568
38.00000 308.918
38.04000 302.763
38.08000 310.065
38.12000 310.423
38.16000 306.024
38.20000 321.265
38.24000 318.547
38.28000 357.895
38.32000 370.815
38.36000 426.463
38.40000 467.104
38.44000 524.475
38.48000 611.364
38.52000 703.856
38.56000 778.772
38.60000 833.528
38.64000 888.226
38.68000 865.786
38.72000 773.188
38.76000 722.718
38.80000 633.491
38.84000 533.727
38.88000 459.575
38.92000 398.367
38.96000 371.126
39.00000 328.187
39.04000 307.598
39.08000 305.651
39.12000 298.661
39.16000 284.675
39.20000 284.173
39.24000 290.849
39.28000 278.690
39.32000 271.632
39.36000 275.196
39.40000 260.460
39.44000 266.875
39.48000 270.058
39.52000 280.361
39.56000 264.530
39.60000 278.848
39.64000 279.730
39.68000 263.619
39.72000 267.384
39.76000 272.672
39.80000 275.227
39.84000 257.119
39.88000 264.099
39.92000 260.993
39.96000 266.049
40.00000 265.178
40.04000 267.087
40.08000 266.235
40.12000 270.360
40.16000 254.665
40.20000 255.090
40.24000 280.354
40.28000 259.841
40.32000 251.557
40.36000 253.822
40.40000 264.792
40.44000 249.119
40.48000 260.224
40.52000 252.574
40.56000 245.895
40.60000 254.254
40.64000 253.836
40.68000 243.110
40.72000 241.569
40.76000 253.825
40.80000 259.096
40.84000 259.473
40.88000 248.201
40.92000 242.424
40.96000 254.643
41.00000 248.672
41.04000 253.717
41.08000 248.966
41.12000 259.292
41.16000 250.591
41.20000 247.562
41.24000 247.704
41.28000 237.854
41.32000 241.632
41.36000 241.142
41.40000 246.464
41.44000 235.286
41.48000 255.940
41.52000 251.598
41.56000 240.321
41.60000 255.238
41.64000 246.704
41.68000 232.236
41.72000 233.566
41.76000 224.156
41.80000 241.880
41.84000 241.406
41.88000 236.616
41.92000 256.676
41.96000 247.700
42.00000 241.063
42.04000 238.379
42.08000 243.857
42.12000 225.826
42.16000 241.396
42.20000 251.319
42.24000 240.081
42.28000 232.205
42.32000 232.158
42.36000 225.723
42.40000 235.896
42.44000 235.550
42.48000 242.704
42.52000 235.233
42.56000 234.840
42.60000 246.503
42.64000 224.673
42.68000 233.723
42.72000 235.520
42.76000 228.818
42.80000 243.799
42.84000 242.543
42.88000 238.372
42.92000 254.881
42.96000 244.595
43.00000 236.789
43.04000 229.393
43.08000 239.802
43.12000 245.140
43.16000 235.028
43.20000 244.488
43.24000 225.417
43.28000 228.394
43.32000 221.114
43.36000 219.936
43.40000 221.383
43.44000 243.766
43.48000 227.886
43.52000 229.237
43.56000 236.173
43.60000 234.812
43.64000 219.799
43.68000 221.122
43.72000 222.577
43.76000 228.979
43.80000 213.849
43.84000 219.585
43.88000 226.689
43.92000 225.255
43.96000 226.959
44.00000 237.464
44.04000 216.241
44.08000 221.434
44.12000 225.749
44.16000 234.626
44.20000 243.970
44.24000 233.445
44.28000 236.056
44.32000 244.799
44.36000 223.746
44.40000 240.004
44.44000 249.461
44.48000 265.818
44.52000 274.054
44.56000 307.793
44.60000 313.994
44.64000 343.700
44.68000 367.763
44.72000 424.218
44.76000 498.868
44.80000 519.900
44.84000 574.473
44.88000 603.157
44.92000 639.410
44.96000 600.400
45.00000 578.412
45.04000 562.622
45.08000 531.676
45.12000 442.754
45.16000 403.701
45.20000 402.510
45.24000 355.734
45.28000 308.760
45.32000 315.733
45.36000 287.651
45.40000 260.771
45.44000 273.427
45.48000 270.036
45.52000 258.654
45.56000 239.945
45.60000 247.476
45.64000 236.209
45.68000 236.418
45.72000 235.079
45.76000 226.673
45.80000 226.926
45.84000 228.754
45.88000 219.817
45.92000 211.451
45.96000 214.832
46.00000 221.658
46.04000 212.417
46.08000 203.663
46.12000 203.020
46.16000 210.836
46.20000 200.085
46.24000 212.057
46.28000 201.723
46.32000 208.260
46.36000 194.685
46.40000 203.102
46.44000 199.835
46.48000 188.160
46.52000 193.300
46.56000 204.479
46.60000 194.307
46.64000 190.004
46.68000 201.854
46.72000 215.465
46.76000 201.300
46.80000 201.233
46.84000 198.565
46.88000 188.424
46.92000 184.253
46.96000 191.893
47.00000 187.883
47.04000 202.089
47.08000 191.142
47.12000 189.478
47.16000 194.266
47.20000 191.911
47.24000 196.600
47.28000 185.758
47.32000 193.162
47.36000 185.627
47.40000 188.808
47.44000 182.951
47.48000 199.013
47.52000 198.615
47.56000 192.888
47.60000 184.396
47.64000 192.512
47.68000 181.490
47.72000 187.902
47.76000 195.218
47.80000 185.175
47.84000 183.483
47.88000 186.727
47.92000 193.088
47.96000 182.829
48.00000 192.771
48.04000 185.426
48.08000 189.957
48.12000 193.149
48.16000 191.767
48.20000 191.826
48.24000 188.595
48.28000 186.631
48.32000 190.250
48.36000 193.361
48.40000 180.285
48.44000 188.315
48.48000 187.226
48.52000 180.926
48.56000 182.916
48.60000 186.655
48.64000 173.596
48.68000 177.563
48.72000 189.241
48.76000 186.953
48.80000 191.036
48.84000 184.959
48.88000 191.742
48.92000 186.080
48.96000 179.912
49.00000 192.944
49.04000 187.202
49.08000 188.856
49.12000 159.626
49.16000 177.324
49.20000 177.539
49.24000 181.367
49.28000 177.408
49.32000 193.485
49.36000 176.922
49.40000 167.719
49.44000 173.880
49.48000 177.299
49.52000 186.008
49.56000 182.294
49.60000 173.822
49.64000 180.632
49.68000 180.894
49.72000 183.461
49.76000 181.217
49.80000 183.611
49.84000 193.279
49.88000 186.208
49.92000 183.093
49.96000 184.472
50.00000 183.460
50.04000 195.178
50.08000 193.075
50.12000 198.340
50.16000 190.409
50.20000 192.059
50.24000 219.134
50.28000 205.374
50.32000 215.461
50.36000 246.142
50.40000 248.549
50.44000 271.429
50.48000 277.717
50.52000 303.348
50.56000 306.548
50.60000 317.688
50.64000 304.240
50.68000 292.377
50.72000 274.598
50.76000 260.831
50.80000 255.461
50.84000 231.416
50.88000 231.676
50.92000 214.326
50.96000 204.795
51.00000 214.469
51.04000 188.005
51.08000 196.169
51.12000 185.668
51.16000 188.163
51.20000 171.232
51.24000 177.056
51.28000 183.522
51.32000 177.340
51.36000 168.283
51.40000 165.617
51.44000 175.123
51.48000 162.312
51.52000 172.800
51.56000 161.088
51.60000 170.849
51.64000 167.645
51.68000 178.190
51.72000 165.627
51.76000 162.661
51.80000 164.963
51.84000 169.496
51.88000 174.031
51.92000 158.368
51.96000 171.897
52.00000 174.822
52.04000 163.181
52.08000 151.075
52.12000 165.867
52.16000 164.332
52.20000 165.045
52.24000 160.239
52.28000 172.305
52.32000 160.617
52.36000 166.703
52.40000 161.536
52.44000 164.053
52.48000 166.275
52.52000 158.663
52.56000 161.086
52.60000 172.716
52.64000 155.765
52.68000 163.953
52.72000 175.091
52.76000 164.524
52.80000 168.753
52.84000 162.879
52.88000 161.270
52.92000 165.908
52.96000 150.916
53.00000 171.676
53.04000 161.837
53.08000 172.688
53.12000 168.361
53.16000 167.675
53.20000 167.551
53.24000 173.789
53.28000 160.618
53.32000 160.386
53.36000 164.534
53.40000 180.480
53.44000 166.803
53.48000 165.605
53.52000 168.283
53.56000 163.549
53.60000 165.020
53.64000 152.811
53.68000 180.372
53.72000 164.218
53.76000 167.352
53.80000 149.900
53.84000 152.987
53.88000 164.765
53.92000 162.005
53.96000 154.377
54.00000 151.099
54.04000 157.391
54.08000 157.961
54.12000 162.707
54.16000 162.354
54.20000 166.202
54.24000 155.768
54.28000 156.760
54.32000 164.116
54.36000 151.845
54.40000 153.917
54.44000 155.275
54.48000 158.383
54.52000 157.596
54.56000 159.786
54.60000 156.022
54.64000 152.897
54.68000 159.976
54.72000 152.014
54.76000 159.886
54.80000 164.959
54.84000 158.486
54.88000 165.601
54.92000 149.560
54.96000 160.395
55.00000 163.795
55.04000 168.401
55.08000 165.829
55.12000 169.248
55.16000 174.928
55.20000 172.949
55.24000 186.342
55.28000 191.425
55.32000 203.701
55.36000 207.487
55.40000 225.293
55.44000 255.131
55.48000 294.539
55.52000 335.050
55.56000 388.470
55.60000 457.332
55.64000 530.682
55.68000 657.733
55.72000 722.257
55.76000 822.673
55.80000 855.779
55.84000 892.444
55.88000 882.579
55.92000 839.793
55.96000 744.946
56.00000 675.945
56.04000 590.928
56.08000 502.449
56.12000 447.022
56.16000 368.485
56.20000 316.289
56.24000 270.861
56.28000 244.659
56.32000 220.756
56.36000 206.083
56.40000 201.636
56.44000 184.719
56.48000 181.018
56.52000 178.536
56.56000 174.026
56.60000 172.564
56.64000 165.037
56.68000 155.239
56.72000 156.883
56.76000 172.615
56.80000 156.893
56.84000 157.080
56.88000 153.853
56.92000 155.874
56.96000 156.662
57.00000 154.983
57.04000 160.290
57.08000 154.756
57.12000 157.592
57.16000 134.938
57.20000 142.046
57.24000 151.100
57.28000 145.711
57.32000 152.144
57.36000 142.460
57.40000 147.029
57.44000 154.477
57.48000 148.370
57.52000 153.282
57.56000 143.775
57.60000 135.568
57.64000 146.644
57.68000 144.851
57.72000 143.565
57.76000 142.390
57.80000 142.989
57.84000 156.420
57.88000 146.568
57.92000 127.911
57.96000 139.692
58.00000 152.998
58.04000 141.237
58.08000 138.492
58.12000 139.031
58.16000 135.508
58.20000 128.426
58.24000 139.100
58.28000 153.938
58.32000 139.434
58.36000 142.001
58.40000 150.043
58.44000 139.209
58.48000 135.589
58.52000 150.444
58.56000 135.557
58.60000 143.430
58.64000 132.748
58.68000 129.448
58.72000 147.915
58.76000 131.710
58.80000 140.069
58.84000 125.494
58.88000 139.123
58.92000 143.623
58.96000 126.435
59.00000 142.901
59.04000 139.385
59.08000 133.369
59.12000 136.015
59.16000 132.221
59.20000 136.148
59.24000 142.538
59.28000 143.063
59.32000 125.731
59.36000 137.310
59.40000 140.009
59.44000 120.171
59.48000 128.174
59.52000 136.569
59.56000 136.235
59.60000 139.877
59.64000 132.992
59.68000 141.496
59.72000 133.450
59.76000 135.483
59.80000 126.109
59.84000 140.531
59.88000 134.663
59.92000 137.228
59.96000 137.540
60.00000 130.373
60.04000 125.122
60.08000 122.772
60.12000 128.211
60.16000 137.398
60.20000 140.004
60.24000 141.706
60.28000 141.864
60.32000 136.263
60.36000 137.588
60.40000 133.631
60.44000 126.846
60.48000 135.910
60.52000 131.329
60.56000 133.605
60.60000 127.214
60.64000 126.460
60.68000 138.909
60.72000 141.179
60.76000 138.214
60.80000 137.376
60.84000 131.357
60.88000 131.789
60.92000 137.787
60.96000 135.691
61.00000 136.657
61.04000 136.915
61.08000 135.176
61.12000 136.154
61.16000 127.806
61.20000 136.503
61.24000 140.167
61.28000 140.251
61.32000 135.777
61.36000 143.369
61.40000 135.126
61.44000 143.382
61.48000 156.481
61.52000 188.258
61.56000 255.533
61.60000 335.130
61.64000 386.276
61.68000 417.781
61.72000 402.756
61.76000 388.261
61.80000 300.239
61.84000 213.736
61.88000 180.856
61.92000 161.605
61.96000 152.541
62.00000 144.954
62.04000 148.473
62.08000 153.504
62.12000 144.006
62.16000 138.797
62.20000 150.196
62.24000 136.964
62.28000 145.134
62.32000 144.928
62.36000 146.919
62.40000 144.527
62.44000 136.130
62.48000 135.733
62.52000 151.934
62.56000 156.496
62.60000 166.460
62.64000 138.186
62.68000 145.431
62.72000 146.643
62.76000 154.955
62.80000 152.977
62.84000 152.123
62.88000 147.698
62.92000 140.158
62.96000 147.040
63.00000 137.849
63.04000 157.728
63.08000 148.434
63.12000 160.888
63.16000 146.458
63.20000 153.079
63.24000 145.445
63.28000 141.386
63.32000 146.986
63.36000 146.727
63.40000 153.896
63.44000 156.011
63.48000 146.541
63.52000 143.790
63.56000 147.825
63.60000 148.199
63.64000 158.703
63.68000 157.500
63.72000 152.886
63.76000 162.030
63.80000 160.184
63.84000 160.660
63.88000 154.810
63.92000 157.349
63.96000 150.191
64.00000 160.510
64.04000 163.587
64.08000 171.217
64.12000 162.501
64.16000 163.127
64.20000 162.980
64.24000 166.831
64.28000 169.444
64.32000 164.440
64.36000 172.253
64.40000 173.916
64.44000 167.203
64.48000 170.892
64.52000 170.988
64.56000 169.558
64.60000 179.614
64.64000 176.944
64.68000 186.984
64.72000 178.853
64.76000 189.946
64.80000 194.836
64.84000 205.716
64.88000 205.835
64.92000 216.194
64.96000 229.330
65.00000 238.242
65.04000 244.633
65.08000 285.510
65.12000 293.907
65.16000 324.722
65.20000 328.441
65.24000 362.720
65.28000 393.520
65.32000 410.790
65.36000 438.243
65.40000 483.577
65.44000 488.838
65.48000 500.320
65.52000 478.281
65.56000 475.395
65.60000 504.362
65.64000 542.178
65.68000 667.458
65.72000 906.212
65.76000 1341.576
65.80000 1671.472
65.84000 1889.684
65.88000 1906.734
65.92000 1806.788
65.96000 1488.648
66.00000 1006.034
66.04000 658.656
66.08000 486.751
66.12000 394.364
66.16000 392.113
66.20000 376.915
66.24000 381.560
66.28000 486.359
66.32000 530.340
66.36000 611.345
66.40000 655.354
66.44000 677.484
66.48000 628.666
66.52000 565.742
66.56000 477.987
66.60000 412.339
66.64000 386.439
66.68000 391.444
66.72000 370.849
66.76000 374.459
66.80000 389.720
66.84000 384.233
66.88000 400.163
66.92000 393.904
66.96000 403.328
67.00000 409.098
67.04000 440.868
67.08000 432.265
67.12000 425.691
67.16000 423.225
67.20000 438.937
67.24000 460.712
67.28000 468.578
67.32000 470.025
67.36000 466.586
67.40000 494.091
67.44000 479.124
67.48000 507.879
67.52000 523.772
67.56000 530.515
67.60000 516.768
67.64000 536.836
67.68000 544.124
67.72000 574.155
67.76000 590.434
67.80000 582.351
67.84000 591.321
67.88000 588.190
67.92000 626.757
67.96000 634.728
68.00000 639.891
68.04000 658.090
68.08000 659.275
68.12000 718.903
68.16000 691.829
68.20000 738.948
68.24000 766.705
68.28000 792.750
68.32000 808.328
68.36000 819.627
68.40000 849.765
68.44000 928.441
68.48000 966.863
68.52000 1011.515
68.56000 1135.501
68.60000 1282.819
68.64000 1565.002
68.68000 1888.502
68.72000 2250.684
68.76000 2587.250
68.80000 2949.798
68.84000 3515.731
68.88000 4726.406
68.92000 8368.578
68.96000 23796.320
69.00000 52083.336
69.04000 81248.438
69.08000 95342.469
69.12000 99253.609
69.16000 102889.602
69.20000 100581.297
69.24000 83644.945
69.28000 64905.844
69.32000 52988.414
69.36000 47173.809
69.40000 37802.207
69.44000 23659.285
69.48000 10678.888
69.52000 4515.949
69.56000 2685.191
69.60000 2018.573
69.64000 1645.861
69.68000 1457.694
69.72000 1286.042
69.76000 1167.696
69.80000 1084.531
69.84000 1007.555
69.88000 939.648
69.92000 883.401
69.96000 850.855
70.00000 803.400