File: XRD/24-09-2025 Dep 3/XY Data/BTO_Mapping_Theta2Theta_24-09-2025_001_39_-16-180_-11-756.xy
20.00000 590.070
20.04000 557.798
20.08000 559.861
20.12000 551.936
20.16000 573.430
20.20000 539.560
20.24000 558.938
20.28000 566.262
20.32000 557.506
20.36000 559.211
20.40000 548.160
20.44000 558.710
20.48000 563.419
20.52000 557.061
20.56000 565.485
20.60000 538.554
20.64000 570.444
20.68000 542.213
20.72000 529.023
20.76000 552.201
20.80000 535.043
20.84000 556.619
20.88000 549.886
20.92000 556.575
20.96000 544.569
21.00000 553.689
21.04000 565.840
21.08000 558.088
21.12000 563.147
21.16000 547.013
21.20000 555.329
21.24000 563.003
21.28000 540.535
21.32000 547.404
21.36000 543.205
21.40000 544.564
21.44000 548.247
21.48000 542.721
21.52000 565.761
21.56000 589.573
21.60000 560.723
21.64000 574.801
21.68000 575.168
21.72000 577.518
21.76000 614.484
21.80000 644.805
21.84000 669.642
21.88000 721.034
21.92000 797.764
21.96000 817.495
22.00000 852.856
22.04000 902.829
22.08000 858.982
22.12000 837.047
22.16000 804.642
22.20000 723.517
22.24000 673.844
22.28000 625.669
22.32000 625.657
22.36000 585.184
22.40000 594.170
22.44000 571.797
22.48000 568.558
22.52000 544.156
22.56000 533.108
22.60000 530.363
22.64000 531.799
22.68000 522.677
22.72000 536.101
22.76000 542.913
22.80000 531.739
22.84000 542.603
22.88000 527.794
22.92000 517.857
22.96000 516.696
23.00000 516.820
23.04000 495.180
23.08000 523.106
23.12000 509.761
23.16000 507.832
23.20000 515.763
23.24000 505.458
23.28000 506.664
23.32000 480.159
23.36000 505.539
23.40000 519.057
23.44000 497.076
23.48000 497.791
23.52000 503.445
23.56000 501.052
23.60000 474.046
23.64000 490.526
23.68000 508.314
23.72000 517.115
23.76000 485.080
23.80000 485.761
23.84000 501.080
23.88000 505.454
23.92000 517.593
23.96000 493.103
24.00000 494.721
24.04000 492.089
24.08000 488.083
24.12000 468.135
24.16000 485.039
24.20000 473.365
24.24000 486.867
24.28000 486.704
24.32000 480.112
24.36000 492.037
24.40000 486.823
24.44000 485.855
24.48000 494.588
24.52000 472.151
24.56000 486.143
24.60000 482.302
24.64000 465.882
24.68000 466.741
24.72000 480.017
24.76000 482.523
24.80000 493.562
24.84000 488.812
24.88000 481.847
24.92000 494.467
24.96000 480.100
25.00000 473.560
25.04000 493.144
25.08000 472.105
25.12000 465.987
25.16000 483.150
25.20000 474.038
25.24000 474.328
25.28000 447.251
25.32000 460.462
25.36000 453.365
25.40000 471.603
25.44000 471.492
25.48000 480.775
25.52000 485.484
25.56000 466.666
25.60000 451.193
25.64000 459.425
25.68000 463.037
25.72000 461.920
25.76000 460.681
25.80000 474.346
25.84000 463.650
25.88000 458.558
25.92000 475.272
25.96000 468.008
26.00000 455.110
26.04000 451.167
26.08000 457.459
26.12000 443.342
26.16000 459.441
26.20000 473.317
26.24000 462.202
26.28000 456.986
26.32000 460.864
26.36000 465.976
26.40000 449.405
26.44000 452.806
26.48000 459.957
26.52000 446.983
26.56000 446.761
26.60000 464.861
26.64000 437.406
26.68000 443.434
26.72000 443.928
26.76000 444.364
26.80000 467.516
26.84000 459.981
26.88000 452.830
26.92000 448.217
26.96000 429.857
27.00000 437.193
27.04000 439.176
27.08000 452.984
27.12000 446.080
27.16000 442.058
27.20000 462.222
27.24000 445.522
27.28000 425.966
27.32000 435.932
27.36000 432.189
27.40000 433.757
27.44000 451.603
27.48000 448.290
27.52000 428.780
27.56000 423.520
27.60000 448.530
27.64000 445.050
27.68000 436.346
27.72000 445.017
27.76000 429.790
27.80000 449.391
27.84000 441.813
27.88000 424.416
27.92000 439.853
27.96000 427.448
28.00000 453.784
28.04000 410.566
28.08000 431.696
28.12000 425.132
28.16000 411.330
28.20000 423.173
28.24000 424.630
28.28000 439.215
28.32000 434.034
28.36000 409.605
28.40000 425.430
28.44000 421.426
28.48000 424.088
28.52000 425.365
28.56000 420.096
28.60000 423.411
28.64000 411.290
28.68000 450.637
28.72000 437.870
28.76000 431.179
28.80000 412.877
28.84000 414.181
28.88000 427.565
28.92000 427.339
28.96000 405.669
29.00000 415.039
29.04000 407.887
29.08000 427.262
29.12000 417.561
29.16000 393.368
29.20000 415.587
29.24000 417.911
29.28000 409.401
29.32000 434.092
29.36000 418.356
29.40000 426.872
29.44000 413.819
29.48000 426.523
29.52000 401.439
29.56000 414.400
29.60000 409.164
29.64000 415.487
29.68000 436.500
29.72000 418.327
29.76000 433.756
29.80000 428.427
29.84000 440.262
29.88000 454.819
29.92000 437.795
29.96000 471.991
30.00000 474.718
30.04000 455.025
30.08000 469.010
30.12000 467.027
30.16000 449.241
30.20000 441.843
30.24000 433.372
30.28000 437.990
30.32000 431.148
30.36000 426.126
30.40000 434.262
30.44000 418.870
30.48000 420.966
30.52000 454.084
30.56000 427.255
30.60000 439.762
30.64000 451.454
30.68000 453.274
30.72000 460.683
30.76000 468.387
30.80000 474.951
30.84000 478.148
30.88000 499.583
30.92000 529.529
30.96000 589.535
31.00000 656.894
31.04000 775.114
31.08000 963.050
31.12000 1183.293
31.16000 1535.638
31.20000 1977.517
31.24000 2461.416
31.28000 2975.626
31.32000 3359.271
31.36000 3516.226
31.40000 3498.290
31.44000 3245.724
31.48000 2785.823
31.52000 2296.495
31.56000 1807.203
31.60000 1397.756
31.64000 1109.281
31.68000 875.026
31.72000 710.107
31.76000 623.986
31.80000 570.264
31.84000 517.822
31.88000 482.610
31.92000 466.757
31.96000 444.685
32.00000 444.822
32.04000 421.940
32.08000 400.009
32.12000 404.455
32.16000 387.513
32.20000 417.433
32.24000 406.177
32.28000 394.904
32.32000 394.043
32.36000 410.466
32.40000 393.971
32.44000 385.407
32.48000 392.010
32.52000 373.814
32.56000 381.296
32.60000 372.874
32.64000 386.272
32.68000 383.831
32.72000 378.440
32.76000 376.370
32.80000 444.450
32.84000 485.077
32.88000 540.739
32.92000 576.962
32.96000 562.392
33.00000 541.229
33.04000 508.647
33.08000 450.004
33.12000 424.238
33.16000 369.374
33.20000 360.257
33.24000 376.984
33.28000 363.771
33.32000 349.351
33.36000 356.728
33.40000 349.600
33.44000 351.838
33.48000 346.191
33.52000 356.320
33.56000 336.248
33.60000 343.747
33.64000 351.752
33.68000 328.237
33.72000 335.153
33.76000 326.733
33.80000 353.019
33.84000 345.837
33.88000 353.739
33.92000 333.455
33.96000 331.361
34.00000 333.060
34.04000 333.697
34.08000 337.860
34.12000 364.505
34.16000 317.265
34.20000 340.354
34.24000 335.008
34.28000 341.401
34.32000 332.938
34.36000 332.807
34.40000 336.226
34.44000 332.425
34.48000 316.154
34.52000 309.249
34.56000 336.615
34.60000 343.384
34.64000 319.387
34.68000 326.008
34.72000 318.062
34.76000 331.261
34.80000 341.480
34.84000 318.438
34.88000 323.531
34.92000 320.190
34.96000 324.598
35.00000 319.179
35.04000 305.055
35.08000 308.401
35.12000 319.826
35.16000 309.497
35.20000 311.510
35.24000 319.685
35.28000 337.886
35.32000 305.951
35.36000 311.536
35.40000 323.725
35.44000 306.731
35.48000 310.639
35.52000 311.798
35.56000 309.655
35.60000 311.141
35.64000 313.931
35.68000 303.132
35.72000 323.446
35.76000 313.301
35.80000 311.201
35.84000 307.897
35.88000 313.577
35.92000 312.911
35.96000 305.662
36.00000 300.931
36.04000 307.717
36.08000 296.887
36.12000 293.632
36.16000 295.636
36.20000 315.171
36.24000 309.227
36.28000 293.849
36.32000 291.822
36.36000 299.904
36.40000 295.216
36.44000 299.562
36.48000 301.738
36.52000 299.375
36.56000 297.862
36.60000 293.335
36.64000 295.038
36.68000 303.643
36.72000 313.467
36.76000 304.817
36.80000 308.603
36.84000 300.648
36.88000 299.601
36.92000 305.841
36.96000 318.629
37.00000 304.613
37.04000 307.128
37.08000 306.106
37.12000 316.610
37.16000 303.519
37.20000 301.729
37.24000 285.410
37.28000 297.387
37.32000 303.689
37.36000 296.709
37.40000 296.207
37.44000 316.629
37.48000 291.227
37.52000 299.979
37.56000 301.349
37.60000 313.451
37.64000 297.250
37.68000 294.717
37.72000 286.516
37.76000 301.105
37.80000 285.670
37.84000 298.017
37.88000 304.967
37.92000 293.411
37.96000 297.232
38.00000 297.709
38.04000 288.701
38.08000 321.145
38.12000 314.978
38.16000 333.879
38.20000 326.049
38.24000 341.998
38.28000 351.429
38.32000 371.501
38.36000 414.085
38.40000 466.716
38.44000 563.235
38.48000 662.495
38.52000 786.214
38.56000 932.878
38.60000 1097.492
38.64000 1191.677
38.68000 1240.782
38.72000 1232.674
38.76000 1120.426
38.80000 989.914
38.84000 836.140
38.88000 697.593
38.92000 558.952
38.96000 449.097
39.00000 400.741
39.04000 341.296
39.08000 313.836
39.12000 311.917
39.16000 302.033
39.20000 288.874
39.24000 291.719
39.28000 290.347
39.32000 299.394
39.36000 274.664
39.40000 270.937
39.44000 282.836
39.48000 287.692
39.52000 276.401
39.56000 279.211
39.60000 270.041
39.64000 278.048
39.68000 281.450
39.72000 277.951
39.76000 267.471
39.80000 246.971
39.84000 265.767
39.88000 264.329
39.92000 252.629
39.96000 262.354
40.00000 258.898
40.04000 277.148
40.08000 253.306
40.12000 277.961
40.16000 262.294
40.20000 253.001
40.24000 244.420
40.28000 249.723
40.32000 270.638
40.36000 261.993
40.40000 263.438
40.44000 242.628
40.48000 254.462
40.52000 256.304
40.56000 259.529
40.60000 266.742
40.64000 240.077
40.68000 249.862
40.72000 260.373
40.76000 265.818
40.80000 247.955
40.84000 242.314
40.88000 253.369
40.92000 242.522
40.96000 243.976
41.00000 258.980
41.04000 252.350
41.08000 231.427
41.12000 254.355
41.16000 257.606
41.20000 244.241
41.24000 243.614
41.28000 261.812
41.32000 236.052
41.36000 239.911
41.40000 247.826
41.44000 250.444
41.48000 231.509
41.52000 231.879
41.56000 245.975
41.60000 235.087
41.64000 242.413
41.68000 253.497
41.72000 241.958
41.76000 242.827
41.80000 234.938
41.84000 244.668
41.88000 237.409
41.92000 253.633
41.96000 234.668
42.00000 244.865
42.04000 233.650
42.08000 230.732
42.12000 234.877
42.16000 234.625
42.20000 239.746
42.24000 235.795
42.28000 236.128
42.32000 242.560
42.36000 247.002
42.40000 231.695
42.44000 228.603
42.48000 234.868
42.52000 242.433
42.56000 218.542
42.60000 231.718
42.64000 235.732
42.68000 230.407
42.72000 233.289
42.76000 226.999
42.80000 238.078
42.84000 233.508
42.88000 232.721
42.92000 232.086
42.96000 230.729
43.00000 232.936
43.04000 234.804
43.08000 241.400
43.12000 238.773
43.16000 231.049
43.20000 227.706
43.24000 228.033
43.28000 227.251
43.32000 233.836
43.36000 227.938
43.40000 227.821
43.44000 228.918
43.48000 217.136
43.52000 229.908
43.56000 221.612
43.60000 228.094
43.64000 233.088
43.68000 229.388
43.72000 223.848
43.76000 220.931
43.80000 219.661
43.84000 226.073
43.88000 216.991
43.92000 232.740
43.96000 223.496
44.00000 212.601
44.04000 226.506
44.08000 222.383
44.12000 222.980
44.16000 216.663
44.20000 212.566
44.24000 233.191
44.28000 244.195
44.32000 240.727
44.36000 222.774
44.40000 229.273
44.44000 215.777
44.48000 239.169
44.52000 243.152
44.56000 245.661
44.60000 264.860
44.64000 265.086
44.68000 261.919
44.72000 283.980
44.76000 311.127
44.80000 339.900
44.84000 369.923
44.88000 404.605
44.92000 462.570
44.96000 486.274
45.00000 507.106
45.04000 507.575
45.08000 471.801
45.12000 460.444
45.16000 431.999
45.20000 413.088
45.24000 382.482
45.28000 354.594
45.32000 339.325
45.36000 317.193
45.40000 298.374
45.44000 287.451
45.48000 293.269
45.52000 282.863
45.56000 275.449
45.60000 255.899
45.64000 256.559
45.68000 248.110
45.72000 244.445
45.76000 252.679
45.80000 236.627
45.84000 226.486
45.88000 236.141
45.92000 212.710
45.96000 221.771
46.00000 228.008
46.04000 225.314
46.08000 211.581
46.12000 213.438
46.16000 203.547
46.20000 214.579
46.24000 212.914
46.28000 203.474
46.32000 201.569
46.36000 204.177
46.40000 210.946
46.44000 199.523
46.48000 198.017
46.52000 207.406
46.56000 198.086
46.60000 213.335
46.64000 202.473
46.68000 209.739
46.72000 194.753
46.76000 196.056
46.80000 204.985
46.84000 187.051
46.88000 188.818
46.92000 189.163
46.96000 199.084
47.00000 192.859
47.04000 192.008
47.08000 200.220
47.12000 191.466
47.16000 195.954
47.20000 187.532
47.24000 184.401
47.28000 189.536
47.32000 187.449
47.36000 191.141
47.40000 188.984
47.44000 204.947
47.48000 198.409
47.52000 179.427
47.56000 197.930
47.60000 188.140
47.64000 195.690
47.68000 188.997
47.72000 190.418
47.76000 195.168
47.80000 189.211
47.84000 192.947
47.88000 191.834
47.92000 197.938
47.96000 192.216
48.00000 183.264
48.04000 181.677
48.08000 196.978
48.12000 188.995
48.16000 183.677
48.20000 188.343
48.24000 194.571
48.28000 187.914
48.32000 177.102
48.36000 183.572
48.40000 189.914
48.44000 186.499
48.48000 181.948
48.52000 175.292
48.56000 174.282
48.60000 183.894
48.64000 179.795
48.68000 177.015
48.72000 188.395
48.76000 183.348
48.80000 187.271
48.84000 191.047
48.88000 179.746
48.92000 181.778
48.96000 186.492
49.00000 176.667
49.04000 176.748
49.08000 182.123
49.12000 183.183
49.16000 180.088
49.20000 174.848
49.24000 175.904
49.28000 176.158
49.32000 188.967
49.36000 174.372
49.40000 182.933
49.44000 179.913
49.48000 173.032
49.52000 180.788
49.56000 178.207
49.60000 178.030
49.64000 171.158
49.68000 182.171
49.72000 182.048
49.76000 182.407
49.80000 174.298
49.84000 182.293
49.88000 173.760
49.92000 181.891
49.96000 191.656
50.00000 190.371
50.04000 175.378
50.08000 189.273
50.12000 189.280
50.16000 175.007
50.20000 186.176
50.24000 172.891
50.28000 196.957
50.32000 190.055
50.36000 212.734
50.40000 217.446
50.44000 215.405
50.48000 237.765
50.52000 254.190
50.56000 256.324
50.60000 275.291
50.64000 285.236
50.68000 278.695
50.72000 275.600
50.76000 275.486
50.80000 265.740
50.84000 251.230
50.88000 230.275
50.92000 231.952
50.96000 200.325
51.00000 214.285
51.04000 189.514
51.08000 195.274
51.12000 193.708
51.16000 183.850
51.20000 185.042
51.24000 176.717
51.28000 172.816
51.32000 182.508
51.36000 188.673
51.40000 173.203
51.44000 170.906
51.48000 159.678
51.52000 180.332
51.56000 165.510
51.60000 162.384
51.64000 166.818
51.68000 173.425
51.72000 156.791
51.76000 155.607
51.80000 153.164
51.84000 170.249
51.88000 158.353
51.92000 174.571
51.96000 163.722
52.00000 172.334
52.04000 162.232
52.08000 174.159
52.12000 159.732
52.16000 160.345
52.20000 162.593
52.24000 161.884
52.28000 167.962
52.32000 158.905
52.36000 157.982
52.40000 165.438
52.44000 159.843
52.48000 167.935
52.52000 169.813
52.56000 156.786
52.60000 155.398
52.64000 157.747
52.68000 160.097
52.72000 155.517
52.76000 158.790
52.80000 167.271
52.84000 159.406
52.88000 164.898
52.92000 156.348
52.96000 163.085
53.00000 166.059
53.04000 152.064
53.08000 149.203
53.12000 165.806
53.16000 158.654
53.20000 169.320
53.24000 166.215
53.28000 164.006
53.32000 178.504
53.36000 153.519
53.40000 166.063
53.44000 166.800
53.48000 161.764
53.52000 145.779
53.56000 162.010
53.60000 157.985
53.64000 168.865
53.68000 165.093
53.72000 166.565
53.76000 153.132
53.80000 155.744
53.84000 155.079
53.88000 148.091
53.92000 165.386
53.96000 155.583
54.00000 155.000
54.04000 154.673
54.08000 155.766
54.12000 157.478
54.16000 150.250
54.20000 151.907
54.24000 171.129
54.28000 159.333
54.32000 155.918
54.36000 166.098
54.40000 147.663
54.44000 156.166
54.48000 149.280
54.52000 156.973
54.56000 160.763
54.60000 161.796
54.64000 156.284
54.68000 157.436
54.72000 163.253
54.76000 153.152
54.80000 159.419
54.84000 146.075
54.88000 157.427
54.92000 172.322
54.96000 161.531
55.00000 164.839
55.04000 163.820
55.08000 156.102
55.12000 182.554
55.16000 176.555
55.20000 159.704
55.24000 184.984
55.28000 184.362
55.32000 186.888
55.36000 193.686
55.40000 202.226
55.44000 224.666
55.48000 229.513
55.52000 238.805
55.56000 277.681
55.60000 333.236
55.64000 382.373
55.68000 443.350
55.72000 524.524
55.76000 632.698
55.80000 748.122
55.84000 804.314
55.88000 839.582
55.92000 848.791
55.96000 829.526
56.00000 778.180
56.04000 714.446
56.08000 614.375
56.12000 540.417
56.16000 473.267
56.20000 390.831
56.24000 355.416
56.28000 293.232
56.32000 263.990
56.36000 231.578
56.40000 217.271
56.44000 193.408
56.48000 188.091
56.52000 184.805
56.56000 170.180
56.60000 165.853
56.64000 158.664
56.68000 168.546
56.72000 157.074
56.76000 160.215
56.80000 168.283
56.84000 167.753
56.88000 160.190
56.92000 154.487
56.96000 158.086
57.00000 156.415
57.04000 150.378
57.08000 155.667
57.12000 141.809
57.16000 138.990
57.20000 145.174
57.24000 152.974
57.28000 141.792
57.32000 139.464
57.36000 149.455
57.40000 151.865
57.44000 144.484
57.48000 140.291
57.52000 142.931
57.56000 148.190
57.60000 146.510
57.64000 134.568
57.68000 143.501
57.72000 143.509
57.76000 137.553
57.80000 145.794
57.84000 152.561
57.88000 144.202
57.92000 138.437
57.96000 137.824
58.00000 152.028
58.04000 139.931
58.08000 142.333
58.12000 142.660
58.16000 148.737
58.20000 138.038
58.24000 142.715
58.28000 142.052
58.32000 140.888
58.36000 139.194
58.40000 140.119
58.44000 142.798
58.48000 139.333
58.52000 138.852
58.56000 129.851
58.60000 145.696
58.64000 138.332
58.68000 134.732
58.72000 137.980
58.76000 135.098
58.80000 141.996
58.84000 140.137
58.88000 134.589
58.92000 134.153
58.96000 125.139
59.00000 133.555
59.04000 133.513
59.08000 125.560
59.12000 129.420
59.16000 136.327
59.20000 143.184
59.24000 134.533
59.28000 136.585
59.32000 125.446
59.36000 126.852
59.40000 125.590
59.44000 137.559
59.48000 134.287
59.52000 139.211
59.56000 134.063
59.60000 124.293
59.64000 132.417
59.68000 138.510
59.72000 131.817
59.76000 129.785
59.80000 145.590
59.84000 147.980
59.88000 127.627
59.92000 133.884
59.96000 133.975
60.00000 139.796
60.04000 130.276
60.08000 138.314
60.12000 130.912
60.16000 110.954
60.20000 134.834
60.24000 135.637
60.28000 131.927
60.32000 137.118
60.36000 132.257
60.40000 128.717
60.44000 138.194
60.48000 134.808
60.52000 130.990
60.56000 137.513
60.60000 140.665
60.64000 142.193
60.68000 145.015
60.72000 137.562
60.76000 139.378
60.80000 137.946
60.84000 139.048
60.88000 133.769
60.92000 135.178
60.96000 133.472
61.00000 132.670
61.04000 134.628
61.08000 142.617
61.12000 147.639
61.16000 140.555
61.20000 139.756
61.24000 136.886
61.28000 137.296
61.32000 133.557
61.36000 135.266
61.40000 140.426
61.44000 145.050
61.48000 147.772
61.52000 177.128
61.56000 213.625
61.60000 275.536
61.64000 289.693
61.68000 319.934
61.72000 324.817
61.76000 305.793
61.80000 246.207
61.84000 187.289
61.88000 157.294
61.92000 157.731
61.96000 148.882
62.00000 143.495
62.04000 134.032
62.08000 136.034
62.12000 134.449
62.16000 134.069
62.20000 141.352
62.24000 138.866
62.28000 145.760
62.32000 150.819
62.36000 145.446
62.40000 133.343
62.44000 134.945
62.48000 142.044
62.52000 146.484
62.56000 132.658
62.60000 129.453
62.64000 141.024
62.68000 140.973
62.72000 136.229
62.76000 146.418
62.80000 143.141
62.84000 131.644
62.88000 141.301
62.92000 151.213
62.96000 135.553
63.00000 142.098
63.04000 157.715
63.08000 141.505
63.12000 153.800
63.16000 141.978
63.20000 146.942
63.24000 159.295
63.28000 147.404
63.32000 155.581
63.36000 145.451
63.40000 145.169
63.44000 148.340
63.48000 145.620
63.52000 144.186
63.56000 141.417
63.60000 144.919
63.64000 145.193
63.68000 152.341
63.72000 151.414
63.76000 155.917
63.80000 152.341
63.84000 155.364
63.88000 152.835
63.92000 160.452
63.96000 153.361
64.00000 158.404
64.04000 162.248
64.08000 154.005
64.12000 159.443
64.16000 160.653
64.20000 161.177
64.24000 169.338
64.28000 170.194
64.32000 157.927
64.36000 155.434
64.40000 165.069
64.44000 160.152
64.48000 174.577
64.52000 163.365
64.56000 178.774
64.60000 161.562
64.64000 168.089
64.68000 173.401
64.72000 173.941
64.76000 181.504
64.80000 175.939
64.84000 186.031
64.88000 192.316
64.92000 191.479
64.96000 195.719
65.00000 211.832
65.04000 207.134
65.08000 219.992
65.12000 229.512
65.16000 232.953
65.20000 269.090
65.24000 273.264
65.28000 302.083
65.32000 320.056
65.36000 339.899
65.40000 362.861
65.44000 372.411
65.48000 408.749
65.52000 425.800
65.56000 438.054
65.60000 481.188
65.64000 518.070
65.68000 604.086
65.72000 749.713
65.76000 1038.559
65.80000 1274.257
65.84000 1359.154
65.88000 1385.009
65.92000 1340.360
65.96000 1134.747
66.00000 789.281
66.04000 515.247
66.08000 404.790
66.12000 364.720
66.16000 337.045
66.20000 324.361
66.24000 340.192
66.28000 379.251
66.32000 453.550
66.36000 495.229
66.40000 530.129
66.44000 532.699
66.48000 503.968
66.52000 455.968
66.56000 409.905
66.60000 365.605
66.64000 342.611
66.68000 335.792
66.72000 351.645
66.76000 330.164
66.80000 343.396
66.84000 349.625
66.88000 332.060
66.92000 345.165
66.96000 368.625
67.00000 369.771
67.04000 374.931
67.08000 378.654
67.12000 371.507
67.16000 376.801
67.20000 372.096
67.24000 400.811
67.28000 376.440
67.32000 400.753
67.36000 415.163
67.40000 429.880
67.44000 423.338
67.48000 432.646
67.52000 445.687
67.56000 464.463
67.60000 482.451
67.64000 481.059
67.68000 492.998
67.72000 497.946
67.76000 495.541
67.80000 495.311
67.84000 529.213
67.88000 527.764
67.92000 539.637
67.96000 563.863
68.00000 550.374
68.04000 560.491
68.08000 597.547
68.12000 597.977
68.16000 588.666
68.20000 610.490
68.24000 629.800
68.28000 662.170
68.32000 664.914
68.36000 700.926
68.40000 723.387
68.44000 763.768
68.48000 804.919
68.52000 868.905
68.56000 944.015
68.60000 1099.387
68.64000 1266.475
68.68000 1499.013
68.72000 1790.987
68.76000 2054.188
68.80000 2381.809
68.84000 2927.519
68.88000 4078.464
68.92000 6818.598
68.96000 17935.359
69.00000 37651.445
69.04000 58208.688
69.08000 68064.875
69.12000 70986.672
69.16000 73582.484
69.20000 72340.391
69.24000 60244.324
69.28000 46317.727
69.32000 38155.117
69.36000 34051.586
69.40000 27279.746
69.44000 17158.902
69.48000 7850.083
69.52000 3552.141
69.56000 2117.697
69.60000 1620.567
69.64000 1357.762
69.68000 1185.595
69.72000 1061.449
69.76000 955.588
69.80000 905.045
69.84000 854.607
69.88000 834.570
69.92000 742.679
69.96000 719.474
70.00000 689.629