File: XRD/24-09-2025 Dep 3/XY Data/BTO_Mapping_Theta2Theta_24-09-2025_001_06_9-135_4-067.xy
20.00000 559.074
20.04000 570.779
20.08000 554.038
20.12000 549.586
20.16000 577.179
20.20000 553.777
20.24000 565.498
20.28000 550.679
20.32000 566.252
20.36000 551.608
20.40000 555.426
20.44000 554.887
20.48000 554.027
20.52000 567.620
20.56000 545.294
20.60000 555.460
20.64000 562.521
20.68000 575.203
20.72000 544.995
20.76000 553.375
20.80000 541.476
20.84000 541.545
20.88000 563.409
20.92000 527.618
20.96000 561.349
21.00000 548.011
21.04000 549.230
21.08000 511.956
21.12000 546.116
21.16000 554.450
21.20000 546.908
21.24000 531.600
21.28000 535.211
21.32000 540.780
21.36000 558.743
21.40000 541.364
21.44000 538.402
21.48000 518.514
21.52000 535.803
21.56000 530.420
21.60000 535.096
21.64000 569.869
21.68000 532.005
21.72000 566.901
21.76000 559.593
21.80000 547.791
21.84000 560.575
21.88000 575.025
21.92000 593.359
21.96000 597.628
22.00000 605.430
22.04000 608.761
22.08000 608.518
22.12000 627.589
22.16000 614.490
22.20000 620.871
22.24000 612.591
22.28000 567.261
22.32000 586.927
22.36000 565.307
22.40000 578.246
22.44000 553.831
22.48000 531.426
22.52000 553.773
22.56000 541.520
22.60000 514.092
22.64000 522.937
22.68000 512.969
22.72000 515.520
22.76000 526.347
22.80000 520.414
22.84000 516.170
22.88000 502.042
22.92000 519.643
22.96000 509.649
23.00000 526.508
23.04000 512.741
23.08000 519.368
23.12000 516.015
23.16000 499.900
23.20000 518.834
23.24000 503.407
23.28000 511.039
23.32000 486.371
23.36000 512.410
23.40000 492.101
23.44000 503.082
23.48000 497.241
23.52000 511.775
23.56000 498.240
23.60000 511.415
23.64000 484.167
23.68000 514.222
23.72000 500.467
23.76000 501.362
23.80000 493.035
23.84000 498.854
23.88000 490.808
23.92000 481.023
23.96000 484.610
24.00000 490.833
24.04000 462.912
24.08000 490.898
24.12000 493.260
24.16000 491.703
24.20000 491.855
24.24000 485.553
24.28000 483.410
24.32000 492.821
24.36000 488.276
24.40000 486.789
24.44000 498.761
24.48000 475.637
24.52000 472.739
24.56000 495.146
24.60000 501.806
24.64000 471.257
24.68000 473.516
24.72000 478.556
24.76000 479.154
24.80000 464.178
24.84000 487.661
24.88000 487.179
24.92000 474.253
24.96000 464.299
25.00000 463.095
25.04000 486.055
25.08000 465.725
25.12000 481.350
25.16000 471.920
25.20000 485.379
25.24000 478.138
25.28000 461.641
25.32000 468.640
25.36000 495.682
25.40000 445.178
25.44000 464.511
25.48000 483.198
25.52000 454.642
25.56000 473.593
25.60000 482.053
25.64000 452.293
25.68000 441.686
25.72000 458.454
25.76000 463.024
25.80000 465.623
25.84000 441.833
25.88000 471.540
25.92000 436.268
25.96000 443.708
26.00000 454.160
26.04000 448.680
26.08000 459.427
26.12000 457.285
26.16000 466.323
26.20000 453.016
26.24000 450.939
26.28000 446.158
26.32000 460.331
26.36000 446.557
26.40000 448.156
26.44000 452.527
26.48000 443.426
26.52000 451.323
26.56000 453.229
26.60000 462.346
26.64000 462.983
26.68000 449.282
26.72000 421.115
26.76000 448.708
26.80000 428.000
26.84000 436.656
26.88000 449.137
26.92000 437.088
26.96000 438.129
27.00000 448.435
27.04000 442.803
27.08000 441.263
27.12000 463.303
27.16000 438.081
27.20000 440.056
27.24000 435.700
27.28000 439.400
27.32000 446.662
27.36000 444.176
27.40000 445.442
27.44000 446.324
27.48000 449.077
27.52000 415.719
27.56000 418.346
27.60000 459.087
27.64000 425.394
27.68000 422.698
27.72000 430.948
27.76000 409.402
27.80000 433.011
27.84000 432.989
27.88000 457.544
27.92000 422.217
27.96000 445.166
28.00000 441.705
28.04000 435.222
28.08000 428.379
28.12000 429.986
28.16000 427.683
28.20000 436.003
28.24000 424.191
28.28000 426.369
28.32000 413.962
28.36000 421.972
28.40000 427.942
28.44000 417.321
28.48000 441.752
28.52000 421.436
28.56000 421.614
28.60000 415.279
28.64000 425.115
28.68000 415.076
28.72000 434.344
28.76000 427.032
28.80000 419.984
28.84000 423.229
28.88000 427.385
28.92000 409.213
28.96000 420.229
29.00000 418.413
29.04000 413.936
29.08000 414.421
29.12000 418.564
29.16000 413.878
29.20000 394.915
29.24000 411.680
29.28000 405.799
29.32000 396.423
29.36000 402.278
29.40000 409.570
29.44000 405.821
29.48000 421.917
29.52000 405.413
29.56000 406.626
29.60000 415.518
29.64000 406.411
29.68000 408.881
29.72000 387.739
29.76000 410.862
29.80000 413.667
29.84000 411.854
29.88000 422.312
29.92000 432.869
29.96000 424.207
30.00000 415.001
30.04000 416.900
30.08000 434.184
30.12000 442.769
30.16000 438.734
30.20000 425.080
30.24000 422.025
30.28000 422.879
30.32000 421.519
30.36000 411.203
30.40000 408.605
30.44000 424.338
30.48000 416.852
30.52000 411.997
30.56000 423.909
30.60000 430.470
30.64000 427.303
30.68000 423.751
30.72000 431.196
30.76000 440.910
30.80000 437.734
30.84000 431.861
30.88000 442.969
30.92000 454.890
30.96000 481.041
31.00000 499.641
31.04000 554.470
31.08000 630.924
31.12000 710.793
31.16000 885.396
31.20000 1063.992
31.24000 1242.591
31.28000 1583.228
31.32000 1792.518
31.36000 1963.138
31.40000 2045.213
31.44000 2025.852
31.48000 1877.115
31.52000 1655.215
31.56000 1453.084
31.60000 1177.912
31.64000 961.100
31.68000 811.046
31.72000 670.365
31.76000 596.265
31.80000 537.755
31.84000 484.150
31.88000 494.479
31.92000 454.510
31.96000 443.161
32.00000 429.519
32.04000 409.770
32.08000 428.352
32.12000 415.575
32.16000 402.404
32.20000 382.935
32.24000 392.504
32.28000 390.285
32.32000 397.835
32.36000 391.684
32.40000 380.504
32.44000 384.037
32.48000 385.548
32.52000 380.255
32.56000 381.410
32.60000 384.882
32.64000 370.597
32.68000 378.634
32.72000 387.243
32.76000 364.979
32.80000 368.481
32.84000 419.147
32.88000 447.319
32.92000 444.909
32.96000 450.897
33.00000 443.173
33.04000 422.913
33.08000 409.268
33.12000 387.131
33.16000 361.386
33.20000 352.144
33.24000 353.667
33.28000 361.861
33.32000 340.421
33.36000 328.895
33.40000 344.457
33.44000 345.648
33.48000 338.968
33.52000 333.401
33.56000 338.217
33.60000 341.955
33.64000 332.651
33.68000 335.076
33.72000 320.667
33.76000 354.496
33.80000 341.251
33.84000 334.275
33.88000 330.178
33.92000 342.973
33.96000 345.038
34.00000 343.511
34.04000 334.130
34.08000 339.820
34.12000 342.201
34.16000 330.728
34.20000 337.854
34.24000 337.403
34.28000 333.494
34.32000 313.483
34.36000 319.025
34.40000 310.204
34.44000 334.725
34.48000 342.872
34.52000 332.258
34.56000 321.031
34.60000 326.180
34.64000 346.762
34.68000 334.712
34.72000 328.035
34.76000 320.290
34.80000 332.070
34.84000 337.347
34.88000 331.172
34.92000 319.226
34.96000 318.317
35.00000 315.455
35.04000 315.643
35.08000 317.586
35.12000 314.398
35.16000 312.381
35.20000 316.725
35.24000 314.895
35.28000 324.893
35.32000 318.297
35.36000 314.127
35.40000 323.106
35.44000 299.991
35.48000 308.439
35.52000 304.306
35.56000 305.601
35.60000 313.157
35.64000 299.971
35.68000 299.652
35.72000 316.400
35.76000 314.971
35.80000 316.236
35.84000 307.968
35.88000 304.074
35.92000 307.576
35.96000 306.273
36.00000 325.780
36.04000 305.549
36.08000 298.366
36.12000 304.818
36.16000 303.743
36.20000 294.333
36.24000 312.950
36.28000 313.328
36.32000 299.683
36.36000 310.391
36.40000 305.864
36.44000 288.459
36.48000 303.159
36.52000 307.841
36.56000 307.366
36.60000 291.962
36.64000 299.157
36.68000 284.213
36.72000 315.238
36.76000 304.241
36.80000 312.079
36.84000 304.677
36.88000 298.965
36.92000 303.703
36.96000 308.438
37.00000 303.708
37.04000 318.920
37.08000 306.377
37.12000 314.788
37.16000 323.549
37.20000 308.860
37.24000 310.151
37.28000 294.019
37.32000 288.300
37.36000 297.994
37.40000 308.104
37.44000 297.483
37.48000 293.965
37.52000 292.183
37.56000 289.299
37.60000 299.405
37.64000 300.725
37.68000 302.572
37.72000 298.924
37.76000 297.712
37.80000 297.176
37.84000 276.628
37.88000 307.278
37.92000 292.783
37.96000 287.092
38.00000 302.845
38.04000 300.803
38.08000 306.284
38.12000 287.801
38.16000 301.298
38.20000 308.095
38.24000 305.509
38.28000 301.696
38.32000 326.634
38.36000 359.147
38.40000 380.635
38.44000 453.147
38.48000 528.784
38.52000 645.486
38.56000 824.183
38.60000 1058.684
38.64000 1264.001
38.68000 1451.854
38.72000 1563.228
38.76000 1551.466
38.80000 1486.953
38.84000 1311.231
38.88000 1072.923
38.92000 883.650
38.96000 676.145
39.00000 538.014
39.04000 438.530
39.08000 367.070
39.12000 344.964
39.16000 331.096
39.20000 306.654
39.24000 297.182
39.28000 290.229
39.32000 283.013
39.36000 292.529
39.40000 286.547
39.44000 270.529
39.48000 273.813
39.52000 263.522
39.56000 275.882
39.60000 267.729
39.64000 273.174
39.68000 263.415
39.72000 270.655
39.76000 281.554
39.80000 273.401
39.84000 262.945
39.88000 273.110
39.92000 256.678
39.96000 251.459
40.00000 264.548
40.04000 262.213
40.08000 265.744
40.12000 243.556
40.16000 244.346
40.20000 261.749
40.24000 262.592
40.28000 257.090
40.32000 257.987
40.36000 249.579
40.40000 247.855
40.44000 247.321
40.48000 241.783
40.52000 247.277
40.56000 253.971
40.60000 252.260
40.64000 269.102
40.68000 251.899
40.72000 252.339
40.76000 252.899
40.80000 255.210
40.84000 245.062
40.88000 243.828
40.92000 251.111
40.96000 250.576
41.00000 256.857
41.04000 251.694
41.08000 234.725
41.12000 235.344
41.16000 243.264
41.20000 243.242
41.24000 241.259
41.28000 238.893
41.32000 247.833
41.36000 253.846
41.40000 243.275
41.44000 232.792
41.48000 241.886
41.52000 238.228
41.56000 238.820
41.60000 236.956
41.64000 233.229
41.68000 238.968
41.72000 251.018
41.76000 235.840
41.80000 236.657
41.84000 244.269
41.88000 250.717
41.92000 247.365
41.96000 246.651
42.00000 228.820
42.04000 228.371
42.08000 224.796
42.12000 237.228
42.16000 249.962
42.20000 232.504
42.24000 241.993
42.28000 243.807
42.32000 230.274
42.36000 220.444
42.40000 220.507
42.44000 224.506
42.48000 235.282
42.52000 225.609
42.56000 232.822
42.60000 234.165
42.64000 228.765
42.68000 224.483
42.72000 241.733
42.76000 237.423
42.80000 236.384
42.84000 240.013
42.88000 227.998
42.92000 234.647
42.96000 237.533
43.00000 233.588
43.04000 222.150
43.08000 224.212
43.12000 229.697
43.16000 227.616
43.20000 240.794
43.24000 229.321
43.28000 234.143
43.32000 230.469
43.36000 225.946
43.40000 232.848
43.44000 240.115
43.48000 217.560
43.52000 230.847
43.56000 225.901
43.60000 221.706
43.64000 224.779
43.68000 219.927
43.72000 216.194
43.76000 244.341
43.80000 227.671
43.84000 229.402
43.88000 214.754
43.92000 234.245
43.96000 219.095
44.00000 212.275
44.04000 220.375
44.08000 223.437
44.12000 211.463
44.16000 214.986
44.20000 220.860
44.24000 212.661
44.28000 227.329
44.32000 225.584
44.36000 235.215
44.40000 222.236
44.44000 220.962
44.48000 206.731
44.52000 223.812
44.56000 226.676
44.60000 225.292
44.64000 225.756
44.68000 221.281
44.72000 222.627
44.76000 219.442
44.80000 226.493
44.84000 226.691
44.88000 241.796
44.92000 250.178
44.96000 244.663
45.00000 266.631
45.04000 291.507
45.08000 283.847
45.12000 282.321
45.16000 283.297
45.20000 273.092
45.24000 287.113
45.28000 280.434
45.32000 261.083
45.36000 271.310
45.40000 263.477
45.44000 251.883
45.48000 239.032
45.52000 253.045
45.56000 236.509
45.60000 243.495
45.64000 238.828
45.68000 228.681
45.72000 238.842
45.76000 234.922
45.80000 230.043
45.84000 240.809
45.88000 227.342
45.92000 213.301
45.96000 219.811
46.00000 214.526
46.04000 219.753
46.08000 214.179
46.12000 208.417
46.16000 214.804
46.20000 214.890
46.24000 215.071
46.28000 202.113
46.32000 199.441
46.36000 201.588
46.40000 215.444
46.44000 196.649
46.48000 204.113
46.52000 200.124
46.56000 199.747
46.60000 203.664
46.64000 194.830
46.68000 200.636
46.72000 205.654
46.76000 200.063
46.80000 206.217
46.84000 195.721
46.88000 198.151
46.92000 194.207
46.96000 197.058
47.00000 189.997
47.04000 202.692
47.08000 187.556
47.12000 194.665
47.16000 190.955
47.20000 196.404
47.24000 195.446
47.28000 189.604
47.32000 192.697
47.36000 163.490
47.40000 193.691
47.44000 180.065
47.48000 187.507
47.52000 189.326
47.56000 186.789
47.60000 185.579
47.64000 176.925
47.68000 190.540
47.72000 181.063
47.76000 175.008
47.80000 177.050
47.84000 172.149
47.88000 191.164
47.92000 186.076
47.96000 178.627
48.00000 172.537
48.04000 181.084
48.08000 184.839
48.12000 178.778
48.16000 170.324
48.20000 184.043
48.24000 180.738
48.28000 192.282
48.32000 186.161
48.36000 181.536
48.40000 192.684
48.44000 179.071
48.48000 178.374
48.52000 193.347
48.56000 186.356
48.60000 165.341
48.64000 181.969
48.68000 185.474
48.72000 182.817
48.76000 182.953
48.80000 179.335
48.84000 177.860
48.88000 181.142
48.92000 183.675
48.96000 186.303
49.00000 174.285
49.04000 182.239
49.08000 175.686
49.12000 185.187
49.16000 179.364
49.20000 181.101
49.24000 180.404
49.28000 183.258
49.32000 164.038
49.36000 181.617
49.40000 167.990
49.44000 176.597
49.48000 189.209
49.52000 155.172
49.56000 174.964
49.60000 181.439
49.64000 180.863
49.68000 191.637
49.72000 175.729
49.76000 170.905
49.80000 178.325
49.84000 177.856
49.88000 180.689
49.92000 176.600
49.96000 174.374
50.00000 181.362
50.04000 158.695
50.08000 174.145
50.12000 165.993
50.16000 175.964
50.20000 177.565
50.24000 180.016
50.28000 188.326
50.32000 181.389
50.36000 185.573
50.40000 184.895
50.44000 191.438
50.48000 186.802
50.52000 196.797
50.56000 190.186
50.60000 193.819
50.64000 198.780
50.68000 196.540
50.72000 209.241
50.76000 216.526
50.80000 218.474
50.84000 215.781
50.88000 188.978
50.92000 193.295
50.96000 192.638
51.00000 190.223
51.04000 189.887
51.08000 189.603
51.12000 186.611
51.16000 184.661
51.20000 189.675
51.24000 169.088
51.28000 170.282
51.32000 169.908
51.36000 176.376
51.40000 179.369
51.44000 166.937
51.48000 170.129
51.52000 168.712
51.56000 160.303
51.60000 173.632
51.64000 166.981
51.68000 158.646
51.72000 163.422
51.76000 161.129
51.80000 154.547
51.84000 165.052
51.88000 165.111
51.92000 160.100
51.96000 163.246
52.00000 162.478
52.04000 157.418
52.08000 171.741
52.12000 163.522
52.16000 162.397
52.20000 162.847
52.24000 153.309
52.28000 160.645
52.32000 162.398
52.36000 157.044
52.40000 154.936
52.44000 154.430
52.48000 161.490
52.52000 161.949
52.56000 158.914
52.60000 166.696
52.64000 158.761
52.68000 165.858
52.72000 156.006
52.76000 157.755
52.80000 159.618
52.84000 153.139
52.88000 156.462
52.92000 161.171
52.96000 155.966
53.00000 161.163
53.04000 152.964
53.08000 154.064
53.12000 161.708
53.16000 168.495
53.20000 155.015
53.24000 162.482
53.28000 167.857
53.32000 160.509
53.36000 165.475
53.40000 158.390
53.44000 187.285
53.48000 165.778
53.52000 157.722
53.56000 161.683
53.60000 163.349
53.64000 162.959
53.68000 160.116
53.72000 155.832
53.76000 156.860
53.80000 156.949
53.84000 156.747
53.88000 156.182
53.92000 156.405
53.96000 154.927
54.00000 150.796
54.04000 154.913
54.08000 153.317
54.12000 154.284
54.16000 151.195
54.20000 148.172
54.24000 142.039
54.28000 162.262
54.32000 155.879
54.36000 150.712
54.40000 154.983
54.44000 154.553
54.48000 157.437
54.52000 161.535
54.56000 153.488
54.60000 158.151
54.64000 168.774
54.68000 152.406
54.72000 157.525
54.76000 161.593
54.80000 155.561
54.84000 155.168
54.88000 155.712
54.92000 155.341
54.96000 157.647
55.00000 164.753
55.04000 166.744
55.08000 167.346
55.12000 163.000
55.16000 163.715
55.20000 163.829
55.24000 161.152
55.28000 164.475
55.32000 174.533
55.36000 175.394
55.40000 180.811
55.44000 185.672
55.48000 190.933
55.52000 211.981
55.56000 227.218
55.60000 254.025
55.64000 293.747
55.68000 347.230
55.72000 410.360
55.76000 503.516
55.80000 599.711
55.84000 689.135
55.88000 777.048
55.92000 847.931
55.96000 896.786
56.00000 921.500
56.04000 893.232
56.08000 810.472
56.12000 750.017
56.16000 687.332
56.20000 581.990
56.24000 491.439
56.28000 424.894
56.32000 361.986
56.36000 308.094
56.40000 261.523
56.44000 239.122
56.48000 226.926
56.52000 213.734
56.56000 182.898
56.60000 172.129
56.64000 174.782
56.68000 171.811
56.72000 174.849
56.76000 165.126
56.80000 162.173
56.84000 160.210
56.88000 153.268
56.92000 154.852
56.96000 151.488
57.00000 155.062
57.04000 158.099
57.08000 151.704
57.12000 154.919
57.16000 151.722
57.20000 148.745
57.24000 147.935
57.28000 155.020
57.32000 155.220
57.36000 136.350
57.40000 151.212
57.44000 144.102
57.48000 134.205
57.52000 146.140
57.56000 133.751
57.60000 143.900
57.64000 147.631
57.68000 139.051
57.72000 144.154
57.76000 148.014
57.80000 136.646
57.84000 147.403
57.88000 148.491
57.92000 140.753
57.96000 134.100
58.00000 148.193
58.04000 144.685
58.08000 140.101
58.12000 138.727
58.16000 139.050
58.20000 134.877
58.24000 140.555
58.28000 142.058
58.32000 135.401
58.36000 139.607
58.40000 152.286
58.44000 139.705
58.48000 142.790
58.52000 140.854
58.56000 144.303
58.60000 133.376
58.64000 141.355
58.68000 134.112
58.72000 141.460
58.76000 135.575
58.80000 137.248
58.84000 128.949
58.88000 144.439
58.92000 131.631
58.96000 133.660
59.00000 127.799
59.04000 132.438
59.08000 124.640
59.12000 134.444
59.16000 138.101
59.20000 137.810
59.24000 131.944
59.28000 127.355
59.32000 144.109
59.36000 134.099
59.40000 128.130
59.44000 132.672
59.48000 126.856
59.52000 127.077
59.56000 138.307
59.60000 130.400
59.64000 133.889
59.68000 136.277
59.72000 121.985
59.76000 137.463
59.80000 132.062
59.84000 130.034
59.88000 127.378
59.92000 118.074
59.96000 128.645
60.00000 131.707
60.04000 131.667
60.08000 137.649
60.12000 142.584
60.16000 131.634
60.20000 132.864
60.24000 128.022
60.28000 125.844
60.32000 132.954
60.36000 124.749
60.40000 128.152
60.44000 136.231
60.48000 133.752
60.52000 128.154
60.56000 125.469
60.60000 127.999
60.64000 132.709
60.68000 133.228
60.72000 131.425
60.76000 132.994
60.80000 130.164
60.84000 126.146
60.88000 121.726
60.92000 139.266
60.96000 124.182
61.00000 125.609
61.04000 135.569
61.08000 124.175
61.12000 135.953
61.16000 141.322
61.20000 128.141
61.24000 127.779
61.28000 155.330
61.32000 130.513
61.36000 129.847
61.40000 137.163
61.44000 131.308
61.48000 144.897
61.52000 158.586
61.56000 185.381
61.60000 212.575
61.64000 245.214
61.68000 251.700
61.72000 254.076
61.76000 245.312
61.80000 215.082
61.84000 167.535
61.88000 139.476
61.92000 138.104
61.96000 144.280
62.00000 135.608
62.04000 139.383
62.08000 135.559
62.12000 142.892
62.16000 128.262
62.20000 135.477
62.24000 141.417
62.28000 135.819
62.32000 133.353
62.36000 136.081
62.40000 129.688
62.44000 149.589
62.48000 129.614
62.52000 127.623
62.56000 145.165
62.60000 146.911
62.64000 137.936
62.68000 132.859
62.72000 143.805
62.76000 139.195
62.80000 128.254
62.84000 140.476
62.88000 141.463
62.92000 144.964
62.96000 138.613
63.00000 139.221
63.04000 157.032
63.08000 145.924
63.12000 146.064
63.16000 136.464
63.20000 140.849
63.24000 142.223
63.28000 144.568
63.32000 137.573
63.36000 146.804
63.40000 152.791
63.44000 146.478
63.48000 144.076
63.52000 135.898
63.56000 145.951
63.60000 151.005
63.64000 151.821
63.68000 155.520
63.72000 149.935
63.76000 151.452
63.80000 154.761
63.84000 157.464
63.88000 150.158
63.92000 152.796
63.96000 152.900
64.00000 159.515
64.04000 150.926
64.08000 148.053
64.12000 161.874
64.16000 160.639
64.20000 153.269
64.24000 162.324
64.28000 161.900
64.32000 153.313
64.36000 151.910
64.40000 158.747
64.44000 162.880
64.48000 166.536
64.52000 163.006
64.56000 156.890
64.60000 166.433
64.64000 169.087
64.68000 175.209
64.72000 183.280
64.76000 169.462
64.80000 168.710
64.84000 171.965
64.88000 158.267
64.92000 176.723
64.96000 190.448
65.00000 173.807
65.04000 188.538
65.08000 188.129
65.12000 209.964
65.16000 210.498
65.20000 213.700
65.24000 212.340
65.28000 218.843
65.32000 236.771
65.36000 244.183
65.40000 252.223
65.44000 278.473
65.48000 290.567
65.52000 301.540
65.56000 316.260
65.60000 339.589
65.64000 356.201
65.68000 406.413
65.72000 561.883
65.76000 753.585
65.80000 908.072
65.84000 1013.278
65.88000 1052.856
65.92000 996.055
65.96000 870.023
66.00000 634.969
66.04000 434.662
66.08000 345.459
66.12000 319.166
66.16000 298.904
66.20000 278.944
66.24000 308.028
66.28000 345.875
66.32000 379.793
66.36000 387.889
66.40000 413.532
66.44000 426.311
66.48000 437.564
66.52000 390.258
66.56000 342.030
66.60000 326.810
66.64000 318.533
66.68000 297.932
66.72000 304.996
66.76000 297.797
66.80000 293.098
66.84000 302.420
66.88000 320.631
66.92000 314.105
66.96000 350.558
67.00000 323.730
67.04000 338.676
67.08000 343.836
67.12000 352.647
67.16000 365.586
67.20000 339.179
67.24000 351.092
67.28000 373.592
67.32000 374.424
67.36000 366.668
67.40000 381.386
67.44000 389.369
67.48000 406.031
67.52000 413.083
67.56000 401.150
67.60000 414.505
67.64000 420.490
67.68000 428.169
67.72000 431.122
67.76000 440.735
67.80000 456.912
67.84000 449.229
67.88000 482.166
67.92000 480.188
67.96000 489.623
68.00000 482.811
68.04000 518.983
68.08000 543.093
68.12000 527.059
68.16000 539.812
68.20000 568.778
68.24000 550.501
68.28000 578.565
68.32000 596.150
68.36000 619.662
68.40000 630.015
68.44000 674.083
68.48000 705.222
68.52000 723.137
68.56000 791.558
68.60000 869.722
68.64000 1027.870
68.68000 1200.102
68.72000 1404.546
68.76000 1571.856
68.80000 1779.371
68.84000 2068.678
68.88000 2614.164
68.92000 4049.641
68.96000 10985.656
69.00000 25385.375
69.04000 40924.500
69.08000 48904.066
69.12000 50857.988
69.16000 52785.051
69.20000 53039.195
69.24000 45083.848
69.28000 33893.434
69.32000 27602.689
69.36000 25077.059
69.40000 20818.723
69.44000 13585.776
69.48000 6023.103
69.52000 2718.184
69.56000 1719.989
69.60000 1356.195
69.64000 1146.026
69.68000 1005.680
69.72000 938.100
69.76000 843.532
69.80000 774.191
69.84000 739.253
69.88000 698.816
69.92000 697.950
69.96000 669.100
70.00000 632.593