File: XRD/24-09-2025 Dep 3/XY Data/BTO_Mapping_Theta2Theta_24-09-2025_001_20_-3-136_29-836.xy
20.00000 555.183
20.04000 557.161
20.08000 557.853
20.12000 569.804
20.16000 552.636
20.20000 578.609
20.24000 551.623
20.28000 573.311
20.32000 571.329
20.36000 544.633
20.40000 538.381
20.44000 552.123
20.48000 548.915
20.52000 570.530
20.56000 555.134
20.60000 538.448
20.64000 570.824
20.68000 557.944
20.72000 569.368
20.76000 548.377
20.80000 565.286
20.84000 544.267
20.88000 550.559
20.92000 549.864
20.96000 550.115
21.00000 561.309
21.04000 529.872
21.08000 549.565
21.12000 539.625
21.16000 534.328
21.20000 556.549
21.24000 527.622
21.28000 551.062
21.32000 537.722
21.36000 544.829
21.40000 524.964
21.44000 553.248
21.48000 540.730
21.52000 546.655
21.56000 526.453
21.60000 546.377
21.64000 545.634
21.68000 548.198
21.72000 545.671
21.76000 595.829
21.80000 564.753
21.84000 598.199
21.88000 595.851
21.92000 610.011
21.96000 624.071
22.00000 644.648
22.04000 676.101
22.08000 692.879
22.12000 672.369
22.16000 687.414
22.20000 667.235
22.24000 642.433
22.28000 621.291
22.32000 588.581
22.36000 594.765
22.40000 582.072
22.44000 561.701
22.48000 565.637
22.52000 564.962
22.56000 544.414
22.60000 539.262
22.64000 535.227
22.68000 529.524
22.72000 523.767
22.76000 521.964
22.80000 524.273
22.84000 507.164
22.88000 494.309
22.92000 515.104
22.96000 513.000
23.00000 533.048
23.04000 496.150
23.08000 497.101
23.12000 496.353
23.16000 511.945
23.20000 505.102
23.24000 516.488
23.28000 503.521
23.32000 533.286
23.36000 506.788
23.40000 516.872
23.44000 516.623
23.48000 496.669
23.52000 507.167
23.56000 484.536
23.60000 485.714
23.64000 498.060
23.68000 481.210
23.72000 504.293
23.76000 501.876
23.80000 495.628
23.84000 505.401
23.88000 488.905
23.92000 476.932
23.96000 483.166
24.00000 498.136
24.04000 499.118
24.08000 476.154
24.12000 498.318
24.16000 509.110
24.20000 497.890
24.24000 509.179
24.28000 491.735
24.32000 493.391
24.36000 487.263
24.40000 479.932
24.44000 469.083
24.48000 478.531
24.52000 481.758
24.56000 472.695
24.60000 487.610
24.64000 498.110
24.68000 472.238
24.72000 460.141
24.76000 474.977
24.80000 487.156
24.84000 497.324
24.88000 469.594
24.92000 473.481
24.96000 480.402
25.00000 460.758
25.04000 445.822
25.08000 474.264
25.12000 473.625
25.16000 474.998
25.20000 473.985
25.24000 477.795
25.28000 485.563
25.32000 477.039
25.36000 451.177
25.40000 460.068
25.44000 469.276
25.48000 456.261
25.52000 474.531
25.56000 478.635
25.60000 452.296
25.64000 476.296
25.68000 471.335
25.72000 464.408
25.76000 456.203
25.80000 450.632
25.84000 451.236
25.88000 456.237
25.92000 470.642
25.96000 469.973
26.00000 438.094
26.04000 459.807
26.08000 471.128
26.12000 451.662
26.16000 461.534
26.20000 471.897
26.24000 455.984
26.28000 436.341
26.32000 455.028
26.36000 446.891
26.40000 445.904
26.44000 442.217
26.48000 445.638
26.52000 433.890
26.56000 452.239
26.60000 448.088
26.64000 457.466
26.68000 456.194
26.72000 434.611
26.76000 458.572
26.80000 444.404
26.84000 441.553
26.88000 459.430
26.92000 437.517
26.96000 444.774
27.00000 446.473
27.04000 440.618
27.08000 434.071
27.12000 432.414
27.16000 457.038
27.20000 419.431
27.24000 439.913
27.28000 425.598
27.32000 435.937
27.36000 443.547
27.40000 438.141
27.44000 422.378
27.48000 431.311
27.52000 452.787
27.56000 426.357
27.60000 441.593
27.64000 433.002
27.68000 425.573
27.72000 423.265
27.76000 422.661
27.80000 425.983
27.84000 423.788
27.88000 435.942
27.92000 435.124
27.96000 419.005
28.00000 424.040
28.04000 431.651
28.08000 419.145
28.12000 443.755
28.16000 428.457
28.20000 433.094
28.24000 438.099
28.28000 421.061
28.32000 424.664
28.36000 446.914
28.40000 430.112
28.44000 411.389
28.48000 418.842
28.52000 422.211
28.56000 407.180
28.60000 417.365
28.64000 408.991
28.68000 444.614
28.72000 424.236
28.76000 407.698
28.80000 411.529
28.84000 415.879
28.88000 419.700
28.92000 425.712
28.96000 421.037
29.00000 422.476
29.04000 399.157
29.08000 418.086
29.12000 413.870
29.16000 409.226
29.20000 422.106
29.24000 416.893
29.28000 433.001
29.32000 407.056
29.36000 411.174
29.40000 427.428
29.44000 411.752
29.48000 407.211
29.52000 414.774
29.56000 411.577
29.60000 416.221
29.64000 402.781
29.68000 398.123
29.72000 416.983
29.76000 416.624
29.80000 409.916
29.84000 414.983
29.88000 423.489
29.92000 445.484
29.96000 437.877
30.00000 432.544
30.04000 448.068
30.08000 438.128
30.12000 451.141
30.16000 433.700
30.20000 445.760
30.24000 431.263
30.28000 436.239
30.32000 434.795
30.36000 422.996
30.40000 432.342
30.44000 411.094
30.48000 431.014
30.52000 411.626
30.56000 415.579
30.60000 413.192
30.64000 409.810
30.68000 415.666
30.72000 411.003
30.76000 430.479
30.80000 435.655
30.84000 471.380
30.88000 461.433
30.92000 468.403
30.96000 482.256
31.00000 508.961
31.04000 550.495
31.08000 658.900
31.12000 770.858
31.16000 945.362
31.20000 1220.397
31.24000 1562.627
31.28000 1893.929
31.32000 2293.311
31.36000 2571.709
31.40000 2715.047
31.44000 2714.699
31.48000 2486.865
31.52000 2212.039
31.56000 1842.765
31.60000 1499.112
31.64000 1169.920
31.68000 904.382
31.72000 764.089
31.76000 673.822
31.80000 586.636
31.84000 538.856
31.88000 502.109
31.92000 478.720
31.96000 462.016
32.00000 448.567
32.04000 429.354
32.08000 429.571
32.12000 403.461
32.16000 407.326
32.20000 410.101
32.24000 408.624
32.28000 382.027
32.32000 386.829
32.36000 393.668
32.40000 380.448
32.44000 385.182
32.48000 363.372
32.52000 400.900
32.56000 401.448
32.60000 368.630
32.64000 373.665
32.68000 368.380
32.72000 359.196
32.76000 378.018
32.80000 401.502
32.84000 427.909
32.88000 488.904
32.92000 483.971
32.96000 483.373
33.00000 471.957
33.04000 448.550
33.08000 406.998
33.12000 362.777
33.16000 367.164
33.20000 339.075
33.24000 338.478
33.28000 353.403
33.32000 345.953
33.36000 338.444
33.40000 340.294
33.44000 343.706
33.48000 341.116
33.52000 336.867
33.56000 336.034
33.60000 344.103
33.64000 323.524
33.68000 340.889
33.72000 342.262
33.76000 330.521
33.80000 352.509
33.84000 327.880
33.88000 329.479
33.92000 330.956
33.96000 329.584
34.00000 332.485
34.04000 314.154
34.08000 325.483
34.12000 325.847
34.16000 318.930
34.20000 328.083
34.24000 330.553
34.28000 316.069
34.32000 318.448
34.36000 336.607
34.40000 325.806
34.44000 336.259
34.48000 331.873
34.52000 325.349
34.56000 316.148
34.60000 319.246
34.64000 320.251
34.68000 319.719
34.72000 309.202
34.76000 313.978
34.80000 329.293
34.84000 325.242
34.88000 320.882
34.92000 306.291
34.96000 316.779
35.00000 310.066
35.04000 329.582
35.08000 314.335
35.12000 315.962
35.16000 337.174
35.20000 324.206
35.24000 312.411
35.28000 327.872
35.32000 315.193
35.36000 301.562
35.40000 311.143
35.44000 309.213
35.48000 327.152
35.52000 310.415
35.56000 307.469
35.60000 305.334
35.64000 305.754
35.68000 320.459
35.72000 307.425
35.76000 310.230
35.80000 313.322
35.84000 322.278
35.88000 292.881
35.92000 312.398
35.96000 302.574
36.00000 299.690
36.04000 290.043
36.08000 294.968
36.12000 305.024
36.16000 312.101
36.20000 294.964
36.24000 294.860
36.28000 296.738
36.32000 301.967
36.36000 287.617
36.40000 308.850
36.44000 297.889
36.48000 304.865
36.52000 301.960
36.56000 288.867
36.60000 299.352
36.64000 305.828
36.68000 312.287
36.72000 295.643
36.76000 289.836
36.80000 305.466
36.84000 282.486
36.88000 307.579
36.92000 312.326
36.96000 317.697
37.00000 312.508
37.04000 295.450
37.08000 304.451
37.12000 311.535
37.16000 326.161
37.20000 306.358
37.24000 294.653
37.28000 308.133
37.32000 297.124
37.36000 303.143
37.40000 288.111
37.44000 309.408
37.48000 289.950
37.52000 303.559
37.56000 286.750
37.60000 289.032
37.64000 292.516
37.68000 293.168
37.72000 294.780
37.76000 300.416
37.80000 296.863
37.84000 274.269
37.88000 288.410
37.92000 296.777
37.96000 314.008
38.00000 303.401
38.04000 308.542
38.08000 291.304
38.12000 295.226
38.16000 298.691
38.20000 312.490
38.24000 318.756
38.28000 340.082
38.32000 343.772
38.36000 358.977
38.40000 388.401
38.44000 451.127
38.48000 514.164
38.52000 659.410
38.56000 813.920
38.60000 1033.503
38.64000 1263.584
38.68000 1480.168
38.72000 1582.346
38.76000 1601.653
38.80000 1491.565
38.84000 1338.204
38.88000 1096.987
38.92000 881.971
38.96000 690.245
39.00000 549.178
39.04000 443.601
39.08000 393.609
39.12000 334.486
39.16000 308.032
39.20000 320.574
39.24000 315.685
39.28000 304.080
39.32000 290.667
39.36000 286.430
39.40000 273.184
39.44000 271.717
39.48000 285.499
39.52000 274.090
39.56000 280.528
39.60000 267.804
39.64000 263.144
39.68000 264.447
39.72000 268.139
39.76000 270.654
39.80000 264.915
39.84000 278.868
39.88000 267.392
39.92000 271.557
39.96000 266.878
40.00000 260.851
40.04000 263.751
40.08000 257.307
40.12000 240.578
40.16000 264.177
40.20000 270.537
40.24000 261.446
40.28000 266.272
40.32000 263.634
40.36000 253.768
40.40000 260.572
40.44000 263.835
40.48000 250.331
40.52000 251.647
40.56000 240.451
40.60000 260.426
40.64000 253.105
40.68000 250.298
40.72000 258.331
40.76000 254.709
40.80000 232.073
40.84000 231.779
40.88000 251.780
40.92000 250.592
40.96000 260.308
41.00000 251.573
41.04000 247.007
41.08000 230.709
41.12000 243.032
41.16000 231.147
41.20000 245.962
41.24000 245.072
41.28000 233.026
41.32000 238.866
41.36000 229.650
41.40000 247.046
41.44000 238.981
41.48000 243.308
41.52000 227.621
41.56000 242.925
41.60000 234.487
41.64000 229.946
41.68000 236.393
41.72000 236.427
41.76000 244.631
41.80000 242.750
41.84000 252.325
41.88000 233.555
41.92000 222.433
41.96000 231.096
42.00000 239.871
42.04000 237.684
42.08000 237.104
42.12000 247.570
42.16000 240.483
42.20000 243.412
42.24000 239.425
42.28000 236.818
42.32000 234.347
42.36000 242.674
42.40000 234.161
42.44000 238.950
42.48000 231.732
42.52000 247.294
42.56000 228.383
42.60000 229.084
42.64000 236.213
42.68000 235.660
42.72000 232.482
42.76000 231.570
42.80000 237.131
42.84000 231.855
42.88000 224.753
42.92000 238.884
42.96000 235.496
43.00000 227.830
43.04000 224.068
43.08000 231.196
43.12000 216.178
43.16000 224.092
43.20000 241.932
43.24000 213.687
43.28000 226.540
43.32000 233.164
43.36000 220.434
43.40000 217.760
43.44000 213.292
43.48000 219.240
43.52000 224.716
43.56000 219.517
43.60000 223.883
43.64000 217.803
43.68000 228.649
43.72000 216.392
43.76000 218.954
43.80000 215.382
43.84000 224.331
43.88000 215.550
43.92000 211.901
43.96000 214.767
44.00000 207.752
44.04000 219.994
44.08000 224.060
44.12000 215.508
44.16000 234.809
44.20000 216.289
44.24000 219.469
44.28000 226.091
44.32000 229.505
44.36000 213.620
44.40000 219.888
44.44000 215.299
44.48000 230.199
44.52000 223.010
44.56000 219.593
44.60000 224.259
44.64000 228.657
44.68000 243.564
44.72000 239.448
44.76000 243.769
44.80000 252.191
44.84000 243.440
44.88000 258.884
44.92000 272.735
44.96000 286.293
45.00000 295.503
45.04000 321.987
45.08000 324.572
45.12000 316.436
45.16000 320.279
45.20000 321.245
45.24000 326.180
45.28000 297.853
45.32000 298.185
45.36000 295.939
45.40000 301.712
45.44000 274.888
45.48000 258.763
45.52000 275.119
45.56000 254.576
45.60000 267.107
45.64000 258.548
45.68000 265.176
45.72000 247.560
45.76000 235.858
45.80000 237.399
45.84000 236.772
45.88000 230.659
45.92000 242.443
45.96000 226.300
46.00000 216.803
46.04000 218.520
46.08000 219.036
46.12000 205.800
46.16000 215.090
46.20000 218.676
46.24000 199.808
46.28000 214.049
46.32000 205.165
46.36000 205.602
46.40000 207.111
46.44000 205.786
46.48000 210.583
46.52000 209.627
46.56000 188.986
46.60000 211.657
46.64000 188.065
46.68000 198.207
46.72000 192.832
46.76000 190.505
46.80000 193.535
46.84000 208.787
46.88000 190.747
46.92000 192.499
46.96000 200.333
47.00000 192.780
47.04000 202.535
47.08000 190.594
47.12000 184.598
47.16000 198.911
47.20000 192.588
47.24000 187.820
47.28000 176.383
47.32000 190.450
47.36000 203.454
47.40000 189.705
47.44000 186.605
47.48000 191.943
47.52000 181.708
47.56000 163.989
47.60000 188.050
47.64000 190.825
47.68000 188.930
47.72000 180.701
47.76000 184.476
47.80000 190.422
47.84000 185.266
47.88000 189.436
47.92000 186.813
47.96000 176.206
48.00000 183.717
48.04000 188.511
48.08000 187.942
48.12000 196.494
48.16000 183.821
48.20000 171.617
48.24000 185.504
48.28000 183.455
48.32000 176.705
48.36000 176.956
48.40000 187.274
48.44000 178.085
48.48000 174.251
48.52000 175.984
48.56000 186.446
48.60000 187.152
48.64000 179.273
48.68000 179.226
48.72000 176.118
48.76000 187.313
48.80000 198.653
48.84000 185.596
48.88000 182.805
48.92000 181.627
48.96000 174.753
49.00000 180.733
49.04000 176.200
49.08000 178.762
49.12000 192.522
49.16000 179.187
49.20000 180.361
49.24000 174.915
49.28000 186.489
49.32000 172.503
49.36000 180.333
49.40000 184.381
49.44000 177.260
49.48000 187.830
49.52000 166.271
49.56000 166.969
49.60000 175.113
49.64000 168.322
49.68000 171.819
49.72000 168.195
49.76000 175.084
49.80000 181.975
49.84000 167.935
49.88000 178.446
49.92000 165.744
49.96000 178.535
50.00000 187.183
50.04000 161.540
50.08000 174.448
50.12000 201.700
50.16000 171.341
50.20000 188.982
50.24000 166.563
50.28000 179.772
50.32000 169.102
50.36000 187.370
50.40000 182.793
50.44000 217.818
50.48000 199.709
50.52000 202.282
50.56000 220.527
50.60000 228.084
50.64000 233.590
50.68000 251.379
50.72000 238.810
50.76000 224.479
50.80000 236.645
50.84000 235.574
50.88000 253.353
50.92000 217.038
50.96000 220.424
51.00000 200.459
51.04000 185.288
51.08000 197.967
51.12000 180.188
51.16000 189.489
51.20000 184.010
51.24000 179.502
51.28000 169.449
51.32000 175.986
51.36000 175.161
51.40000 175.643
51.44000 172.504
51.48000 166.675
51.52000 167.291
51.56000 169.541
51.60000 160.571
51.64000 164.942
51.68000 166.431
51.72000 163.300
51.76000 172.684
51.80000 154.563
51.84000 157.047
51.88000 167.464
51.92000 165.268
51.96000 161.176
52.00000 176.178
52.04000 162.361
52.08000 157.172
52.12000 163.086
52.16000 152.996
52.20000 166.735
52.24000 164.011
52.28000 158.752
52.32000 167.059
52.36000 167.090
52.40000 164.399
52.44000 161.653
52.48000 160.197
52.52000 169.577
52.56000 155.439
52.60000 146.367
52.64000 161.331
52.68000 149.397
52.72000 158.572
52.76000 151.622
52.80000 160.203
52.84000 158.046
52.88000 155.911
52.92000 166.261
52.96000 156.502
53.00000 162.310
53.04000 164.871
53.08000 161.860
53.12000 167.010
53.16000 154.567
53.20000 160.852
53.24000 159.399
53.28000 164.629
53.32000 168.207
53.36000 167.373
53.40000 166.926
53.44000 177.551
53.48000 166.034
53.52000 164.148
53.56000 160.934
53.60000 160.473
53.64000 164.655
53.68000 152.075
53.72000 156.060
53.76000 160.362
53.80000 155.540
53.84000 163.466
53.88000 164.091
53.92000 158.751
53.96000 158.556
54.00000 149.827
54.04000 166.231
54.08000 164.603
54.12000 152.148
54.16000 147.146
54.20000 147.210
54.24000 163.753
54.28000 149.829
54.32000 158.148
54.36000 143.818
54.40000 147.831
54.44000 152.350
54.48000 144.596
54.52000 154.947
54.56000 151.961
54.60000 165.262
54.64000 167.990
54.68000 157.285
54.72000 159.122
54.76000 157.219
54.80000 159.461
54.84000 167.355
54.88000 148.029
54.92000 155.781
54.96000 157.470
55.00000 160.638
55.04000 162.942
55.08000 155.324
55.12000 148.715
55.16000 167.916
55.20000 178.490
55.24000 174.998
55.28000 172.152
55.32000 164.943
55.36000 171.516
55.40000 170.388
55.44000 183.466
55.48000 190.339
55.52000 194.679
55.56000 217.311
55.60000 242.966
55.64000 279.971
55.68000 323.354
55.72000 380.104
55.76000 453.723
55.80000 553.806
55.84000 656.885
55.88000 747.122
55.92000 819.831
55.96000 875.845
56.00000 868.832
56.04000 860.010
56.08000 804.713
56.12000 702.330
56.16000 624.986
56.20000 514.681
56.24000 453.274
56.28000 361.018
56.32000 310.794
56.36000 269.270
56.40000 251.634
56.44000 218.416
56.48000 208.473
56.52000 193.886
56.56000 192.581
56.60000 178.893
56.64000 170.582
56.68000 159.563
56.72000 163.745
56.76000 166.564
56.80000 169.805
56.84000 154.967
56.88000 154.205
56.92000 153.177
56.96000 152.749
57.00000 153.689
57.04000 157.107
57.08000 155.272
57.12000 145.818
57.16000 137.349
57.20000 137.766
57.24000 148.366
57.28000 161.419
57.32000 155.469
57.36000 151.858
57.40000 156.111
57.44000 147.528
57.48000 132.610
57.52000 142.672
57.56000 148.811
57.60000 143.381
57.64000 135.770
57.68000 159.057
57.72000 140.801
57.76000 141.078
57.80000 145.444
57.84000 152.747
57.88000 150.205
57.92000 148.652
57.96000 143.756
58.00000 145.407
58.04000 150.777
58.08000 135.722
58.12000 145.948
58.16000 133.303
58.20000 156.568
58.24000 128.359
58.28000 147.654
58.32000 140.790
58.36000 128.691
58.40000 132.276
58.44000 133.963
58.48000 146.542
58.52000 136.916
58.56000 137.007
58.60000 136.632
58.64000 140.424
58.68000 137.185
58.72000 134.655
58.76000 135.020
58.80000 138.571
58.84000 142.119
58.88000 143.992
58.92000 129.876
58.96000 137.165
59.00000 138.422
59.04000 129.368
59.08000 136.481
59.12000 131.618
59.16000 141.077
59.20000 130.408
59.24000 129.297
59.28000 133.089
59.32000 134.449
59.36000 129.198
59.40000 129.723
59.44000 131.654
59.48000 131.752
59.52000 137.071
59.56000 142.454
59.60000 130.327
59.64000 141.810
59.68000 138.023
59.72000 141.094
59.76000 137.239
59.80000 131.500
59.84000 143.405
59.88000 131.020
59.92000 132.597
59.96000 130.683
60.00000 132.938
60.04000 128.853
60.08000 129.717
60.12000 128.053
60.16000 133.467
60.20000 135.473
60.24000 139.528
60.28000 124.638
60.32000 131.519
60.36000 128.455
60.40000 124.955
60.44000 129.561
60.48000 134.112
60.52000 127.105
60.56000 138.241
60.60000 130.012
60.64000 128.050
60.68000 131.827
60.72000 132.914
60.76000 139.977
60.80000 130.797
60.84000 139.301
60.88000 123.166
60.92000 125.715
60.96000 127.225
61.00000 135.360
61.04000 132.160
61.08000 139.021
61.12000 137.197
61.16000 126.714
61.20000 145.553
61.24000 134.875
61.28000 141.047
61.32000 138.257
61.36000 140.806
61.40000 138.970
61.44000 139.921
61.48000 132.483
61.52000 161.842
61.56000 201.994
61.60000 234.455
61.64000 271.458
61.68000 265.030
61.72000 286.986
61.76000 261.585
61.80000 218.978
61.84000 178.778
61.88000 156.309
61.92000 152.145
61.96000 141.969
62.00000 159.039
62.04000 142.529
62.08000 144.637
62.12000 140.708
62.16000 133.596
62.20000 143.407
62.24000 137.808
62.28000 136.720
62.32000 132.415
62.36000 135.565
62.40000 142.481
62.44000 139.888
62.48000 135.399
62.52000 136.222
62.56000 148.075
62.60000 145.335
62.64000 141.905
62.68000 147.091
62.72000 139.213
62.76000 140.626
62.80000 143.089
62.84000 146.692
62.88000 144.488
62.92000 130.455
62.96000 136.866
63.00000 139.376
63.04000 140.136
63.08000 144.299
63.12000 151.601
63.16000 140.724
63.20000 146.222
63.24000 134.335
63.28000 138.380
63.32000 141.654
63.36000 147.209
63.40000 138.583
63.44000 143.270
63.48000 155.061
63.52000 146.650
63.56000 134.633
63.60000 152.907
63.64000 141.563
63.68000 155.266
63.72000 143.896
63.76000 147.327
63.80000 145.835
63.84000 142.983
63.88000 157.954
63.92000 150.466
63.96000 147.487
64.00000 149.026
64.04000 149.350
64.08000 162.101
64.12000 151.017
64.16000 158.665
64.20000 153.518
64.24000 155.049
64.28000 162.137
64.32000 162.157
64.36000 162.304
64.40000 156.593
64.44000 162.993
64.48000 176.989
64.52000 173.284
64.56000 179.283
64.60000 168.349
64.64000 166.200
64.68000 155.379
64.72000 164.380
64.76000 163.014
64.80000 175.876
64.84000 182.523
64.88000 168.012
64.92000 181.555
64.96000 177.947
65.00000 181.824
65.04000 192.174
65.08000 195.992
65.12000 195.194
65.16000 199.299
65.20000 215.322
65.24000 232.707
65.28000 251.015
65.32000 249.204
65.36000 269.294
65.40000 282.295
65.44000 296.556
65.48000 313.159
65.52000 343.001
65.56000 359.938
65.60000 388.121
65.64000 435.135
65.68000 479.021
65.72000 617.439
65.76000 817.512
65.80000 1009.429
65.84000 1118.801
65.88000 1131.812
65.92000 1145.043
65.96000 953.158
66.00000 730.745
66.04000 505.407
66.08000 389.951
66.12000 325.559
66.16000 308.415
66.20000 313.226
66.24000 331.729
66.28000 342.967
66.32000 390.652
66.36000 416.343
66.40000 451.385
66.44000 461.951
66.48000 447.655
66.52000 398.011
66.56000 342.378
66.60000 332.520
66.64000 320.009
66.68000 307.921
66.72000 312.583
66.76000 308.556
66.80000 302.968
66.84000 334.269
66.88000 320.028
66.92000 337.617
66.96000 321.473
67.00000 337.238
67.04000 356.016
67.08000 349.345
67.12000 355.243
67.16000 374.130
67.20000 378.593
67.24000 368.629
67.28000 365.703
67.32000 377.725
67.36000 379.917
67.40000 384.308
67.44000 409.844
67.48000 407.143
67.52000 409.110
67.56000 429.433
67.60000 434.144
67.64000 427.802
67.68000 431.426
67.72000 454.446
67.76000 467.931
67.80000 472.087
67.84000 483.265
67.88000 490.695
67.92000 487.286
67.96000 504.574
68.00000 511.144
68.04000 527.431
68.08000 536.471
68.12000 544.926
68.16000 559.604
68.20000 562.239
68.24000 585.211
68.28000 610.827
68.32000 636.452
68.36000 637.000
68.40000 662.122
68.44000 698.040
68.48000 729.652
68.52000 747.871
68.56000 847.023
68.60000 945.250
68.64000 1052.135
68.68000 1236.849
68.72000 1451.813
68.76000 1700.774
68.80000 1906.639
68.84000 2254.220
68.88000 2848.374
68.92000 4415.449
68.96000 11627.416
69.00000 26592.270
69.04000 43755.609
69.08000 53117.266
69.12000 55652.660
69.16000 57592.484
69.20000 58395.703
69.24000 49943.016
69.28000 37626.172
69.32000 30565.041
69.36000 27599.369
69.40000 23190.115
69.44000 15307.856
69.48000 6987.385
69.52000 3167.098
69.56000 1891.634
69.60000 1478.335
69.64000 1209.464
69.68000 1079.250
69.72000 963.280
69.76000 894.581
69.80000 822.351
69.84000 789.948
69.88000 751.446
69.92000 704.451
69.96000 681.163
70.00000 636.675