File: XRD/24-09-2025 Dep 3/XY Data/BTO_Mapping_Theta2Theta_24-09-2025_001_05_40-000_0-000.xy
20.00000 545.480
20.04000 549.243
20.08000 557.773
20.12000 552.617
20.16000 572.090
20.20000 558.404
20.24000 573.070
20.28000 540.261
20.32000 573.763
20.36000 568.094
20.40000 554.985
20.44000 550.643
20.48000 557.854
20.52000 580.580
20.56000 554.892
20.60000 571.202
20.64000 568.570
20.68000 546.015
20.72000 558.597
20.76000 560.689
20.80000 562.513
20.84000 555.147
20.88000 541.632
20.92000 550.897
20.96000 535.747
21.00000 547.282
21.04000 529.916
21.08000 557.027
21.12000 551.969
21.16000 553.066
21.20000 559.278
21.24000 572.654
21.28000 555.654
21.32000 570.500
21.36000 568.619
21.40000 554.565
21.44000 566.843
21.48000 560.334
21.52000 551.198
21.56000 542.340
21.60000 564.807
21.64000 562.661
21.68000 572.809
21.72000 580.838
21.76000 557.794
21.80000 580.559
21.84000 586.419
21.88000 601.045
21.92000 603.803
21.96000 599.449
22.00000 607.561
22.04000 611.274
22.08000 636.848
22.12000 627.837
22.16000 588.728
22.20000 593.447
22.24000 597.512
22.28000 580.904
22.32000 574.360
22.36000 565.722
22.40000 557.924
22.44000 563.829
22.48000 545.478
22.52000 529.929
22.56000 526.875
22.60000 541.018
22.64000 530.232
22.68000 534.418
22.72000 517.349
22.76000 547.396
22.80000 524.056
22.84000 520.449
22.88000 518.542
22.92000 543.558
22.96000 527.025
23.00000 534.829
23.04000 539.142
23.08000 528.429
23.12000 516.817
23.16000 523.908
23.20000 506.487
23.24000 517.585
23.28000 509.382
23.32000 517.492
23.36000 507.037
23.40000 532.310
23.44000 516.999
23.48000 520.815
23.52000 530.126
23.56000 520.835
23.60000 535.644
23.64000 528.026
23.68000 531.836
23.72000 553.276
23.76000 561.433
23.80000 546.186
23.84000 568.875
23.88000 547.215
23.92000 561.089
23.96000 569.394
24.00000 580.359
24.04000 548.559
24.08000 550.484
24.12000 564.019
24.16000 550.318
24.20000 532.583
24.24000 530.398
24.28000 521.459
24.32000 515.466
24.36000 503.330
24.40000 510.718
24.44000 496.127
24.48000 503.083
24.52000 478.922
24.56000 499.966
24.60000 484.824
24.64000 504.388
24.68000 481.961
24.72000 499.925
24.76000 513.553
24.80000 493.240
24.84000 493.431
24.88000 489.953
24.92000 490.260
24.96000 481.635
25.00000 489.789
25.04000 475.533
25.08000 496.471
25.12000 467.023
25.16000 469.072
25.20000 482.461
25.24000 479.236
25.28000 504.185
25.32000 488.055
25.36000 479.617
25.40000 468.299
25.44000 459.884
25.48000 454.429
25.52000 462.928
25.56000 455.845
25.60000 469.446
25.64000 466.611
25.68000 473.122
25.72000 469.368
25.76000 462.308
25.80000 471.491
25.84000 472.094
25.88000 472.825
25.92000 464.273
25.96000 453.893
26.00000 461.175
26.04000 451.409
26.08000 453.751
26.12000 469.858
26.16000 452.127
26.20000 437.091
26.24000 470.144
26.28000 445.382
26.32000 458.632
26.36000 463.888
26.40000 449.676
26.44000 446.545
26.48000 448.702
26.52000 431.243
26.56000 447.555
26.60000 454.254
26.64000 450.644
26.68000 466.922
26.72000 458.473
26.76000 443.773
26.80000 461.318
26.84000 440.599
26.88000 434.787
26.92000 437.855
26.96000 446.335
27.00000 449.029
27.04000 435.792
27.08000 436.537
27.12000 458.326
27.16000 446.690
27.20000 421.610
27.24000 459.959
27.28000 435.694
27.32000 430.230
27.36000 438.588
27.40000 452.930
27.44000 452.481
27.48000 441.785
27.52000 434.346
27.56000 434.884
27.60000 433.111
27.64000 467.368
27.68000 448.241
27.72000 459.818
27.76000 434.360
27.80000 441.535
27.84000 449.620
27.88000 454.995
27.92000 436.161
27.96000 440.696
28.00000 439.317
28.04000 435.165
28.08000 434.070
28.12000 430.845
28.16000 426.443
28.20000 429.322
28.24000 439.490
28.28000 425.259
28.32000 438.399
28.36000 439.948
28.40000 427.031
28.44000 434.129
28.48000 431.225
28.52000 429.605
28.56000 431.450
28.60000 431.533
28.64000 419.263
28.68000 442.945
28.72000 426.945
28.76000 438.995
28.80000 430.279
28.84000 421.127
28.88000 426.195
28.92000 413.313
28.96000 412.176
29.00000 409.715
29.04000 425.620
29.08000 440.115
29.12000 415.383
29.16000 416.006
29.20000 423.060
29.24000 431.059
29.28000 428.181
29.32000 403.513
29.36000 408.638
29.40000 413.796
29.44000 427.442
29.48000 420.935
29.52000 417.321
29.56000 417.579
29.60000 418.497
29.64000 413.740
29.68000 418.338
29.72000 431.795
29.76000 414.959
29.80000 411.097
29.84000 423.595
29.88000 406.783
29.92000 410.546
29.96000 432.248
30.00000 414.482
30.04000 424.046
30.08000 436.850
30.12000 428.173
30.16000 412.174
30.20000 406.957
30.24000 421.351
30.28000 419.494
30.32000 428.809
30.36000 404.224
30.40000 423.463
30.44000 419.580
30.48000 426.870
30.52000 424.144
30.56000 431.046
30.60000 425.141
30.64000 427.100
30.68000 440.303
30.72000 455.129
30.76000 441.390
30.80000 436.180
30.84000 460.970
30.88000 476.876
30.92000 467.829
30.96000 508.551
31.00000 505.312
31.04000 519.086
31.08000 584.257
31.12000 652.038
31.16000 697.500
31.20000 791.261
31.24000 882.867
31.28000 969.489
31.32000 1063.248
31.36000 1079.511
31.40000 1102.808
31.44000 1125.667
31.48000 1057.135
31.52000 967.467
31.56000 877.622
31.60000 789.276
31.64000 695.743
31.68000 629.526
31.72000 559.750
31.76000 520.360
31.80000 520.412
31.84000 466.634
31.88000 468.873
31.92000 445.097
31.96000 422.261
32.00000 437.417
32.04000 422.368
32.08000 423.787
32.12000 424.203
32.16000 393.849
32.20000 401.594
32.24000 405.760
32.28000 398.838
32.32000 411.477
32.36000 400.284
32.40000 399.908
32.44000 397.878
32.48000 398.569
32.52000 386.021
32.56000 385.688
32.60000 378.959
32.64000 391.914
32.68000 378.855
32.72000 386.858
32.76000 382.915
32.80000 383.896
32.84000 413.038
32.88000 459.745
32.92000 482.958
32.96000 469.953
33.00000 456.198
33.04000 442.214
33.08000 414.239
33.12000 378.987
33.16000 350.735
33.20000 360.167
33.24000 351.682
33.28000 347.338
33.32000 327.053
33.36000 353.695
33.40000 354.990
33.44000 345.566
33.48000 345.570
33.52000 352.399
33.56000 359.880
33.60000 342.421
33.64000 374.244
33.68000 356.168
33.72000 353.317
33.76000 332.906
33.80000 343.554
33.84000 349.397
33.88000 348.719
33.92000 367.947
33.96000 356.015
34.00000 368.732
34.04000 355.060
34.08000 354.485
34.12000 379.749
34.16000 364.750
34.20000 373.799
34.24000 374.382
34.28000 384.685
34.32000 363.116
34.36000 366.674
34.40000 373.043
34.44000 362.687
34.48000 351.714
34.52000 353.709
34.56000 334.532
34.60000 349.689
34.64000 350.568
34.68000 340.738
34.72000 334.441
34.76000 335.353
34.80000 315.267
34.84000 329.545
34.88000 326.811
34.92000 333.730
34.96000 330.252
35.00000 333.376
35.04000 329.013
35.08000 324.037
35.12000 318.779
35.16000 318.972
35.20000 328.318
35.24000 325.844
35.28000 311.249
35.32000 321.364
35.36000 314.151
35.40000 318.305
35.44000 309.756
35.48000 313.676
35.52000 322.885
35.56000 312.858
35.60000 307.249
35.64000 318.102
35.68000 313.681
35.72000 309.206
35.76000 320.666
35.80000 300.987
35.84000 312.157
35.88000 304.154
35.92000 311.614
35.96000 310.836
36.00000 312.373
36.04000 293.454
36.08000 292.576
36.12000 312.050
36.16000 308.038
36.20000 291.487
36.24000 290.952
36.28000 304.698
36.32000 302.238
36.36000 303.726
36.40000 315.505
36.44000 277.244
36.48000 294.943
36.52000 313.100
36.56000 296.479
36.60000 302.412
36.64000 304.727
36.68000 309.457
36.72000 309.111
36.76000 295.378
36.80000 298.879
36.84000 301.102
36.88000 306.943
36.92000 318.668
36.96000 315.100
37.00000 309.821
37.04000 301.695
37.08000 307.225
37.12000 300.026
37.16000 302.314
37.20000 293.318
37.24000 291.895
37.28000 309.979
37.32000 302.357
37.36000 295.327
37.40000 294.337
37.44000 298.998
37.48000 296.754
37.52000 302.682
37.56000 300.516
37.60000 300.209
37.64000 290.193
37.68000 293.376
37.72000 304.833
37.76000 304.765
37.80000 292.483
37.84000 312.343
37.88000 292.230
37.92000 292.754
37.96000 284.259
38.00000 308.015
38.04000 310.865
38.08000 310.431
38.12000 317.075
38.16000 311.027
38.20000 314.858
38.24000 324.814
38.28000 339.324
38.32000 353.820
38.36000 389.081
38.40000 392.572
38.44000 447.339
38.48000 504.770
38.52000 602.815
38.56000 666.495
38.60000 789.961
38.64000 890.722
38.68000 948.801
38.72000 947.904
38.76000 939.080
38.80000 847.511
38.84000 770.151
38.88000 654.400
38.92000 585.177
38.96000 479.278
39.00000 416.646
39.04000 361.500
39.08000 332.115
39.12000 330.052
39.16000 327.253
39.20000 286.505
39.24000 297.289
39.28000 284.779
39.32000 289.911
39.36000 295.653
39.40000 292.535
39.44000 289.320
39.48000 301.944
39.52000 271.568
39.56000 284.822
39.60000 290.216
39.64000 281.669
39.68000 269.069
39.72000 267.088
39.76000 272.616
39.80000 272.566
39.84000 277.544
39.88000 268.336
39.92000 278.440
39.96000 260.250
40.00000 257.133
40.04000 255.071
40.08000 258.540
40.12000 270.724
40.16000 271.689
40.20000 256.473
40.24000 260.837
40.28000 264.039
40.32000 253.369
40.36000 258.112
40.40000 264.581
40.44000 266.779
40.48000 258.796
40.52000 255.150
40.56000 254.567
40.60000 262.763
40.64000 263.706
40.68000 241.828
40.72000 243.599
40.76000 254.700
40.80000 256.920
40.84000 251.826
40.88000 249.523
40.92000 248.677
40.96000 243.584
41.00000 255.480
41.04000 240.899
41.08000 234.051
41.12000 246.953
41.16000 246.865
41.20000 245.028
41.24000 247.249
41.28000 248.405
41.32000 244.483
41.36000 248.689
41.40000 241.740
41.44000 251.685
41.48000 231.947
41.52000 250.097
41.56000 229.502
41.60000 239.504
41.64000 244.506
41.68000 251.930
41.72000 248.820
41.76000 249.176
41.80000 260.133
41.84000 244.194
41.88000 244.758
41.92000 257.066
41.96000 255.390
42.00000 256.871
42.04000 251.720
42.08000 241.755
42.12000 238.918
42.16000 266.688
42.20000 259.311
42.24000 263.812
42.28000 262.128
42.32000 249.677
42.36000 250.897
42.40000 251.752
42.44000 248.796
42.48000 234.974
42.52000 247.247
42.56000 241.725
42.60000 250.990
42.64000 234.766
42.68000 238.852
42.72000 247.958
42.76000 240.393
42.80000 231.213
42.84000 246.020
42.88000 238.611
42.92000 233.938
42.96000 231.067
43.00000 238.922
43.04000 245.108
43.08000 235.115
43.12000 230.000
43.16000 229.786
43.20000 244.445
43.24000 222.731
43.28000 238.492
43.32000 225.798
43.36000 228.160
43.40000 222.255
43.44000 232.928
43.48000 236.870
43.52000 231.497
43.56000 223.046
43.60000 229.196
43.64000 218.819
43.68000 232.956
43.72000 233.470
43.76000 230.204
43.80000 240.277
43.84000 217.918
43.88000 227.293
43.92000 226.084
43.96000 233.842
44.00000 222.405
44.04000 222.664
44.08000 222.725
44.12000 237.763
44.16000 230.537
44.20000 235.541
44.24000 233.929
44.28000 216.995
44.32000 234.426
44.36000 232.716
44.40000 242.793
44.44000 237.949
44.48000 234.283
44.52000 241.089
44.56000 236.430
44.60000 255.596
44.64000 251.615
44.68000 250.781
44.72000 256.908
44.76000 258.953
44.80000 261.905
44.84000 265.221
44.88000 264.986
44.92000 278.867
44.96000 267.578
45.00000 278.374
45.04000 290.810
45.08000 275.115
45.12000 284.047
45.16000 273.677
45.20000 271.194
45.24000 261.770
45.28000 267.059
45.32000 253.105
45.36000 246.984
45.40000 250.909
45.44000 253.353
45.48000 240.251
45.52000 225.732
45.56000 234.239
45.60000 229.875
45.64000 223.751
45.68000 232.980
45.72000 227.994
45.76000 219.302
45.80000 213.391
45.84000 212.023
45.88000 214.973
45.92000 229.990
45.96000 212.135
46.00000 214.629
46.04000 208.608
46.08000 210.239
46.12000 209.231
46.16000 203.391
46.20000 198.011
46.24000 200.128
46.28000 199.248
46.32000 208.726
46.36000 201.946
46.40000 202.111
46.44000 210.428
46.48000 213.909
46.52000 199.851
46.56000 198.745
46.60000 198.627
46.64000 204.572
46.68000 209.174
46.72000 210.212
46.76000 207.808
46.80000 213.381
46.84000 198.345
46.88000 196.277
46.92000 198.900
46.96000 194.918
47.00000 201.255
47.04000 189.167
47.08000 201.665
47.12000 192.478
47.16000 200.084
47.20000 195.661
47.24000 194.567
47.28000 185.502
47.32000 183.703
47.36000 187.117
47.40000 196.028
47.44000 188.760
47.48000 182.777
47.52000 192.608
47.56000 203.301
47.60000 194.400
47.64000 186.606
47.68000 186.883
47.72000 201.302
47.76000 177.982
47.80000 186.890
47.84000 189.522
47.88000 185.290
47.92000 189.099
47.96000 184.448
48.00000 187.549
48.04000 185.619
48.08000 182.205
48.12000 181.984
48.16000 179.559
48.20000 184.480
48.24000 176.751
48.28000 182.207
48.32000 177.955
48.36000 189.868
48.40000 186.093
48.44000 185.340
48.48000 181.634
48.52000 199.446
48.56000 193.440
48.60000 181.309
48.64000 183.626
48.68000 182.239
48.72000 174.971
48.76000 179.716
48.80000 181.228
48.84000 189.815
48.88000 189.592
48.92000 179.683
48.96000 181.048
49.00000 180.938
49.04000 186.402
49.08000 192.333
49.12000 179.489
49.16000 176.245
49.20000 184.733
49.24000 176.440
49.28000 183.805
49.32000 178.467
49.36000 177.729
49.40000 188.880
49.44000 179.133
49.48000 179.130
49.52000 165.520
49.56000 185.256
49.60000 184.594
49.64000 176.580
49.68000 171.967
49.72000 165.510
49.76000 182.003
49.80000 167.743
49.84000 179.386
49.88000 166.704
49.92000 168.661
49.96000 174.299
50.00000 181.923
50.04000 182.005
50.08000 178.330
50.12000 187.862
50.16000 169.220
50.20000 185.788
50.24000 180.393
50.28000 185.803
50.32000 175.900
50.36000 175.218
50.40000 192.494
50.44000 181.599
50.48000 186.747
50.52000 186.342
50.56000 202.338
50.60000 192.723
50.64000 201.272
50.68000 201.210
50.72000 198.823
50.76000 191.804
50.80000 196.472
50.84000 178.728
50.88000 188.411
50.92000 181.647
50.96000 186.233
51.00000 181.517
51.04000 185.211
51.08000 168.504
51.12000 180.953
51.16000 169.980
51.20000 172.091
51.24000 167.771
51.28000 163.745
51.32000 169.816
51.36000 180.775
51.40000 175.686
51.44000 175.610
51.48000 165.433
51.52000 179.914
51.56000 175.860
51.60000 174.551
51.64000 168.445
51.68000 163.302
51.72000 161.833
51.76000 163.275
51.80000 166.748
51.84000 164.589
51.88000 170.774
51.92000 167.157
51.96000 170.191
52.00000 159.147
52.04000 176.088
52.08000 163.946
52.12000 171.719
52.16000 168.446
52.20000 167.126
52.24000 165.031
52.28000 164.158
52.32000 159.700
52.36000 164.590
52.40000 162.341
52.44000 151.982
52.48000 160.911
52.52000 166.544
52.56000 157.901
52.60000 159.047
52.64000 161.753
52.68000 164.331
52.72000 173.791
52.76000 163.160
52.80000 163.123
52.84000 167.821
52.88000 163.331
52.92000 164.308
52.96000 159.528
53.00000 160.439
53.04000 167.182
53.08000 169.380
53.12000 163.674
53.16000 154.717
53.20000 157.542
53.24000 170.000
53.28000 154.386
53.32000 167.037
53.36000 162.613
53.40000 162.958
53.44000 167.103
53.48000 167.490
53.52000 170.081
53.56000 161.552
53.60000 161.744
53.64000 157.840
53.68000 156.862
53.72000 164.939
53.76000 168.385
53.80000 164.516
53.84000 151.425
53.88000 155.216
53.92000 158.166
53.96000 169.373
54.00000 161.296
54.04000 153.542
54.08000 148.474
54.12000 170.915
54.16000 169.521
54.20000 165.157
54.24000 154.917
54.28000 161.855
54.32000 160.188
54.36000 162.891
54.40000 161.677
54.44000 162.416
54.48000 157.282
54.52000 158.189
54.56000 164.360
54.60000 160.644
54.64000 165.665
54.68000 158.421
54.72000 162.057
54.76000 163.048
54.80000 156.403
54.84000 163.900
54.88000 157.211
54.92000 176.925
54.96000 167.301
55.00000 182.089
55.04000 167.493
55.08000 172.555
55.12000 164.160
55.16000 177.912
55.20000 183.507
55.24000 182.762
55.28000 183.179
55.32000 194.523
55.36000 189.793
55.40000 181.992
55.44000 204.956
55.48000 214.908
55.52000 229.490
55.56000 240.412
55.60000 270.006
55.64000 287.309
55.68000 319.298
55.72000 335.870
55.76000 356.410
55.80000 390.323
55.84000 434.621
55.88000 455.404
55.92000 465.889
55.96000 450.692
56.00000 445.034
56.04000 441.076
56.08000 428.735
56.12000 377.561
56.16000 364.703
56.20000 321.297
56.24000 307.169
56.28000 294.464
56.32000 253.023
56.36000 240.694
56.40000 219.752
56.44000 219.978
56.48000 191.853
56.52000 193.412
56.56000 184.293
56.60000 175.524
56.64000 183.446
56.68000 171.284
56.72000 172.090
56.76000 170.395
56.80000 163.760
56.84000 165.295
56.88000 154.450
56.92000 162.524
56.96000 149.901
57.00000 154.888
57.04000 167.785
57.08000 156.133
57.12000 147.145
57.16000 153.981
57.20000 155.515
57.24000 148.565
57.28000 152.804
57.32000 149.544
57.36000 138.380
57.40000 143.015
57.44000 148.036
57.48000 162.178
57.52000 144.453
57.56000 152.244
57.60000 150.536
57.64000 145.511
57.68000 153.320
57.72000 144.942
57.76000 145.297
57.80000 156.110
57.84000 145.813
57.88000 144.399
57.92000 144.649
57.96000 143.320
58.00000 141.381
58.04000 155.263
58.08000 138.070
58.12000 135.841
58.16000 142.036
58.20000 149.534
58.24000 146.613
58.28000 137.799
58.32000 143.658
58.36000 144.546
58.40000 134.677
58.44000 144.094
58.48000 141.598
58.52000 134.723
58.56000 140.058
58.60000 148.871
58.64000 137.092
58.68000 146.012
58.72000 134.161
58.76000 129.992
58.80000 140.063
58.84000 144.026
58.88000 146.224
58.92000 145.292
58.96000 135.403
59.00000 139.366
59.04000 132.082
59.08000 128.357
59.12000 139.569
59.16000 134.896
59.20000 139.674
59.24000 138.425
59.28000 134.858
59.32000 141.766
59.36000 136.351
59.40000 137.849
59.44000 141.034
59.48000 128.330
59.52000 131.818
59.56000 136.804
59.60000 139.993
59.64000 131.846
59.68000 132.195
59.72000 136.283
59.76000 128.834
59.80000 132.783
59.84000 116.178
59.88000 133.502
59.92000 137.755
59.96000 139.254
60.00000 141.377
60.04000 126.775
60.08000 136.972
60.12000 134.128
60.16000 148.218
60.20000 135.831
60.24000 141.652
60.28000 127.513
60.32000 140.273
60.36000 143.870
60.40000 129.622
60.44000 132.940
60.48000 134.781
60.52000 140.395
60.56000 128.520
60.60000 140.669
60.64000 135.128
60.68000 134.513
60.72000 138.953
60.76000 122.967
60.80000 133.134
60.84000 142.370
60.88000 136.285
60.92000 132.591
60.96000 144.903
61.00000 138.730
61.04000 136.940
61.08000 140.673
61.12000 140.915
61.16000 132.751
61.20000 142.230
61.24000 140.118
61.28000 141.751
61.32000 135.055
61.36000 125.986
61.40000 147.214
61.44000 138.769
61.48000 140.320
61.52000 157.810
61.56000 188.074
61.60000 240.301
61.64000 263.001
61.68000 266.716
61.72000 279.352
61.76000 244.838
61.80000 233.506
61.84000 173.026
61.88000 157.339
61.92000 158.209
61.96000 145.397
62.00000 139.925
62.04000 150.233
62.08000 148.088
62.12000 143.246
62.16000 140.941
62.20000 146.130
62.24000 142.368
62.28000 146.072
62.32000 141.405
62.36000 152.677
62.40000 151.010
62.44000 146.408
62.48000 141.690
62.52000 147.149
62.56000 146.632
62.60000 143.352
62.64000 147.961
62.68000 159.766
62.72000 155.331
62.76000 138.203
62.80000 143.308
62.84000 146.045
62.88000 146.450
62.92000 148.551
62.96000 138.138
63.00000 144.550
63.04000 152.817
63.08000 144.073
63.12000 144.836
63.16000 148.751
63.20000 145.687
63.24000 147.786
63.28000 156.632
63.32000 142.108
63.36000 151.009
63.40000 153.213
63.44000 141.560
63.48000 142.881
63.52000 149.556
63.56000 152.125
63.60000 156.492
63.64000 144.671
63.68000 155.390
63.72000 156.057
63.76000 153.836
63.80000 152.923
63.84000 151.699
63.88000 150.696
63.92000 150.650
63.96000 152.279
64.00000 149.599
64.04000 161.328
64.08000 157.505
64.12000 159.083
64.16000 158.803
64.20000 160.867
64.24000 166.030
64.28000 172.048
64.32000 161.013
64.36000 157.761
64.40000 163.098
64.44000 164.585
64.48000 159.503
64.52000 161.528
64.56000 159.953
64.60000 163.733
64.64000 175.141
64.68000 173.313
64.72000 173.374
64.76000 169.071
64.80000 173.638
64.84000 181.635
64.88000 176.344
64.92000 184.549
64.96000 192.868
65.00000 187.965
65.04000 195.074
65.08000 200.898
65.12000 201.960
65.16000 196.445
65.20000 193.951
65.24000 213.762
65.28000 221.561
65.32000 226.241
65.36000 218.167
65.40000 233.901
65.44000 232.952
65.48000 242.652
65.52000 254.625
65.56000 251.152
65.60000 283.972
65.64000 314.560
65.68000 383.274
65.72000 477.175
65.76000 705.840
65.80000 898.699
65.84000 979.205
65.88000 1064.973
65.92000 1041.631
65.96000 900.290
66.00000 661.884
66.04000 467.413
66.08000 337.285
66.12000 309.427
66.16000 293.611
66.20000 295.312
66.24000 294.831
66.28000 329.723
66.32000 373.754
66.36000 409.706
66.40000 430.664
66.44000 427.431
66.48000 438.119
66.52000 396.119
66.56000 382.761
66.60000 336.199
66.64000 306.101
66.68000 316.260
66.72000 316.533
66.76000 327.585
66.80000 334.863
66.84000 322.312
66.88000 321.582
66.92000 327.833
66.96000 339.912
67.00000 340.783
67.04000 370.044
67.08000 340.181
67.12000 341.252
67.16000 360.975
67.20000 363.536
67.24000 365.469
67.28000 370.871
67.32000 364.307
67.36000 391.394
67.40000 382.806
67.44000 400.192
67.48000 404.942
67.52000 434.442
67.56000 436.763
67.60000 434.821
67.64000 446.228
67.68000 445.185
67.72000 443.024
67.76000 456.045
67.80000 456.186
67.84000 489.764
67.88000 505.512
67.92000 512.356
67.96000 515.644
68.00000 519.643
68.04000 515.357
68.08000 528.361
68.12000 544.321
68.16000 578.132
68.20000 571.742
68.24000 593.690
68.28000 599.253
68.32000 612.329
68.36000 654.047
68.40000 666.268
68.44000 662.605
68.48000 711.500
68.52000 762.044
68.56000 810.924
68.60000 923.726
68.64000 1050.245
68.68000 1261.628
68.72000 1397.271
68.76000 1615.011
68.80000 1832.789
68.84000 2051.956
68.88000 2507.148
68.92000 3807.870
68.96000 10540.600
69.00000 24995.109
69.04000 41973.711
69.08000 50911.246
69.12000 52976.770
69.16000 55003.309
69.20000 55694.789
69.24000 48007.504
69.28000 36073.258
69.32000 28957.938
69.36000 26313.492
69.40000 22200.662
69.44000 14769.354
69.48000 6508.797
69.52000 2918.611
69.56000 1774.017
69.60000 1392.052
69.64000 1208.153
69.68000 1044.394
69.72000 969.643
69.76000 865.747
69.80000 816.875
69.84000 779.976
69.88000 743.656
69.92000 689.950
69.96000 658.835
70.00000 649.667