File: XRD/24-09-2025 Dep 3/XY Data/BTO_Mapping_Theta2Theta_24-09-2025_001_15_6-180_19-021.xy
20.00000 558.772
20.04000 565.214
20.08000 570.100
20.12000 565.017
20.16000 563.550
20.20000 561.758
20.24000 554.740
20.28000 557.400
20.32000 538.960
20.36000 537.735
20.40000 533.627
20.44000 549.409
20.48000 546.052
20.52000 545.631
20.56000 550.665
20.60000 563.552
20.64000 547.265
20.68000 551.851
20.72000 560.225
20.76000 535.816
20.80000 533.269
20.84000 525.986
20.88000 550.050
20.92000 539.913
20.96000 545.597
21.00000 542.361
21.04000 556.462
21.08000 548.996
21.12000 547.270
21.16000 558.429
21.20000 557.066
21.24000 576.846
21.28000 545.435
21.32000 518.389
21.36000 541.585
21.40000 542.165
21.44000 543.541
21.48000 539.980
21.52000 541.345
21.56000 538.814
21.60000 517.214
21.64000 552.754
21.68000 557.598
21.72000 555.850
21.76000 568.383
21.80000 558.365
21.84000 568.348
21.88000 556.177
21.92000 593.131
21.96000 587.189
22.00000 584.906
22.04000 631.684
22.08000 626.069
22.12000 619.935
22.16000 611.163
22.20000 620.459
22.24000 620.753
22.28000 588.240
22.32000 593.691
22.36000 591.779
22.40000 577.418
22.44000 553.709
22.48000 565.737
22.52000 554.386
22.56000 535.238
22.60000 540.748
22.64000 517.774
22.68000 523.969
22.72000 508.933
22.76000 514.322
22.80000 533.308
22.84000 521.950
22.88000 507.526
22.92000 514.735
22.96000 524.063
23.00000 492.145
23.04000 508.347
23.08000 511.523
23.12000 521.784
23.16000 507.235
23.20000 537.523
23.24000 494.781
23.28000 505.811
23.32000 497.883
23.36000 498.701
23.40000 514.554
23.44000 513.671
23.48000 500.852
23.52000 521.117
23.56000 486.501
23.60000 476.466
23.64000 477.032
23.68000 502.426
23.72000 497.363
23.76000 501.725
23.80000 494.724
23.84000 503.098
23.88000 480.673
23.92000 476.783
23.96000 496.447
24.00000 480.218
24.04000 489.790
24.08000 494.440
24.12000 509.388
24.16000 474.560
24.20000 485.833
24.24000 482.311
24.28000 482.772
24.32000 486.226
24.36000 477.890
24.40000 492.502
24.44000 499.753
24.48000 475.235
24.52000 483.719
24.56000 458.269
24.60000 489.965
24.64000 491.088
24.68000 472.151
24.72000 470.506
24.76000 503.534
24.80000 488.257
24.84000 444.390
24.88000 498.184
24.92000 468.066
24.96000 481.844
25.00000 464.000
25.04000 472.187
25.08000 488.671
25.12000 475.771
25.16000 460.563
25.20000 483.056
25.24000 456.315
25.28000 463.709
25.32000 486.448
25.36000 455.514
25.40000 463.837
25.44000 447.850
25.48000 490.025
25.52000 476.357
25.56000 466.946
25.60000 473.201
25.64000 459.891
25.68000 454.172
25.72000 452.002
25.76000 441.827
25.80000 462.809
25.84000 452.462
25.88000 447.542
25.92000 478.241
25.96000 468.847
26.00000 458.363
26.04000 466.917
26.08000 463.294
26.12000 443.526
26.16000 443.659
26.20000 439.917
26.24000 457.537
26.28000 449.190
26.32000 458.341
26.36000 451.722
26.40000 447.252
26.44000 441.244
26.48000 440.300
26.52000 447.410
26.56000 446.929
26.60000 469.500
26.64000 454.406
26.68000 450.299
26.72000 451.522
26.76000 446.074
26.80000 451.863
26.84000 476.161
26.88000 435.513
26.92000 440.002
26.96000 434.369
27.00000 430.435
27.04000 453.875
27.08000 442.755
27.12000 431.568
27.16000 430.529
27.20000 438.213
27.24000 445.236
27.28000 427.329
27.32000 424.412
27.36000 434.203
27.40000 430.057
27.44000 443.186
27.48000 446.043
27.52000 444.935
27.56000 422.687
27.60000 437.896
27.64000 443.712
27.68000 427.098
27.72000 431.314
27.76000 446.759
27.80000 433.474
27.84000 425.583
27.88000 408.404
27.92000 423.057
27.96000 433.831
28.00000 422.227
28.04000 415.867
28.08000 439.841
28.12000 412.632
28.16000 434.466
28.20000 415.739
28.24000 415.130
28.28000 429.928
28.32000 419.022
28.36000 439.087
28.40000 426.325
28.44000 423.207
28.48000 424.048
28.52000 407.103
28.56000 428.476
28.60000 421.261
28.64000 411.893
28.68000 399.490
28.72000 399.516
28.76000 409.492
28.80000 416.016
28.84000 414.941
28.88000 398.720
28.92000 400.659
28.96000 403.262
29.00000 397.634
29.04000 401.686
29.08000 402.790
29.12000 429.882
29.16000 420.275
29.20000 412.552
29.24000 411.782
29.28000 404.781
29.32000 398.617
29.36000 396.341
29.40000 394.801
29.44000 401.640
29.48000 419.193
29.52000 407.148
29.56000 422.382
29.60000 404.056
29.64000 398.358
29.68000 414.626
29.72000 420.821
29.76000 406.290
29.80000 412.184
29.84000 408.117
29.88000 426.622
29.92000 429.392
29.96000 435.145
30.00000 436.431
30.04000 418.217
30.08000 421.473
30.12000 445.574
30.16000 438.382
30.20000 429.110
30.24000 431.397
30.28000 407.621
30.32000 410.536
30.36000 416.094
30.40000 410.499
30.44000 393.461
30.48000 389.398
30.52000 424.126
30.56000 409.686
30.60000 414.314
30.64000 422.829
30.68000 418.216
30.72000 418.502
30.76000 428.067
30.80000 428.223
30.84000 452.315
30.88000 449.948
30.92000 449.755
30.96000 466.947
31.00000 494.810
31.04000 543.039
31.08000 590.622
31.12000 654.250
31.16000 793.541
31.20000 1002.049
31.24000 1242.132
31.28000 1468.884
31.32000 1723.387
31.36000 1905.615
31.40000 2048.210
31.44000 2043.447
31.48000 1888.002
31.52000 1674.982
31.56000 1490.315
31.60000 1180.341
31.64000 964.254
31.68000 790.031
31.72000 689.631
31.76000 594.020
31.80000 550.417
31.84000 504.836
31.88000 452.580
31.92000 447.421
31.96000 441.920
32.00000 434.382
32.04000 412.973
32.08000 399.369
32.12000 408.291
32.16000 415.882
32.20000 395.694
32.24000 391.399
32.28000 405.527
32.32000 396.778
32.36000 372.384
32.40000 389.291
32.44000 377.661
32.48000 400.804
32.52000 395.508
32.56000 384.239
32.60000 366.992
32.64000 381.566
32.68000 379.518
32.72000 363.427
32.76000 373.698
32.80000 380.834
32.84000 398.829
32.88000 424.363
32.92000 455.943
32.96000 442.528
33.00000 444.668
33.04000 436.453
33.08000 428.486
33.12000 388.482
33.16000 354.533
33.20000 341.881
33.24000 343.918
33.28000 348.276
33.32000 332.827
33.36000 356.681
33.40000 343.849
33.44000 339.028
33.48000 350.734
33.52000 334.799
33.56000 337.057
33.60000 331.977
33.64000 323.492
33.68000 335.007
33.72000 332.964
33.76000 331.790
33.80000 330.850
33.84000 331.927
33.88000 335.778
33.92000 318.976
33.96000 335.948
34.00000 346.594
34.04000 328.958
34.08000 333.301
34.12000 327.605
34.16000 336.656
34.20000 316.452
34.24000 320.519
34.28000 329.804
34.32000 308.182
34.36000 318.435
34.40000 328.352
34.44000 333.055
34.48000 316.807
34.52000 314.419
34.56000 333.373
34.60000 329.801
34.64000 337.614
34.68000 345.247
34.72000 340.878
34.76000 324.192
34.80000 306.002
34.84000 325.720
34.88000 326.019
34.92000 317.258
34.96000 312.156
35.00000 327.716
35.04000 323.014
35.08000 309.368
35.12000 315.886
35.16000 310.435
35.20000 330.242
35.24000 302.237
35.28000 316.077
35.32000 304.215
35.36000 307.802
35.40000 323.524
35.44000 299.791
35.48000 318.797
35.52000 318.525
35.56000 309.097
35.60000 315.181
35.64000 296.406
35.68000 319.225
35.72000 316.345
35.76000 316.407
35.80000 305.190
35.84000 317.180
35.88000 293.200
35.92000 295.333
35.96000 301.706
36.00000 291.918
36.04000 306.022
36.08000 311.262
36.12000 289.823
36.16000 296.101
36.20000 307.056
36.24000 309.825
36.28000 293.043
36.32000 302.934
36.36000 294.074
36.40000 308.697
36.44000 301.152
36.48000 300.548
36.52000 308.500
36.56000 293.723
36.60000 308.454
36.64000 305.055
36.68000 303.518
36.72000 314.154
36.76000 285.197
36.80000 285.271
36.84000 312.095
36.88000 308.152
36.92000 299.196
36.96000 310.251
37.00000 304.422
37.04000 282.928
37.08000 316.676
37.12000 308.542
37.16000 326.834
37.20000 314.287
37.24000 293.628
37.28000 294.907
37.32000 284.386
37.36000 301.440
37.40000 310.581
37.44000 306.526
37.48000 282.472
37.52000 299.136
37.56000 292.435
37.60000 297.513
37.64000 276.068
37.68000 296.228
37.72000 274.540
37.76000 295.099
37.80000 293.102
37.84000 287.354
37.88000 294.854
37.92000 297.665
37.96000 299.989
38.00000 286.823
38.04000 288.384
38.08000 289.817
38.12000 301.607
38.16000 283.814
38.20000 306.749
38.24000 324.810
38.28000 310.901
38.32000 323.687
38.36000 356.217
38.40000 375.760
38.44000 433.937
38.48000 493.213
38.52000 621.521
38.56000 776.218
38.60000 1010.435
38.64000 1230.913
38.68000 1418.849
38.72000 1564.519
38.76000 1610.455
38.80000 1480.536
38.84000 1334.829
38.88000 1100.953
38.92000 921.590
38.96000 720.084
39.00000 579.453
39.04000 446.761
39.08000 369.453
39.12000 346.511
39.16000 305.650
39.20000 302.365
39.24000 298.498
39.28000 303.879
39.32000 294.396
39.36000 284.132
39.40000 285.816
39.44000 280.586
39.48000 286.721
39.52000 287.285
39.56000 281.311
39.60000 278.540
39.64000 268.539
39.68000 267.360
39.72000 274.289
39.76000 264.199
39.80000 259.804
39.84000 259.427
39.88000 270.674
39.92000 256.057
39.96000 274.984
40.00000 274.126
40.04000 260.486
40.08000 269.068
40.12000 257.867
40.16000 261.380
40.20000 258.499
40.24000 260.066
40.28000 257.489
40.32000 256.639
40.36000 257.230
40.40000 256.798
40.44000 267.284
40.48000 250.879
40.52000 261.375
40.56000 265.737
40.60000 240.835
40.64000 252.902
40.68000 247.932
40.72000 250.116
40.76000 245.922
40.80000 251.451
40.84000 258.954
40.88000 240.958
40.92000 250.690
40.96000 259.064
41.00000 240.612
41.04000 238.625
41.08000 241.950
41.12000 246.095
41.16000 247.187
41.20000 257.931
41.24000 246.537
41.28000 235.741
41.32000 245.484
41.36000 224.904
41.40000 244.267
41.44000 230.612
41.48000 241.619
41.52000 241.030
41.56000 244.533
41.60000 238.319
41.64000 247.121
41.68000 235.947
41.72000 243.492
41.76000 234.896
41.80000 237.647
41.84000 233.929
41.88000 236.276
41.92000 236.738
41.96000 236.410
42.00000 246.928
42.04000 243.585
42.08000 236.464
42.12000 236.651
42.16000 216.915
42.20000 227.563
42.24000 225.430
42.28000 233.016
42.32000 238.290
42.36000 239.661
42.40000 229.771
42.44000 219.662
42.48000 225.473
42.52000 225.988
42.56000 228.058
42.60000 217.791
42.64000 232.483
42.68000 240.694
42.72000 226.626
42.76000 221.042
42.80000 235.896
42.84000 236.097
42.88000 229.760
42.92000 223.439
42.96000 232.894
43.00000 235.808
43.04000 237.231
43.08000 232.441
43.12000 234.773
43.16000 216.835
43.20000 217.290
43.24000 221.286
43.28000 220.831
43.32000 229.670
43.36000 220.054
43.40000 213.501
43.44000 219.560
43.48000 206.473
43.52000 222.141
43.56000 222.573
43.60000 227.154
43.64000 231.898
43.68000 218.703
43.72000 208.565
43.76000 222.982
43.80000 214.532
43.84000 228.007
43.88000 207.501
43.92000 217.907
43.96000 233.048
44.00000 222.281
44.04000 207.413
44.08000 217.727
44.12000 225.691
44.16000 224.603
44.20000 225.355
44.24000 208.444
44.28000 215.974
44.32000 221.136
44.36000 218.955
44.40000 214.673
44.44000 214.955
44.48000 212.475
44.52000 215.184
44.56000 219.693
44.60000 228.944
44.64000 223.332
44.68000 224.199
44.72000 219.571
44.76000 226.218
44.80000 246.182
44.84000 237.229
44.88000 240.710
44.92000 247.832
44.96000 244.336
45.00000 273.936
45.04000 278.272
45.08000 259.852
45.12000 291.365
45.16000 293.848
45.20000 283.576
45.24000 274.839
45.28000 264.592
45.32000 270.290
45.36000 277.881
45.40000 266.011
45.44000 265.034
45.48000 243.500
45.52000 252.060
45.56000 248.008
45.60000 248.821
45.64000 250.494
45.68000 241.749
45.72000 240.391
45.76000 229.168
45.80000 230.126
45.84000 232.673
45.88000 234.987
45.92000 235.988
45.96000 217.958
46.00000 227.493
46.04000 226.868
46.08000 217.375
46.12000 213.343
46.16000 220.428
46.20000 214.179
46.24000 201.558
46.28000 209.810
46.32000 210.837
46.36000 207.810
46.40000 218.281
46.44000 230.558
46.48000 210.553
46.52000 196.362
46.56000 193.502
46.60000 203.362
46.64000 206.309
46.68000 203.366
46.72000 180.357
46.76000 196.989
46.80000 198.487
46.84000 199.790
46.88000 200.243
46.92000 204.576
46.96000 192.336
47.00000 202.066
47.04000 199.060
47.08000 194.197
47.12000 193.970
47.16000 187.402
47.20000 178.486
47.24000 185.223
47.28000 190.424
47.32000 186.104
47.36000 189.305
47.40000 189.271
47.44000 191.879
47.48000 189.151
47.52000 178.777
47.56000 193.404
47.60000 180.992
47.64000 184.850
47.68000 189.128
47.72000 190.137
47.76000 187.029
47.80000 191.383
47.84000 188.231
47.88000 178.565
47.92000 179.171
47.96000 193.227
48.00000 179.274
48.04000 194.019
48.08000 182.897
48.12000 181.907
48.16000 177.000
48.20000 182.357
48.24000 185.087
48.28000 183.279
48.32000 175.103
48.36000 180.547
48.40000 182.541
48.44000 180.319
48.48000 180.194
48.52000 187.241
48.56000 182.282
48.60000 187.872
48.64000 182.036
48.68000 179.996
48.72000 189.593
48.76000 178.429
48.80000 173.484
48.84000 183.600
48.88000 180.110
48.92000 185.317
48.96000 188.367
49.00000 168.338
49.04000 178.772
49.08000 186.498
49.12000 174.021
49.16000 183.290
49.20000 173.581
49.24000 173.926
49.28000 175.417
49.32000 168.129
49.36000 178.822
49.40000 172.646
49.44000 175.631
49.48000 180.632
49.52000 167.833
49.56000 169.570
49.60000 180.249
49.64000 172.759
49.68000 167.259
49.72000 180.735
49.76000 181.266
49.80000 176.867
49.84000 168.819
49.88000 179.344
49.92000 181.584
49.96000 181.264
50.00000 174.271
50.04000 182.221
50.08000 176.946
50.12000 180.527
50.16000 187.697
50.20000 187.390
50.24000 179.103
50.28000 171.068
50.32000 181.679
50.36000 184.623
50.40000 181.194
50.44000 198.635
50.48000 175.358
50.52000 177.116
50.56000 194.364
50.60000 198.313
50.64000 211.312
50.68000 212.049
50.72000 207.224
50.76000 200.372
50.80000 205.326
50.84000 211.962
50.88000 203.800
50.92000 203.335
50.96000 188.278
51.00000 185.738
51.04000 189.418
51.08000 183.864
51.12000 186.551
51.16000 177.353
51.20000 181.337
51.24000 169.649
51.28000 164.611
51.32000 181.474
51.36000 169.173
51.40000 160.156
51.44000 162.887
51.48000 167.257
51.52000 158.817
51.56000 161.955
51.60000 169.042
51.64000 163.161
51.68000 167.088
51.72000 158.637
51.76000 165.725
51.80000 171.689
51.84000 172.192
51.88000 174.945
51.92000 157.955
51.96000 164.608
52.00000 162.675
52.04000 163.543
52.08000 160.431
52.12000 164.275
52.16000 146.816
52.20000 167.793
52.24000 165.112
52.28000 154.960
52.32000 165.378
52.36000 164.375
52.40000 176.462
52.44000 154.420
52.48000 153.348
52.52000 153.606
52.56000 162.445
52.60000 159.814
52.64000 155.839
52.68000 153.761
52.72000 152.709
52.76000 147.607
52.80000 160.025
52.84000 156.752
52.88000 148.226
52.92000 150.790
52.96000 154.663
53.00000 161.573
53.04000 164.139
53.08000 156.823
53.12000 160.101
53.16000 154.186
53.20000 157.666
53.24000 146.562
53.28000 161.579
53.32000 159.819
53.36000 171.349
53.40000 167.724
53.44000 183.292
53.48000 160.196
53.52000 163.417
53.56000 163.645
53.60000 152.424
53.64000 156.500
53.68000 168.112
53.72000 160.845
53.76000 158.531
53.80000 167.859
53.84000 148.483
53.88000 158.728
53.92000 151.754
53.96000 164.495
54.00000 159.898
54.04000 163.237
54.08000 149.407
54.12000 152.378
54.16000 156.937
54.20000 154.012
54.24000 156.636
54.28000 147.926
54.32000 154.449
54.36000 157.472
54.40000 166.075
54.44000 161.234
54.48000 160.464
54.52000 155.480
54.56000 153.491
54.60000 154.345
54.64000 157.015
54.68000 151.776
54.72000 156.551
54.76000 149.271
54.80000 161.429
54.84000 157.729
54.88000 162.326
54.92000 153.928
54.96000 161.549
55.00000 168.275
55.04000 161.927
55.08000 173.082
55.12000 157.136
55.16000 155.830
55.20000 159.731
55.24000 179.217
55.28000 178.634
55.32000 174.312
55.36000 178.120
55.40000 171.567
55.44000 190.390
55.48000 203.684
55.52000 211.633
55.56000 230.189
55.60000 239.209
55.64000 283.816
55.68000 315.670
55.72000 392.744
55.76000 468.769
55.80000 562.858
55.84000 661.326
55.88000 755.150
55.92000 840.654
55.96000 884.626
56.00000 879.650
56.04000 902.821
56.08000 842.496
56.12000 780.613
56.16000 696.127
56.20000 605.982
56.24000 488.711
56.28000 419.717
56.32000 375.708
56.36000 311.055
56.40000 275.079
56.44000 237.251
56.48000 231.148
56.52000 200.909
56.56000 181.667
56.60000 186.198
56.64000 187.503
56.68000 176.586
56.72000 168.861
56.76000 165.470
56.80000 160.120
56.84000 166.084
56.88000 156.739
56.92000 155.286
56.96000 155.601
57.00000 155.483
57.04000 151.527
57.08000 148.901
57.12000 154.819
57.16000 148.088
57.20000 145.563
57.24000 148.634
57.28000 139.999
57.32000 147.815
57.36000 139.446
57.40000 140.471
57.44000 137.647
57.48000 144.560
57.52000 146.324
57.56000 139.329
57.60000 150.231
57.64000 150.710
57.68000 133.356
57.72000 152.354
57.76000 147.491
57.80000 152.635
57.84000 144.338
57.88000 142.860
57.92000 143.818
57.96000 138.428
58.00000 135.479
58.04000 139.973
58.08000 146.862
58.12000 145.337
58.16000 140.924
58.20000 143.962
58.24000 144.116
58.28000 147.780
58.32000 137.505
58.36000 147.295
58.40000 126.950
58.44000 136.413
58.48000 142.193
58.52000 131.974
58.56000 126.738
58.60000 133.894
58.64000 143.244
58.68000 143.548
58.72000 129.751
58.76000 144.911
58.80000 133.863
58.84000 138.112
58.88000 134.990
58.92000 134.212
58.96000 146.176
59.00000 133.701
59.04000 132.326
59.08000 128.425
59.12000 126.637
59.16000 143.473
59.20000 137.643
59.24000 134.445
59.28000 140.527
59.32000 135.286
59.36000 121.528
59.40000 133.345
59.44000 138.075
59.48000 139.918
59.52000 127.714
59.56000 126.479
59.60000 135.962
59.64000 123.959
59.68000 135.503
59.72000 138.266
59.76000 122.980
59.80000 127.296
59.84000 138.602
59.88000 135.908
59.92000 131.547
59.96000 128.764
60.00000 131.801
60.04000 133.603
60.08000 127.536
60.12000 133.035
60.16000 129.833
60.20000 139.221
60.24000 140.720
60.28000 129.502
60.32000 129.077
60.36000 123.006
60.40000 133.286
60.44000 134.495
60.48000 123.007
60.52000 129.105
60.56000 123.887
60.60000 124.928
60.64000 130.502
60.68000 138.558
60.72000 138.947
60.76000 128.136
60.80000 135.183
60.84000 130.971
60.88000 133.923
60.92000 131.785
60.96000 134.469
61.00000 131.338
61.04000 133.666
61.08000 136.648
61.12000 136.476
61.16000 141.278
61.20000 140.553
61.24000 138.661
61.28000 128.283
61.32000 135.604
61.36000 139.137
61.40000 131.147
61.44000 132.684
61.48000 140.677
61.52000 160.279
61.56000 188.763
61.60000 213.047
61.64000 244.841
61.68000 278.304
61.72000 263.434
61.76000 261.891
61.80000 212.249
61.84000 178.636
61.88000 144.912
61.92000 143.755
61.96000 143.238
62.00000 149.758
62.04000 137.868
62.08000 141.785
62.12000 134.306
62.16000 136.912
62.20000 143.799
62.24000 139.772
62.28000 144.901
62.32000 132.121
62.36000 142.911
62.40000 138.458
62.44000 145.834
62.48000 141.611
62.52000 153.139
62.56000 143.142
62.60000 135.149
62.64000 133.486
62.68000 143.193
62.72000 136.230
62.76000 131.556
62.80000 137.097
62.84000 147.429
62.88000 143.522
62.92000 131.565
62.96000 142.338
63.00000 149.006
63.04000 144.752
63.08000 143.646
63.12000 155.082
63.16000 143.578
63.20000 140.286
63.24000 151.648
63.28000 140.476
63.32000 143.873
63.36000 146.993
63.40000 139.060
63.44000 150.551
63.48000 143.138
63.52000 149.290
63.56000 144.251
63.60000 152.967
63.64000 144.403
63.68000 144.260
63.72000 142.717
63.76000 144.417
63.80000 146.224
63.84000 160.808
63.88000 143.673
63.92000 148.085
63.96000 161.585
64.00000 152.621
64.04000 156.587
64.08000 150.423
64.12000 150.935
64.16000 139.867
64.20000 156.016
64.24000 155.088
64.28000 155.567
64.32000 158.698
64.36000 160.937
64.40000 158.852
64.44000 159.645
64.48000 156.033
64.52000 149.592
64.56000 168.399
64.60000 164.159
64.64000 165.834
64.68000 176.688
64.72000 168.261
64.76000 167.919
64.80000 177.838
64.84000 172.154
64.88000 181.003
64.92000 180.707
64.96000 173.218
65.00000 202.569
65.04000 186.129
65.08000 186.123
65.12000 195.738
65.16000 200.177
65.20000 211.050
65.24000 207.381
65.28000 217.274
65.32000 231.385
65.36000 252.354
65.40000 267.102
65.44000 281.480
65.48000 284.125
65.52000 296.007
65.56000 312.250
65.60000 331.408
65.64000 357.239
65.68000 414.614
65.72000 522.043
65.76000 751.903
65.80000 927.675
65.84000 1039.874
65.88000 1057.124
65.92000 1006.927
65.96000 906.026
66.00000 659.890
66.04000 475.346
66.08000 388.419
66.12000 328.770
66.16000 322.841
66.20000 303.324
66.24000 295.705
66.28000 325.608
66.32000 377.719
66.36000 411.784
66.40000 429.588
66.44000 436.666
66.48000 435.859
66.52000 401.437
66.56000 355.526
66.60000 326.031
66.64000 296.077
66.68000 321.968
66.72000 311.507
66.76000 295.654
66.80000 309.713
66.84000 312.085
66.88000 322.985
66.92000 338.894
66.96000 340.674
67.00000 319.124
67.04000 345.878
67.08000 337.590
67.12000 337.658
67.16000 342.855
67.20000 358.607
67.24000 349.397
67.28000 392.831
67.32000 384.376
67.36000 393.172
67.40000 378.052
67.44000 393.819
67.48000 386.952
67.52000 387.953
67.56000 389.522
67.60000 410.521
67.64000 430.539
67.68000 458.439
67.72000 453.477
67.76000 449.491
67.80000 437.132
67.84000 467.900
67.88000 484.284
67.92000 462.675
67.96000 478.260
68.00000 497.591
68.04000 507.561
68.08000 541.030
68.12000 523.332
68.16000 528.777
68.20000 565.170
68.24000 572.811
68.28000 590.055
68.32000 599.990
68.36000 636.162
68.40000 659.647
68.44000 670.936
68.48000 706.279
68.52000 754.255
68.56000 801.706
68.60000 860.961
68.64000 1017.312
68.68000 1223.300
68.72000 1357.775
68.76000 1549.646
68.80000 1785.386
68.84000 2026.275
68.88000 2592.655
68.92000 3917.094
68.96000 10444.515
69.00000 24310.000
69.04000 40498.828
69.08000 49090.695
69.12000 51309.723
69.16000 53452.758
69.20000 54257.371
69.24000 46644.594
69.28000 35056.418
69.32000 28504.932
69.36000 25599.318
69.40000 21652.689
69.44000 14292.110
69.48000 6460.938
69.52000 2924.446
69.56000 1826.717
69.60000 1410.823
69.64000 1168.871
69.68000 1036.982
69.72000 900.147
69.76000 840.689
69.80000 797.564
69.84000 751.616
69.88000 719.246
69.92000 680.076
69.96000 679.426
70.00000 657.316