File: XRD/24-09-2025 Dep 3/XY Data/BTO_Mapping_Theta2Theta_24-09-2025_001_55_13-383_-14-863.xy
20.00000 558.117
20.04000 556.655
20.08000 555.866
20.12000 588.138
20.16000 573.468
20.20000 566.126
20.24000 567.424
20.28000 558.000
20.32000 571.165
20.36000 554.612
20.40000 541.915
20.44000 553.211
20.48000 542.398
20.52000 566.042
20.56000 530.266
20.60000 536.165
20.64000 541.909
20.68000 552.743
20.72000 550.995
20.76000 542.943
20.80000 548.042
20.84000 563.622
20.88000 539.806
20.92000 543.743
20.96000 562.698
21.00000 530.266
21.04000 567.913
21.08000 548.087
21.12000 537.908
21.16000 549.510
21.20000 543.141
21.24000 558.414
21.28000 526.308
21.32000 534.895
21.36000 547.253
21.40000 545.908
21.44000 526.030
21.48000 553.465
21.52000 551.948
21.56000 537.891
21.60000 546.340
21.64000 537.795
21.68000 532.660
21.72000 552.644
21.76000 548.628
21.80000 547.789
21.84000 566.732
21.88000 562.041
21.92000 568.120
21.96000 580.109
22.00000 601.232
22.04000 599.109
22.08000 604.687
22.12000 616.300
22.16000 600.638
22.20000 582.082
22.24000 604.992
22.28000 569.557
22.32000 589.649
22.36000 571.588
22.40000 560.973
22.44000 537.911
22.48000 551.808
22.52000 527.904
22.56000 529.405
22.60000 533.546
22.64000 532.900
22.68000 519.168
22.72000 528.003
22.76000 539.165
22.80000 532.120
22.84000 507.464
22.88000 504.169
22.92000 503.871
22.96000 509.354
23.00000 486.927
23.04000 526.384
23.08000 499.170
23.12000 507.252
23.16000 509.324
23.20000 511.926
23.24000 516.455
23.28000 521.731
23.32000 513.664
23.36000 525.636
23.40000 497.096
23.44000 506.848
23.48000 493.158
23.52000 486.889
23.56000 505.747
23.60000 495.087
23.64000 512.381
23.68000 503.489
23.72000 479.788
23.76000 512.635
23.80000 502.396
23.84000 506.183
23.88000 502.620
23.92000 493.552
23.96000 490.045
24.00000 504.335
24.04000 502.031
24.08000 513.777
24.12000 485.910
24.16000 500.609
24.20000 497.167
24.24000 495.863
24.28000 510.251
24.32000 464.025
24.36000 490.176
24.40000 482.712
24.44000 495.433
24.48000 482.588
24.52000 493.650
24.56000 489.226
24.60000 477.784
24.64000 484.415
24.68000 478.263
24.72000 481.776
24.76000 499.384
24.80000 506.914
24.84000 494.730
24.88000 485.113
24.92000 476.520
24.96000 441.871
25.00000 463.702
25.04000 453.161
25.08000 481.430
25.12000 486.393
25.16000 474.573
25.20000 472.931
25.24000 473.557
25.28000 459.963
25.32000 469.478
25.36000 465.399
25.40000 477.859
25.44000 471.817
25.48000 491.761
25.52000 483.451
25.56000 450.339
25.60000 476.616
25.64000 455.663
25.68000 485.739
25.72000 477.924
25.76000 479.396
25.80000 455.530
25.84000 455.068
25.88000 468.227
25.92000 460.572
25.96000 468.977
26.00000 450.884
26.04000 456.230
26.08000 445.029
26.12000 460.447
26.16000 450.679
26.20000 454.393
26.24000 456.752
26.28000 442.213
26.32000 455.229
26.36000 463.325
26.40000 441.791
26.44000 466.107
26.48000 458.804
26.52000 436.767
26.56000 461.228
26.60000 448.349
26.64000 462.208
26.68000 441.410
26.72000 465.328
26.76000 454.087
26.80000 448.797
26.84000 448.556
26.88000 431.948
26.92000 439.941
26.96000 445.187
27.00000 438.299
27.04000 450.620
27.08000 435.693
27.12000 447.060
27.16000 441.148
27.20000 440.002
27.24000 443.362
27.28000 436.944
27.32000 413.769
27.36000 441.961
27.40000 445.024
27.44000 438.286
27.48000 435.852
27.52000 424.771
27.56000 441.824
27.60000 439.277
27.64000 433.349
27.68000 424.920
27.72000 427.320
27.76000 429.382
27.80000 439.558
27.84000 434.675
27.88000 421.220
27.92000 413.106
27.96000 440.342
28.00000 427.685
28.04000 435.612
28.08000 436.402
28.12000 428.485
28.16000 421.943
28.20000 432.791
28.24000 438.801
28.28000 437.865
28.32000 453.961
28.36000 443.994
28.40000 428.269
28.44000 419.253
28.48000 415.999
28.52000 426.038
28.56000 417.286
28.60000 418.089
28.64000 417.462
28.68000 426.811
28.72000 423.647
28.76000 414.816
28.80000 407.097
28.84000 418.996
28.88000 396.453
28.92000 411.678
28.96000 411.819
29.00000 419.644
29.04000 418.719
29.08000 415.959
29.12000 395.634
29.16000 425.273
29.20000 425.401
29.24000 416.318
29.28000 415.004
29.32000 403.460
29.36000 396.629
29.40000 414.635
29.44000 411.289
29.48000 410.296
29.52000 402.337
29.56000 401.759
29.60000 392.063
29.64000 414.738
29.68000 410.016
29.72000 402.108
29.76000 401.278
29.80000 413.206
29.84000 411.831
29.88000 419.395
29.92000 426.488
29.96000 418.704
30.00000 446.136
30.04000 410.510
30.08000 442.253
30.12000 420.869
30.16000 414.489
30.20000 410.633
30.24000 423.993
30.28000 420.930
30.32000 420.063
30.36000 409.139
30.40000 400.984
30.44000 416.533
30.48000 425.716
30.52000 425.216
30.56000 434.789
30.60000 420.965
30.64000 406.661
30.68000 416.602
30.72000 420.918
30.76000 421.040
30.80000 425.860
30.84000 434.769
30.88000 441.496
30.92000 454.664
30.96000 463.283
31.00000 493.684
31.04000 526.621
31.08000 601.778
31.12000 667.966
31.16000 778.094
31.20000 925.812
31.24000 1131.365
31.28000 1315.718
31.32000 1455.529
31.36000 1654.540
31.40000 1670.805
31.44000 1656.417
31.48000 1546.224
31.52000 1360.515
31.56000 1221.089
31.60000 997.113
31.64000 803.172
31.68000 693.379
31.72000 611.094
31.76000 542.078
31.80000 497.505
31.84000 474.136
31.88000 464.041
31.92000 434.669
31.96000 414.002
32.00000 418.263
32.04000 404.632
32.08000 398.573
32.12000 413.394
32.16000 380.937
32.20000 390.768
32.24000 395.207
32.28000 380.443
32.32000 384.802
32.36000 378.149
32.40000 384.294
32.44000 399.027
32.48000 399.852
32.52000 379.120
32.56000 357.670
32.60000 374.471
32.64000 381.199
32.68000 362.785
32.72000 369.902
32.76000 377.228
32.80000 383.067
32.84000 393.471
32.88000 419.541
32.92000 450.000
32.96000 440.687
33.00000 429.306
33.04000 418.688
33.08000 402.100
33.12000 369.186
33.16000 354.881
33.20000 358.162
33.24000 346.618
33.28000 331.645
33.32000 329.111
33.36000 329.098
33.40000 340.503
33.44000 348.418
33.48000 350.002
33.52000 344.681
33.56000 342.341
33.60000 340.007
33.64000 338.630
33.68000 325.833
33.72000 324.125
33.76000 332.294
33.80000 333.136
33.84000 353.264
33.88000 334.929
33.92000 327.443
33.96000 332.453
34.00000 343.870
34.04000 350.027
34.08000 325.946
34.12000 336.387
34.16000 342.499
34.20000 326.089
34.24000 316.003
34.28000 333.754
34.32000 325.753
34.36000 325.048
34.40000 331.699
34.44000 321.111
34.48000 345.466
34.52000 331.205
34.56000 317.817
34.60000 328.505
34.64000 318.482
34.68000 309.898
34.72000 323.929
34.76000 318.748
34.80000 313.417
34.84000 326.292
34.88000 326.379
34.92000 328.606
34.96000 328.732
35.00000 318.826
35.04000 308.548
35.08000 324.701
35.12000 315.228
35.16000 327.539
35.20000 317.866
35.24000 309.294
35.28000 321.297
35.32000 311.047
35.36000 320.071
35.40000 318.329
35.44000 306.725
35.48000 302.842
35.52000 321.149
35.56000 311.977
35.60000 313.076
35.64000 310.439
35.68000 300.638
35.72000 304.137
35.76000 303.758
35.80000 317.075
35.84000 301.442
35.88000 317.169
35.92000 300.934
35.96000 313.226
36.00000 297.554
36.04000 300.094
36.08000 304.229
36.12000 305.710
36.16000 298.623
36.20000 311.381
36.24000 303.379
36.28000 301.624
36.32000 304.150
36.36000 294.635
36.40000 299.416
36.44000 296.160
36.48000 292.553
36.52000 304.852
36.56000 298.715
36.60000 280.261
36.64000 295.258
36.68000 299.872
36.72000 290.872
36.76000 301.192
36.80000 303.706
36.84000 296.429
36.88000 302.595
36.92000 318.449
36.96000 319.997
37.00000 311.562
37.04000 307.746
37.08000 308.569
37.12000 306.207
37.16000 309.268
37.20000 304.246
37.24000 301.193
37.28000 304.223
37.32000 292.281
37.36000 289.715
37.40000 294.286
37.44000 294.944
37.48000 297.904
37.52000 311.718
37.56000 283.922
37.60000 294.739
37.64000 307.382
37.68000 302.811
37.72000 298.490
37.76000 299.467
37.80000 312.798
37.84000 301.145
37.88000 296.911
37.92000 286.782
37.96000 302.930
38.00000 302.736
38.04000 305.212
38.08000 304.890
38.12000 299.438
38.16000 300.600
38.20000 306.687
38.24000 310.980
38.28000 311.697
38.32000 334.120
38.36000 359.856
38.40000 396.379
38.44000 452.106
38.48000 518.945
38.52000 645.927
38.56000 797.803
38.60000 1039.230
38.64000 1267.560
38.68000 1454.842
38.72000 1570.200
38.76000 1574.862
38.80000 1484.814
38.84000 1347.416
38.88000 1088.818
38.92000 865.072
38.96000 690.153
39.00000 546.911
39.04000 429.740
39.08000 374.208
39.12000 333.806
39.16000 325.005
39.20000 305.540
39.24000 303.060
39.28000 294.634
39.32000 297.882
39.36000 292.191
39.40000 293.795
39.44000 278.116
39.48000 271.279
39.52000 269.867
39.56000 270.798
39.60000 261.176
39.64000 280.211
39.68000 269.740
39.72000 273.320
39.76000 268.541
39.80000 264.280
39.84000 250.366
39.88000 255.461
39.92000 255.860
39.96000 265.762
40.00000 261.849
40.04000 273.365
40.08000 254.206
40.12000 257.023
40.16000 263.804
40.20000 265.630
40.24000 265.979
40.28000 254.290
40.32000 258.714
40.36000 258.299
40.40000 256.528
40.44000 241.658
40.48000 242.153
40.52000 250.076
40.56000 253.332
40.60000 252.192
40.64000 252.736
40.68000 250.631
40.72000 253.643
40.76000 249.262
40.80000 240.197
40.84000 264.140
40.88000 261.317
40.92000 253.698
40.96000 249.645
41.00000 257.707
41.04000 251.237
41.08000 222.139
41.12000 245.202
41.16000 271.638
41.20000 235.330
41.24000 258.476
41.28000 248.077
41.32000 247.688
41.36000 219.159
41.40000 240.026
41.44000 240.775
41.48000 245.072
41.52000 232.128
41.56000 243.302
41.60000 243.052
41.64000 230.265
41.68000 240.750
41.72000 230.352
41.76000 241.216
41.80000 233.062
41.84000 245.799
41.88000 251.025
41.92000 232.472
41.96000 231.628
42.00000 233.820
42.04000 237.250
42.08000 235.663
42.12000 249.843
42.16000 239.089
42.20000 236.792
42.24000 226.709
42.28000 232.246
42.32000 225.398
42.36000 217.222
42.40000 240.547
42.44000 231.814
42.48000 231.674
42.52000 238.197
42.56000 236.506
42.60000 231.773
42.64000 226.090
42.68000 225.327
42.72000 248.644
42.76000 223.743
42.80000 230.399
42.84000 234.347
42.88000 231.683
42.92000 232.416
42.96000 236.618
43.00000 219.980
43.04000 223.989
43.08000 218.320
43.12000 236.267
43.16000 232.218
43.20000 235.019
43.24000 233.714
43.28000 234.352
43.32000 222.912
43.36000 229.558
43.40000 208.105
43.44000 228.475
43.48000 230.886
43.52000 229.614
43.56000 219.186
43.60000 221.861
43.64000 221.610
43.68000 230.004
43.72000 209.475
43.76000 221.937
43.80000 212.186
43.84000 207.863
43.88000 218.276
43.92000 219.135
43.96000 213.449
44.00000 212.021
44.04000 208.091
44.08000 222.784
44.12000 223.378
44.16000 229.261
44.20000 212.579
44.24000 227.086
44.28000 212.103
44.32000 225.898
44.36000 219.197
44.40000 211.008
44.44000 221.598
44.48000 218.717
44.52000 217.877
44.56000 226.718
44.60000 221.696
44.64000 223.368
44.68000 223.252
44.72000 217.956
44.76000 223.808
44.80000 226.568
44.84000 224.014
44.88000 246.837
44.92000 245.820
44.96000 253.315
45.00000 262.223
45.04000 272.497
45.08000 261.011
45.12000 281.876
45.16000 269.267
45.20000 272.935
45.24000 266.407
45.28000 265.439
45.32000 253.835
45.36000 252.144
45.40000 243.675
45.44000 240.158
45.48000 246.281
45.52000 232.818
45.56000 235.693
45.60000 215.056
45.64000 229.662
45.68000 216.491
45.72000 233.354
45.76000 224.182
45.80000 214.033
45.84000 223.661
45.88000 223.790
45.92000 220.706
45.96000 218.562
46.00000 219.977
46.04000 213.237
46.08000 211.297
46.12000 214.577
46.16000 201.606
46.20000 188.896
46.24000 214.887
46.28000 205.192
46.32000 204.098
46.36000 199.113
46.40000 195.319
46.44000 202.131
46.48000 197.131
46.52000 204.658
46.56000 200.563
46.60000 191.816
46.64000 205.380
46.68000 204.755
46.72000 208.464
46.76000 204.027
46.80000 204.902
46.84000 196.769
46.88000 193.053
46.92000 189.299
46.96000 189.550
47.00000 193.309
47.04000 190.753
47.08000 198.177
47.12000 198.466
47.16000 192.159
47.20000 185.871
47.24000 186.062
47.28000 194.516
47.32000 189.302
47.36000 185.736
47.40000 194.324
47.44000 184.546
47.48000 197.834
47.52000 186.612
47.56000 191.964
47.60000 177.956
47.64000 187.320
47.68000 187.916
47.72000 193.260
47.76000 195.697
47.80000 176.034
47.84000 180.529
47.88000 166.574
47.92000 182.138
47.96000 180.494
48.00000 182.828
48.04000 179.021
48.08000 175.025
48.12000 180.983
48.16000 173.714
48.20000 188.647
48.24000 186.266
48.28000 191.132
48.32000 188.094
48.36000 191.178
48.40000 187.788
48.44000 183.064
48.48000 183.963
48.52000 180.020
48.56000 179.707
48.60000 173.005
48.64000 172.594
48.68000 170.234
48.72000 170.844
48.76000 188.336
48.80000 190.041
48.84000 181.112
48.88000 193.745
48.92000 171.748
48.96000 185.346
49.00000 179.733
49.04000 191.033
49.08000 188.689
49.12000 184.891
49.16000 178.331
49.20000 162.050
49.24000 168.344
49.28000 179.166
49.32000 179.563
49.36000 174.199
49.40000 166.392
49.44000 181.106
49.48000 173.703
49.52000 180.573
49.56000 173.559
49.60000 182.220
49.64000 177.560
49.68000 185.678
49.72000 180.519
49.76000 175.177
49.80000 171.578
49.84000 168.468
49.88000 175.651
49.92000 170.543
49.96000 182.718
50.00000 174.621
50.04000 173.929
50.08000 164.909
50.12000 176.673
50.16000 167.020
50.20000 170.515
50.24000 167.291
50.28000 169.152
50.32000 176.579
50.36000 177.850
50.40000 178.489
50.44000 181.233
50.48000 192.085
50.52000 180.914
50.56000 181.256
50.60000 183.169
50.64000 191.434
50.68000 194.435
50.72000 195.672
50.76000 184.205
50.80000 189.707
50.84000 182.407
50.88000 200.096
50.92000 194.148
50.96000 191.548
51.00000 175.608
51.04000 175.186
51.08000 175.718
51.12000 174.694
51.16000 174.944
51.20000 175.316
51.24000 170.163
51.28000 184.232
51.32000 177.774
51.36000 168.229
51.40000 166.278
51.44000 170.655
51.48000 161.803
51.52000 163.168
51.56000 166.611
51.60000 171.516
51.64000 166.629
51.68000 160.981
51.72000 164.131
51.76000 161.242
51.80000 149.220
51.84000 172.313
51.88000 170.210
51.92000 169.826
51.96000 168.409
52.00000 150.761
52.04000 167.263
52.08000 165.978
52.12000 156.403
52.16000 157.708
52.20000 170.809
52.24000 169.121
52.28000 159.006
52.32000 166.789
52.36000 156.431
52.40000 148.490
52.44000 164.614
52.48000 166.072
52.52000 155.615
52.56000 153.949
52.60000 149.397
52.64000 157.320
52.68000 158.938
52.72000 158.082
52.76000 165.875
52.80000 167.323
52.84000 156.187
52.88000 162.061
52.92000 158.901
52.96000 153.694
53.00000 157.647
53.04000 147.826
53.08000 158.167
53.12000 159.807
53.16000 164.766
53.20000 171.537
53.24000 165.294
53.28000 161.685
53.32000 153.060
53.36000 164.849
53.40000 168.892
53.44000 167.243
53.48000 169.552
53.52000 183.292
53.56000 164.419
53.60000 164.374
53.64000 156.095
53.68000 154.962
53.72000 163.191
53.76000 145.700
53.80000 155.488
53.84000 159.090
53.88000 166.295
53.92000 167.326
53.96000 147.138
54.00000 161.056
54.04000 166.659
54.08000 153.750
54.12000 157.109
54.16000 151.572
54.20000 160.052
54.24000 151.876
54.28000 158.302
54.32000 157.130
54.36000 160.533
54.40000 177.444
54.44000 152.438
54.48000 167.375
54.52000 156.106
54.56000 157.792
54.60000 155.151
54.64000 158.999
54.68000 152.772
54.72000 155.166
54.76000 173.439
54.80000 153.763
54.84000 151.031
54.88000 152.841
54.92000 164.701
54.96000 163.892
55.00000 152.908
55.04000 155.636
55.08000 162.601
55.12000 155.441
55.16000 163.864
55.20000 164.293
55.24000 167.933
55.28000 168.794
55.32000 175.553
55.36000 176.816
55.40000 183.246
55.44000 191.271
55.48000 198.428
55.52000 226.758
55.56000 227.894
55.60000 253.405
55.64000 309.391
55.68000 366.841
55.72000 419.342
55.76000 506.373
55.80000 598.948
55.84000 684.412
55.88000 786.394
55.92000 835.996
55.96000 884.070
56.00000 895.743
56.04000 877.640
56.08000 811.432
56.12000 718.966
56.16000 670.140
56.20000 587.476
56.24000 507.422
56.28000 413.710
56.32000 345.551
56.36000 295.508
56.40000 259.752
56.44000 234.830
56.48000 210.833
56.52000 199.090
56.56000 187.438
56.60000 183.195
56.64000 166.542
56.68000 166.975
56.72000 161.764
56.76000 164.242
56.80000 171.996
56.84000 157.994
56.88000 161.111
56.92000 149.828
56.96000 150.713
57.00000 151.286
57.04000 149.916
57.08000 157.520
57.12000 155.733
57.16000 144.610
57.20000 145.955
57.24000 141.255
57.28000 157.004
57.32000 149.929
57.36000 142.255
57.40000 145.007
57.44000 152.080
57.48000 146.020
57.52000 143.782
57.56000 148.391
57.60000 149.921
57.64000 150.040
57.68000 144.177
57.72000 150.633
57.76000 148.181
57.80000 143.730
57.84000 135.413
57.88000 146.704
57.92000 147.544
57.96000 150.060
58.00000 137.093
58.04000 136.648
58.08000 130.423
58.12000 137.194
58.16000 136.370
58.20000 143.399
58.24000 137.394
58.28000 135.361
58.32000 144.125
58.36000 138.738
58.40000 139.963
58.44000 145.171
58.48000 133.061
58.52000 128.172
58.56000 135.512
58.60000 135.220
58.64000 136.544
58.68000 140.533
58.72000 140.646
58.76000 136.150
58.80000 141.470
58.84000 130.393
58.88000 141.706
58.92000 133.249
58.96000 132.929
59.00000 135.072
59.04000 134.342
59.08000 132.212
59.12000 131.410
59.16000 136.261
59.20000 138.480
59.24000 134.281
59.28000 134.504
59.32000 143.472
59.36000 146.218
59.40000 136.479
59.44000 134.857
59.48000 131.090
59.52000 136.793
59.56000 125.703
59.60000 124.407
59.64000 140.832
59.68000 122.807
59.72000 119.446
59.76000 134.127
59.80000 135.192
59.84000 134.077
59.88000 123.739
59.92000 132.433
59.96000 128.781
60.00000 133.562
60.04000 136.093
60.08000 140.270
60.12000 128.017
60.16000 128.375
60.20000 129.174
60.24000 134.435
60.28000 127.244
60.32000 129.855
60.36000 125.847
60.40000 133.818
60.44000 147.326
60.48000 133.806
60.52000 137.184
60.56000 138.961
60.60000 128.283
60.64000 133.441
60.68000 134.347
60.72000 132.332
60.76000 131.179
60.80000 130.714
60.84000 134.548
60.88000 121.618
60.92000 124.272
60.96000 137.302
61.00000 140.249
61.04000 141.666
61.08000 129.787
61.12000 139.587
61.16000 145.817
61.20000 139.422
61.24000 137.736
61.28000 139.042
61.32000 133.407
61.36000 131.075
61.40000 137.981
61.44000 131.220
61.48000 165.032
61.52000 165.747
61.56000 197.090
61.60000 229.979
61.64000 252.687
61.68000 250.467
61.72000 266.746
61.76000 262.129
61.80000 211.418
61.84000 166.390
61.88000 148.657
61.92000 140.878
61.96000 140.674
62.00000 145.780
62.04000 138.147
62.08000 142.757
62.12000 128.924
62.16000 142.543
62.20000 143.781
62.24000 131.389
62.28000 124.032
62.32000 144.185
62.36000 146.058
62.40000 144.405
62.44000 136.782
62.48000 142.773
62.52000 133.285
62.56000 144.823
62.60000 135.063
62.64000 134.890
62.68000 138.482
62.72000 145.100
62.76000 138.439
62.80000 141.046
62.84000 134.363
62.88000 146.070
62.92000 142.503
62.96000 141.969
63.00000 140.142
63.04000 138.125
63.08000 138.620
63.12000 142.066
63.16000 146.473
63.20000 137.195
63.24000 144.519
63.28000 149.896
63.32000 146.516
63.36000 144.739
63.40000 143.961
63.44000 138.202
63.48000 141.308
63.52000 150.666
63.56000 141.134
63.60000 141.137
63.64000 145.677
63.68000 136.157
63.72000 141.689
63.76000 150.597
63.80000 145.735
63.84000 151.165
63.88000 145.365
63.92000 165.835
63.96000 147.301
64.00000 153.300
64.04000 164.161
64.08000 145.751
64.12000 154.535
64.16000 149.373
64.20000 163.236
64.24000 151.953
64.28000 165.330
64.32000 163.150
64.36000 162.481
64.40000 162.261
64.44000 167.116
64.48000 166.301
64.52000 152.160
64.56000 157.545
64.60000 165.346
64.64000 166.811
64.68000 170.323
64.72000 164.110
64.76000 165.464
64.80000 164.816
64.84000 172.973
64.88000 176.113
64.92000 189.305
64.96000 178.972
65.00000 188.291
65.04000 186.293
65.08000 197.234
65.12000 201.621
65.16000 187.030
65.20000 207.366
65.24000 208.805
65.28000 211.341
65.32000 219.569
65.36000 229.198
65.40000 248.208
65.44000 261.016
65.48000 276.410
65.52000 278.485
65.56000 287.785
65.60000 315.715
65.64000 345.165
65.68000 412.706
65.72000 545.442
65.76000 739.713
65.80000 919.459
65.84000 988.770
65.88000 1007.391
65.92000 987.189
65.96000 805.281
66.00000 616.210
66.04000 415.754
66.08000 346.224
66.12000 290.749
66.16000 286.423
66.20000 288.746
66.24000 295.422
66.28000 329.660
66.32000 374.612
66.36000 394.069
66.40000 423.977
66.44000 416.722
66.48000 410.782
66.52000 377.886
66.56000 330.766
66.60000 313.077
66.64000 296.352
66.68000 313.529
66.72000 291.329
66.76000 304.342
66.80000 316.886
66.84000 333.910
66.88000 302.573
66.92000 313.252
66.96000 323.151
67.00000 320.231
67.04000 351.750
67.08000 336.727
67.12000 339.633
67.16000 350.345
67.20000 346.384
67.24000 357.765
67.28000 353.290
67.32000 365.531
67.36000 379.389
67.40000 373.470
67.44000 383.140
67.48000 396.737
67.52000 404.138
67.56000 402.103
67.60000 404.665
67.64000 412.988
67.68000 430.603
67.72000 430.137
67.76000 450.221
67.80000 444.087
67.84000 448.662
67.88000 476.817
67.92000 503.430
67.96000 501.079
68.00000 507.834
68.04000 518.980
68.08000 499.332
68.12000 538.441
68.16000 553.427
68.20000 549.050
68.24000 569.742
68.28000 573.564
68.32000 578.451
68.36000 616.598
68.40000 635.249
68.44000 661.752
68.48000 700.435
68.52000 764.265
68.56000 789.962
68.60000 861.576
68.64000 1022.305
68.68000 1228.801
68.72000 1354.797
68.76000 1599.899
68.80000 1748.968
68.84000 1987.430
68.88000 2537.583
68.92000 3918.230
68.96000 11181.738
69.00000 25450.264
69.04000 40570.789
69.08000 47716.949
69.12000 49348.180
69.16000 51428.754
69.20000 51666.422
69.24000 43390.641
69.28000 32509.990
69.32000 26847.932
69.36000 24284.182
69.40000 20073.162
69.44000 12662.333
69.48000 5550.722
69.52000 2601.404
69.56000 1626.194
69.60000 1299.168
69.64000 1121.502
69.68000 1008.821
69.72000 884.452
69.76000 822.326
69.80000 785.131
69.84000 737.007
69.88000 693.354
69.92000 679.047
69.96000 643.932
70.00000 612.788