File: XRD/24-09-2025 Dep 3/XY Data/BTO_Mapping_Theta2Theta_24-09-2025_001_33_-39-126_8-316.xy
20.00000 602.611
20.04000 566.840
20.08000 574.100
20.12000 575.820
20.16000 556.497
20.20000 556.925
20.24000 579.271
20.28000 570.665
20.32000 561.669
20.36000 574.360
20.40000 566.989
20.44000 571.797
20.48000 559.957
20.52000 553.167
20.56000 552.944
20.60000 565.337
20.64000 560.281
20.68000 562.424
20.72000 557.213
20.76000 567.112
20.80000 575.026
20.84000 567.313
20.88000 544.812
20.92000 557.109
20.96000 561.077
21.00000 577.115
21.04000 552.027
21.08000 566.423
21.12000 533.897
21.16000 572.277
21.20000 552.414
21.24000 553.064
21.28000 567.367
21.32000 563.762
21.36000 553.571
21.40000 571.484
21.44000 558.167
21.48000 573.863
21.52000 555.800
21.56000 596.627
21.60000 600.503
21.64000 630.816
21.68000 642.853
21.72000 687.321
21.76000 718.481
21.80000 807.675
21.84000 864.399
21.88000 945.315
21.92000 995.388
21.96000 992.167
22.00000 981.143
22.04000 961.748
22.08000 855.884
22.12000 813.744
22.16000 747.987
22.20000 653.893
22.24000 636.008
22.28000 620.332
22.32000 607.311
22.36000 569.766
22.40000 573.708
22.44000 565.443
22.48000 541.790
22.52000 534.475
22.56000 548.205
22.60000 541.324
22.64000 537.384
22.68000 522.868
22.72000 528.392
22.76000 523.381
22.80000 522.567
22.84000 523.975
22.88000 526.492
22.92000 541.504
22.96000 516.385
23.00000 507.763
23.04000 527.021
23.08000 518.296
23.12000 510.013
23.16000 521.097
23.20000 533.238
23.24000 520.562
23.28000 523.879
23.32000 517.048
23.36000 501.579
23.40000 518.890
23.44000 529.148
23.48000 497.548
23.52000 519.066
23.56000 512.926
23.60000 516.900
23.64000 502.778
23.68000 502.133
23.72000 485.539
23.76000 493.059
23.80000 511.903
23.84000 510.942
23.88000 518.485
23.92000 511.179
23.96000 503.832
24.00000 501.380
24.04000 492.300
24.08000 507.176
24.12000 486.669
24.16000 503.631
24.20000 492.558
24.24000 475.390
24.28000 507.351
24.32000 499.870
24.36000 497.981
24.40000 488.007
24.44000 490.312
24.48000 503.725
24.52000 487.439
24.56000 485.760
24.60000 496.724
24.64000 492.053
24.68000 495.555
24.72000 487.500
24.76000 501.155
24.80000 498.815
24.84000 483.271
24.88000 485.827
24.92000 491.304
24.96000 496.999
25.00000 495.535
25.04000 493.143
25.08000 470.615
25.12000 468.780
25.16000 462.568
25.20000 484.179
25.24000 470.089
25.28000 480.161
25.32000 492.963
25.36000 466.336
25.40000 495.420
25.44000 484.928
25.48000 494.548
25.52000 475.894
25.56000 483.273
25.60000 490.448
25.64000 468.490
25.68000 459.051
25.72000 452.805
25.76000 464.976
25.80000 470.437
25.84000 476.685
25.88000 466.211
25.92000 469.798
25.96000 459.769
26.00000 461.017
26.04000 465.066
26.08000 451.897
26.12000 485.411
26.16000 481.372
26.20000 466.475
26.24000 473.921
26.28000 475.570
26.32000 449.809
26.36000 456.353
26.40000 474.442
26.44000 454.443
26.48000 484.810
26.52000 468.421
26.56000 456.025
26.60000 464.178
26.64000 454.982
26.68000 470.966
26.72000 458.950
26.76000 462.352
26.80000 459.922
26.84000 473.272
26.88000 442.143
26.92000 455.931
26.96000 450.914
27.00000 432.805
27.04000 446.013
27.08000 456.508
27.12000 453.517
27.16000 461.499
27.20000 457.762
27.24000 476.409
27.28000 461.493
27.32000 463.275
27.36000 442.999
27.40000 462.900
27.44000 448.841
27.48000 441.034
27.52000 439.840
27.56000 462.347
27.60000 441.537
27.64000 429.886
27.68000 445.278
27.72000 447.624
27.76000 433.358
27.80000 447.079
27.84000 450.633
27.88000 447.911
27.92000 434.454
27.96000 449.531
28.00000 455.384
28.04000 438.179
28.08000 453.740
28.12000 429.934
28.16000 463.172
28.20000 434.861
28.24000 444.597
28.28000 434.716
28.32000 445.116
28.36000 469.535
28.40000 440.527
28.44000 439.918
28.48000 447.711
28.52000 435.765
28.56000 439.264
28.60000 424.601
28.64000 418.227
28.68000 420.853
28.72000 410.719
28.76000 431.559
28.80000 405.877
28.84000 419.574
28.88000 438.535
28.92000 423.656
28.96000 435.273
29.00000 430.245
29.04000 422.748
29.08000 434.946
29.12000 419.186
29.16000 413.151
29.20000 422.498
29.24000 433.745
29.28000 439.944
29.32000 425.933
29.36000 410.847
29.40000 434.222
29.44000 419.014
29.48000 444.129
29.52000 423.669
29.56000 427.753
29.60000 424.744
29.64000 423.250
29.68000 442.887
29.72000 454.326
29.76000 451.896
29.80000 457.630
29.84000 448.103
29.88000 467.553
29.92000 509.602
29.96000 481.877
30.00000 479.578
30.04000 460.710
30.08000 442.925
30.12000 463.980
30.16000 465.622
30.20000 425.467
30.24000 462.986
30.28000 439.452
30.32000 423.142
30.36000 451.388
30.40000 450.882
30.44000 461.631
30.48000 439.923
30.52000 454.986
30.56000 473.452
30.60000 463.553
30.64000 479.933
30.68000 470.736
30.72000 479.269
30.76000 486.640
30.80000 545.068
30.84000 532.057
30.88000 647.689
30.92000 726.121
30.96000 877.760
31.00000 1120.296
31.04000 1517.173
31.08000 2055.336
31.12000 2768.272
31.16000 3481.951
31.20000 4105.866
31.24000 4518.436
31.28000 4580.397
31.32000 4377.455
31.36000 3849.201
31.40000 3242.243
31.44000 2510.881
31.48000 1850.272
31.52000 1405.289
31.56000 1107.828
31.60000 861.105
31.64000 704.677
31.68000 640.454
31.72000 572.419
31.76000 517.440
31.80000 490.754
31.84000 465.929
31.88000 447.034
31.92000 445.949
31.96000 421.814
32.00000 430.999
32.04000 415.390
32.08000 408.049
32.12000 422.852
32.16000 414.523
32.20000 428.391
32.24000 416.000
32.28000 398.649
32.32000 391.486
32.36000 404.372
32.40000 400.063
32.44000 387.946
32.48000 382.659
32.52000 398.422
32.56000 391.905
32.60000 393.323
32.64000 398.233
32.68000 390.330
32.72000 396.813
32.76000 390.197
32.80000 457.097
32.84000 534.706
32.88000 616.172
32.92000 670.309
32.96000 658.942
33.00000 688.671
33.04000 608.344
33.08000 523.694
33.12000 465.055
33.16000 407.541
33.20000 383.083
33.24000 368.230
33.28000 358.267
33.32000 378.983
33.36000 364.260
33.40000 359.111
33.44000 352.515
33.48000 356.882
33.52000 342.667
33.56000 348.566
33.60000 354.790
33.64000 348.644
33.68000 340.970
33.72000 346.325
33.76000 349.743
33.80000 360.547
33.84000 353.318
33.88000 352.819
33.92000 359.977
33.96000 347.353
34.00000 338.615
34.04000 350.359
34.08000 336.214
34.12000 339.613
34.16000 345.953
34.20000 328.357
34.24000 333.612
34.28000 332.172
34.32000 336.169
34.36000 340.365
34.40000 344.117
34.44000 346.032
34.48000 320.001
34.52000 328.655
34.56000 352.822
34.60000 322.058
34.64000 334.568
34.68000 332.059
34.72000 340.769
34.76000 317.891
34.80000 326.392
34.84000 323.846
34.88000 319.238
34.92000 318.861
34.96000 330.002
35.00000 321.525
35.04000 336.428
35.08000 333.334
35.12000 327.668
35.16000 332.797
35.20000 322.038
35.24000 306.345
35.28000 313.890
35.32000 335.083
35.36000 322.539
35.40000 320.510
35.44000 315.470
35.48000 304.686
35.52000 303.887
35.56000 312.885
35.60000 315.588
35.64000 314.781
35.68000 308.823
35.72000 322.825
35.76000 310.283
35.80000 326.783
35.84000 304.146
35.88000 311.222
35.92000 312.599
35.96000 307.827
36.00000 301.869
36.04000 311.170
36.08000 308.113
36.12000 307.998
36.16000 302.002
36.20000 292.430
36.24000 310.575
36.28000 316.390
36.32000 318.963
36.36000 305.217
36.40000 295.861
36.44000 312.685
36.48000 310.469
36.52000 307.176
36.56000 316.965
36.60000 308.571
36.64000 303.895
36.68000 300.684
36.72000 308.142
36.76000 322.273
36.80000 316.507
36.84000 299.481
36.88000 330.418
36.92000 318.201
36.96000 307.367
37.00000 313.403
37.04000 314.761
37.08000 308.821
37.12000 307.709
37.16000 304.435
37.20000 303.960
37.24000 292.097
37.28000 298.132
37.32000 295.965
37.36000 303.621
37.40000 304.990
37.44000 309.301
37.48000 299.248
37.52000 291.782
37.56000 296.145
37.60000 293.032
37.64000 287.810
37.68000 308.849
37.72000 301.169
37.76000 305.119
37.80000 305.065
37.84000 307.405
37.88000 300.698
37.92000 304.151
37.96000 307.773
38.00000 314.355
38.04000 329.549
38.08000 317.022
38.12000 327.596
38.16000 318.056
38.20000 357.025
38.24000 342.425
38.28000 365.422
38.32000 387.217
38.36000 452.123
38.40000 502.099
38.44000 539.828
38.48000 595.418
38.52000 633.955
38.56000 673.483
38.60000 675.528
38.64000 650.906
38.68000 618.191
38.72000 563.110
38.76000 497.595
38.80000 459.418
38.84000 397.843
38.88000 376.362
38.92000 331.718
38.96000 319.320
39.00000 322.864
39.04000 300.659
39.08000 307.370
39.12000 296.882
39.16000 298.411
39.20000 279.676
39.24000 285.239
39.28000 291.360
39.32000 281.468
39.36000 276.847
39.40000 258.004
39.44000 287.150
39.48000 276.416
39.52000 281.315
39.56000 268.228
39.60000 256.728
39.64000 270.446
39.68000 269.541
39.72000 278.577
39.76000 266.881
39.80000 273.079
39.84000 265.177
39.88000 269.414
39.92000 272.102
39.96000 261.733
40.00000 274.899
40.04000 270.782
40.08000 263.001
40.12000 259.294
40.16000 269.487
40.20000 259.478
40.24000 256.945
40.28000 274.738
40.32000 260.686
40.36000 275.853
40.40000 251.931
40.44000 276.409
40.48000 247.723
40.52000 261.750
40.56000 246.286
40.60000 253.504
40.64000 270.950
40.68000 257.858
40.72000 260.068
40.76000 250.989
40.80000 260.712
40.84000 260.546
40.88000 252.164
40.92000 252.795
40.96000 258.265
41.00000 255.612
41.04000 247.190
41.08000 256.759
41.12000 247.378
41.16000 254.004
41.20000 261.630
41.24000 251.205
41.28000 250.974
41.32000 254.318
41.36000 244.957
41.40000 252.580
41.44000 250.652
41.48000 247.756
41.52000 246.204
41.56000 257.315
41.60000 255.942
41.64000 258.711
41.68000 253.589
41.72000 247.486
41.76000 222.467
41.80000 239.856
41.84000 247.238
41.88000 233.394
41.92000 240.663
41.96000 242.177
42.00000 248.044
42.04000 238.945
42.08000 245.994
42.12000 251.934
42.16000 236.106
42.20000 236.772
42.24000 235.512
42.28000 236.449
42.32000 240.502
42.36000 251.985
42.40000 227.280
42.44000 235.934
42.48000 231.832
42.52000 233.503
42.56000 246.095
42.60000 239.835
42.64000 227.601
42.68000 245.791
42.72000 220.534
42.76000 230.541
42.80000 247.631
42.84000 235.118
42.88000 235.510
42.92000 236.426
42.96000 239.602
43.00000 234.484
43.04000 232.655
43.08000 235.365
43.12000 242.096
43.16000 231.973
43.20000 221.326
43.24000 228.881
43.28000 234.851
43.32000 238.599
43.36000 219.720
43.40000 233.058
43.44000 237.355
43.48000 235.032
43.52000 236.491
43.56000 223.912
43.60000 245.892
43.64000 234.724
43.68000 230.398
43.72000 239.868
43.76000 222.777
43.80000 245.964
43.84000 246.747
43.88000 229.823
43.92000 234.135
43.96000 244.777
44.00000 228.817
44.04000 232.707
44.08000 232.181
44.12000 229.602
44.16000 244.951
44.20000 231.775
44.24000 243.490
44.28000 256.605
44.32000 255.956
44.36000 261.777
44.40000 289.151
44.44000 308.508
44.48000 312.459
44.52000 352.483
44.56000 399.880
44.60000 424.545
44.64000 452.090
44.68000 488.975
44.72000 539.198
44.76000 572.205
44.80000 619.729
44.84000 625.237
44.88000 636.645
44.92000 619.374
44.96000 586.798
45.00000 556.001
45.04000 511.392
45.08000 462.352
45.12000 409.481
45.16000 377.952
45.20000 367.431
45.24000 338.242
45.28000 327.094
45.32000 308.672
45.36000 290.648
45.40000 270.109
45.44000 268.877
45.48000 260.367
45.52000 251.712
45.56000 254.292
45.60000 239.335
45.64000 241.252
45.68000 242.945
45.72000 240.549
45.76000 225.499
45.80000 229.765
45.84000 223.649
45.88000 212.732
45.92000 215.419
45.96000 213.226
46.00000 217.247
46.04000 220.060
46.08000 222.401
46.12000 203.920
46.16000 212.137
46.20000 211.625
46.24000 210.952
46.28000 211.742
46.32000 195.051
46.36000 205.599
46.40000 217.093
46.44000 211.470
46.48000 206.803
46.52000 208.834
46.56000 211.825
46.60000 211.959
46.64000 221.364
46.68000 210.486
46.72000 192.477
46.76000 212.406
46.80000 200.623
46.84000 207.350
46.88000 203.323
46.92000 202.907
46.96000 210.225
47.00000 195.229
47.04000 205.200
47.08000 199.569
47.12000 204.307
47.16000 201.202
47.20000 194.322
47.24000 196.242
47.28000 184.028
47.32000 190.790
47.36000 193.075
47.40000 200.521
47.44000 198.121
47.48000 188.688
47.52000 193.792
47.56000 183.550
47.60000 192.465
47.64000 198.106
47.68000 201.557
47.72000 192.906
47.76000 183.237
47.80000 199.819
47.84000 192.010
47.88000 192.608
47.92000 184.996
47.96000 193.672
48.00000 192.818
48.04000 182.046
48.08000 180.423
48.12000 178.810
48.16000 195.348
48.20000 195.124
48.24000 189.025
48.28000 196.787
48.32000 191.924
48.36000 191.755
48.40000 182.622
48.44000 177.704
48.48000 175.541
48.52000 183.608
48.56000 190.076
48.60000 188.296
48.64000 198.492
48.68000 201.244
48.72000 187.911
48.76000 190.960
48.80000 182.452
48.84000 185.570
48.88000 183.348
48.92000 186.853
48.96000 181.281
49.00000 183.931
49.04000 181.811
49.08000 177.205
49.12000 168.242
49.16000 180.732
49.20000 178.286
49.24000 178.301
49.28000 192.734
49.32000 197.448
49.36000 179.756
49.40000 191.027
49.44000 187.631
49.48000 188.043
49.52000 190.366
49.56000 178.407
49.60000 196.077
49.64000 178.077
49.68000 178.486
49.72000 181.737
49.76000 182.343
49.80000 182.029
49.84000 186.996
49.88000 189.680
49.92000 193.881
49.96000 195.846
50.00000 180.220
50.04000 188.940
50.08000 200.780
50.12000 217.662
50.16000 217.693
50.20000 218.251
50.24000 244.589
50.28000 248.109
50.32000 259.007
50.36000 271.096
50.40000 285.834
50.44000 274.730
50.48000 302.692
50.52000 305.046
50.56000 317.213
50.60000 307.129
50.64000 272.986
50.68000 271.911
50.72000 253.398
50.76000 236.840
50.80000 237.836
50.84000 228.105
50.88000 213.821
50.92000 200.897
50.96000 201.519
51.00000 184.519
51.04000 185.448
51.08000 186.267
51.12000 189.896
51.16000 175.376
51.20000 183.197
51.24000 176.645
51.28000 169.961
51.32000 172.727
51.36000 168.121
51.40000 175.280
51.44000 177.225
51.48000 154.307
51.52000 175.555
51.56000 170.847
51.60000 178.763
51.64000 170.199
51.68000 167.610
51.72000 170.436
51.76000 178.259
51.80000 169.170
51.84000 178.159
51.88000 171.151
51.92000 180.635
51.96000 160.708
52.00000 169.043
52.04000 170.197
52.08000 173.224
52.12000 160.476
52.16000 166.225
52.20000 163.830
52.24000 165.602
52.28000 171.486
52.32000 175.300
52.36000 169.740
52.40000 169.833
52.44000 164.283
52.48000 178.365
52.52000 171.094
52.56000 170.785
52.60000 175.019
52.64000 166.226
52.68000 163.074
52.72000 157.455
52.76000 164.272
52.80000 162.485
52.84000 169.406
52.88000 173.694
52.92000 158.658
52.96000 160.003
53.00000 168.739
53.04000 169.612
53.08000 167.535
53.12000 161.883
53.16000 176.396
53.20000 176.602
53.24000 173.428
53.28000 175.097
53.32000 161.868
53.36000 165.119
53.40000 167.483
53.44000 163.461
53.48000 159.184
53.52000 165.268
53.56000 159.046
53.60000 152.876
53.64000 154.483
53.68000 159.649
53.72000 163.313
53.76000 146.446
53.80000 155.910
53.84000 159.270
53.88000 160.634
53.92000 159.111
53.96000 153.953
54.00000 158.867
54.04000 164.112
54.08000 155.368
54.12000 157.727
54.16000 163.760
54.20000 165.845
54.24000 155.827
54.28000 164.788
54.32000 167.415
54.36000 172.071
54.40000 166.860
54.44000 167.701
54.48000 157.403
54.52000 166.025
54.56000 151.955
54.60000 158.058
54.64000 162.508
54.68000 167.689
54.72000 161.531
54.76000 171.813
54.80000 163.535
54.84000 168.375
54.88000 175.632
54.92000 170.714
54.96000 171.672
55.00000 176.916
55.04000 187.254
55.08000 167.858
55.12000 180.846
55.16000 180.656
55.20000 190.958
55.24000 201.861
55.28000 223.341
55.32000 228.813
55.36000 257.789
55.40000 316.127
55.44000 336.627
55.48000 412.473
55.52000 460.060
55.56000 534.040
55.60000 608.257
55.64000 679.704
55.68000 750.906
55.72000 784.952
55.76000 792.143
55.80000 789.190
55.84000 733.014
55.88000 680.208
55.92000 601.372
55.96000 534.026
56.00000 473.423
56.04000 407.527
56.08000 347.029
56.12000 314.833
56.16000 267.858
56.20000 238.982
56.24000 211.490
56.28000 209.638
56.32000 210.221
56.36000 185.747
56.40000 173.007
56.44000 174.469
56.48000 172.395
56.52000 171.235
56.56000 175.685
56.60000 165.431
56.64000 151.089
56.68000 156.486
56.72000 155.487
56.76000 163.428
56.80000 152.090
56.84000 156.370
56.88000 151.042
56.92000 147.930
56.96000 155.154
57.00000 144.897
57.04000 150.590
57.08000 146.453
57.12000 151.637
57.16000 139.474
57.20000 149.385
57.24000 148.742
57.28000 149.273
57.32000 140.694
57.36000 150.720
57.40000 154.744
57.44000 151.753
57.48000 150.179
57.52000 138.734
57.56000 156.950
57.60000 149.786
57.64000 142.984
57.68000 144.988
57.72000 154.223
57.76000 138.368
57.80000 156.827
57.84000 149.541
57.88000 146.213
57.92000 147.057
57.96000 144.722
58.00000 153.086
58.04000 153.603
58.08000 145.804
58.12000 143.778
58.16000 152.462
58.20000 148.990
58.24000 141.091
58.28000 145.874
58.32000 136.777
58.36000 146.781
58.40000 147.224
58.44000 147.641
58.48000 144.177
58.52000 139.609
58.56000 130.941
58.60000 130.002
58.64000 133.673
58.68000 128.106
58.72000 142.313
58.76000 137.809
58.80000 148.927
58.84000 132.732
58.88000 136.422
58.92000 142.331
58.96000 137.157
59.00000 147.524
59.04000 138.321
59.08000 151.050
59.12000 136.199
59.16000 138.072
59.20000 131.296
59.24000 145.973
59.28000 132.776
59.32000 131.742
59.36000 135.237
59.40000 141.659
59.44000 138.177
59.48000 136.823
59.52000 132.708
59.56000 132.906
59.60000 132.022
59.64000 131.449
59.68000 140.787
59.72000 134.278
59.76000 134.724
59.80000 138.567
59.84000 143.983
59.88000 128.973
59.92000 144.675
59.96000 136.305
60.00000 138.822
60.04000 128.539
60.08000 134.365
60.12000 136.422
60.16000 137.282
60.20000 133.421
60.24000 132.052
60.28000 127.438
60.32000 130.720
60.36000 140.645
60.40000 134.453
60.44000 143.003
60.48000 134.107
60.52000 131.289
60.56000 130.797
60.60000 127.312
60.64000 141.881
60.68000 132.613
60.72000 132.139
60.76000 139.471
60.80000 132.688
60.84000 128.154
60.88000 132.812
60.92000 135.316
60.96000 138.887
61.00000 132.451
61.04000 139.782
61.08000 137.650
61.12000 134.785
61.16000 130.016
61.20000 142.267
61.24000 139.698
61.28000 151.475
61.32000 138.342
61.36000 140.331
61.40000 145.643
61.44000 153.740
61.48000 153.681
61.52000 185.930
61.56000 271.109
61.60000 338.414
61.64000 402.791
61.68000 434.848
61.72000 418.092
61.76000 390.307
61.80000 300.835
61.84000 224.025
61.88000 179.311
61.92000 162.740
61.96000 157.189
62.00000 154.614
62.04000 149.974
62.08000 149.858
62.12000 155.281
62.16000 143.754
62.20000 159.415
62.24000 141.836
62.28000 145.838
62.32000 144.705
62.36000 144.743
62.40000 156.271
62.44000 160.580
62.48000 150.672
62.52000 150.793
62.56000 142.905
62.60000 145.664
62.64000 139.853
62.68000 144.945
62.72000 139.241
62.76000 148.131
62.80000 156.068
62.84000 157.532
62.88000 143.199
62.92000 144.823
62.96000 147.381
63.00000 144.197
63.04000 157.679
63.08000 152.149
63.12000 155.864
63.16000 144.504
63.20000 153.228
63.24000 154.556
63.28000 156.015
63.32000 156.743
63.36000 146.546
63.40000 158.939
63.44000 157.911
63.48000 145.274
63.52000 150.710
63.56000 149.873
63.60000 154.402
63.64000 165.464
63.68000 153.689
63.72000 169.649
63.76000 158.543
63.80000 154.363
63.84000 154.566
63.88000 161.158
63.92000 154.077
63.96000 163.308
64.00000 156.882
64.04000 166.683
64.08000 164.341
64.12000 162.986
64.16000 163.290
64.20000 169.021
64.24000 173.438
64.28000 168.922
64.32000 168.819
64.36000 178.328
64.40000 177.948
64.44000 167.836
64.48000 169.889
64.52000 188.460
64.56000 175.129
64.60000 195.372
64.64000 188.298
64.68000 203.367
64.72000 195.440
64.76000 202.841
64.80000 221.001
64.84000 209.055
64.88000 237.967
64.92000 262.514
64.96000 285.630
65.00000 297.436
65.04000 325.137
65.08000 373.237
65.12000 398.959
65.16000 419.205
65.20000 455.843
65.24000 444.414
65.28000 465.930
65.32000 475.973
65.36000 461.500
65.40000 461.600
65.44000 438.906
65.48000 436.740
65.52000 417.556
65.56000 420.575
65.60000 433.268
65.64000 488.767
65.68000 596.107
65.72000 893.057
65.76000 1334.463
65.80000 1714.630
65.84000 1859.665
65.88000 1913.916
65.92000 1855.992
65.96000 1519.955
66.00000 1050.196
66.04000 681.425
66.08000 508.141
66.12000 411.459
66.16000 393.269
66.20000 384.509
66.24000 412.325
66.28000 460.382
66.32000 560.744
66.36000 615.215
66.40000 647.296
66.44000 653.032
66.48000 618.808
66.52000 568.796
66.56000 481.862
66.60000 426.579
66.64000 389.790
66.68000 388.477
66.72000 397.341
66.76000 392.942
66.80000 389.033
66.84000 408.674
66.88000 391.372
66.92000 431.387
66.96000 422.320
67.00000 422.869
67.04000 442.199
67.08000 441.011
67.12000 463.780
67.16000 460.148
67.20000 466.490
67.24000 474.009
67.28000 494.055
67.32000 485.477
67.36000 463.454
67.40000 491.509
67.44000 495.262
67.48000 504.488
67.52000 523.940
67.56000 527.524
67.60000 546.728
67.64000 577.792
67.68000 596.755
67.72000 574.657
67.76000 604.025
67.80000 600.908
67.84000 603.963
67.88000 623.989
67.92000 652.014
67.96000 650.689
68.00000 679.144
68.04000 669.929
68.08000 694.295
68.12000 683.160
68.16000 706.521
68.20000 756.448
68.24000 777.122
68.28000 817.621
68.32000 811.637
68.36000 847.603
68.40000 878.675
68.44000 918.652
68.48000 999.245
68.52000 1046.843
68.56000 1137.543
68.60000 1299.833
68.64000 1607.864
68.68000 1964.498
68.72000 2344.539
68.76000 2668.175
68.80000 3033.167
68.84000 3542.220
68.88000 4808.791
68.92000 8293.219
68.96000 24226.338
69.00000 53840.543
69.04000 85030.555
69.08000 100618.188
69.12000 105045.945
69.16000 109188.016
69.20000 106880.516
69.24000 89945.133
69.28000 69885.250
69.32000 56868.707
69.36000 50522.516
69.40000 40580.547
69.44000 25958.912
69.48000 11952.609
69.52000 5061.034
69.56000 2876.830
69.60000 2150.203
69.64000 1847.077
69.68000 1516.517
69.72000 1380.800
69.76000 1258.254
69.80000 1123.648
69.84000 1067.257
69.88000 986.787
69.92000 889.288
69.96000 870.102
70.00000 856.129