File: XRD/24-09-2025 Dep 3/XY Data/BTO_Mapping_Theta2Theta_24-09-2025_001_21_-4-181_39-781.xy
20.00000 564.938
20.04000 562.758
20.08000 556.290
20.12000 558.692
20.16000 562.334
20.20000 563.113
20.24000 559.539
20.28000 550.591
20.32000 574.199
20.36000 547.678
20.40000 557.538
20.44000 545.471
20.48000 540.381
20.52000 559.256
20.56000 539.926
20.60000 566.268
20.64000 558.691
20.68000 556.989
20.72000 536.782
20.76000 559.344
20.80000 548.848
20.84000 557.406
20.88000 543.643
20.92000 558.215
20.96000 571.197
21.00000 559.136
21.04000 553.904
21.08000 562.224
21.12000 559.990
21.16000 535.457
21.20000 557.405
21.24000 540.308
21.28000 545.749
21.32000 546.627
21.36000 550.218
21.40000 551.374
21.44000 555.794
21.48000 548.308
21.52000 551.677
21.56000 554.627
21.60000 545.838
21.64000 530.940
21.68000 538.206
21.72000 554.294
21.76000 543.415
21.80000 583.724
21.84000 575.043
21.88000 594.011
21.92000 594.982
21.96000 627.184
22.00000 649.329
22.04000 659.662
22.08000 662.560
22.12000 657.379
22.16000 669.533
22.20000 660.088
22.24000 641.109
22.28000 629.541
22.32000 610.677
22.36000 591.001
22.40000 614.967
22.44000 566.231
22.48000 584.286
22.52000 562.295
22.56000 551.322
22.60000 515.634
22.64000 521.344
22.68000 516.362
22.72000 535.469
22.76000 539.234
22.80000 522.580
22.84000 513.500
22.88000 516.636
22.92000 514.470
22.96000 521.445
23.00000 515.157
23.04000 499.369
23.08000 505.890
23.12000 519.931
23.16000 517.177
23.20000 487.671
23.24000 507.812
23.28000 479.100
23.32000 513.616
23.36000 532.570
23.40000 523.485
23.44000 496.857
23.48000 495.384
23.52000 479.497
23.56000 501.353
23.60000 472.384
23.64000 498.904
23.68000 493.933
23.72000 478.256
23.76000 509.263
23.80000 496.060
23.84000 488.718
23.88000 488.938
23.92000 477.663
23.96000 495.570
24.00000 493.163
24.04000 492.789
24.08000 490.028
24.12000 466.636
24.16000 509.022
24.20000 471.152
24.24000 494.674
24.28000 490.034
24.32000 487.935
24.36000 480.576
24.40000 482.505
24.44000 507.822
24.48000 492.914
24.52000 478.437
24.56000 474.737
24.60000 493.281
24.64000 478.072
24.68000 496.204
24.72000 468.442
24.76000 491.492
24.80000 491.469
24.84000 483.050
24.88000 489.841
24.92000 462.914
24.96000 470.454
25.00000 482.655
25.04000 473.464
25.08000 448.060
25.12000 469.364
25.16000 469.455
25.20000 456.234
25.24000 455.208
25.28000 477.415
25.32000 482.590
25.36000 462.278
25.40000 474.958
25.44000 468.490
25.48000 475.211
25.52000 469.395
25.56000 464.255
25.60000 452.536
25.64000 459.083
25.68000 449.009
25.72000 472.158
25.76000 459.326
25.80000 455.299
25.84000 440.900
25.88000 482.339
25.92000 448.450
25.96000 468.165
26.00000 461.737
26.04000 443.599
26.08000 465.508
26.12000 462.018
26.16000 460.374
26.20000 458.933
26.24000 444.449
26.28000 449.389
26.32000 482.757
26.36000 462.593
26.40000 414.947
26.44000 439.745
26.48000 475.157
26.52000 449.728
26.56000 439.087
26.60000 447.874
26.64000 447.718
26.68000 439.542
26.72000 449.196
26.76000 448.785
26.80000 445.802
26.84000 443.994
26.88000 444.927
26.92000 440.717
26.96000 435.013
27.00000 435.197
27.04000 432.180
27.08000 461.362
27.12000 449.911
27.16000 458.839
27.20000 465.869
27.24000 450.240
27.28000 451.172
27.32000 452.523
27.36000 443.620
27.40000 437.229
27.44000 456.280
27.48000 429.864
27.52000 458.996
27.56000 428.785
27.60000 440.294
27.64000 425.206
27.68000 438.965
27.72000 431.313
27.76000 432.719
27.80000 438.635
27.84000 412.148
27.88000 433.377
27.92000 440.454
27.96000 426.534
28.00000 429.494
28.04000 430.326
28.08000 418.240
28.12000 431.978
28.16000 433.183
28.20000 440.720
28.24000 427.366
28.28000 426.581
28.32000 444.164
28.36000 430.878
28.40000 419.913
28.44000 419.611
28.48000 408.980
28.52000 417.032
28.56000 415.966
28.60000 414.369
28.64000 421.525
28.68000 413.842
28.72000 407.711
28.76000 408.708
28.80000 411.921
28.84000 414.701
28.88000 429.318
28.92000 410.112
28.96000 392.548
29.00000 409.368
29.04000 419.863
29.08000 423.594
29.12000 398.590
29.16000 416.114
29.20000 395.524
29.24000 402.785
29.28000 414.165
29.32000 421.788
29.36000 403.848
29.40000 416.694
29.44000 407.285
29.48000 420.663
29.52000 422.318
29.56000 401.906
29.60000 410.080
29.64000 394.929
29.68000 420.183
29.72000 411.113
29.76000 422.574
29.80000 409.383
29.84000 416.574
29.88000 434.895
29.92000 419.387
29.96000 428.876
30.00000 433.898
30.04000 437.291
30.08000 429.262
30.12000 426.380
30.16000 439.896
30.20000 421.657
30.24000 414.707
30.28000 427.396
30.32000 449.533
30.36000 411.594
30.40000 410.539
30.44000 414.347
30.48000 411.738
30.52000 404.732
30.56000 435.059
30.60000 419.036
30.64000 441.421
30.68000 420.357
30.72000 435.767
30.76000 424.823
30.80000 437.660
30.84000 437.432
30.88000 462.864
30.92000 446.337
30.96000 464.901
31.00000 502.346
31.04000 542.788
31.08000 574.881
31.12000 660.374
31.16000 810.297
31.20000 1014.293
31.24000 1245.751
31.28000 1546.890
31.32000 1875.179
31.36000 2125.328
31.40000 2264.760
31.44000 2261.034
31.48000 2177.068
31.52000 1902.728
31.56000 1698.230
31.60000 1350.466
31.64000 1093.961
31.68000 904.920
31.72000 750.689
31.76000 648.053
31.80000 601.027
31.84000 508.626
31.88000 490.089
31.92000 475.597
31.96000 443.046
32.00000 430.933
32.04000 433.622
32.08000 403.550
32.12000 402.550
32.16000 393.097
32.20000 409.572
32.24000 405.649
32.28000 389.757
32.32000 381.943
32.36000 399.808
32.40000 372.815
32.44000 398.730
32.48000 375.407
32.52000 374.913
32.56000 381.135
32.60000 368.599
32.64000 370.628
32.68000 377.127
32.72000 375.119
32.76000 375.633
32.80000 380.968
32.84000 410.327
32.88000 432.805
32.92000 465.450
32.96000 476.564
33.00000 474.431
33.04000 468.498
33.08000 427.341
33.12000 397.570
33.16000 376.451
33.20000 353.263
33.24000 347.157
33.28000 337.336
33.32000 341.069
33.36000 331.463
33.40000 342.336
33.44000 331.900
33.48000 351.793
33.52000 335.557
33.56000 340.554
33.60000 355.163
33.64000 346.942
33.68000 335.329
33.72000 354.284
33.76000 324.593
33.80000 335.099
33.84000 315.880
33.88000 327.416
33.92000 331.603
33.96000 332.200
34.00000 328.167
34.04000 337.666
34.08000 337.877
34.12000 316.997
34.16000 333.498
34.20000 329.287
34.24000 326.296
34.28000 325.514
34.32000 331.636
34.36000 308.853
34.40000 330.921
34.44000 345.740
34.48000 326.969
34.52000 317.638
34.56000 306.152
34.60000 305.936
34.64000 325.936
34.68000 316.659
34.72000 312.782
34.76000 339.107
34.80000 323.417
34.84000 312.689
34.88000 319.067
34.92000 316.996
34.96000 321.382
35.00000 309.217
35.04000 303.836
35.08000 317.197
35.12000 316.528
35.16000 312.827
35.20000 305.381
35.24000 318.517
35.28000 316.118
35.32000 319.709
35.36000 303.650
35.40000 315.388
35.44000 309.124
35.48000 313.074
35.52000 302.474
35.56000 301.660
35.60000 311.340
35.64000 317.549
35.68000 303.981
35.72000 310.616
35.76000 303.958
35.80000 291.601
35.84000 310.104
35.88000 287.708
35.92000 321.109
35.96000 304.680
36.00000 302.139
36.04000 293.560
36.08000 289.789
36.12000 292.938
36.16000 305.705
36.20000 300.473
36.24000 283.160
36.28000 301.109
36.32000 296.280
36.36000 298.645
36.40000 315.042
36.44000 304.716
36.48000 304.962
36.52000 305.464
36.56000 310.040
36.60000 304.854
36.64000 299.859
36.68000 301.822
36.72000 293.049
36.76000 313.466
36.80000 304.273
36.84000 306.366
36.88000 300.340
36.92000 306.185
36.96000 295.469
37.00000 321.573
37.04000 309.609
37.08000 297.670
37.12000 318.190
37.16000 304.845
37.20000 299.235
37.24000 292.874
37.28000 293.652
37.32000 306.356
37.36000 294.397
37.40000 297.575
37.44000 298.233
37.48000 298.167
37.52000 286.882
37.56000 286.165
37.60000 290.032
37.64000 292.443
37.68000 291.833
37.72000 294.206
37.76000 286.811
37.80000 293.949
37.84000 290.200
37.88000 301.515
37.92000 305.217
37.96000 295.240
38.00000 290.329
38.04000 302.754
38.08000 303.848
38.12000 304.251
38.16000 296.091
38.20000 300.803
38.24000 304.102
38.28000 298.331
38.32000 332.474
38.36000 337.338
38.40000 367.428
38.44000 419.557
38.48000 476.631
38.52000 599.106
38.56000 753.979
38.60000 945.666
38.64000 1170.937
38.68000 1435.243
38.72000 1571.894
38.76000 1609.314
38.80000 1601.490
38.84000 1447.500
38.88000 1189.369
38.92000 958.824
38.96000 752.138
39.00000 599.677
39.04000 474.552
39.08000 382.501
39.12000 353.734
39.16000 319.132
39.20000 299.242
39.24000 300.184
39.28000 287.512
39.32000 291.644
39.36000 274.352
39.40000 294.688
39.44000 272.761
39.48000 286.755
39.52000 282.394
39.56000 276.330
39.60000 280.943
39.64000 266.574
39.68000 275.458
39.72000 271.797
39.76000 274.441
39.80000 279.845
39.84000 272.358
39.88000 255.266
39.92000 273.638
39.96000 266.475
40.00000 270.107
40.04000 267.459
40.08000 266.673
40.12000 269.504
40.16000 257.353
40.20000 253.758
40.24000 255.695
40.28000 269.696
40.32000 253.303
40.36000 241.906
40.40000 246.332
40.44000 256.242
40.48000 262.581
40.52000 254.542
40.56000 244.994
40.60000 258.764
40.64000 249.857
40.68000 256.344
40.72000 244.234
40.76000 250.964
40.80000 253.762
40.84000 254.858
40.88000 238.491
40.92000 241.743
40.96000 254.909
41.00000 246.751
41.04000 239.977
41.08000 239.260
41.12000 244.293
41.16000 238.631
41.20000 247.560
41.24000 235.869
41.28000 247.299
41.32000 238.592
41.36000 236.742
41.40000 245.449
41.44000 241.329
41.48000 237.849
41.52000 225.619
41.56000 236.548
41.60000 232.734
41.64000 237.602
41.68000 231.823
41.72000 231.504
41.76000 242.855
41.80000 231.016
41.84000 234.151
41.88000 238.419
41.92000 245.322
41.96000 240.568
42.00000 233.671
42.04000 244.407
42.08000 231.683
42.12000 237.419
42.16000 237.351
42.20000 249.975
42.24000 232.104
42.28000 236.028
42.32000 222.779
42.36000 236.815
42.40000 242.023
42.44000 235.063
42.48000 238.000
42.52000 244.321
42.56000 221.546
42.60000 232.062
42.64000 233.965
42.68000 240.090
42.72000 215.798
42.76000 221.318
42.80000 232.384
42.84000 223.415
42.88000 236.356
42.92000 234.630
42.96000 230.136
43.00000 226.162
43.04000 232.769
43.08000 223.866
43.12000 216.806
43.16000 222.629
43.20000 219.421
43.24000 228.823
43.28000 220.279
43.32000 227.628
43.36000 233.119
43.40000 234.503
43.44000 229.461
43.48000 229.966
43.52000 230.788
43.56000 216.361
43.60000 227.296
43.64000 206.830
43.68000 230.638
43.72000 232.741
43.76000 222.816
43.80000 232.850
43.84000 221.143
43.88000 224.608
43.92000 209.704
43.96000 233.294
44.00000 221.353
44.04000 226.413
44.08000 232.793
44.12000 221.389
44.16000 221.836
44.20000 219.765
44.24000 221.321
44.28000 220.335
44.32000 223.815
44.36000 230.701
44.40000 221.177
44.44000 222.869
44.48000 223.280
44.52000 218.628
44.56000 209.910
44.60000 230.427
44.64000 235.543
44.68000 229.348
44.72000 239.151
44.76000 228.744
44.80000 245.163
44.84000 241.867
44.88000 245.099
44.92000 255.737
44.96000 276.489
45.00000 290.356
45.04000 294.929
45.08000 301.930
45.12000 298.980
45.16000 309.177
45.20000 325.375
45.24000 302.716
45.28000 308.660
45.32000 296.086
45.36000 295.912
45.40000 289.762
45.44000 285.414
45.48000 263.979
45.52000 278.070
45.56000 266.478
45.60000 255.795
45.64000 253.060
45.68000 257.381
45.72000 236.988
45.76000 232.613
45.80000 226.286
45.84000 232.545
45.88000 226.471
45.92000 211.720
45.96000 236.014
46.00000 223.137
46.04000 216.058
46.08000 221.620
46.12000 213.276
46.16000 225.267
46.20000 221.943
46.24000 209.776
46.28000 206.426
46.32000 203.747
46.36000 204.810
46.40000 194.901
46.44000 206.409
46.48000 210.434
46.52000 189.773
46.56000 199.602
46.60000 196.244
46.64000 194.131
46.68000 189.336
46.72000 217.448
46.76000 200.495
46.80000 197.235
46.84000 197.207
46.88000 200.042
46.92000 208.959
46.96000 208.619
47.00000 193.241
47.04000 195.546
47.08000 199.414
47.12000 194.056
47.16000 192.442
47.20000 203.153
47.24000 181.005
47.28000 193.318
47.32000 194.107
47.36000 187.960
47.40000 187.329
47.44000 196.050
47.48000 186.139
47.52000 188.056
47.56000 191.113
47.60000 185.314
47.64000 192.607
47.68000 179.365
47.72000 179.751
47.76000 183.753
47.80000 180.775
47.84000 179.727
47.88000 187.948
47.92000 191.389
47.96000 188.143
48.00000 186.013
48.04000 193.811
48.08000 187.288
48.12000 191.890
48.16000 183.499
48.20000 179.617
48.24000 190.607
48.28000 182.961
48.32000 188.499
48.36000 174.197
48.40000 175.384
48.44000 177.267
48.48000 181.545
48.52000 178.590
48.56000 183.434
48.60000 183.752
48.64000 175.900
48.68000 176.771
48.72000 184.615
48.76000 181.465
48.80000 180.828
48.84000 177.239
48.88000 175.701
48.92000 175.820
48.96000 181.035
49.00000 184.866
49.04000 178.959
49.08000 174.796
49.12000 189.616
49.16000 173.373
49.20000 171.253
49.24000 169.640
49.28000 164.434
49.32000 172.386
49.36000 179.453
49.40000 180.613
49.44000 189.898
49.48000 180.081
49.52000 167.658
49.56000 167.135
49.60000 168.238
49.64000 180.349
49.68000 176.272
49.72000 168.423
49.76000 166.660
49.80000 176.741
49.84000 170.512
49.88000 171.850
49.92000 175.485
49.96000 184.382
50.00000 173.550
50.04000 184.382
50.08000 178.674
50.12000 181.002
50.16000 177.108
50.20000 169.034
50.24000 182.831
50.28000 180.979
50.32000 173.271
50.36000 174.901
50.40000 174.265
50.44000 188.074
50.48000 198.965
50.52000 191.087
50.56000 223.650
50.60000 221.174
50.64000 216.406
50.68000 224.666
50.72000 237.061
50.76000 242.802
50.80000 223.541
50.84000 231.107
50.88000 221.363
50.92000 216.831
50.96000 213.281
51.00000 201.362
51.04000 204.769
51.08000 179.358
51.12000 191.167
51.16000 182.828
51.20000 188.332
51.24000 187.110
51.28000 184.810
51.32000 177.592
51.36000 180.423
51.40000 182.553
51.44000 166.404
51.48000 166.066
51.52000 180.703
51.56000 168.079
51.60000 172.835
51.64000 160.759
51.68000 159.151
51.72000 165.370
51.76000 157.341
51.80000 154.744
51.84000 162.528
51.88000 148.529
51.92000 160.021
51.96000 157.655
52.00000 160.867
52.04000 162.615
52.08000 159.765
52.12000 158.851
52.16000 170.216
52.20000 163.967
52.24000 156.387
52.28000 158.896
52.32000 158.926
52.36000 163.244
52.40000 164.755
52.44000 163.740
52.48000 153.192
52.52000 156.936
52.56000 160.238
52.60000 167.640
52.64000 147.047
52.68000 157.280
52.72000 169.794
52.76000 157.897
52.80000 145.948
52.84000 163.106
52.88000 159.570
52.92000 168.987
52.96000 161.989
53.00000 156.829
53.04000 161.145
53.08000 162.217
53.12000 151.816
53.16000 161.164
53.20000 166.028
53.24000 163.633
53.28000 166.667
53.32000 161.892
53.36000 156.530
53.40000 168.777
53.44000 174.673
53.48000 160.577
53.52000 152.468
53.56000 154.109
53.60000 153.109
53.64000 163.931
53.68000 155.770
53.72000 151.287
53.76000 170.651
53.80000 160.121
53.84000 161.769
53.88000 161.934
53.92000 156.343
53.96000 148.157
54.00000 156.809
54.04000 151.676
54.08000 165.893
54.12000 151.732
54.16000 154.470
54.20000 158.400
54.24000 160.314
54.28000 160.746
54.32000 163.418
54.36000 152.338
54.40000 150.327
54.44000 149.556
54.48000 162.380
54.52000 156.044
54.56000 153.038
54.60000 165.223
54.64000 156.748
54.68000 157.365
54.72000 158.727
54.76000 160.539
54.80000 166.943
54.84000 153.166
54.88000 165.880
54.92000 155.488
54.96000 146.776
55.00000 159.971
55.04000 159.828
55.08000 170.593
55.12000 168.670
55.16000 156.671
55.20000 167.276
55.24000 159.970
55.28000 163.954
55.32000 180.495
55.36000 172.543
55.40000 170.701
55.44000 179.124
55.48000 183.211
55.52000 206.736
55.56000 216.020
55.60000 232.759
55.64000 259.102
55.68000 310.853
55.72000 361.382
55.76000 434.300
55.80000 522.262
55.84000 615.833
55.88000 723.756
55.92000 796.918
55.96000 876.559
56.00000 917.722
56.04000 879.786
56.08000 839.504
56.12000 801.809
56.16000 682.766
56.20000 590.729
56.24000 494.901
56.28000 427.808
56.32000 352.543
56.36000 309.245
56.40000 258.163
56.44000 242.274
56.48000 215.143
56.52000 210.356
56.56000 204.281
56.60000 194.789
56.64000 175.946
56.68000 168.915
56.72000 167.375
56.76000 153.450
56.80000 166.587
56.84000 155.756
56.88000 156.534
56.92000 150.428
56.96000 141.743
57.00000 145.764
57.04000 148.932
57.08000 149.112
57.12000 144.543
57.16000 137.721
57.20000 144.596
57.24000 142.702
57.28000 139.969
57.32000 152.481
57.36000 139.131
57.40000 131.304
57.44000 148.122
57.48000 159.251
57.52000 145.138
57.56000 149.585
57.60000 141.929
57.64000 144.905
57.68000 148.417
57.72000 144.191
57.76000 145.918
57.80000 144.767
57.84000 146.665
57.88000 152.172
57.92000 140.101
57.96000 145.198
58.00000 142.871
58.04000 146.789
58.08000 128.620
58.12000 150.731
58.16000 148.341
58.20000 149.573
58.24000 137.637
58.28000 143.759
58.32000 140.833
58.36000 132.876
58.40000 138.016
58.44000 128.825
58.48000 134.301
58.52000 133.520
58.56000 140.695
58.60000 135.151
58.64000 128.359
58.68000 127.426
58.72000 140.616
58.76000 133.860
58.80000 138.586
58.84000 141.704
58.88000 135.079
58.92000 133.053
58.96000 140.428
59.00000 136.276
59.04000 131.221
59.08000 136.664
59.12000 138.182
59.16000 134.142
59.20000 149.399
59.24000 135.708
59.28000 127.576
59.32000 130.614
59.36000 122.091
59.40000 134.092
59.44000 132.450
59.48000 138.651
59.52000 136.889
59.56000 129.788
59.60000 129.767
59.64000 129.289
59.68000 133.884
59.72000 124.280
59.76000 141.540
59.80000 139.984
59.84000 132.094
59.88000 134.760
59.92000 138.387
59.96000 131.396
60.00000 132.699
60.04000 136.090
60.08000 134.325
60.12000 136.398
60.16000 132.939
60.20000 135.385
60.24000 124.544
60.28000 136.771
60.32000 134.871
60.36000 124.353
60.40000 139.504
60.44000 130.930
60.48000 133.307
60.52000 133.547
60.56000 118.790
60.60000 133.700
60.64000 141.223
60.68000 128.503
60.72000 128.509
60.76000 134.910
60.80000 129.464
60.84000 123.989
60.88000 133.621
60.92000 134.993
60.96000 136.549
61.00000 129.174
61.04000 136.963
61.08000 130.730
61.12000 138.259
61.16000 132.604
61.20000 140.123
61.24000 130.654
61.28000 133.480
61.32000 138.127
61.36000 145.572
61.40000 119.730
61.44000 152.212
61.48000 152.351
61.52000 155.276
61.56000 180.424
61.60000 214.118
61.64000 263.349
61.68000 264.992
61.72000 285.516
61.76000 272.316
61.80000 239.662
61.84000 188.576
61.88000 164.943
61.92000 146.646
61.96000 139.894
62.00000 139.867
62.04000 138.702
62.08000 149.305
62.12000 139.115
62.16000 137.975
62.20000 143.202
62.24000 141.157
62.28000 138.678
62.32000 146.230
62.36000 137.565
62.40000 142.812
62.44000 145.850
62.48000 147.363
62.52000 131.631
62.56000 137.146
62.60000 143.019
62.64000 147.124
62.68000 142.783
62.72000 144.046
62.76000 139.296
62.80000 141.953
62.84000 137.651
62.88000 142.173
62.92000 141.199
62.96000 148.671
63.00000 144.160
63.04000 129.857
63.08000 142.563
63.12000 135.600
63.16000 131.264
63.20000 141.641
63.24000 146.456
63.28000 147.342
63.32000 145.039
63.36000 130.828
63.40000 144.267
63.44000 146.835
63.48000 148.452
63.52000 145.448
63.56000 144.186
63.60000 147.751
63.64000 149.230
63.68000 148.348
63.72000 153.064
63.76000 157.180
63.80000 151.146
63.84000 144.428
63.88000 149.023
63.92000 154.447
63.96000 155.640
64.00000 156.790
64.04000 152.420
64.08000 136.644
64.12000 164.986
64.16000 152.825
64.20000 143.129
64.24000 154.014
64.28000 163.023
64.32000 151.411
64.36000 163.089
64.40000 150.350
64.44000 161.813
64.48000 166.604
64.52000 171.056
64.56000 172.003
64.60000 158.129
64.64000 168.054
64.68000 165.802
64.72000 166.416
64.76000 164.684
64.80000 179.560
64.84000 177.151
64.88000 180.962
64.92000 179.090
64.96000 187.131
65.00000 192.446
65.04000 175.790
65.08000 182.740
65.12000 202.098
65.16000 209.881
65.20000 204.429
65.24000 209.344
65.28000 226.363
65.32000 225.325
65.36000 242.096
65.40000 258.085
65.44000 266.732
65.48000 288.487
65.52000 303.647
65.56000 329.884
65.60000 366.994
65.64000 384.829
65.68000 440.319
65.72000 538.672
65.76000 797.200
65.80000 980.679
65.84000 1072.979
65.88000 1140.068
65.92000 1093.073
65.96000 967.727
66.00000 699.237
66.04000 489.158
66.08000 386.935
66.12000 330.276
66.16000 321.271
66.20000 303.032
66.24000 303.200
66.28000 348.649
66.32000 376.956
66.36000 433.501
66.40000 441.164
66.44000 445.146
66.48000 439.545
66.52000 400.040
66.56000 365.221
66.60000 329.714
66.64000 305.257
66.68000 313.215
66.72000 300.959
66.76000 311.799
66.80000 302.898
66.84000 307.522
66.88000 323.083
66.92000 330.587
66.96000 331.339
67.00000 332.788
67.04000 355.241
67.08000 349.978
67.12000 359.740
67.16000 374.255
67.20000 352.514
67.24000 357.150
67.28000 374.588
67.32000 372.804
67.36000 386.361
67.40000 390.976
67.44000 391.107
67.48000 404.997
67.52000 407.075
67.56000 409.164
67.60000 430.539
67.64000 441.691
67.68000 441.726
67.72000 439.901
67.76000 448.260
67.80000 448.420
67.84000 464.058
67.88000 494.760
67.92000 487.000
67.96000 499.544
68.00000 505.006
68.04000 509.314
68.08000 535.794
68.12000 554.051
68.16000 560.051
68.20000 556.809
68.24000 589.394
68.28000 583.469
68.32000 627.773
68.36000 619.126
68.40000 644.549
68.44000 692.993
68.48000 722.699
68.52000 763.816
68.56000 803.125
68.60000 935.035
68.64000 1071.021
68.68000 1227.969
68.72000 1462.243
68.76000 1664.125
68.80000 1888.406
68.84000 2160.712
68.88000 2733.615
68.92000 4072.069
68.96000 10378.585
69.00000 24550.424
69.04000 42020.891
69.08000 52014.172
69.12000 54598.902
69.16000 56482.875
69.20000 57650.055
69.24000 50487.695
69.28000 37927.832
69.32000 30479.264
69.36000 27282.158
69.40000 23259.658
69.44000 16010.993
69.48000 7353.560
69.52000 3301.169
69.56000 1926.446
69.60000 1486.264
69.64000 1208.661
69.68000 1061.533
69.72000 970.331
69.76000 901.422
69.80000 824.607
69.84000 766.399
69.88000 732.953
69.92000 688.613
69.96000 680.404
70.00000 663.271