File: XRD/24-09-2025 Dep 3/XY Data/BTO_Mapping_Theta2Theta_24-09-2025_001_49_-4-181_-39-781.xy
20.00000 575.078
20.04000 567.152
20.08000 581.242
20.12000 561.988
20.16000 561.245
20.20000 549.310
20.24000 558.575
20.28000 555.773
20.32000 564.334
20.36000 564.136
20.40000 552.431
20.44000 560.056
20.48000 548.140
20.52000 552.303
20.56000 553.311
20.60000 548.997
20.64000 547.523
20.68000 533.121
20.72000 527.261
20.76000 544.903
20.80000 562.763
20.84000 564.109
20.88000 559.322
20.92000 557.221
20.96000 547.246
21.00000 545.488
21.04000 538.838
21.08000 541.242
21.12000 543.673
21.16000 542.317
21.20000 533.301
21.24000 545.001
21.28000 537.904
21.32000 542.951
21.36000 532.854
21.40000 526.037
21.44000 550.821
21.48000 554.081
21.52000 549.828
21.56000 514.625
21.60000 547.303
21.64000 547.383
21.68000 542.128
21.72000 551.682
21.76000 565.032
21.80000 583.153
21.84000 600.252
21.88000 584.335
21.92000 591.550
21.96000 624.707
22.00000 639.538
22.04000 626.784
22.08000 645.703
22.12000 631.186
22.16000 653.794
22.20000 640.826
22.24000 614.258
22.28000 620.093
22.32000 600.618
22.36000 583.822
22.40000 580.434
22.44000 557.416
22.48000 553.200
22.52000 553.668
22.56000 536.907
22.60000 541.290
22.64000 544.465
22.68000 508.607
22.72000 521.144
22.76000 504.777
22.80000 512.125
22.84000 526.604
22.88000 517.998
22.92000 506.200
22.96000 493.707
23.00000 510.089
23.04000 519.249
23.08000 516.576
23.12000 514.314
23.16000 499.975
23.20000 497.415
23.24000 517.663
23.28000 514.198
23.32000 507.532
23.36000 503.620
23.40000 489.671
23.44000 500.395
23.48000 508.911
23.52000 511.914
23.56000 502.005
23.60000 496.151
23.64000 494.436
23.68000 492.558
23.72000 500.729
23.76000 504.627
23.80000 491.963
23.84000 521.363
23.88000 502.254
23.92000 474.915
23.96000 479.252
24.00000 470.752
24.04000 485.199
24.08000 492.243
24.12000 476.272
24.16000 493.637
24.20000 483.050
24.24000 468.148
24.28000 476.841
24.32000 470.233
24.36000 477.653
24.40000 491.420
24.44000 481.279
24.48000 487.166
24.52000 481.860
24.56000 465.659
24.60000 468.713
24.64000 475.198
24.68000 466.709
24.72000 477.267
24.76000 481.225
24.80000 486.605
24.84000 484.182
24.88000 472.960
24.92000 464.660
24.96000 507.767
25.00000 457.959
25.04000 493.111
25.08000 472.177
25.12000 465.193
25.16000 467.730
25.20000 467.923
25.24000 477.366
25.28000 451.560
25.32000 465.001
25.36000 493.982
25.40000 458.063
25.44000 455.171
25.48000 467.426
25.52000 463.447
25.56000 473.218
25.60000 466.821
25.64000 450.319
25.68000 456.138
25.72000 482.044
25.76000 448.301
25.80000 469.817
25.84000 464.830
25.88000 448.448
25.92000 456.130
25.96000 460.152
26.00000 454.796
26.04000 464.738
26.08000 470.118
26.12000 471.371
26.16000 464.480
26.20000 465.231
26.24000 453.616
26.28000 444.533
26.32000 448.510
26.36000 460.229
26.40000 462.431
26.44000 449.322
26.48000 459.486
26.52000 429.272
26.56000 451.264
26.60000 451.867
26.64000 460.686
26.68000 450.065
26.72000 437.098
26.76000 436.102
26.80000 434.681
26.84000 441.854
26.88000 427.807
26.92000 439.029
26.96000 435.742
27.00000 450.867
27.04000 442.102
27.08000 432.937
27.12000 441.980
27.16000 438.248
27.20000 433.865
27.24000 433.283
27.28000 434.605
27.32000 450.799
27.36000 425.257
27.40000 414.920
27.44000 434.513
27.48000 439.522
27.52000 440.750
27.56000 440.636
27.60000 439.333
27.64000 439.912
27.68000 421.420
27.72000 438.938
27.76000 443.888
27.80000 430.251
27.84000 429.547
27.88000 439.251
27.92000 439.724
27.96000 443.621
28.00000 423.478
28.04000 450.439
28.08000 425.322
28.12000 426.030
28.16000 417.621
28.20000 417.478
28.24000 418.382
28.28000 418.052
28.32000 430.939
28.36000 428.160
28.40000 417.660
28.44000 429.543
28.48000 426.478
28.52000 396.331
28.56000 413.914
28.60000 422.771
28.64000 408.142
28.68000 416.625
28.72000 422.812
28.76000 416.224
28.80000 428.765
28.84000 411.619
28.88000 405.568
28.92000 404.051
28.96000 428.987
29.00000 395.188
29.04000 410.873
29.08000 430.138
29.12000 412.470
29.16000 416.197
29.20000 406.615
29.24000 406.702
29.28000 437.886
29.32000 408.727
29.36000 406.697
29.40000 413.518
29.44000 426.781
29.48000 436.804
29.52000 402.917
29.56000 405.119
29.60000 408.922
29.64000 402.002
29.68000 402.916
29.72000 409.851
29.76000 405.086
29.80000 416.902
29.84000 421.736
29.88000 408.694
29.92000 409.374
29.96000 425.281
30.00000 429.682
30.04000 446.812
30.08000 432.694
30.12000 435.793
30.16000 425.383
30.20000 448.444
30.24000 414.359
30.28000 418.631
30.32000 420.637
30.36000 417.441
30.40000 413.047
30.44000 427.525
30.48000 412.790
30.52000 406.804
30.56000 400.723
30.60000 400.526
30.64000 437.345
30.68000 420.708
30.72000 416.786
30.76000 436.946
30.80000 459.561
30.84000 446.889
30.88000 466.373
30.92000 474.639
30.96000 482.354
31.00000 514.951
31.04000 592.773
31.08000 651.868
31.12000 799.134
31.16000 970.583
31.20000 1219.125
31.24000 1498.729
31.28000 1742.194
31.32000 2003.251
31.36000 2243.097
31.40000 2231.518
31.44000 2171.918
31.48000 1984.338
31.52000 1730.407
31.56000 1436.001
31.60000 1166.901
31.64000 964.984
31.68000 777.196
31.72000 672.539
31.76000 573.923
31.80000 541.838
31.84000 486.938
31.88000 472.903
31.92000 464.735
31.96000 434.060
32.00000 424.234
32.04000 421.559
32.08000 417.357
32.12000 423.070
32.16000 404.959
32.20000 402.607
32.24000 397.535
32.28000 401.566
32.32000 378.858
32.36000 391.865
32.40000 382.463
32.44000 383.336
32.48000 393.278
32.52000 381.064
32.56000 392.930
32.60000 387.793
32.64000 385.294
32.68000 364.498
32.72000 365.759
32.76000 373.803
32.80000 392.104
32.84000 424.060
32.88000 460.805
32.92000 476.044
32.96000 463.920
33.00000 467.710
33.04000 441.980
33.08000 409.178
33.12000 379.838
33.16000 357.781
33.20000 347.602
33.24000 336.513
33.28000 358.494
33.32000 334.472
33.36000 333.032
33.40000 322.364
33.44000 337.455
33.48000 334.916
33.52000 346.612
33.56000 336.649
33.60000 359.607
33.64000 352.111
33.68000 337.614
33.72000 339.256
33.76000 339.752
33.80000 345.813
33.84000 328.038
33.88000 337.586
33.92000 344.351
33.96000 325.934
34.00000 345.619
34.04000 327.782
34.08000 332.010
34.12000 335.628
34.16000 323.383
34.20000 326.480
34.24000 330.215
34.28000 335.632
34.32000 333.177
34.36000 325.900
34.40000 322.804
34.44000 340.503
34.48000 319.036
34.52000 333.483
34.56000 309.789
34.60000 329.919
34.64000 312.344
34.68000 326.045
34.72000 334.451
34.76000 331.345
34.80000 309.374
34.84000 331.441
34.88000 320.024
34.92000 327.379
34.96000 329.939
35.00000 325.804
35.04000 326.717
35.08000 312.342
35.12000 323.010
35.16000 318.623
35.20000 308.248
35.24000 318.758
35.28000 302.949
35.32000 313.044
35.36000 323.588
35.40000 309.088
35.44000 306.426
35.48000 311.283
35.52000 312.608
35.56000 324.132
35.60000 309.049
35.64000 311.895
35.68000 303.175
35.72000 307.778
35.76000 308.100
35.80000 294.243
35.84000 319.589
35.88000 305.279
35.92000 309.670
35.96000 303.011
36.00000 311.253
36.04000 310.399
36.08000 305.203
36.12000 298.956
36.16000 303.733
36.20000 308.059
36.24000 303.532
36.28000 298.811
36.32000 305.102
36.36000 289.960
36.40000 302.110
36.44000 293.381
36.48000 294.452
36.52000 298.492
36.56000 299.083
36.60000 292.912
36.64000 307.805
36.68000 307.876
36.72000 306.398
36.76000 304.650
36.80000 315.155
36.84000 310.670
36.88000 313.789
36.92000 299.977
36.96000 307.284
37.00000 303.354
37.04000 310.196
37.08000 315.397
37.12000 318.851
37.16000 298.824
37.20000 303.124
37.24000 291.712
37.28000 297.278
37.32000 294.019
37.36000 297.870
37.40000 304.671
37.44000 308.336
37.48000 293.573
37.52000 284.142
37.56000 292.063
37.60000 306.378
37.64000 298.484
37.68000 291.563
37.72000 290.080
37.76000 296.920
37.80000 289.714
37.84000 295.024
37.88000 309.001
37.92000 297.131
37.96000 300.078
38.00000 300.096
38.04000 301.268
38.08000 301.222
38.12000 305.837
38.16000 301.365
38.20000 317.560
38.24000 327.293
38.28000 326.630
38.32000 347.308
38.36000 376.916
38.40000 422.043
38.44000 496.984
38.48000 604.968
38.52000 751.007
38.56000 979.319
38.60000 1200.658
38.64000 1446.864
38.68000 1663.341
38.72000 1752.016
38.76000 1706.318
38.80000 1646.711
38.84000 1459.142
38.88000 1151.175
38.92000 938.248
38.96000 726.547
39.00000 556.600
39.04000 448.428
39.08000 379.279
39.12000 346.979
39.16000 337.753
39.20000 318.019
39.24000 297.176
39.28000 279.567
39.32000 311.648
39.36000 281.018
39.40000 277.694
39.44000 264.064
39.48000 287.686
39.52000 271.224
39.56000 285.957
39.60000 279.338
39.64000 275.937
39.68000 271.946
39.72000 269.022
39.76000 275.408
39.80000 256.058
39.84000 266.466
39.88000 267.912
39.92000 261.517
39.96000 259.897
40.00000 271.360
40.04000 268.312
40.08000 260.547
40.12000 270.191
40.16000 260.326
40.20000 264.650
40.24000 269.503
40.28000 265.001
40.32000 258.199
40.36000 277.111
40.40000 263.348
40.44000 260.439
40.48000 246.919
40.52000 258.896
40.56000 262.455
40.60000 258.474
40.64000 249.842
40.68000 245.867
40.72000 239.241
40.76000 256.438
40.80000 252.727
40.84000 243.295
40.88000 243.681
40.92000 251.584
40.96000 244.138
41.00000 249.419
41.04000 247.617
41.08000 246.676
41.12000 243.112
41.16000 250.462
41.20000 250.525
41.24000 232.947
41.28000 253.176
41.32000 244.797
41.36000 256.703
41.40000 253.748
41.44000 241.043
41.48000 230.155
41.52000 240.813
41.56000 230.123
41.60000 240.144
41.64000 240.038
41.68000 235.620
41.72000 247.528
41.76000 246.124
41.80000 233.657
41.84000 252.258
41.88000 252.836
41.92000 239.709
41.96000 225.067
42.00000 252.553
42.04000 245.044
42.08000 213.172
42.12000 246.307
42.16000 238.698
42.20000 237.084
42.24000 220.762
42.28000 234.403
42.32000 229.005
42.36000 233.969
42.40000 222.740
42.44000 234.392
42.48000 236.128
42.52000 220.102
42.56000 233.912
42.60000 221.082
42.64000 236.881
42.68000 231.645
42.72000 210.922
42.76000 230.030
42.80000 231.591
42.84000 237.939
42.88000 226.947
42.92000 236.880
42.96000 236.554
43.00000 228.284
43.04000 227.182
43.08000 228.059
43.12000 215.458
43.16000 216.318
43.20000 229.797
43.24000 239.897
43.28000 238.438
43.32000 235.012
43.36000 232.143
43.40000 212.652
43.44000 220.282
43.48000 233.709
43.52000 226.298
43.56000 217.144
43.60000 221.734
43.64000 217.093
43.68000 221.073
43.72000 224.290
43.76000 222.335
43.80000 220.882
43.84000 225.354
43.88000 220.729
43.92000 223.522
43.96000 226.652
44.00000 213.233
44.04000 214.249
44.08000 209.472
44.12000 212.408
44.16000 228.146
44.20000 219.542
44.24000 228.099
44.28000 209.066
44.32000 228.689
44.36000 220.789
44.40000 223.597
44.44000 227.017
44.48000 222.992
44.52000 217.724
44.56000 235.490
44.60000 213.990
44.64000 225.000
44.68000 236.791
44.72000 245.558
44.76000 247.467
44.80000 243.765
44.84000 250.337
44.88000 279.493
44.92000 275.788
44.96000 293.120
45.00000 300.663
45.04000 290.030
45.08000 290.776
45.12000 319.446
45.16000 311.812
45.20000 293.964
45.24000 298.041
45.28000 281.877
45.32000 287.380
45.36000 285.076
45.40000 265.482
45.44000 270.753
45.48000 262.407
45.52000 257.950
45.56000 252.091
45.60000 230.283
45.64000 236.408
45.68000 245.151
45.72000 242.618
45.76000 235.961
45.80000 227.231
45.84000 223.138
45.88000 230.720
45.92000 213.362
45.96000 234.024
46.00000 216.913
46.04000 209.956
46.08000 217.414
46.12000 214.069
46.16000 204.166
46.20000 216.758
46.24000 214.222
46.28000 209.525
46.32000 204.861
46.36000 209.920
46.40000 202.277
46.44000 204.583
46.48000 208.368
46.52000 204.944
46.56000 196.524
46.60000 196.922
46.64000 190.386
46.68000 204.723
46.72000 193.567
46.76000 203.772
46.80000 209.325
46.84000 214.085
46.88000 188.667
46.92000 188.699
46.96000 211.792
47.00000 191.936
47.04000 182.664
47.08000 198.203
47.12000 200.324
47.16000 188.329
47.20000 173.357
47.24000 195.786
47.28000 182.594
47.32000 177.259
47.36000 204.015
47.40000 190.014
47.44000 186.718
47.48000 191.357
47.52000 197.094
47.56000 201.899
47.60000 194.254
47.64000 180.518
47.68000 189.395
47.72000 200.720
47.76000 191.875
47.80000 181.924
47.84000 195.859
47.88000 195.179
47.92000 185.536
47.96000 189.518
48.00000 175.190
48.04000 186.826
48.08000 189.299
48.12000 182.791
48.16000 177.881
48.20000 179.068
48.24000 176.760
48.28000 180.513
48.32000 194.500
48.36000 189.257
48.40000 178.297
48.44000 185.137
48.48000 177.502
48.52000 173.259
48.56000 173.451
48.60000 186.102
48.64000 183.447
48.68000 175.326
48.72000 182.927
48.76000 189.144
48.80000 179.362
48.84000 167.052
48.88000 172.696
48.92000 183.687
48.96000 176.781
49.00000 183.467
49.04000 177.063
49.08000 182.009
49.12000 186.473
49.16000 177.940
49.20000 178.873
49.24000 168.286
49.28000 183.180
49.32000 170.764
49.36000 179.800
49.40000 171.317
49.44000 182.671
49.48000 191.536
49.52000 173.268
49.56000 178.342
49.60000 179.061
49.64000 180.414
49.68000 159.685
49.72000 168.016
49.76000 177.524
49.80000 171.391
49.84000 191.680
49.88000 181.772
49.92000 188.921
49.96000 163.794
50.00000 176.376
50.04000 177.155
50.08000 170.514
50.12000 185.418
50.16000 172.963
50.20000 176.984
50.24000 184.288
50.28000 174.171
50.32000 190.580
50.36000 187.557
50.40000 193.979
50.44000 183.974
50.48000 198.054
50.52000 203.977
50.56000 202.714
50.60000 224.738
50.64000 227.379
50.68000 224.730
50.72000 230.816
50.76000 229.273
50.80000 216.450
50.84000 206.771
50.88000 216.498
50.92000 213.793
50.96000 189.795
51.00000 201.984
51.04000 188.423
51.08000 183.740
51.12000 188.899
51.16000 192.383
51.20000 180.741
51.24000 179.193
51.28000 165.250
51.32000 179.444
51.36000 173.878
51.40000 185.377
51.44000 170.787
51.48000 166.372
51.52000 164.987
51.56000 166.642
51.60000 156.867
51.64000 169.910
51.68000 167.988
51.72000 166.319
51.76000 165.729
51.80000 158.284
51.84000 164.378
51.88000 165.175
51.92000 155.783
51.96000 171.019
52.00000 169.282
52.04000 161.135
52.08000 160.519
52.12000 177.959
52.16000 170.190
52.20000 166.396
52.24000 154.180
52.28000 167.814
52.32000 151.235
52.36000 161.190
52.40000 158.453
52.44000 164.193
52.48000 161.163
52.52000 156.853
52.56000 154.659
52.60000 158.857
52.64000 158.613
52.68000 169.055
52.72000 149.420
52.76000 151.095
52.80000 156.698
52.84000 161.410
52.88000 156.965
52.92000 163.328
52.96000 152.081
53.00000 159.840
53.04000 157.240
53.08000 166.287
53.12000 149.679
53.16000 165.581
53.20000 169.063
53.24000 167.609
53.28000 158.049
53.32000 168.724
53.36000 169.744
53.40000 168.599
53.44000 180.196
53.48000 168.820
53.52000 172.700
53.56000 173.761
53.60000 164.896
53.64000 166.873
53.68000 156.006
53.72000 170.430
53.76000 163.649
53.80000 163.639
53.84000 154.713
53.88000 166.841
53.92000 160.903
53.96000 150.159
54.00000 159.424
54.04000 163.681
54.08000 147.490
54.12000 155.979
54.16000 154.299
54.20000 158.728
54.24000 171.730
54.28000 163.343
54.32000 162.488
54.36000 154.231
54.40000 165.749
54.44000 155.908
54.48000 157.408
54.52000 159.099
54.56000 163.249
54.60000 158.644
54.64000 153.654
54.68000 163.089
54.72000 156.771
54.76000 165.638
54.80000 158.286
54.84000 170.113
54.88000 177.070
54.92000 162.211
54.96000 165.156
55.00000 153.377
55.04000 174.718
55.08000 167.567
55.12000 173.153
55.16000 169.780
55.20000 178.712
55.24000 177.715
55.28000 162.909
55.32000 178.785
55.36000 179.399
55.40000 190.945
55.44000 190.752
55.48000 209.869
55.52000 214.368
55.56000 232.315
55.60000 259.920
55.64000 319.033
55.68000 378.223
55.72000 457.245
55.76000 532.490
55.80000 642.789
55.84000 754.546
55.88000 870.816
55.92000 917.042
55.96000 940.175
56.00000 973.915
56.04000 931.467
56.08000 872.543
56.12000 792.071
56.16000 643.002
56.20000 571.382
56.24000 461.661
56.28000 421.155
56.32000 339.304
56.36000 293.947
56.40000 250.594
56.44000 225.294
56.48000 223.603
56.52000 200.867
56.56000 186.265
56.60000 177.888
56.64000 189.016
56.68000 176.740
56.72000 176.866
56.76000 170.344
56.80000 158.880
56.84000 161.348
56.88000 151.027
56.92000 156.492
56.96000 170.574
57.00000 153.331
57.04000 154.613
57.08000 155.391
57.12000 151.824
57.16000 154.877
57.20000 147.313
57.24000 153.574
57.28000 147.881
57.32000 139.725
57.36000 148.678
57.40000 143.534
57.44000 149.300
57.48000 152.748
57.52000 139.160
57.56000 147.185
57.60000 151.464
57.64000 149.013
57.68000 153.755
57.72000 135.339
57.76000 143.756
57.80000 148.976
57.84000 142.512
57.88000 138.428
57.92000 136.386
57.96000 153.339
58.00000 138.278
58.04000 141.505
58.08000 132.449
58.12000 137.199
58.16000 145.990
58.20000 132.117
58.24000 143.610
58.28000 149.694
58.32000 135.670
58.36000 138.419
58.40000 141.743
58.44000 135.326
58.48000 144.746
58.52000 146.107
58.56000 134.099
58.60000 138.800
58.64000 140.942
58.68000 130.477
58.72000 139.498
58.76000 137.163
58.80000 129.086
58.84000 137.909
58.88000 144.592
58.92000 135.273
58.96000 133.284
59.00000 123.608
59.04000 131.585
59.08000 134.588
59.12000 132.533
59.16000 136.440
59.20000 133.763
59.24000 133.723
59.28000 129.955
59.32000 137.196
59.36000 135.065
59.40000 130.716
59.44000 141.729
59.48000 139.407
59.52000 128.528
59.56000 129.642
59.60000 125.678
59.64000 139.611
59.68000 135.311
59.72000 135.441
59.76000 134.276
59.80000 126.287
59.84000 134.657
59.88000 137.709
59.92000 122.982
59.96000 139.171
60.00000 132.161
60.04000 143.826
60.08000 128.382
60.12000 132.265
60.16000 125.969
60.20000 133.251
60.24000 139.008
60.28000 133.657
60.32000 132.627
60.36000 147.032
60.40000 129.904
60.44000 134.775
60.48000 135.299
60.52000 129.659
60.56000 130.354
60.60000 129.359
60.64000 130.070
60.68000 127.635
60.72000 139.444
60.76000 139.054
60.80000 136.349
60.84000 133.224
60.88000 135.571
60.92000 133.328
60.96000 137.937
61.00000 126.630
61.04000 134.358
61.08000 142.882
61.12000 137.384
61.16000 130.248
61.20000 135.304
61.24000 136.885
61.28000 143.406
61.32000 133.827
61.36000 134.486
61.40000 134.663
61.44000 139.770
61.48000 140.255
61.52000 166.556
61.56000 184.411
61.60000 224.578
61.64000 257.886
61.68000 264.698
61.72000 278.216
61.76000 255.121
61.80000 215.461
61.84000 178.500
61.88000 150.091
61.92000 147.544
61.96000 137.350
62.00000 139.164
62.04000 144.305
62.08000 145.394
62.12000 144.901
62.16000 136.835
62.20000 136.980
62.24000 139.571
62.28000 142.188
62.32000 146.828
62.36000 139.503
62.40000 141.963
62.44000 143.919
62.48000 141.246
62.52000 140.171
62.56000 145.869
62.60000 150.142
62.64000 143.661
62.68000 141.922
62.72000 144.760
62.76000 124.849
62.80000 137.891
62.84000 135.805
62.88000 135.370
62.92000 130.910
62.96000 141.210
63.00000 129.742
63.04000 133.574
63.08000 154.847
63.12000 143.900
63.16000 135.645
63.20000 137.129
63.24000 143.148
63.28000 143.436
63.32000 153.592
63.36000 149.976
63.40000 146.155
63.44000 143.162
63.48000 149.218
63.52000 142.893
63.56000 143.561
63.60000 155.390
63.64000 155.172
63.68000 146.502
63.72000 144.091
63.76000 144.462
63.80000 147.794
63.84000 153.424
63.88000 143.311
63.92000 146.071
63.96000 149.571
64.00000 141.508
64.04000 157.145
64.08000 159.565
64.12000 144.570
64.16000 167.391
64.20000 155.029
64.24000 152.504
64.28000 154.811
64.32000 151.697
64.36000 165.436
64.40000 164.258
64.44000 162.487
64.48000 171.016
64.52000 178.280
64.56000 161.493
64.60000 178.221
64.64000 172.603
64.68000 176.779
64.72000 178.480
64.76000 170.647
64.80000 173.438
64.84000 183.645
64.88000 174.758
64.92000 181.696
64.96000 181.994
65.00000 184.765
65.04000 201.254
65.08000 208.884
65.12000 200.831
65.16000 204.674
65.20000 217.916
65.24000 229.923
65.28000 238.616
65.32000 250.508
65.36000 266.713
65.40000 283.249
65.44000 303.160
65.48000 300.770
65.52000 320.958
65.56000 338.764
65.60000 346.761
65.64000 402.660
65.68000 450.668
65.72000 587.843
65.76000 798.256
65.80000 991.455
65.84000 1089.683
65.88000 1099.723
65.92000 1074.345
65.96000 890.732
66.00000 644.638
66.04000 455.096
66.08000 379.000
66.12000 312.846
66.16000 308.029
66.20000 292.797
66.24000 304.703
66.28000 337.020
66.32000 377.991
66.36000 405.900
66.40000 418.441
66.44000 445.995
66.48000 415.665
66.52000 376.715
66.56000 340.193
66.60000 326.329
66.64000 323.496
66.68000 307.396
66.72000 325.187
66.76000 315.523
66.80000 315.140
66.84000 314.704
66.88000 323.550
66.92000 326.704
66.96000 329.487
67.00000 345.173
67.04000 342.319
67.08000 335.500
67.12000 356.994
67.16000 361.016
67.20000 357.601
67.24000 356.714
67.28000 375.103
67.32000 378.123
67.36000 405.315
67.40000 375.808
67.44000 400.029
67.48000 401.596
67.52000 416.041
67.56000 409.568
67.60000 412.487
67.64000 427.575
67.68000 425.490
67.72000 443.632
67.76000 433.903
67.80000 460.588
67.84000 477.140
67.88000 489.838
67.92000 472.927
67.96000 507.505
68.00000 499.060
68.04000 489.890
68.08000 521.875
68.12000 530.194
68.16000 539.521
68.20000 559.317
68.24000 580.510
68.28000 575.116
68.32000 603.793
68.36000 635.822
68.40000 673.030
68.44000 692.880
68.48000 720.147
68.52000 765.761
68.56000 812.875
68.60000 887.812
68.64000 1071.816
68.68000 1258.595
68.72000 1457.970
68.76000 1658.962
68.80000 1929.078
68.84000 2277.627
68.88000 2941.792
68.92000 4569.538
68.96000 12434.746
69.00000 27454.994
69.04000 43844.121
69.08000 51512.863
69.12000 53387.559
69.16000 55601.633
69.20000 55261.934
69.24000 46189.172
69.28000 35043.906
69.32000 28701.814
69.36000 26192.348
69.40000 21448.943
69.44000 13429.479
69.48000 6002.576
69.52000 2779.148
69.56000 1761.585
69.60000 1403.664
69.64000 1159.651
69.68000 1024.780
69.72000 907.072
69.76000 836.339
69.80000 788.982
69.84000 731.523
69.88000 715.159
69.92000 675.147
69.96000 677.751
70.00000 635.703