File: XRD/24-09-2025 Dep 3/XY Data/BTO_Mapping_Theta2Theta_24-09-2025_001_11_13-383_14-863.xy
20.00000 572.341
20.04000 546.889
20.08000 569.980
20.12000 552.047
20.16000 541.708
20.20000 543.957
20.24000 550.126
20.28000 554.735
20.32000 549.451
20.36000 551.016
20.40000 563.529
20.44000 541.538
20.48000 559.530
20.52000 566.129
20.56000 536.505
20.60000 555.592
20.64000 533.785
20.68000 555.539
20.72000 537.037
20.76000 556.904
20.80000 575.995
20.84000 578.008
20.88000 550.601
20.92000 553.537
20.96000 539.802
21.00000 535.207
21.04000 538.315
21.08000 555.930
21.12000 570.441
21.16000 529.753
21.20000 537.877
21.24000 558.441
21.28000 537.757
21.32000 513.442
21.36000 555.595
21.40000 538.710
21.44000 531.086
21.48000 527.831
21.52000 551.776
21.56000 554.698
21.60000 535.306
21.64000 574.557
21.68000 534.343
21.72000 547.399
21.76000 566.889
21.80000 562.405
21.84000 552.401
21.88000 555.409
21.92000 593.916
21.96000 586.553
22.00000 609.179
22.04000 611.257
22.08000 590.448
22.12000 615.600
22.16000 598.269
22.20000 617.324
22.24000 604.265
22.28000 625.690
22.32000 594.814
22.36000 577.102
22.40000 578.245
22.44000 553.658
22.48000 543.970
22.52000 561.859
22.56000 539.626
22.60000 505.451
22.64000 542.786
22.68000 522.678
22.72000 519.915
22.76000 533.290
22.80000 516.618
22.84000 521.557
22.88000 497.424
22.92000 533.997
22.96000 513.876
23.00000 492.654
23.04000 526.490
23.08000 512.609
23.12000 510.410
23.16000 520.452
23.20000 507.887
23.24000 493.499
23.28000 495.410
23.32000 511.445
23.36000 500.070
23.40000 503.524
23.44000 498.885
23.48000 491.804
23.52000 521.873
23.56000 512.869
23.60000 490.452
23.64000 476.883
23.68000 478.669
23.72000 477.965
23.76000 490.688
23.80000 500.375
23.84000 494.371
23.88000 510.269
23.92000 491.091
23.96000 507.709
24.00000 483.881
24.04000 509.058
24.08000 501.587
24.12000 485.431
24.16000 493.060
24.20000 501.785
24.24000 473.459
24.28000 478.473
24.32000 478.616
24.36000 483.711
24.40000 478.679
24.44000 492.816
24.48000 489.049
24.52000 460.215
24.56000 482.237
24.60000 471.327
24.64000 486.576
24.68000 466.992
24.72000 478.258
24.76000 452.355
24.80000 468.265
24.84000 458.247
24.88000 476.995
24.92000 451.325
24.96000 470.686
25.00000 476.077
25.04000 463.108
25.08000 457.932
25.12000 486.367
25.16000 463.861
25.20000 478.152
25.24000 493.913
25.28000 470.055
25.32000 461.323
25.36000 462.793
25.40000 465.205
25.44000 459.786
25.48000 442.205
25.52000 459.666
25.56000 467.703
25.60000 467.602
25.64000 472.004
25.68000 466.924
25.72000 474.956
25.76000 462.950
25.80000 464.127
25.84000 451.864
25.88000 447.258
25.92000 451.941
25.96000 459.355
26.00000 469.438
26.04000 465.464
26.08000 469.469
26.12000 456.574
26.16000 448.110
26.20000 451.793
26.24000 453.056
26.28000 467.538
26.32000 446.001
26.36000 456.523
26.40000 460.281
26.44000 446.824
26.48000 451.857
26.52000 434.418
26.56000 446.271
26.60000 453.380
26.64000 440.428
26.68000 453.302
26.72000 436.585
26.76000 454.052
26.80000 456.264
26.84000 454.439
26.88000 426.912
26.92000 433.619
26.96000 443.361
27.00000 447.813
27.04000 436.637
27.08000 431.247
27.12000 448.619
27.16000 448.193
27.20000 428.107
27.24000 428.910
27.28000 446.955
27.32000 447.331
27.36000 439.841
27.40000 426.623
27.44000 424.612
27.48000 434.786
27.52000 436.725
27.56000 437.776
27.60000 440.782
27.64000 420.733
27.68000 431.145
27.72000 425.737
27.76000 437.523
27.80000 439.272
27.84000 432.478
27.88000 431.892
27.92000 429.497
27.96000 443.879
28.00000 438.711
28.04000 421.379
28.08000 424.920
28.12000 420.697
28.16000 431.727
28.20000 422.396
28.24000 409.432
28.28000 422.086
28.32000 434.058
28.36000 426.340
28.40000 426.505
28.44000 445.999
28.48000 423.152
28.52000 439.175
28.56000 420.442
28.60000 427.911
28.64000 429.371
28.68000 419.210
28.72000 415.240
28.76000 404.754
28.80000 404.958
28.84000 402.563
28.88000 402.970
28.92000 415.440
28.96000 428.868
29.00000 421.428
29.04000 405.123
29.08000 383.405
29.12000 403.162
29.16000 403.697
29.20000 415.797
29.24000 409.025
29.28000 408.385
29.32000 416.299
29.36000 409.055
29.40000 411.812
29.44000 402.166
29.48000 412.187
29.52000 421.505
29.56000 402.450
29.60000 379.051
29.64000 390.246
29.68000 414.442
29.72000 403.841
29.76000 401.728
29.80000 411.209
29.84000 405.455
29.88000 415.496
29.92000 438.141
29.96000 416.022
30.00000 437.383
30.04000 423.167
30.08000 416.986
30.12000 429.698
30.16000 424.433
30.20000 417.351
30.24000 403.690
30.28000 414.101
30.32000 407.341
30.36000 417.754
30.40000 401.050
30.44000 394.737
30.48000 411.808
30.52000 399.353
30.56000 427.994
30.60000 399.726
30.64000 423.378
30.68000 422.265
30.72000 413.739
30.76000 420.643
30.80000 422.427
30.84000 426.867
30.88000 441.310
30.92000 445.366
30.96000 455.621
31.00000 479.802
31.04000 511.765
31.08000 560.603
31.12000 622.961
31.16000 738.582
31.20000 898.794
31.24000 1064.354
31.28000 1279.320
31.32000 1483.318
31.36000 1672.286
31.40000 1735.652
31.44000 1735.144
31.48000 1632.314
31.52000 1457.956
31.56000 1277.639
31.60000 1058.078
31.64000 891.816
31.68000 725.416
31.72000 633.299
31.76000 561.470
31.80000 519.235
31.84000 493.091
31.88000 463.111
31.92000 433.458
31.96000 436.202
32.00000 409.020
32.04000 412.608
32.08000 412.483
32.12000 399.208
32.16000 392.536
32.20000 388.379
32.24000 387.314
32.28000 405.938
32.32000 379.154
32.36000 391.651
32.40000 382.419
32.44000 369.000
32.48000 394.906
32.52000 374.403
32.56000 384.495
32.60000 380.658
32.64000 371.454
32.68000 375.181
32.72000 379.528
32.76000 354.730
32.80000 363.609
32.84000 395.900
32.88000 420.200
32.92000 463.431
32.96000 448.612
33.00000 449.292
33.04000 437.647
33.08000 417.769
33.12000 358.949
33.16000 351.460
33.20000 357.550
33.24000 359.436
33.28000 342.164
33.32000 363.103
33.36000 355.648
33.40000 355.513
33.44000 335.107
33.48000 329.511
33.52000 339.038
33.56000 335.731
33.60000 322.335
33.64000 326.943
33.68000 332.558
33.72000 341.303
33.76000 342.080
33.80000 346.530
33.84000 349.668
33.88000 331.053
33.92000 321.631
33.96000 326.992
34.00000 345.014
34.04000 334.210
34.08000 326.253
34.12000 339.521
34.16000 326.160
34.20000 332.429
34.24000 316.984
34.28000 327.660
34.32000 319.541
34.36000 326.252
34.40000 326.898
34.44000 333.004
34.48000 313.971
34.52000 328.027
34.56000 329.778
34.60000 324.572
34.64000 330.406
34.68000 329.716
34.72000 319.788
34.76000 339.768
34.80000 324.824
34.84000 335.287
34.88000 331.939
34.92000 334.640
34.96000 324.061
35.00000 333.145
35.04000 311.330
35.08000 324.140
35.12000 310.893
35.16000 326.921
35.20000 305.837
35.24000 303.507
35.28000 315.332
35.32000 302.603
35.36000 295.420
35.40000 311.238
35.44000 304.770
35.48000 295.941
35.52000 310.976
35.56000 300.676
35.60000 316.541
35.64000 301.397
35.68000 312.518
35.72000 295.346
35.76000 302.229
35.80000 307.916
35.84000 293.133
35.88000 302.806
35.92000 301.531
35.96000 294.658
36.00000 304.414
36.04000 320.493
36.08000 297.860
36.12000 304.230
36.16000 290.341
36.20000 296.430
36.24000 292.286
36.28000 291.621
36.32000 296.210
36.36000 291.717
36.40000 307.635
36.44000 289.056
36.48000 305.758
36.52000 303.386
36.56000 304.046
36.60000 289.351
36.64000 305.625
36.68000 300.629
36.72000 314.365
36.76000 279.582
36.80000 284.949
36.84000 300.373
36.88000 290.972
36.92000 299.688
36.96000 304.134
37.00000 306.767
37.04000 328.564
37.08000 305.337
37.12000 305.931
37.16000 307.226
37.20000 293.297
37.24000 303.109
37.28000 283.557
37.32000 298.423
37.36000 291.059
37.40000 290.159
37.44000 295.874
37.48000 304.594
37.52000 303.867
37.56000 294.359
37.60000 296.881
37.64000 291.550
37.68000 286.487
37.72000 288.629
37.76000 288.771
37.80000 290.355
37.84000 294.018
37.88000 303.896
37.92000 300.192
37.96000 284.998
38.00000 309.739
38.04000 308.462
38.08000 300.104
38.12000 306.915
38.16000 309.192
38.20000 309.114
38.24000 325.868
38.28000 321.693
38.32000 320.824
38.36000 330.731
38.40000 363.841
38.44000 419.424
38.48000 461.954
38.52000 611.646
38.56000 754.238
38.60000 957.225
38.64000 1152.231
38.68000 1326.194
38.72000 1484.914
38.76000 1550.758
38.80000 1478.293
38.84000 1334.594
38.88000 1108.168
38.92000 903.495
38.96000 709.633
39.00000 557.659
39.04000 441.529
39.08000 373.182
39.12000 334.077
39.16000 336.108
39.20000 300.754
39.24000 300.618
39.28000 301.990
39.32000 278.592
39.36000 269.834
39.40000 286.953
39.44000 273.787
39.48000 279.150
39.52000 289.216
39.56000 277.418
39.60000 260.136
39.64000 262.141
39.68000 264.699
39.72000 259.995
39.76000 266.947
39.80000 276.576
39.84000 266.040
39.88000 273.772
39.92000 284.938
39.96000 248.386
40.00000 252.654
40.04000 262.951
40.08000 269.743
40.12000 252.318
40.16000 265.731
40.20000 256.454
40.24000 254.164
40.28000 247.310
40.32000 259.254
40.36000 256.279
40.40000 263.188
40.44000 259.354
40.48000 257.606
40.52000 247.737
40.56000 246.351
40.60000 257.765
40.64000 262.717
40.68000 259.964
40.72000 261.364
40.76000 249.163
40.80000 265.234
40.84000 264.769
40.88000 257.908
40.92000 254.411
40.96000 248.896
41.00000 250.270
41.04000 243.997
41.08000 253.495
41.12000 248.252
41.16000 247.808
41.20000 245.945
41.24000 244.626
41.28000 237.723
41.32000 252.313
41.36000 230.465
41.40000 239.631
41.44000 249.356
41.48000 243.770
41.52000 243.305
41.56000 246.531
41.60000 236.930
41.64000 239.033
41.68000 248.957
41.72000 231.491
41.76000 236.400
41.80000 233.147
41.84000 237.485
41.88000 245.260
41.92000 232.041
41.96000 234.780
42.00000 241.167
42.04000 235.845
42.08000 240.672
42.12000 225.824
42.16000 227.345
42.20000 239.157
42.24000 233.516
42.28000 249.227
42.32000 226.704
42.36000 227.169
42.40000 225.485
42.44000 236.705
42.48000 223.235
42.52000 224.491
42.56000 227.835
42.60000 236.055
42.64000 236.407
42.68000 226.250
42.72000 231.138
42.76000 230.758
42.80000 236.554
42.84000 227.386
42.88000 228.221
42.92000 231.446
42.96000 221.636
43.00000 226.306
43.04000 210.003
43.08000 217.731
43.12000 221.267
43.16000 213.277
43.20000 226.474
43.24000 232.051
43.28000 232.877
43.32000 223.367
43.36000 230.302
43.40000 220.504
43.44000 227.200
43.48000 233.226
43.52000 208.480
43.56000 227.627
43.60000 224.067
43.64000 224.664
43.68000 214.602
43.72000 223.455
43.76000 220.245
43.80000 219.335
43.84000 232.138
43.88000 211.907
43.92000 226.202
43.96000 211.138
44.00000 228.606
44.04000 211.593
44.08000 217.792
44.12000 218.941
44.16000 211.895
44.20000 215.185
44.24000 214.749
44.28000 227.009
44.32000 231.745
44.36000 219.827
44.40000 218.557
44.44000 208.298
44.48000 216.914
44.52000 218.889
44.56000 214.334
44.60000 219.561
44.64000 227.514
44.68000 230.873
44.72000 228.683
44.76000 227.583
44.80000 234.112
44.84000 229.269
44.88000 221.392
44.92000 238.895
44.96000 244.272
45.00000 245.306
45.04000 255.486
45.08000 267.023
45.12000 267.625
45.16000 255.292
45.20000 257.120
45.24000 269.408
45.28000 250.330
45.32000 262.782
45.36000 244.384
45.40000 255.795
45.44000 256.230
45.48000 246.186
45.52000 251.228
45.56000 231.998
45.60000 221.064
45.64000 245.035
45.68000 229.556
45.72000 246.291
45.76000 227.280
45.80000 225.572
45.84000 216.614
45.88000 229.737
45.92000 212.943
45.96000 223.970
46.00000 210.511
46.04000 218.191
46.08000 212.379
46.12000 220.845
46.16000 194.762
46.20000 204.303
46.24000 213.669
46.28000 204.156
46.32000 207.117
46.36000 202.307
46.40000 204.018
46.44000 205.956
46.48000 198.545
46.52000 201.149
46.56000 205.831
46.60000 205.435
46.64000 196.660
46.68000 199.193
46.72000 193.965
46.76000 195.454
46.80000 188.165
46.84000 187.916
46.88000 191.663
46.92000 204.307
46.96000 205.542
47.00000 195.922
47.04000 192.213
47.08000 189.738
47.12000 181.519
47.16000 186.911
47.20000 192.755
47.24000 177.866
47.28000 191.394
47.32000 189.473
47.36000 187.551
47.40000 195.129
47.44000 185.658
47.48000 194.653
47.52000 196.375
47.56000 196.243
47.60000 190.965
47.64000 191.410
47.68000 169.550
47.72000 195.623
47.76000 191.736
47.80000 187.687
47.84000 191.375
47.88000 175.434
47.92000 189.681
47.96000 185.851
48.00000 185.976
48.04000 185.916
48.08000 186.000
48.12000 186.262
48.16000 185.094
48.20000 183.098
48.24000 187.883
48.28000 185.299
48.32000 175.611
48.36000 166.787
48.40000 171.535
48.44000 182.981
48.48000 183.274
48.52000 189.007
48.56000 177.895
48.60000 171.654
48.64000 183.054
48.68000 187.037
48.72000 172.481
48.76000 177.578
48.80000 168.779
48.84000 181.498
48.88000 182.936
48.92000 182.144
48.96000 182.037
49.00000 173.520
49.04000 179.070
49.08000 185.841
49.12000 182.993
49.16000 180.352
49.20000 170.467
49.24000 177.424
49.28000 177.150
49.32000 173.355
49.36000 184.408
49.40000 183.430
49.44000 168.209
49.48000 180.632
49.52000 173.124
49.56000 183.779
49.60000 171.786
49.64000 171.176
49.68000 181.112
49.72000 168.826
49.76000 182.108
49.80000 179.090
49.84000 174.439
49.88000 170.115
49.92000 172.045
49.96000 184.028
50.00000 185.226
50.04000 175.861
50.08000 167.602
50.12000 180.078
50.16000 178.281
50.20000 174.043
50.24000 172.166
50.28000 167.369
50.32000 180.192
50.36000 166.413
50.40000 176.854
50.44000 186.128
50.48000 183.608
50.52000 193.945
50.56000 187.481
50.60000 195.269
50.64000 193.182
50.68000 186.148
50.72000 194.434
50.76000 180.895
50.80000 198.657
50.84000 192.160
50.88000 187.083
50.92000 187.646
50.96000 195.093
51.00000 183.533
51.04000 187.964
51.08000 183.615
51.12000 177.649
51.16000 183.593
51.20000 172.616
51.24000 174.068
51.28000 176.666
51.32000 173.851
51.36000 168.499
51.40000 182.267
51.44000 169.368
51.48000 172.031
51.52000 161.347
51.56000 151.786
51.60000 163.886
51.64000 156.581
51.68000 164.141
51.72000 175.266
51.76000 167.566
51.80000 167.044
51.84000 163.639
51.88000 150.475
51.92000 159.417
51.96000 161.717
52.00000 160.700
52.04000 166.493
52.08000 152.486
52.12000 164.617
52.16000 170.557
52.20000 152.285
52.24000 158.797
52.28000 168.962
52.32000 149.341
52.36000 159.970
52.40000 162.794
52.44000 162.501
52.48000 163.703
52.52000 161.529
52.56000 149.659
52.60000 166.496
52.64000 152.847
52.68000 165.706
52.72000 164.699
52.76000 158.574
52.80000 162.283
52.84000 159.096
52.88000 152.662
52.92000 159.690
52.96000 158.275
53.00000 149.932
53.04000 154.978
53.08000 151.169
53.12000 166.658
53.16000 155.698
53.20000 157.031
53.24000 160.645
53.28000 159.436
53.32000 151.323
53.36000 159.509
53.40000 159.492
53.44000 155.295
53.48000 176.151
53.52000 174.435
53.56000 150.548
53.60000 159.139
53.64000 161.468
53.68000 155.820
53.72000 165.476
53.76000 174.129
53.80000 156.541
53.84000 149.496
53.88000 151.977
53.92000 156.998
53.96000 160.147
54.00000 150.763
54.04000 152.225
54.08000 159.634
54.12000 165.357
54.16000 150.580
54.20000 153.614
54.24000 155.358
54.28000 156.551
54.32000 150.520
54.36000 153.414
54.40000 152.112
54.44000 163.309
54.48000 160.341
54.52000 154.556
54.56000 159.773
54.60000 152.314
54.64000 152.352
54.68000 160.665
54.72000 157.438
54.76000 162.306
54.80000 159.656
54.84000 165.714
54.88000 152.376
54.92000 153.455
54.96000 151.622
55.00000 155.537
55.04000 162.504
55.08000 155.842
55.12000 172.483
55.16000 160.710
55.20000 172.742
55.24000 166.224
55.28000 156.811
55.32000 166.465
55.36000 172.167
55.40000 165.823
55.44000 181.022
55.48000 205.522
55.52000 205.555
55.56000 222.261
55.60000 259.271
55.64000 275.609
55.68000 323.352
55.72000 373.443
55.76000 456.199
55.80000 560.376
55.84000 650.519
55.88000 736.371
55.92000 798.827
55.96000 891.706
56.00000 894.049
56.04000 862.916
56.08000 837.771
56.12000 807.561
56.16000 711.375
56.20000 616.999
56.24000 488.881
56.28000 442.113
56.32000 378.627
56.36000 314.436
56.40000 269.391
56.44000 245.936
56.48000 217.050
56.52000 203.899
56.56000 196.194
56.60000 181.016
56.64000 164.902
56.68000 164.484
56.72000 162.539
56.76000 163.701
56.80000 154.560
56.84000 147.005
56.88000 144.431
56.92000 151.477
56.96000 158.684
57.00000 151.005
57.04000 159.786
57.08000 144.391
57.12000 140.267
57.16000 147.171
57.20000 152.277
57.24000 147.091
57.28000 146.210
57.32000 148.963
57.36000 155.899
57.40000 156.863
57.44000 149.742
57.48000 143.821
57.52000 161.142
57.56000 139.039
57.60000 155.431
57.64000 153.164
57.68000 153.778
57.72000 136.617
57.76000 136.861
57.80000 149.643
57.84000 137.004
57.88000 149.517
57.92000 139.716
57.96000 142.582
58.00000 141.102
58.04000 134.431
58.08000 139.662
58.12000 142.895
58.16000 134.710
58.20000 128.330
58.24000 142.231
58.28000 131.302
58.32000 139.130
58.36000 135.826
58.40000 143.793
58.44000 141.570
58.48000 142.229
58.52000 138.343
58.56000 140.579
58.60000 142.245
58.64000 140.717
58.68000 132.099
58.72000 136.885
58.76000 136.725
58.80000 142.672
58.84000 145.434
58.88000 136.440
58.92000 140.730
58.96000 129.267
59.00000 143.170
59.04000 137.220
59.08000 130.049
59.12000 134.310
59.16000 129.262
59.20000 140.524
59.24000 134.744
59.28000 134.428
59.32000 134.518
59.36000 129.797
59.40000 135.671
59.44000 131.747
59.48000 141.801
59.52000 140.049
59.56000 136.190
59.60000 126.454
59.64000 137.261
59.68000 123.605
59.72000 131.807
59.76000 135.668
59.80000 136.684
59.84000 139.379
59.88000 138.680
59.92000 132.617
59.96000 138.839
60.00000 121.281
60.04000 136.581
60.08000 126.196
60.12000 138.235
60.16000 132.970
60.20000 140.787
60.24000 130.860
60.28000 133.734
60.32000 125.830
60.36000 133.084
60.40000 135.060
60.44000 143.442
60.48000 139.151
60.52000 127.969
60.56000 140.877
60.60000 123.146
60.64000 121.181
60.68000 122.190
60.72000 126.916
60.76000 129.913
60.80000 123.748
60.84000 139.109
60.88000 134.967
60.92000 132.057
60.96000 128.075
61.00000 130.194
61.04000 132.391
61.08000 122.625
61.12000 126.677
61.16000 130.741
61.20000 143.613
61.24000 137.196
61.28000 132.123
61.32000 138.431
61.36000 123.565
61.40000 131.803
61.44000 128.903
61.48000 152.703
61.52000 165.963
61.56000 180.362
61.60000 217.554
61.64000 249.548
61.68000 247.635
61.72000 277.473
61.76000 256.716
61.80000 200.602
61.84000 176.797
61.88000 150.071
61.92000 138.877
61.96000 154.727
62.00000 136.757
62.04000 133.255
62.08000 134.154
62.12000 143.543
62.16000 139.854
62.20000 143.199
62.24000 141.385
62.28000 139.878
62.32000 142.054
62.36000 140.236
62.40000 144.471
62.44000 144.075
62.48000 136.762
62.52000 138.280
62.56000 141.803
62.60000 130.857
62.64000 139.301
62.68000 144.360
62.72000 148.001
62.76000 136.745
62.80000 138.859
62.84000 141.701
62.88000 131.232
62.92000 153.198
62.96000 138.017
63.00000 137.432
63.04000 144.233
63.08000 152.165
63.12000 146.109
63.16000 145.801
63.20000 144.854
63.24000 144.835
63.28000 155.308
63.32000 145.630
63.36000 144.163
63.40000 147.331
63.44000 142.513
63.48000 135.297
63.52000 145.082
63.56000 139.615
63.60000 143.372
63.64000 143.795
63.68000 152.033
63.72000 145.451
63.76000 143.693
63.80000 143.269
63.84000 150.012
63.88000 147.904
63.92000 165.560
63.96000 165.741
64.00000 147.793
64.04000 149.290
64.08000 142.932
64.12000 157.425
64.16000 153.813
64.20000 157.546
64.24000 153.981
64.28000 157.891
64.32000 157.782
64.36000 158.258
64.40000 154.443
64.44000 156.948
64.48000 160.149
64.52000 164.756
64.56000 173.926
64.60000 169.817
64.64000 170.492
64.68000 165.026
64.72000 173.871
64.76000 164.544
64.80000 176.781
64.84000 174.440
64.88000 173.244
64.92000 173.435
64.96000 183.826
65.00000 183.467
65.04000 192.492
65.08000 194.845
65.12000 180.709
65.16000 188.086
65.20000 209.410
65.24000 216.571
65.28000 219.903
65.32000 230.643
65.36000 225.752
65.40000 245.571
65.44000 260.405
65.48000 272.024
65.52000 284.356
65.56000 299.180
65.60000 306.595
65.64000 338.554
65.68000 393.543
65.72000 517.156
65.76000 707.818
65.80000 890.776
65.84000 979.599
65.88000 1007.439
65.92000 1008.797
65.96000 865.535
66.00000 652.793
66.04000 454.550
66.08000 371.281
66.12000 317.627
66.16000 289.006
66.20000 301.145
66.24000 311.030
66.28000 328.642
66.32000 361.597
66.36000 380.626
66.40000 415.737
66.44000 444.057
66.48000 411.840
66.52000 397.943
66.56000 345.693
66.60000 322.838
66.64000 308.555
66.68000 308.302
66.72000 297.758
66.76000 302.287
66.80000 303.729
66.84000 316.450
66.88000 302.718
66.92000 315.892
66.96000 321.978
67.00000 336.845
67.04000 321.936
67.08000 327.335
67.12000 351.103
67.16000 340.994
67.20000 348.472
67.24000 356.207
67.28000 351.048
67.32000 363.521
67.36000 375.588
67.40000 379.469
67.44000 386.214
67.48000 389.537
67.52000 396.355
67.56000 405.940
67.60000 416.044
67.64000 417.523
67.68000 430.056
67.72000 435.468
67.76000 442.264
67.80000 457.046
67.84000 460.263
67.88000 467.889
67.92000 462.629
67.96000 476.096
68.00000 496.997
68.04000 510.925
68.08000 511.748
68.12000 535.109
68.16000 539.688
68.20000 538.718
68.24000 564.741
68.28000 581.128
68.32000 608.154
68.36000 627.406
68.40000 647.357
68.44000 661.374
68.48000 686.831
68.52000 748.640
68.56000 791.408
68.60000 876.970
68.64000 989.922
68.68000 1163.787
68.72000 1379.774
68.76000 1557.552
68.80000 1764.443
68.84000 2015.654
68.88000 2511.028
68.92000 3657.490
68.96000 10082.977
69.00000 23688.027
69.04000 39349.012
69.08000 47466.504
69.12000 49468.617
69.16000 51538.590
69.20000 52251.598
69.24000 44845.051
69.28000 33837.477
69.32000 27494.555
69.36000 24657.512
69.40000 20915.203
69.44000 13679.438
69.48000 6237.367
69.52000 2796.988
69.56000 1738.678
69.60000 1356.339
69.64000 1165.541
69.68000 995.245
69.72000 904.847
69.76000 844.065
69.80000 770.082
69.84000 723.597
69.88000 721.184
69.92000 685.820
69.96000 650.003
70.00000 649.500