File: XRD/24-09-2025 Dep 3/XY Data/BTO_Mapping_Theta2Theta_24-09-2025_001_25_-20-000_34-641.xy
20.00000 553.747
20.04000 568.909
20.08000 562.788
20.12000 543.818
20.16000 551.817
20.20000 572.101
20.24000 565.335
20.28000 559.766
20.32000 574.413
20.36000 566.207
20.40000 535.384
20.44000 556.615
20.48000 558.857
20.52000 570.226
20.56000 558.308
20.60000 556.315
20.64000 579.922
20.68000 560.192
20.72000 550.842
20.76000 541.417
20.80000 563.689
20.84000 548.549
20.88000 542.648
20.92000 551.944
20.96000 547.071
21.00000 569.118
21.04000 547.669
21.08000 542.999
21.12000 548.460
21.16000 552.752
21.20000 560.211
21.24000 549.816
21.28000 551.889
21.32000 573.672
21.36000 545.319
21.40000 548.406
21.44000 536.371
21.48000 538.335
21.52000 560.084
21.56000 553.367
21.60000 548.688
21.64000 574.394
21.68000 567.467
21.72000 577.109
21.76000 559.403
21.80000 602.198
21.84000 640.605
21.88000 658.275
21.92000 709.005
21.96000 752.031
22.00000 793.239
22.04000 805.129
22.08000 825.573
22.12000 819.399
22.16000 785.134
22.20000 755.303
22.24000 719.221
22.28000 667.478
22.32000 638.693
22.36000 626.778
22.40000 598.010
22.44000 575.814
22.48000 543.633
22.52000 549.142
22.56000 543.962
22.60000 527.380
22.64000 550.280
22.68000 517.105
22.72000 520.323
22.76000 532.412
22.80000 545.783
22.84000 518.556
22.88000 536.316
22.92000 520.663
22.96000 520.280
23.00000 532.590
23.04000 512.991
23.08000 523.178
23.12000 517.957
23.16000 504.175
23.20000 503.640
23.24000 494.423
23.28000 495.995
23.32000 501.272
23.36000 513.783
23.40000 516.636
23.44000 503.584
23.48000 500.580
23.52000 513.604
23.56000 506.779
23.60000 488.729
23.64000 510.631
23.68000 485.555
23.72000 504.247
23.76000 484.611
23.80000 495.291
23.84000 497.232
23.88000 485.824
23.92000 495.980
23.96000 491.323
24.00000 491.655
24.04000 514.545
24.08000 493.842
24.12000 499.821
24.16000 491.945
24.20000 498.016
24.24000 492.897
24.28000 487.345
24.32000 497.102
24.36000 495.976
24.40000 483.978
24.44000 469.966
24.48000 482.601
24.52000 481.970
24.56000 484.839
24.60000 475.175
24.64000 471.858
24.68000 474.029
24.72000 477.546
24.76000 480.088
24.80000 461.557
24.84000 481.973
24.88000 495.184
24.92000 477.788
24.96000 468.748
25.00000 464.068
25.04000 461.997
25.08000 478.736
25.12000 474.679
25.16000 472.134
25.20000 449.598
25.24000 478.284
25.28000 464.904
25.32000 459.221
25.36000 454.161
25.40000 464.690
25.44000 469.641
25.48000 461.528
25.52000 459.400
25.56000 483.284
25.60000 450.880
25.64000 461.200
25.68000 466.618
25.72000 460.457
25.76000 471.996
25.80000 449.141
25.84000 467.043
25.88000 469.318
25.92000 467.709
25.96000 465.311
26.00000 483.507
26.04000 454.398
26.08000 450.926
26.12000 459.549
26.16000 453.256
26.20000 468.147
26.24000 445.979
26.28000 461.012
26.32000 453.215
26.36000 442.568
26.40000 466.047
26.44000 439.122
26.48000 454.401
26.52000 444.946
26.56000 462.655
26.60000 460.656
26.64000 444.314
26.68000 436.299
26.72000 436.351
26.76000 445.846
26.80000 443.897
26.84000 458.902
26.88000 442.066
26.92000 474.520
26.96000 441.332
27.00000 431.224
27.04000 447.255
27.08000 451.134
27.12000 442.429
27.16000 438.193
27.20000 441.405
27.24000 437.271
27.28000 437.412
27.32000 442.392
27.36000 440.881
27.40000 434.506
27.44000 435.958
27.48000 430.536
27.52000 436.399
27.56000 468.428
27.60000 434.354
27.64000 443.061
27.68000 438.587
27.72000 441.754
27.76000 436.048
27.80000 445.971
27.84000 446.470
27.88000 437.901
27.92000 422.441
27.96000 437.329
28.00000 441.157
28.04000 432.871
28.08000 423.174
28.12000 429.641
28.16000 467.553
28.20000 432.077
28.24000 419.272
28.28000 423.092
28.32000 448.728
28.36000 418.514
28.40000 443.960
28.44000 417.959
28.48000 431.873
28.52000 422.588
28.56000 420.894
28.60000 440.340
28.64000 434.187
28.68000 459.978
28.72000 423.673
28.76000 434.498
28.80000 437.848
28.84000 422.608
28.88000 402.173
28.92000 437.721
28.96000 408.355
29.00000 412.415
29.04000 432.421
29.08000 418.304
29.12000 417.291
29.16000 421.024
29.20000 416.392
29.24000 417.173
29.28000 416.518
29.32000 407.138
29.36000 423.112
29.40000 426.871
29.44000 410.253
29.48000 415.412
29.52000 421.017
29.56000 401.911
29.60000 425.355
29.64000 421.329
29.68000 415.409
29.72000 436.123
29.76000 419.834
29.80000 427.397
29.84000 427.490
29.88000 433.248
29.92000 458.099
29.96000 433.560
30.00000 452.747
30.04000 454.884
30.08000 469.351
30.12000 436.419
30.16000 457.164
30.20000 454.549
30.24000 450.079
30.28000 433.230
30.32000 443.070
30.36000 440.487
30.40000 426.947
30.44000 425.261
30.48000 434.130
30.52000 437.152
30.56000 434.811
30.60000 434.857
30.64000 453.186
30.68000 423.584
30.72000 453.823
30.76000 446.983
30.80000 459.795
30.84000 472.704
30.88000 471.124
30.92000 507.928
30.96000 542.912
31.00000 583.553
31.04000 646.404
31.08000 781.280
31.12000 928.873
31.16000 1199.090
31.20000 1540.914
31.24000 2033.122
31.28000 2540.642
31.32000 3074.329
31.36000 3443.624
31.40000 3572.575
31.44000 3537.842
31.48000 3272.622
31.52000 2786.331
31.56000 2265.777
31.60000 1744.874
31.64000 1379.036
31.68000 1049.423
31.72000 856.162
31.76000 720.083
31.80000 639.715
31.84000 580.735
31.88000 502.861
31.92000 489.212
31.96000 467.326
32.00000 447.267
32.04000 431.443
32.08000 429.946
32.12000 419.856
32.16000 420.536
32.20000 397.696
32.24000 411.808
32.28000 407.481
32.32000 398.903
32.36000 413.097
32.40000 400.327
32.44000 388.239
32.48000 386.745
32.52000 396.197
32.56000 387.443
32.60000 404.709
32.64000 369.036
32.68000 379.863
32.72000 373.197
32.76000 395.087
32.80000 421.674
32.84000 485.154
32.88000 533.714
32.92000 582.322
32.96000 585.087
33.00000 565.161
33.04000 559.946
33.08000 476.550
33.12000 412.496
33.16000 400.061
33.20000 365.702
33.24000 358.927
33.28000 350.068
33.32000 370.859
33.36000 341.530
33.40000 345.118
33.44000 343.652
33.48000 340.121
33.52000 332.243
33.56000 351.675
33.60000 360.657
33.64000 343.735
33.68000 316.689
33.72000 316.217
33.76000 340.885
33.80000 346.889
33.84000 336.683
33.88000 352.118
33.92000 321.114
33.96000 347.770
34.00000 330.538
34.04000 346.919
34.08000 347.784
34.12000 343.503
34.16000 333.323
34.20000 331.548
34.24000 320.663
34.28000 328.185
34.32000 324.863
34.36000 337.516
34.40000 324.257
34.44000 314.924
34.48000 340.516
34.52000 330.969
34.56000 336.041
34.60000 318.642
34.64000 317.204
34.68000 332.325
34.72000 325.936
34.76000 319.130
34.80000 331.756
34.84000 324.379
34.88000 314.441
34.92000 317.358
34.96000 328.095
35.00000 316.301
35.04000 322.560
35.08000 311.000
35.12000 317.825
35.16000 315.541
35.20000 313.287
35.24000 311.353
35.28000 308.720
35.32000 321.132
35.36000 314.833
35.40000 307.234
35.44000 309.399
35.48000 314.090
35.52000 297.754
35.56000 308.369
35.60000 304.773
35.64000 317.751
35.68000 310.924
35.72000 300.790
35.76000 317.925
35.80000 294.205
35.84000 320.024
35.88000 293.551
35.92000 302.970
35.96000 314.476
36.00000 300.174
36.04000 308.465
36.08000 293.660
36.12000 305.891
36.16000 304.303
36.20000 303.976
36.24000 304.284
36.28000 308.928
36.32000 312.223
36.36000 314.495
36.40000 314.495
36.44000 303.980
36.48000 291.109
36.52000 294.401
36.56000 297.642
36.60000 315.202
36.64000 296.920
36.68000 297.140
36.72000 294.595
36.76000 281.911
36.80000 295.194
36.84000 284.775
36.88000 302.347
36.92000 308.903
36.96000 298.858
37.00000 323.542
37.04000 305.136
37.08000 319.814
37.12000 307.983
37.16000 310.550
37.20000 305.429
37.24000 309.592
37.28000 290.484
37.32000 288.522
37.36000 306.452
37.40000 298.495
37.44000 298.195
37.48000 291.229
37.52000 295.382
37.56000 300.892
37.60000 312.775
37.64000 287.173
37.68000 283.260
37.72000 289.341
37.76000 310.666
37.80000 301.176
37.84000 286.823
37.88000 278.209
37.92000 295.584
37.96000 294.273
38.00000 292.507
38.04000 289.103
38.08000 299.399
38.12000 294.667
38.16000 317.728
38.20000 299.740
38.24000 303.124
38.28000 316.643
38.32000 337.868
38.36000 358.049
38.40000 373.840
38.44000 440.096
38.48000 493.468
38.52000 624.905
38.56000 756.880
38.60000 916.647
38.64000 1068.470
38.68000 1165.026
38.72000 1230.500
38.76000 1241.687
38.80000 1110.430
38.84000 1003.221
38.88000 826.727
38.92000 630.312
38.96000 520.765
39.00000 459.935
39.04000 379.655
39.08000 334.424
39.12000 327.032
39.16000 298.070
39.20000 303.109
39.24000 308.378
39.28000 296.783
39.32000 291.001
39.36000 282.797
39.40000 281.126
39.44000 273.849
39.48000 275.548
39.52000 261.681
39.56000 289.208
39.60000 274.220
39.64000 275.725
39.68000 281.979
39.72000 280.053
39.76000 272.855
39.80000 264.212
39.84000 274.200
39.88000 270.272
39.92000 255.995
39.96000 254.447
40.00000 259.792
40.04000 257.906
40.08000 254.720
40.12000 273.168
40.16000 266.402
40.20000 271.264
40.24000 262.269
40.28000 261.450
40.32000 252.097
40.36000 264.842
40.40000 263.346
40.44000 242.842
40.48000 259.214
40.52000 244.431
40.56000 257.363
40.60000 259.251
40.64000 242.360
40.68000 256.621
40.72000 249.203
40.76000 247.312
40.80000 261.236
40.84000 256.078
40.88000 246.306
40.92000 253.552
40.96000 249.209
41.00000 247.597
41.04000 237.670
41.08000 254.931
41.12000 240.982
41.16000 242.458
41.20000 253.084
41.24000 250.991
41.28000 235.368
41.32000 244.735
41.36000 247.240
41.40000 255.344
41.44000 247.114
41.48000 246.067
41.52000 236.412
41.56000 232.365
41.60000 230.415
41.64000 246.047
41.68000 234.820
41.72000 241.083
41.76000 249.959
41.80000 243.074
41.84000 224.915
41.88000 247.884
41.92000 247.151
41.96000 230.807
42.00000 232.258
42.04000 234.482
42.08000 241.354
42.12000 236.870
42.16000 235.938
42.20000 223.299
42.24000 245.512
42.28000 240.547
42.32000 232.366
42.36000 239.706
42.40000 231.355
42.44000 225.893
42.48000 220.467
42.52000 236.019
42.56000 229.031
42.60000 240.222
42.64000 221.016
42.68000 227.851
42.72000 223.421
42.76000 232.514
42.80000 218.532
42.84000 228.071
42.88000 237.102
42.92000 240.784
42.96000 247.837
43.00000 235.917
43.04000 240.196
43.08000 236.114
43.12000 236.832
43.16000 225.539
43.20000 249.234
43.24000 228.264
43.28000 228.469
43.32000 235.448
43.36000 228.183
43.40000 226.720
43.44000 234.318
43.48000 218.412
43.52000 224.152
43.56000 223.426
43.60000 228.289
43.64000 211.334
43.68000 216.315
43.72000 225.438
43.76000 223.541
43.80000 224.166
43.84000 227.241
43.88000 229.095
43.92000 229.472
43.96000 222.662
44.00000 223.745
44.04000 217.594
44.08000 221.949
44.12000 217.436
44.16000 218.497
44.20000 229.723
44.24000 232.501
44.28000 237.099
44.32000 227.722
44.36000 223.871
44.40000 219.441
44.44000 216.969
44.48000 225.652
44.52000 235.907
44.56000 240.630
44.60000 235.102
44.64000 228.358
44.68000 247.922
44.72000 273.373
44.76000 259.525
44.80000 298.163
44.84000 308.854
44.88000 328.086
44.92000 374.345
44.96000 398.606
45.00000 430.440
45.04000 455.496
45.08000 471.716
45.12000 444.311
45.16000 434.931
45.20000 399.253
45.24000 386.179
45.28000 368.111
45.32000 334.798
45.36000 324.978
45.40000 323.252
45.44000 302.584
45.48000 285.553
45.52000 279.441
45.56000 276.272
45.60000 263.550
45.64000 242.513
45.68000 250.156
45.72000 237.689
45.76000 232.419
45.80000 240.720
45.84000 231.669
45.88000 234.887
45.92000 236.229
45.96000 229.515
46.00000 222.652
46.04000 218.591
46.08000 221.246
46.12000 210.121
46.16000 210.760
46.20000 199.801
46.24000 206.098
46.28000 208.721
46.32000 199.100
46.36000 202.838
46.40000 190.890
46.44000 207.982
46.48000 210.491
46.52000 209.891
46.56000 201.330
46.60000 198.538
46.64000 189.345
46.68000 204.649
46.72000 199.497
46.76000 202.586
46.80000 194.288
46.84000 189.085
46.88000 205.271
46.92000 202.735
46.96000 191.300
47.00000 198.431
47.04000 193.059
47.08000 192.788
47.12000 192.414
47.16000 201.332
47.20000 193.994
47.24000 188.882
47.28000 189.827
47.32000 181.291
47.36000 181.006
47.40000 200.079
47.44000 197.421
47.48000 191.315
47.52000 188.378
47.56000 201.390
47.60000 186.265
47.64000 195.985
47.68000 175.424
47.72000 191.373
47.76000 184.781
47.80000 196.229
47.84000 190.092
47.88000 194.267
47.92000 193.062
47.96000 170.769
48.00000 185.876
48.04000 176.708
48.08000 180.035
48.12000 179.874
48.16000 173.004
48.20000 186.591
48.24000 186.539
48.28000 183.352
48.32000 187.303
48.36000 181.483
48.40000 180.236
48.44000 181.603
48.48000 189.475
48.52000 173.357
48.56000 189.055
48.60000 189.042
48.64000 174.021
48.68000 170.026
48.72000 187.226
48.76000 182.823
48.80000 190.531
48.84000 188.239
48.88000 182.915
48.92000 175.415
48.96000 187.950
49.00000 170.148
49.04000 173.486
49.08000 175.544
49.12000 170.069
49.16000 171.430
49.20000 174.567
49.24000 179.462
49.28000 180.304
49.32000 189.762
49.36000 187.768
49.40000 172.072
49.44000 180.537
49.48000 167.988
49.52000 171.496
49.56000 183.583
49.60000 174.105
49.64000 171.538
49.68000 173.105
49.72000 172.805
49.76000 171.402
49.80000 173.632
49.84000 174.518
49.88000 180.746
49.92000 179.516
49.96000 172.432
50.00000 172.096
50.04000 176.591
50.08000 185.580
50.12000 175.050
50.16000 183.262
50.20000 172.792
50.24000 188.087
50.28000 181.377
50.32000 196.177
50.36000 198.730
50.40000 195.954
50.44000 207.216
50.48000 220.505
50.52000 230.166
50.56000 245.534
50.60000 243.717
50.64000 291.273
50.68000 281.593
50.72000 289.489
50.76000 292.729
50.80000 291.900
50.84000 263.651
50.88000 246.574
50.92000 254.706
50.96000 230.910
51.00000 223.660
51.04000 200.486
51.08000 191.684
51.12000 196.335
51.16000 178.729
51.20000 183.182
51.24000 177.007
51.28000 184.116
51.32000 171.198
51.36000 181.420
51.40000 175.646
51.44000 181.977
51.48000 175.680
51.52000 168.125
51.56000 159.574
51.60000 165.370
51.64000 165.235
51.68000 166.011
51.72000 169.738
51.76000 162.695
51.80000 156.159
51.84000 161.540
51.88000 164.879
51.92000 151.789
51.96000 161.278
52.00000 163.094
52.04000 171.822
52.08000 156.329
52.12000 159.734
52.16000 164.720
52.20000 168.960
52.24000 153.491
52.28000 168.704
52.32000 162.703
52.36000 156.053
52.40000 173.022
52.44000 166.508
52.48000 159.244
52.52000 163.231
52.56000 163.184
52.60000 149.766
52.64000 159.802
52.68000 159.749
52.72000 162.936
52.76000 156.095
52.80000 161.255
52.84000 167.634
52.88000 167.457
52.92000 151.715
52.96000 163.401
53.00000 153.753
53.04000 156.964
53.08000 159.692
53.12000 170.579
53.16000 172.711
53.20000 162.289
53.24000 173.768
53.28000 151.309
53.32000 168.985
53.36000 160.972
53.40000 159.210
53.44000 163.021
53.48000 170.147
53.52000 174.031
53.56000 157.267
53.60000 161.621
53.64000 165.671
53.68000 165.888
53.72000 160.434
53.76000 165.633
53.80000 162.270
53.84000 174.932
53.88000 167.683
53.92000 163.912
53.96000 152.366
54.00000 155.546
54.04000 160.069
54.08000 150.598
54.12000 153.916
54.16000 157.694
54.20000 165.017
54.24000 151.102
54.28000 152.079
54.32000 147.850
54.36000 150.485
54.40000 154.491
54.44000 157.056
54.48000 158.955
54.52000 146.066
54.56000 169.265
54.60000 155.567
54.64000 161.170
54.68000 149.042
54.72000 151.867
54.76000 157.000
54.80000 159.333
54.84000 156.376
54.88000 165.352
54.92000 166.637
54.96000 173.905
55.00000 151.538
55.04000 163.830
55.08000 147.584
55.12000 156.146
55.16000 154.822
55.20000 175.289
55.24000 165.116
55.28000 167.928
55.32000 169.841
55.36000 173.970
55.40000 175.888
55.44000 191.293
55.48000 189.984
55.52000 206.017
55.56000 229.464
55.60000 258.274
55.64000 291.708
55.68000 338.324
55.72000 406.367
55.76000 497.464
55.80000 570.444
55.84000 664.625
55.88000 737.952
55.92000 795.249
55.96000 804.501
56.00000 818.963
56.04000 768.399
56.08000 682.385
56.12000 606.595
56.16000 533.920
56.20000 458.964
56.24000 393.827
56.28000 324.269
56.32000 292.513
56.36000 260.878
56.40000 224.338
56.44000 226.277
56.48000 213.325
56.52000 197.075
56.56000 188.547
56.60000 181.642
56.64000 186.546
56.68000 170.684
56.72000 169.071
56.76000 166.972
56.80000 161.049
56.84000 157.356
56.88000 150.073
56.92000 151.326
56.96000 157.951
57.00000 147.634
57.04000 145.143
57.08000 164.942
57.12000 153.464
57.16000 140.523
57.20000 147.086
57.24000 148.111
57.28000 151.242
57.32000 148.337
57.36000 153.412
57.40000 144.852
57.44000 161.127
57.48000 145.136
57.52000 135.727
57.56000 140.124
57.60000 146.804
57.64000 154.579
57.68000 150.996
57.72000 141.147
57.76000 137.191
57.80000 142.823
57.84000 141.443
57.88000 143.619
57.92000 144.283
57.96000 134.076
58.00000 136.778
58.04000 137.788
58.08000 145.210
58.12000 144.460
58.16000 144.209
58.20000 137.864
58.24000 138.864
58.28000 136.031
58.32000 150.583
58.36000 141.974
58.40000 142.815
58.44000 133.335
58.48000 138.505
58.52000 131.586
58.56000 136.917
58.60000 140.072
58.64000 144.051
58.68000 145.765
58.72000 137.391
58.76000 138.107
58.80000 144.247
58.84000 128.009
58.88000 139.525
58.92000 142.880
58.96000 131.620
59.00000 132.100
59.04000 145.623
59.08000 131.089
59.12000 126.743
59.16000 133.521
59.20000 136.416
59.24000 136.064
59.28000 141.701
59.32000 131.402
59.36000 132.666
59.40000 133.505
59.44000 140.008
59.48000 135.570
59.52000 147.900
59.56000 141.791
59.60000 134.306
59.64000 132.861
59.68000 135.044
59.72000 139.436
59.76000 136.585
59.80000 128.076
59.84000 128.914
59.88000 134.839
59.92000 145.919
59.96000 133.012
60.00000 132.668
60.04000 136.970
60.08000 129.285
60.12000 137.293
60.16000 132.588
60.20000 132.347
60.24000 129.422
60.28000 143.037
60.32000 143.210
60.36000 128.653
60.40000 134.822
60.44000 130.806
60.48000 138.920
60.52000 128.964
60.56000 142.010
60.60000 131.635
60.64000 137.072
60.68000 129.679
60.72000 128.783
60.76000 139.407
60.80000 130.447
60.84000 132.329
60.88000 127.855
60.92000 141.020
60.96000 131.500
61.00000 141.050
61.04000 125.100
61.08000 132.522
61.12000 135.263
61.16000 141.071
61.20000 134.775
61.24000 135.985
61.28000 128.078
61.32000 136.095
61.36000 146.626
61.40000 132.729
61.44000 140.017
61.48000 155.850
61.52000 176.022
61.56000 212.512
61.60000 256.129
61.64000 296.600
61.68000 330.030
61.72000 325.595
61.76000 300.025
61.80000 260.065
61.84000 202.934
61.88000 157.264
61.92000 156.105
61.96000 147.610
62.00000 145.144
62.04000 148.936
62.08000 146.578
62.12000 140.587
62.16000 152.146
62.20000 141.327
62.24000 132.106
62.28000 140.816
62.32000 136.852
62.36000 125.423
62.40000 139.451
62.44000 137.354
62.48000 145.563
62.52000 137.937
62.56000 157.146
62.60000 141.962
62.64000 144.929
62.68000 141.675
62.72000 143.904
62.76000 146.321
62.80000 149.202
62.84000 151.471
62.88000 143.920
62.92000 145.928
62.96000 144.282
63.00000 148.006
63.04000 149.838
63.08000 150.034
63.12000 149.362
63.16000 152.174
63.20000 146.403
63.24000 148.934
63.28000 144.370
63.32000 144.960
63.36000 139.603
63.40000 139.759
63.44000 148.508
63.48000 145.339
63.52000 133.551
63.56000 157.658
63.60000 147.709
63.64000 152.956
63.68000 160.062
63.72000 153.602
63.76000 136.538
63.80000 150.597
63.84000 148.251
63.88000 149.169
63.92000 150.609
63.96000 145.094
64.00000 149.251
64.04000 158.600
64.08000 152.911
64.12000 158.530
64.16000 165.868
64.20000 157.721
64.24000 159.631
64.28000 167.164
64.32000 165.574
64.36000 173.565
64.40000 158.552
64.44000 165.015
64.48000 168.679
64.52000 175.415
64.56000 175.925
64.60000 159.709
64.64000 165.574
64.68000 171.382
64.72000 175.031
64.76000 174.830
64.80000 179.374
64.84000 178.376
64.88000 182.894
64.92000 189.952
64.96000 202.902
65.00000 185.939
65.04000 191.580
65.08000 211.619
65.12000 211.346
65.16000 233.181
65.20000 243.454
65.24000 251.163
65.28000 271.321
65.32000 297.195
65.36000 325.886
65.40000 364.332
65.44000 345.149
65.48000 377.939
65.52000 412.058
65.56000 440.595
65.60000 462.443
65.64000 513.272
65.68000 554.169
65.72000 745.410
65.76000 1016.748
65.80000 1279.842
65.84000 1426.099
65.88000 1437.683
65.92000 1391.170
65.96000 1200.078
66.00000 889.834
66.04000 625.223
66.08000 442.854
66.12000 401.382
66.16000 342.313
66.20000 343.084
66.24000 361.362
66.28000 398.306
66.32000 444.106
66.36000 486.831
66.40000 529.267
66.44000 539.598
66.48000 523.028
66.52000 482.824
66.56000 436.345
66.60000 379.875
66.64000 348.182
66.68000 340.903
66.72000 347.193
66.76000 353.449
66.80000 348.856
66.84000 357.140
66.88000 340.161
66.92000 343.922
66.96000 358.488
67.00000 378.401
67.04000 364.995
67.08000 394.313
67.12000 381.581
67.16000 382.833
67.20000 401.616
67.24000 402.357
67.28000 415.757
67.32000 414.003
67.36000 432.309
67.40000 409.816
67.44000 411.504
67.48000 425.047
67.52000 449.077
67.56000 444.228
67.60000 477.232
67.64000 490.608
67.68000 497.458
67.72000 502.328
67.76000 503.784
67.80000 504.179
67.84000 506.682
67.88000 540.455
67.92000 531.238
67.96000 543.309
68.00000 564.854
68.04000 583.825
68.08000 579.769
68.12000 612.897
68.16000 603.731
68.20000 632.780
68.24000 654.996
68.28000 648.921
68.32000 672.110
68.36000 712.500
68.40000 735.230
68.44000 759.325
68.48000 811.171
68.52000 862.906
68.56000 903.992
68.60000 1029.587
68.64000 1215.375
68.68000 1461.728
68.72000 1687.081
68.76000 1954.663
68.80000 2302.069
68.84000 2742.587
68.88000 3744.395
68.92000 5861.763
68.96000 14498.436
69.00000 32643.475
69.04000 54389.188
69.08000 67371.938
69.12000 71700.852
69.16000 74151.789
69.20000 74503.852
69.24000 65063.922
69.28000 49967.602
69.32000 40066.109
69.36000 35387.121
69.40000 29896.012
69.44000 20274.469
69.48000 9852.618
69.52000 4323.389
69.56000 2392.954
69.60000 1749.016
69.64000 1441.834
69.68000 1243.531
69.72000 1130.603
69.76000 999.525
69.80000 919.069
69.84000 862.673
69.88000 811.263
69.92000 779.789
69.96000 756.300
70.00000 720.777