File: XRD/24-09-2025 Dep 3/XY Data/BTO_Mapping_Theta2Theta_24-09-2025_001_02_10-000_0-000.xy
20.00000 557.131
20.04000 575.550
20.08000 554.703
20.12000 583.699
20.16000 559.569
20.20000 566.819
20.24000 551.224
20.28000 561.219
20.32000 557.266
20.36000 583.520
20.40000 542.399
20.44000 561.583
20.48000 558.272
20.52000 548.211
20.56000 566.547
20.60000 566.183
20.64000 539.888
20.68000 565.665
20.72000 544.756
20.76000 567.676
20.80000 541.628
20.84000 538.381
20.88000 572.184
20.92000 557.683
20.96000 556.957
21.00000 550.686
21.04000 537.982
21.08000 532.080
21.12000 537.831
21.16000 553.403
21.20000 543.307
21.24000 539.244
21.28000 546.350
21.32000 563.430
21.36000 540.711
21.40000 542.766
21.44000 544.262
21.48000 536.798
21.52000 551.048
21.56000 533.422
21.60000 540.412
21.64000 529.540
21.68000 533.135
21.72000 535.425
21.76000 559.830
21.80000 572.281
21.84000 561.331
21.88000 588.124
21.92000 565.189
21.96000 567.838
22.00000 601.852
22.04000 597.873
22.08000 619.090
22.12000 620.760
22.16000 613.554
22.20000 598.966
22.24000 609.069
22.28000 576.236
22.32000 571.340
22.36000 581.294
22.40000 571.774
22.44000 569.828
22.48000 544.927
22.52000 540.973
22.56000 552.464
22.60000 539.349
22.64000 526.863
22.68000 545.329
22.72000 521.192
22.76000 519.613
22.80000 528.945
22.84000 527.835
22.88000 530.157
22.92000 506.015
22.96000 509.271
23.00000 514.050
23.04000 505.705
23.08000 508.878
23.12000 488.315
23.16000 487.482
23.20000 520.724
23.24000 485.316
23.28000 487.167
23.32000 507.325
23.36000 509.931
23.40000 518.344
23.44000 504.666
23.48000 508.086
23.52000 494.319
23.56000 497.581
23.60000 486.225
23.64000 494.562
23.68000 487.040
23.72000 500.575
23.76000 510.400
23.80000 490.949
23.84000 482.592
23.88000 498.970
23.92000 496.098
23.96000 478.726
24.00000 487.636
24.04000 480.292
24.08000 489.954
24.12000 486.301
24.16000 495.057
24.20000 479.621
24.24000 499.089
24.28000 484.126
24.32000 474.228
24.36000 486.705
24.40000 507.172
24.44000 472.063
24.48000 474.109
24.52000 487.552
24.56000 471.214
24.60000 483.456
24.64000 481.359
24.68000 482.630
24.72000 467.141
24.76000 491.972
24.80000 478.174
24.84000 487.416
24.88000 486.668
24.92000 474.974
24.96000 473.727
25.00000 471.702
25.04000 481.024
25.08000 477.638
25.12000 471.957
25.16000 505.467
25.20000 479.136
25.24000 471.313
25.28000 470.754
25.32000 475.799
25.36000 471.270
25.40000 479.993
25.44000 464.939
25.48000 464.915
25.52000 456.845
25.56000 459.456
25.60000 480.567
25.64000 467.948
25.68000 470.871
25.72000 485.006
25.76000 488.211
25.80000 439.682
25.84000 450.362
25.88000 481.617
25.92000 457.010
25.96000 461.379
26.00000 480.792
26.04000 451.309
26.08000 447.544
26.12000 442.458
26.16000 459.148
26.20000 458.507
26.24000 449.725
26.28000 466.696
26.32000 440.106
26.36000 442.240
26.40000 456.020
26.44000 452.872
26.48000 449.949
26.52000 456.213
26.56000 448.412
26.60000 446.659
26.64000 433.951
26.68000 446.187
26.72000 447.547
26.76000 449.438
26.80000 442.394
26.84000 443.115
26.88000 432.791
26.92000 441.929
26.96000 434.803
27.00000 436.362
27.04000 424.727
27.08000 436.678
27.12000 443.394
27.16000 434.639
27.20000 445.230
27.24000 434.090
27.28000 427.041
27.32000 451.820
27.36000 419.588
27.40000 448.930
27.44000 421.354
27.48000 440.753
27.52000 452.088
27.56000 446.582
27.60000 434.817
27.64000 423.442
27.68000 423.516
27.72000 442.008
27.76000 439.090
27.80000 439.606
27.84000 420.708
27.88000 432.493
27.92000 437.155
27.96000 426.989
28.00000 440.251
28.04000 416.569
28.08000 406.710
28.12000 415.024
28.16000 426.201
28.20000 420.535
28.24000 437.554
28.28000 432.603
28.32000 432.431
28.36000 419.753
28.40000 433.530
28.44000 422.178
28.48000 424.740
28.52000 421.023
28.56000 423.495
28.60000 421.849
28.64000 426.903
28.68000 426.849
28.72000 429.684
28.76000 412.664
28.80000 408.523
28.84000 407.537
28.88000 443.935
28.92000 412.163
28.96000 430.154
29.00000 403.650
29.04000 414.642
29.08000 412.187
29.12000 433.054
29.16000 437.750
29.20000 390.015
29.24000 402.333
29.28000 394.426
29.32000 408.329
29.36000 424.926
29.40000 400.899
29.44000 423.597
29.48000 403.114
29.52000 409.802
29.56000 409.803
29.60000 412.602
29.64000 415.325
29.68000 403.654
29.72000 404.063
29.76000 398.511
29.80000 420.576
29.84000 422.839
29.88000 415.070
29.92000 424.408
29.96000 414.705
30.00000 430.233
30.04000 427.958
30.08000 414.637
30.12000 432.492
30.16000 424.642
30.20000 421.639
30.24000 427.531
30.28000 413.659
30.32000 413.404
30.36000 424.880
30.40000 418.545
30.44000 408.558
30.48000 412.968
30.52000 428.766
30.56000 406.444
30.60000 415.554
30.64000 413.468
30.68000 424.573
30.72000 418.922
30.76000 424.689
30.80000 425.949
30.84000 430.861
30.88000 458.245
30.92000 446.859
30.96000 487.375
31.00000 508.963
31.04000 529.674
31.08000 617.512
31.12000 713.835
31.16000 864.400
31.20000 1046.783
31.24000 1266.931
31.28000 1544.326
31.32000 1771.877
31.36000 1978.575
31.40000 2012.210
31.44000 1947.710
31.48000 1857.540
31.52000 1628.796
31.56000 1403.323
31.60000 1131.896
31.64000 908.519
31.68000 746.053
31.72000 658.530
31.76000 574.879
31.80000 525.976
31.84000 492.329
31.88000 450.315
31.92000 442.018
31.96000 433.863
32.00000 411.706
32.04000 409.115
32.08000 408.977
32.12000 404.477
32.16000 395.877
32.20000 411.243
32.24000 389.355
32.28000 400.585
32.32000 394.767
32.36000 392.764
32.40000 388.643
32.44000 387.244
32.48000 375.960
32.52000 374.792
32.56000 385.667
32.60000 410.458
32.64000 386.271
32.68000 358.295
32.72000 380.436
32.76000 356.425
32.80000 397.224
32.84000 420.277
32.88000 429.692
32.92000 462.752
32.96000 446.482
33.00000 440.670
33.04000 427.933
33.08000 392.333
33.12000 365.288
33.16000 348.946
33.20000 342.009
33.24000 355.124
33.28000 352.610
33.32000 336.707
33.36000 340.034
33.40000 357.262
33.44000 346.462
33.48000 336.115
33.52000 326.836
33.56000 332.915
33.60000 343.662
33.64000 356.187
33.68000 336.213
33.72000 340.859
33.76000 341.600
33.80000 327.062
33.84000 339.421
33.88000 340.990
33.92000 320.966
33.96000 330.568
34.00000 325.871
34.04000 328.178
34.08000 337.091
34.12000 324.942
34.16000 330.108
34.20000 308.305
34.24000 316.063
34.28000 340.127
34.32000 323.344
34.36000 322.550
34.40000 324.036
34.44000 325.769
34.48000 331.910
34.52000 337.518
34.56000 316.641
34.60000 333.545
34.64000 314.494
34.68000 324.978
34.72000 329.700
34.76000 338.293
34.80000 326.101
34.84000 321.314
34.88000 328.504
34.92000 309.611
34.96000 325.500
35.00000 325.488
35.04000 321.112
35.08000 314.722
35.12000 309.661
35.16000 327.478
35.20000 307.680
35.24000 314.484
35.28000 323.166
35.32000 309.047
35.36000 318.646
35.40000 310.836
35.44000 309.427
35.48000 288.705
35.52000 296.971
35.56000 301.684
35.60000 319.211
35.64000 309.066
35.68000 318.267
35.72000 307.479
35.76000 307.586
35.80000 298.489
35.84000 307.589
35.88000 311.862
35.92000 317.187
35.96000 305.112
36.00000 288.030
36.04000 297.947
36.08000 296.755
36.12000 306.696
36.16000 296.969
36.20000 303.796
36.24000 297.879
36.28000 300.405
36.32000 310.886
36.36000 287.341
36.40000 280.522
36.44000 305.751
36.48000 306.924
36.52000 311.501
36.56000 310.666
36.60000 307.852
36.64000 291.233
36.68000 296.350
36.72000 321.067
36.76000 302.302
36.80000 282.953
36.84000 308.805
36.88000 306.919
36.92000 313.638
36.96000 317.523
37.00000 315.078
37.04000 306.214
37.08000 309.211
37.12000 322.735
37.16000 297.010
37.20000 311.819
37.24000 304.342
37.28000 304.071
37.32000 300.630
37.36000 292.824
37.40000 295.766
37.44000 294.009
37.48000 304.318
37.52000 299.502
37.56000 282.948
37.60000 290.953
37.64000 294.092
37.68000 279.659
37.72000 293.625
37.76000 284.123
37.80000 302.357
37.84000 297.966
37.88000 290.128
37.92000 299.704
37.96000 292.132
38.00000 290.944
38.04000 310.239
38.08000 301.610
38.12000 304.535
38.16000 293.660
38.20000 313.126
38.24000 324.551
38.28000 330.872
38.32000 334.544
38.36000 357.622
38.40000 398.449
38.44000 450.161
38.48000 533.523
38.52000 653.405
38.56000 848.722
38.60000 1043.856
38.64000 1289.169
38.68000 1461.446
38.72000 1556.772
38.76000 1589.902
38.80000 1484.874
38.84000 1326.157
38.88000 1072.560
38.92000 851.383
38.96000 684.363
39.00000 531.132
39.04000 419.138
39.08000 388.907
39.12000 336.856
39.16000 311.286
39.20000 305.703
39.24000 293.003
39.28000 288.583
39.32000 293.037
39.36000 281.903
39.40000 274.199
39.44000 284.498
39.48000 276.858
39.52000 288.668
39.56000 270.358
39.60000 261.890
39.64000 270.341
39.68000 274.491
39.72000 280.104
39.76000 272.319
39.80000 254.334
39.84000 263.773
39.88000 268.420
39.92000 265.557
39.96000 257.861
40.00000 253.911
40.04000 267.300
40.08000 264.101
40.12000 277.439
40.16000 265.029
40.20000 249.018
40.24000 250.998
40.28000 264.200
40.32000 242.252
40.36000 270.993
40.40000 262.613
40.44000 264.666
40.48000 253.975
40.52000 256.314
40.56000 248.695
40.60000 269.100
40.64000 234.894
40.68000 252.936
40.72000 241.122
40.76000 257.635
40.80000 254.306
40.84000 238.179
40.88000 247.088
40.92000 246.847
40.96000 247.972
41.00000 239.092
41.04000 258.663
41.08000 237.010
41.12000 246.669
41.16000 240.728
41.20000 244.187
41.24000 240.978
41.28000 249.257
41.32000 243.525
41.36000 262.286
41.40000 246.676
41.44000 240.144
41.48000 250.979
41.52000 242.427
41.56000 256.439
41.60000 240.314
41.64000 245.782
41.68000 242.258
41.72000 236.444
41.76000 238.797
41.80000 239.784
41.84000 237.331
41.88000 238.733
41.92000 238.408
41.96000 236.740
42.00000 235.960
42.04000 228.326
42.08000 223.557
42.12000 228.366
42.16000 214.781
42.20000 240.652
42.24000 211.699
42.28000 224.714
42.32000 216.537
42.36000 231.061
42.40000 234.770
42.44000 232.446
42.48000 225.818
42.52000 230.543
42.56000 223.141
42.60000 225.599
42.64000 226.179
42.68000 220.435
42.72000 223.161
42.76000 236.389
42.80000 234.666
42.84000 241.552
42.88000 235.851
42.92000 231.834
42.96000 232.794
43.00000 245.292
43.04000 235.627
43.08000 236.314
43.12000 219.195
43.16000 221.619
43.20000 223.502
43.24000 224.724
43.28000 221.180
43.32000 227.864
43.36000 236.580
43.40000 231.859
43.44000 219.421
43.48000 225.110
43.52000 233.204
43.56000 229.633
43.60000 218.051
43.64000 202.967
43.68000 227.009
43.72000 229.947
43.76000 210.460
43.80000 222.966
43.84000 223.119
43.88000 228.651
43.92000 210.201
43.96000 224.993
44.00000 215.065
44.04000 224.884
44.08000 218.332
44.12000 221.789
44.16000 208.056
44.20000 208.587
44.24000 216.000
44.28000 220.516
44.32000 216.036
44.36000 216.020
44.40000 214.628
44.44000 234.242
44.48000 221.634
44.52000 221.914
44.56000 220.839
44.60000 219.452
44.64000 206.569
44.68000 224.159
44.72000 231.589
44.76000 227.515
44.80000 224.401
44.84000 241.255
44.88000 252.121
44.92000 236.021
44.96000 268.287
45.00000 263.301
45.04000 252.519
45.08000 281.029
45.12000 272.691
45.16000 275.781
45.20000 271.065
45.24000 264.513
45.28000 269.980
45.32000 264.382
45.36000 264.154
45.40000 255.977
45.44000 250.097
45.48000 255.328
45.52000 240.734
45.56000 244.989
45.60000 246.382
45.64000 241.375
45.68000 251.332
45.72000 236.924
45.76000 232.587
45.80000 231.629
45.84000 237.290
45.88000 223.503
45.92000 225.282
45.96000 218.645
46.00000 204.503
46.04000 221.615
46.08000 219.795
46.12000 216.180
46.16000 209.357
46.20000 210.430
46.24000 205.335
46.28000 203.686
46.32000 213.513
46.36000 209.937
46.40000 217.313
46.44000 205.758
46.48000 197.600
46.52000 201.410
46.56000 204.187
46.60000 203.951
46.64000 186.613
46.68000 197.034
46.72000 195.975
46.76000 193.002
46.80000 194.058
46.84000 196.283
46.88000 196.321
46.92000 187.477
46.96000 201.791
47.00000 203.037
47.04000 188.906
47.08000 190.535
47.12000 179.817
47.16000 196.820
47.20000 194.630
47.24000 194.744
47.28000 200.846
47.32000 196.466
47.36000 179.954
47.40000 187.599
47.44000 186.456
47.48000 188.213
47.52000 186.727
47.56000 192.747
47.60000 180.379
47.64000 185.261
47.68000 191.065
47.72000 182.243
47.76000 189.735
47.80000 184.558
47.84000 179.941
47.88000 184.590
47.92000 184.879
47.96000 187.103
48.00000 190.928
48.04000 185.187
48.08000 179.860
48.12000 194.447
48.16000 172.443
48.20000 206.431
48.24000 195.065
48.28000 193.021
48.32000 175.085
48.36000 184.153
48.40000 180.045
48.44000 178.830
48.48000 180.277
48.52000 177.123
48.56000 193.313
48.60000 176.013
48.64000 178.426
48.68000 178.354
48.72000 184.000
48.76000 188.096
48.80000 169.403
48.84000 184.645
48.88000 170.214
48.92000 177.288
48.96000 179.533
49.00000 185.956
49.04000 178.081
49.08000 174.214
49.12000 172.343
49.16000 180.242
49.20000 183.610
49.24000 180.382
49.28000 179.092
49.32000 172.266
49.36000 183.817
49.40000 171.571
49.44000 179.450
49.48000 173.474
49.52000 164.590
49.56000 176.861
49.60000 170.407
49.64000 167.096
49.68000 180.566
49.72000 185.613
49.76000 180.628
49.80000 177.668
49.84000 175.924
49.88000 175.214
49.92000 168.521
49.96000 183.623
50.00000 175.509
50.04000 178.085
50.08000 172.621
50.12000 163.821
50.16000 171.110
50.20000 178.602
50.24000 170.512
50.28000 172.374
50.32000 188.047
50.36000 171.515
50.40000 167.272
50.44000 174.706
50.48000 189.743
50.52000 196.150
50.56000 197.372
50.60000 197.751
50.64000 196.406
50.68000 190.948
50.72000 195.901
50.76000 202.201
50.80000 208.419
50.84000 198.034
50.88000 189.401
50.92000 194.995
50.96000 194.047
51.00000 188.249
51.04000 183.585
51.08000 178.937
51.12000 176.341
51.16000 185.864
51.20000 166.005
51.24000 168.706
51.28000 172.752
51.32000 176.851
51.36000 163.184
51.40000 155.222
51.44000 167.453
51.48000 169.714
51.52000 163.261
51.56000 153.789
51.60000 164.720
51.64000 161.545
51.68000 158.861
51.72000 166.825
51.76000 155.933
51.80000 172.583
51.84000 162.054
51.88000 155.105
51.92000 159.163
51.96000 155.812
52.00000 162.328
52.04000 157.000
52.08000 160.901
52.12000 168.509
52.16000 166.119
52.20000 164.107
52.24000 152.851
52.28000 170.586
52.32000 168.385
52.36000 157.424
52.40000 166.678
52.44000 156.176
52.48000 166.744
52.52000 159.001
52.56000 156.659
52.60000 154.246
52.64000 170.408
52.68000 165.216
52.72000 153.710
52.76000 155.295
52.80000 157.042
52.84000 167.933
52.88000 157.143
52.92000 159.582
52.96000 156.773
53.00000 157.990
53.04000 154.668
53.08000 159.175
53.12000 160.526
53.16000 153.675
53.20000 160.231
53.24000 165.648
53.28000 164.219
53.32000 162.742
53.36000 156.849
53.40000 167.365
53.44000 168.010
53.48000 168.044
53.52000 167.396
53.56000 174.811
53.60000 154.763
53.64000 156.218
53.68000 165.798
53.72000 153.697
53.76000 179.572
53.80000 145.585
53.84000 171.440
53.88000 151.889
53.92000 153.060
53.96000 148.807
54.00000 159.491
54.04000 153.794
54.08000 157.437
54.12000 164.709
54.16000 162.718
54.20000 155.086
54.24000 153.442
54.28000 152.973
54.32000 162.566
54.36000 150.743
54.40000 149.208
54.44000 160.954
54.48000 154.651
54.52000 157.581
54.56000 157.133
54.60000 160.808
54.64000 166.203
54.68000 155.068
54.72000 159.372
54.76000 153.411
54.80000 162.397
54.84000 159.551
54.88000 161.018
54.92000 165.275
54.96000 153.911
55.00000 159.532
55.04000 162.661
55.08000 160.043
55.12000 166.702
55.16000 161.456
55.20000 167.151
55.24000 172.583
55.28000 177.626
55.32000 176.030
55.36000 171.360
55.40000 186.486
55.44000 190.646
55.48000 203.074
55.52000 204.718
55.56000 221.815
55.60000 264.710
55.64000 298.077
55.68000 353.983
55.72000 410.184
55.76000 508.800
55.80000 596.338
55.84000 710.838
55.88000 772.730
55.92000 844.590
55.96000 894.081
56.00000 909.807
56.04000 901.560
56.08000 858.565
56.12000 759.625
56.16000 663.535
56.20000 569.210
56.24000 493.824
56.28000 406.191
56.32000 354.416
56.36000 311.362
56.40000 258.176
56.44000 237.680
56.48000 199.893
56.52000 202.764
56.56000 184.330
56.60000 181.812
56.64000 173.337
56.68000 177.093
56.72000 178.343
56.76000 167.130
56.80000 161.926
56.84000 161.591
56.88000 162.341
56.92000 157.610
56.96000 143.408
57.00000 150.069
57.04000 154.341
57.08000 148.694
57.12000 153.621
57.16000 154.122
57.20000 153.786
57.24000 148.295
57.28000 150.539
57.32000 141.704
57.36000 145.391
57.40000 144.981
57.44000 146.921
57.48000 138.479
57.52000 144.550
57.56000 139.587
57.60000 138.450
57.64000 143.992
57.68000 150.840
57.72000 148.416
57.76000 146.446
57.80000 154.177
57.84000 139.004
57.88000 150.026
57.92000 139.207
57.96000 145.329
58.00000 144.954
58.04000 146.754
58.08000 140.452
58.12000 134.866
58.16000 138.771
58.20000 130.001
58.24000 143.038
58.28000 132.851
58.32000 133.294
58.36000 137.586
58.40000 140.750
58.44000 133.067
58.48000 142.090
58.52000 138.712
58.56000 136.367
58.60000 135.895
58.64000 133.174
58.68000 126.197
58.72000 140.785
58.76000 131.780
58.80000 134.583
58.84000 137.807
58.88000 135.982
58.92000 133.159
58.96000 132.704
59.00000 127.656
59.04000 131.087
59.08000 130.991
59.12000 140.105
59.16000 135.887
59.20000 141.957
59.24000 131.023
59.28000 141.014
59.32000 146.112
59.36000 139.530
59.40000 136.359
59.44000 139.983
59.48000 136.112
59.52000 133.452
59.56000 130.790
59.60000 128.143
59.64000 137.370
59.68000 134.088
59.72000 134.940
59.76000 137.913
59.80000 132.017
59.84000 124.598
59.88000 129.519
59.92000 131.110
59.96000 123.445
60.00000 126.086
60.04000 136.937
60.08000 133.901
60.12000 128.497
60.16000 129.934
60.20000 138.234
60.24000 137.381
60.28000 126.787
60.32000 137.076
60.36000 134.948
60.40000 138.275
60.44000 133.280
60.48000 140.335
60.52000 142.517
60.56000 139.760
60.60000 129.583
60.64000 120.241
60.68000 126.509
60.72000 123.331
60.76000 129.058
60.80000 129.136
60.84000 131.265
60.88000 138.415
60.92000 138.757
60.96000 133.991
61.00000 130.311
61.04000 138.979
61.08000 130.638
61.12000 133.719
61.16000 127.834
61.20000 134.580
61.24000 130.861
61.28000 146.470
61.32000 142.245
61.36000 130.148
61.40000 137.122
61.44000 143.366
61.48000 138.701
61.52000 158.255
61.56000 196.329
61.60000 218.875
61.64000 246.901
61.68000 274.862
61.72000 259.222
61.76000 254.029
61.80000 211.099
61.84000 170.964
61.88000 149.302
61.92000 144.681
61.96000 150.145
62.00000 140.629
62.04000 141.394
62.08000 136.771
62.12000 151.332
62.16000 142.670
62.20000 137.179
62.24000 138.700
62.28000 135.949
62.32000 140.363
62.36000 135.211
62.40000 154.092
62.44000 132.218
62.48000 136.781
62.52000 149.521
62.56000 147.991
62.60000 146.675
62.64000 141.932
62.68000 136.849
62.72000 144.990
62.76000 144.494
62.80000 132.140
62.84000 133.775
62.88000 146.851
62.92000 135.203
62.96000 143.401
63.00000 138.402
63.04000 138.472
63.08000 136.043
63.12000 139.117
63.16000 141.878
63.20000 140.860
63.24000 143.990
63.28000 150.058
63.32000 147.708
63.36000 150.597
63.40000 147.253
63.44000 143.056
63.48000 143.873
63.52000 148.119
63.56000 137.330
63.60000 144.403
63.64000 134.694
63.68000 152.341
63.72000 153.008
63.76000 152.799
63.80000 140.905
63.84000 150.316
63.88000 155.317
63.92000 156.408
63.96000 150.097
64.00000 159.346
64.04000 153.995
64.08000 158.096
64.12000 152.518
64.16000 155.656
64.20000 163.311
64.24000 147.940
64.28000 159.527
64.32000 154.338
64.36000 163.312
64.40000 155.227
64.44000 157.324
64.48000 147.685
64.52000 164.409
64.56000 150.850
64.60000 171.836
64.64000 162.958
64.68000 176.312
64.72000 171.099
64.76000 172.870
64.80000 180.155
64.84000 169.620
64.88000 165.938
64.92000 184.933
64.96000 179.979
65.00000 190.122
65.04000 194.388
65.08000 199.403
65.12000 203.935
65.16000 188.677
65.20000 196.109
65.24000 218.895
65.28000 220.850
65.32000 241.084
65.36000 249.919
65.40000 253.151
65.44000 275.842
65.48000 290.429
65.52000 298.731
65.56000 311.416
65.60000 338.348
65.64000 374.047
65.68000 436.423
65.72000 548.663
65.76000 771.735
65.80000 923.056
65.84000 1005.596
65.88000 1015.053
65.92000 965.553
65.96000 858.107
66.00000 632.155
66.04000 441.586
66.08000 350.010
66.12000 305.305
66.16000 291.349
66.20000 305.972
66.24000 298.684
66.28000 327.735
66.32000 370.987
66.36000 407.031
66.40000 410.743
66.44000 420.051
66.48000 405.655
66.52000 402.485
66.56000 336.759
66.60000 321.327
66.64000 313.487
66.68000 306.417
66.72000 302.764
66.76000 295.423
66.80000 308.484
66.84000 310.947
66.88000 296.320
66.92000 304.389
66.96000 311.403
67.00000 318.377
67.04000 332.493
67.08000 350.126
67.12000 348.927
67.16000 355.938
67.20000 349.697
67.24000 339.948
67.28000 381.282
67.32000 357.145
67.36000 374.960
67.40000 381.791
67.44000 386.278
67.48000 397.058
67.52000 399.396
67.56000 392.902
67.60000 409.910
67.64000 418.471
67.68000 434.095
67.72000 443.016
67.76000 429.999
67.80000 460.968
67.84000 465.513
67.88000 470.148
67.92000 473.557
67.96000 484.447
68.00000 506.552
68.04000 513.807
68.08000 528.918
68.12000 522.763
68.16000 515.025
68.20000 532.803
68.24000 555.312
68.28000 587.535
68.32000 597.867
68.36000 619.569
68.40000 635.788
68.44000 686.897
68.48000 676.430
68.52000 716.396
68.56000 788.136
68.60000 893.092
68.64000 1020.867
68.68000 1219.756
68.72000 1388.713
68.76000 1609.854
68.80000 1749.823
68.84000 2076.461
68.88000 2594.624
68.92000 4096.202
68.96000 11474.804
69.00000 25688.443
69.04000 41202.855
69.08000 48694.504
69.12000 50010.273
69.16000 52330.469
69.20000 52446.527
69.24000 44159.102
69.28000 33286.438
69.32000 27387.467
69.36000 24675.797
69.40000 20531.797
69.44000 13055.085
69.48000 5734.418
69.52000 2672.693
69.56000 1706.166
69.60000 1364.387
69.64000 1144.854
69.68000 989.310
69.72000 904.123
69.76000 826.651
69.80000 800.743
69.84000 728.291
69.88000 706.793
69.92000 669.361
69.96000 642.588
70.00000 644.679