File: XRD/24-09-2025 Dep 3/XY Data/BTO_Mapping_Theta2Theta_24-09-2025_001_14_3-090_9-511.xy
20.00000 556.836
20.04000 571.315
20.08000 561.913
20.12000 560.513
20.16000 566.049
20.20000 560.201
20.24000 561.633
20.28000 547.177
20.32000 582.789
20.36000 553.096
20.40000 540.175
20.44000 563.523
20.48000 547.042
20.52000 540.768
20.56000 565.015
20.60000 558.019
20.64000 566.224
20.68000 549.454
20.72000 558.941
20.76000 551.489
20.80000 546.449
20.84000 549.654
20.88000 573.930
20.92000 555.467
20.96000 560.645
21.00000 568.254
21.04000 537.001
21.08000 542.692
21.12000 560.858
21.16000 577.505
21.20000 561.500
21.24000 537.362
21.28000 564.071
21.32000 551.412
21.36000 536.905
21.40000 532.768
21.44000 562.213
21.48000 554.118
21.52000 529.567
21.56000 568.997
21.60000 551.802
21.64000 539.621
21.68000 555.385
21.72000 551.194
21.76000 554.334
21.80000 573.782
21.84000 555.036
21.88000 575.256
21.92000 633.933
21.96000 621.674
22.00000 632.193
22.04000 650.005
22.08000 659.380
22.12000 668.952
22.16000 663.834
22.20000 653.839
22.24000 638.334
22.28000 631.731
22.32000 612.511
22.36000 596.464
22.40000 585.345
22.44000 590.696
22.48000 575.207
22.52000 563.512
22.56000 565.543
22.60000 550.938
22.64000 535.607
22.68000 519.123
22.72000 516.609
22.76000 525.084
22.80000 539.780
22.84000 514.160
22.88000 513.065
22.92000 510.413
22.96000 506.673
23.00000 510.964
23.04000 522.338
23.08000 507.023
23.12000 533.306
23.16000 506.780
23.20000 523.640
23.24000 506.687
23.28000 496.794
23.32000 523.425
23.36000 502.835
23.40000 501.051
23.44000 509.913
23.48000 508.874
23.52000 506.759
23.56000 505.509
23.60000 498.472
23.64000 521.284
23.68000 505.818
23.72000 504.787
23.76000 494.508
23.80000 480.379
23.84000 484.986
23.88000 499.159
23.92000 484.851
23.96000 507.648
24.00000 500.277
24.04000 470.729
24.08000 485.178
24.12000 481.296
24.16000 478.908
24.20000 475.034
24.24000 502.305
24.28000 492.614
24.32000 485.436
24.36000 487.845
24.40000 470.889
24.44000 477.925
24.48000 487.869
24.52000 487.978
24.56000 467.901
24.60000 481.996
24.64000 483.745
24.68000 477.842
24.72000 487.585
24.76000 469.958
24.80000 483.823
24.84000 468.872
24.88000 485.530
24.92000 488.314
24.96000 481.055
25.00000 482.220
25.04000 482.494
25.08000 459.206
25.12000 478.157
25.16000 475.495
25.20000 472.508
25.24000 472.224
25.28000 476.281
25.32000 455.029
25.36000 457.608
25.40000 468.037
25.44000 462.253
25.48000 483.219
25.52000 480.497
25.56000 492.469
25.60000 466.051
25.64000 464.663
25.68000 444.835
25.72000 478.734
25.76000 478.983
25.80000 471.208
25.84000 465.287
25.88000 468.868
25.92000 459.759
25.96000 466.376
26.00000 447.014
26.04000 455.257
26.08000 452.801
26.12000 448.416
26.16000 450.859
26.20000 469.235
26.24000 449.949
26.28000 459.886
26.32000 475.056
26.36000 448.957
26.40000 438.162
26.44000 474.484
26.48000 457.622
26.52000 471.742
26.56000 458.865
26.60000 469.092
26.64000 440.212
26.68000 452.136
26.72000 455.541
26.76000 440.914
26.80000 429.200
26.84000 426.378
26.88000 429.992
26.92000 456.776
26.96000 425.912
27.00000 450.558
27.04000 440.058
27.08000 436.828
27.12000 422.502
27.16000 437.682
27.20000 437.278
27.24000 452.653
27.28000 418.078
27.32000 430.605
27.36000 438.896
27.40000 418.324
27.44000 439.051
27.48000 454.850
27.52000 439.105
27.56000 433.826
27.60000 425.627
27.64000 437.734
27.68000 428.337
27.72000 456.001
27.76000 421.692
27.80000 445.373
27.84000 416.197
27.88000 417.439
27.92000 422.641
27.96000 413.612
28.00000 429.227
28.04000 432.194
28.08000 427.363
28.12000 424.834
28.16000 424.951
28.20000 437.046
28.24000 439.073
28.28000 420.806
28.32000 439.852
28.36000 430.109
28.40000 426.240
28.44000 420.862
28.48000 411.541
28.52000 420.676
28.56000 417.874
28.60000 427.789
28.64000 429.175
28.68000 414.855
28.72000 408.444
28.76000 432.374
28.80000 400.765
28.84000 419.626
28.88000 418.750
28.92000 429.571
28.96000 422.513
29.00000 422.787
29.04000 409.390
29.08000 410.419
29.12000 403.872
29.16000 410.919
29.20000 428.931
29.24000 421.618
29.28000 425.537
29.32000 418.412
29.36000 424.624
29.40000 435.186
29.44000 406.753
29.48000 394.080
29.52000 396.250
29.56000 406.379
29.60000 404.348
29.64000 415.740
29.68000 402.546
29.72000 401.920
29.76000 410.799
29.80000 401.107
29.84000 409.528
29.88000 426.064
29.92000 457.633
29.96000 432.333
30.00000 444.517
30.04000 439.575
30.08000 432.139
30.12000 436.118
30.16000 423.595
30.20000 419.600
30.24000 433.933
30.28000 411.904
30.32000 416.608
30.36000 428.943
30.40000 421.146
30.44000 417.533
30.48000 426.912
30.52000 416.188
30.56000 427.047
30.60000 422.450
30.64000 423.774
30.68000 436.441
30.72000 430.783
30.76000 439.726
30.80000 440.308
30.84000 447.157
30.88000 452.446
30.92000 469.565
30.96000 515.347
31.00000 523.113
31.04000 566.277
31.08000 668.995
31.12000 804.644
31.16000 994.975
31.20000 1265.336
31.24000 1637.401
31.28000 1958.285
31.32000 2326.551
31.36000 2586.579
31.40000 2666.819
31.44000 2598.414
31.48000 2400.503
31.52000 2081.616
31.56000 1704.354
31.60000 1401.802
31.64000 1111.542
31.68000 883.010
31.72000 747.431
31.76000 630.840
31.80000 584.219
31.84000 529.295
31.88000 480.933
31.92000 453.935
31.96000 454.982
32.00000 429.532
32.04000 423.390
32.08000 402.342
32.12000 422.946
32.16000 400.249
32.20000 414.343
32.24000 395.585
32.28000 400.308
32.32000 419.866
32.36000 405.525
32.40000 395.289
32.44000 380.924
32.48000 386.104
32.52000 375.452
32.56000 381.181
32.60000 395.029
32.64000 372.366
32.68000 369.120
32.72000 371.303
32.76000 373.217
32.80000 393.134
32.84000 418.482
32.88000 452.968
32.92000 475.074
32.96000 471.700
33.00000 464.889
33.04000 459.233
33.08000 415.310
33.12000 377.558
33.16000 373.504
33.20000 358.895
33.24000 358.139
33.28000 351.457
33.32000 340.016
33.36000 332.348
33.40000 340.526
33.44000 333.157
33.48000 341.545
33.52000 336.390
33.56000 344.296
33.60000 335.245
33.64000 355.736
33.68000 325.457
33.72000 329.748
33.76000 342.913
33.80000 343.128
33.84000 336.487
33.88000 334.164
33.92000 343.419
33.96000 331.210
34.00000 335.242
34.04000 338.185
34.08000 335.491
34.12000 336.560
34.16000 334.436
34.20000 329.466
34.24000 347.910
34.28000 347.827
34.32000 331.019
34.36000 320.760
34.40000 332.191
34.44000 351.837
34.48000 327.469
34.52000 318.398
34.56000 317.618
34.60000 318.890
34.64000 320.419
34.68000 331.350
34.72000 333.109
34.76000 330.221
34.80000 315.979
34.84000 309.373
34.88000 324.017
34.92000 328.899
34.96000 311.699
35.00000 309.513
35.04000 327.830
35.08000 339.069
35.12000 320.370
35.16000 307.104
35.20000 320.020
35.24000 313.969
35.28000 293.241
35.32000 311.063
35.36000 323.573
35.40000 325.790
35.44000 309.357
35.48000 318.051
35.52000 308.135
35.56000 317.314
35.60000 313.949
35.64000 309.529
35.68000 306.983
35.72000 308.285
35.76000 314.591
35.80000 302.739
35.84000 302.131
35.88000 321.209
35.92000 304.996
35.96000 308.586
36.00000 302.116
36.04000 312.894
36.08000 305.940
36.12000 290.493
36.16000 303.538
36.20000 295.753
36.24000 302.642
36.28000 302.194
36.32000 284.417
36.36000 314.377
36.40000 311.861
36.44000 307.159
36.48000 283.403
36.52000 308.462
36.56000 281.219
36.60000 311.048
36.64000 293.129
36.68000 299.987
36.72000 307.484
36.76000 293.621
36.80000 309.061
36.84000 302.648
36.88000 305.275
36.92000 308.717
36.96000 314.828
37.00000 329.367
37.04000 301.765
37.08000 316.046
37.12000 300.769
37.16000 310.939
37.20000 301.327
37.24000 309.539
37.28000 306.150
37.32000 304.358
37.36000 293.411
37.40000 281.637
37.44000 316.852
37.48000 290.026
37.52000 286.735
37.56000 298.987
37.60000 304.580
37.64000 273.707
37.68000 298.856
37.72000 288.360
37.76000 286.630
37.80000 292.266
37.84000 274.392
37.88000 287.870
37.92000 290.218
37.96000 292.976
38.00000 298.362
38.04000 307.481
38.08000 310.951
38.12000 313.348
38.16000 314.388
38.20000 307.045
38.24000 313.793
38.28000 321.871
38.32000 333.100
38.36000 358.760
38.40000 403.139
38.44000 467.274
38.48000 527.073
38.52000 683.802
38.56000 872.976
38.60000 1092.474
38.64000 1303.682
38.68000 1456.411
38.72000 1556.449
38.76000 1550.211
38.80000 1485.987
38.84000 1265.157
38.88000 1091.049
38.92000 842.187
38.96000 645.180
39.00000 533.291
39.04000 433.085
39.08000 385.685
39.12000 337.845
39.16000 322.901
39.20000 306.879
39.24000 295.574
39.28000 282.405
39.32000 305.196
39.36000 279.270
39.40000 283.056
39.44000 265.561
39.48000 291.502
39.52000 267.202
39.56000 265.294
39.60000 271.983
39.64000 273.825
39.68000 269.202
39.72000 281.101
39.76000 276.323
39.80000 276.052
39.84000 277.849
39.88000 275.222
39.92000 263.734
39.96000 258.543
40.00000 265.957
40.04000 256.791
40.08000 264.878
40.12000 258.531
40.16000 267.922
40.20000 257.273
40.24000 250.385
40.28000 257.226
40.32000 256.155
40.36000 250.372
40.40000 251.035
40.44000 247.071
40.48000 262.042
40.52000 259.934
40.56000 246.428
40.60000 240.056
40.64000 254.794
40.68000 246.172
40.72000 249.041
40.76000 251.517
40.80000 261.930
40.84000 251.831
40.88000 253.037
40.92000 244.855
40.96000 245.706
41.00000 247.536
41.04000 240.741
41.08000 240.145
41.12000 240.984
41.16000 240.484
41.20000 245.932
41.24000 252.392
41.28000 229.884
41.32000 242.580
41.36000 257.118
41.40000 250.048
41.44000 239.774
41.48000 239.434
41.52000 241.384
41.56000 243.798
41.60000 241.658
41.64000 244.658
41.68000 229.571
41.72000 234.142
41.76000 239.930
41.80000 243.343
41.84000 234.498
41.88000 257.284
41.92000 237.129
41.96000 230.499
42.00000 240.583
42.04000 237.854
42.08000 217.966
42.12000 232.886
42.16000 246.775
42.20000 243.512
42.24000 231.295
42.28000 236.702
42.32000 230.328
42.36000 238.246
42.40000 230.621
42.44000 220.384
42.48000 233.948
42.52000 230.937
42.56000 236.325
42.60000 226.002
42.64000 237.476
42.68000 232.082
42.72000 222.955
42.76000 231.673
42.80000 225.740
42.84000 236.305
42.88000 240.625
42.92000 218.215
42.96000 224.275
43.00000 240.817
43.04000 228.717
43.08000 215.683
43.12000 223.329
43.16000 223.661
43.20000 220.497
43.24000 226.096
43.28000 232.797
43.32000 220.749
43.36000 225.773
43.40000 221.516
43.44000 226.186
43.48000 223.405
43.52000 225.754
43.56000 215.371
43.60000 225.987
43.64000 229.945
43.68000 223.007
43.72000 224.829
43.76000 232.625
43.80000 217.516
43.84000 225.959
43.88000 229.500
43.92000 215.343
43.96000 221.069
44.00000 217.678
44.04000 224.178
44.08000 229.554
44.12000 213.802
44.16000 212.361
44.20000 220.366
44.24000 224.679
44.28000 219.783
44.32000 225.452
44.36000 219.029
44.40000 215.033
44.44000 211.796
44.48000 219.297
44.52000 230.874
44.56000 215.775
44.60000 234.628
44.64000 220.866
44.68000 209.390
44.72000 227.795
44.76000 241.392
44.80000 238.803
44.84000 258.590
44.88000 257.757
44.92000 283.517
44.96000 294.459
45.00000 298.558
45.04000 296.847
45.08000 308.051
45.12000 307.318
45.16000 311.116
45.20000 307.617
45.24000 299.712
45.28000 276.707
45.32000 275.188
45.36000 281.149
45.40000 265.002
45.44000 268.642
45.48000 270.654
45.52000 239.482
45.56000 252.796
45.60000 243.017
45.64000 252.212
45.68000 243.964
45.72000 245.724
45.76000 245.802
45.80000 229.042
45.84000 235.348
45.88000 223.313
45.92000 231.208
45.96000 217.308
46.00000 215.200
46.04000 210.967
46.08000 215.038
46.12000 204.223
46.16000 213.397
46.20000 214.533
46.24000 195.445
46.28000 209.125
46.32000 189.061
46.36000 196.342
46.40000 202.160
46.44000 209.550
46.48000 202.845
46.52000 218.141
46.56000 210.407
46.60000 201.020
46.64000 206.724
46.68000 203.775
46.72000 209.241
46.76000 193.464
46.80000 193.200
46.84000 206.583
46.88000 205.900
46.92000 191.283
46.96000 193.971
47.00000 199.683
47.04000 181.871
47.08000 189.201
47.12000 198.615
47.16000 186.470
47.20000 200.027
47.24000 192.720
47.28000 184.264
47.32000 188.750
47.36000 182.580
47.40000 197.361
47.44000 193.071
47.48000 191.868
47.52000 184.088
47.56000 183.650
47.60000 187.841
47.64000 186.507
47.68000 204.146
47.72000 190.766
47.76000 198.943
47.80000 191.708
47.84000 183.388
47.88000 181.942
47.92000 181.848
47.96000 184.675
48.00000 183.138
48.04000 188.059
48.08000 191.082
48.12000 192.255
48.16000 182.536
48.20000 181.490
48.24000 177.161
48.28000 174.215
48.32000 188.013
48.36000 175.392
48.40000 183.651
48.44000 191.322
48.48000 190.558
48.52000 179.518
48.56000 181.173
48.60000 182.153
48.64000 176.610
48.68000 185.169
48.72000 175.741
48.76000 175.904
48.80000 182.477
48.84000 173.494
48.88000 170.278
48.92000 179.834
48.96000 186.763
49.00000 186.116
49.04000 178.548
49.08000 175.396
49.12000 189.024
49.16000 174.798
49.20000 177.911
49.24000 184.849
49.28000 179.457
49.32000 169.999
49.36000 177.580
49.40000 174.032
49.44000 177.379
49.48000 180.164
49.52000 172.253
49.56000 175.739
49.60000 181.508
49.64000 178.135
49.68000 183.813
49.72000 175.080
49.76000 185.808
49.80000 171.333
49.84000 176.990
49.88000 170.152
49.92000 174.710
49.96000 167.728
50.00000 172.932
50.04000 158.581
50.08000 171.104
50.12000 182.460
50.16000 185.587
50.20000 188.162
50.24000 179.617
50.28000 173.946
50.32000 180.621
50.36000 172.017
50.40000 188.078
50.44000 190.074
50.48000 197.093
50.52000 199.700
50.56000 219.264
50.60000 214.791
50.64000 220.706
50.68000 210.677
50.72000 230.563
50.76000 223.327
50.80000 221.096
50.84000 221.532
50.88000 224.943
50.92000 208.410
50.96000 214.823
51.00000 208.264
51.04000 202.736
51.08000 185.150
51.12000 189.032
51.16000 181.328
51.20000 186.853
51.24000 184.764
51.28000 177.665
51.32000 167.342
51.36000 172.550
51.40000 162.669
51.44000 172.682
51.48000 167.986
51.52000 167.869
51.56000 166.711
51.60000 164.486
51.64000 168.118
51.68000 172.521
51.72000 165.771
51.76000 174.919
51.80000 169.635
51.84000 160.016
51.88000 155.632
51.92000 174.652
51.96000 170.365
52.00000 157.170
52.04000 164.753
52.08000 161.308
52.12000 161.127
52.16000 163.823
52.20000 169.748
52.24000 154.439
52.28000 157.875
52.32000 158.527
52.36000 160.188
52.40000 155.402
52.44000 169.683
52.48000 156.699
52.52000 164.543
52.56000 151.732
52.60000 165.686
52.64000 168.517
52.68000 159.151
52.72000 151.131
52.76000 154.721
52.80000 162.490
52.84000 165.425
52.88000 158.937
52.92000 156.025
52.96000 164.981
53.00000 151.720
53.04000 172.726
53.08000 159.671
53.12000 149.191
53.16000 161.603
53.20000 162.928
53.24000 156.418
53.28000 162.592
53.32000 155.707
53.36000 163.473
53.40000 156.669
53.44000 157.177
53.48000 148.776
53.52000 161.229
53.56000 167.080
53.60000 165.973
53.64000 162.800
53.68000 167.311
53.72000 155.111
53.76000 155.865
53.80000 153.095
53.84000 152.527
53.88000 149.911
53.92000 158.256
53.96000 153.584
54.00000 147.474
54.04000 163.126
54.08000 152.707
54.12000 159.041
54.16000 172.373
54.20000 154.352
54.24000 160.751
54.28000 150.335
54.32000 160.793
54.36000 162.157
54.40000 152.969
54.44000 157.687
54.48000 155.589
54.52000 147.180
54.56000 168.743
54.60000 149.491
54.64000 161.815
54.68000 154.754
54.72000 159.926
54.76000 152.564
54.80000 158.281
54.84000 146.898
54.88000 151.796
54.92000 166.866
54.96000 170.552
55.00000 166.655
55.04000 151.046
55.08000 167.773
55.12000 165.664
55.16000 156.362
55.20000 165.992
55.24000 168.188
55.28000 190.721
55.32000 181.691
55.36000 166.328
55.40000 180.234
55.44000 197.163
55.48000 197.200
55.52000 221.170
55.56000 231.347
55.60000 259.258
55.64000 286.034
55.68000 356.539
55.72000 408.556
55.76000 492.509
55.80000 595.009
55.84000 694.712
55.88000 800.779
55.92000 813.741
55.96000 862.112
56.00000 832.809
56.04000 850.137
56.08000 783.103
56.12000 694.463
56.16000 606.698
56.20000 519.693
56.24000 445.155
56.28000 373.105
56.32000 317.908
56.36000 284.206
56.40000 240.172
56.44000 233.755
56.48000 208.533
56.52000 208.216
56.56000 190.026
56.60000 171.621
56.64000 169.186
56.68000 168.255
56.72000 175.261
56.76000 167.832
56.80000 163.627
56.84000 152.544
56.88000 156.954
56.92000 157.448
56.96000 150.650
57.00000 146.196
57.04000 156.581
57.08000 147.944
57.12000 164.222
57.16000 147.582
57.20000 150.778
57.24000 143.177
57.28000 141.645
57.32000 141.013
57.36000 143.774
57.40000 155.810
57.44000 147.904
57.48000 149.135
57.52000 136.827
57.56000 146.106
57.60000 149.899
57.64000 142.490
57.68000 149.785
57.72000 133.698
57.76000 148.641
57.80000 137.738
57.84000 144.251
57.88000 130.540
57.92000 133.219
57.96000 135.938
58.00000 146.225
58.04000 142.052
58.08000 140.984
58.12000 136.208
58.16000 132.228
58.20000 147.390
58.24000 136.933
58.28000 144.241
58.32000 140.529
58.36000 143.219
58.40000 131.443
58.44000 147.122
58.48000 138.864
58.52000 149.529
58.56000 144.580
58.60000 126.122
58.64000 142.273
58.68000 132.682
58.72000 128.982
58.76000 138.861
58.80000 143.033
58.84000 137.054
58.88000 125.917
58.92000 141.298
58.96000 139.254
59.00000 140.082
59.04000 140.569
59.08000 130.937
59.12000 133.854
59.16000 135.128
59.20000 135.763
59.24000 137.106
59.28000 133.537
59.32000 128.748
59.36000 135.917
59.40000 132.746
59.44000 132.423
59.48000 135.218
59.52000 134.297
59.56000 129.095
59.60000 122.884
59.64000 135.526
59.68000 125.507
59.72000 132.074
59.76000 131.894
59.80000 126.163
59.84000 129.123
59.88000 134.124
59.92000 135.638
59.96000 133.369
60.00000 137.107
60.04000 125.282
60.08000 147.039
60.12000 143.844
60.16000 135.213
60.20000 132.640
60.24000 125.631
60.28000 134.238
60.32000 138.162
60.36000 143.317
60.40000 129.072
60.44000 128.002
60.48000 131.546
60.52000 135.059
60.56000 143.277
60.60000 132.465
60.64000 137.379
60.68000 126.947
60.72000 131.898
60.76000 128.115
60.80000 128.847
60.84000 136.941
60.88000 128.837
60.92000 140.684
60.96000 142.385
61.00000 139.243
61.04000 142.187
61.08000 141.293
61.12000 139.204
61.16000 143.829
61.20000 145.393
61.24000 136.835
61.28000 142.567
61.32000 134.869
61.36000 130.980
61.40000 149.117
61.44000 141.885
61.48000 147.657
61.52000 162.106
61.56000 185.994
61.60000 236.652
61.64000 263.636
61.68000 265.550
61.72000 280.230
61.76000 256.900
61.80000 199.432
61.84000 177.948
61.88000 163.097
61.92000 132.345
61.96000 147.313
62.00000 140.286
62.04000 136.774
62.08000 140.174
62.12000 125.647
62.16000 142.455
62.20000 143.024
62.24000 144.843
62.28000 137.077
62.32000 132.095
62.36000 138.103
62.40000 141.159
62.44000 137.631
62.48000 137.438
62.52000 145.699
62.56000 146.119
62.60000 131.784
62.64000 149.379
62.68000 145.613
62.72000 148.586
62.76000 137.711
62.80000 135.164
62.84000 143.351
62.88000 144.206
62.92000 139.772
62.96000 146.498
63.00000 147.911
63.04000 128.058
63.08000 139.748
63.12000 136.250
63.16000 124.848
63.20000 144.460
63.24000 150.088
63.28000 148.702
63.32000 154.011
63.36000 145.899
63.40000 148.794
63.44000 145.986
63.48000 139.171
63.52000 144.592
63.56000 155.805
63.60000 141.459
63.64000 148.789
63.68000 147.698
63.72000 169.047
63.76000 159.255
63.80000 151.385
63.84000 146.435
63.88000 147.909
63.92000 140.862
63.96000 155.277
64.00000 153.561
64.04000 146.164
64.08000 153.698
64.12000 151.069
64.16000 153.293
64.20000 159.082
64.24000 163.077
64.28000 164.765
64.32000 164.390
64.36000 171.961
64.40000 155.240
64.44000 154.739
64.48000 165.416
64.52000 162.216
64.56000 157.540
64.60000 161.888
64.64000 161.516
64.68000 168.354
64.72000 173.401
64.76000 177.126
64.80000 177.634
64.84000 175.068
64.88000 183.839
64.92000 172.143
64.96000 176.077
65.00000 177.602
65.04000 189.823
65.08000 193.364
65.12000 208.854
65.16000 214.133
65.20000 228.065
65.24000 240.764
65.28000 241.419
65.32000 255.197
65.36000 284.193
65.40000 270.437
65.44000 292.271
65.48000 313.270
65.52000 328.653
65.56000 358.495
65.60000 367.224
65.64000 405.994
65.68000 475.701
65.72000 618.836
65.76000 790.766
65.80000 973.718
65.84000 1058.171
65.88000 1117.525
65.92000 1037.020
65.96000 939.831
66.00000 668.924
66.04000 460.077
66.08000 362.279
66.12000 330.233
66.16000 308.594
66.20000 307.997
66.24000 293.480
66.28000 353.309
66.32000 381.241
66.36000 415.661
66.40000 432.103
66.44000 444.979
66.48000 433.793
66.52000 404.819
66.56000 356.252
66.60000 325.701
66.64000 312.310
66.68000 298.060
66.72000 307.362
66.76000 314.844
66.80000 316.951
66.84000 315.691
66.88000 305.618
66.92000 335.922
66.96000 324.146
67.00000 331.100
67.04000 328.733
67.08000 341.789
67.12000 337.769
67.16000 339.410
67.20000 359.694
67.24000 360.409
67.28000 387.153
67.32000 384.120
67.36000 385.255
67.40000 373.868
67.44000 384.955
67.48000 393.266
67.52000 413.531
67.56000 413.732
67.60000 429.928
67.64000 432.688
67.68000 444.487
67.72000 439.391
67.76000 462.808
67.80000 469.046
67.84000 460.857
67.88000 475.322
67.92000 480.217
67.96000 485.229
68.00000 507.662
68.04000 495.161
68.08000 497.007
68.12000 540.222
68.16000 537.169
68.20000 548.044
68.24000 567.290
68.28000 561.681
68.32000 603.735
68.36000 630.334
68.40000 645.965
68.44000 671.584
68.48000 688.208
68.52000 735.259
68.56000 804.110
68.60000 897.860
68.64000 1029.152
68.68000 1208.097
68.72000 1448.672
68.76000 1645.412
68.80000 1860.024
68.84000 2180.131
68.88000 2726.264
68.92000 4147.975
68.96000 11687.186
69.00000 26492.934
69.04000 42834.371
69.08000 51373.223
69.12000 53351.082
69.16000 55343.957
69.20000 55753.633
69.24000 47264.730
69.28000 35745.176
69.32000 29123.135
69.36000 26452.477
69.40000 21824.174
69.44000 14114.750
69.48000 6387.328
69.52000 2875.113
69.56000 1809.605
69.60000 1390.884
69.64000 1159.231
69.68000 1031.249
69.72000 957.919
69.76000 878.995
69.80000 812.134
69.84000 745.183
69.88000 696.996
69.92000 656.335
69.96000 667.496
70.00000 639.095