File: XRD/24-09-2025 Dep 3/XY Data/BTO_Mapping_Theta2Theta_24-09-2025_001_60_27-406_-12-202.xy
20.00000 559.194
20.04000 555.379
20.08000 557.934
20.12000 577.544
20.16000 578.734
20.20000 556.075
20.24000 569.825
20.28000 579.074
20.32000 548.823
20.36000 554.561
20.40000 572.068
20.44000 551.914
20.48000 563.039
20.52000 565.701
20.56000 547.159
20.60000 564.387
20.64000 542.322
20.68000 545.138
20.72000 524.962
20.76000 566.553
20.80000 559.938
20.84000 558.635
20.88000 543.880
20.92000 540.353
20.96000 550.083
21.00000 549.934
21.04000 536.931
21.08000 539.754
21.12000 554.306
21.16000 553.966
21.20000 553.414
21.24000 539.518
21.28000 541.273
21.32000 553.474
21.36000 538.445
21.40000 543.494
21.44000 544.916
21.48000 561.868
21.52000 547.404
21.56000 555.770
21.60000 545.386
21.64000 551.819
21.68000 552.007
21.72000 560.117
21.76000 551.394
21.80000 574.781
21.84000 578.525
21.88000 590.383
21.92000 587.952
21.96000 585.551
22.00000 583.997
22.04000 604.605
22.08000 619.842
22.12000 611.158
22.16000 611.250
22.20000 624.154
22.24000 606.678
22.28000 572.112
22.32000 592.888
22.36000 565.685
22.40000 557.150
22.44000 559.666
22.48000 556.590
22.52000 542.489
22.56000 547.296
22.60000 553.186
22.64000 521.401
22.68000 520.717
22.72000 540.180
22.76000 527.863
22.80000 527.614
22.84000 522.523
22.88000 498.202
22.92000 525.149
22.96000 512.918
23.00000 507.366
23.04000 509.410
23.08000 512.732
23.12000 514.844
23.16000 518.518
23.20000 511.705
23.24000 497.196
23.28000 489.379
23.32000 501.736
23.36000 523.263
23.40000 498.717
23.44000 520.836
23.48000 516.148
23.52000 482.949
23.56000 524.361
23.60000 496.284
23.64000 485.534
23.68000 509.961
23.72000 523.728
23.76000 509.779
23.80000 514.566
23.84000 509.266
23.88000 542.555
23.92000 528.120
23.96000 518.590
24.00000 523.977
24.04000 533.954
24.08000 522.160
24.12000 522.160
24.16000 529.082
24.20000 497.751
24.24000 514.305
24.28000 497.877
24.32000 501.492
24.36000 489.934
24.40000 511.470
24.44000 465.871
24.48000 481.389
24.52000 501.088
24.56000 472.966
24.60000 491.475
24.64000 492.853
24.68000 483.012
24.72000 502.947
24.76000 482.345
24.80000 488.001
24.84000 483.244
24.88000 474.616
24.92000 478.499
24.96000 485.276
25.00000 481.632
25.04000 495.449
25.08000 475.523
25.12000 485.395
25.16000 473.849
25.20000 481.922
25.24000 468.503
25.28000 467.642
25.32000 479.990
25.36000 472.140
25.40000 468.555
25.44000 459.852
25.48000 470.741
25.52000 469.037
25.56000 469.234
25.60000 469.748
25.64000 464.461
25.68000 457.711
25.72000 467.187
25.76000 466.116
25.80000 460.838
25.84000 452.341
25.88000 452.524
25.92000 463.401
25.96000 463.887
26.00000 453.125
26.04000 466.336
26.08000 463.261
26.12000 472.412
26.16000 456.640
26.20000 453.654
26.24000 450.675
26.28000 462.819
26.32000 448.712
26.36000 458.511
26.40000 463.908
26.44000 457.157
26.48000 460.299
26.52000 442.979
26.56000 442.303
26.60000 455.420
26.64000 458.255
26.68000 458.232
26.72000 438.354
26.76000 453.407
26.80000 442.530
26.84000 455.656
26.88000 443.674
26.92000 447.521
26.96000 443.575
27.00000 440.468
27.04000 427.189
27.08000 460.255
27.12000 449.776
27.16000 466.250
27.20000 438.353
27.24000 444.437
27.28000 447.561
27.32000 441.017
27.36000 443.231
27.40000 442.705
27.44000 425.699
27.48000 450.988
27.52000 431.240
27.56000 429.892
27.60000 433.562
27.64000 440.127
27.68000 440.514
27.72000 435.843
27.76000 430.528
27.80000 443.328
27.84000 428.348
27.88000 430.837
27.92000 432.948
27.96000 423.259
28.00000 445.549
28.04000 431.393
28.08000 429.935
28.12000 441.779
28.16000 429.491
28.20000 429.396
28.24000 430.106
28.28000 435.736
28.32000 424.200
28.36000 429.133
28.40000 438.695
28.44000 431.635
28.48000 424.130
28.52000 416.332
28.56000 427.509
28.60000 421.044
28.64000 414.370
28.68000 398.198
28.72000 415.284
28.76000 406.910
28.80000 410.225
28.84000 427.315
28.88000 410.914
28.92000 424.062
28.96000 419.353
29.00000 424.283
29.04000 425.931
29.08000 413.512
29.12000 413.452
29.16000 430.814
29.20000 402.770
29.24000 409.738
29.28000 406.587
29.32000 404.868
29.36000 402.496
29.40000 422.352
29.44000 416.078
29.48000 405.967
29.52000 404.042
29.56000 402.090
29.60000 398.235
29.64000 392.014
29.68000 427.000
29.72000 413.516
29.76000 414.853
29.80000 420.451
29.84000 396.168
29.88000 425.365
29.92000 419.047
29.96000 419.925
30.00000 408.878
30.04000 406.337
30.08000 410.729
30.12000 428.841
30.16000 418.115
30.20000 421.630
30.24000 418.842
30.28000 418.016
30.32000 414.779
30.36000 411.465
30.40000 402.941
30.44000 410.440
30.48000 409.198
30.52000 451.272
30.56000 418.335
30.60000 437.748
30.64000 435.300
30.68000 436.861
30.72000 454.144
30.76000 441.450
30.80000 450.189
30.84000 438.086
30.88000 467.118
30.92000 475.483
30.96000 495.654
31.00000 516.167
31.04000 541.636
31.08000 617.346
31.12000 677.853
31.16000 800.642
31.20000 872.677
31.24000 1018.869
31.28000 1125.931
31.32000 1257.312
31.36000 1336.581
31.40000 1399.664
31.44000 1344.689
31.48000 1252.291
31.52000 1130.683
31.56000 997.504
31.60000 862.225
31.64000 706.544
31.68000 639.480
31.72000 565.771
31.76000 539.189
31.80000 499.591
31.84000 459.642
31.88000 463.311
31.92000 452.539
31.96000 426.986
32.00000 435.199
32.04000 419.567
32.08000 409.467
32.12000 439.567
32.16000 420.451
32.20000 418.102
32.24000 394.784
32.28000 404.884
32.32000 407.965
32.36000 402.149
32.40000 395.776
32.44000 399.340
32.48000 398.216
32.52000 378.224
32.56000 382.169
32.60000 402.691
32.64000 378.086
32.68000 379.396
32.72000 376.207
32.76000 389.568
32.80000 383.600
32.84000 414.192
32.88000 451.620
32.92000 463.514
32.96000 452.134
33.00000 446.275
33.04000 431.458
33.08000 396.308
33.12000 389.672
33.16000 360.222
33.20000 369.921
33.24000 349.831
33.28000 346.226
33.32000 331.541
33.36000 343.209
33.40000 323.186
33.44000 332.011
33.48000 349.402
33.52000 339.006
33.56000 354.108
33.60000 362.443
33.64000 335.175
33.68000 340.979
33.72000 350.720
33.76000 344.830
33.80000 333.627
33.84000 344.152
33.88000 335.365
33.92000 343.906
33.96000 347.108
34.00000 334.668
34.04000 324.145
34.08000 342.302
34.12000 338.928
34.16000 354.568
34.20000 355.719
34.24000 350.212
34.28000 360.652
34.32000 343.137
34.36000 329.525
34.40000 348.710
34.44000 350.168
34.48000 340.050
34.52000 340.183
34.56000 347.350
34.60000 351.576
34.64000 334.937
34.68000 328.702
34.72000 324.686
34.76000 321.300
34.80000 311.497
34.84000 330.500
34.88000 326.586
34.92000 317.416
34.96000 329.066
35.00000 316.622
35.04000 309.386
35.08000 331.139
35.12000 316.138
35.16000 314.534
35.20000 316.086
35.24000 317.208
35.28000 319.890
35.32000 318.753
35.36000 322.089
35.40000 316.291
35.44000 310.621
35.48000 321.097
35.52000 320.973
35.56000 334.245
35.60000 315.315
35.64000 311.082
35.68000 325.470
35.72000 317.722
35.76000 308.265
35.80000 289.611
35.84000 305.924
35.88000 310.442
35.92000 304.642
35.96000 291.227
36.00000 317.512
36.04000 314.423
36.08000 311.726
36.12000 295.113
36.16000 315.970
36.20000 324.834
36.24000 311.408
36.28000 297.440
36.32000 304.907
36.36000 300.761
36.40000 307.609
36.44000 299.200
36.48000 303.540
36.52000 296.432
36.56000 296.656
36.60000 293.603
36.64000 299.015
36.68000 297.098
36.72000 293.913
36.76000 292.354
36.80000 302.066
36.84000 301.077
36.88000 308.485
36.92000 311.711
36.96000 314.766
37.00000 305.212
37.04000 302.594
37.08000 317.187
37.12000 292.865
37.16000 309.782
37.20000 309.248
37.24000 295.192
37.28000 294.744
37.32000 305.851
37.36000 299.887
37.40000 304.549
37.44000 299.105
37.48000 304.066
37.52000 303.066
37.56000 295.923
37.60000 291.184
37.64000 310.549
37.68000 278.286
37.72000 301.752
37.76000 296.391
37.80000 295.050
37.84000 292.844
37.88000 302.337
37.92000 289.451
37.96000 288.698
38.00000 309.033
38.04000 294.770
38.08000 288.679
38.12000 293.668
38.16000 307.087
38.20000 313.437
38.24000 308.766
38.28000 323.783
38.32000 340.321
38.36000 343.198
38.40000 385.171
38.44000 425.721
38.48000 519.182
38.52000 620.050
38.56000 759.550
38.60000 932.658
38.64000 1118.182
38.68000 1248.065
38.72000 1339.442
38.76000 1313.361
38.80000 1274.948
38.84000 1133.541
38.88000 982.077
38.92000 777.138
38.96000 601.941
39.00000 494.188
39.04000 414.677
39.08000 369.717
39.12000 336.007
39.16000 304.931
39.20000 295.525
39.24000 293.850
39.28000 288.427
39.32000 293.436
39.36000 276.832
39.40000 289.358
39.44000 289.939
39.48000 294.827
39.52000 291.888
39.56000 291.054
39.60000 276.477
39.64000 267.964
39.68000 273.257
39.72000 256.301
39.76000 271.293
39.80000 260.742
39.84000 255.702
39.88000 270.925
39.92000 256.644
39.96000 271.969
40.00000 272.762
40.04000 263.389
40.08000 258.309
40.12000 260.312
40.16000 265.740
40.20000 245.573
40.24000 262.155
40.28000 257.841
40.32000 253.568
40.36000 266.922
40.40000 256.605
40.44000 254.022
40.48000 266.126
40.52000 250.428
40.56000 240.817
40.60000 244.674
40.64000 258.835
40.68000 253.889
40.72000 253.832
40.76000 262.001
40.80000 258.301
40.84000 254.411
40.88000 257.448
40.92000 249.541
40.96000 253.321
41.00000 240.493
41.04000 242.435
41.08000 241.544
41.12000 250.315
41.16000 256.855
41.20000 252.221
41.24000 236.213
41.28000 245.435
41.32000 243.905
41.36000 243.727
41.40000 239.971
41.44000 239.466
41.48000 258.154
41.52000 247.082
41.56000 231.577
41.60000 244.782
41.64000 237.657
41.68000 252.009
41.72000 249.285
41.76000 241.811
41.80000 243.884
41.84000 243.179
41.88000 278.146
41.92000 237.740
41.96000 236.754
42.00000 252.692
42.04000 237.281
42.08000 247.269
42.12000 244.933
42.16000 259.497
42.20000 234.930
42.24000 238.774
42.28000 250.422
42.32000 241.114
42.36000 235.579
42.40000 235.020
42.44000 238.852
42.48000 248.275
42.52000 246.330
42.56000 242.679
42.60000 222.514
42.64000 238.488
42.68000 245.070
42.72000 232.472
42.76000 245.932
42.80000 218.598
42.84000 235.066
42.88000 232.773
42.92000 233.528
42.96000 234.362
43.00000 234.932
43.04000 222.004
43.08000 237.501
43.12000 243.745
43.16000 221.044
43.20000 209.785
43.24000 233.509
43.28000 222.490
43.32000 227.825
43.36000 225.901
43.40000 226.416
43.44000 241.469
43.48000 221.281
43.52000 234.913
43.56000 221.317
43.60000 219.854
43.64000 227.984
43.68000 212.881
43.72000 224.297
43.76000 216.752
43.80000 218.596
43.84000 223.900
43.88000 227.550
43.92000 214.161
43.96000 235.663
44.00000 224.737
44.04000 209.708
44.08000 224.471
44.12000 228.692
44.16000 223.956
44.20000 221.197
44.24000 210.591
44.28000 220.917
44.32000 223.706
44.36000 232.585
44.40000 228.928
44.44000 223.994
44.48000 217.410
44.52000 228.094
44.56000 230.752
44.60000 228.045
44.64000 221.477
44.68000 236.258
44.72000 234.704
44.76000 219.945
44.80000 249.371
44.84000 253.733
44.88000 248.018
44.92000 260.500
44.96000 259.805
45.00000 260.271
45.04000 286.578
45.08000 251.738
45.12000 279.310
45.16000 273.176
45.20000 280.137
45.24000 260.633
45.28000 249.426
45.32000 248.371
45.36000 252.246
45.40000 258.252
45.44000 244.414
45.48000 256.621
45.52000 231.169
45.56000 230.951
45.60000 229.124
45.64000 220.295
45.68000 218.782
45.72000 232.735
45.76000 215.196
45.80000 211.169
45.84000 205.008
45.88000 210.715
45.92000 214.624
45.96000 212.182
46.00000 224.000
46.04000 207.065
46.08000 210.480
46.12000 223.539
46.16000 209.547
46.20000 212.949
46.24000 207.199
46.28000 209.958
46.32000 207.109
46.36000 206.094
46.40000 209.147
46.44000 205.190
46.48000 202.017
46.52000 189.006
46.56000 207.733
46.60000 205.039
46.64000 193.131
46.68000 202.753
46.72000 199.281
46.76000 199.206
46.80000 201.661
46.84000 206.520
46.88000 196.926
46.92000 199.794
46.96000 197.719
47.00000 206.329
47.04000 205.166
47.08000 194.696
47.12000 185.562
47.16000 192.911
47.20000 196.750
47.24000 198.914
47.28000 209.710
47.32000 186.962
47.36000 174.864
47.40000 180.857
47.44000 205.284
47.48000 182.432
47.52000 190.089
47.56000 189.661
47.60000 188.906
47.64000 188.034
47.68000 187.226
47.72000 182.307
47.76000 186.724
47.80000 188.366
47.84000 184.431
47.88000 191.431
47.92000 197.907
47.96000 206.702
48.00000 199.003
48.04000 182.228
48.08000 191.896
48.12000 181.391
48.16000 184.280
48.20000 193.586
48.24000 182.796
48.28000 195.146
48.32000 191.815
48.36000 177.505
48.40000 185.810
48.44000 185.524
48.48000 179.115
48.52000 187.118
48.56000 185.070
48.60000 183.494
48.64000 182.845
48.68000 180.085
48.72000 176.389
48.76000 184.601
48.80000 184.175
48.84000 178.244
48.88000 172.379
48.92000 184.528
48.96000 195.237
49.00000 182.870
49.04000 192.870
49.08000 184.064
49.12000 202.094
49.16000 171.245
49.20000 184.017
49.24000 180.766
49.28000 178.473
49.32000 181.087
49.36000 178.242
49.40000 184.217
49.44000 188.300
49.48000 181.905
49.52000 173.988
49.56000 178.327
49.60000 164.335
49.64000 196.613
49.68000 174.274
49.72000 193.672
49.76000 169.507
49.80000 174.771
49.84000 169.507
49.88000 180.088
49.92000 201.882
49.96000 181.808
50.00000 176.963
50.04000 176.323
50.08000 177.422
50.12000 178.766
50.16000 167.389
50.20000 183.252
50.24000 170.333
50.28000 186.652
50.32000 180.660
50.36000 171.440
50.40000 175.742
50.44000 176.863
50.48000 190.435
50.52000 184.014
50.56000 195.848
50.60000 193.593
50.64000 186.620
50.68000 190.601
50.72000 190.319
50.76000 198.069
50.80000 194.652
50.84000 185.868
50.88000 192.336
50.92000 174.566
50.96000 187.671
51.00000 174.804
51.04000 165.130
51.08000 181.882
51.12000 172.218
51.16000 178.389
51.20000 178.933
51.24000 185.576
51.28000 172.875
51.32000 179.243
51.36000 173.595
51.40000 161.640
51.44000 160.682
51.48000 158.052
51.52000 148.306
51.56000 170.867
51.60000 170.056
51.64000 156.907
51.68000 163.392
51.72000 166.717
51.76000 167.357
51.80000 164.363
51.84000 163.886
51.88000 172.646
51.92000 162.193
51.96000 156.652
52.00000 165.264
52.04000 166.287
52.08000 172.649
52.12000 159.016
52.16000 160.506
52.20000 161.668
52.24000 160.993
52.28000 171.510
52.32000 164.110
52.36000 161.821
52.40000 164.923
52.44000 156.412
52.48000 158.907
52.52000 154.282
52.56000 155.214
52.60000 151.418
52.64000 150.788
52.68000 159.537
52.72000 161.243
52.76000 157.412
52.80000 153.869
52.84000 157.634
52.88000 159.287
52.92000 158.998
52.96000 162.991
53.00000 156.172
53.04000 161.114
53.08000 152.878
53.12000 166.186
53.16000 152.744
53.20000 159.055
53.24000 161.748
53.28000 168.453
53.32000 173.968
53.36000 169.147
53.40000 160.695
53.44000 165.436
53.48000 170.334
53.52000 168.188
53.56000 168.157
53.60000 158.431
53.64000 165.386
53.68000 164.948
53.72000 165.953
53.76000 156.033
53.80000 156.842
53.84000 167.568
53.88000 163.421
53.92000 162.247
53.96000 161.753
54.00000 155.938
54.04000 159.995
54.08000 150.986
54.12000 152.604
54.16000 159.510
54.20000 155.904
54.24000 157.157
54.28000 155.299
54.32000 155.092
54.36000 159.311
54.40000 154.287
54.44000 160.188
54.48000 149.564
54.52000 164.728
54.56000 161.330
54.60000 173.617
54.64000 159.959
54.68000 160.909
54.72000 162.164
54.76000 170.003
54.80000 167.075
54.84000 171.863
54.88000 156.584
54.92000 166.638
54.96000 163.254
55.00000 159.762
55.04000 171.488
55.08000 162.567
55.12000 169.494
55.16000 164.713
55.20000 175.339
55.24000 177.952
55.28000 183.187
55.32000 193.531
55.36000 179.449
55.40000 176.076
55.44000 204.084
55.48000 219.886
55.52000 223.004
55.56000 249.741
55.60000 277.140
55.64000 295.484
55.68000 347.470
55.72000 381.539
55.76000 428.844
55.80000 506.288
55.84000 580.877
55.88000 607.644
55.92000 663.650
55.96000 688.208
56.00000 670.601
56.04000 645.184
56.08000 608.316
56.12000 563.199
56.16000 498.195
56.20000 422.102
56.24000 394.785
56.28000 331.297
56.32000 284.773
56.36000 251.380
56.40000 225.798
56.44000 200.676
56.48000 196.677
56.52000 201.564
56.56000 191.005
56.60000 183.028
56.64000 181.751
56.68000 171.851
56.72000 165.070
56.76000 167.497
56.80000 161.835
56.84000 164.956
56.88000 154.158
56.92000 159.340
56.96000 146.376
57.00000 151.271
57.04000 147.581
57.08000 154.949
57.12000 157.506
57.16000 153.762
57.20000 143.138
57.24000 155.529
57.28000 153.250
57.32000 138.025
57.36000 140.187
57.40000 142.825
57.44000 151.060
57.48000 152.004
57.52000 148.417
57.56000 151.378
57.60000 147.278
57.64000 152.103
57.68000 146.915
57.72000 148.499
57.76000 145.309
57.80000 143.833
57.84000 140.729
57.88000 146.234
57.92000 138.641
57.96000 147.299
58.00000 151.056
58.04000 143.748
58.08000 147.914
58.12000 148.556
58.16000 144.440
58.20000 147.950
58.24000 138.986
58.28000 138.448
58.32000 146.377
58.36000 140.565
58.40000 148.692
58.44000 139.781
58.48000 146.338
58.52000 143.231
58.56000 130.542
58.60000 136.345
58.64000 132.689
58.68000 128.997
58.72000 146.815
58.76000 131.239
58.80000 141.280
58.84000 134.525
58.88000 145.250
58.92000 133.923
58.96000 133.722
59.00000 126.885
59.04000 133.997
59.08000 143.292
59.12000 146.635
59.16000 139.635
59.20000 127.616
59.24000 127.404
59.28000 127.125
59.32000 136.397
59.36000 139.587
59.40000 131.276
59.44000 134.825
59.48000 131.830
59.52000 142.001
59.56000 139.989
59.60000 130.072
59.64000 129.803
59.68000 146.455
59.72000 138.359
59.76000 133.291
59.80000 133.520
59.84000 126.856
59.88000 136.674
59.92000 134.752
59.96000 133.482
60.00000 132.056
60.04000 140.328
60.08000 130.242
60.12000 135.799
60.16000 128.281
60.20000 133.995
60.24000 128.098
60.28000 134.953
60.32000 134.712
60.36000 140.461
60.40000 137.639
60.44000 134.822
60.48000 135.358
60.52000 136.743
60.56000 134.056
60.60000 135.437
60.64000 139.709
60.68000 134.593
60.72000 128.866
60.76000 136.092
60.80000 138.183
60.84000 136.702
60.88000 135.866
60.92000 136.400
60.96000 137.489
61.00000 139.494
61.04000 141.446
61.08000 147.388
61.12000 138.164
61.16000 135.774
61.20000 143.670
61.24000 140.009
61.28000 134.657
61.32000 139.571
61.36000 144.057
61.40000 135.070
61.44000 136.712
61.48000 146.652
61.52000 151.913
61.56000 200.184
61.60000 224.719
61.64000 255.928
61.68000 272.874
61.72000 266.550
61.76000 251.868
61.80000 217.655
61.84000 174.698
61.88000 158.646
61.92000 143.647
61.96000 150.657
62.00000 142.030
62.04000 149.284
62.08000 148.833
62.12000 139.173
62.16000 135.173
62.20000 142.471
62.24000 136.317
62.28000 149.709
62.32000 146.328
62.36000 142.393
62.40000 137.693
62.44000 146.107
62.48000 135.950
62.52000 146.760
62.56000 146.507
62.60000 133.921
62.64000 143.235
62.68000 133.578
62.72000 152.178
62.76000 140.057
62.80000 143.508
62.84000 141.544
62.88000 148.812
62.92000 137.456
62.96000 141.469
63.00000 133.335
63.04000 153.848
63.08000 144.709
63.12000 146.898
63.16000 156.355
63.20000 144.427
63.24000 146.304
63.28000 145.763
63.32000 150.163
63.36000 140.085
63.40000 147.213
63.44000 144.887
63.48000 138.504
63.52000 141.139
63.56000 144.954
63.60000 150.419
63.64000 148.998
63.68000 144.809
63.72000 157.588
63.76000 150.109
63.80000 151.782
63.84000 147.265
63.88000 163.837
63.92000 152.705
63.96000 152.626
64.00000 149.616
64.04000 152.949
64.08000 164.077
64.12000 169.192
64.16000 153.639
64.20000 155.330
64.24000 160.784
64.28000 151.204
64.32000 154.024
64.36000 167.180
64.40000 162.545
64.44000 161.238
64.48000 154.553
64.52000 165.677
64.56000 166.683
64.60000 163.024
64.64000 164.486
64.68000 167.409
64.72000 175.838
64.76000 172.976
64.80000 176.371
64.84000 168.178
64.88000 178.893
64.92000 176.510
64.96000 178.206
65.00000 191.714
65.04000 180.485
65.08000 180.331
65.12000 198.153
65.16000 199.042
65.20000 209.673
65.24000 223.166
65.28000 222.238
65.32000 217.119
65.36000 231.604
65.40000 242.665
65.44000 246.447
65.48000 263.095
65.52000 271.325
65.56000 269.768
65.60000 282.449
65.64000 320.519
65.68000 402.448
65.72000 539.011
65.76000 762.920
65.80000 932.989
65.84000 1037.813
65.88000 1080.174
65.92000 1032.762
65.96000 884.433
66.00000 643.246
66.04000 433.265
66.08000 343.034
66.12000 311.386
66.16000 307.721
66.20000 279.235
66.24000 305.702
66.28000 351.417
66.32000 390.355
66.36000 417.396
66.40000 441.579
66.44000 423.084
66.48000 423.123
66.52000 390.935
66.56000 351.967
66.60000 329.517
66.64000 301.678
66.68000 328.722
66.72000 316.443
66.76000 315.010
66.80000 323.346
66.84000 325.188
66.88000 316.074
66.92000 323.278
66.96000 319.879
67.00000 339.234
67.04000 350.823
67.08000 350.506
67.12000 360.799
67.16000 369.882
67.20000 366.863
67.24000 369.425
67.28000 367.455
67.32000 387.606
67.36000 375.739
67.40000 400.453
67.44000 397.804
67.48000 398.559
67.52000 406.796
67.56000 431.007
67.60000 433.535
67.64000 444.736
67.68000 441.811
67.72000 446.451
67.76000 457.378
67.80000 472.044
67.84000 465.459
67.88000 488.440
67.92000 499.610
67.96000 514.369
68.00000 507.545
68.04000 531.275
68.08000 559.531
68.12000 555.850
68.16000 559.945
68.20000 581.909
68.24000 608.623
68.28000 612.483
68.32000 620.993
68.36000 655.777
68.40000 665.337
68.44000 718.363
68.48000 723.779
68.52000 750.975
68.56000 811.623
68.60000 937.875
68.64000 1067.194
68.68000 1259.866
68.72000 1440.949
68.76000 1615.539
68.80000 1854.903
68.84000 2093.240
68.88000 2670.267
68.92000 4042.565
68.96000 11515.759
69.00000 27016.500
69.04000 43874.941
69.08000 52105.461
69.12000 53829.195
69.16000 56290.281
69.20000 56575.293
69.24000 47861.262
69.28000 35840.762
69.32000 29078.598
69.36000 26532.457
69.40000 21963.473
69.44000 14198.942
69.48000 6127.637
69.52000 2791.704
69.56000 1727.302
69.60000 1411.031
69.64000 1207.331
69.68000 1040.527
69.72000 943.371
69.76000 868.286
69.80000 825.225
69.84000 778.019
69.88000 719.799
69.92000 690.090
69.96000 654.100
70.00000 668.444