File: XRD/24-09-2025 Dep 3/XY Data/BTO_Mapping_Theta2Theta_24-09-2025_001_29_-32-361_23-511.xy
20.00000 570.227
20.04000 560.776
20.08000 559.402
20.12000 574.396
20.16000 559.678
20.20000 581.477
20.24000 571.816
20.28000 551.003
20.32000 579.800
20.36000 570.853
20.40000 545.891
20.44000 556.013
20.48000 563.152
20.52000 565.090
20.56000 561.389
20.60000 557.316
20.64000 561.717
20.68000 576.711
20.72000 556.635
20.76000 536.910
20.80000 562.412
20.84000 573.069
20.88000 549.441
20.92000 534.124
20.96000 558.821
21.00000 567.889
21.04000 546.615
21.08000 545.350
21.12000 554.364
21.16000 556.094
21.20000 563.627
21.24000 540.475
21.28000 549.023
21.32000 551.846
21.36000 560.239
21.40000 544.003
21.44000 550.521
21.48000 560.436
21.52000 557.729
21.56000 560.627
21.60000 574.415
21.64000 567.873
21.68000 584.178
21.72000 602.569
21.76000 637.621
21.80000 695.351
21.84000 764.858
21.88000 811.656
21.92000 897.640
21.96000 963.448
22.00000 995.839
22.04000 1008.132
22.08000 937.859
22.12000 889.396
22.16000 791.352
22.20000 732.745
22.24000 684.479
22.28000 619.163
22.32000 612.259
22.36000 583.148
22.40000 573.954
22.44000 565.725
22.48000 554.234
22.52000 556.487
22.56000 540.225
22.60000 567.678
22.64000 544.867
22.68000 519.129
22.72000 523.516
22.76000 515.344
22.80000 500.529
22.84000 528.789
22.88000 512.000
22.92000 539.709
22.96000 522.246
23.00000 504.996
23.04000 514.572
23.08000 524.847
23.12000 531.339
23.16000 525.030
23.20000 510.891
23.24000 495.411
23.28000 504.061
23.32000 509.118
23.36000 504.396
23.40000 512.014
23.44000 488.129
23.48000 519.012
23.52000 519.239
23.56000 502.578
23.60000 525.236
23.64000 511.617
23.68000 495.649
23.72000 497.475
23.76000 496.287
23.80000 502.818
23.84000 498.874
23.88000 497.034
23.92000 494.729
23.96000 508.751
24.00000 520.942
24.04000 517.141
24.08000 493.716
24.12000 505.170
24.16000 473.738
24.20000 501.443
24.24000 490.777
24.28000 475.864
24.32000 480.521
24.36000 494.898
24.40000 476.632
24.44000 484.189
24.48000 484.060
24.52000 493.183
24.56000 472.107
24.60000 475.209
24.64000 512.386
24.68000 466.848
24.72000 491.456
24.76000 481.911
24.80000 481.059
24.84000 494.722
24.88000 488.487
24.92000 488.323
24.96000 482.368
25.00000 473.581
25.04000 471.561
25.08000 474.101
25.12000 482.313
25.16000 494.029
25.20000 476.069
25.24000 459.198
25.28000 463.396
25.32000 492.684
25.36000 473.557
25.40000 471.802
25.44000 470.257
25.48000 472.049
25.52000 465.182
25.56000 467.239
25.60000 458.110
25.64000 467.350
25.68000 467.445
25.72000 477.768
25.76000 475.302
25.80000 466.073
25.84000 478.602
25.88000 468.687
25.92000 475.481
25.96000 475.358
26.00000 482.611
26.04000 463.899
26.08000 484.167
26.12000 462.933
26.16000 458.096
26.20000 481.528
26.24000 448.328
26.28000 492.715
26.32000 461.471
26.36000 459.605
26.40000 460.138
26.44000 435.950
26.48000 455.610
26.52000 470.067
26.56000 465.058
26.60000 455.831
26.64000 440.734
26.68000 441.842
26.72000 451.504
26.76000 471.042
26.80000 449.596
26.84000 448.271
26.88000 470.064
26.92000 478.258
26.96000 457.114
27.00000 431.315
27.04000 469.691
27.08000 442.798
27.12000 447.982
27.16000 464.163
27.20000 434.871
27.24000 451.603
27.28000 441.127
27.32000 441.045
27.36000 446.323
27.40000 442.928
27.44000 443.070
27.48000 439.077
27.52000 456.880
27.56000 449.438
27.60000 448.727
27.64000 432.890
27.68000 434.075
27.72000 445.307
27.76000 453.157
27.80000 427.250
27.84000 433.001
27.88000 449.698
27.92000 434.416
27.96000 448.001
28.00000 439.322
28.04000 415.676
28.08000 449.172
28.12000 437.532
28.16000 440.132
28.20000 451.549
28.24000 443.729
28.28000 444.291
28.32000 454.301
28.36000 429.191
28.40000 436.253
28.44000 454.365
28.48000 437.444
28.52000 443.594
28.56000 403.152
28.60000 426.420
28.64000 425.792
28.68000 445.355
28.72000 421.534
28.76000 432.593
28.80000 424.109
28.84000 427.064
28.88000 406.611
28.92000 430.900
28.96000 433.216
29.00000 419.437
29.04000 415.796
29.08000 425.426
29.12000 426.549
29.16000 426.636
29.20000 422.008
29.24000 428.679
29.28000 414.470
29.32000 412.164
29.36000 418.710
29.40000 417.570
29.44000 418.544
29.48000 425.903
29.52000 419.105
29.56000 416.949
29.60000 421.759
29.64000 413.849
29.68000 420.672
29.72000 436.638
29.76000 407.905
29.80000 436.673
29.84000 459.921
29.88000 480.446
29.92000 475.572
29.96000 475.824
30.00000 444.295
30.04000 466.554
30.08000 462.470
30.12000 459.185
30.16000 459.702
30.20000 459.076
30.24000 457.642
30.28000 442.374
30.32000 450.176
30.36000 445.999
30.40000 446.196
30.44000 439.896
30.48000 433.920
30.52000 446.975
30.56000 461.680
30.60000 464.893
30.64000 458.452
30.68000 467.984
30.72000 469.301
30.76000 463.079
30.80000 491.590
30.84000 496.696
30.88000 537.487
30.92000 573.997
30.96000 610.689
31.00000 685.299
31.04000 824.210
31.08000 1059.570
31.12000 1405.918
31.16000 1854.484
31.20000 2478.038
31.24000 3192.545
31.28000 3786.680
31.32000 4184.388
31.36000 4486.923
31.40000 4266.774
31.44000 3915.927
31.48000 3290.600
31.52000 2583.775
31.56000 1965.934
31.60000 1502.280
31.64000 1085.241
31.68000 894.889
31.72000 738.445
31.76000 631.787
31.80000 573.069
31.84000 516.596
31.88000 474.976
31.92000 472.690
31.96000 455.965
32.00000 449.229
32.04000 423.133
32.08000 456.858
32.12000 431.806
32.16000 408.300
32.20000 392.334
32.24000 417.248
32.28000 406.912
32.32000 411.388
32.36000 406.320
32.40000 399.595
32.44000 403.604
32.48000 374.334
32.52000 399.481
32.56000 399.515
32.60000 365.079
32.64000 401.558
32.68000 395.543
32.72000 399.571
32.76000 409.933
32.80000 431.773
32.84000 537.821
32.88000 617.193
32.92000 661.290
32.96000 665.567
33.00000 642.265
33.04000 617.285
33.08000 519.782
33.12000 464.432
33.16000 398.644
33.20000 378.959
33.24000 384.999
33.28000 366.220
33.32000 365.098
33.36000 348.942
33.40000 353.366
33.44000 341.442
33.48000 362.108
33.52000 347.288
33.56000 352.118
33.60000 340.198
33.64000 364.165
33.68000 351.420
33.72000 334.035
33.76000 362.312
33.80000 354.785
33.84000 336.127
33.88000 348.351
33.92000 339.847
33.96000 336.111
34.00000 333.621
34.04000 334.879
34.08000 342.122
34.12000 351.520
34.16000 341.809
34.20000 341.995
34.24000 342.954
34.28000 330.649
34.32000 338.655
34.36000 339.763
34.40000 319.994
34.44000 340.515
34.48000 339.459
34.52000 324.695
34.56000 319.379
34.60000 323.075
34.64000 338.227
34.68000 340.672
34.72000 323.223
34.76000 328.604
34.80000 326.597
34.84000 328.660
34.88000 327.911
34.92000 322.062
34.96000 327.603
35.00000 336.125
35.04000 329.446
35.08000 312.120
35.12000 317.275
35.16000 334.968
35.20000 319.421
35.24000 315.018
35.28000 321.802
35.32000 302.094
35.36000 304.883
35.40000 319.551
35.44000 319.684
35.48000 314.884
35.52000 321.275
35.56000 317.223
35.60000 288.877
35.64000 319.000
35.68000 308.642
35.72000 311.340
35.76000 320.307
35.80000 308.530
35.84000 304.076
35.88000 308.971
35.92000 298.465
35.96000 313.061
36.00000 307.517
36.04000 304.921
36.08000 299.701
36.12000 305.208
36.16000 322.231
36.20000 299.510
36.24000 302.497
36.28000 289.052
36.32000 317.678
36.36000 300.432
36.40000 309.407
36.44000 319.813
36.48000 308.501
36.52000 312.028
36.56000 314.137
36.60000 297.340
36.64000 299.461
36.68000 299.800
36.72000 312.850
36.76000 303.987
36.80000 310.952
36.84000 307.826
36.88000 317.420
36.92000 300.235
36.96000 305.455
37.00000 313.559
37.04000 313.829
37.08000 300.047
37.12000 316.884
37.16000 287.074
37.20000 294.649
37.24000 304.390
37.28000 289.848
37.32000 300.679
37.36000 290.726
37.40000 286.435
37.44000 306.865
37.48000 290.806
37.52000 306.010
37.56000 289.382
37.60000 293.722
37.64000 288.087
37.68000 293.882
37.72000 296.969
37.76000 295.543
37.80000 281.341
37.84000 280.981
37.88000 295.878
37.92000 290.277
37.96000 293.033
38.00000 301.938
38.04000 283.779
38.08000 299.272
38.12000 313.198
38.16000 312.774
38.20000 316.253
38.24000 336.602
38.28000 340.715
38.32000 358.603
38.36000 362.358
38.40000 409.688
38.44000 464.986
38.48000 542.726
38.52000 619.230
38.56000 682.110
38.60000 770.577
38.64000 859.435
38.68000 863.708
38.72000 859.372
38.76000 757.649
38.80000 718.866
38.84000 599.148
38.88000 498.389
38.92000 434.952
38.96000 391.840
39.00000 360.773
39.04000 345.535
39.08000 298.684
39.12000 299.850
39.16000 276.363
39.20000 288.261
39.24000 287.651
39.28000 281.960
39.32000 269.848
39.36000 276.126
39.40000 293.928
39.44000 270.181
39.48000 281.068
39.52000 276.605
39.56000 264.390
39.60000 264.972
39.64000 273.372
39.68000 269.756
39.72000 272.934
39.76000 280.300
39.80000 274.522
39.84000 266.540
39.88000 255.439
39.92000 259.489
39.96000 266.365
40.00000 267.638
40.04000 279.587
40.08000 262.595
40.12000 270.781
40.16000 247.939
40.20000 249.186
40.24000 269.567
40.28000 252.461
40.32000 254.393
40.36000 258.348
40.40000 259.826
40.44000 265.506
40.48000 265.990
40.52000 280.075
40.56000 259.853
40.60000 246.078
40.64000 253.777
40.68000 248.293
40.72000 262.213
40.76000 261.782
40.80000 254.244
40.84000 259.546
40.88000 251.486
40.92000 261.403
40.96000 243.984
41.00000 245.065
41.04000 245.541
41.08000 239.142
41.12000 238.346
41.16000 243.418
41.20000 249.191
41.24000 234.725
41.28000 243.027
41.32000 239.686
41.36000 255.945
41.40000 244.576
41.44000 253.099
41.48000 241.148
41.52000 243.294
41.56000 244.516
41.60000 245.608
41.64000 241.575
41.68000 253.152
41.72000 250.240
41.76000 245.539
41.80000 240.192
41.84000 251.099
41.88000 236.980
41.92000 233.686
41.96000 240.474
42.00000 236.655
42.04000 231.197
42.08000 244.048
42.12000 238.958
42.16000 224.746
42.20000 229.786
42.24000 227.632
42.28000 247.520
42.32000 246.599
42.36000 245.688
42.40000 232.347
42.44000 234.977
42.48000 240.243
42.52000 233.646
42.56000 240.858
42.60000 231.632
42.64000 234.152
42.68000 239.042
42.72000 238.032
42.76000 232.694
42.80000 235.494
42.84000 235.747
42.88000 228.199
42.92000 237.723
42.96000 233.713
43.00000 242.784
43.04000 239.873
43.08000 231.442
43.12000 218.033
43.16000 228.757
43.20000 226.493
43.24000 218.443
43.28000 218.581
43.32000 228.577
43.36000 222.664
43.40000 229.471
43.44000 232.948
43.48000 225.198
43.52000 229.035
43.56000 225.007
43.60000 225.667
43.64000 224.999
43.68000 232.520
43.72000 228.233
43.76000 224.843
43.80000 208.705
43.84000 229.656
43.88000 225.831
43.92000 214.061
43.96000 229.742
44.00000 217.747
44.04000 223.338
44.08000 229.943
44.12000 226.200
44.16000 227.132
44.20000 228.637
44.24000 224.377
44.28000 234.895
44.32000 229.987
44.36000 232.479
44.40000 238.250
44.44000 242.360
44.48000 251.370
44.52000 247.529
44.56000 259.120
44.60000 274.462
44.64000 316.127
44.68000 344.418
44.72000 352.714
44.76000 380.154
44.80000 476.936
44.84000 540.529
44.88000 572.492
44.92000 607.690
44.96000 643.691
45.00000 630.832
45.04000 624.282
45.08000 568.417
45.12000 508.251
45.16000 463.963
45.20000 417.776
45.24000 365.522
45.28000 343.328
45.32000 321.983
45.36000 304.592
45.40000 285.517
45.44000 277.461
45.48000 271.250
45.52000 269.301
45.56000 261.237
45.60000 243.339
45.64000 245.887
45.68000 249.743
45.72000 233.328
45.76000 222.396
45.80000 222.707
45.84000 228.410
45.88000 232.044
45.92000 211.045
45.96000 218.493
46.00000 202.517
46.04000 222.306
46.08000 213.157
46.12000 202.055
46.16000 209.330
46.20000 206.061
46.24000 214.884
46.28000 209.970
46.32000 201.991
46.36000 218.210
46.40000 203.182
46.44000 212.753
46.48000 207.068
46.52000 209.961
46.56000 197.863
46.60000 213.066
46.64000 206.478
46.68000 203.211
46.72000 209.076
46.76000 203.911
46.80000 205.066
46.84000 196.923
46.88000 193.900
46.92000 198.785
46.96000 188.215
47.00000 190.359
47.04000 208.175
47.08000 192.687
47.12000 213.793
47.16000 186.510
47.20000 199.962
47.24000 185.443
47.28000 186.707
47.32000 182.973
47.36000 202.376
47.40000 192.996
47.44000 195.182
47.48000 189.691
47.52000 178.955
47.56000 199.693
47.60000 185.504
47.64000 173.289
47.68000 189.728
47.72000 197.804
47.76000 177.004
47.80000 196.163
47.84000 193.201
47.88000 177.756
47.92000 193.538
47.96000 186.936
48.00000 185.232
48.04000 183.811
48.08000 201.699
48.12000 194.400
48.16000 187.036
48.20000 187.002
48.24000 183.904
48.28000 185.790
48.32000 181.947
48.36000 187.427
48.40000 177.761
48.44000 185.920
48.48000 183.551
48.52000 194.871
48.56000 195.021
48.60000 177.426
48.64000 187.359
48.68000 185.981
48.72000 187.983
48.76000 196.401
48.80000 187.018
48.84000 184.737
48.88000 182.466
48.92000 187.948
48.96000 184.738
49.00000 181.111
49.04000 183.076
49.08000 189.930
49.12000 194.771
49.16000 179.005
49.20000 169.157
49.24000 183.589
49.28000 183.870
49.32000 172.487
49.36000 176.165
49.40000 183.007
49.44000 178.766
49.48000 176.866
49.52000 170.926
49.56000 174.195
49.60000 181.199
49.64000 192.932
49.68000 181.685
49.72000 171.359
49.76000 176.278
49.80000 172.758
49.84000 175.411
49.88000 184.373
49.92000 180.793
49.96000 197.731
50.00000 176.509
50.04000 182.033
50.08000 185.402
50.12000 187.574
50.16000 184.387
50.20000 193.545
50.24000 191.245
50.28000 198.461
50.32000 207.770
50.36000 211.212
50.40000 227.222
50.44000 235.496
50.48000 252.270
50.52000 274.295
50.56000 291.784
50.60000 301.733
50.64000 296.709
50.68000 299.152
50.72000 290.547
50.76000 268.075
50.80000 269.396
50.84000 246.831
50.88000 238.102
50.92000 232.826
50.96000 209.699
51.00000 194.944
51.04000 200.880
51.08000 189.448
51.12000 198.720
51.16000 182.538
51.20000 184.638
51.24000 186.526
51.28000 182.721
51.32000 172.546
51.36000 182.141
51.40000 177.913
51.44000 172.045
51.48000 174.696
51.52000 172.425
51.56000 185.156
51.60000 180.922
51.64000 165.344
51.68000 173.094
51.72000 169.108
51.76000 164.567
51.80000 163.333
51.84000 160.907
51.88000 162.797
51.92000 169.189
51.96000 167.029
52.00000 172.913
52.04000 160.206
52.08000 161.444
52.12000 161.613
52.16000 164.008
52.20000 162.740
52.24000 163.330
52.28000 145.211
52.32000 170.763
52.36000 155.979
52.40000 152.751
52.44000 162.207
52.48000 167.627
52.52000 170.796
52.56000 161.028
52.60000 166.018
52.64000 165.401
52.68000 169.167
52.72000 159.536
52.76000 158.702
52.80000 153.091
52.84000 155.351
52.88000 160.391
52.92000 147.874
52.96000 158.781
53.00000 142.850
53.04000 149.732
53.08000 175.570
53.12000 161.933
53.16000 159.337
53.20000 158.965
53.24000 157.801
53.28000 171.098
53.32000 177.335
53.36000 162.892
53.40000 160.721
53.44000 178.241
53.48000 166.776
53.52000 176.960
53.56000 164.449
53.60000 156.793
53.64000 154.431
53.68000 158.351
53.72000 156.415
53.76000 172.642
53.80000 165.420
53.84000 152.555
53.88000 161.539
53.92000 165.166
53.96000 157.465
54.00000 167.420
54.04000 158.483
54.08000 153.270
54.12000 167.769
54.16000 160.192
54.20000 168.866
54.24000 164.453
54.28000 165.358
54.32000 155.530
54.36000 155.811
54.40000 160.444
54.44000 163.336
54.48000 155.903
54.52000 167.311
54.56000 150.866
54.60000 155.004
54.64000 163.581
54.68000 170.438
54.72000 158.533
54.76000 168.450
54.80000 158.535
54.84000 162.635
54.88000 153.735
54.92000 163.840
54.96000 157.953
55.00000 165.907
55.04000 167.102
55.08000 169.593
55.12000 172.860
55.16000 165.159
55.20000 168.968
55.24000 177.027
55.28000 190.331
55.32000 185.397
55.36000 184.569
55.40000 217.739
55.44000 228.696
55.48000 254.816
55.52000 269.897
55.56000 306.442
55.60000 363.370
55.64000 437.013
55.68000 525.101
55.72000 595.579
55.76000 689.431
55.80000 776.742
55.84000 814.947
55.88000 848.362
55.92000 818.294
55.96000 804.594
56.00000 733.644
56.04000 648.836
56.08000 580.192
56.12000 492.086
56.16000 415.602
56.20000 368.260
56.24000 317.746
56.28000 277.939
56.32000 247.318
56.36000 219.375
56.40000 210.029
56.44000 198.793
56.48000 183.394
56.52000 177.899
56.56000 164.212
56.60000 163.809
56.64000 164.639
56.68000 160.050
56.72000 154.275
56.76000 166.273
56.80000 167.538
56.84000 158.177
56.88000 164.999
56.92000 162.277
56.96000 157.648
57.00000 148.672
57.04000 145.925
57.08000 155.915
57.12000 155.350
57.16000 153.190
57.20000 140.687
57.24000 138.926
57.28000 160.548
57.32000 150.566
57.36000 150.079
57.40000 146.782
57.44000 148.458
57.48000 159.778
57.52000 149.513
57.56000 144.860
57.60000 148.583
57.64000 153.721
57.68000 133.518
57.72000 139.475
57.76000 133.094
57.80000 152.155
57.84000 142.522
57.88000 146.648
57.92000 140.107
57.96000 148.262
58.00000 156.147
58.04000 144.780
58.08000 147.066
58.12000 136.048
58.16000 141.631
58.20000 137.336
58.24000 139.729
58.28000 145.136
58.32000 144.388
58.36000 154.343
58.40000 149.796
58.44000 146.714
58.48000 133.877
58.52000 143.006
58.56000 132.324
58.60000 147.570
58.64000 144.121
58.68000 137.461
58.72000 132.594
58.76000 132.786
58.80000 149.680
58.84000 133.618
58.88000 137.778
58.92000 138.619
58.96000 133.600
59.00000 134.007
59.04000 134.540
59.08000 134.879
59.12000 130.871
59.16000 135.748
59.20000 149.787
59.24000 144.446
59.28000 128.720
59.32000 141.653
59.36000 136.167
59.40000 130.926
59.44000 131.845
59.48000 134.225
59.52000 126.986
59.56000 137.006
59.60000 133.620
59.64000 144.185
59.68000 136.641
59.72000 143.999
59.76000 138.660
59.80000 140.594
59.84000 144.027
59.88000 143.302
59.92000 136.300
59.96000 138.526
60.00000 135.078
60.04000 123.937
60.08000 136.924
60.12000 138.970
60.16000 139.874
60.20000 138.278
60.24000 140.244
60.28000 127.654
60.32000 139.065
60.36000 132.894
60.40000 129.472
60.44000 137.130
60.48000 134.197
60.52000 143.318
60.56000 147.954
60.60000 131.580
60.64000 133.820
60.68000 130.663
60.72000 130.502
60.76000 139.660
60.80000 133.965
60.84000 136.395
60.88000 117.350
60.92000 129.114
60.96000 129.101
61.00000 133.453
61.04000 138.084
61.08000 133.261
61.12000 129.505
61.16000 137.958
61.20000 124.413
61.24000 130.959
61.28000 153.279
61.32000 137.385
61.36000 142.286
61.40000 132.742
61.44000 148.522
61.48000 148.011
61.52000 186.468
61.56000 256.594
61.60000 313.625
61.64000 354.589
61.68000 366.900
61.72000 395.716
61.76000 357.790
61.80000 283.478
61.84000 224.982
61.88000 167.744
61.92000 157.948
61.96000 152.391
62.00000 144.242
62.04000 138.590
62.08000 147.297
62.12000 131.776
62.16000 145.611
62.20000 147.743
62.24000 146.941
62.28000 141.694
62.32000 145.021
62.36000 140.838
62.40000 137.757
62.44000 146.912
62.48000 145.217
62.52000 149.693
62.56000 142.987
62.60000 146.814
62.64000 154.082
62.68000 138.734
62.72000 141.914
62.76000 145.846
62.80000 145.821
62.84000 145.038
62.88000 134.313
62.92000 138.745
62.96000 152.464
63.00000 148.343
63.04000 142.381
63.08000 149.488
63.12000 151.199
63.16000 150.289
63.20000 148.474
63.24000 146.940
63.28000 156.186
63.32000 150.863
63.36000 148.954
63.40000 152.038
63.44000 151.538
63.48000 146.525
63.52000 157.963
63.56000 155.109
63.60000 150.469
63.64000 154.805
63.68000 151.269
63.72000 162.065
63.76000 161.183
63.80000 153.823
63.84000 158.995
63.88000 159.226
63.92000 153.403
63.96000 147.119
64.00000 167.507
64.04000 171.447
64.08000 170.626
64.12000 165.941
64.16000 163.282
64.20000 166.692
64.24000 171.469
64.28000 171.461
64.32000 160.571
64.36000 168.167
64.40000 176.643
64.44000 177.992
64.48000 173.385
64.52000 172.765
64.56000 172.912
64.60000 170.494
64.64000 181.649
64.68000 171.964
64.72000 184.240
64.76000 183.552
64.80000 184.622
64.84000 197.389
64.88000 182.433
64.92000 204.512
64.96000 206.266
65.00000 228.770
65.04000 226.939
65.08000 244.200
65.12000 270.066
65.16000 272.984
65.20000 291.308
65.24000 318.533
65.28000 337.341
65.32000 374.814
65.36000 416.400
65.40000 427.316
65.44000 450.082
65.48000 464.664
65.52000 517.152
65.56000 501.376
65.60000 539.406
65.64000 565.325
65.68000 667.087
65.72000 887.673
65.76000 1228.024
65.80000 1549.783
65.84000 1717.697
65.88000 1761.753
65.92000 1728.922
65.96000 1416.187
66.00000 1018.902
66.04000 680.947
66.08000 499.246
66.12000 416.723
66.16000 373.714
66.20000 386.325
66.24000 397.642
66.28000 441.537
66.32000 522.543
66.36000 590.155
66.40000 620.390
66.44000 606.651
66.48000 603.365
66.52000 554.855
66.56000 461.201
66.60000 396.422
66.64000 363.329
66.68000 350.163
66.72000 364.447
66.76000 352.373
66.80000 366.953
66.84000 378.475
66.88000 390.940
66.92000 378.698
66.96000 385.997
67.00000 404.009
67.04000 406.463
67.08000 404.074
67.12000 416.246
67.16000 445.172
67.20000 450.430
67.24000 446.528
67.28000 458.716
67.32000 470.555
67.36000 483.827
67.40000 470.408
67.44000 476.539
67.48000 495.333
67.52000 502.179
67.56000 507.060
67.60000 500.639
67.64000 515.593
67.68000 512.740
67.72000 534.956
67.76000 539.758
67.80000 571.363
67.84000 593.193
67.88000 575.953
67.92000 606.795
67.96000 613.875
68.00000 637.618
68.04000 636.777
68.08000 639.909
68.12000 660.725
68.16000 676.141
68.20000 700.776
68.24000 721.184
68.28000 752.444
68.32000 771.871
68.36000 779.696
68.40000 811.832
68.44000 881.843
68.48000 930.229
68.52000 1009.833
68.56000 1090.267
68.60000 1233.403
68.64000 1493.835
68.68000 1803.469
68.72000 2142.164
68.76000 2429.858
68.80000 2840.495
68.84000 3386.622
68.88000 4783.746
68.92000 8386.221
68.96000 22247.535
69.00000 46999.750
69.04000 73581.859
69.08000 88257.891
69.12000 93382.383
69.16000 96484.742
69.20000 94976.516
69.24000 80385.047
69.28000 63573.914
69.32000 51727.980
69.36000 45308.855
69.40000 36667.938
69.44000 23905.713
69.48000 11743.991
69.52000 5251.044
69.56000 2859.933
69.60000 2038.093
69.64000 1653.713
69.68000 1435.532
69.72000 1277.985
69.76000 1145.830
69.80000 1076.015
69.84000 979.020
69.88000 941.611
69.92000 884.469
69.96000 859.198
70.00000 796.042