File: XRD/24-09-2025 Dep 3/XY Data/BTO_Mapping_Theta2Theta_24-09-2025_001_54_6-691_-7-431.xy
20.00000 590.397
20.04000 560.717
20.08000 585.864
20.12000 557.058
20.16000 576.033
20.20000 544.003
20.24000 574.885
20.28000 561.916
20.32000 562.215
20.36000 541.763
20.40000 562.446
20.44000 565.437
20.48000 548.999
20.52000 553.966
20.56000 550.818
20.60000 541.883
20.64000 559.086
20.68000 558.373
20.72000 542.292
20.76000 534.779
20.80000 526.687
20.84000 557.915
20.88000 556.765
20.92000 562.745
20.96000 533.688
21.00000 537.118
21.04000 529.569
21.08000 550.762
21.12000 565.375
21.16000 558.402
21.20000 561.822
21.24000 554.216
21.28000 533.925
21.32000 533.560
21.36000 533.306
21.40000 553.999
21.44000 546.097
21.48000 531.542
21.52000 553.096
21.56000 544.751
21.60000 541.907
21.64000 556.600
21.68000 553.946
21.72000 550.671
21.76000 559.873
21.80000 544.187
21.84000 565.055
21.88000 573.847
21.92000 600.067
21.96000 599.895
22.00000 634.929
22.04000 630.469
22.08000 641.562
22.12000 629.458
22.16000 616.725
22.20000 625.778
22.24000 607.566
22.28000 596.273
22.32000 572.777
22.36000 601.587
22.40000 584.799
22.44000 564.817
22.48000 575.951
22.52000 558.400
22.56000 553.409
22.60000 533.212
22.64000 517.268
22.68000 532.644
22.72000 508.598
22.76000 525.499
22.80000 520.475
22.84000 517.073
22.88000 517.620
22.92000 497.390
22.96000 509.512
23.00000 503.879
23.04000 518.103
23.08000 473.910
23.12000 505.282
23.16000 497.861
23.20000 527.809
23.24000 524.730
23.28000 510.800
23.32000 506.350
23.36000 502.739
23.40000 521.778
23.44000 505.315
23.48000 505.005
23.52000 522.665
23.56000 483.356
23.60000 507.616
23.64000 511.648
23.68000 499.286
23.72000 493.548
23.76000 497.657
23.80000 488.323
23.84000 500.083
23.88000 502.306
23.92000 506.002
23.96000 493.590
24.00000 487.389
24.04000 468.633
24.08000 502.113
24.12000 468.310
24.16000 520.497
24.20000 497.596
24.24000 470.729
24.28000 483.407
24.32000 473.364
24.36000 490.154
24.40000 490.171
24.44000 495.534
24.48000 485.345
24.52000 485.380
24.56000 486.561
24.60000 484.464
24.64000 477.909
24.68000 466.925
24.72000 491.553
24.76000 490.031
24.80000 476.353
24.84000 486.958
24.88000 482.159
24.92000 464.562
24.96000 476.209
25.00000 475.646
25.04000 484.106
25.08000 468.722
25.12000 489.261
25.16000 455.673
25.20000 460.890
25.24000 484.848
25.28000 468.398
25.32000 475.785
25.36000 506.756
25.40000 477.653
25.44000 484.039
25.48000 464.590
25.52000 472.232
25.56000 456.640
25.60000 473.341
25.64000 477.831
25.68000 468.765
25.72000 467.990
25.76000 485.258
25.80000 459.251
25.84000 461.918
25.88000 468.311
25.92000 464.144
25.96000 464.814
26.00000 461.236
26.04000 460.301
26.08000 463.577
26.12000 437.061
26.16000 447.055
26.20000 477.513
26.24000 458.468
26.28000 451.012
26.32000 449.104
26.36000 432.107
26.40000 441.801
26.44000 457.898
26.48000 452.901
26.52000 439.101
26.56000 443.311
26.60000 453.211
26.64000 463.694
26.68000 446.554
26.72000 431.863
26.76000 451.949
26.80000 434.375
26.84000 452.083
26.88000 454.698
26.92000 427.431
26.96000 458.089
27.00000 442.230
27.04000 436.652
27.08000 422.565
27.12000 437.860
27.16000 426.596
27.20000 430.623
27.24000 449.198
27.28000 437.544
27.32000 422.708
27.36000 427.785
27.40000 450.987
27.44000 441.377
27.48000 442.116
27.52000 425.909
27.56000 438.473
27.60000 439.644
27.64000 416.149
27.68000 422.113
27.72000 417.235
27.76000 417.328
27.80000 420.979
27.84000 431.462
27.88000 430.514
27.92000 435.713
27.96000 419.444
28.00000 426.968
28.04000 426.349
28.08000 427.343
28.12000 422.472
28.16000 434.434
28.20000 407.341
28.24000 439.645
28.28000 418.646
28.32000 436.599
28.36000 415.154
28.40000 426.734
28.44000 426.958
28.48000 416.901
28.52000 431.178
28.56000 406.293
28.60000 426.361
28.64000 422.390
28.68000 431.419
28.72000 426.572
28.76000 406.167
28.80000 416.049
28.84000 412.788
28.88000 411.888
28.92000 420.866
28.96000 417.812
29.00000 399.372
29.04000 413.093
29.08000 415.484
29.12000 415.638
29.16000 407.101
29.20000 417.637
29.24000 425.664
29.28000 418.793
29.32000 408.503
29.36000 419.996
29.40000 428.958
29.44000 424.066
29.48000 392.924
29.52000 410.714
29.56000 399.468
29.60000 426.409
29.64000 425.175
29.68000 417.011
29.72000 418.033
29.76000 410.315
29.80000 408.995
29.84000 416.825
29.88000 437.726
29.92000 401.767
29.96000 426.991
30.00000 436.855
30.04000 446.856
30.08000 435.152
30.12000 425.968
30.16000 430.018
30.20000 404.710
30.24000 412.569
30.28000 413.095
30.32000 424.728
30.36000 421.601
30.40000 414.019
30.44000 442.519
30.48000 423.501
30.52000 415.907
30.56000 419.185
30.60000 414.267
30.64000 415.832
30.68000 430.889
30.72000 438.824
30.76000 417.633
30.80000 426.437
30.84000 425.839
30.88000 450.216
30.92000 477.897
30.96000 489.364
31.00000 517.435
31.04000 591.477
31.08000 648.823
31.12000 785.769
31.16000 922.863
31.20000 1157.485
31.24000 1455.248
31.28000 1721.287
31.32000 1957.381
31.36000 2171.050
31.40000 2259.984
31.44000 2237.931
31.48000 2069.354
31.52000 1777.827
31.56000 1449.554
31.60000 1209.356
31.64000 975.793
31.68000 809.147
31.72000 683.262
31.76000 609.794
31.80000 523.289
31.84000 498.893
31.88000 467.329
31.92000 438.597
31.96000 456.356
32.00000 433.087
32.04000 411.738
32.08000 417.645
32.12000 405.272
32.16000 391.746
32.20000 408.420
32.24000 396.272
32.28000 388.060
32.32000 395.021
32.36000 392.122
32.40000 383.570
32.44000 389.909
32.48000 381.110
32.52000 373.839
32.56000 387.252
32.60000 376.653
32.64000 369.316
32.68000 384.086
32.72000 374.838
32.76000 370.904
32.80000 379.797
32.84000 404.863
32.88000 415.731
32.92000 441.661
32.96000 444.039
33.00000 438.552
33.04000 436.954
33.08000 389.237
33.12000 363.898
33.16000 363.004
33.20000 355.677
33.24000 347.596
33.28000 350.139
33.32000 357.698
33.36000 348.982
33.40000 344.051
33.44000 324.349
33.48000 344.970
33.52000 349.455
33.56000 337.017
33.60000 324.694
33.64000 333.923
33.68000 343.479
33.72000 343.528
33.76000 331.728
33.80000 347.339
33.84000 325.743
33.88000 342.525
33.92000 321.927
33.96000 336.344
34.00000 342.135
34.04000 327.311
34.08000 330.507
34.12000 310.936
34.16000 346.292
34.20000 345.099
34.24000 306.962
34.28000 322.439
34.32000 337.875
34.36000 324.438
34.40000 323.315
34.44000 333.069
34.48000 324.691
34.52000 296.996
34.56000 313.764
34.60000 322.313
34.64000 310.916
34.68000 327.212
34.72000 330.866
34.76000 321.387
34.80000 318.193
34.84000 317.484
34.88000 320.350
34.92000 310.334
34.96000 314.397
35.00000 310.156
35.04000 325.313
35.08000 318.681
35.12000 327.682
35.16000 318.924
35.20000 318.274
35.24000 306.840
35.28000 296.185
35.32000 303.434
35.36000 309.402
35.40000 322.357
35.44000 311.828
35.48000 315.461
35.52000 301.559
35.56000 303.173
35.60000 312.430
35.64000 307.045
35.68000 315.628
35.72000 308.670
35.76000 304.856
35.80000 313.769
35.84000 306.014
35.88000 310.733
35.92000 322.784
35.96000 312.669
36.00000 303.183
36.04000 306.753
36.08000 300.848
36.12000 291.806
36.16000 307.828
36.20000 295.104
36.24000 293.842
36.28000 301.710
36.32000 296.992
36.36000 302.530
36.40000 300.556
36.44000 299.252
36.48000 307.778
36.52000 299.653
36.56000 307.105
36.60000 301.105
36.64000 295.865
36.68000 299.613
36.72000 283.943
36.76000 283.237
36.80000 298.276
36.84000 305.021
36.88000 296.705
36.92000 302.341
36.96000 311.786
37.00000 311.788
37.04000 318.979
37.08000 316.229
37.12000 304.642
37.16000 320.636
37.20000 304.124
37.24000 299.681
37.28000 298.897
37.32000 300.505
37.36000 296.251
37.40000 305.207
37.44000 293.741
37.48000 301.492
37.52000 297.678
37.56000 302.589
37.60000 304.136
37.64000 298.054
37.68000 307.982
37.72000 291.224
37.76000 287.696
37.80000 304.213
37.84000 296.183
37.88000 300.030
37.92000 300.989
37.96000 300.575
38.00000 303.617
38.04000 302.986
38.08000 299.802
38.12000 304.375
38.16000 333.971
38.20000 307.751
38.24000 326.188
38.28000 318.384
38.32000 336.368
38.36000 361.218
38.40000 411.446
38.44000 455.052
38.48000 557.051
38.52000 700.101
38.56000 882.970
38.60000 1106.410
38.64000 1308.400
38.68000 1519.230
38.72000 1572.905
38.76000 1591.185
38.80000 1491.881
38.84000 1296.211
38.88000 1045.515
38.92000 846.402
38.96000 674.986
39.00000 523.688
39.04000 442.015
39.08000 376.935
39.12000 344.294
39.16000 300.767
39.20000 309.993
39.24000 290.496
39.28000 301.918
39.32000 288.406
39.36000 292.266
39.40000 276.755
39.44000 278.607
39.48000 267.827
39.52000 269.785
39.56000 287.086
39.60000 273.817
39.64000 285.409
39.68000 279.404
39.72000 269.242
39.76000 264.449
39.80000 265.084
39.84000 266.678
39.88000 278.240
39.92000 243.682
39.96000 269.084
40.00000 259.762
40.04000 259.841
40.08000 268.104
40.12000 254.905
40.16000 266.953
40.20000 266.587
40.24000 257.107
40.28000 253.784
40.32000 256.918
40.36000 261.543
40.40000 264.728
40.44000 255.057
40.48000 260.837
40.52000 253.439
40.56000 242.373
40.60000 238.271
40.64000 249.825
40.68000 256.843
40.72000 250.260
40.76000 242.382
40.80000 251.866
40.84000 246.114
40.88000 249.359
40.92000 242.919
40.96000 236.261
41.00000 237.819
41.04000 247.186
41.08000 256.681
41.12000 242.624
41.16000 234.542
41.20000 246.515
41.24000 251.951
41.28000 250.226
41.32000 236.374
41.36000 256.258
41.40000 245.520
41.44000 244.106
41.48000 242.383
41.52000 238.101
41.56000 258.299
41.60000 235.078
41.64000 232.787
41.68000 243.944
41.72000 238.885
41.76000 243.232
41.80000 228.092
41.84000 242.610
41.88000 227.388
41.92000 229.641
41.96000 228.783
42.00000 247.687
42.04000 231.104
42.08000 223.686
42.12000 234.714
42.16000 230.814
42.20000 230.750
42.24000 227.254
42.28000 227.623
42.32000 222.921
42.36000 231.976
42.40000 244.428
42.44000 231.474
42.48000 234.238
42.52000 228.759
42.56000 238.750
42.60000 231.688
42.64000 224.854
42.68000 234.825
42.72000 217.131
42.76000 222.476
42.80000 221.179
42.84000 223.006
42.88000 231.691
42.92000 209.854
42.96000 222.013
43.00000 219.014
43.04000 228.523
43.08000 224.581
43.12000 232.075
43.16000 235.501
43.20000 220.411
43.24000 225.940
43.28000 223.810
43.32000 224.754
43.36000 223.758
43.40000 221.160
43.44000 215.371
43.48000 225.327
43.52000 222.241
43.56000 226.097
43.60000 219.608
43.64000 221.913
43.68000 216.192
43.72000 218.742
43.76000 202.042
43.80000 220.207
43.84000 212.502
43.88000 220.403
43.92000 220.891
43.96000 221.823
44.00000 219.492
44.04000 225.854
44.08000 221.223
44.12000 224.987
44.16000 206.444
44.20000 212.859
44.24000 235.132
44.28000 213.124
44.32000 212.567
44.36000 225.759
44.40000 217.801
44.44000 210.812
44.48000 223.657
44.52000 219.440
44.56000 217.514
44.60000 228.650
44.64000 217.137
44.68000 232.598
44.72000 229.473
44.76000 219.182
44.80000 230.801
44.84000 224.433
44.88000 255.540
44.92000 263.438
44.96000 267.239
45.00000 281.868
45.04000 298.454
45.08000 268.360
45.12000 295.443
45.16000 287.961
45.20000 275.845
45.24000 268.018
45.28000 274.945
45.32000 265.761
45.36000 247.544
45.40000 243.762
45.44000 250.483
45.48000 253.285
45.52000 263.794
45.56000 234.952
45.60000 234.179
45.64000 241.248
45.68000 239.254
45.72000 232.645
45.76000 224.702
45.80000 234.027
45.84000 229.636
45.88000 225.941
45.92000 218.693
45.96000 219.840
46.00000 215.422
46.04000 217.522
46.08000 206.272
46.12000 209.294
46.16000 214.473
46.20000 223.932
46.24000 198.605
46.28000 206.430
46.32000 199.236
46.36000 205.221
46.40000 204.052
46.44000 206.144
46.48000 205.892
46.52000 205.621
46.56000 188.182
46.60000 192.370
46.64000 199.828
46.68000 208.197
46.72000 208.084
46.76000 191.327
46.80000 214.645
46.84000 208.754
46.88000 201.390
46.92000 202.344
46.96000 203.717
47.00000 196.011
47.04000 195.587
47.08000 193.392
47.12000 196.642
47.16000 193.727
47.20000 180.210
47.24000 180.294
47.28000 190.620
47.32000 185.700
47.36000 195.509
47.40000 186.515
47.44000 189.423
47.48000 194.092
47.52000 190.539
47.56000 184.447
47.60000 188.927
47.64000 177.383
47.68000 189.102
47.72000 187.482
47.76000 187.233
47.80000 184.128
47.84000 185.857
47.88000 186.148
47.92000 194.075
47.96000 183.934
48.00000 186.042
48.04000 190.554
48.08000 195.026
48.12000 184.459
48.16000 195.760
48.20000 186.370
48.24000 189.996
48.28000 176.554
48.32000 179.794
48.36000 177.152
48.40000 189.548
48.44000 174.104
48.48000 184.774
48.52000 177.568
48.56000 176.085
48.60000 183.117
48.64000 172.874
48.68000 184.504
48.72000 182.509
48.76000 183.880
48.80000 182.810
48.84000 176.068
48.88000 182.448
48.92000 176.810
48.96000 167.214
49.00000 187.124
49.04000 187.545
49.08000 178.166
49.12000 182.578
49.16000 169.051
49.20000 170.688
49.24000 182.615
49.28000 177.245
49.32000 169.640
49.36000 166.102
49.40000 166.034
49.44000 179.550
49.48000 179.872
49.52000 163.860
49.56000 174.719
49.60000 186.683
49.64000 178.534
49.68000 172.330
49.72000 169.884
49.76000 180.186
49.80000 166.744
49.84000 174.699
49.88000 172.169
49.92000 162.214
49.96000 174.369
50.00000 174.546
50.04000 172.861
50.08000 178.044
50.12000 171.376
50.16000 188.213
50.20000 173.748
50.24000 173.365
50.28000 176.460
50.32000 187.379
50.36000 182.034
50.40000 173.051
50.44000 181.994
50.48000 190.150
50.52000 199.245
50.56000 195.441
50.60000 205.557
50.64000 208.648
50.68000 213.723
50.72000 205.101
50.76000 218.737
50.80000 213.696
50.84000 224.740
50.88000 199.958
50.92000 193.139
50.96000 201.656
51.00000 184.125
51.04000 175.262
51.08000 197.577
51.12000 184.597
51.16000 177.000
51.20000 176.708
51.24000 181.173
51.28000 181.189
51.32000 177.120
51.36000 182.027
51.40000 163.884
51.44000 170.508
51.48000 168.956
51.52000 162.267
51.56000 159.792
51.60000 171.989
51.64000 156.611
51.68000 163.801
51.72000 163.972
51.76000 166.959
51.80000 160.361
51.84000 151.810
51.88000 158.198
51.92000 163.443
51.96000 158.590
52.00000 165.929
52.04000 162.551
52.08000 172.556
52.12000 156.853
52.16000 152.291
52.20000 149.927
52.24000 159.366
52.28000 162.246
52.32000 167.080
52.36000 162.300
52.40000 159.064
52.44000 164.265
52.48000 168.545
52.52000 161.235
52.56000 159.540
52.60000 167.505
52.64000 158.489
52.68000 161.903
52.72000 155.440
52.76000 157.058
52.80000 163.353
52.84000 144.956
52.88000 155.457
52.92000 158.832
52.96000 149.234
53.00000 162.678
53.04000 154.778
53.08000 156.373
53.12000 148.248
53.16000 164.709
53.20000 166.924
53.24000 162.940
53.28000 156.719
53.32000 162.913
53.36000 152.203
53.40000 168.191
53.44000 170.583
53.48000 158.876
53.52000 170.702
53.56000 157.816
53.60000 159.473
53.64000 159.436
53.68000 165.560
53.72000 161.419
53.76000 145.052
53.80000 157.643
53.84000 155.298
53.88000 153.150
53.92000 160.992
53.96000 145.595
54.00000 152.116
54.04000 153.111
54.08000 152.352
54.12000 158.731
54.16000 170.201
54.20000 159.342
54.24000 158.079
54.28000 162.443
54.32000 170.194
54.36000 167.150
54.40000 153.587
54.44000 149.913
54.48000 154.859
54.52000 152.315
54.56000 162.484
54.60000 158.857
54.64000 159.544
54.68000 161.294
54.72000 154.856
54.76000 161.846
54.80000 163.155
54.84000 155.795
54.88000 144.040
54.92000 163.046
54.96000 161.614
55.00000 159.007
55.04000 158.762
55.08000 155.956
55.12000 165.001
55.16000 162.574
55.20000 165.078
55.24000 161.414
55.28000 166.347
55.32000 174.802
55.36000 174.127
55.40000 193.931
55.44000 186.069
55.48000 200.325
55.52000 216.402
55.56000 242.843
55.60000 266.586
55.64000 305.397
55.68000 361.922
55.72000 415.429
55.76000 525.040
55.80000 610.587
55.84000 711.307
55.88000 796.766
55.92000 866.612
55.96000 907.908
56.00000 894.420
56.04000 892.504
56.08000 799.198
56.12000 718.143
56.16000 654.247
56.20000 552.600
56.24000 479.112
56.28000 413.667
56.32000 351.305
56.36000 293.733
56.40000 255.164
56.44000 232.597
56.48000 218.658
56.52000 198.073
56.56000 198.209
56.60000 180.684
56.64000 161.693
56.68000 173.928
56.72000 171.569
56.76000 163.648
56.80000 156.602
56.84000 146.238
56.88000 159.833
56.92000 160.535
56.96000 154.762
57.00000 148.173
57.04000 161.495
57.08000 148.617
57.12000 144.299
57.16000 153.321
57.20000 150.072
57.24000 148.002
57.28000 146.872
57.32000 144.689
57.36000 158.618
57.40000 147.174
57.44000 148.288
57.48000 154.216
57.52000 151.045
57.56000 156.930
57.60000 152.160
57.64000 150.322
57.68000 136.750
57.72000 138.054
57.76000 143.541
57.80000 146.011
57.84000 147.290
57.88000 149.209
57.92000 142.026
57.96000 139.691
58.00000 140.385
58.04000 146.425
58.08000 141.031
58.12000 137.015
58.16000 146.580
58.20000 147.608
58.24000 135.932
58.28000 140.686
58.32000 136.153
58.36000 133.255
58.40000 132.155
58.44000 128.902
58.48000 143.436
58.52000 141.982
58.56000 135.504
58.60000 131.901
58.64000 135.692
58.68000 123.865
58.72000 125.427
58.76000 130.014
58.80000 146.068
58.84000 136.310
58.88000 135.975
58.92000 141.915
58.96000 138.525
59.00000 136.046
59.04000 136.298
59.08000 138.107
59.12000 140.329
59.16000 125.289
59.20000 134.210
59.24000 126.951
59.28000 136.453
59.32000 145.721
59.36000 134.643
59.40000 144.426
59.44000 134.926
59.48000 125.654
59.52000 135.529
59.56000 133.855
59.60000 131.449
59.64000 121.944
59.68000 128.909
59.72000 131.580
59.76000 142.975
59.80000 132.002
59.84000 131.722
59.88000 135.491
59.92000 127.483
59.96000 135.086
60.00000 128.398
60.04000 124.238
60.08000 133.403
60.12000 132.904
60.16000 134.876
60.20000 132.330
60.24000 126.278
60.28000 144.659
60.32000 138.610
60.36000 130.031
60.40000 124.018
60.44000 138.372
60.48000 125.240
60.52000 125.530
60.56000 126.829
60.60000 127.402
60.64000 129.178
60.68000 133.355
60.72000 130.430
60.76000 136.386
60.80000 136.904
60.84000 130.483
60.88000 135.142
60.92000 129.200
60.96000 133.543
61.00000 135.536
61.04000 136.403
61.08000 135.318
61.12000 142.892
61.16000 143.322
61.20000 136.597
61.24000 129.808
61.28000 129.150
61.32000 131.387
61.36000 136.696
61.40000 130.737
61.44000 141.208
61.48000 152.066
61.52000 157.017
61.56000 187.967
61.60000 215.830
61.64000 246.204
61.68000 251.204
61.72000 260.358
61.76000 235.207
61.80000 206.404
61.84000 180.261
61.88000 154.928
61.92000 155.798
61.96000 143.712
62.00000 144.046
62.04000 145.392
62.08000 142.313
62.12000 141.566
62.16000 136.940
62.20000 145.832
62.24000 147.167
62.28000 142.973
62.32000 136.940
62.36000 136.286
62.40000 147.321
62.44000 143.469
62.48000 150.527
62.52000 145.678
62.56000 151.369
62.60000 144.747
62.64000 147.686
62.68000 143.990
62.72000 157.427
62.76000 137.394
62.80000 135.704
62.84000 146.629
62.88000 136.083
62.92000 135.801
62.96000 147.094
63.00000 141.342
63.04000 132.046
63.08000 137.742
63.12000 130.213
63.16000 142.125
63.20000 137.216
63.24000 137.726
63.28000 146.981
63.32000 141.813
63.36000 143.949
63.40000 134.968
63.44000 135.162
63.48000 139.834
63.52000 147.125
63.56000 152.711
63.60000 150.249
63.64000 147.452
63.68000 144.641
63.72000 148.356
63.76000 146.697
63.80000 152.324
63.84000 150.165
63.88000 156.705
63.92000 146.102
63.96000 159.329
64.00000 152.080
64.04000 152.753
64.08000 149.446
64.12000 157.222
64.16000 167.376
64.20000 147.734
64.24000 163.770
64.28000 158.524
64.32000 156.353
64.36000 157.147
64.40000 163.526
64.44000 177.860
64.48000 153.355
64.52000 168.270
64.56000 154.119
64.60000 164.323
64.64000 168.778
64.68000 171.336
64.72000 161.728
64.76000 176.383
64.80000 170.413
64.84000 170.824
64.88000 173.366
64.92000 184.916
64.96000 182.615
65.00000 188.964
65.04000 191.087
65.08000 185.433
65.12000 194.744
65.16000 209.342
65.20000 213.843
65.24000 222.694
65.28000 228.217
65.32000 240.276
65.36000 255.766
65.40000 277.823
65.44000 279.498
65.48000 302.147
65.52000 320.358
65.56000 333.350
65.60000 349.092
65.64000 379.771
65.68000 427.099
65.72000 566.503
65.76000 757.469
65.80000 958.974
65.84000 1059.355
65.88000 1056.372
65.92000 1017.129
65.96000 870.737
66.00000 629.460
66.04000 451.530
66.08000 359.506
66.12000 326.025
66.16000 301.476
66.20000 307.466
66.24000 325.745
66.28000 330.297
66.32000 376.184
66.36000 407.458
66.40000 421.790
66.44000 437.095
66.48000 424.279
66.52000 402.165
66.56000 345.129
66.60000 324.231
66.64000 299.335
66.68000 297.420
66.72000 302.216
66.76000 309.193
66.80000 307.636
66.84000 313.616
66.88000 317.790
66.92000 333.575
66.96000 323.884
67.00000 317.077
67.04000 336.745
67.08000 338.157
67.12000 347.055
67.16000 354.575
67.20000 359.792
67.24000 368.126
67.28000 368.218
67.32000 371.481
67.36000 379.472
67.40000 389.574
67.44000 394.938
67.48000 383.337
67.52000 400.099
67.56000 402.665
67.60000 409.326
67.64000 420.661
67.68000 451.129
67.72000 427.543
67.76000 450.264
67.80000 461.814
67.84000 461.323
67.88000 475.265
67.92000 466.116
67.96000 483.981
68.00000 487.258
68.04000 500.945
68.08000 512.108
68.12000 533.724
68.16000 517.825
68.20000 569.421
68.24000 573.664
68.28000 598.522
68.32000 583.816
68.36000 606.539
68.40000 661.237
68.44000 663.449
68.48000 690.869
68.52000 739.891
68.56000 812.798
68.60000 881.159
68.64000 1013.532
68.68000 1213.330
68.72000 1377.289
68.76000 1587.014
68.80000 1772.796
68.84000 2079.254
68.88000 2624.160
68.92000 4115.591
68.96000 11403.346
69.00000 25832.404
69.04000 41609.641
69.08000 49217.746
69.12000 51172.117
69.16000 53181.910
69.20000 53288.055
69.24000 44982.191
69.28000 33879.688
69.32000 27670.781
69.36000 25144.689
69.40000 20795.852
69.44000 13418.816
69.48000 5892.566
69.52000 2720.024
69.56000 1720.050
69.60000 1337.991
69.64000 1137.455
69.68000 1022.668
69.72000 912.499
69.76000 825.233
69.80000 774.725
69.84000 754.259
69.88000 680.885
69.92000 672.454
69.96000 641.808
70.00000 635.427