File: XRD/24-09-2025 Dep 3/XY Data/BTO_Mapping_Theta2Theta_24-09-2025_001_43_-10-000_-17-321.xy
20.00000 581.157
20.04000 572.079
20.08000 568.468
20.12000 560.551
20.16000 566.417
20.20000 555.018
20.24000 580.613
20.28000 572.106
20.32000 562.711
20.36000 554.038
20.40000 553.876
20.44000 569.636
20.48000 569.189
20.52000 532.230
20.56000 542.403
20.60000 541.473
20.64000 579.669
20.68000 579.968
20.72000 555.435
20.76000 547.721
20.80000 554.776
20.84000 544.738
20.88000 547.609
20.92000 544.935
20.96000 569.288
21.00000 553.324
21.04000 551.975
21.08000 557.896
21.12000 571.287
21.16000 570.768
21.20000 557.133
21.24000 581.121
21.28000 541.415
21.32000 537.875
21.36000 534.517
21.40000 547.426
21.44000 565.180
21.48000 558.220
21.52000 556.716
21.56000 532.717
21.60000 555.449
21.64000 555.376
21.68000 566.429
21.72000 558.908
21.76000 587.619
21.80000 587.191
21.84000 619.932
21.88000 643.079
21.92000 674.188
21.96000 725.385
22.00000 710.404
22.04000 761.030
22.08000 741.629
22.12000 743.788
22.16000 721.342
22.20000 665.379
22.24000 640.332
22.28000 636.438
22.32000 610.841
22.36000 583.959
22.40000 586.734
22.44000 578.511
22.48000 568.056
22.52000 549.305
22.56000 527.715
22.60000 556.190
22.64000 522.017
22.68000 547.486
22.72000 520.083
22.76000 520.804
22.80000 501.075
22.84000 504.579
22.88000 502.781
22.92000 528.942
22.96000 516.061
23.00000 511.375
23.04000 511.693
23.08000 527.389
23.12000 506.714
23.16000 509.790
23.20000 498.090
23.24000 498.417
23.28000 509.830
23.32000 528.870
23.36000 498.636
23.40000 516.029
23.44000 515.294
23.48000 521.052
23.52000 521.517
23.56000 500.102
23.60000 490.928
23.64000 511.211
23.68000 503.302
23.72000 502.488
23.76000 498.571
23.80000 501.048
23.84000 500.600
23.88000 498.859
23.92000 487.490
23.96000 496.953
24.00000 492.973
24.04000 487.626
24.08000 493.091
24.12000 481.310
24.16000 498.150
24.20000 478.176
24.24000 494.781
24.28000 479.902
24.32000 491.257
24.36000 506.714
24.40000 495.071
24.44000 467.150
24.48000 503.028
24.52000 483.401
24.56000 497.121
24.60000 481.646
24.64000 484.087
24.68000 488.459
24.72000 490.322
24.76000 475.048
24.80000 471.786
24.84000 484.575
24.88000 468.863
24.92000 480.077
24.96000 477.978
25.00000 461.317
25.04000 482.548
25.08000 491.307
25.12000 468.743
25.16000 474.515
25.20000 478.184
25.24000 490.971
25.28000 449.431
25.32000 456.221
25.36000 453.612
25.40000 463.423
25.44000 463.688
25.48000 460.749
25.52000 466.304
25.56000 444.132
25.60000 477.692
25.64000 468.185
25.68000 479.176
25.72000 456.745
25.76000 470.289
25.80000 470.954
25.84000 460.131
25.88000 454.773
25.92000 471.021
25.96000 484.713
26.00000 463.383
26.04000 455.797
26.08000 456.890
26.12000 467.143
26.16000 458.143
26.20000 452.413
26.24000 442.984
26.28000 451.343
26.32000 449.788
26.36000 463.642
26.40000 473.054
26.44000 448.053
26.48000 461.884
26.52000 437.834
26.56000 448.540
26.60000 463.183
26.64000 451.757
26.68000 439.396
26.72000 433.913
26.76000 452.230
26.80000 439.331
26.84000 443.482
26.88000 444.472
26.92000 463.422
26.96000 453.548
27.00000 460.781
27.04000 436.628
27.08000 446.040
27.12000 443.831
27.16000 446.563
27.20000 438.419
27.24000 432.970
27.28000 442.642
27.32000 431.735
27.36000 440.076
27.40000 439.738
27.44000 429.501
27.48000 439.516
27.52000 427.445
27.56000 437.087
27.60000 433.349
27.64000 428.633
27.68000 426.285
27.72000 416.280
27.76000 418.770
27.80000 419.376
27.84000 445.976
27.88000 449.135
27.92000 439.766
27.96000 431.030
28.00000 435.016
28.04000 434.321
28.08000 439.227
28.12000 422.669
28.16000 433.440
28.20000 430.236
28.24000 415.303
28.28000 436.443
28.32000 427.964
28.36000 421.667
28.40000 421.626
28.44000 431.043
28.48000 426.970
28.52000 428.636
28.56000 412.794
28.60000 438.095
28.64000 423.961
28.68000 423.801
28.72000 426.868
28.76000 421.389
28.80000 409.972
28.84000 410.404
28.88000 398.832
28.92000 429.969
28.96000 410.545
29.00000 405.964
29.04000 413.994
29.08000 427.404
29.12000 429.271
29.16000 433.603
29.20000 411.137
29.24000 426.147
29.28000 412.106
29.32000 415.923
29.36000 435.964
29.40000 420.339
29.44000 401.021
29.48000 400.341
29.52000 407.009
29.56000 400.504
29.60000 426.651
29.64000 416.455
29.68000 403.513
29.72000 426.977
29.76000 432.473
29.80000 401.941
29.84000 441.341
29.88000 438.666
29.92000 451.457
29.96000 451.209
30.00000 470.931
30.04000 467.371
30.08000 474.786
30.12000 454.071
30.16000 449.288
30.20000 464.726
30.24000 443.630
30.28000 432.608
30.32000 455.368
30.36000 429.179
30.40000 427.578
30.44000 421.239
30.48000 423.314
30.52000 435.620
30.56000 434.327
30.60000 443.827
30.64000 447.334
30.68000 451.499
30.72000 477.189
30.76000 468.104
30.80000 475.416
30.84000 477.072
30.88000 492.863
30.92000 520.994
30.96000 576.959
31.00000 628.926
31.04000 733.235
31.08000 900.669
31.12000 1115.599
31.16000 1440.863
31.20000 1886.085
31.24000 2410.661
31.28000 2974.990
31.32000 3382.221
31.36000 3650.075
31.40000 3655.780
31.44000 3413.836
31.48000 3003.620
31.52000 2534.106
31.56000 1996.067
31.60000 1513.076
31.64000 1166.552
31.68000 905.099
31.72000 766.568
31.76000 657.155
31.80000 559.664
31.84000 529.130
31.88000 471.919
31.92000 450.777
31.96000 456.392
32.00000 449.182
32.04000 424.193
32.08000 410.011
32.12000 434.300
32.16000 451.833
32.20000 414.104
32.24000 411.454
32.28000 394.447
32.32000 400.846
32.36000 387.255
32.40000 400.202
32.44000 385.052
32.48000 387.459
32.52000 403.122
32.56000 379.237
32.60000 387.580
32.64000 388.539
32.68000 360.465
32.72000 367.111
32.76000 369.094
32.80000 402.162
32.84000 440.652
32.88000 502.176
32.92000 523.543
32.96000 516.714
33.00000 503.979
33.04000 470.368
33.08000 429.086
33.12000 383.960
33.16000 355.358
33.20000 347.304
33.24000 369.266
33.28000 346.492
33.32000 349.652
33.36000 345.870
33.40000 345.062
33.44000 346.868
33.48000 346.153
33.52000 338.805
33.56000 325.870
33.60000 338.551
33.64000 338.110
33.68000 347.283
33.72000 334.954
33.76000 335.451
33.80000 341.292
33.84000 353.591
33.88000 339.653
33.92000 327.597
33.96000 331.963
34.00000 343.480
34.04000 332.463
34.08000 327.428
34.12000 330.496
34.16000 334.582
34.20000 317.495
34.24000 321.573
34.28000 328.492
34.32000 317.221
34.36000 321.308
34.40000 323.402
34.44000 332.248
34.48000 321.133
34.52000 320.463
34.56000 293.530
34.60000 324.879
34.64000 312.770
34.68000 321.089
34.72000 325.391
34.76000 310.058
34.80000 315.493
34.84000 333.072
34.88000 317.537
34.92000 315.864
34.96000 313.357
35.00000 328.143
35.04000 331.847
35.08000 315.937
35.12000 320.386
35.16000 322.799
35.20000 315.875
35.24000 322.639
35.28000 335.774
35.32000 315.534
35.36000 316.253
35.40000 332.018
35.44000 303.171
35.48000 323.400
35.52000 305.165
35.56000 307.506
35.60000 321.505
35.64000 312.743
35.68000 305.787
35.72000 300.629
35.76000 305.314
35.80000 300.665
35.84000 309.045
35.88000 320.299
35.92000 318.673
35.96000 317.575
36.00000 306.923
36.04000 308.144
36.08000 300.712
36.12000 309.344
36.16000 311.284
36.20000 299.125
36.24000 310.440
36.28000 321.393
36.32000 267.891
36.36000 289.585
36.40000 288.743
36.44000 305.099
36.48000 316.240
36.52000 289.739
36.56000 294.085
36.60000 296.629
36.64000 286.111
36.68000 288.539
36.72000 307.675
36.76000 305.626
36.80000 293.301
36.84000 292.247
36.88000 302.608
36.92000 304.917
36.96000 319.472
37.00000 318.080
37.04000 302.331
37.08000 319.062
37.12000 304.467
37.16000 304.857
37.20000 295.471
37.24000 289.402
37.28000 303.339
37.32000 307.725
37.36000 309.924
37.40000 309.361
37.44000 279.575
37.48000 292.532
37.52000 309.694
37.56000 300.944
37.60000 290.628
37.64000 288.566
37.68000 296.223
37.72000 283.359
37.76000 302.149
37.80000 290.580
37.84000 284.940
37.88000 301.481
37.92000 306.697
37.96000 296.092
38.00000 296.298
38.04000 299.867
38.08000 311.221
38.12000 312.822
38.16000 301.082
38.20000 316.180
38.24000 337.943
38.28000 338.152
38.32000 359.230
38.36000 410.962
38.40000 462.554
38.44000 542.262
38.48000 653.043
38.52000 805.033
38.56000 997.540
38.60000 1172.008
38.64000 1353.149
38.68000 1425.802
38.72000 1415.845
38.76000 1364.458
38.80000 1196.465
38.84000 1024.210
38.88000 828.639
38.92000 653.914
38.96000 526.623
39.00000 457.982
39.04000 392.676
39.08000 344.758
39.12000 317.734
39.16000 323.067
39.20000 302.672
39.24000 301.094
39.28000 286.794
39.32000 305.470
39.36000 286.033
39.40000 283.256
39.44000 283.777
39.48000 286.324
39.52000 287.120
39.56000 280.278
39.60000 267.198
39.64000 278.817
39.68000 286.005
39.72000 266.046
39.76000 273.891
39.80000 270.309
39.84000 263.211
39.88000 266.971
39.92000 255.694
39.96000 266.054
40.00000 258.924
40.04000 258.851
40.08000 262.576
40.12000 258.881
40.16000 255.528
40.20000 272.893
40.24000 253.933
40.28000 256.540
40.32000 260.450
40.36000 269.795
40.40000 271.121
40.44000 259.966
40.48000 271.731
40.52000 258.843
40.56000 250.014
40.60000 254.971
40.64000 244.266
40.68000 249.410
40.72000 254.210
40.76000 253.583
40.80000 251.198
40.84000 242.356
40.88000 262.218
40.92000 245.063
40.96000 255.179
41.00000 257.712
41.04000 259.017
41.08000 258.008
41.12000 258.202
41.16000 246.816
41.20000 251.634
41.24000 247.228
41.28000 253.174
41.32000 236.695
41.36000 245.441
41.40000 254.750
41.44000 246.083
41.48000 258.977
41.52000 251.045
41.56000 244.197
41.60000 231.397
41.64000 241.554
41.68000 237.275
41.72000 238.173
41.76000 234.515
41.80000 246.385
41.84000 247.915
41.88000 229.075
41.92000 241.990
41.96000 243.920
42.00000 239.938
42.04000 242.435
42.08000 246.964
42.12000 225.612
42.16000 222.703
42.20000 235.116
42.24000 234.934
42.28000 240.430
42.32000 233.784
42.36000 229.974
42.40000 221.166
42.44000 228.678
42.48000 229.349
42.52000 243.112
42.56000 228.559
42.60000 247.689
42.64000 243.594
42.68000 222.429
42.72000 231.507
42.76000 233.960
42.80000 224.827
42.84000 238.038
42.88000 240.869
42.92000 217.245
42.96000 220.953
43.00000 232.097
43.04000 224.445
43.08000 233.281
43.12000 239.835
43.16000 222.468
43.20000 232.736
43.24000 239.297
43.28000 238.188
43.32000 233.394
43.36000 223.907
43.40000 228.318
43.44000 235.756
43.48000 227.242
43.52000 225.522
43.56000 213.939
43.60000 219.893
43.64000 237.393
43.68000 229.150
43.72000 220.727
43.76000 213.679
43.80000 231.730
43.84000 237.702
43.88000 211.802
43.92000 231.653
43.96000 221.783
44.00000 221.909
44.04000 225.475
44.08000 227.743
44.12000 216.622
44.16000 214.558
44.20000 220.010
44.24000 211.440
44.28000 216.761
44.32000 237.540
44.36000 231.932
44.40000 216.836
44.44000 231.772
44.48000 226.642
44.52000 240.563
44.56000 224.375
44.60000 238.344
44.64000 237.738
44.68000 235.024
44.72000 257.372
44.76000 259.943
44.80000 278.338
44.84000 304.440
44.88000 326.818
44.92000 347.232
44.96000 370.882
45.00000 394.380
45.04000 401.091
45.08000 402.519
45.12000 394.145
45.16000 386.222
45.20000 347.847
45.24000 346.035
45.28000 329.705
45.32000 301.779
45.36000 288.644
45.40000 295.531
45.44000 285.452
45.48000 274.776
45.52000 259.688
45.56000 256.786
45.60000 242.354
45.64000 249.677
45.68000 253.663
45.72000 250.696
45.76000 230.110
45.80000 226.287
45.84000 237.646
45.88000 234.270
45.92000 220.982
45.96000 220.896
46.00000 218.847
46.04000 218.310
46.08000 213.009
46.12000 214.866
46.16000 203.924
46.20000 204.448
46.24000 193.411
46.28000 201.012
46.32000 208.452
46.36000 208.377
46.40000 212.303
46.44000 198.797
46.48000 208.119
46.52000 207.669
46.56000 192.692
46.60000 204.393
46.64000 200.620
46.68000 196.177
46.72000 207.287
46.76000 209.334
46.80000 200.430
46.84000 203.796
46.88000 185.861
46.92000 201.091
46.96000 187.814
47.00000 202.396
47.04000 201.849
47.08000 194.031
47.12000 199.545
47.16000 192.906
47.20000 186.041
47.24000 183.790
47.28000 194.702
47.32000 193.642
47.36000 197.958
47.40000 181.377
47.44000 181.413
47.48000 189.462
47.52000 200.150
47.56000 185.300
47.60000 188.055
47.64000 194.234
47.68000 197.433
47.72000 185.607
47.76000 181.593
47.80000 191.223
47.84000 185.545
47.88000 187.392
47.92000 185.729
47.96000 181.460
48.00000 183.373
48.04000 189.401
48.08000 171.969
48.12000 196.731
48.16000 190.675
48.20000 194.419
48.24000 183.025
48.28000 185.325
48.32000 185.527
48.36000 179.570
48.40000 183.742
48.44000 188.744
48.48000 185.030
48.52000 180.766
48.56000 172.840
48.60000 184.422
48.64000 183.029
48.68000 180.657
48.72000 187.258
48.76000 182.580
48.80000 175.092
48.84000 178.735
48.88000 179.479
48.92000 179.104
48.96000 184.130
49.00000 173.309
49.04000 174.278
49.08000 170.513
49.12000 171.537
49.16000 182.272
49.20000 168.685
49.24000 182.726
49.28000 173.766
49.32000 175.513
49.36000 174.355
49.40000 177.385
49.44000 179.490
49.48000 180.979
49.52000 181.166
49.56000 175.120
49.60000 181.293
49.64000 173.320
49.68000 173.878
49.72000 174.731
49.76000 172.698
49.80000 184.235
49.84000 181.721
49.88000 174.939
49.92000 187.745
49.96000 174.549
50.00000 172.265
50.04000 180.760
50.08000 179.802
50.12000 178.177
50.16000 175.667
50.20000 182.391
50.24000 190.415
50.28000 169.734
50.32000 191.781
50.36000 190.775
50.40000 196.701
50.44000 204.688
50.48000 219.958
50.52000 232.195
50.56000 250.967
50.60000 270.651
50.64000 268.479
50.68000 270.286
50.72000 263.968
50.76000 278.663
50.80000 254.721
50.84000 250.807
50.88000 227.996
50.92000 219.845
50.96000 211.452
51.00000 217.151
51.04000 207.675
51.08000 188.177
51.12000 188.206
51.16000 175.389
51.20000 189.907
51.24000 179.121
51.28000 166.474
51.32000 183.305
51.36000 176.891
51.40000 175.452
51.44000 169.348
51.48000 172.595
51.52000 171.549
51.56000 176.056
51.60000 156.829
51.64000 167.321
51.68000 164.981
51.72000 165.797
51.76000 166.045
51.80000 157.930
51.84000 168.803
51.88000 162.981
51.92000 152.549
51.96000 163.896
52.00000 160.495
52.04000 155.380
52.08000 156.801
52.12000 162.166
52.16000 154.360
52.20000 159.485
52.24000 163.762
52.28000 161.864
52.32000 168.499
52.36000 168.533
52.40000 168.272
52.44000 169.890
52.48000 164.651
52.52000 159.502
52.56000 164.649
52.60000 163.022
52.64000 165.265
52.68000 151.074
52.72000 162.085
52.76000 163.537
52.80000 157.401
52.84000 169.400
52.88000 155.998
52.92000 147.752
52.96000 159.395
53.00000 169.394
53.04000 153.528
53.08000 161.719
53.12000 163.833
53.16000 160.194
53.20000 168.252
53.24000 162.989
53.28000 168.421
53.32000 166.149
53.36000 176.217
53.40000 167.617
53.44000 161.260
53.48000 168.542
53.52000 163.213
53.56000 168.429
53.60000 155.488
53.64000 163.674
53.68000 153.017
53.72000 161.192
53.76000 156.679
53.80000 157.916
53.84000 155.435
53.88000 170.248
53.92000 161.563
53.96000 147.875
54.00000 158.851
54.04000 163.101
54.08000 154.775
54.12000 155.757
54.16000 152.938
54.20000 159.789
54.24000 149.390
54.28000 159.537
54.32000 158.853
54.36000 155.453
54.40000 162.409
54.44000 157.022
54.48000 154.499
54.52000 166.505
54.56000 161.885
54.60000 157.496
54.64000 159.131
54.68000 156.172
54.72000 156.915
54.76000 162.297
54.80000 153.834
54.84000 148.312
54.88000 148.123
54.92000 162.029
54.96000 167.029
55.00000 149.698
55.04000 162.823
55.08000 153.817
55.12000 164.962
55.16000 169.071
55.20000 169.315
55.24000 165.486
55.28000 180.106
55.32000 188.518
55.36000 189.462
55.40000 182.364
55.44000 193.258
55.48000 212.082
55.52000 229.823
55.56000 247.420
55.60000 281.979
55.64000 356.760
55.68000 414.970
55.72000 483.428
55.76000 593.479
55.80000 689.209
55.84000 728.675
55.88000 796.828
55.92000 873.588
55.96000 816.541
56.00000 780.145
56.04000 739.000
56.08000 662.116
56.12000 551.753
56.16000 513.868
56.20000 413.609
56.24000 350.803
56.28000 301.998
56.32000 271.519
56.36000 235.686
56.40000 220.076
56.44000 205.705
56.48000 199.980
56.52000 187.933
56.56000 197.087
56.60000 181.869
56.64000 183.323
56.68000 158.669
56.72000 168.340
56.76000 166.518
56.80000 166.376
56.84000 149.035
56.88000 159.191
56.92000 157.167
56.96000 158.253
57.00000 148.159
57.04000 145.135
57.08000 146.549
57.12000 142.217
57.16000 155.656
57.20000 158.301
57.24000 149.943
57.28000 139.481
57.32000 139.841
57.36000 141.717
57.40000 155.789
57.44000 147.019
57.48000 152.116
57.52000 143.173
57.56000 138.500
57.60000 143.557
57.64000 135.956
57.68000 154.596
57.72000 146.652
57.76000 141.348
57.80000 143.787
57.84000 126.772
57.88000 143.945
57.92000 142.922
57.96000 139.604
58.00000 147.572
58.04000 138.246
58.08000 139.308
58.12000 146.338
58.16000 155.473
58.20000 129.126
58.24000 152.651
58.28000 144.829
58.32000 142.855
58.36000 140.601
58.40000 134.213
58.44000 135.905
58.48000 138.403
58.52000 149.376
58.56000 143.936
58.60000 131.320
58.64000 134.153
58.68000 145.780
58.72000 131.725
58.76000 142.603
58.80000 131.344
58.84000 127.589
58.88000 133.874
58.92000 143.436
58.96000 139.842
59.00000 139.667
59.04000 143.801
59.08000 134.838
59.12000 138.998
59.16000 147.477
59.20000 133.310
59.24000 138.022
59.28000 135.107
59.32000 134.639
59.36000 133.864
59.40000 140.711
59.44000 120.667
59.48000 138.742
59.52000 133.863
59.56000 125.461
59.60000 135.161
59.64000 136.398
59.68000 125.853
59.72000 135.530
59.76000 132.530
59.80000 129.890
59.84000 139.044
59.88000 126.846
59.92000 128.016
59.96000 136.210
60.00000 140.633
60.04000 120.876
60.08000 138.647
60.12000 136.243
60.16000 129.481
60.20000 134.177
60.24000 129.695
60.28000 122.414
60.32000 133.686
60.36000 127.666
60.40000 128.018
60.44000 123.873
60.48000 133.823
60.52000 133.810
60.56000 131.361
60.60000 132.406
60.64000 128.862
60.68000 143.964
60.72000 133.440
60.76000 135.939
60.80000 127.354
60.84000 135.096
60.88000 128.607
60.92000 132.782
60.96000 128.718
61.00000 122.345
61.04000 128.326
61.08000 122.382
61.12000 137.279
61.16000 138.935
61.20000 135.801
61.24000 142.490
61.28000 130.943
61.32000 137.281
61.36000 132.935
61.40000 129.965
61.44000 138.066
61.48000 142.327
61.52000 165.024
61.56000 218.531
61.60000 270.159
61.64000 281.313
61.68000 285.478
61.72000 297.459
61.76000 280.144
61.80000 223.589
61.84000 181.088
61.88000 151.066
61.92000 141.031
61.96000 146.134
62.00000 147.258
62.04000 142.890
62.08000 138.282
62.12000 138.780
62.16000 135.625
62.20000 138.460
62.24000 138.370
62.28000 139.944
62.32000 125.405
62.36000 134.072
62.40000 132.140
62.44000 140.471
62.48000 140.028
62.52000 135.647
62.56000 153.035
62.60000 138.191
62.64000 141.772
62.68000 145.770
62.72000 138.827
62.76000 137.450
62.80000 145.649
62.84000 139.161
62.88000 137.608
62.92000 134.794
62.96000 147.993
63.00000 143.120
63.04000 145.714
63.08000 150.735
63.12000 133.088
63.16000 146.887
63.20000 154.651
63.24000 144.225
63.28000 142.606
63.32000 140.504
63.36000 145.777
63.40000 143.050
63.44000 149.378
63.48000 145.333
63.52000 141.701
63.56000 146.840
63.60000 151.799
63.64000 139.723
63.68000 148.660
63.72000 147.918
63.76000 160.917
63.80000 152.470
63.84000 161.735
63.88000 149.016
63.92000 151.544
63.96000 153.947
64.00000 159.578
64.04000 164.375
64.08000 154.705
64.12000 152.473
64.16000 164.200
64.20000 146.675
64.24000 147.172
64.28000 163.617
64.32000 160.955
64.36000 155.531
64.40000 156.479
64.44000 162.962
64.48000 166.811
64.52000 172.033
64.56000 168.759
64.60000 160.320
64.64000 170.453
64.68000 169.590
64.72000 171.732
64.76000 178.504
64.80000 188.561
64.84000 190.316
64.88000 180.492
64.92000 184.841
64.96000 180.191
65.00000 201.752
65.04000 212.033
65.08000 218.100
65.12000 224.439
65.16000 243.288
65.20000 226.365
65.24000 272.233
65.28000 279.926
65.32000 303.973
65.36000 314.192
65.40000 333.708
65.44000 361.879
65.48000 388.974
65.52000 390.303
65.56000 431.540
65.60000 460.254
65.64000 486.556
65.68000 563.979
65.72000 693.302
65.76000 962.035
65.80000 1179.288
65.84000 1238.777
65.88000 1264.022
65.92000 1173.615
65.96000 1010.689
66.00000 710.777
66.04000 506.658
66.08000 388.494
66.12000 338.436
66.16000 306.170
66.20000 313.237
66.24000 331.739
66.28000 376.784
66.32000 415.939
66.36000 454.131
66.40000 456.817
66.44000 495.044
66.48000 456.442
66.52000 415.925
66.56000 382.598
66.60000 350.935
66.64000 319.055
66.68000 320.957
66.72000 316.773
66.76000 330.739
66.80000 332.738
66.84000 332.678
66.88000 334.168
66.92000 342.243
66.96000 322.435
67.00000 324.167
67.04000 367.806
67.08000 355.600
67.12000 371.625
67.16000 359.694
67.20000 377.969
67.24000 374.516
67.28000 394.652
67.32000 397.210
67.36000 394.693
67.40000 403.070
67.44000 423.145
67.48000 397.647
67.52000 426.020
67.56000 422.636
67.60000 437.141
67.64000 445.470
67.68000 440.351
67.72000 462.417
67.76000 454.298
67.80000 497.332
67.84000 498.401
67.88000 505.395
67.92000 510.237
67.96000 516.889
68.00000 522.427
68.04000 546.751
68.08000 547.401
68.12000 561.552
68.16000 579.626
68.20000 580.398
68.24000 604.601
68.28000 613.558
68.32000 646.312
68.36000 677.927
68.40000 690.796
68.44000 740.191
68.48000 723.823
68.52000 794.634
68.56000 854.860
68.60000 987.690
68.64000 1188.530
68.68000 1387.064
68.72000 1620.574
68.76000 1845.256
68.80000 2176.619
68.84000 2532.822
68.88000 3381.647
68.92000 5664.032
68.96000 15224.522
69.00000 32814.117
69.04000 51007.871
69.08000 59655.750
69.12000 61989.125
69.16000 64298.078
69.20000 63185.656
69.24000 52805.703
69.28000 40325.891
69.32000 33191.281
69.36000 29796.123
69.40000 24225.148
69.44000 14994.681
69.48000 6745.695
69.52000 3094.298
69.56000 1919.493
69.60000 1501.595
69.64000 1227.858
69.68000 1101.638
69.72000 957.223
69.76000 903.409
69.80000 839.897
69.84000 788.302
69.88000 767.403
69.92000 726.312
69.96000 721.668
70.00000 671.411