File: XRD/24-09-2025 Dep 3/XY Data/BTO_Mapping_Theta2Theta_24-09-2025_001_24_-15-000_25-981.xy
20.00000 574.315
20.04000 565.405
20.08000 559.736
20.12000 558.984
20.16000 558.556
20.20000 555.705
20.24000 560.242
20.28000 549.530
20.32000 555.937
20.36000 543.773
20.40000 560.151
20.44000 578.124
20.48000 566.758
20.52000 559.539
20.56000 538.413
20.60000 573.762
20.64000 557.274
20.68000 548.532
20.72000 552.104
20.76000 550.303
20.80000 547.966
20.84000 537.232
20.88000 557.366
20.92000 537.628
20.96000 555.331
21.00000 547.700
21.04000 562.023
21.08000 547.758
21.12000 574.427
21.16000 561.388
21.20000 557.714
21.24000 542.130
21.28000 547.710
21.32000 533.438
21.36000 554.297
21.40000 545.374
21.44000 566.352
21.48000 537.656
21.52000 536.914
21.56000 544.106
21.60000 546.722
21.64000 565.171
21.68000 565.388
21.72000 568.760
21.76000 588.298
21.80000 613.007
21.84000 635.532
21.88000 660.616
21.92000 700.468
21.96000 744.487
22.00000 790.252
22.04000 812.185
22.08000 807.138
22.12000 788.188
22.16000 766.221
22.20000 735.295
22.24000 669.395
22.28000 660.660
22.32000 617.821
22.36000 630.557
22.40000 585.614
22.44000 565.345
22.48000 541.677
22.52000 551.850
22.56000 534.106
22.60000 518.961
22.64000 537.710
22.68000 524.638
22.72000 523.888
22.76000 524.305
22.80000 518.429
22.84000 517.087
22.88000 529.625
22.92000 523.853
22.96000 522.681
23.00000 507.841
23.04000 527.552
23.08000 532.857
23.12000 504.861
23.16000 514.842
23.20000 511.341
23.24000 528.067
23.28000 517.667
23.32000 509.423
23.36000 509.202
23.40000 482.497
23.44000 508.656
23.48000 518.689
23.52000 496.932
23.56000 491.600
23.60000 479.830
23.64000 497.639
23.68000 496.524
23.72000 528.899
23.76000 513.017
23.80000 510.302
23.84000 495.855
23.88000 495.730
23.92000 504.601
23.96000 506.510
24.00000 487.673
24.04000 507.793
24.08000 486.253
24.12000 495.916
24.16000 481.308
24.20000 500.069
24.24000 493.755
24.28000 490.971
24.32000 479.613
24.36000 478.413
24.40000 485.018
24.44000 504.421
24.48000 465.831
24.52000 491.004
24.56000 491.741
24.60000 484.731
24.64000 495.109
24.68000 478.577
24.72000 477.761
24.76000 466.210
24.80000 474.541
24.84000 485.084
24.88000 484.362
24.92000 494.260
24.96000 483.811
25.00000 476.777
25.04000 466.727
25.08000 486.020
25.12000 484.149
25.16000 491.008
25.20000 478.601
25.24000 482.810
25.28000 478.469
25.32000 461.559
25.36000 478.829
25.40000 476.498
25.44000 480.471
25.48000 467.453
25.52000 457.668
25.56000 458.393
25.60000 459.366
25.64000 469.280
25.68000 470.892
25.72000 461.352
25.76000 473.916
25.80000 460.682
25.84000 448.960
25.88000 458.233
25.92000 468.079
25.96000 466.237
26.00000 464.589
26.04000 470.449
26.08000 473.616
26.12000 454.832
26.16000 461.746
26.20000 456.061
26.24000 454.322
26.28000 460.716
26.32000 452.329
26.36000 442.435
26.40000 448.654
26.44000 441.257
26.48000 459.976
26.52000 464.877
26.56000 440.946
26.60000 430.902
26.64000 448.276
26.68000 431.900
26.72000 440.847
26.76000 464.278
26.80000 461.065
26.84000 427.364
26.88000 438.467
26.92000 443.997
26.96000 461.373
27.00000 465.229
27.04000 459.302
27.08000 453.197
27.12000 429.339
27.16000 443.630
27.20000 456.076
27.24000 437.672
27.28000 457.994
27.32000 443.769
27.36000 436.291
27.40000 429.741
27.44000 440.019
27.48000 444.249
27.52000 432.195
27.56000 425.672
27.60000 432.152
27.64000 420.369
27.68000 437.924
27.72000 417.095
27.76000 435.998
27.80000 421.424
27.84000 433.716
27.88000 433.928
27.92000 430.320
27.96000 430.913
28.00000 421.108
28.04000 420.723
28.08000 429.193
28.12000 439.365
28.16000 445.326
28.20000 423.066
28.24000 440.670
28.28000 450.520
28.32000 445.767
28.36000 431.228
28.40000 427.228
28.44000 416.847
28.48000 402.282
28.52000 423.810
28.56000 440.056
28.60000 399.992
28.64000 428.523
28.68000 425.770
28.72000 417.846
28.76000 412.028
28.80000 421.057
28.84000 408.358
28.88000 430.529
28.92000 417.620
28.96000 415.186
29.00000 415.831
29.04000 421.476
29.08000 397.374
29.12000 408.237
29.16000 423.640
29.20000 421.001
29.24000 420.587
29.28000 436.687
29.32000 423.208
29.36000 423.013
29.40000 408.319
29.44000 420.248
29.48000 421.776
29.52000 433.299
29.56000 421.995
29.60000 418.905
29.64000 418.803
29.68000 407.854
29.72000 419.282
29.76000 427.007
29.80000 431.435
29.84000 424.050
29.88000 427.921
29.92000 439.443
29.96000 442.652
30.00000 448.385
30.04000 476.001
30.08000 467.358
30.12000 435.115
30.16000 437.737
30.20000 443.839
30.24000 446.116
30.28000 429.397
30.32000 435.366
30.36000 438.411
30.40000 436.711
30.44000 427.703
30.48000 428.364
30.52000 447.315
30.56000 442.411
30.60000 444.054
30.64000 422.052
30.68000 443.312
30.72000 447.987
30.76000 460.871
30.80000 478.533
30.84000 480.645
30.88000 490.787
30.92000 488.085
30.96000 535.130
31.00000 609.865
31.04000 691.325
31.08000 805.020
31.12000 1004.340
31.16000 1305.564
31.20000 1709.966
31.24000 2187.434
31.28000 2706.089
31.32000 3197.968
31.36000 3564.777
31.40000 3602.351
31.44000 3471.258
31.48000 3123.557
31.52000 2622.996
31.56000 2098.661
31.60000 1620.129
31.64000 1220.930
31.68000 944.119
31.72000 791.508
31.76000 676.338
31.80000 596.725
31.84000 535.972
31.88000 493.870
31.92000 489.806
31.96000 477.990
32.00000 445.664
32.04000 442.739
32.08000 441.074
32.12000 414.518
32.16000 399.176
32.20000 390.176
32.24000 400.357
32.28000 405.530
32.32000 406.333
32.36000 393.625
32.40000 381.089
32.44000 393.474
32.48000 391.593
32.52000 398.927
32.56000 370.839
32.60000 391.678
32.64000 378.652
32.68000 372.224
32.72000 384.079
32.76000 369.092
32.80000 412.347
32.84000 480.956
32.88000 534.176
32.92000 546.845
32.96000 550.318
33.00000 550.463
33.04000 528.763
33.08000 460.282
33.12000 408.984
33.16000 368.942
33.20000 355.085
33.24000 372.231
33.28000 354.233
33.32000 357.850
33.36000 344.940
33.40000 340.304
33.44000 337.777
33.48000 340.585
33.52000 321.181
33.56000 356.110
33.60000 339.407
33.64000 362.415
33.68000 348.128
33.72000 332.582
33.76000 334.194
33.80000 330.086
33.84000 347.642
33.88000 337.454
33.92000 353.305
33.96000 339.072
34.00000 342.209
34.04000 332.178
34.08000 332.054
34.12000 326.461
34.16000 334.501
34.20000 337.237
34.24000 327.150
34.28000 333.813
34.32000 327.462
34.36000 314.013
34.40000 328.880
34.44000 336.709
34.48000 324.259
34.52000 323.209
34.56000 331.694
34.60000 321.096
34.64000 320.319
34.68000 340.207
34.72000 318.276
34.76000 305.201
34.80000 337.403
34.84000 322.723
34.88000 326.456
34.92000 329.628
34.96000 317.360
35.00000 333.036
35.04000 318.560
35.08000 316.824
35.12000 318.712
35.16000 341.955
35.20000 320.555
35.24000 316.236
35.28000 311.662
35.32000 308.347
35.36000 328.674
35.40000 309.271
35.44000 322.214
35.48000 310.510
35.52000 324.588
35.56000 313.425
35.60000 295.958
35.64000 307.327
35.68000 316.820
35.72000 306.023
35.76000 299.612
35.80000 311.228
35.84000 307.037
35.88000 305.797
35.92000 294.528
35.96000 300.693
36.00000 306.719
36.04000 306.334
36.08000 324.669
36.12000 283.253
36.16000 292.463
36.20000 295.254
36.24000 298.881
36.28000 299.480
36.32000 297.414
36.36000 301.249
36.40000 301.774
36.44000 310.964
36.48000 291.714
36.52000 278.401
36.56000 292.878
36.60000 294.413
36.64000 303.716
36.68000 294.072
36.72000 297.628
36.76000 307.546
36.80000 295.651
36.84000 315.040
36.88000 316.532
36.92000 303.139
36.96000 310.618
37.00000 318.022
37.04000 311.679
37.08000 310.921
37.12000 302.211
37.16000 306.936
37.20000 312.539
37.24000 298.828
37.28000 289.309
37.32000 289.009
37.36000 299.437
37.40000 285.383
37.44000 305.305
37.48000 297.412
37.52000 293.228
37.56000 302.924
37.60000 292.232
37.64000 281.796
37.68000 301.042
37.72000 302.775
37.76000 286.501
37.80000 304.225
37.84000 285.909
37.88000 293.542
37.92000 301.443
37.96000 302.796
38.00000 307.017
38.04000 303.074
38.08000 303.498
38.12000 324.004
38.16000 299.823
38.20000 315.279
38.24000 315.374
38.28000 333.616
38.32000 332.083
38.36000 386.725
38.40000 418.875
38.44000 485.301
38.48000 582.991
38.52000 713.429
38.56000 869.600
38.60000 1059.560
38.64000 1206.377
38.68000 1308.116
38.72000 1324.422
38.76000 1292.445
38.80000 1164.084
38.84000 971.110
38.88000 786.502
38.92000 641.561
38.96000 519.926
39.00000 455.257
39.04000 362.749
39.08000 332.445
39.12000 309.187
39.16000 305.135
39.20000 291.656
39.24000 279.992
39.28000 288.093
39.32000 279.107
39.36000 278.011
39.40000 283.006
39.44000 280.606
39.48000 268.430
39.52000 263.523
39.56000 271.242
39.60000 273.251
39.64000 262.144
39.68000 268.355
39.72000 274.033
39.76000 257.205
39.80000 265.878
39.84000 266.290
39.88000 256.913
39.92000 261.190
39.96000 268.672
40.00000 263.844
40.04000 265.390
40.08000 261.342
40.12000 267.396
40.16000 275.781
40.20000 279.173
40.24000 264.755
40.28000 251.263
40.32000 250.515
40.36000 272.473
40.40000 250.726
40.44000 253.984
40.48000 252.764
40.52000 231.949
40.56000 247.711
40.60000 251.737
40.64000 250.255
40.68000 249.913
40.72000 248.246
40.76000 252.505
40.80000 257.484
40.84000 239.671
40.88000 236.237
40.92000 262.743
40.96000 259.213
41.00000 249.487
41.04000 248.237
41.08000 259.706
41.12000 247.436
41.16000 251.601
41.20000 233.635
41.24000 241.225
41.28000 228.963
41.32000 237.926
41.36000 227.767
41.40000 246.430
41.44000 240.587
41.48000 240.035
41.52000 231.768
41.56000 246.424
41.60000 246.849
41.64000 250.403
41.68000 246.036
41.72000 235.210
41.76000 238.853
41.80000 244.540
41.84000 233.435
41.88000 243.751
41.92000 250.005
41.96000 232.632
42.00000 245.757
42.04000 242.943
42.08000 240.726
42.12000 232.617
42.16000 238.411
42.20000 250.463
42.24000 236.665
42.28000 244.091
42.32000 247.338
42.36000 239.043
42.40000 246.286
42.44000 240.715
42.48000 221.057
42.52000 236.108
42.56000 232.888
42.60000 232.878
42.64000 237.153
42.68000 238.670
42.72000 228.357
42.76000 230.288
42.80000 236.692
42.84000 233.590
42.88000 234.502
42.92000 231.994
42.96000 243.072
43.00000 223.607
43.04000 211.002
43.08000 229.386
43.12000 223.780
43.16000 234.458
43.20000 224.526
43.24000 240.522
43.28000 227.119
43.32000 227.214
43.36000 210.757
43.40000 217.610
43.44000 223.168
43.48000 222.322
43.52000 229.532
43.56000 229.857
43.60000 227.727
43.64000 213.378
43.68000 228.132
43.72000 218.595
43.76000 215.524
43.80000 222.479
43.84000 217.657
43.88000 217.175
43.92000 214.413
43.96000 219.195
44.00000 209.477
44.04000 209.832
44.08000 228.248
44.12000 223.476
44.16000 234.349
44.20000 220.548
44.24000 222.342
44.28000 218.508
44.32000 211.211
44.36000 227.455
44.40000 220.019
44.44000 228.737
44.48000 237.578
44.52000 211.391
44.56000 239.681
44.60000 237.871
44.64000 238.852
44.68000 244.442
44.72000 261.337
44.76000 280.773
44.80000 300.762
44.84000 315.361
44.88000 318.690
44.92000 388.607
44.96000 381.966
45.00000 422.906
45.04000 457.391
45.08000 414.878
45.12000 434.777
45.16000 412.685
45.20000 393.690
45.24000 363.018
45.28000 355.977
45.32000 342.320
45.36000 329.610
45.40000 296.535
45.44000 297.838
45.48000 285.346
45.52000 277.587
45.56000 274.423
45.60000 262.885
45.64000 257.041
45.68000 248.176
45.72000 248.357
45.76000 230.725
45.80000 233.271
45.84000 239.753
45.88000 238.808
45.92000 238.848
45.96000 213.982
46.00000 208.540
46.04000 213.356
46.08000 214.705
46.12000 207.799
46.16000 208.733
46.20000 212.913
46.24000 200.029
46.28000 202.833
46.32000 201.321
46.36000 212.235
46.40000 204.688
46.44000 190.697
46.48000 194.693
46.52000 195.257
46.56000 204.280
46.60000 210.597
46.64000 187.160
46.68000 186.873
46.72000 193.183
46.76000 208.771
46.80000 197.511
46.84000 188.191
46.88000 199.516
46.92000 203.544
46.96000 190.055
47.00000 193.385
47.04000 196.425
47.08000 193.792
47.12000 194.932
47.16000 193.369
47.20000 197.295
47.24000 194.749
47.28000 194.146
47.32000 180.213
47.36000 192.525
47.40000 196.779
47.44000 186.840
47.48000 190.203
47.52000 191.145
47.56000 191.166
47.60000 187.128
47.64000 201.118
47.68000 184.578
47.72000 194.353
47.76000 189.874
47.80000 174.306
47.84000 192.792
47.88000 187.087
47.92000 188.601
47.96000 182.495
48.00000 180.045
48.04000 177.852
48.08000 193.873
48.12000 196.534
48.16000 187.813
48.20000 185.456
48.24000 191.622
48.28000 183.610
48.32000 186.730
48.36000 187.134
48.40000 172.826
48.44000 180.927
48.48000 182.492
48.52000 177.451
48.56000 181.046
48.60000 184.452
48.64000 185.938
48.68000 176.935
48.72000 176.757
48.76000 170.383
48.80000 194.561
48.84000 183.271
48.88000 181.422
48.92000 176.529
48.96000 180.416
49.00000 183.346
49.04000 175.417
49.08000 170.861
49.12000 186.175
49.16000 169.654
49.20000 177.430
49.24000 176.975
49.28000 169.284
49.32000 178.366
49.36000 182.664
49.40000 179.276
49.44000 174.388
49.48000 180.110
49.52000 169.649
49.56000 178.359
49.60000 181.549
49.64000 185.626
49.68000 169.371
49.72000 184.460
49.76000 182.175
49.80000 171.642
49.84000 177.022
49.88000 177.728
49.92000 187.636
49.96000 178.098
50.00000 181.440
50.04000 179.539
50.08000 173.271
50.12000 178.596
50.16000 186.621
50.20000 172.630
50.24000 187.612
50.28000 177.517
50.32000 186.830
50.36000 193.269
50.40000 195.975
50.44000 222.938
50.48000 220.967
50.52000 237.247
50.56000 255.857
50.60000 260.271
50.64000 280.191
50.68000 291.362
50.72000 276.261
50.76000 279.413
50.80000 258.659
50.84000 253.486
50.88000 235.427
50.92000 222.039
50.96000 210.491
51.00000 200.652
51.04000 191.909
51.08000 196.896
51.12000 198.174
51.16000 182.173
51.20000 185.967
51.24000 177.723
51.28000 167.080
51.32000 178.248
51.36000 166.559
51.40000 171.237
51.44000 177.578
51.48000 168.770
51.52000 174.714
51.56000 171.354
51.60000 179.540
51.64000 171.378
51.68000 177.419
51.72000 160.978
51.76000 159.168
51.80000 163.007
51.84000 165.765
51.88000 157.852
51.92000 153.031
51.96000 159.660
52.00000 169.566
52.04000 160.853
52.08000 165.949
52.12000 167.133
52.16000 158.731
52.20000 150.214
52.24000 166.487
52.28000 158.087
52.32000 159.017
52.36000 165.929
52.40000 162.277
52.44000 152.630
52.48000 163.273
52.52000 159.440
52.56000 155.501
52.60000 165.531
52.64000 155.951
52.68000 156.449
52.72000 158.317
52.76000 162.776
52.80000 160.230
52.84000 151.163
52.88000 165.975
52.92000 157.831
52.96000 165.714
53.00000 152.252
53.04000 159.266
53.08000 162.292
53.12000 176.102
53.16000 160.605
53.20000 158.560
53.24000 164.853
53.28000 166.370
53.32000 169.578
53.36000 170.367
53.40000 161.321
53.44000 177.476
53.48000 162.678
53.52000 170.444
53.56000 169.109
53.60000 152.643
53.64000 169.073
53.68000 162.188
53.72000 140.523
53.76000 146.139
53.80000 149.506
53.84000 157.626
53.88000 160.560
53.92000 151.379
53.96000 146.492
54.00000 170.565
54.04000 154.779
54.08000 157.693
54.12000 156.710
54.16000 169.145
54.20000 165.744
54.24000 156.193
54.28000 154.646
54.32000 152.065
54.36000 160.527
54.40000 157.800
54.44000 153.567
54.48000 158.056
54.52000 153.803
54.56000 156.343
54.60000 158.269
54.64000 161.114
54.68000 148.964
54.72000 165.127
54.76000 158.906
54.80000 150.714
54.84000 151.357
54.88000 156.403
54.92000 158.341
54.96000 158.459
55.00000 153.936
55.04000 161.269
55.08000 166.875
55.12000 163.092
55.16000 173.449
55.20000 181.670
55.24000 171.952
55.28000 177.635
55.32000 171.867
55.36000 178.342
55.40000 178.018
55.44000 191.823
55.48000 205.334
55.52000 207.206
55.56000 227.819
55.60000 281.876
55.64000 312.772
55.68000 361.042
55.72000 426.952
55.76000 515.102
55.80000 604.936
55.84000 692.345
55.88000 767.214
55.92000 784.345
55.96000 798.723
56.00000 780.291
56.04000 743.013
56.08000 653.940
56.12000 581.502
56.16000 496.848
56.20000 413.628
56.24000 361.420
56.28000 311.049
56.32000 282.182
56.36000 245.430
56.40000 230.455
56.44000 197.614
56.48000 193.850
56.52000 182.522
56.56000 174.644
56.60000 172.541
56.64000 171.266
56.68000 162.970
56.72000 168.932
56.76000 158.069
56.80000 163.131
56.84000 148.946
56.88000 155.205
56.92000 150.030
56.96000 151.068
57.00000 158.680
57.04000 128.468
57.08000 163.503
57.12000 157.210
57.16000 150.590
57.20000 155.477
57.24000 158.906
57.28000 147.302
57.32000 145.682
57.36000 150.849
57.40000 143.414
57.44000 137.129
57.48000 142.353
57.52000 147.373
57.56000 144.040
57.60000 147.969
57.64000 146.869
57.68000 158.731
57.72000 145.139
57.76000 140.998
57.80000 149.994
57.84000 155.013
57.88000 145.240
57.92000 147.164
57.96000 144.357
58.00000 151.640
58.04000 143.303
58.08000 140.540
58.12000 137.732
58.16000 146.198
58.20000 144.537
58.24000 135.176
58.28000 138.294
58.32000 139.985
58.36000 139.865
58.40000 141.239
58.44000 131.220
58.48000 142.955
58.52000 136.592
58.56000 135.687
58.60000 146.780
58.64000 135.250
58.68000 143.621
58.72000 142.979
58.76000 140.823
58.80000 130.777
58.84000 132.246
58.88000 139.802
58.92000 141.481
58.96000 134.593
59.00000 136.544
59.04000 127.104
59.08000 129.789
59.12000 138.168
59.16000 134.016
59.20000 136.704
59.24000 126.145
59.28000 135.261
59.32000 135.138
59.36000 132.249
59.40000 137.984
59.44000 126.199
59.48000 130.876
59.52000 134.766
59.56000 137.687
59.60000 143.662
59.64000 131.860
59.68000 139.301
59.72000 131.743
59.76000 132.566
59.80000 138.093
59.84000 125.743
59.88000 137.669
59.92000 123.545
59.96000 128.643
60.00000 136.402
60.04000 134.502
60.08000 131.737
60.12000 127.792
60.16000 130.859
60.20000 143.099
60.24000 134.533
60.28000 123.156
60.32000 123.707
60.36000 142.955
60.40000 138.741
60.44000 133.490
60.48000 128.474
60.52000 130.613
60.56000 128.273
60.60000 129.721
60.64000 138.142
60.68000 132.914
60.72000 127.192
60.76000 122.793
60.80000 123.103
60.84000 127.054
60.88000 140.096
60.92000 132.283
60.96000 127.436
61.00000 131.264
61.04000 137.283
61.08000 143.442
61.12000 126.100
61.16000 140.739
61.20000 140.145
61.24000 128.744
61.28000 137.880
61.32000 137.180
61.36000 140.020
61.40000 141.852
61.44000 143.721
61.48000 168.328
61.52000 173.113
61.56000 208.251
61.60000 274.661
61.64000 296.700
61.68000 303.879
61.72000 311.373
61.76000 284.712
61.80000 244.783
61.84000 183.220
61.88000 151.897
61.92000 161.773
61.96000 156.613
62.00000 148.781
62.04000 160.387
62.08000 141.183
62.12000 137.849
62.16000 148.063
62.20000 137.491
62.24000 150.607
62.28000 144.117
62.32000 138.985
62.36000 142.511
62.40000 143.652
62.44000 141.341
62.48000 142.033
62.52000 136.423
62.56000 150.436
62.60000 147.741
62.64000 145.387
62.68000 149.567
62.72000 149.404
62.76000 144.951
62.80000 142.065
62.84000 151.576
62.88000 141.317
62.92000 136.399
62.96000 150.805
63.00000 142.434
63.04000 148.301
63.08000 140.881
63.12000 142.234
63.16000 133.958
63.20000 146.338
63.24000 145.611
63.28000 150.827
63.32000 141.190
63.36000 146.743
63.40000 148.885
63.44000 157.543
63.48000 151.705
63.52000 147.679
63.56000 145.622
63.60000 150.574
63.64000 157.239
63.68000 152.832
63.72000 153.794
63.76000 161.050
63.80000 151.784
63.84000 146.734
63.88000 162.516
63.92000 152.750
63.96000 157.851
64.00000 154.172
64.04000 169.676
64.08000 152.926
64.12000 162.782
64.16000 163.702
64.20000 162.655
64.24000 159.425
64.28000 161.275
64.32000 159.720
64.36000 163.750
64.40000 167.478
64.44000 166.192
64.48000 167.940
64.52000 174.262
64.56000 172.666
64.60000 162.459
64.64000 172.576
64.68000 177.972
64.72000 179.052
64.76000 178.765
64.80000 187.867
64.84000 178.264
64.88000 186.259
64.92000 191.820
64.96000 194.767
65.00000 197.657
65.04000 205.746
65.08000 219.880
65.12000 218.804
65.16000 231.767
65.20000 227.403
65.24000 255.753
65.28000 279.789
65.32000 300.448
65.36000 302.977
65.40000 335.792
65.44000 352.545
65.48000 393.984
65.52000 414.329
65.56000 431.186
65.60000 475.885
65.64000 516.636
65.68000 591.075
65.72000 806.583
65.76000 1020.423
65.80000 1276.098
65.84000 1389.002
65.88000 1396.379
65.92000 1339.685
65.96000 1121.358
66.00000 780.730
66.04000 513.422
66.08000 414.648
66.12000 354.684
66.16000 335.830
66.20000 337.726
66.24000 332.836
66.28000 382.985
66.32000 437.357
66.36000 464.048
66.40000 495.478
66.44000 520.003
66.48000 488.789
66.52000 447.138
66.56000 407.559
66.60000 351.839
66.64000 339.093
66.68000 344.934
66.72000 326.953
66.76000 330.777
66.80000 324.580
66.84000 345.413
66.88000 333.832
66.92000 360.962
66.96000 334.627
67.00000 353.870
67.04000 352.194
67.08000 379.635
67.12000 382.091
67.16000 384.730
67.20000 385.175
67.24000 404.031
67.28000 398.416
67.32000 415.169
67.36000 409.240
67.40000 428.842
67.44000 413.086
67.48000 435.351
67.52000 438.983
67.56000 437.283
67.60000 463.040
67.64000 469.606
67.68000 459.796
67.72000 468.812
67.76000 497.725
67.80000 495.435
67.84000 503.594
67.88000 549.282
67.92000 517.972
67.96000 539.838
68.00000 532.462
68.04000 561.452
68.08000 570.352
68.12000 587.219
68.16000 605.663
68.20000 637.124
68.24000 607.858
68.28000 651.570
68.32000 696.666
68.36000 708.416
68.40000 703.352
68.44000 746.203
68.48000 800.939
68.52000 823.069
68.56000 927.177
68.60000 1035.801
68.64000 1209.260
68.68000 1460.368
68.72000 1679.472
68.76000 1966.648
68.80000 2282.722
68.84000 2729.446
68.88000 3774.454
68.92000 6006.123
68.96000 15958.384
69.00000 34560.223
69.04000 54552.535
69.08000 64556.375
69.12000 67527.289
69.16000 69763.148
69.20000 69365.289
69.24000 58418.523
69.28000 44634.527
69.32000 36669.520
69.36000 32643.656
69.40000 26853.920
69.44000 17163.848
69.48000 7868.438
69.52000 3551.554
69.56000 2114.425
69.60000 1593.595
69.64000 1340.795
69.68000 1141.731
69.72000 1041.355
69.76000 935.454
69.80000 883.957
69.84000 814.458
69.88000 778.470
69.92000 779.024
69.96000 727.217
70.00000 695.162