File: XRD/24-09-2025 Dep 3/XY Data/BTO_Mapping_Theta2Theta_24-09-2025_001_18_-1-045_9-945.xy
20.00000 570.588
20.04000 559.529
20.08000 568.356
20.12000 559.578
20.16000 555.378
20.20000 553.093
20.24000 538.919
20.28000 547.981
20.32000 576.355
20.36000 560.059
20.40000 554.005
20.44000 545.756
20.48000 551.057
20.52000 564.110
20.56000 553.750
20.60000 568.143
20.64000 558.498
20.68000 560.977
20.72000 536.964
20.76000 552.625
20.80000 547.246
20.84000 528.883
20.88000 549.897
20.92000 539.823
20.96000 556.637
21.00000 563.855
21.04000 551.739
21.08000 539.163
21.12000 553.561
21.16000 549.561
21.20000 546.656
21.24000 579.380
21.28000 550.383
21.32000 533.228
21.36000 547.805
21.40000 546.769
21.44000 548.473
21.48000 539.999
21.52000 545.150
21.56000 534.221
21.60000 552.147
21.64000 527.198
21.68000 547.586
21.72000 562.068
21.76000 564.677
21.80000 569.855
21.84000 610.453
21.88000 587.406
21.92000 629.454
21.96000 656.981
22.00000 654.008
22.04000 686.547
22.08000 689.383
22.12000 680.520
22.16000 657.107
22.20000 661.108
22.24000 682.974
22.28000 621.282
22.32000 598.977
22.36000 603.469
22.40000 584.856
22.44000 580.001
22.48000 583.225
22.52000 555.058
22.56000 547.566
22.60000 549.992
22.64000 529.226
22.68000 525.624
22.72000 527.237
22.76000 527.326
22.80000 535.016
22.84000 514.098
22.88000 516.373
22.92000 508.796
22.96000 517.856
23.00000 509.275
23.04000 520.859
23.08000 503.117
23.12000 482.007
23.16000 502.036
23.20000 481.821
23.24000 506.168
23.28000 517.724
23.32000 485.933
23.36000 498.061
23.40000 495.890
23.44000 501.446
23.48000 497.219
23.52000 511.339
23.56000 510.730
23.60000 489.110
23.64000 492.944
23.68000 504.821
23.72000 498.496
23.76000 495.354
23.80000 515.309
23.84000 516.744
23.88000 499.535
23.92000 485.500
23.96000 471.892
24.00000 493.142
24.04000 486.588
24.08000 509.874
24.12000 492.287
24.16000 475.109
24.20000 490.139
24.24000 484.496
24.28000 497.078
24.32000 498.529
24.36000 474.402
24.40000 488.548
24.44000 484.048
24.48000 486.738
24.52000 497.399
24.56000 480.010
24.60000 478.097
24.64000 496.662
24.68000 493.761
24.72000 475.149
24.76000 501.634
24.80000 484.508
24.84000 501.135
24.88000 483.485
24.92000 483.780
24.96000 473.103
25.00000 465.454
25.04000 474.447
25.08000 465.393
25.12000 458.212
25.16000 452.058
25.20000 467.612
25.24000 475.167
25.28000 489.141
25.32000 466.390
25.36000 484.817
25.40000 459.303
25.44000 465.488
25.48000 475.988
25.52000 468.511
25.56000 436.921
25.60000 445.596
25.64000 471.198
25.68000 463.067
25.72000 461.948
25.76000 453.920
25.80000 450.851
25.84000 452.850
25.88000 474.902
25.92000 465.445
25.96000 449.125
26.00000 451.020
26.04000 468.910
26.08000 463.392
26.12000 444.697
26.16000 459.543
26.20000 463.761
26.24000 441.894
26.28000 427.159
26.32000 443.390
26.36000 454.059
26.40000 450.403
26.44000 457.555
26.48000 456.433
26.52000 456.376
26.56000 451.238
26.60000 446.389
26.64000 440.336
26.68000 441.103
26.72000 454.961
26.76000 424.495
26.80000 447.694
26.84000 454.165
26.88000 454.061
26.92000 441.222
26.96000 443.854
27.00000 452.831
27.04000 439.746
27.08000 444.033
27.12000 444.663
27.16000 435.154
27.20000 439.983
27.24000 426.653
27.28000 449.700
27.32000 430.220
27.36000 443.562
27.40000 423.374
27.44000 443.376
27.48000 439.821
27.52000 444.021
27.56000 438.807
27.60000 431.482
27.64000 433.632
27.68000 447.633
27.72000 443.189
27.76000 422.096
27.80000 431.191
27.84000 423.732
27.88000 432.440
27.92000 424.140
27.96000 436.730
28.00000 422.137
28.04000 430.219
28.08000 430.578
28.12000 415.307
28.16000 405.632
28.20000 433.136
28.24000 430.110
28.28000 434.025
28.32000 433.455
28.36000 450.398
28.40000 433.402
28.44000 415.291
28.48000 400.571
28.52000 418.270
28.56000 414.644
28.60000 411.986
28.64000 414.171
28.68000 416.585
28.72000 422.306
28.76000 415.828
28.80000 422.826
28.84000 417.140
28.88000 400.605
28.92000 414.323
28.96000 408.714
29.00000 429.242
29.04000 425.387
29.08000 424.725
29.12000 401.460
29.16000 405.831
29.20000 412.534
29.24000 422.116
29.28000 408.319
29.32000 413.328
29.36000 401.945
29.40000 422.958
29.44000 410.958
29.48000 409.918
29.52000 405.210
29.56000 406.680
29.60000 393.277
29.64000 393.398
29.68000 407.190
29.72000 432.778
29.76000 419.084
29.80000 402.085
29.84000 420.945
29.88000 445.663
29.92000 443.856
29.96000 438.579
30.00000 436.389
30.04000 447.562
30.08000 456.101
30.12000 462.076
30.16000 435.581
30.20000 450.071
30.24000 428.351
30.28000 426.695
30.32000 440.430
30.36000 434.568
30.40000 435.884
30.44000 399.968
30.48000 413.689
30.52000 416.307
30.56000 425.764
30.60000 420.640
30.64000 421.484
30.68000 441.161
30.72000 448.844
30.76000 460.954
30.80000 458.000
30.84000 472.835
30.88000 465.906
30.92000 482.767
30.96000 530.353
31.00000 563.099
31.04000 636.801
31.08000 744.395
31.12000 908.448
31.16000 1144.565
31.20000 1484.641
31.24000 1893.739
31.28000 2350.650
31.32000 2741.949
31.36000 3068.162
31.40000 3125.519
31.44000 3049.115
31.48000 2732.879
31.52000 2388.672
31.56000 1942.002
31.60000 1544.173
31.64000 1191.776
31.68000 937.710
31.72000 783.090
31.76000 661.078
31.80000 585.575
31.84000 524.987
31.88000 504.962
31.92000 471.471
31.96000 456.915
32.00000 439.799
32.04000 439.701
32.08000 422.198
32.12000 406.260
32.16000 407.289
32.20000 409.477
32.24000 401.783
32.28000 386.987
32.32000 400.147
32.36000 387.561
32.40000 381.519
32.44000 380.461
32.48000 368.693
32.52000 385.467
32.56000 378.389
32.60000 379.003
32.64000 364.865
32.68000 370.264
32.72000 372.055
32.76000 373.581
32.80000 398.672
32.84000 431.133
32.88000 486.867
32.92000 475.985
32.96000 474.937
33.00000 488.237
33.04000 477.681
33.08000 419.030
33.12000 382.107
33.16000 378.712
33.20000 353.336
33.24000 355.812
33.28000 343.138
33.32000 357.760
33.36000 346.329
33.40000 335.907
33.44000 341.608
33.48000 341.311
33.52000 342.742
33.56000 343.861
33.60000 352.699
33.64000 342.952
33.68000 345.448
33.72000 336.780
33.76000 340.164
33.80000 342.355
33.84000 326.851
33.88000 329.282
33.92000 327.010
33.96000 344.133
34.00000 331.639
34.04000 305.524
34.08000 328.650
34.12000 320.863
34.16000 331.838
34.20000 316.140
34.24000 323.169
34.28000 317.575
34.32000 313.402
34.36000 332.434
34.40000 321.574
34.44000 321.511
34.48000 322.165
34.52000 328.186
34.56000 333.005
34.60000 324.795
34.64000 325.832
34.68000 303.789
34.72000 323.858
34.76000 313.259
34.80000 338.686
34.84000 345.283
34.88000 329.721
34.92000 317.940
34.96000 313.209
35.00000 320.110
35.04000 309.686
35.08000 306.020
35.12000 310.869
35.16000 314.002
35.20000 297.067
35.24000 327.923
35.28000 325.697
35.32000 317.534
35.36000 319.025
35.40000 300.858
35.44000 313.428
35.48000 299.836
35.52000 313.604
35.56000 300.358
35.60000 315.223
35.64000 313.401
35.68000 314.008
35.72000 303.126
35.76000 310.515
35.80000 306.901
35.84000 321.366
35.88000 295.419
35.92000 303.711
35.96000 311.623
36.00000 315.534
36.04000 316.339
36.08000 299.971
36.12000 302.653
36.16000 296.572
36.20000 297.490
36.24000 280.122
36.28000 309.220
36.32000 298.075
36.36000 305.089
36.40000 320.893
36.44000 295.297
36.48000 301.451
36.52000 291.449
36.56000 310.014
36.60000 301.106
36.64000 295.104
36.68000 300.843
36.72000 289.624
36.76000 295.465
36.80000 303.807
36.84000 309.640
36.88000 295.957
36.92000 302.297
36.96000 298.047
37.00000 312.587
37.04000 309.663
37.08000 312.620
37.12000 290.255
37.16000 300.306
37.20000 297.137
37.24000 304.974
37.28000 301.241
37.32000 287.726
37.36000 294.946
37.40000 291.580
37.44000 298.115
37.48000 294.305
37.52000 300.006
37.56000 303.456
37.60000 289.116
37.64000 313.874
37.68000 292.341
37.72000 297.884
37.76000 291.008
37.80000 288.184
37.84000 285.095
37.88000 307.436
37.92000 282.097
37.96000 286.255
38.00000 290.401
38.04000 308.580
38.08000 303.074
38.12000 317.666
38.16000 319.233
38.20000 329.217
38.24000 334.092
38.28000 347.240
38.32000 366.596
38.36000 388.331
38.40000 401.265
38.44000 460.966
38.48000 562.775
38.52000 711.948
38.56000 877.170
38.60000 1119.942
38.64000 1335.314
38.68000 1489.351
38.72000 1561.298
38.76000 1556.083
38.80000 1410.454
38.84000 1241.890
38.88000 982.796
38.92000 796.537
38.96000 625.529
39.00000 471.805
39.04000 416.500
39.08000 358.085
39.12000 334.029
39.16000 306.885
39.20000 308.547
39.24000 292.441
39.28000 291.730
39.32000 276.125
39.36000 280.180
39.40000 283.756
39.44000 297.963
39.48000 271.256
39.52000 271.348
39.56000 279.187
39.60000 281.141
39.64000 263.554
39.68000 263.099
39.72000 267.253
39.76000 266.904
39.80000 266.190
39.84000 259.900
39.88000 270.887
39.92000 264.317
39.96000 248.061
40.00000 265.544
40.04000 256.232
40.08000 253.924
40.12000 261.088
40.16000 256.955
40.20000 252.935
40.24000 251.697
40.28000 279.808
40.32000 281.235
40.36000 259.803
40.40000 258.294
40.44000 248.363
40.48000 254.404
40.52000 252.584
40.56000 247.474
40.60000 258.078
40.64000 253.054
40.68000 253.806
40.72000 248.982
40.76000 255.149
40.80000 259.409
40.84000 237.966
40.88000 254.067
40.92000 243.608
40.96000 250.925
41.00000 248.581
41.04000 264.297
41.08000 235.553
41.12000 238.124
41.16000 259.297
41.20000 233.995
41.24000 249.216
41.28000 243.605
41.32000 241.118
41.36000 231.125
41.40000 237.435
41.44000 249.593
41.48000 236.676
41.52000 247.312
41.56000 242.294
41.60000 238.466
41.64000 236.369
41.68000 246.415
41.72000 239.595
41.76000 247.705
41.80000 230.815
41.84000 230.904
41.88000 244.911
41.92000 230.482
41.96000 241.499
42.00000 239.242
42.04000 240.788
42.08000 247.318
42.12000 231.828
42.16000 237.792
42.20000 240.758
42.24000 236.314
42.28000 232.319
42.32000 237.898
42.36000 230.139
42.40000 226.540
42.44000 231.070
42.48000 223.331
42.52000 240.532
42.56000 239.926
42.60000 233.794
42.64000 221.590
42.68000 224.694
42.72000 219.023
42.76000 214.868
42.80000 211.564
42.84000 222.562
42.88000 221.764
42.92000 222.663
42.96000 221.884
43.00000 215.725
43.04000 227.940
43.08000 234.165
43.12000 221.576
43.16000 230.686
43.20000 236.924
43.24000 227.049
43.28000 213.639
43.32000 211.133
43.36000 213.432
43.40000 225.361
43.44000 233.510
43.48000 231.856
43.52000 223.832
43.56000 218.838
43.60000 226.810
43.64000 222.606
43.68000 224.850
43.72000 215.556
43.76000 219.669
43.80000 231.213
43.84000 219.511
43.88000 234.792
43.92000 220.272
43.96000 217.149
44.00000 228.216
44.04000 219.043
44.08000 216.524
44.12000 221.195
44.16000 214.876
44.20000 227.322
44.24000 222.843
44.28000 223.694
44.32000 229.569
44.36000 221.420
44.40000 229.646
44.44000 228.197
44.48000 234.417
44.52000 221.512
44.56000 224.489
44.60000 223.331
44.64000 228.804
44.68000 227.522
44.72000 245.473
44.76000 238.860
44.80000 254.101
44.84000 259.809
44.88000 249.004
44.92000 296.142
44.96000 301.982
45.00000 329.516
45.04000 323.279
45.08000 320.313
45.12000 333.806
45.16000 331.939
45.20000 319.965
45.24000 314.526
45.28000 291.265
45.32000 292.072
45.36000 289.111
45.40000 292.903
45.44000 264.230
45.48000 261.178
45.52000 255.949
45.56000 263.441
45.60000 253.485
45.64000 246.120
45.68000 243.249
45.72000 237.208
45.76000 238.134
45.80000 226.816
45.84000 246.826
45.88000 245.206
45.92000 216.430
45.96000 219.737
46.00000 213.972
46.04000 223.659
46.08000 215.624
46.12000 215.563
46.16000 196.310
46.20000 224.730
46.24000 206.294
46.28000 213.316
46.32000 207.717
46.36000 208.981
46.40000 203.161
46.44000 201.775
46.48000 207.202
46.52000 201.593
46.56000 187.702
46.60000 199.979
46.64000 198.122
46.68000 199.621
46.72000 180.168
46.76000 198.836
46.80000 180.553
46.84000 211.531
46.88000 210.109
46.92000 200.103
46.96000 198.294
47.00000 198.159
47.04000 195.980
47.08000 183.286
47.12000 189.202
47.16000 199.788
47.20000 199.199
47.24000 194.503
47.28000 192.444
47.32000 194.254
47.36000 176.114
47.40000 185.128
47.44000 188.048
47.48000 192.759
47.52000 198.990
47.56000 185.495
47.60000 181.269
47.64000 186.952
47.68000 188.482
47.72000 194.379
47.76000 193.606
47.80000 199.566
47.84000 192.016
47.88000 181.790
47.92000 182.481
47.96000 193.831
48.00000 182.361
48.04000 188.766
48.08000 185.995
48.12000 187.554
48.16000 188.123
48.20000 185.288
48.24000 185.057
48.28000 182.184
48.32000 180.437
48.36000 197.812
48.40000 189.017
48.44000 177.103
48.48000 183.468
48.52000 197.400
48.56000 175.952
48.60000 191.355
48.64000 180.353
48.68000 179.183
48.72000 175.183
48.76000 179.472
48.80000 190.396
48.84000 171.646
48.88000 184.763
48.92000 186.858
48.96000 182.689
49.00000 183.255
49.04000 175.509
49.08000 189.989
49.12000 173.829
49.16000 172.862
49.20000 175.850
49.24000 182.858
49.28000 182.151
49.32000 178.892
49.36000 161.263
49.40000 174.012
49.44000 172.803
49.48000 175.735
49.52000 180.045
49.56000 184.203
49.60000 168.068
49.64000 167.829
49.68000 170.679
49.72000 179.886
49.76000 167.400
49.80000 174.290
49.84000 167.957
49.88000 168.262
49.92000 163.890
49.96000 184.920
50.00000 174.963
50.04000 176.688
50.08000 171.384
50.12000 168.492
50.16000 178.445
50.20000 178.555
50.24000 189.635
50.28000 172.824
50.32000 188.516
50.36000 189.455
50.40000 205.093
50.44000 199.588
50.48000 206.728
50.52000 215.086
50.56000 222.944
50.60000 227.396
50.64000 219.192
50.68000 249.036
50.72000 249.192
50.76000 251.874
50.80000 244.123
50.84000 235.731
50.88000 228.327
50.92000 223.304
50.96000 211.054
51.00000 205.508
51.04000 197.535
51.08000 193.209
51.12000 196.259
51.16000 188.520
51.20000 174.641
51.24000 179.241
51.28000 161.841
51.32000 175.585
51.36000 182.231
51.40000 169.327
51.44000 164.701
51.48000 171.512
51.52000 164.639
51.56000 174.668
51.60000 175.635
51.64000 169.144
51.68000 159.142
51.72000 156.989
51.76000 151.708
51.80000 174.804
51.84000 149.552
51.88000 168.695
51.92000 161.052
51.96000 167.812
52.00000 168.985
52.04000 154.975
52.08000 157.862
52.12000 159.167
52.16000 157.625
52.20000 156.016
52.24000 163.866
52.28000 156.183
52.32000 159.148
52.36000 160.235
52.40000 173.535
52.44000 160.076
52.48000 164.088
52.52000 167.372
52.56000 153.430
52.60000 161.101
52.64000 158.587
52.68000 167.713
52.72000 149.599
52.76000 156.150
52.80000 166.083
52.84000 151.627
52.88000 157.158
52.92000 165.339
52.96000 160.812
53.00000 155.871
53.04000 157.288
53.08000 160.810
53.12000 153.672
53.16000 162.058
53.20000 168.219
53.24000 166.526
53.28000 164.508
53.32000 159.326
53.36000 169.396
53.40000 172.498
53.44000 160.529
53.48000 170.608
53.52000 173.527
53.56000 163.861
53.60000 156.799
53.64000 155.678
53.68000 166.672
53.72000 161.869
53.76000 162.081
53.80000 160.720
53.84000 158.654
53.88000 158.412
53.92000 161.327
53.96000 150.347
54.00000 157.703
54.04000 155.424
54.08000 156.201
54.12000 149.091
54.16000 150.780
54.20000 158.189
54.24000 155.851
54.28000 151.992
54.32000 153.868
54.36000 163.662
54.40000 155.649
54.44000 158.479
54.48000 153.544
54.52000 155.182
54.56000 146.615
54.60000 163.313
54.64000 163.488
54.68000 156.530
54.72000 166.062
54.76000 164.541
54.80000 148.388
54.84000 160.122
54.88000 156.470
54.92000 155.535
54.96000 173.580
55.00000 157.794
55.04000 150.317
55.08000 172.677
55.12000 166.966
55.16000 155.388
55.20000 167.115
55.24000 167.852
55.28000 173.697
55.32000 173.535
55.36000 167.262
55.40000 168.904
55.44000 194.699
55.48000 193.132
55.52000 225.193
55.56000 226.823
55.60000 251.260
55.64000 307.759
55.68000 336.120
55.72000 418.685
55.76000 502.326
55.80000 576.136
55.84000 700.502
55.88000 757.279
55.92000 804.570
55.96000 841.870
56.00000 840.786
56.04000 806.359
56.08000 729.654
56.12000 630.176
56.16000 559.163
56.20000 476.289
56.24000 395.384
56.28000 340.986
56.32000 307.580
56.36000 263.692
56.40000 238.677
56.44000 223.660
56.48000 213.969
56.52000 196.382
56.56000 180.153
56.60000 165.961
56.64000 184.235
56.68000 172.596
56.72000 165.703
56.76000 151.306
56.80000 157.070
56.84000 169.549
56.88000 155.734
56.92000 159.466
56.96000 159.073
57.00000 157.992
57.04000 154.137
57.08000 156.422
57.12000 147.607
57.16000 152.333
57.20000 144.971
57.24000 142.396
57.28000 150.282
57.32000 155.384
57.36000 156.541
57.40000 144.927
57.44000 139.723
57.48000 147.261
57.52000 152.248
57.56000 149.162
57.60000 144.709
57.64000 145.592
57.68000 131.637
57.72000 149.602
57.76000 139.422
57.80000 141.520
57.84000 138.167
57.88000 144.545
57.92000 148.625
57.96000 145.740
58.00000 134.891
58.04000 149.786
58.08000 136.228
58.12000 145.303
58.16000 140.228
58.20000 146.203
58.24000 138.578
58.28000 139.241
58.32000 132.418
58.36000 132.779
58.40000 144.545
58.44000 142.246
58.48000 132.235
58.52000 150.008
58.56000 137.367
58.60000 140.430
58.64000 138.714
58.68000 133.450
58.72000 136.628
58.76000 131.972
58.80000 132.392
58.84000 131.227
58.88000 135.478
58.92000 133.045
58.96000 129.255
59.00000 130.576
59.04000 134.659
59.08000 130.280
59.12000 132.122
59.16000 140.074
59.20000 133.491
59.24000 136.240
59.28000 135.350
59.32000 125.726
59.36000 131.612
59.40000 127.941
59.44000 129.340
59.48000 146.919
59.52000 133.993
59.56000 138.847
59.60000 130.429
59.64000 136.300
59.68000 131.056
59.72000 124.330
59.76000 138.408
59.80000 131.928
59.84000 139.136
59.88000 127.072
59.92000 139.480
59.96000 139.850
60.00000 132.168
60.04000 143.059
60.08000 141.230
60.12000 136.970
60.16000 125.269
60.20000 129.284
60.24000 133.143
60.28000 142.259
60.32000 130.757
60.36000 133.525
60.40000 131.285
60.44000 139.366
60.48000 127.485
60.52000 137.148
60.56000 121.795
60.60000 136.606
60.64000 128.961
60.68000 140.365
60.72000 137.026
60.76000 124.569
60.80000 123.427
60.84000 134.021
60.88000 140.034
60.92000 127.962
60.96000 132.396
61.00000 137.436
61.04000 133.877
61.08000 138.806
61.12000 137.563
61.16000 134.174
61.20000 139.717
61.24000 129.614
61.28000 139.318
61.32000 138.080
61.36000 129.632
61.40000 133.613
61.44000 136.512
61.48000 137.387
61.52000 165.151
61.56000 191.309
61.60000 248.143
61.64000 254.381
61.68000 264.131
61.72000 287.103
61.76000 253.098
61.80000 219.787
61.84000 188.668
61.88000 137.170
61.92000 142.440
61.96000 141.744
62.00000 140.496
62.04000 141.432
62.08000 141.954
62.12000 137.742
62.16000 150.756
62.20000 147.794
62.24000 132.083
62.28000 146.331
62.32000 140.182
62.36000 138.212
62.40000 154.235
62.44000 144.975
62.48000 139.302
62.52000 148.047
62.56000 145.926
62.60000 128.329
62.64000 151.665
62.68000 141.600
62.72000 133.330
62.76000 136.888
62.80000 141.292
62.84000 139.364
62.88000 141.263
62.92000 141.332
62.96000 140.647
63.00000 138.845
63.04000 145.936
63.08000 141.244
63.12000 139.843
63.16000 144.396
63.20000 147.282
63.24000 139.949
63.28000 143.737
63.32000 136.724
63.36000 146.777
63.40000 142.426
63.44000 138.307
63.48000 135.257
63.52000 138.140
63.56000 140.310
63.60000 134.762
63.64000 153.168
63.68000 153.372
63.72000 142.329
63.76000 149.240
63.80000 146.612
63.84000 151.036
63.88000 149.289
63.92000 158.698
63.96000 156.751
64.00000 151.023
64.04000 158.557
64.08000 153.895
64.12000 154.337
64.16000 150.117
64.20000 155.287
64.24000 160.817
64.28000 159.876
64.32000 161.282
64.36000 167.161
64.40000 164.488
64.44000 162.096
64.48000 178.589
64.52000 167.006
64.56000 159.636
64.60000 164.859
64.64000 168.321
64.68000 180.636
64.72000 170.317
64.76000 176.975
64.80000 168.791
64.84000 184.285
64.88000 191.179
64.92000 186.104
64.96000 188.282
65.00000 184.313
65.04000 190.852
65.08000 194.833
65.12000 204.376
65.16000 213.471
65.20000 228.617
65.24000 244.629
65.28000 267.269
65.32000 260.217
65.36000 289.636
65.40000 298.975
65.44000 326.478
65.48000 345.706
65.52000 357.785
65.56000 382.787
65.60000 406.900
65.64000 446.528
65.68000 503.783
65.72000 646.053
65.76000 889.386
65.80000 1038.912
65.84000 1159.439
65.88000 1185.248
65.92000 1116.856
65.96000 947.027
66.00000 697.898
66.04000 488.894
66.08000 370.407
66.12000 335.378
66.16000 325.252
66.20000 317.114
66.24000 325.727
66.28000 362.325
66.32000 391.406
66.36000 447.675
66.40000 445.187
66.44000 458.180
66.48000 455.976
66.52000 419.553
66.56000 376.893
66.60000 328.316
66.64000 301.326
66.68000 313.453
66.72000 304.498
66.76000 324.540
66.80000 303.073
66.84000 329.500
66.88000 333.175
66.92000 320.592
66.96000 325.658
67.00000 348.802
67.04000 339.695
67.08000 343.358
67.12000 347.790
67.16000 350.799
67.20000 357.357
67.24000 363.769
67.28000 374.452
67.32000 381.124
67.36000 385.731
67.40000 393.782
67.44000 397.904
67.48000 414.245
67.52000 414.199
67.56000 385.044
67.60000 406.935
67.64000 435.603
67.68000 446.644
67.72000 448.039
67.76000 449.091
67.80000 436.920
67.84000 468.119
67.88000 475.330
67.92000 492.321
67.96000 490.343
68.00000 511.304
68.04000 531.716
68.08000 513.292
68.12000 548.917
68.16000 560.881
68.20000 568.267
68.24000 565.906
68.28000 592.120
68.32000 628.077
68.36000 638.306
68.40000 660.237
68.44000 678.011
68.48000 710.418
68.52000 767.407
68.56000 838.450
68.60000 975.405
68.64000 1076.928
68.68000 1257.129
68.72000 1470.429
68.76000 1704.166
68.80000 1938.481
68.84000 2278.818
68.88000 2941.261
68.92000 4535.482
68.96000 12377.883
69.00000 28216.498
69.04000 45056.406
69.08000 53669.113
69.12000 55717.184
69.16000 57917.480
69.20000 58086.602
69.24000 49106.996
69.28000 37104.609
69.32000 30384.045
69.36000 27340.813
69.40000 22626.334
69.44000 14608.128
69.48000 6527.038
69.52000 2998.345
69.56000 1852.964
69.60000 1431.891
69.64000 1209.903
69.68000 1087.395
69.72000 982.600
69.76000 884.437
69.80000 821.530
69.84000 759.697
69.88000 734.296
69.92000 692.753
69.96000 698.429
70.00000 651.343