File: XRD/XRD/25-09-2025/XY Data/BTO_Mapping_Theta2Theta_25-09-2025_001_50_3-090_-9-511.xy
20.00000 568.992
20.04000 555.284
20.08000 554.799
20.12000 576.200
20.16000 550.451
20.20000 549.196
20.24000 564.505
20.28000 538.381
20.32000 567.032
20.36000 547.729
20.40000 546.849
20.44000 556.208
20.48000 542.898
20.52000 536.481
20.56000 543.784
20.60000 536.587
20.64000 553.804
20.68000 555.366
20.72000 536.958
20.76000 561.798
20.80000 562.463
20.84000 572.813
20.88000 553.308
20.92000 533.905
20.96000 515.877
21.00000 546.880
21.04000 560.767
21.08000 542.894
21.12000 531.255
21.16000 539.467
21.20000 533.821
21.24000 542.855
21.28000 537.494
21.32000 536.401
21.36000 549.686
21.40000 541.663
21.44000 534.275
21.48000 531.016
21.52000 541.361
21.56000 537.089
21.60000 517.741
21.64000 544.825
21.68000 567.112
21.72000 569.189
21.76000 560.887
21.80000 587.117
21.84000 552.863
21.88000 580.489
21.92000 587.010
21.96000 582.140
22.00000 600.110
22.04000 626.794
22.08000 638.515
22.12000 644.997
22.16000 647.507
22.20000 643.960
22.24000 626.190
22.28000 618.573
22.32000 587.224
22.36000 589.159
22.40000 582.024
22.44000 586.802
22.48000 566.669
22.52000 573.964
22.56000 558.558
22.60000 540.146
22.64000 521.359
22.68000 505.862
22.72000 534.767
22.76000 519.178
22.80000 528.813
22.84000 508.162
22.88000 515.089
22.92000 497.096
22.96000 504.432
23.00000 510.260
23.04000 512.584
23.08000 511.769
23.12000 499.349
23.16000 506.948
23.20000 492.957
23.24000 483.497
23.28000 491.295
23.32000 497.200
23.36000 510.464
23.40000 502.869
23.44000 513.061
23.48000 491.830
23.52000 500.247
23.56000 475.865
23.60000 484.334
23.64000 485.757
23.68000 499.826
23.72000 512.801
23.76000 486.526
23.80000 480.028
23.84000 490.925
23.88000 494.193
23.92000 492.738
23.96000 509.676
24.00000 487.411
24.04000 496.103
24.08000 492.371
24.12000 472.840
24.16000 474.463
24.20000 483.338
24.24000 497.317
24.28000 464.480
24.32000 481.655
24.36000 480.389
24.40000 475.991
24.44000 462.340
24.48000 472.084
24.52000 472.047
24.56000 471.179
24.60000 478.271
24.64000 484.987
24.68000 466.276
24.72000 468.615
24.76000 461.678
24.80000 468.665
24.84000 463.746
24.88000 474.531
24.92000 475.616
24.96000 474.687
25.00000 482.652
25.04000 468.087
25.08000 449.217
25.12000 465.310
25.16000 481.804
25.20000 453.757
25.24000 454.313
25.28000 460.222
25.32000 453.567
25.36000 448.200
25.40000 453.301
25.44000 469.015
25.48000 452.234
25.52000 470.166
25.56000 476.858
25.60000 438.090
25.64000 463.379
25.68000 463.088
25.72000 463.743
25.76000 458.553
25.80000 457.907
25.84000 448.125
25.88000 469.294
25.92000 460.793
25.96000 447.148
26.00000 451.462
26.04000 444.857
26.08000 430.845
26.12000 443.374
26.16000 454.984
26.20000 441.456
26.24000 438.328
26.28000 442.276
26.32000 445.648
26.36000 438.184
26.40000 458.679
26.44000 442.085
26.48000 456.289
26.52000 458.942
26.56000 438.900
26.60000 449.679
26.64000 429.141
26.68000 440.763
26.72000 447.339
26.76000 461.776
26.80000 436.605
26.84000 426.040
26.88000 439.133
26.92000 428.948
26.96000 430.884
27.00000 449.301
27.04000 455.166
27.08000 451.723
27.12000 429.695
27.16000 421.634
27.20000 433.709
27.24000 421.977
27.28000 454.012
27.32000 425.652
27.36000 418.899
27.40000 421.168
27.44000 435.929
27.48000 423.774
27.52000 422.657
27.56000 423.980
27.60000 438.439
27.64000 432.674
27.68000 442.795
27.72000 429.384
27.76000 424.670
27.80000 425.821
27.84000 413.396
27.88000 423.299
27.92000 430.861
27.96000 426.223
28.00000 427.495
28.04000 421.409
28.08000 422.403
28.12000 425.344
28.16000 422.028
28.20000 419.058
28.24000 433.387
28.28000 427.887
28.32000 422.988
28.36000 423.244
28.40000 436.816
28.44000 409.875
28.48000 403.448
28.52000 409.136
28.56000 411.090
28.60000 412.876
28.64000 416.868
28.68000 411.588
28.72000 425.388
28.76000 411.188
28.80000 409.738
28.84000 414.071
28.88000 409.113
28.92000 431.220
28.96000 423.520
29.00000 406.965
29.04000 392.839
29.08000 402.661
29.12000 403.328
29.16000 397.984
29.20000 382.543
29.24000 414.569
29.28000 398.213
29.32000 391.797
29.36000 398.180
29.40000 407.822
29.44000 416.850
29.48000 412.521
29.52000 394.572
29.56000 388.517
29.60000 405.518
29.64000 388.175
29.68000 413.967
29.72000 399.626
29.76000 401.764
29.80000 403.710
29.84000 397.265
29.88000 411.263
29.92000 418.179
29.96000 430.831
30.00000 407.695
30.04000 415.405
30.08000 423.671
30.12000 400.934
30.16000 410.491
30.20000 398.494
30.24000 418.282
30.28000 397.774
30.32000 406.448
30.36000 410.511
30.40000 412.068
30.44000 424.736
30.48000 398.161
30.52000 396.278
30.56000 405.565
30.60000 385.146
30.64000 405.603
30.68000 403.641
30.72000 406.757
30.76000 428.170
30.80000 407.834
30.84000 437.883
30.88000 427.120
30.92000 431.221
30.96000 458.022
31.00000 493.792
31.04000 526.910
31.08000 566.716
31.12000 681.917
31.16000 806.011
31.20000 958.576
31.24000 1127.049
31.28000 1273.694
31.32000 1436.005
31.36000 1550.849
31.40000 1576.502
31.44000 1540.496
31.48000 1451.250
31.52000 1252.989
31.56000 1074.047
31.60000 960.013
31.64000 798.295
31.68000 673.666
31.72000 603.423
31.76000 568.269
31.80000 482.946
31.84000 453.242
31.88000 450.918
31.92000 428.498
31.96000 424.921
32.00000 420.909
32.04000 400.315
32.08000 393.831
32.12000 396.026
32.16000 391.456
32.20000 402.539
32.24000 383.292
32.28000 380.127
32.32000 388.627
32.36000 378.155
32.40000 358.021
32.44000 381.834
32.48000 362.340
32.52000 356.263
32.56000 380.589
32.60000 371.354
32.64000 374.535
32.68000 357.807
32.72000 365.148
32.76000 365.834
32.80000 355.141
32.84000 338.869
32.88000 362.089
32.92000 354.532
32.96000 383.386
33.00000 357.820
33.04000 360.250
33.08000 345.136
33.12000 334.528
33.16000 350.662
33.20000 338.263
33.24000 340.847
33.28000 329.617
33.32000 332.902
33.36000 331.891
33.40000 348.031
33.44000 334.740
33.48000 329.243
33.52000 335.617
33.56000 332.906
33.60000 343.444
33.64000 329.268
33.68000 329.236
33.72000 320.395
33.76000 334.776
33.80000 329.103
33.84000 341.416
33.88000 332.291
33.92000 328.323
33.96000 335.475
34.00000 319.562
34.04000 335.308
34.08000 334.120
34.12000 322.679
34.16000 321.177
34.20000 335.628
34.24000 336.077
34.28000 325.225
34.32000 326.958
34.36000 326.856
34.40000 319.141
34.44000 322.336
34.48000 309.605
34.52000 314.918
34.56000 320.599
34.60000 308.930
34.64000 315.244
34.68000 321.723
34.72000 316.307
34.76000 325.947
34.80000 317.650
34.84000 317.074
34.88000 302.029
34.92000 304.791
34.96000 312.178
35.00000 299.478
35.04000 301.483
35.08000 311.356
35.12000 320.173
35.16000 307.604
35.20000 303.075
35.24000 310.373
35.28000 314.107
35.32000 311.558
35.36000 301.002
35.40000 313.726
35.44000 309.869
35.48000 297.823
35.52000 304.491
35.56000 300.624
35.60000 308.459
35.64000 299.133
35.68000 310.706
35.72000 304.547
35.76000 292.564
35.80000 298.420
35.84000 291.764
35.88000 304.110
35.92000 293.166
35.96000 306.737
36.00000 302.360
36.04000 299.546
36.08000 301.271
36.12000 304.702
36.16000 284.642
36.20000 305.918
36.24000 299.659
36.28000 298.335
36.32000 297.696
36.36000 301.833
36.40000 299.439
36.44000 302.431
36.48000 310.596
36.52000 291.061
36.56000 293.500
36.60000 296.086
36.64000 293.134
36.68000 304.787
36.72000 285.639
36.76000 289.851
36.80000 281.227
36.84000 304.374
36.88000 302.330
36.92000 282.282
36.96000 289.040
37.00000 299.768
37.04000 297.271
37.08000 296.976
37.12000 290.516
37.16000 300.565
37.20000 297.603
37.24000 272.056
37.28000 285.943
37.32000 282.960
37.36000 280.466
37.40000 275.419
37.44000 296.314
37.48000 295.077
37.52000 268.086
37.56000 271.670
37.60000 289.463
37.64000 282.315
37.68000 295.131
37.72000 273.606
37.76000 283.374
37.80000 279.440
37.84000 290.898
37.88000 283.708
37.92000 281.874
37.96000 292.115
38.00000 275.110
38.04000 282.797
38.08000 303.184
38.12000 279.531
38.16000 283.552
38.20000 273.547
38.24000 298.069
38.28000 308.844
38.32000 332.629
38.36000 324.778
38.40000 339.579
38.44000 394.034
38.48000 441.946
38.52000 491.055
38.56000 581.197
38.60000 665.621
38.64000 740.130
38.68000 778.112
38.72000 825.117
38.76000 823.691
38.80000 786.515
38.84000 709.442
38.88000 634.817
38.92000 526.260
38.96000 465.747
39.00000 394.469
39.04000 343.237
39.08000 324.578
39.12000 313.805
39.16000 297.189
39.20000 286.292
39.24000 276.964
39.28000 272.860
39.32000 275.918
39.36000 274.406
39.40000 270.589
39.44000 258.956
39.48000 274.825
39.52000 271.959
39.56000 286.868
39.60000 268.397
39.64000 273.484
39.68000 263.775
39.72000 268.737
39.76000 269.479
39.80000 252.989
39.84000 259.015
39.88000 265.827
39.92000 267.067
39.96000 251.567
40.00000 255.822
40.04000 259.525
40.08000 255.469
40.12000 262.637
40.16000 251.461
40.20000 258.706
40.24000 244.571
40.28000 244.944
40.32000 233.796
40.36000 255.565
40.40000 249.710
40.44000 243.259
40.48000 258.463
40.52000 252.877
40.56000 249.407
40.60000 252.045
40.64000 244.803
40.68000 256.980
40.72000 249.875
40.76000 245.513
40.80000 249.461
40.84000 246.619
40.88000 244.269
40.92000 250.783
40.96000 235.324
41.00000 247.663
41.04000 257.693
41.08000 241.474
41.12000 262.694
41.16000 229.736
41.20000 241.916
41.24000 248.057
41.28000 236.483
41.32000 244.066
41.36000 236.669
41.40000 240.352
41.44000 229.082
41.48000 246.649
41.52000 235.912
41.56000 230.274
41.60000 232.476
41.64000 230.897
41.68000 243.737
41.72000 234.876
41.76000 237.230
41.80000 231.743
41.84000 229.031
41.88000 232.104
41.92000 222.810
41.96000 219.014
42.00000 226.379
42.04000 240.707
42.08000 236.544
42.12000 232.450
42.16000 220.355
42.20000 229.063
42.24000 231.324
42.28000 229.681
42.32000 225.561
42.36000 234.835
42.40000 227.551
42.44000 236.512
42.48000 228.374
42.52000 223.565
42.56000 224.739
42.60000 218.064
42.64000 235.911
42.68000 236.011
42.72000 230.478
42.76000 245.032
42.80000 230.594
42.84000 234.793
42.88000 238.018
42.92000 229.505
42.96000 229.090
43.00000 213.053
43.04000 221.949
43.08000 224.984
43.12000 236.012
43.16000 229.008
43.20000 218.287
43.24000 223.543
43.28000 219.832
43.32000 236.306
43.36000 230.248
43.40000 222.849
43.44000 231.307
43.48000 215.158
43.52000 225.295
43.56000 214.695
43.60000 217.430
43.64000 223.541
43.68000 214.555
43.72000 202.804
43.76000 215.322
43.80000 214.732
43.84000 215.843
43.88000 213.102
43.92000 222.338
43.96000 206.673
44.00000 215.701
44.04000 230.061
44.08000 211.449
44.12000 212.820
44.16000 227.563
44.20000 223.726
44.24000 215.402
44.28000 221.837
44.32000 217.022
44.36000 219.468
44.40000 215.481
44.44000 215.964
44.48000 218.228
44.52000 227.228
44.56000 222.301
44.60000 212.128
44.64000 216.717
44.68000 233.613
44.72000 228.738
44.76000 218.760
44.80000 229.669
44.84000 237.828
44.88000 251.055
44.92000 260.694
44.96000 260.199
45.00000 261.714
45.04000 258.376
45.08000 263.602
45.12000 285.140
45.16000 275.621
45.20000 257.723
45.24000 264.335
45.28000 283.654
45.32000 268.720
45.36000 266.573
45.40000 256.373
45.44000 263.662
45.48000 252.529
45.52000 255.448
45.56000 259.791
45.60000 248.629
45.64000 244.803
45.68000 234.198
45.72000 229.103
45.76000 237.392
45.80000 239.502
45.84000 234.995
45.88000 227.539
45.92000 229.233
45.96000 232.629
46.00000 211.097
46.04000 226.102
46.08000 218.073
46.12000 205.559
46.16000 208.606
46.20000 197.014
46.24000 204.991
46.28000 194.085
46.32000 203.737
46.36000 200.620
46.40000 208.177
46.44000 214.619
46.48000 207.679
46.52000 215.223
46.56000 194.982
46.60000 195.899
46.64000 208.400
46.68000 192.883
46.72000 217.162
46.76000 205.824
46.80000 179.812
46.84000 182.874
46.88000 180.746
46.92000 192.395
46.96000 201.663
47.00000 180.764
47.04000 199.985
47.08000 184.908
47.12000 180.934
47.16000 186.158
47.20000 187.676
47.24000 194.371
47.28000 185.607
47.32000 191.483
47.36000 195.940
47.40000 183.647
47.44000 196.296
47.48000 182.101
47.52000 194.833
47.56000 190.764
47.60000 194.703
47.64000 179.294
47.68000 187.005
47.72000 188.525
47.76000 187.939
47.80000 187.814
47.84000 183.159
47.88000 184.301
47.92000 183.348
47.96000 183.595
48.00000 179.148
48.04000 190.006
48.08000 184.971
48.12000 179.153
48.16000 182.718
48.20000 187.513
48.24000 170.827
48.28000 190.306
48.32000 180.158
48.36000 177.490
48.40000 174.725
48.44000 180.413
48.48000 182.581
48.52000 180.910
48.56000 188.041
48.60000 174.397
48.64000 176.225
48.68000 177.721
48.72000 188.971
48.76000 190.324
48.80000 187.370
48.84000 177.085
48.88000 175.121
48.92000 188.427
48.96000 170.288
49.00000 179.612
49.04000 173.277
49.08000 174.232
49.12000 182.030
49.16000 172.087
49.20000 167.540
49.24000 179.543
49.28000 172.441
49.32000 182.321
49.36000 168.425
49.40000 183.027
49.44000 173.278
49.48000 178.219
49.52000 173.588
49.56000 172.519
49.60000 176.607
49.64000 178.128
49.68000 175.473
49.72000 180.496
49.76000 167.730
49.80000 173.741
49.84000 170.371
49.88000 170.112
49.92000 162.447
49.96000 167.935
50.00000 168.937
50.04000 181.432
50.08000 173.478
50.12000 184.056
50.16000 172.280
50.20000 177.346
50.24000 179.415
50.28000 187.207
50.32000 168.933
50.36000 174.905
50.40000 187.228
50.44000 191.327
50.48000 184.878
50.52000 180.823
50.56000 199.415
50.60000 201.312
50.64000 213.798
50.68000 216.989
50.72000 205.957
50.76000 201.056
50.80000 201.906
50.84000 194.534
50.88000 187.404
50.92000 203.598
50.96000 177.209
51.00000 182.296
51.04000 180.208
51.08000 172.775
51.12000 179.340
51.16000 174.161
51.20000 164.545
51.24000 173.721
51.28000 177.569
51.32000 159.011
51.36000 172.107
51.40000 158.949
51.44000 165.092
51.48000 168.170
51.52000 165.149
51.56000 160.849
51.60000 170.354
51.64000 156.824
51.68000 173.448
51.72000 158.939
51.76000 156.595
51.80000 166.909
51.84000 152.437
51.88000 160.985
51.92000 150.872
51.96000 151.819
52.00000 151.926
52.04000 152.305
52.08000 170.724
52.12000 160.209
52.16000 160.661
52.20000 157.856
52.24000 155.987
52.28000 153.295
52.32000 158.847
52.36000 162.485
52.40000 156.845
52.44000 159.437
52.48000 150.083
52.52000 158.967
52.56000 149.033
52.60000 153.114
52.64000 169.504
52.68000 164.415
52.72000 155.359
52.76000 149.584
52.80000 147.204
52.84000 160.368
52.88000 152.447
52.92000 153.542
52.96000 150.998
53.00000 148.136
53.04000 154.817
53.08000 150.180
53.12000 151.453
53.16000 162.509
53.20000 162.204
53.24000 159.230
53.28000 157.584
53.32000 149.727
53.36000 155.000
53.40000 154.331
53.44000 160.076
53.48000 168.506
53.52000 160.708
53.56000 157.969
53.60000 160.120
53.64000 155.594
53.68000 149.646
53.72000 153.605
53.76000 148.283
53.80000 147.418
53.84000 165.944
53.88000 159.355
53.92000 151.794
53.96000 153.591
54.00000 154.894
54.04000 150.564
54.08000 149.288
54.12000 151.115
54.16000 156.063
54.20000 159.175
54.24000 155.829
54.28000 152.564
54.32000 160.653
54.36000 154.983
54.40000 145.842
54.44000 154.880
54.48000 156.135
54.52000 145.820
54.56000 149.150
54.60000 153.182
54.64000 156.067
54.68000 156.796
54.72000 152.575
54.76000 151.217
54.80000 136.944
54.84000 153.903
54.88000 148.995
54.92000 148.902
54.96000 153.820
55.00000 151.327
55.04000 158.376
55.08000 163.623
55.12000 160.544
55.16000 149.691
55.20000 162.685
55.24000 154.916
55.28000 153.439
55.32000 155.409
55.36000 163.206
55.40000 162.178
55.44000 174.268
55.48000 195.666
55.52000 191.875
55.56000 205.653
55.60000 225.112
55.64000 242.396
55.68000 276.305
55.72000 312.911
55.76000 361.310
55.80000 379.090
55.84000 422.389
55.88000 441.432
55.92000 479.431
55.96000 471.303
56.00000 460.016
56.04000 456.958
56.08000 409.689
56.12000 394.532
56.16000 365.892
56.20000 326.200
56.24000 289.230
56.28000 278.726
56.32000 240.194
56.36000 224.007
56.40000 205.469
56.44000 192.733
56.48000 188.900
56.52000 182.589
56.56000 157.320
56.60000 160.630
56.64000 156.890
56.68000 169.625
56.72000 154.346
56.76000 153.279
56.80000 148.607
56.84000 148.993
56.88000 159.774
56.92000 140.372
56.96000 146.237
57.00000 136.332
57.04000 149.141
57.08000 148.947
57.12000 129.130
57.16000 135.991
57.20000 144.133
57.24000 145.662
57.28000 136.037
57.32000 143.984
57.36000 136.197
57.40000 145.408
57.44000 138.860
57.48000 128.069
57.52000 148.201
57.56000 134.881
57.60000 139.888
57.64000 130.179
57.68000 145.279
57.72000 136.140
57.76000 139.859
57.80000 139.066
57.84000 134.967
57.88000 135.966
57.92000 140.982
57.96000 148.405
58.00000 138.906
58.04000 137.501
58.08000 140.631
58.12000 145.988
58.16000 140.377
58.20000 132.152
58.24000 142.508
58.28000 137.668
58.32000 124.304
58.36000 133.714
58.40000 140.788
58.44000 132.608
58.48000 131.405
58.52000 133.791
58.56000 128.402
58.60000 132.580
58.64000 133.931
58.68000 138.134
58.72000 129.202
58.76000 129.908
58.80000 137.126
58.84000 137.612
58.88000 133.554
58.92000 132.122
58.96000 119.272
59.00000 135.902
59.04000 133.660
59.08000 131.846
59.12000 131.965
59.16000 133.520
59.20000 131.606
59.24000 129.895
59.28000 133.624
59.32000 132.399
59.36000 123.396
59.40000 137.358
59.44000 142.735
59.48000 126.474
59.52000 132.015
59.56000 133.981
59.60000 131.443
59.64000 131.094
59.68000 123.960
59.72000 142.662
59.76000 135.269
59.80000 131.209
59.84000 132.913
59.88000 131.755
59.92000 125.120
59.96000 129.184
60.00000 130.944
60.04000 130.785
60.08000 128.984
60.12000 123.501
60.16000 132.671
60.20000 138.033
60.24000 134.230
60.28000 127.005
60.32000 136.706
60.36000 134.961
60.40000 137.494
60.44000 134.168
60.48000 138.935
60.52000 138.011
60.56000 143.902
60.60000 142.317
60.64000 133.376
60.68000 134.651
60.72000 136.383
60.76000 128.683
60.80000 135.672
60.84000 124.568
60.88000 128.525
60.92000 124.951
60.96000 132.754
61.00000 138.459
61.04000 133.339
61.08000 136.642
61.12000 130.321
61.16000 146.998
61.20000 132.870
61.24000 133.011
61.28000 134.263
61.32000 136.372
61.36000 138.678
61.40000 138.160
61.44000 126.444
61.48000 141.219
61.52000 151.355
61.56000 191.703
61.60000 223.235
61.64000 249.590
61.68000 274.139
61.72000 258.335
61.76000 252.386
61.80000 229.522
61.84000 181.799
61.88000 151.312
61.92000 145.399
61.96000 146.321
62.00000 146.725
62.04000 141.412
62.08000 139.561
62.12000 140.216
62.16000 149.035
62.20000 139.437
62.24000 135.501
62.28000 143.503
62.32000 139.969
62.36000 129.320
62.40000 137.437
62.44000 147.106
62.48000 146.253
62.52000 138.486
62.56000 145.296
62.60000 142.533
62.64000 145.605
62.68000 139.364
62.72000 142.282
62.76000 143.465
62.80000 131.737
62.84000 137.215
62.88000 146.908
62.92000 148.288
62.96000 142.721
63.00000 130.485
63.04000 144.263
63.08000 141.021
63.12000 149.634
63.16000 142.672
63.20000 148.802
63.24000 141.940
63.28000 147.244
63.32000 145.937
63.36000 152.682
63.40000 142.720
63.44000 148.544
63.48000 144.632
63.52000 143.680
63.56000 134.259
63.60000 148.445
63.64000 150.533
63.68000 155.623
63.72000 157.856
63.76000 153.374
63.80000 149.430
63.84000 135.831
63.88000 145.570
63.92000 161.235
63.96000 161.052
64.00000 156.950
64.04000 145.381
64.08000 152.761
64.12000 153.898
64.16000 161.528
64.20000 160.087
64.24000 175.122
64.28000 158.477
64.32000 169.477
64.36000 163.163
64.40000 152.236
64.44000 161.744
64.48000 164.054
64.52000 159.765
64.56000 171.727
64.60000 177.818
64.64000 167.184
64.68000 168.319
64.72000 148.395
64.76000 164.580
64.80000 177.875
64.84000 181.479
64.88000 181.645
64.92000 186.356
64.96000 181.903
65.00000 187.507
65.04000 181.644
65.08000 192.272
65.12000 207.714
65.16000 209.968
65.20000 223.778
65.24000 218.686
65.28000 226.511
65.32000 226.214
65.36000 229.028
65.40000 252.551
65.44000 263.414
65.48000 274.509
65.52000 284.374
65.56000 290.621
65.60000 323.745
65.64000 341.792
65.68000 418.450
65.72000 554.326
65.76000 779.311
65.80000 958.599
65.84000 1069.062
65.88000 1111.670
65.92000 1037.806
65.96000 912.904
66.00000 623.563
66.04000 445.021
66.08000 361.107
66.12000 315.672
66.16000 295.582
66.20000 290.491
66.24000 322.150
66.28000 343.998
66.32000 406.303
66.36000 428.765
66.40000 461.267
66.44000 465.017
66.48000 468.767
66.52000 417.935
66.56000 363.618
66.60000 315.939
66.64000 315.046
66.68000 307.644
66.72000 312.479
66.76000 322.878
66.80000 340.601
66.84000 345.270
66.88000 335.283
66.92000 343.651
66.96000 334.455
67.00000 333.995
67.04000 348.284
67.08000 368.417
67.12000 377.713
67.16000 353.352
67.20000 371.202
67.24000 371.318
67.28000 390.022
67.32000 402.536
67.36000 386.260
67.40000 397.190
67.44000 400.378
67.48000 410.317
67.52000 425.549
67.56000 449.080
67.60000 445.105
67.64000 450.806
67.68000 481.834
67.72000 479.909
67.76000 478.651
67.80000 477.311
67.84000 484.564
67.88000 507.921
67.92000 492.096
67.96000 509.527
68.00000 529.659
68.04000 538.759
68.08000 554.966
68.12000 556.832
68.16000 595.608
68.20000 594.235
68.24000 602.113
68.28000 632.815
68.32000 641.365
68.36000 659.915
68.40000 674.555
68.44000 722.066
68.48000 784.597
68.52000 815.673
68.56000 873.587
68.60000 988.432
68.64000 1117.649
68.68000 1337.508
68.72000 1504.797
68.76000 1730.349
68.80000 1961.132
68.84000 2292.021
68.88000 2873.005
68.92000 4604.340
68.96000 11704.633
69.00000 26933.486
69.04000 43756.004
69.08000 52651.648
69.12000 54480.961
69.16000 56773.465
69.20000 57162.527
69.24000 47855.668
69.28000 36442.063
69.32000 29822.457
69.36000 26755.461
69.40000 22411.309
69.44000 13820.021
69.48000 6560.182
69.52000 2960.584
69.56000 1893.300
69.60000 1479.710
69.64000 1276.302
69.68000 1102.564
69.72000 962.841
69.76000 931.975
69.80000 866.826
69.84000 804.742
69.88000 744.995
69.92000 704.602
69.96000 677.099
70.00000 662.439