File: XRD/XRD/25-09-2025/XY Data/BTO_Mapping_Theta2Theta_25-09-2025_001_16_9-271_28-532.xy
20.00000 570.247
20.04000 559.839
20.08000 552.201
20.12000 571.949
20.16000 547.944
20.20000 554.814
20.24000 549.661
20.28000 563.672
20.32000 550.367
20.36000 554.496
20.40000 562.311
20.44000 551.460
20.48000 542.713
20.52000 563.282
20.56000 563.923
20.60000 547.189
20.64000 547.995
20.68000 527.928
20.72000 553.692
20.76000 532.430
20.80000 545.153
20.84000 536.435
20.88000 526.116
20.92000 539.024
20.96000 534.341
21.00000 530.443
21.04000 537.610
21.08000 553.094
21.12000 547.761
21.16000 558.962
21.20000 552.873
21.24000 536.946
21.28000 541.797
21.32000 555.896
21.36000 529.905
21.40000 551.295
21.44000 550.798
21.48000 544.717
21.52000 533.340
21.56000 555.832
21.60000 543.783
21.64000 537.742
21.68000 539.766
21.72000 545.897
21.76000 530.834
21.80000 543.466
21.84000 551.543
21.88000 567.769
21.92000 567.998
21.96000 571.714
22.00000 571.941
22.04000 601.860
22.08000 614.029
22.12000 610.954
22.16000 598.408
22.20000 604.435
22.24000 595.471
22.28000 591.223
22.32000 597.439
22.36000 594.758
22.40000 593.163
22.44000 566.600
22.48000 584.680
22.52000 548.615
22.56000 552.385
22.60000 546.041
22.64000 541.666
22.68000 534.228
22.72000 538.927
22.76000 534.403
22.80000 509.806
22.84000 507.928
22.88000 494.009
22.92000 481.678
22.96000 523.506
23.00000 490.962
23.04000 509.462
23.08000 522.967
23.12000 496.612
23.16000 495.208
23.20000 509.757
23.24000 497.769
23.28000 493.558
23.32000 488.176
23.36000 505.939
23.40000 518.936
23.44000 503.471
23.48000 488.793
23.52000 510.714
23.56000 508.176
23.60000 503.747
23.64000 482.073
23.68000 482.859
23.72000 480.141
23.76000 488.146
23.80000 488.634
23.84000 490.500
23.88000 473.793
23.92000 483.436
23.96000 484.554
24.00000 492.973
24.04000 491.599
24.08000 486.303
24.12000 480.734
24.16000 498.046
24.20000 480.618
24.24000 471.824
24.28000 495.275
24.32000 469.330
24.36000 474.599
24.40000 486.937
24.44000 484.870
24.48000 500.655
24.52000 490.237
24.56000 478.604
24.60000 460.743
24.64000 494.075
24.68000 485.669
24.72000 460.755
24.76000 472.931
24.80000 484.038
24.84000 479.953
24.88000 469.290
24.92000 477.130
24.96000 477.268
25.00000 465.708
25.04000 460.653
25.08000 463.779
25.12000 462.141
25.16000 473.980
25.20000 480.225
25.24000 458.758
25.28000 488.331
25.32000 482.093
25.36000 476.429
25.40000 460.849
25.44000 454.629
25.48000 452.365
25.52000 447.901
25.56000 475.241
25.60000 464.064
25.64000 458.655
25.68000 456.443
25.72000 449.115
25.76000 449.044
25.80000 456.929
25.84000 461.044
25.88000 453.503
25.92000 461.408
25.96000 448.593
26.00000 446.556
26.04000 450.830
26.08000 467.185
26.12000 454.372
26.16000 461.905
26.20000 449.113
26.24000 455.606
26.28000 455.421
26.32000 430.980
26.36000 458.134
26.40000 444.911
26.44000 440.902
26.48000 456.296
26.52000 448.250
26.56000 440.010
26.60000 450.209
26.64000 440.898
26.68000 450.836
26.72000 437.791
26.76000 442.541
26.80000 449.343
26.84000 425.987
26.88000 441.464
26.92000 442.825
26.96000 415.049
27.00000 447.472
27.04000 431.112
27.08000 439.156
27.12000 426.459
27.16000 435.863
27.20000 451.901
27.24000 428.993
27.28000 416.331
27.32000 442.294
27.36000 418.180
27.40000 435.790
27.44000 430.245
27.48000 429.998
27.52000 424.671
27.56000 418.276
27.60000 413.730
27.64000 416.926
27.68000 430.446
27.72000 419.909
27.76000 403.904
27.80000 441.010
27.84000 416.350
27.88000 420.375
27.92000 433.794
27.96000 411.180
28.00000 414.276
28.04000 413.802
28.08000 424.237
28.12000 417.654
28.16000 419.955
28.20000 444.081
28.24000 412.909
28.28000 418.018
28.32000 410.873
28.36000 414.809
28.40000 432.546
28.44000 441.467
28.48000 405.121
28.52000 395.928
28.56000 409.155
28.60000 399.448
28.64000 421.044
28.68000 410.551
28.72000 415.729
28.76000 403.740
28.80000 420.486
28.84000 409.728
28.88000 416.493
28.92000 417.981
28.96000 408.538
29.00000 402.494
29.04000 409.424
29.08000 406.244
29.12000 416.549
29.16000 410.260
29.20000 400.928
29.24000 392.046
29.28000 407.515
29.32000 400.903
29.36000 415.762
29.40000 408.776
29.44000 420.124
29.48000 399.591
29.52000 405.817
29.56000 412.800
29.60000 398.222
29.64000 398.949
29.68000 401.438
29.72000 390.272
29.76000 416.224
29.80000 413.353
29.84000 408.244
29.88000 406.483
29.92000 425.164
29.96000 421.470
30.00000 400.750
30.04000 428.131
30.08000 413.122
30.12000 412.072
30.16000 399.272
30.20000 412.121
30.24000 422.343
30.28000 415.100
30.32000 416.093
30.36000 413.781
30.40000 410.305
30.44000 423.418
30.48000 415.505
30.52000 399.342
30.56000 408.790
30.60000 394.857
30.64000 400.510
30.68000 414.265
30.72000 405.127
30.76000 413.240
30.80000 414.315
30.84000 422.422
30.88000 437.459
30.92000 435.953
30.96000 459.334
31.00000 450.592
31.04000 492.878
31.08000 558.616
31.12000 585.619
31.16000 670.369
31.20000 763.108
31.24000 920.826
31.28000 1061.011
31.32000 1212.814
31.36000 1297.024
31.40000 1330.079
31.44000 1356.980
31.48000 1308.250
31.52000 1193.955
31.56000 1048.013
31.60000 937.441
31.64000 790.750
31.68000 696.149
31.72000 628.717
31.76000 572.329
31.80000 511.177
31.84000 497.146
31.88000 460.041
31.92000 438.933
31.96000 446.738
32.00000 440.774
32.04000 407.220
32.08000 402.985
32.12000 401.972
32.16000 395.068
32.20000 398.985
32.24000 403.471
32.28000 386.849
32.32000 385.264
32.36000 385.404
32.40000 385.292
32.44000 382.385
32.48000 378.724
32.52000 367.036
32.56000 371.104
32.60000 383.960
32.64000 374.530
32.68000 373.848
32.72000 364.760
32.76000 367.948
32.80000 362.136
32.84000 375.882
32.88000 387.033
32.92000 364.735
32.96000 386.610
33.00000 367.735
33.04000 370.491
33.08000 350.312
33.12000 333.606
33.16000 350.752
33.20000 344.267
33.24000 351.065
33.28000 335.063
33.32000 338.956
33.36000 329.996
33.40000 330.126
33.44000 324.768
33.48000 329.192
33.52000 344.105
33.56000 316.099
33.60000 332.736
33.64000 330.317
33.68000 321.153
33.72000 328.846
33.76000 322.626
33.80000 328.813
33.84000 322.812
33.88000 323.246
33.92000 328.856
33.96000 325.836
34.00000 332.394
34.04000 319.292
34.08000 323.733
34.12000 319.406
34.16000 347.325
34.20000 322.489
34.24000 310.037
34.28000 313.869
34.32000 327.767
34.36000 331.978
34.40000 327.498
34.44000 324.058
34.48000 320.372
34.52000 328.270
34.56000 326.268
34.60000 319.276
34.64000 315.958
34.68000 315.451
34.72000 315.750
34.76000 316.609
34.80000 309.857
34.84000 316.246
34.88000 319.489
34.92000 311.106
34.96000 312.500
35.00000 321.696
35.04000 317.456
35.08000 317.320
35.12000 311.762
35.16000 307.183
35.20000 299.916
35.24000 311.932
35.28000 301.121
35.32000 296.804
35.36000 309.610
35.40000 323.144
35.44000 303.150
35.48000 312.872
35.52000 315.479
35.56000 307.022
35.60000 310.749
35.64000 309.769
35.68000 312.798
35.72000 301.366
35.76000 297.900
35.80000 316.563
35.84000 309.093
35.88000 296.466
35.92000 293.811
35.96000 306.893
36.00000 307.360
36.04000 306.455
36.08000 297.585
36.12000 298.572
36.16000 319.922
36.20000 296.049
36.24000 302.926
36.28000 326.330
36.32000 300.186
36.36000 292.072
36.40000 294.023
36.44000 296.854
36.48000 299.726
36.52000 283.322
36.56000 273.531
36.60000 267.891
36.64000 285.377
36.68000 286.577
36.72000 290.409
36.76000 290.330
36.80000 273.478
36.84000 279.582
36.88000 278.781
36.92000 290.747
36.96000 294.690
37.00000 290.980
37.04000 304.709
37.08000 295.518
37.12000 290.444
37.16000 281.903
37.20000 300.622
37.24000 290.201
37.28000 303.292
37.32000 291.128
37.36000 291.621
37.40000 288.730
37.44000 277.998
37.48000 271.615
37.52000 293.790
37.56000 294.850
37.60000 294.192
37.64000 291.740
37.68000 286.993
37.72000 277.451
37.76000 282.322
37.80000 278.685
37.84000 283.241
37.88000 294.496
37.92000 269.430
37.96000 279.152
38.00000 285.215
38.04000 286.566
38.08000 292.591
38.12000 295.018
38.16000 290.521
38.20000 293.288
38.24000 288.405
38.28000 302.367
38.32000 286.887
38.36000 314.614
38.40000 327.834
38.44000 352.515
38.48000 364.815
38.52000 427.405
38.56000 469.128
38.60000 548.575
38.64000 616.997
38.68000 680.440
38.72000 732.515
38.76000 744.048
38.80000 686.155
38.84000 615.011
38.88000 549.411
38.92000 465.930
38.96000 424.759
39.00000 366.831
39.04000 333.604
39.08000 306.589
39.12000 285.390
39.16000 275.183
39.20000 276.357
39.24000 271.231
39.28000 280.596
39.32000 255.414
39.36000 263.700
39.40000 264.196
39.44000 258.538
39.48000 268.014
39.52000 261.506
39.56000 266.822
39.60000 255.260
39.64000 273.098
39.68000 277.737
39.72000 261.456
39.76000 273.442
39.80000 246.715
39.84000 270.547
39.88000 252.941
39.92000 257.765
39.96000 264.984
40.00000 255.943
40.04000 246.676
40.08000 255.864
40.12000 259.331
40.16000 255.693
40.20000 257.352
40.24000 254.290
40.28000 246.855
40.32000 241.326
40.36000 248.749
40.40000 248.301
40.44000 237.268
40.48000 258.496
40.52000 238.062
40.56000 244.416
40.60000 257.231
40.64000 247.501
40.68000 242.437
40.72000 231.796
40.76000 253.116
40.80000 244.869
40.84000 235.438
40.88000 242.275
40.92000 245.053
40.96000 248.657
41.00000 245.892
41.04000 232.019
41.08000 245.993
41.12000 247.186
41.16000 238.710
41.20000 248.833
41.24000 244.510
41.28000 226.982
41.32000 233.343
41.36000 237.604
41.40000 241.520
41.44000 239.692
41.48000 238.455
41.52000 239.388
41.56000 232.472
41.60000 236.766
41.64000 240.387
41.68000 231.002
41.72000 232.617
41.76000 231.270
41.80000 229.693
41.84000 238.715
41.88000 221.836
41.92000 242.518
41.96000 239.672
42.00000 239.184
42.04000 241.682
42.08000 241.380
42.12000 229.610
42.16000 236.492
42.20000 222.783
42.24000 232.409
42.28000 227.676
42.32000 230.812
42.36000 233.672
42.40000 232.543
42.44000 236.211
42.48000 231.452
42.52000 224.304
42.56000 235.731
42.60000 223.123
42.64000 227.932
42.68000 236.048
42.72000 222.656
42.76000 218.033
42.80000 231.984
42.84000 228.407
42.88000 224.427
42.92000 216.681
42.96000 227.438
43.00000 217.466
43.04000 217.929
43.08000 219.443
43.12000 223.899
43.16000 226.177
43.20000 218.308
43.24000 227.993
43.28000 219.293
43.32000 222.399
43.36000 215.024
43.40000 219.802
43.44000 211.275
43.48000 214.549
43.52000 230.870
43.56000 222.999
43.60000 219.077
43.64000 216.579
43.68000 218.403
43.72000 219.385
43.76000 217.463
43.80000 215.646
43.84000 229.560
43.88000 206.490
43.92000 226.060
43.96000 210.703
44.00000 212.203
44.04000 218.328
44.08000 207.843
44.12000 219.503
44.16000 213.449
44.20000 212.133
44.24000 205.785
44.28000 212.426
44.32000 223.503
44.36000 234.859
44.40000 211.667
44.44000 212.974
44.48000 218.551
44.52000 212.018
44.56000 225.941
44.60000 225.134
44.64000 216.033
44.68000 220.807
44.72000 218.833
44.76000 217.047
44.80000 225.023
44.84000 223.134
44.88000 230.852
44.92000 220.656
44.96000 223.522
45.00000 236.779
45.04000 232.800
45.08000 240.319
45.12000 243.911
45.16000 247.631
45.20000 262.568
45.24000 250.078
45.28000 244.328
45.32000 254.041
45.36000 251.580
45.40000 254.806
45.44000 262.253
45.48000 247.229
45.52000 253.068
45.56000 242.700
45.60000 239.649
45.64000 240.520
45.68000 239.383
45.72000 235.572
45.76000 238.870
45.80000 219.768
45.84000 228.754
45.88000 221.804
45.92000 216.376
45.96000 215.163
46.00000 225.803
46.04000 223.703
46.08000 216.620
46.12000 215.964
46.16000 218.423
46.20000 192.721
46.24000 202.382
46.28000 213.587
46.32000 194.899
46.36000 196.667
46.40000 194.059
46.44000 210.734
46.48000 204.505
46.52000 219.138
46.56000 204.369
46.60000 203.784
46.64000 209.280
46.68000 205.999
46.72000 197.661
46.76000 204.865
46.80000 198.402
46.84000 193.997
46.88000 190.396
46.92000 200.878
46.96000 206.770
47.00000 190.952
47.04000 189.635
47.08000 201.002
47.12000 181.546
47.16000 186.186
47.20000 205.018
47.24000 196.937
47.28000 196.924
47.32000 188.642
47.36000 185.981
47.40000 178.979
47.44000 190.243
47.48000 183.284
47.52000 191.338
47.56000 200.572
47.60000 197.562
47.64000 189.184
47.68000 184.113
47.72000 180.006
47.76000 179.431
47.80000 175.037
47.84000 180.338
47.88000 188.364
47.92000 184.492
47.96000 178.458
48.00000 178.869
48.04000 169.377
48.08000 178.241
48.12000 189.564
48.16000 174.589
48.20000 182.342
48.24000 170.265
48.28000 167.272
48.32000 175.265
48.36000 173.815
48.40000 187.245
48.44000 176.659
48.48000 187.584
48.52000 184.145
48.56000 179.308
48.60000 181.436
48.64000 171.875
48.68000 169.777
48.72000 179.093
48.76000 185.389
48.80000 183.488
48.84000 168.830
48.88000 168.479
48.92000 167.655
48.96000 172.077
49.00000 170.881
49.04000 173.988
49.08000 181.335
49.12000 184.993
49.16000 178.633
49.20000 169.580
49.24000 168.512
49.28000 168.516
49.32000 171.873
49.36000 178.622
49.40000 172.459
49.44000 172.494
49.48000 173.256
49.52000 171.398
49.56000 178.576
49.60000 172.064
49.64000 167.953
49.68000 170.573
49.72000 175.267
49.76000 170.807
49.80000 172.379
49.84000 164.508
49.88000 177.702
49.92000 163.906
49.96000 176.613
50.00000 174.420
50.04000 162.147
50.08000 161.860
50.12000 169.224
50.16000 179.331
50.20000 178.824
50.24000 186.212
50.28000 178.595
50.32000 180.816
50.36000 177.517
50.40000 167.538
50.44000 180.909
50.48000 167.787
50.52000 180.144
50.56000 186.729
50.60000 174.416
50.64000 175.686
50.68000 186.894
50.72000 180.382
50.76000 200.256
50.80000 184.389
50.84000 174.541
50.88000 172.089
50.92000 186.234
50.96000 180.136
51.00000 180.559
51.04000 162.170
51.08000 158.604
51.12000 172.301
51.16000 174.476
51.20000 165.839
51.24000 170.427
51.28000 170.489
51.32000 177.108
51.36000 174.415
51.40000 168.932
51.44000 157.952
51.48000 166.744
51.52000 163.493
51.56000 159.451
51.60000 160.222
51.64000 163.357
51.68000 168.428
51.72000 174.438
51.76000 164.811
51.80000 157.757
51.84000 161.168
51.88000 155.166
51.92000 157.240
51.96000 155.000
52.00000 160.959
52.04000 162.993
52.08000 151.172
52.12000 159.850
52.16000 151.843
52.20000 160.577
52.24000 162.748
52.28000 155.326
52.32000 168.557
52.36000 157.641
52.40000 156.308
52.44000 149.399
52.48000 166.574
52.52000 153.988
52.56000 157.293
52.60000 164.155
52.64000 153.571
52.68000 159.286
52.72000 159.244
52.76000 151.116
52.80000 155.640
52.84000 152.549
52.88000 159.810
52.92000 157.999
52.96000 157.617
53.00000 152.322
53.04000 157.903
53.08000 152.160
53.12000 161.626
53.16000 154.975
53.20000 153.909
53.24000 146.734
53.28000 155.806
53.32000 155.675
53.36000 148.765
53.40000 151.478
53.44000 157.247
53.48000 148.385
53.52000 153.973
53.56000 150.684
53.60000 163.488
53.64000 150.535
53.68000 156.841
53.72000 148.619
53.76000 151.204
53.80000 159.965
53.84000 145.165
53.88000 164.349
53.92000 148.271
53.96000 152.180
54.00000 150.951
54.04000 165.008
54.08000 156.943
54.12000 151.888
54.16000 151.008
54.20000 150.305
54.24000 147.517
54.28000 155.107
54.32000 144.342
54.36000 149.579
54.40000 148.623
54.44000 147.458
54.48000 154.760
54.52000 154.786
54.56000 150.122
54.60000 159.494
54.64000 159.542
54.68000 150.652
54.72000 153.200
54.76000 150.148
54.80000 171.417
54.84000 150.575
54.88000 154.206
54.92000 146.854
54.96000 145.577
55.00000 158.473
55.04000 152.112
55.08000 150.660
55.12000 146.082
55.16000 150.187
55.20000 169.112
55.24000 145.722
55.28000 161.082
55.32000 172.946
55.36000 161.430
55.40000 163.354
55.44000 180.464
55.48000 166.489
55.52000 177.685
55.56000 173.643
55.60000 190.105
55.64000 194.813
55.68000 220.093
55.72000 249.603
55.76000 274.541
55.80000 310.618
55.84000 332.383
55.88000 365.451
55.92000 380.730
55.96000 402.488
56.00000 418.331
56.04000 371.457
56.08000 363.588
56.12000 336.483
56.16000 321.555
56.20000 288.686
56.24000 270.809
56.28000 247.579
56.32000 225.508
56.36000 190.621
56.40000 190.198
56.44000 182.816
56.48000 169.177
56.52000 168.134
56.56000 162.673
56.60000 160.632
56.64000 158.330
56.68000 168.869
56.72000 152.285
56.76000 149.380
56.80000 150.194
56.84000 153.146
56.88000 152.248
56.92000 153.292
56.96000 155.159
57.00000 146.243
57.04000 140.139
57.08000 147.704
57.12000 143.065
57.16000 142.391
57.20000 133.432
57.24000 146.626
57.28000 158.487
57.32000 136.508
57.36000 143.552
57.40000 131.727
57.44000 137.132
57.48000 136.452
57.52000 131.355
57.56000 142.339
57.60000 148.738
57.64000 133.888
57.68000 147.644
57.72000 135.529
57.76000 141.607
57.80000 143.026
57.84000 138.457
57.88000 142.800
57.92000 146.119
57.96000 148.800
58.00000 137.604
58.04000 149.412
58.08000 138.223
58.12000 148.296
58.16000 142.152
58.20000 132.916
58.24000 136.320
58.28000 129.431
58.32000 129.041
58.36000 128.237
58.40000 139.998
58.44000 140.547
58.48000 139.878
58.52000 132.654
58.56000 137.889
58.60000 131.560
58.64000 136.763
58.68000 130.459
58.72000 130.703
58.76000 140.433
58.80000 135.636
58.84000 130.581
58.88000 130.803
58.92000 134.286
58.96000 126.344
59.00000 131.239
59.04000 139.719
59.08000 139.717
59.12000 133.148
59.16000 131.011
59.20000 138.418
59.24000 132.780
59.28000 142.366
59.32000 133.289
59.36000 140.923
59.40000 130.828
59.44000 136.165
59.48000 137.630
59.52000 129.582
59.56000 131.309
59.60000 135.407
59.64000 133.745
59.68000 133.835
59.72000 138.501
59.76000 129.830
59.80000 121.756
59.84000 138.317
59.88000 135.172
59.92000 126.495
59.96000 123.179
60.00000 127.547
60.04000 132.757
60.08000 126.171
60.12000 140.322
60.16000 128.007
60.20000 144.454
60.24000 131.072
60.28000 130.016
60.32000 136.836
60.36000 128.506
60.40000 132.942
60.44000 137.591
60.48000 132.991
60.52000 127.621
60.56000 130.665
60.60000 128.592
60.64000 137.873
60.68000 133.626
60.72000 133.999
60.76000 133.420
60.80000 136.689
60.84000 135.467
60.88000 145.682
60.92000 133.482
60.96000 139.149
61.00000 150.501
61.04000 134.834
61.08000 133.312
61.12000 132.243
61.16000 137.742
61.20000 133.666
61.24000 137.822
61.28000 135.792
61.32000 132.109
61.36000 136.827
61.40000 143.963
61.44000 138.201
61.48000 148.841
61.52000 159.476
61.56000 187.618
61.60000 219.264
61.64000 245.211
61.68000 261.014
61.72000 270.030
61.76000 255.798
61.80000 222.996
61.84000 174.907
61.88000 156.153
61.92000 147.000
61.96000 142.153
62.00000 150.611
62.04000 145.741
62.08000 137.879
62.12000 142.665
62.16000 142.371
62.20000 142.534
62.24000 136.679
62.28000 135.607
62.32000 144.205
62.36000 149.275
62.40000 143.656
62.44000 138.568
62.48000 140.286
62.52000 139.959
62.56000 136.056
62.60000 141.508
62.64000 150.033
62.68000 143.500
62.72000 135.357
62.76000 138.453
62.80000 142.377
62.84000 134.921
62.88000 145.542
62.92000 141.443
62.96000 138.323
63.00000 153.102
63.04000 139.385
63.08000 145.825
63.12000 155.264
63.16000 137.226
63.20000 144.916
63.24000 144.852
63.28000 141.386
63.32000 151.090
63.36000 144.487
63.40000 142.674
63.44000 152.411
63.48000 144.969
63.52000 153.142
63.56000 152.764
63.60000 148.840
63.64000 154.720
63.68000 146.995
63.72000 149.316
63.76000 154.662
63.80000 152.580
63.84000 156.128
63.88000 156.763
63.92000 147.542
63.96000 142.439
64.00000 143.850
64.04000 144.426
64.08000 155.778
64.12000 151.028
64.16000 161.073
64.20000 159.940
64.24000 156.501
64.28000 166.340
64.32000 164.622
64.36000 160.550
64.40000 164.727
64.44000 164.067
64.48000 161.118
64.52000 172.610
64.56000 167.008
64.60000 173.262
64.64000 164.398
64.68000 181.993
64.72000 182.157
64.76000 186.401
64.80000 179.737
64.84000 181.847
64.88000 182.831
64.92000 184.640
64.96000 189.705
65.00000 182.001
65.04000 187.822
65.08000 192.838
65.12000 204.249
65.16000 201.833
65.20000 219.394
65.24000 206.723
65.28000 214.225
65.32000 216.888
65.36000 244.980
65.40000 226.233
65.44000 244.648
65.48000 254.596
65.52000 268.575
65.56000 298.697
65.60000 293.317
65.64000 328.853
65.68000 404.819
65.72000 492.958
65.76000 723.149
65.80000 926.527
65.84000 1032.530
65.88000 1025.916
65.92000 1040.216
65.96000 895.667
66.00000 668.704
66.04000 464.153
66.08000 360.024
66.12000 314.716
66.16000 307.156
66.20000 314.900
66.24000 324.666
66.28000 363.604
66.32000 391.483
66.36000 434.465
66.40000 440.240
66.44000 452.870
66.48000 430.461
66.52000 427.186
66.56000 368.290
66.60000 326.018
66.64000 313.148
66.68000 329.403
66.72000 325.358
66.76000 317.764
66.80000 318.521
66.84000 324.376
66.88000 338.042
66.92000 339.275
66.96000 333.448
67.00000 336.926
67.04000 363.860
67.08000 355.645
67.12000 352.963
67.16000 386.052
67.20000 376.315
67.24000 405.693
67.28000 394.446
67.32000 383.012
67.36000 406.719
67.40000 408.425
67.44000 422.028
67.48000 422.746
67.52000 427.102
67.56000 420.600
67.60000 443.176
67.64000 444.269
67.68000 461.531
67.72000 469.683
67.76000 450.573
67.80000 484.477
67.84000 487.655
67.88000 520.223
67.92000 516.776
67.96000 503.353
68.00000 527.369
68.04000 542.896
68.08000 542.028
68.12000 564.736
68.16000 580.719
68.20000 587.707
68.24000 614.710
68.28000 638.113
68.32000 646.633
68.36000 702.032
68.40000 695.110
68.44000 725.970
68.48000 742.689
68.52000 795.011
68.56000 849.112
68.60000 951.842
68.64000 1077.368
68.68000 1325.358
68.72000 1508.427
68.76000 1740.129
68.80000 1919.219
68.84000 2196.271
68.88000 2736.941
68.92000 4289.299
68.96000 10846.030
69.00000 25645.137
69.04000 42479.293
69.08000 51239.527
69.12000 53463.566
69.16000 55229.656
69.20000 56208.547
69.24000 47846.328
69.28000 35916.547
69.32000 29334.109
69.36000 26552.381
69.40000 22424.021
69.44000 14073.406
69.48000 6600.378
69.52000 2935.348
69.56000 1910.141
69.60000 1474.104
69.64000 1249.141
69.68000 1085.489
69.72000 985.206
69.76000 943.636
69.80000 858.567
69.84000 810.939
69.88000 779.506
69.92000 719.551
69.96000 668.269
70.00000 654.398