File: XRD/XRD/25-09-2025/XY Data/BTO_Mapping_Theta2Theta_25-09-2025_001_45_-20-000_-34-641.xy
20.00000 555.143
20.04000 553.958
20.08000 553.754
20.12000 557.264
20.16000 538.816
20.20000 562.100
20.24000 554.791
20.28000 558.702
20.32000 549.841
20.36000 554.038
20.40000 564.607
20.44000 560.247
20.48000 564.597
20.52000 577.067
20.56000 551.753
20.60000 568.743
20.64000 539.179
20.68000 549.375
20.72000 562.188
20.76000 538.954
20.80000 542.814
20.84000 531.390
20.88000 561.597
20.92000 563.605
20.96000 546.818
21.00000 565.760
21.04000 568.371
21.08000 540.306
21.12000 547.142
21.16000 553.747
21.20000 545.243
21.24000 549.092
21.28000 535.048
21.32000 551.833
21.36000 519.991
21.40000 530.808
21.44000 540.147
21.48000 536.244
21.52000 538.867
21.56000 570.336
21.60000 552.155
21.64000 573.516
21.68000 586.985
21.72000 605.710
21.76000 654.692
21.80000 685.430
21.84000 700.253
21.88000 737.429
21.92000 802.154
21.96000 847.622
22.00000 872.415
22.04000 890.063
22.08000 804.595
22.12000 804.831
22.16000 794.194
22.20000 736.349
22.24000 697.679
22.28000 648.166
22.32000 639.576
22.36000 616.580
22.40000 589.571
22.44000 563.915
22.48000 561.144
22.52000 548.795
22.56000 539.213
22.60000 538.817
22.64000 542.937
22.68000 538.628
22.72000 513.577
22.76000 517.061
22.80000 518.619
22.84000 508.246
22.88000 499.439
22.92000 509.687
22.96000 507.947
23.00000 514.521
23.04000 499.321
23.08000 501.844
23.12000 517.522
23.16000 512.616
23.20000 517.576
23.24000 503.437
23.28000 505.755
23.32000 507.101
23.36000 510.449
23.40000 507.031
23.44000 510.634
23.48000 492.764
23.52000 478.797
23.56000 496.823
23.60000 496.230
23.64000 510.343
23.68000 505.148
23.72000 504.339
23.76000 486.005
23.80000 491.172
23.84000 517.358
23.88000 494.807
23.92000 487.146
23.96000 488.978
24.00000 497.082
24.04000 499.241
24.08000 498.157
24.12000 481.412
24.16000 478.817
24.20000 468.406
24.24000 466.727
24.28000 473.747
24.32000 473.416
24.36000 484.137
24.40000 476.625
24.44000 481.482
24.48000 488.482
24.52000 478.064
24.56000 471.869
24.60000 476.175
24.64000 482.462
24.68000 489.087
24.72000 465.140
24.76000 484.824
24.80000 475.381
24.84000 470.862
24.88000 476.226
24.92000 463.616
24.96000 468.450
25.00000 479.300
25.04000 467.797
25.08000 476.231
25.12000 477.345
25.16000 468.281
25.20000 479.724
25.24000 463.612
25.28000 469.685
25.32000 468.397
25.36000 471.634
25.40000 478.569
25.44000 464.685
25.48000 460.087
25.52000 458.245
25.56000 444.040
25.60000 464.295
25.64000 457.516
25.68000 457.613
25.72000 459.203
25.76000 478.230
25.80000 434.867
25.84000 452.283
25.88000 456.355
25.92000 438.908
25.96000 466.464
26.00000 464.661
26.04000 463.273
26.08000 475.470
26.12000 462.245
26.16000 453.678
26.20000 446.282
26.24000 434.105
26.28000 454.672
26.32000 456.565
26.36000 455.060
26.40000 439.658
26.44000 438.442
26.48000 430.701
26.52000 459.630
26.56000 445.885
26.60000 456.218
26.64000 455.195
26.68000 448.798
26.72000 442.956
26.76000 459.534
26.80000 451.832
26.84000 429.998
26.88000 433.968
26.92000 450.692
26.96000 429.572
27.00000 425.372
27.04000 429.348
27.08000 444.159
27.12000 418.291
27.16000 427.400
27.20000 426.317
27.24000 446.176
27.28000 447.403
27.32000 443.496
27.36000 432.059
27.40000 437.491
27.44000 454.344
27.48000 436.656
27.52000 435.799
27.56000 427.682
27.60000 430.621
27.64000 421.469
27.68000 443.354
27.72000 411.876
27.76000 437.892
27.80000 426.621
27.84000 438.625
27.88000 429.770
27.92000 409.102
27.96000 434.338
28.00000 420.417
28.04000 420.207
28.08000 442.417
28.12000 413.442
28.16000 426.426
28.20000 420.774
28.24000 435.968
28.28000 436.239
28.32000 415.332
28.36000 426.140
28.40000 431.804
28.44000 418.457
28.48000 423.394
28.52000 431.635
28.56000 422.056
28.60000 408.522
28.64000 411.126
28.68000 413.421
28.72000 415.758
28.76000 418.630
28.80000 404.216
28.84000 408.379
28.88000 409.434
28.92000 419.518
28.96000 405.617
29.00000 417.034
29.04000 409.870
29.08000 395.368
29.12000 391.220
29.16000 414.433
29.20000 405.278
29.24000 411.133
29.28000 407.546
29.32000 403.474
29.36000 409.413
29.40000 412.635
29.44000 402.677
29.48000 405.375
29.52000 415.178
29.56000 393.146
29.60000 405.388
29.64000 410.487
29.68000 396.262
29.72000 418.802
29.76000 415.386
29.80000 424.709
29.84000 419.080
29.88000 436.761
29.92000 439.991
29.96000 442.759
30.00000 447.580
30.04000 427.716
30.08000 455.844
30.12000 432.346
30.16000 428.718
30.20000 451.722
30.24000 444.621
30.28000 402.410
30.32000 414.237
30.36000 439.959
30.40000 423.502
30.44000 420.488
30.48000 437.010
30.52000 425.312
30.56000 426.177
30.60000 442.446
30.64000 435.516
30.68000 420.734
30.72000 454.609
30.76000 441.054
30.80000 466.928
30.84000 499.016
30.88000 496.695
30.92000 538.095
30.96000 579.740
31.00000 659.339
31.04000 771.462
31.08000 958.555
31.12000 1202.551
31.16000 1505.583
31.20000 1856.020
31.24000 2217.113
31.28000 2577.579
31.32000 2838.614
31.36000 2861.227
31.40000 2907.563
31.44000 2639.272
31.48000 2313.717
31.52000 2036.225
31.56000 1692.408
31.60000 1363.392
31.64000 1157.706
31.68000 970.638
31.72000 830.975
31.76000 701.836
31.80000 634.813
31.84000 571.421
31.88000 522.843
31.92000 499.062
31.96000 468.547
32.00000 446.992
32.04000 433.236
32.08000 415.713
32.12000 388.877
32.16000 403.067
32.20000 399.229
32.24000 381.343
32.28000 390.222
32.32000 387.587
32.36000 361.798
32.40000 387.972
32.44000 385.229
32.48000 366.787
32.52000 375.433
32.56000 360.923
32.60000 376.975
32.64000 396.010
32.68000 372.482
32.72000 369.065
32.76000 352.238
32.80000 384.214
32.84000 387.111
32.88000 400.934
32.92000 405.736
32.96000 394.851
33.00000 392.823
33.04000 378.807
33.08000 361.556
33.12000 344.617
33.16000 351.466
33.20000 353.536
33.24000 342.851
33.28000 342.611
33.32000 342.565
33.36000 358.448
33.40000 350.224
33.44000 347.374
33.48000 331.626
33.52000 344.240
33.56000 354.443
33.60000 339.960
33.64000 343.563
33.68000 345.107
33.72000 344.305
33.76000 336.121
33.80000 339.944
33.84000 355.059
33.88000 337.776
33.92000 334.821
33.96000 336.565
34.00000 343.394
34.04000 333.084
34.08000 313.159
34.12000 338.772
34.16000 324.763
34.20000 322.041
34.24000 328.505
34.28000 325.711
34.32000 321.059
34.36000 322.772
34.40000 318.118
34.44000 323.828
34.48000 320.405
34.52000 307.271
34.56000 327.483
34.60000 326.950
34.64000 307.150
34.68000 317.923
34.72000 318.699
34.76000 321.949
34.80000 316.783
34.84000 310.084
34.88000 297.131
34.92000 312.520
34.96000 301.006
35.00000 299.069
35.04000 312.410
35.08000 319.665
35.12000 304.012
35.16000 312.262
35.20000 314.807
35.24000 312.731
35.28000 303.424
35.32000 304.166
35.36000 306.091
35.40000 304.360
35.44000 293.950
35.48000 298.922
35.52000 305.938
35.56000 302.534
35.60000 300.891
35.64000 307.743
35.68000 310.094
35.72000 305.359
35.76000 312.413
35.80000 293.581
35.84000 289.115
35.88000 291.969
35.92000 296.929
35.96000 294.500
36.00000 316.294
36.04000 301.642
36.08000 303.424
36.12000 304.015
36.16000 308.462
36.20000 298.420
36.24000 303.404
36.28000 293.601
36.32000 296.254
36.36000 308.041
36.40000 292.282
36.44000 293.434
36.48000 291.547
36.52000 308.565
36.56000 304.786
36.60000 301.650
36.64000 295.622
36.68000 305.551
36.72000 287.525
36.76000 293.536
36.80000 302.251
36.84000 296.869
36.88000 284.972
36.92000 288.451
36.96000 309.634
37.00000 301.004
37.04000 289.675
37.08000 294.461
37.12000 276.546
37.16000 297.604
37.20000 294.676
37.24000 284.508
37.28000 284.356
37.32000 305.611
37.36000 294.207
37.40000 286.523
37.44000 287.163
37.48000 300.546
37.52000 282.332
37.56000 286.737
37.60000 285.257
37.64000 280.533
37.68000 280.474
37.72000 271.804
37.76000 280.097
37.80000 278.533
37.84000 286.094
37.88000 284.536
37.92000 286.893
37.96000 279.370
38.00000 270.814
38.04000 305.563
38.08000 283.136
38.12000 296.111
38.16000 282.347
38.20000 296.222
38.24000 303.206
38.28000 308.130
38.32000 336.171
38.36000 334.116
38.40000 361.850
38.44000 388.310
38.48000 407.786
38.52000 444.377
38.56000 468.069
38.60000 489.588
38.64000 483.662
38.68000 507.418
38.72000 487.692
38.76000 466.286
38.80000 453.198
38.84000 421.654
38.88000 389.886
38.92000 357.176
38.96000 327.370
39.00000 322.981
39.04000 312.678
39.08000 285.514
39.12000 288.030
39.16000 281.116
39.20000 272.338
39.24000 274.472
39.28000 291.057
39.32000 266.735
39.36000 276.167
39.40000 272.097
39.44000 255.650
39.48000 255.413
39.52000 251.044
39.56000 272.151
39.60000 267.690
39.64000 266.524
39.68000 262.689
39.72000 260.166
39.76000 252.477
39.80000 256.374
39.84000 275.083
39.88000 259.114
39.92000 261.865
39.96000 266.263
40.00000 253.471
40.04000 257.051
40.08000 265.625
40.12000 266.054
40.16000 259.548
40.20000 254.113
40.24000 249.501
40.28000 260.135
40.32000 251.270
40.36000 254.186
40.40000 254.092
40.44000 253.084
40.48000 253.852
40.52000 259.585
40.56000 252.685
40.60000 243.380
40.64000 242.015
40.68000 260.503
40.72000 256.086
40.76000 256.671
40.80000 236.493
40.84000 271.417
40.88000 252.520
40.92000 249.448
40.96000 237.060
41.00000 241.021
41.04000 240.458
41.08000 245.810
41.12000 239.426
41.16000 234.170
41.20000 245.991
41.24000 249.908
41.28000 245.763
41.32000 241.601
41.36000 235.092
41.40000 230.812
41.44000 246.020
41.48000 231.002
41.52000 243.784
41.56000 247.201
41.60000 252.296
41.64000 232.703
41.68000 234.723
41.72000 231.204
41.76000 239.199
41.80000 231.773
41.84000 236.594
41.88000 238.511
41.92000 226.259
41.96000 235.336
42.00000 240.134
42.04000 248.847
42.08000 239.512
42.12000 230.134
42.16000 232.119
42.20000 239.040
42.24000 232.133
42.28000 226.535
42.32000 231.079
42.36000 242.880
42.40000 228.317
42.44000 224.070
42.48000 229.951
42.52000 237.663
42.56000 232.063
42.60000 222.636
42.64000 223.408
42.68000 234.157
42.72000 227.356
42.76000 221.890
42.80000 228.647
42.84000 224.546
42.88000 223.343
42.92000 240.186
42.96000 236.138
43.00000 241.898
43.04000 238.076
43.08000 242.033
43.12000 235.407
43.16000 230.046
43.20000 235.483
43.24000 222.495
43.28000 220.329
43.32000 223.182
43.36000 232.132
43.40000 217.527
43.44000 219.958
43.48000 231.994
43.52000 243.158
43.56000 230.697
43.60000 235.057
43.64000 215.580
43.68000 212.609
43.72000 225.953
43.76000 220.786
43.80000 222.699
43.84000 239.700
43.88000 231.276
43.92000 208.964
43.96000 218.497
44.00000 216.077
44.04000 224.145
44.08000 230.413
44.12000 218.723
44.16000 231.136
44.20000 229.335
44.24000 244.727
44.28000 216.031
44.32000 229.054
44.36000 229.519
44.40000 230.882
44.44000 250.819
44.48000 245.477
44.52000 257.311
44.56000 277.239
44.60000 285.078
44.64000 308.774
44.68000 319.541
44.72000 338.525
44.76000 406.466
44.80000 393.843
44.84000 412.850
44.88000 458.654
44.92000 443.577
44.96000 447.806
45.00000 465.324
45.04000 442.539
45.08000 421.554
45.12000 420.809
45.16000 384.888
45.20000 383.882
45.24000 348.188
45.28000 343.379
45.32000 329.344
45.36000 301.309
45.40000 294.283
45.44000 295.787
45.48000 288.363
45.52000 263.263
45.56000 261.626
45.60000 270.514
45.64000 256.695
45.68000 237.858
45.72000 243.515
45.76000 240.435
45.80000 234.904
45.84000 235.577
45.88000 224.148
45.92000 217.980
45.96000 224.577
46.00000 212.330
46.04000 219.342
46.08000 213.392
46.12000 195.836
46.16000 221.843
46.20000 194.028
46.24000 205.897
46.28000 206.088
46.32000 200.611
46.36000 208.227
46.40000 200.308
46.44000 205.420
46.48000 198.823
46.52000 201.735
46.56000 205.064
46.60000 211.208
46.64000 193.006
46.68000 197.138
46.72000 190.540
46.76000 193.954
46.80000 184.433
46.84000 195.664
46.88000 189.673
46.92000 185.343
46.96000 194.053
47.00000 187.007
47.04000 185.787
47.08000 184.486
47.12000 191.357
47.16000 202.326
47.20000 199.319
47.24000 193.586
47.28000 193.746
47.32000 189.803
47.36000 190.473
47.40000 188.302
47.44000 180.695
47.48000 196.810
47.52000 183.459
47.56000 186.743
47.60000 200.931
47.64000 193.926
47.68000 165.203
47.72000 184.722
47.76000 184.340
47.80000 188.692
47.84000 192.871
47.88000 176.516
47.92000 179.570
47.96000 192.827
48.00000 193.740
48.04000 185.654
48.08000 173.541
48.12000 182.080
48.16000 187.025
48.20000 181.659
48.24000 186.365
48.28000 175.390
48.32000 182.370
48.36000 175.161
48.40000 181.716
48.44000 188.556
48.48000 193.963
48.52000 177.686
48.56000 175.926
48.60000 175.184
48.64000 182.210
48.68000 182.416
48.72000 193.291
48.76000 188.801
48.80000 171.376
48.84000 176.371
48.88000 182.331
48.92000 171.595
48.96000 185.089
49.00000 183.835
49.04000 171.520
49.08000 172.244
49.12000 174.717
49.16000 181.770
49.20000 174.148
49.24000 178.806
49.28000 166.265
49.32000 170.130
49.36000 181.961
49.40000 180.448
49.44000 172.068
49.48000 170.659
49.52000 182.776
49.56000 166.949
49.60000 167.659
49.64000 167.455
49.68000 176.823
49.72000 192.971
49.76000 178.406
49.80000 170.328
49.84000 163.935
49.88000 172.275
49.92000 170.493
49.96000 181.828
50.00000 166.280
50.04000 178.618
50.08000 175.361
50.12000 175.963
50.16000 183.332
50.20000 176.042
50.24000 192.660
50.28000 186.899
50.32000 190.532
50.36000 203.086
50.40000 213.141
50.44000 233.657
50.48000 228.659
50.52000 238.223
50.56000 224.590
50.60000 234.983
50.64000 235.428
50.68000 221.304
50.72000 228.460
50.76000 232.713
50.80000 212.751
50.84000 212.189
50.88000 210.422
50.92000 199.427
50.96000 200.835
51.00000 200.787
51.04000 198.762
51.08000 190.519
51.12000 189.793
51.16000 183.948
51.20000 187.147
51.24000 184.037
51.28000 186.974
51.32000 184.510
51.36000 163.564
51.40000 159.480
51.44000 173.731
51.48000 173.639
51.52000 175.441
51.56000 166.460
51.60000 162.234
51.64000 165.740
51.68000 163.921
51.72000 164.938
51.76000 167.444
51.80000 151.840
51.84000 162.754
51.88000 173.545
51.92000 159.268
51.96000 159.920
52.00000 169.006
52.04000 160.575
52.08000 158.303
52.12000 163.472
52.16000 167.419
52.20000 157.879
52.24000 168.951
52.28000 167.519
52.32000 149.791
52.36000 156.972
52.40000 175.788
52.44000 165.625
52.48000 149.217
52.52000 152.549
52.56000 165.494
52.60000 159.346
52.64000 164.504
52.68000 167.160
52.72000 160.656
52.76000 157.161
52.80000 156.202
52.84000 149.342
52.88000 164.793
52.92000 157.127
52.96000 154.922
53.00000 166.105
53.04000 159.386
53.08000 149.413
53.12000 150.418
53.16000 158.905
53.20000 154.542
53.24000 158.073
53.28000 154.152
53.32000 145.480
53.36000 149.450
53.40000 155.502
53.44000 146.138
53.48000 156.247
53.52000 153.629
53.56000 158.638
53.60000 155.459
53.64000 154.756
53.68000 152.865
53.72000 149.253
53.76000 146.124
53.80000 152.083
53.84000 152.169
53.88000 156.186
53.92000 149.973
53.96000 158.647
54.00000 139.057
54.04000 160.914
54.08000 156.041
54.12000 147.615
54.16000 156.466
54.20000 154.278
54.24000 151.788
54.28000 156.325
54.32000 156.616
54.36000 150.878
54.40000 153.827
54.44000 146.291
54.48000 145.847
54.52000 154.698
54.56000 148.503
54.60000 157.793
54.64000 151.203
54.68000 153.191
54.72000 161.209
54.76000 158.949
54.80000 157.450
54.84000 144.133
54.88000 150.715
54.92000 152.284
54.96000 153.149
55.00000 159.016
55.04000 160.892
55.08000 164.022
55.12000 172.779
55.16000 164.430
55.20000 165.628
55.24000 161.806
55.28000 164.190
55.32000 175.309
55.36000 179.566
55.40000 194.942
55.44000 191.842
55.48000 205.557
55.52000 219.088
55.56000 241.768
55.60000 273.643
55.64000 295.877
55.68000 306.419
55.72000 327.956
55.76000 359.524
55.80000 361.539
55.84000 379.021
55.88000 394.488
55.92000 387.845
55.96000 380.044
56.00000 354.324
56.04000 335.954
56.08000 336.177
56.12000 292.927
56.16000 278.500
56.20000 261.495
56.24000 242.079
56.28000 216.258
56.32000 217.339
56.36000 191.596
56.40000 203.091
56.44000 183.930
56.48000 178.937
56.52000 167.155
56.56000 170.525
56.60000 173.023
56.64000 173.384
56.68000 156.199
56.72000 156.812
56.76000 155.215
56.80000 151.542
56.84000 148.743
56.88000 144.089
56.92000 147.729
56.96000 140.614
57.00000 139.874
57.04000 149.115
57.08000 141.795
57.12000 148.655
57.16000 144.343
57.20000 140.362
57.24000 150.379
57.28000 141.489
57.32000 144.613
57.36000 140.224
57.40000 136.383
57.44000 145.273
57.48000 143.153
57.52000 129.640
57.56000 133.959
57.60000 142.890
57.64000 148.474
57.68000 148.299
57.72000 132.610
57.76000 135.129
57.80000 140.178
57.84000 133.250
57.88000 137.623
57.92000 130.909
57.96000 138.741
58.00000 145.351
58.04000 142.814
58.08000 149.291
58.12000 142.337
58.16000 133.889
58.20000 138.559
58.24000 145.287
58.28000 129.464
58.32000 128.515
58.36000 137.613
58.40000 139.696
58.44000 128.175
58.48000 132.933
58.52000 151.371
58.56000 135.944
58.60000 133.284
58.64000 120.402
58.68000 135.321
58.72000 134.551
58.76000 140.800
58.80000 132.938
58.84000 135.648
58.88000 130.688
58.92000 130.821
58.96000 142.714
59.00000 134.253
59.04000 129.966
59.08000 130.941
59.12000 128.366
59.16000 136.611
59.20000 131.779
59.24000 131.693
59.28000 136.467
59.32000 132.610
59.36000 142.720
59.40000 133.168
59.44000 138.089
59.48000 135.910
59.52000 135.438
59.56000 130.900
59.60000 131.822
59.64000 133.573
59.68000 138.837
59.72000 135.690
59.76000 135.884
59.80000 128.573
59.84000 130.202
59.88000 128.248
59.92000 134.128
59.96000 141.581
60.00000 141.692
60.04000 149.306
60.08000 139.513
60.12000 127.241
60.16000 133.110
60.20000 139.726
60.24000 134.749
60.28000 132.265
60.32000 131.613
60.36000 134.232
60.40000 137.043
60.44000 129.334
60.48000 134.360
60.52000 130.049
60.56000 132.316
60.60000 140.370
60.64000 131.633
60.68000 131.863
60.72000 129.394
60.76000 135.954
60.80000 132.241
60.84000 139.619
60.88000 142.824
60.92000 138.362
60.96000 131.747
61.00000 137.707
61.04000 127.321
61.08000 133.651
61.12000 124.787
61.16000 135.212
61.20000 144.750
61.24000 136.308
61.28000 136.956
61.32000 132.310
61.36000 138.174
61.40000 141.177
61.44000 146.840
61.48000 152.332
61.52000 181.725
61.56000 236.041
61.60000 300.087
61.64000 334.631
61.68000 345.355
61.72000 359.672
61.76000 340.785
61.80000 284.672
61.84000 199.020
61.88000 148.771
61.92000 140.883
61.96000 152.567
62.00000 149.835
62.04000 142.197
62.08000 135.417
62.12000 146.166
62.16000 146.675
62.20000 134.843
62.24000 145.972
62.28000 150.359
62.32000 142.772
62.36000 136.737
62.40000 149.941
62.44000 137.774
62.48000 139.042
62.52000 148.284
62.56000 146.604
62.60000 141.141
62.64000 135.643
62.68000 149.820
62.72000 144.249
62.76000 148.387
62.80000 146.224
62.84000 146.799
62.88000 144.858
62.92000 160.905
62.96000 148.806
63.00000 162.411
63.04000 145.211
63.08000 150.688
63.12000 143.602
63.16000 143.199
63.20000 147.246
63.24000 154.168
63.28000 155.336
63.32000 141.933
63.36000 152.456
63.40000 153.881
63.44000 146.847
63.48000 151.965
63.52000 144.394
63.56000 153.177
63.60000 151.059
63.64000 154.193
63.68000 148.865
63.72000 152.799
63.76000 156.586
63.80000 160.715
63.84000 161.454
63.88000 161.393
63.92000 161.435
63.96000 146.861
64.00000 155.696
64.04000 168.825
64.08000 163.858
64.12000 159.342
64.16000 164.959
64.20000 163.701
64.24000 164.351
64.28000 165.712
64.32000 170.400
64.36000 172.823
64.40000 173.313
64.44000 166.525
64.48000 182.003
64.52000 183.106
64.56000 181.506
64.60000 184.626
64.64000 174.833
64.68000 177.012
64.72000 190.572
64.76000 185.711
64.80000 189.160
64.84000 191.993
64.88000 204.575
64.92000 209.077
64.96000 214.044
65.00000 205.583
65.04000 236.585
65.08000 224.499
65.12000 248.103
65.16000 260.043
65.20000 263.871
65.24000 285.233
65.28000 285.854
65.32000 321.638
65.36000 315.021
65.40000 328.773
65.44000 350.707
65.48000 348.179
65.52000 369.419
65.56000 401.293
65.60000 409.664
65.64000 477.324
65.68000 568.845
65.72000 790.820
65.76000 1119.167
65.80000 1402.101
65.84000 1567.071
65.88000 1609.576
65.92000 1566.105
65.96000 1326.946
66.00000 942.276
66.04000 651.108
66.08000 457.872
66.12000 401.409
66.16000 396.535
66.20000 373.065
66.24000 388.673
66.28000 445.102
66.32000 465.440
66.36000 537.176
66.40000 601.409
66.44000 573.139
66.48000 564.537
66.52000 506.408
66.56000 469.566
66.60000 400.327
66.64000 376.759
66.68000 371.121
66.72000 374.295
66.76000 368.037
66.80000 379.898
66.84000 371.354
66.88000 390.316
66.92000 403.984
66.96000 401.009
67.00000 409.646
67.04000 406.974
67.08000 405.152
67.12000 414.326
67.16000 442.255
67.20000 452.391
67.24000 456.306
67.28000 457.341
67.32000 441.418
67.36000 483.681
67.40000 487.745
67.44000 505.450
67.48000 493.973
67.52000 483.660
67.56000 515.662
67.60000 523.522
67.64000 540.156
67.68000 518.546
67.72000 557.090
67.76000 548.724
67.80000 561.849
67.84000 583.650
67.88000 611.857
67.92000 596.918
67.96000 625.622
68.00000 627.174
68.04000 640.575
68.08000 655.604
68.12000 659.890
68.16000 709.131
68.20000 691.364
68.24000 728.833
68.28000 748.457
68.32000 779.146
68.36000 809.705
68.40000 826.020
68.44000 879.597
68.48000 910.408
68.52000 985.533
68.56000 1080.990
68.60000 1231.932
68.64000 1448.192
68.68000 1737.571
68.72000 2087.827
68.76000 2395.515
68.80000 2719.854
68.84000 3362.302
68.88000 4476.097
68.92000 7872.417
68.96000 19572.814
69.00000 43236.891
69.04000 68628.906
69.08000 82111.352
69.12000 85376.477
69.16000 88803.406
69.20000 88256.094
69.24000 74032.078
69.28000 57298.680
69.32000 46474.375
69.36000 41432.957
69.40000 33755.168
69.44000 21079.953
69.48000 10257.041
69.52000 4420.817
69.56000 2620.607
69.60000 1962.711
69.64000 1647.277
69.68000 1436.731
69.72000 1280.852
69.76000 1127.859
69.80000 1044.871
69.84000 985.409
69.88000 914.768
69.92000 840.791
69.96000 830.612
70.00000 777.637