File: XRD/XRD/25-09-2025/XY Data/BTO_Mapping_Theta2Theta_25-09-2025_001_21_-4-181_39-781.xy
20.00000 565.287
20.04000 564.617
20.08000 560.490
20.12000 561.384
20.16000 567.390
20.20000 562.048
20.24000 540.975
20.28000 548.064
20.32000 558.069
20.36000 532.173
20.40000 541.193
20.44000 533.820
20.48000 555.859
20.52000 552.792
20.56000 527.975
20.60000 550.328
20.64000 553.270
20.68000 544.642
20.72000 566.727
20.76000 538.170
20.80000 556.530
20.84000 555.137
20.88000 544.001
20.92000 541.645
20.96000 541.401
21.00000 547.358
21.04000 516.532
21.08000 546.676
21.12000 543.306
21.16000 555.369
21.20000 547.543
21.24000 529.702
21.28000 527.620
21.32000 536.262
21.36000 534.760
21.40000 537.334
21.44000 555.765
21.48000 535.138
21.52000 527.180
21.56000 551.433
21.60000 551.357
21.64000 533.618
21.68000 546.181
21.72000 560.052
21.76000 536.357
21.80000 549.204
21.84000 554.493
21.88000 573.854
21.92000 593.322
21.96000 579.776
22.00000 581.277
22.04000 602.392
22.08000 606.516
22.12000 619.298
22.16000 612.068
22.20000 636.339
22.24000 627.489
22.28000 599.723
22.32000 607.094
22.36000 565.650
22.40000 593.850
22.44000 570.660
22.48000 546.928
22.52000 553.193
22.56000 527.777
22.60000 517.700
22.64000 525.121
22.68000 528.602
22.72000 512.448
22.76000 514.341
22.80000 512.621
22.84000 520.927
22.88000 517.681
22.92000 511.471
22.96000 499.116
23.00000 504.097
23.04000 500.648
23.08000 493.718
23.12000 512.370
23.16000 510.059
23.20000 470.893
23.24000 499.472
23.28000 484.389
23.32000 527.977
23.36000 492.605
23.40000 504.508
23.44000 505.034
23.48000 477.662
23.52000 486.512
23.56000 506.419
23.60000 492.700
23.64000 505.385
23.68000 510.021
23.72000 502.940
23.76000 486.889
23.80000 497.577
23.84000 485.512
23.88000 483.449
23.92000 476.592
23.96000 493.188
24.00000 476.380
24.04000 508.980
24.08000 488.307
24.12000 492.229
24.16000 504.118
24.20000 496.003
24.24000 487.407
24.28000 472.356
24.32000 478.610
24.36000 490.684
24.40000 487.601
24.44000 467.833
24.48000 472.928
24.52000 471.600
24.56000 483.247
24.60000 483.364
24.64000 481.191
24.68000 472.481
24.72000 467.251
24.76000 463.231
24.80000 458.143
24.84000 469.130
24.88000 461.500
24.92000 467.333
24.96000 465.362
25.00000 470.313
25.04000 467.148
25.08000 473.591
25.12000 471.214
25.16000 467.167
25.20000 444.855
25.24000 454.251
25.28000 478.332
25.32000 470.148
25.36000 465.234
25.40000 456.517
25.44000 455.567
25.48000 450.765
25.52000 461.617
25.56000 466.142
25.60000 455.272
25.64000 451.451
25.68000 455.816
25.72000 453.527
25.76000 453.147
25.80000 449.212
25.84000 466.662
25.88000 465.266
25.92000 461.410
25.96000 439.517
26.00000 468.926
26.04000 454.293
26.08000 445.430
26.12000 444.566
26.16000 454.595
26.20000 463.481
26.24000 454.296
26.28000 442.373
26.32000 437.883
26.36000 443.398
26.40000 448.816
26.44000 468.775
26.48000 458.259
26.52000 442.340
26.56000 440.562
26.60000 437.644
26.64000 446.158
26.68000 433.093
26.72000 430.647
26.76000 439.392
26.80000 433.421
26.84000 430.264
26.88000 430.483
26.92000 444.783
26.96000 450.730
27.00000 431.369
27.04000 433.043
27.08000 435.321
27.12000 437.147
27.16000 427.996
27.20000 438.679
27.24000 445.625
27.28000 423.221
27.32000 450.476
27.36000 433.692
27.40000 431.477
27.44000 434.225
27.48000 430.873
27.52000 439.113
27.56000 430.028
27.60000 445.549
27.64000 418.236
27.68000 424.806
27.72000 422.357
27.76000 440.131
27.80000 427.078
27.84000 422.735
27.88000 407.077
27.92000 407.607
27.96000 414.361
28.00000 404.383
28.04000 413.772
28.08000 413.752
28.12000 418.212
28.16000 416.418
28.20000 416.150
28.24000 425.374
28.28000 399.717
28.32000 425.388
28.36000 410.103
28.40000 431.118
28.44000 408.579
28.48000 413.845
28.52000 431.580
28.56000 416.965
28.60000 392.769
28.64000 396.074
28.68000 412.895
28.72000 410.265
28.76000 406.485
28.80000 385.816
28.84000 408.510
28.88000 399.552
28.92000 405.756
28.96000 409.664
29.00000 411.763
29.04000 399.482
29.08000 403.215
29.12000 398.182
29.16000 408.229
29.20000 406.190
29.24000 404.425
29.28000 396.881
29.32000 411.435
29.36000 399.839
29.40000 408.140
29.44000 385.482
29.48000 404.444
29.52000 406.551
29.56000 402.541
29.60000 419.864
29.64000 387.877
29.68000 398.907
29.72000 404.306
29.76000 391.325
29.80000 394.304
29.84000 404.523
29.88000 406.013
29.92000 410.822
29.96000 393.868
30.00000 412.824
30.04000 400.215
30.08000 412.802
30.12000 397.067
30.16000 403.875
30.20000 395.373
30.24000 401.633
30.28000 409.480
30.32000 402.869
30.36000 397.163
30.40000 404.025
30.44000 397.547
30.48000 397.321
30.52000 399.656
30.56000 404.742
30.60000 403.001
30.64000 402.013
30.68000 400.663
30.72000 396.463
30.76000 413.517
30.80000 411.730
30.84000 422.183
30.88000 437.841
30.92000 439.464
30.96000 453.803
31.00000 472.847
31.04000 494.843
31.08000 529.320
31.12000 584.419
31.16000 646.944
31.20000 753.531
31.24000 872.244
31.28000 1020.112
31.32000 1153.145
31.36000 1239.066
31.40000 1303.934
31.44000 1297.957
31.48000 1219.454
31.52000 1161.990
31.56000 989.404
31.60000 885.397
31.64000 763.203
31.68000 673.886
31.72000 582.417
31.76000 569.349
31.80000 512.102
31.84000 495.751
31.88000 483.370
31.92000 438.221
31.96000 427.628
32.00000 436.568
32.04000 413.576
32.08000 407.010
32.12000 409.248
32.16000 400.240
32.20000 394.890
32.24000 379.948
32.28000 380.261
32.32000 382.743
32.36000 384.917
32.40000 369.868
32.44000 386.251
32.48000 391.530
32.52000 382.266
32.56000 360.736
32.60000 356.770
32.64000 372.439
32.68000 375.414
32.72000 379.348
32.76000 370.220
32.80000 361.904
32.84000 359.451
32.88000 367.073
32.92000 366.852
32.96000 333.233
33.00000 358.301
33.04000 354.321
33.08000 374.088
33.12000 357.982
33.16000 355.863
33.20000 348.642
33.24000 340.173
33.28000 349.069
33.32000 337.789
33.36000 338.353
33.40000 347.637
33.44000 338.022
33.48000 347.621
33.52000 351.604
33.56000 341.884
33.60000 338.776
33.64000 326.629
33.68000 330.037
33.72000 344.438
33.76000 328.825
33.80000 324.536
33.84000 324.859
33.88000 307.203
33.92000 343.626
33.96000 328.775
34.00000 329.821
34.04000 332.665
34.08000 315.595
34.12000 320.677
34.16000 330.351
34.20000 333.075
34.24000 328.466
34.28000 327.251
34.32000 314.253
34.36000 336.340
34.40000 329.673
34.44000 312.954
34.48000 320.021
34.52000 333.160
34.56000 313.088
34.60000 319.103
34.64000 319.065
34.68000 322.453
34.72000 324.299
34.76000 312.306
34.80000 307.809
34.84000 317.728
34.88000 317.052
34.92000 307.777
34.96000 316.161
35.00000 317.260
35.04000 300.612
35.08000 321.476
35.12000 308.179
35.16000 307.641
35.20000 320.300
35.24000 305.781
35.28000 299.698
35.32000 316.357
35.36000 304.964
35.40000 296.606
35.44000 304.426
35.48000 299.363
35.52000 299.833
35.56000 303.362
35.60000 312.325
35.64000 319.641
35.68000 313.685
35.72000 307.237
35.76000 298.076
35.80000 286.955
35.84000 302.432
35.88000 294.704
35.92000 298.218
35.96000 298.934
36.00000 305.010
36.04000 308.335
36.08000 292.869
36.12000 299.237
36.16000 306.388
36.20000 308.561
36.24000 305.444
36.28000 291.308
36.32000 297.958
36.36000 300.012
36.40000 293.256
36.44000 274.291
36.48000 300.447
36.52000 295.569
36.56000 298.565
36.60000 292.922
36.64000 302.552
36.68000 310.163
36.72000 285.767
36.76000 297.617
36.80000 283.213
36.84000 284.352
36.88000 282.224
36.92000 296.335
36.96000 293.706
37.00000 291.662
37.04000 284.323
37.08000 298.251
37.12000 297.847
37.16000 287.049
37.20000 286.725
37.24000 274.995
37.28000 285.151
37.32000 281.901
37.36000 289.181
37.40000 291.974
37.44000 281.688
37.48000 283.007
37.52000 292.910
37.56000 283.734
37.60000 296.967
37.64000 286.366
37.68000 287.238
37.72000 288.180
37.76000 287.054
37.80000 279.247
37.84000 281.407
37.88000 281.068
37.92000 276.178
37.96000 278.395
38.00000 274.049
38.04000 271.129
38.08000 281.415
38.12000 300.827
38.16000 271.330
38.20000 286.012
38.24000 289.287
38.28000 293.104
38.32000 283.596
38.36000 293.603
38.40000 320.583
38.44000 328.335
38.48000 363.212
38.52000 429.826
38.56000 475.817
38.60000 546.250
38.64000 642.201
38.68000 719.588
38.72000 727.478
38.76000 755.137
38.80000 720.629
38.84000 672.700
38.88000 558.100
38.92000 490.228
38.96000 447.266
39.00000 374.650
39.04000 347.565
39.08000 318.333
39.12000 298.361
39.16000 287.126
39.20000 303.256
39.24000 283.022
39.28000 273.588
39.32000 281.067
39.36000 275.547
39.40000 260.266
39.44000 270.429
39.48000 266.850
39.52000 265.071
39.56000 251.404
39.60000 267.385
39.64000 258.401
39.68000 258.404
39.72000 250.110
39.76000 258.733
39.80000 262.521
39.84000 255.033
39.88000 261.442
39.92000 264.905
39.96000 263.379
40.00000 274.486
40.04000 258.327
40.08000 259.171
40.12000 248.937
40.16000 256.996
40.20000 247.644
40.24000 254.362
40.28000 251.672
40.32000 251.285
40.36000 260.438
40.40000 264.200
40.44000 251.228
40.48000 247.444
40.52000 259.507
40.56000 237.951
40.60000 254.330
40.64000 246.065
40.68000 250.348
40.72000 251.525
40.76000 235.613
40.80000 229.210
40.84000 232.784
40.88000 253.987
40.92000 237.393
40.96000 250.534
41.00000 245.827
41.04000 246.012
41.08000 244.202
41.12000 253.826
41.16000 251.345
41.20000 238.918
41.24000 240.150
41.28000 242.937
41.32000 240.572
41.36000 226.522
41.40000 229.739
41.44000 241.204
41.48000 240.976
41.52000 236.525
41.56000 221.183
41.60000 237.252
41.64000 230.270
41.68000 226.821
41.72000 238.445
41.76000 225.863
41.80000 237.373
41.84000 234.200
41.88000 249.459
41.92000 230.458
41.96000 238.326
42.00000 223.095
42.04000 234.130
42.08000 223.427
42.12000 236.182
42.16000 234.840
42.20000 228.988
42.24000 237.377
42.28000 216.170
42.32000 225.032
42.36000 233.576
42.40000 232.889
42.44000 234.122
42.48000 238.518
42.52000 235.144
42.56000 239.961
42.60000 233.329
42.64000 235.246
42.68000 226.396
42.72000 228.149
42.76000 227.929
42.80000 216.855
42.84000 225.583
42.88000 232.558
42.92000 223.483
42.96000 221.898
43.00000 210.645
43.04000 214.401
43.08000 220.833
43.12000 228.534
43.16000 229.074
43.20000 215.958
43.24000 235.718
43.28000 221.262
43.32000 216.577
43.36000 215.947
43.40000 221.244
43.44000 223.190
43.48000 223.680
43.52000 216.833
43.56000 221.580
43.60000 220.269
43.64000 224.475
43.68000 214.575
43.72000 216.856
43.76000 221.027
43.80000 210.958
43.84000 215.013
43.88000 204.578
43.92000 220.374
43.96000 225.634
44.00000 215.741
44.04000 234.669
44.08000 217.039
44.12000 213.603
44.16000 229.302
44.20000 224.361
44.24000 212.876
44.28000 215.454
44.32000 216.643
44.36000 214.497
44.40000 219.273
44.44000 219.302
44.48000 212.197
44.52000 224.462
44.56000 228.954
44.60000 214.650
44.64000 219.463
44.68000 221.191
44.72000 226.655
44.76000 225.380
44.80000 231.831
44.84000 221.764
44.88000 231.487
44.92000 236.663
44.96000 240.746
45.00000 257.553
45.04000 248.143
45.08000 252.492
45.12000 264.786
45.16000 269.960
45.20000 261.449
45.24000 259.113
45.28000 268.174
45.32000 246.396
45.36000 256.730
45.40000 260.140
45.44000 254.279
45.48000 257.282
45.52000 246.257
45.56000 233.475
45.60000 251.912
45.64000 234.263
45.68000 232.093
45.72000 225.337
45.76000 240.813
45.80000 231.939
45.84000 236.003
45.88000 226.144
45.92000 217.263
45.96000 210.165
46.00000 214.346
46.04000 220.261
46.08000 217.996
46.12000 196.758
46.16000 207.792
46.20000 215.391
46.24000 204.462
46.28000 205.354
46.32000 209.599
46.36000 203.475
46.40000 209.656
46.44000 200.962
46.48000 202.568
46.52000 202.954
46.56000 201.909
46.60000 202.479
46.64000 202.416
46.68000 189.600
46.72000 194.953
46.76000 205.854
46.80000 202.407
46.84000 189.370
46.88000 203.350
46.92000 198.468
46.96000 188.348
47.00000 205.159
47.04000 187.777
47.08000 192.791
47.12000 192.781
47.16000 175.203
47.20000 196.121
47.24000 180.506
47.28000 178.970
47.32000 191.092
47.36000 196.437
47.40000 194.328
47.44000 181.155
47.48000 187.535
47.52000 186.404
47.56000 187.852
47.60000 179.445
47.64000 177.352
47.68000 176.600
47.72000 181.360
47.76000 189.176
47.80000 178.522
47.84000 180.743
47.88000 183.819
47.92000 189.645
47.96000 188.830
48.00000 190.913
48.04000 179.355
48.08000 189.154
48.12000 182.313
48.16000 187.866
48.20000 184.258
48.24000 179.668
48.28000 181.760
48.32000 181.097
48.36000 185.887
48.40000 186.821
48.44000 174.032
48.48000 175.574
48.52000 178.803
48.56000 186.767
48.60000 181.975
48.64000 191.146
48.68000 174.605
48.72000 186.638
48.76000 180.873
48.80000 183.183
48.84000 178.877
48.88000 182.393
48.92000 182.351
48.96000 172.995
49.00000 180.240
49.04000 171.322
49.08000 173.997
49.12000 175.554
49.16000 179.984
49.20000 183.665
49.24000 183.898
49.28000 166.858
49.32000 164.258
49.36000 172.632
49.40000 168.159
49.44000 171.572
49.48000 170.809
49.52000 170.993
49.56000 180.051
49.60000 181.130
49.64000 171.577
49.68000 175.840
49.72000 178.674
49.76000 183.027
49.80000 178.300
49.84000 178.972
49.88000 167.612
49.92000 162.869
49.96000 163.098
50.00000 171.734
50.04000 178.330
50.08000 165.976
50.12000 165.890
50.16000 163.291
50.20000 179.992
50.24000 171.775
50.28000 178.838
50.32000 180.230
50.36000 178.683
50.40000 186.655
50.44000 178.600
50.48000 191.979
50.52000 183.196
50.56000 180.929
50.60000 187.555
50.64000 188.233
50.68000 196.481
50.72000 189.886
50.76000 188.512
50.80000 189.705
50.84000 185.450
50.88000 196.034
50.92000 171.529
50.96000 180.891
51.00000 186.185
51.04000 182.307
51.08000 168.388
51.12000 189.044
51.16000 180.917
51.20000 172.757
51.24000 180.255
51.28000 162.422
51.32000 168.772
51.36000 173.376
51.40000 169.816
51.44000 161.191
51.48000 173.755
51.52000 164.853
51.56000 163.892
51.60000 160.358
51.64000 157.408
51.68000 159.494
51.72000 170.335
51.76000 162.979
51.80000 165.109
51.84000 167.811
51.88000 163.900
51.92000 157.435
51.96000 168.336
52.00000 165.920
52.04000 159.311
52.08000 161.318
52.12000 159.787
52.16000 155.191
52.20000 163.897
52.24000 155.330
52.28000 160.517
52.32000 154.417
52.36000 159.467
52.40000 158.785
52.44000 152.020
52.48000 153.655
52.52000 147.895
52.56000 154.087
52.60000 151.280
52.64000 143.620
52.68000 153.404
52.72000 155.739
52.76000 157.116
52.80000 156.284
52.84000 153.966
52.88000 150.680
52.92000 154.471
52.96000 149.234
53.00000 155.189
53.04000 156.341
53.08000 152.852
53.12000 161.444
53.16000 161.089
53.20000 152.920
53.24000 157.651
53.28000 161.229
53.32000 162.075
53.36000 152.237
53.40000 162.686
53.44000 159.474
53.48000 163.469
53.52000 155.927
53.56000 151.901
53.60000 153.965
53.64000 157.077
53.68000 165.169
53.72000 155.852
53.76000 163.187
53.80000 152.908
53.84000 155.431
53.88000 154.081
53.92000 158.793
53.96000 152.833
54.00000 155.877
54.04000 157.940
54.08000 146.710
54.12000 156.996
54.16000 158.631
54.20000 153.564
54.24000 152.449
54.28000 167.813
54.32000 153.834
54.36000 147.255
54.40000 148.841
54.44000 153.247
54.48000 145.628
54.52000 164.003
54.56000 149.010
54.60000 147.157
54.64000 150.628
54.68000 148.544
54.72000 141.769
54.76000 154.036
54.80000 145.420
54.84000 154.908
54.88000 155.886
54.92000 147.481
54.96000 146.353
55.00000 149.947
55.04000 148.089
55.08000 144.483
55.12000 156.328
55.16000 150.664
55.20000 153.918
55.24000 155.230
55.28000 155.851
55.32000 159.665
55.36000 151.903
55.40000 163.229
55.44000 165.488
55.48000 174.054
55.52000 180.480
55.56000 176.290
55.60000 190.435
55.64000 197.031
55.68000 228.776
55.72000 248.294
55.76000 272.152
55.80000 303.464
55.84000 344.361
55.88000 370.853
55.92000 414.498
55.96000 421.959
56.00000 449.443
56.04000 419.675
56.08000 394.643
56.12000 392.679
56.16000 347.840
56.20000 319.355
56.24000 269.377
56.28000 246.829
56.32000 218.529
56.36000 212.089
56.40000 191.164
56.44000 172.461
56.48000 175.730
56.52000 169.491
56.56000 162.950
56.60000 158.100
56.64000 159.783
56.68000 153.140
56.72000 164.025
56.76000 154.772
56.80000 154.666
56.84000 144.878
56.88000 146.024
56.92000 140.380
56.96000 136.483
57.00000 141.681
57.04000 150.038
57.08000 140.608
57.12000 142.797
57.16000 149.226
57.20000 137.039
57.24000 146.637
57.28000 141.504
57.32000 139.029
57.36000 133.512
57.40000 140.232
57.44000 141.509
57.48000 137.126
57.52000 143.675
57.56000 137.862
57.60000 152.706
57.64000 138.839
57.68000 135.206
57.72000 135.578
57.76000 143.559
57.80000 130.405
57.84000 137.331
57.88000 131.269
57.92000 141.313
57.96000 137.345
58.00000 138.204
58.04000 132.129
58.08000 137.212
58.12000 139.389
58.16000 142.078
58.20000 143.026
58.24000 132.088
58.28000 132.178
58.32000 135.923
58.36000 140.073
58.40000 125.262
58.44000 148.119
58.48000 137.511
58.52000 143.989
58.56000 144.029
58.60000 140.817
58.64000 139.030
58.68000 132.344
58.72000 135.042
58.76000 143.973
58.80000 135.961
58.84000 140.904
58.88000 135.311
58.92000 140.435
58.96000 133.313
59.00000 127.407
59.04000 125.849
59.08000 142.643
59.12000 127.775
59.16000 130.188
59.20000 131.846
59.24000 126.963
59.28000 130.146
59.32000 127.080
59.36000 136.553
59.40000 131.142
59.44000 137.529
59.48000 136.999
59.52000 131.279
59.56000 132.118
59.60000 131.048
59.64000 129.985
59.68000 128.302
59.72000 143.023
59.76000 140.389
59.80000 129.393
59.84000 133.607
59.88000 126.423
59.92000 125.381
59.96000 128.067
60.00000 142.413
60.04000 123.584
60.08000 121.302
60.12000 139.821
60.16000 139.663
60.20000 124.759
60.24000 126.431
60.28000 132.436
60.32000 124.746
60.36000 143.379
60.40000 131.867
60.44000 128.271
60.48000 137.626
60.52000 130.188
60.56000 132.906
60.60000 131.131
60.64000 141.408
60.68000 133.231
60.72000 137.513
60.76000 137.152
60.80000 135.161
60.84000 143.363
60.88000 134.820
60.92000 146.877
60.96000 135.866
61.00000 140.882
61.04000 131.924
61.08000 129.091
61.12000 134.566
61.16000 135.290
61.20000 135.314
61.24000 131.525
61.28000 133.737
61.32000 141.138
61.36000 148.027
61.40000 138.214
61.44000 145.601
61.48000 150.254
61.52000 170.104
61.56000 197.589
61.60000 219.134
61.64000 253.804
61.68000 264.840
61.72000 265.958
61.76000 262.311
61.80000 219.533
61.84000 180.316
61.88000 152.837
61.92000 151.403
61.96000 149.585
62.00000 147.343
62.04000 141.714
62.08000 141.413
62.12000 142.191
62.16000 139.387
62.20000 145.161
62.24000 147.467
62.28000 136.546
62.32000 140.364
62.36000 136.031
62.40000 134.225
62.44000 142.913
62.48000 144.015
62.52000 143.714
62.56000 138.779
62.60000 140.457
62.64000 141.647
62.68000 129.183
62.72000 142.659
62.76000 141.647
62.80000 136.534
62.84000 141.612
62.88000 157.118
62.92000 138.972
62.96000 135.380
63.00000 132.382
63.04000 143.932
63.08000 145.886
63.12000 155.273
63.16000 147.709
63.20000 144.288
63.24000 143.539
63.28000 143.832
63.32000 146.465
63.36000 149.986
63.40000 148.001
63.44000 149.235
63.48000 152.005
63.52000 148.775
63.56000 147.981
63.60000 151.020
63.64000 157.105
63.68000 151.630
63.72000 160.164
63.76000 154.582
63.80000 149.947
63.84000 153.351
63.88000 154.672
63.92000 150.922
63.96000 151.788
64.00000 149.412
64.04000 164.304
64.08000 151.096
64.12000 157.990
64.16000 158.188
64.20000 158.712
64.24000 162.894
64.28000 149.934
64.32000 160.454
64.36000 158.131
64.40000 177.497
64.44000 170.206
64.48000 150.249
64.52000 165.758
64.56000 180.454
64.60000 166.178
64.64000 162.848
64.68000 170.551
64.72000 171.424
64.76000 183.241
64.80000 185.873
64.84000 180.342
64.88000 193.111
64.92000 181.725
64.96000 189.423
65.00000 181.539
65.04000 188.828
65.08000 172.537
65.12000 186.113
65.16000 210.550
65.20000 215.679
65.24000 211.097
65.28000 205.561
65.32000 218.703
65.36000 234.090
65.40000 245.970
65.44000 248.935
65.48000 258.275
65.52000 262.526
65.56000 284.056
65.60000 287.921
65.64000 324.187
65.68000 399.998
65.72000 540.111
65.76000 733.651
65.80000 934.524
65.84000 1041.929
65.88000 1073.202
65.92000 1017.275
65.96000 873.368
66.00000 646.412
66.04000 463.281
66.08000 354.549
66.12000 317.260
66.16000 317.755
66.20000 322.030
66.24000 320.246
66.28000 340.831
66.32000 392.097
66.36000 431.166
66.40000 442.272
66.44000 457.850
66.48000 451.327
66.52000 420.515
66.56000 371.558
66.60000 344.179
66.64000 334.631
66.68000 317.519
66.72000 338.438
66.76000 321.076
66.80000 333.624
66.84000 328.149
66.88000 334.610
66.92000 346.253
66.96000 347.167
67.00000 355.665
67.04000 354.005
67.08000 367.241
67.12000 383.154
67.16000 368.318
67.20000 362.799
67.24000 388.150
67.28000 391.179
67.32000 397.392
67.36000 405.493
67.40000 416.317
67.44000 422.517
67.48000 431.181
67.52000 426.771
67.56000 434.254
67.60000 433.659
67.64000 452.435
67.68000 448.489
67.72000 473.181
67.76000 476.976
67.80000 497.956
67.84000 513.105
67.88000 491.212
67.92000 500.019
67.96000 514.678
68.00000 527.478
68.04000 551.689
68.08000 576.685
68.12000 561.305
68.16000 561.906
68.20000 594.800
68.24000 610.073
68.28000 635.462
68.32000 659.698
68.36000 684.833
68.40000 696.367
68.44000 717.272
68.48000 775.243
68.52000 814.823
68.56000 887.193
68.60000 987.452
68.64000 1136.254
68.68000 1343.088
68.72000 1560.575
68.76000 1796.659
68.80000 2029.857
68.84000 2281.499
68.88000 2887.242
68.92000 4692.362
68.96000 11778.384
69.00000 27172.404
69.04000 43641.340
69.08000 52278.613
69.12000 53934.859
69.16000 56242.477
69.20000 56894.027
69.24000 47209.148
69.28000 35922.094
69.32000 29429.564
69.36000 26482.037
69.40000 22184.094
69.44000 13504.104
69.48000 6403.272
69.52000 2874.969
69.56000 1828.011
69.60000 1492.601
69.64000 1261.372
69.68000 1109.063
69.72000 1014.283
69.76000 920.912
69.80000 815.831
69.84000 780.125
69.88000 758.410
69.92000 725.758
69.96000 685.298
70.00000 654.396