File: XRD/XRD/25-09-2025/XY Data/BTO_Mapping_Theta2Theta_25-09-2025_001_55_13-383_-14-863.xy
20.00000 558.027
20.04000 576.953
20.08000 547.413
20.12000 569.695
20.16000 538.368
20.20000 523.938
20.24000 550.864
20.28000 540.459
20.32000 546.119
20.36000 548.504
20.40000 567.972
20.44000 539.554
20.48000 546.088
20.52000 562.027
20.56000 556.425
20.60000 545.729
20.64000 515.486
20.68000 547.794
20.72000 542.733
20.76000 532.753
20.80000 521.469
20.84000 526.972
20.88000 546.916
20.92000 531.136
20.96000 544.699
21.00000 538.823
21.04000 552.325
21.08000 533.648
21.12000 557.252
21.16000 549.992
21.20000 553.239
21.24000 532.220
21.28000 541.582
21.32000 545.162
21.36000 562.910
21.40000 540.258
21.44000 525.990
21.48000 534.824
21.52000 548.065
21.56000 544.838
21.60000 555.470
21.64000 550.608
21.68000 564.677
21.72000 549.763
21.76000 558.354
21.80000 560.461
21.84000 552.894
21.88000 586.930
21.92000 570.648
21.96000 600.886
22.00000 598.837
22.04000 621.611
22.08000 608.593
22.12000 595.028
22.16000 597.132
22.20000 627.036
22.24000 617.362
22.28000 627.699
22.32000 614.537
22.36000 607.120
22.40000 561.058
22.44000 571.865
22.48000 571.691
22.52000 539.961
22.56000 540.679
22.60000 519.370
22.64000 537.860
22.68000 518.741
22.72000 511.977
22.76000 504.325
22.80000 502.248
22.84000 516.094
22.88000 525.890
22.92000 511.753
22.96000 487.013
23.00000 502.510
23.04000 518.143
23.08000 514.902
23.12000 497.489
23.16000 497.764
23.20000 512.472
23.24000 505.668
23.28000 499.467
23.32000 484.899
23.36000 497.219
23.40000 502.692
23.44000 506.161
23.48000 491.028
23.52000 520.501
23.56000 493.981
23.60000 500.541
23.64000 507.806
23.68000 497.351
23.72000 469.692
23.76000 477.208
23.80000 486.825
23.84000 504.568
23.88000 500.233
23.92000 490.568
23.96000 476.379
24.00000 502.141
24.04000 492.587
24.08000 474.256
24.12000 488.594
24.16000 495.732
24.20000 487.293
24.24000 486.258
24.28000 484.963
24.32000 492.336
24.36000 459.086
24.40000 479.222
24.44000 476.534
24.48000 487.166
24.52000 479.292
24.56000 487.472
24.60000 479.918
24.64000 470.122
24.68000 478.144
24.72000 477.086
24.76000 450.983
24.80000 461.747
24.84000 466.637
24.88000 468.536
24.92000 462.536
24.96000 482.105
25.00000 480.629
25.04000 473.399
25.08000 474.389
25.12000 461.535
25.16000 474.815
25.20000 451.993
25.24000 454.667
25.28000 439.513
25.32000 461.470
25.36000 464.331
25.40000 485.463
25.44000 450.985
25.48000 453.144
25.52000 488.947
25.56000 465.537
25.60000 435.343
25.64000 449.844
25.68000 437.609
25.72000 460.634
25.76000 461.593
25.80000 455.358
25.84000 445.098
25.88000 463.315
25.92000 439.614
25.96000 448.673
26.00000 452.418
26.04000 457.685
26.08000 450.480
26.12000 452.153
26.16000 466.502
26.20000 449.540
26.24000 434.243
26.28000 450.760
26.32000 452.808
26.36000 444.214
26.40000 429.274
26.44000 454.323
26.48000 442.738
26.52000 455.320
26.56000 439.285
26.60000 435.220
26.64000 454.532
26.68000 424.470
26.72000 437.856
26.76000 441.489
26.80000 446.403
26.84000 450.291
26.88000 444.189
26.92000 443.787
26.96000 424.082
27.00000 448.104
27.04000 419.215
27.08000 428.945
27.12000 425.401
27.16000 434.062
27.20000 437.293
27.24000 440.719
27.28000 430.113
27.32000 439.543
27.36000 424.138
27.40000 439.931
27.44000 435.757
27.48000 433.045
27.52000 423.487
27.56000 410.673
27.60000 424.324
27.64000 425.355
27.68000 417.791
27.72000 430.650
27.76000 414.352
27.80000 426.749
27.84000 428.378
27.88000 428.724
27.92000 413.176
27.96000 397.627
28.00000 424.260
28.04000 426.186
28.08000 400.116
28.12000 407.041
28.16000 408.259
28.20000 420.547
28.24000 419.805
28.28000 405.832
28.32000 420.550
28.36000 417.123
28.40000 414.385
28.44000 412.480
28.48000 427.975
28.52000 416.896
28.56000 425.889
28.60000 413.960
28.64000 413.593
28.68000 400.565
28.72000 399.667
28.76000 417.208
28.80000 385.605
28.84000 425.355
28.88000 417.316
28.92000 414.322
28.96000 425.515
29.00000 407.838
29.04000 413.070
29.08000 395.354
29.12000 404.113
29.16000 402.096
29.20000 402.354
29.24000 420.834
29.28000 407.558
29.32000 414.912
29.36000 405.717
29.40000 403.336
29.44000 410.487
29.48000 405.407
29.52000 391.612
29.56000 401.414
29.60000 408.307
29.64000 404.269
29.68000 397.976
29.72000 410.755
29.76000 387.822
29.80000 418.388
29.84000 429.824
29.88000 415.791
29.92000 407.818
29.96000 406.951
30.00000 401.958
30.04000 398.151
30.08000 405.265
30.12000 395.145
30.16000 414.173
30.20000 402.568
30.24000 408.607
30.28000 390.466
30.32000 383.584
30.36000 403.998
30.40000 388.261
30.44000 398.752
30.48000 403.420
30.52000 395.534
30.56000 406.335
30.60000 393.725
30.64000 401.744
30.68000 396.422
30.72000 406.905
30.76000 418.769
30.80000 405.915
30.84000 415.326
30.88000 438.118
30.92000 447.885
30.96000 447.432
31.00000 479.097
31.04000 496.981
31.08000 547.233
31.12000 636.974
31.16000 694.400
31.20000 792.244
31.24000 915.164
31.28000 1072.379
31.32000 1200.198
31.36000 1254.390
31.40000 1348.440
31.44000 1259.644
31.48000 1212.641
31.52000 1046.478
31.56000 938.665
31.60000 817.183
31.64000 729.295
31.68000 625.799
31.72000 552.349
31.76000 519.306
31.80000 489.666
31.84000 478.130
31.88000 444.424
31.92000 451.200
31.96000 413.255
32.00000 415.791
32.04000 417.341
32.08000 412.376
32.12000 394.645
32.16000 379.844
32.20000 381.492
32.24000 378.723
32.28000 382.855
32.32000 396.980
32.36000 380.882
32.40000 367.274
32.44000 369.309
32.48000 362.882
32.52000 353.060
32.56000 368.843
32.60000 365.250
32.64000 354.957
32.68000 367.850
32.72000 368.241
32.76000 353.368
32.80000 355.990
32.84000 359.498
32.88000 371.155
32.92000 365.534
32.96000 376.164
33.00000 361.431
33.04000 344.983
33.08000 349.782
33.12000 327.253
33.16000 333.990
33.20000 327.279
33.24000 333.437
33.28000 345.005
33.32000 337.035
33.36000 347.572
33.40000 348.697
33.44000 336.369
33.48000 338.658
33.52000 334.391
33.56000 318.813
33.60000 333.076
33.64000 345.211
33.68000 332.922
33.72000 335.363
33.76000 325.861
33.80000 346.814
33.84000 332.960
33.88000 326.254
33.92000 318.440
33.96000 330.069
34.00000 335.821
34.04000 331.905
34.08000 317.884
34.12000 327.555
34.16000 312.802
34.20000 325.278
34.24000 333.912
34.28000 334.722
34.32000 318.948
34.36000 325.647
34.40000 325.593
34.44000 336.634
34.48000 320.140
34.52000 346.857
34.56000 310.024
34.60000 316.790
34.64000 325.071
34.68000 319.667
34.72000 305.511
34.76000 321.661
34.80000 323.618
34.84000 315.651
34.88000 312.473
34.92000 311.983
34.96000 329.478
35.00000 321.885
35.04000 330.923
35.08000 323.059
35.12000 315.876
35.16000 312.610
35.20000 312.239
35.24000 295.039
35.28000 308.966
35.32000 301.976
35.36000 311.727
35.40000 306.428
35.44000 299.203
35.48000 296.548
35.52000 298.542
35.56000 312.581
35.60000 296.770
35.64000 300.580
35.68000 307.861
35.72000 290.137
35.76000 287.810
35.80000 296.994
35.84000 304.557
35.88000 296.057
35.92000 304.982
35.96000 322.286
36.00000 301.007
36.04000 290.333
36.08000 301.341
36.12000 290.939
36.16000 284.960
36.20000 295.569
36.24000 288.891
36.28000 303.017
36.32000 296.284
36.36000 293.709
36.40000 282.640
36.44000 287.389
36.48000 282.102
36.52000 292.754
36.56000 299.126
36.60000 286.864
36.64000 290.469
36.68000 273.283
36.72000 283.236
36.76000 285.964
36.80000 302.646
36.84000 290.593
36.88000 300.918
36.92000 284.664
36.96000 280.311
37.00000 282.050
37.04000 304.097
37.08000 289.345
37.12000 296.343
37.16000 295.128
37.20000 279.557
37.24000 284.647
37.28000 284.111
37.32000 290.981
37.36000 286.185
37.40000 274.324
37.44000 287.331
37.48000 293.230
37.52000 278.959
37.56000 289.057
37.60000 295.792
37.64000 278.140
37.68000 292.679
37.72000 282.604
37.76000 284.887
37.80000 284.562
37.84000 292.269
37.88000 283.651
37.92000 286.524
37.96000 287.902
38.00000 281.645
38.04000 294.321
38.08000 278.602
38.12000 271.872
38.16000 277.387
38.20000 299.277
38.24000 288.859
38.28000 295.488
38.32000 291.552
38.36000 332.467
38.40000 335.117
38.44000 349.217
38.48000 392.849
38.52000 465.366
38.56000 513.546
38.60000 603.618
38.64000 693.058
38.68000 783.230
38.72000 790.578
38.76000 789.640
38.80000 783.232
38.84000 725.040
38.88000 611.900
38.92000 527.080
38.96000 444.722
39.00000 390.411
39.04000 362.729
39.08000 332.683
39.12000 304.963
39.16000 303.399
39.20000 297.545
39.24000 274.414
39.28000 264.367
39.32000 269.420
39.36000 266.713
39.40000 262.426
39.44000 264.516
39.48000 269.574
39.52000 276.053
39.56000 268.205
39.60000 270.502
39.64000 262.520
39.68000 258.173
39.72000 258.451
39.76000 250.938
39.80000 272.078
39.84000 251.510
39.88000 256.240
39.92000 266.119
39.96000 264.567
40.00000 263.466
40.04000 254.748
40.08000 261.087
40.12000 251.171
40.16000 251.448
40.20000 252.576
40.24000 257.037
40.28000 240.218
40.32000 242.536
40.36000 251.059
40.40000 251.599
40.44000 255.445
40.48000 248.419
40.52000 242.840
40.56000 241.363
40.60000 247.287
40.64000 245.122
40.68000 238.632
40.72000 246.913
40.76000 240.378
40.80000 240.270
40.84000 267.407
40.88000 237.762
40.92000 238.602
40.96000 243.410
41.00000 234.103
41.04000 245.421
41.08000 231.516
41.12000 240.795
41.16000 248.395
41.20000 249.516
41.24000 228.447
41.28000 230.819
41.32000 249.306
41.36000 234.245
41.40000 249.327
41.44000 244.398
41.48000 236.710
41.52000 240.334
41.56000 239.214
41.60000 235.927
41.64000 238.477
41.68000 218.556
41.72000 232.487
41.76000 225.515
41.80000 231.173
41.84000 229.278
41.88000 238.445
41.92000 242.998
41.96000 216.482
42.00000 236.036
42.04000 233.355
42.08000 230.463
42.12000 232.334
42.16000 228.153
42.20000 219.835
42.24000 224.653
42.28000 230.178
42.32000 241.347
42.36000 239.203
42.40000 231.922
42.44000 237.079
42.48000 215.831
42.52000 230.811
42.56000 236.463
42.60000 212.610
42.64000 220.825
42.68000 228.296
42.72000 221.461
42.76000 226.159
42.80000 213.954
42.84000 217.570
42.88000 219.645
42.92000 217.035
42.96000 221.107
43.00000 210.789
43.04000 236.314
43.08000 215.692
43.12000 210.412
43.16000 215.473
43.20000 228.334
43.24000 218.184
43.28000 213.808
43.32000 224.734
43.36000 219.435
43.40000 220.525
43.44000 220.827
43.48000 222.179
43.52000 227.960
43.56000 220.628
43.60000 227.255
43.64000 227.791
43.68000 215.989
43.72000 220.844
43.76000 222.421
43.80000 220.064
43.84000 222.018
43.88000 212.704
43.92000 210.815
43.96000 215.486
44.00000 223.304
44.04000 218.171
44.08000 217.196
44.12000 214.713
44.16000 214.255
44.20000 213.889
44.24000 207.934
44.28000 221.674
44.32000 210.447
44.36000 205.390
44.40000 211.768
44.44000 214.909
44.48000 223.276
44.52000 229.847
44.56000 200.068
44.60000 219.925
44.64000 213.796
44.68000 221.310
44.72000 227.942
44.76000 230.701
44.80000 241.578
44.84000 234.531
44.88000 238.319
44.92000 233.456
44.96000 236.936
45.00000 242.795
45.04000 251.044
45.08000 256.191
45.12000 254.076
45.16000 261.684
45.20000 268.502
45.24000 272.162
45.28000 267.770
45.32000 267.211
45.36000 240.416
45.40000 260.160
45.44000 244.200
45.48000 247.507
45.52000 252.554
45.56000 257.573
45.60000 258.303
45.64000 245.399
45.68000 227.862
45.72000 250.621
45.76000 248.078
45.80000 236.814
45.84000 235.129
45.88000 225.477
45.92000 226.137
45.96000 223.780
46.00000 221.480
46.04000 214.646
46.08000 213.594
46.12000 219.931
46.16000 203.258
46.20000 203.867
46.24000 222.853
46.28000 201.045
46.32000 212.892
46.36000 192.764
46.40000 212.383
46.44000 189.865
46.48000 195.465
46.52000 199.007
46.56000 200.159
46.60000 192.978
46.64000 193.543
46.68000 198.706
46.72000 201.063
46.76000 201.115
46.80000 186.950
46.84000 193.079
46.88000 197.667
46.92000 200.494
46.96000 187.645
47.00000 194.871
47.04000 199.492
47.08000 207.691
47.12000 187.810
47.16000 166.585
47.20000 187.505
47.24000 188.070
47.28000 184.047
47.32000 197.812
47.36000 185.318
47.40000 178.602
47.44000 190.803
47.48000 192.491
47.52000 190.914
47.56000 180.011
47.60000 193.584
47.64000 193.336
47.68000 183.917
47.72000 185.933
47.76000 180.062
47.80000 181.298
47.84000 187.335
47.88000 169.282
47.92000 186.690
47.96000 183.858
48.00000 189.377
48.04000 188.023
48.08000 184.501
48.12000 182.853
48.16000 176.485
48.20000 180.948
48.24000 183.306
48.28000 196.279
48.32000 183.742
48.36000 180.088
48.40000 174.379
48.44000 181.976
48.48000 173.989
48.52000 177.387
48.56000 178.418
48.60000 181.559
48.64000 188.263
48.68000 183.011
48.72000 179.941
48.76000 176.962
48.80000 182.927
48.84000 178.317
48.88000 172.674
48.92000 186.405
48.96000 172.391
49.00000 173.450
49.04000 171.792
49.08000 179.693
49.12000 169.846
49.16000 168.228
49.20000 169.113
49.24000 170.769
49.28000 168.857
49.32000 178.900
49.36000 169.241
49.40000 169.240
49.44000 176.714
49.48000 175.967
49.52000 179.014
49.56000 169.584
49.60000 166.785
49.64000 173.116
49.68000 171.619
49.72000 177.719
49.76000 171.891
49.80000 174.014
49.84000 158.716
49.88000 175.697
49.92000 163.694
49.96000 173.314
50.00000 179.848
50.04000 175.129
50.08000 168.840
50.12000 169.534
50.16000 186.670
50.20000 181.102
50.24000 171.411
50.28000 173.905
50.32000 167.543
50.36000 178.022
50.40000 179.921
50.44000 172.683
50.48000 184.699
50.52000 176.522
50.56000 192.835
50.60000 191.777
50.64000 205.047
50.68000 191.718
50.72000 191.231
50.76000 202.095
50.80000 202.347
50.84000 202.360
50.88000 185.216
50.92000 185.609
50.96000 181.989
51.00000 171.976
51.04000 173.035
51.08000 178.039
51.12000 169.310
51.16000 165.039
51.20000 164.727
51.24000 172.945
51.28000 163.485
51.32000 171.145
51.36000 179.260
51.40000 177.508
51.44000 162.110
51.48000 164.795
51.52000 154.711
51.56000 154.710
51.60000 158.783
51.64000 153.235
51.68000 152.130
51.72000 169.076
51.76000 165.198
51.80000 157.475
51.84000 158.298
51.88000 153.372
51.92000 165.799
51.96000 163.210
52.00000 149.630
52.04000 148.382
52.08000 143.222
52.12000 165.817
52.16000 158.439
52.20000 166.275
52.24000 161.844
52.28000 163.130
52.32000 165.556
52.36000 145.477
52.40000 160.292
52.44000 161.892
52.48000 155.688
52.52000 158.740
52.56000 153.223
52.60000 155.637
52.64000 149.243
52.68000 149.894
52.72000 169.607
52.76000 161.313
52.80000 159.650
52.84000 154.203
52.88000 155.093
52.92000 153.076
52.96000 172.775
53.00000 151.280
53.04000 153.522
53.08000 158.734
53.12000 149.376
53.16000 151.721
53.20000 157.715
53.24000 159.190
53.28000 155.673
53.32000 154.586
53.36000 148.504
53.40000 159.953
53.44000 156.461
53.48000 165.752
53.52000 156.985
53.56000 159.222
53.60000 148.849
53.64000 159.316
53.68000 155.045
53.72000 144.970
53.76000 155.564
53.80000 155.052
53.84000 152.629
53.88000 149.337
53.92000 150.616
53.96000 145.743
54.00000 153.298
54.04000 154.361
54.08000 150.516
54.12000 157.253
54.16000 149.618
54.20000 144.649
54.24000 147.088
54.28000 164.054
54.32000 149.442
54.36000 152.765
54.40000 147.259
54.44000 151.723
54.48000 155.968
54.52000 147.249
54.56000 151.425
54.60000 152.830
54.64000 150.867
54.68000 162.039
54.72000 141.532
54.76000 147.732
54.80000 145.401
54.84000 155.393
54.88000 145.555
54.92000 137.520
54.96000 150.755
55.00000 153.886
55.04000 159.872
55.08000 151.365
55.12000 145.753
55.16000 163.825
55.20000 154.096
55.24000 160.183
55.28000 156.208
55.32000 173.378
55.36000 164.955
55.40000 164.771
55.44000 170.983
55.48000 174.084
55.52000 182.467
55.56000 195.430
55.60000 204.650
55.64000 241.828
55.68000 251.320
55.72000 281.788
55.76000 324.354
55.80000 355.216
55.84000 393.901
55.88000 422.306
55.92000 457.993
55.96000 454.501
56.00000 467.895
56.04000 465.638
56.08000 437.818
56.12000 404.544
56.16000 368.395
56.20000 338.145
56.24000 299.397
56.28000 273.320
56.32000 241.330
56.36000 225.293
56.40000 212.900
56.44000 196.710
56.48000 188.660
56.52000 168.766
56.56000 160.148
56.60000 154.673
56.64000 167.353
56.68000 163.676
56.72000 144.158
56.76000 139.650
56.80000 135.551
56.84000 149.115
56.88000 144.853
56.92000 157.992
56.96000 142.348
57.00000 148.150
57.04000 154.225
57.08000 145.493
57.12000 141.088
57.16000 143.478
57.20000 137.928
57.24000 147.854
57.28000 145.544
57.32000 144.871
57.36000 146.927
57.40000 125.369
57.44000 144.619
57.48000 148.900
57.52000 137.629
57.56000 139.896
57.60000 136.257
57.64000 136.906
57.68000 142.080
57.72000 151.635
57.76000 142.001
57.80000 130.281
57.84000 147.086
57.88000 153.014
57.92000 139.359
57.96000 141.233
58.00000 136.269
58.04000 146.732
58.08000 135.199
58.12000 127.170
58.16000 147.487
58.20000 141.793
58.24000 136.582
58.28000 147.491
58.32000 123.726
58.36000 135.616
58.40000 128.127
58.44000 140.447
58.48000 132.374
58.52000 134.311
58.56000 138.872
58.60000 132.748
58.64000 140.847
58.68000 144.496
58.72000 140.310
58.76000 136.097
58.80000 137.318
58.84000 135.285
58.88000 132.873
58.92000 129.548
58.96000 131.630
59.00000 138.220
59.04000 132.852
59.08000 127.258
59.12000 133.714
59.16000 128.410
59.20000 135.723
59.24000 138.190
59.28000 132.385
59.32000 128.402
59.36000 135.221
59.40000 140.294
59.44000 133.998
59.48000 135.503
59.52000 133.243
59.56000 131.717
59.60000 127.992
59.64000 129.738
59.68000 131.554
59.72000 131.637
59.76000 126.524
59.80000 134.473
59.84000 125.789
59.88000 124.766
59.92000 127.025
59.96000 127.097
60.00000 130.782
60.04000 133.018
60.08000 135.670
60.12000 121.545
60.16000 124.578
60.20000 131.751
60.24000 134.334
60.28000 135.373
60.32000 135.013
60.36000 129.284
60.40000 131.267
60.44000 138.125
60.48000 130.124
60.52000 132.746
60.56000 128.350
60.60000 129.467
60.64000 136.918
60.68000 133.198
60.72000 136.193
60.76000 144.562
60.80000 122.676
60.84000 131.226
60.88000 140.493
60.92000 134.466
60.96000 140.414
61.00000 128.396
61.04000 124.319
61.08000 132.850
61.12000 144.204
61.16000 139.635
61.20000 133.988
61.24000 136.856
61.28000 139.202
61.32000 139.567
61.36000 138.622
61.40000 141.099
61.44000 153.228
61.48000 142.939
61.52000 157.218
61.56000 192.822
61.60000 227.093
61.64000 264.695
61.68000 270.622
61.72000 273.019
61.76000 260.261
61.80000 215.199
61.84000 182.474
61.88000 173.411
61.92000 148.859
61.96000 146.062
62.00000 135.643
62.04000 146.051
62.08000 134.983
62.12000 137.214
62.16000 143.635
62.20000 133.690
62.24000 140.041
62.28000 137.091
62.32000 129.240
62.36000 139.931
62.40000 132.427
62.44000 138.278
62.48000 138.164
62.52000 138.161
62.56000 138.874
62.60000 138.392
62.64000 139.521
62.68000 132.810
62.72000 136.455
62.76000 134.506
62.80000 140.910
62.84000 140.057
62.88000 129.102
62.92000 147.003
62.96000 132.669
63.00000 147.794
63.04000 141.415
63.08000 143.005
63.12000 149.143
63.16000 139.294
63.20000 139.784
63.24000 145.556
63.28000 142.279
63.32000 137.313
63.36000 148.737
63.40000 149.515
63.44000 143.147
63.48000 146.067
63.52000 149.233
63.56000 153.232
63.60000 143.237
63.64000 155.815
63.68000 140.732
63.72000 155.523
63.76000 148.655
63.80000 156.474
63.84000 150.299
63.88000 144.793
63.92000 152.297
63.96000 154.626
64.00000 146.354
64.04000 150.646
64.08000 158.798
64.12000 157.049
64.16000 171.378
64.20000 158.513
64.24000 159.244
64.28000 164.911
64.32000 164.348
64.36000 150.506
64.40000 161.033
64.44000 173.265
64.48000 175.832
64.52000 167.917
64.56000 155.189
64.60000 171.961
64.64000 169.898
64.68000 176.130
64.72000 172.526
64.76000 173.731
64.80000 180.647
64.84000 178.810
64.88000 177.655
64.92000 182.650
64.96000 187.009
65.00000 187.572
65.04000 182.700
65.08000 191.919
65.12000 191.477
65.16000 202.113
65.20000 194.303
65.24000 207.624
65.28000 210.592
65.32000 225.101
65.36000 233.579
65.40000 250.429
65.44000 234.013
65.48000 244.066
65.52000 243.775
65.56000 276.782
65.60000 313.013
65.64000 319.888
65.68000 386.716
65.72000 512.521
65.76000 749.381
65.80000 914.714
65.84000 1032.912
65.88000 1049.517
65.92000 1057.533
65.96000 890.496
66.00000 653.160
66.04000 479.286
66.08000 366.569
66.12000 317.404
66.16000 302.611
66.20000 310.559
66.24000 316.321
66.28000 334.336
66.32000 394.208
66.36000 416.951
66.40000 448.181
66.44000 454.397
66.48000 432.059
66.52000 412.976
66.56000 359.470
66.60000 349.648
66.64000 321.204
66.68000 322.398
66.72000 330.308
66.76000 329.495
66.80000 315.547
66.84000 322.324
66.88000 340.330
66.92000 333.577
66.96000 332.789
67.00000 345.768
67.04000 358.347
67.08000 372.155
67.12000 368.436
67.16000 382.725
67.20000 365.526
67.24000 395.277
67.28000 391.314
67.32000 384.088
67.36000 397.688
67.40000 403.631
67.44000 402.208
67.48000 410.929
67.52000 397.618
67.56000 431.691
67.60000 434.854
67.64000 457.838
67.68000 455.000
67.72000 466.621
67.76000 456.596
67.80000 484.188
67.84000 490.966
67.88000 503.127
67.92000 507.341
67.96000 514.749
68.00000 537.775
68.04000 542.104
68.08000 553.260
68.12000 567.176
68.16000 586.928
68.20000 581.646
68.24000 611.774
68.28000 611.366
68.32000 641.704
68.36000 664.156
68.40000 687.444
68.44000 721.571
68.48000 733.012
68.52000 793.677
68.56000 824.359
68.60000 916.202
68.64000 1094.981
68.68000 1298.940
68.72000 1469.168
68.76000 1709.615
68.80000 1908.501
68.84000 2208.180
68.88000 2691.466
68.92000 4343.694
68.96000 10796.693
69.00000 25509.064
69.04000 42148.594
69.08000 51321.418
69.12000 53170.574
69.16000 55158.098
69.20000 56250.504
69.24000 47448.340
69.28000 35971.145
69.32000 29047.326
69.36000 26520.926
69.40000 22361.592
69.44000 14016.276
69.48000 6697.864
69.52000 2970.014
69.56000 1902.488
69.60000 1489.430
69.64000 1214.412
69.68000 1118.004
69.72000 999.316
69.76000 915.080
69.80000 825.296
69.84000 857.900
69.88000 749.834
69.92000 718.705
69.96000 675.551
70.00000 653.138