File: XRD/XRD/25-09-2025/XY Data/BTO_Mapping_Theta2Theta_25-09-2025_001_15_6-180_19-021.xy
20.00000 560.956
20.04000 550.742
20.08000 553.158
20.12000 574.923
20.16000 555.657
20.20000 557.546
20.24000 566.533
20.28000 544.788
20.32000 540.276
20.36000 549.484
20.40000 545.060
20.44000 541.787
20.48000 548.984
20.52000 539.677
20.56000 535.439
20.60000 540.170
20.64000 548.769
20.68000 541.675
20.72000 563.691
20.76000 556.796
20.80000 540.155
20.84000 551.366
20.88000 538.024
20.92000 540.747
20.96000 540.558
21.00000 534.700
21.04000 536.382
21.08000 547.282
21.12000 553.451
21.16000 564.063
21.20000 548.411
21.24000 523.229
21.28000 531.672
21.32000 550.053
21.36000 524.812
21.40000 528.245
21.44000 532.215
21.48000 536.871
21.52000 545.559
21.56000 507.085
21.60000 539.888
21.64000 542.015
21.68000 548.484
21.72000 565.646
21.76000 552.373
21.80000 544.919
21.84000 548.985
21.88000 571.473
21.92000 584.330
21.96000 606.710
22.00000 586.577
22.04000 595.891
22.08000 604.653
22.12000 621.828
22.16000 613.730
22.20000 596.603
22.24000 599.387
22.28000 602.936
22.32000 603.702
22.36000 604.731
22.40000 601.822
22.44000 570.321
22.48000 580.409
22.52000 546.200
22.56000 530.928
22.60000 533.252
22.64000 534.930
22.68000 546.613
22.72000 518.128
22.76000 497.557
22.80000 524.481
22.84000 506.061
22.88000 514.498
22.92000 512.623
22.96000 513.293
23.00000 529.165
23.04000 496.263
23.08000 488.753
23.12000 491.205
23.16000 505.324
23.20000 496.989
23.24000 502.944
23.28000 495.142
23.32000 510.080
23.36000 510.372
23.40000 488.831
23.44000 487.695
23.48000 492.570
23.52000 485.455
23.56000 498.921
23.60000 505.414
23.64000 475.849
23.68000 469.492
23.72000 478.697
23.76000 469.831
23.80000 482.579
23.84000 491.077
23.88000 488.286
23.92000 483.157
23.96000 495.528
24.00000 483.862
24.04000 504.716
24.08000 485.669
24.12000 485.420
24.16000 484.427
24.20000 492.301
24.24000 484.701
24.28000 466.941
24.32000 481.520
24.36000 485.874
24.40000 486.995
24.44000 476.292
24.48000 483.746
24.52000 477.172
24.56000 468.178
24.60000 466.119
24.64000 480.354
24.68000 474.464
24.72000 474.555
24.76000 483.424
24.80000 462.833
24.84000 473.516
24.88000 460.914
24.92000 469.329
24.96000 476.675
25.00000 476.832
25.04000 472.338
25.08000 481.174
25.12000 471.475
25.16000 477.614
25.20000 465.483
25.24000 460.757
25.28000 480.819
25.32000 465.738
25.36000 472.440
25.40000 452.738
25.44000 476.019
25.48000 452.953
25.52000 451.861
25.56000 461.871
25.60000 467.544
25.64000 444.275
25.68000 454.153
25.72000 466.562
25.76000 458.600
25.80000 461.505
25.84000 445.160
25.88000 467.051
25.92000 458.325
25.96000 453.318
26.00000 454.796
26.04000 439.802
26.08000 445.318
26.12000 457.911
26.16000 432.332
26.20000 453.201
26.24000 457.308
26.28000 451.225
26.32000 449.760
26.36000 446.483
26.40000 452.982
26.44000 446.069
26.48000 438.960
26.52000 444.043
26.56000 438.319
26.60000 442.658
26.64000 454.065
26.68000 433.658
26.72000 453.080
26.76000 432.946
26.80000 443.791
26.84000 434.594
26.88000 438.799
26.92000 442.909
26.96000 447.225
27.00000 431.322
27.04000 424.867
27.08000 434.976
27.12000 430.656
27.16000 440.778
27.20000 428.902
27.24000 420.290
27.28000 435.859
27.32000 439.402
27.36000 421.669
27.40000 441.008
27.44000 433.016
27.48000 427.982
27.52000 443.049
27.56000 431.789
27.60000 430.843
27.64000 410.930
27.68000 432.666
27.72000 420.444
27.76000 421.727
27.80000 419.001
27.84000 418.214
27.88000 410.501
27.92000 422.323
27.96000 425.288
28.00000 425.933
28.04000 406.083
28.08000 423.988
28.12000 428.198
28.16000 428.580
28.20000 406.834
28.24000 420.467
28.28000 411.861
28.32000 419.593
28.36000 434.024
28.40000 423.060
28.44000 433.910
28.48000 414.052
28.52000 420.932
28.56000 413.271
28.60000 414.229
28.64000 408.447
28.68000 431.145
28.72000 393.032
28.76000 392.382
28.80000 391.938
28.84000 402.609
28.88000 411.175
28.92000 407.201
28.96000 402.777
29.00000 397.372
29.04000 404.884
29.08000 399.120
29.12000 407.278
29.16000 414.656
29.20000 409.689
29.24000 382.486
29.28000 402.465
29.32000 403.635
29.36000 408.507
29.40000 397.138
29.44000 413.535
29.48000 402.132
29.52000 403.457
29.56000 391.748
29.60000 389.885
29.64000 380.471
29.68000 394.746
29.72000 411.602
29.76000 387.225
29.80000 406.100
29.84000 396.232
29.88000 405.805
29.92000 409.824
29.96000 404.131
30.00000 396.660
30.04000 424.414
30.08000 395.439
30.12000 390.251
30.16000 399.922
30.20000 408.236
30.24000 396.307
30.28000 398.778
30.32000 411.604
30.36000 413.181
30.40000 387.247
30.44000 394.264
30.48000 395.514
30.52000 387.208
30.56000 408.051
30.60000 393.117
30.64000 419.835
30.68000 398.297
30.72000 402.347
30.76000 403.538
30.80000 410.614
30.84000 407.706
30.88000 412.917
30.92000 429.233
30.96000 438.521
31.00000 486.273
31.04000 502.009
31.08000 529.675
31.12000 585.744
31.16000 661.192
31.20000 767.448
31.24000 874.300
31.28000 1023.397
31.32000 1120.950
31.36000 1205.564
31.40000 1243.052
31.44000 1229.761
31.48000 1188.378
31.52000 1065.928
31.56000 961.921
31.60000 831.278
31.64000 741.147
31.68000 648.788
31.72000 570.812
31.76000 535.303
31.80000 526.609
31.84000 480.524
31.88000 441.773
31.92000 435.655
31.96000 416.734
32.00000 414.728
32.04000 392.110
32.08000 408.060
32.12000 383.123
32.16000 393.046
32.20000 371.504
32.24000 391.821
32.28000 380.582
32.32000 394.880
32.36000 400.699
32.40000 375.755
32.44000 371.556
32.48000 382.114
32.52000 399.016
32.56000 371.563
32.60000 357.555
32.64000 361.447
32.68000 352.798
32.72000 385.366
32.76000 355.714
32.80000 363.273
32.84000 369.722
32.88000 391.427
32.92000 377.339
32.96000 365.526
33.00000 377.927
33.04000 370.778
33.08000 350.121
33.12000 344.625
33.16000 322.456
33.20000 336.529
33.24000 345.075
33.28000 341.847
33.32000 341.765
33.36000 337.595
33.40000 344.908
33.44000 339.542
33.48000 336.643
33.52000 333.920
33.56000 329.738
33.60000 335.021
33.64000 330.151
33.68000 316.850
33.72000 316.085
33.76000 318.352
33.80000 327.463
33.84000 327.787
33.88000 322.331
33.92000 335.364
33.96000 313.169
34.00000 333.362
34.04000 330.970
34.08000 314.935
34.12000 335.651
34.16000 328.550
34.20000 320.336
34.24000 328.362
34.28000 320.204
34.32000 317.274
34.36000 325.189
34.40000 316.015
34.44000 323.011
34.48000 334.598
34.52000 312.447
34.56000 321.843
34.60000 331.744
34.64000 325.034
34.68000 312.181
34.72000 325.523
34.76000 306.827
34.80000 317.401
34.84000 313.059
34.88000 309.367
34.92000 318.429
34.96000 323.053
35.00000 328.182
35.04000 333.372
35.08000 315.510
35.12000 310.276
35.16000 316.303
35.20000 318.855
35.24000 312.088
35.28000 304.459
35.32000 306.637
35.36000 311.148
35.40000 304.493
35.44000 296.791
35.48000 324.000
35.52000 307.201
35.56000 315.375
35.60000 307.472
35.64000 312.707
35.68000 309.131
35.72000 309.468
35.76000 295.787
35.80000 280.813
35.84000 286.030
35.88000 299.338
35.92000 305.516
35.96000 301.604
36.00000 299.557
36.04000 302.268
36.08000 312.840
36.12000 289.129
36.16000 272.594
36.20000 299.840
36.24000 292.759
36.28000 300.372
36.32000 298.730
36.36000 310.103
36.40000 283.903
36.44000 291.786
36.48000 285.006
36.52000 297.728
36.56000 290.899
36.60000 292.459
36.64000 301.696
36.68000 295.339
36.72000 301.938
36.76000 285.312
36.80000 295.523
36.84000 287.834
36.88000 292.637
36.92000 301.627
36.96000 281.152
37.00000 285.588
37.04000 304.348
37.08000 297.169
37.12000 282.104
37.16000 278.412
37.20000 299.457
37.24000 296.015
37.28000 304.296
37.32000 301.646
37.36000 283.809
37.40000 285.629
37.44000 283.980
37.48000 284.546
37.52000 277.936
37.56000 279.810
37.60000 290.293
37.64000 278.340
37.68000 279.416
37.72000 281.397
37.76000 268.546
37.80000 273.312
37.84000 287.003
37.88000 270.887
37.92000 291.486
37.96000 286.964
38.00000 283.947
38.04000 296.665
38.08000 280.528
38.12000 305.751
38.16000 279.449
38.20000 287.415
38.24000 280.473
38.28000 288.943
38.32000 294.002
38.36000 301.285
38.40000 327.423
38.44000 337.869
38.48000 383.456
38.52000 421.249
38.56000 471.005
38.60000 570.720
38.64000 655.752
38.68000 733.636
38.72000 783.755
38.76000 786.162
38.80000 758.589
38.84000 675.627
38.88000 615.084
38.92000 538.074
38.96000 459.701
39.00000 385.026
39.04000 335.958
39.08000 316.950
39.12000 295.761
39.16000 286.545
39.20000 285.109
39.24000 273.787
39.28000 282.173
39.32000 271.620
39.36000 260.088
39.40000 260.805
39.44000 262.955
39.48000 267.749
39.52000 257.820
39.56000 254.301
39.60000 263.396
39.64000 262.093
39.68000 243.339
39.72000 267.770
39.76000 258.331
39.80000 251.241
39.84000 261.011
39.88000 264.833
39.92000 253.532
39.96000 248.935
40.00000 261.096
40.04000 250.328
40.08000 260.089
40.12000 252.256
40.16000 254.068
40.20000 239.969
40.24000 246.214
40.28000 254.696
40.32000 254.631
40.36000 260.828
40.40000 257.451
40.44000 240.859
40.48000 245.434
40.52000 261.927
40.56000 251.003
40.60000 258.622
40.64000 255.372
40.68000 239.029
40.72000 234.122
40.76000 241.266
40.80000 231.719
40.84000 255.214
40.88000 244.587
40.92000 251.337
40.96000 232.003
41.00000 242.643
41.04000 251.291
41.08000 239.427
41.12000 226.625
41.16000 242.792
41.20000 238.425
41.24000 236.790
41.28000 231.097
41.32000 220.212
41.36000 237.091
41.40000 238.103
41.44000 221.339
41.48000 222.212
41.52000 229.596
41.56000 227.421
41.60000 240.385
41.64000 233.201
41.68000 237.359
41.72000 241.599
41.76000 235.948
41.80000 240.091
41.84000 231.303
41.88000 231.559
41.92000 236.649
41.96000 237.429
42.00000 224.530
42.04000 234.768
42.08000 226.823
42.12000 237.322
42.16000 229.196
42.20000 236.327
42.24000 244.229
42.28000 233.459
42.32000 243.261
42.36000 232.598
42.40000 232.481
42.44000 227.509
42.48000 237.988
42.52000 233.435
42.56000 232.164
42.60000 219.596
42.64000 220.203
42.68000 228.083
42.72000 238.331
42.76000 227.534
42.80000 243.217
42.84000 222.341
42.88000 225.403
42.92000 222.836
42.96000 226.696
43.00000 214.567
43.04000 235.381
43.08000 222.218
43.12000 218.638
43.16000 221.182
43.20000 234.175
43.24000 231.181
43.28000 222.030
43.32000 221.406
43.36000 229.773
43.40000 227.542
43.44000 227.305
43.48000 224.474
43.52000 227.329
43.56000 231.322
43.60000 230.923
43.64000 231.764
43.68000 220.917
43.72000 211.825
43.76000 228.890
43.80000 218.072
43.84000 203.040
43.88000 216.202
43.92000 207.244
43.96000 206.801
44.00000 218.195
44.04000 237.756
44.08000 214.900
44.12000 218.385
44.16000 227.463
44.20000 215.877
44.24000 196.168
44.28000 227.099
44.32000 211.068
44.36000 213.200
44.40000 212.004
44.44000 213.042
44.48000 217.249
44.52000 214.101
44.56000 218.097
44.60000 212.210
44.64000 227.476
44.68000 215.360
44.72000 223.108
44.76000 239.345
44.80000 237.586
44.84000 251.989
44.88000 243.931
44.92000 247.101
44.96000 234.512
45.00000 247.419
45.04000 241.087
45.08000 249.434
45.12000 246.432
45.16000 259.093
45.20000 262.700
45.24000 258.150
45.28000 250.080
45.32000 259.712
45.36000 249.957
45.40000 241.273
45.44000 257.412
45.48000 237.836
45.52000 247.593
45.56000 242.385
45.60000 244.606
45.64000 244.105
45.68000 231.618
45.72000 233.302
45.76000 235.577
45.80000 224.487
45.84000 236.141
45.88000 228.580
45.92000 236.193
45.96000 225.578
46.00000 228.355
46.04000 226.614
46.08000 222.165
46.12000 217.046
46.16000 214.834
46.20000 197.734
46.24000 203.632
46.28000 211.235
46.32000 209.730
46.36000 202.500
46.40000 191.700
46.44000 209.723
46.48000 203.857
46.52000 198.367
46.56000 202.978
46.60000 196.096
46.64000 204.393
46.68000 182.552
46.72000 196.161
46.76000 198.396
46.80000 206.626
46.84000 203.793
46.88000 196.667
46.92000 212.301
46.96000 190.563
47.00000 199.800
47.04000 198.070
47.08000 187.811
47.12000 189.986
47.16000 184.997
47.20000 189.446
47.24000 185.960
47.28000 198.902
47.32000 190.303
47.36000 191.621
47.40000 189.514
47.44000 192.147
47.48000 173.630
47.52000 183.122
47.56000 180.456
47.60000 179.931
47.64000 184.157
47.68000 191.857
47.72000 185.222
47.76000 187.256
47.80000 196.667
47.84000 193.962
47.88000 192.904
47.92000 176.355
47.96000 175.205
48.00000 175.781
48.04000 188.229
48.08000 185.037
48.12000 174.063
48.16000 180.954
48.20000 186.897
48.24000 180.125
48.28000 170.782
48.32000 173.581
48.36000 176.421
48.40000 172.356
48.44000 182.184
48.48000 189.421
48.52000 185.605
48.56000 188.412
48.60000 172.240
48.64000 183.125
48.68000 183.561
48.72000 174.585
48.76000 180.541
48.80000 171.633
48.84000 172.390
48.88000 186.394
48.92000 173.458
48.96000 181.728
49.00000 176.507
49.04000 183.031
49.08000 176.174
49.12000 184.404
49.16000 178.216
49.20000 176.291
49.24000 168.796
49.28000 185.305
49.32000 160.463
49.36000 171.899
49.40000 176.921
49.44000 163.526
49.48000 171.628
49.52000 171.674
49.56000 175.473
49.60000 180.976
49.64000 174.540
49.68000 172.564
49.72000 170.635
49.76000 176.344
49.80000 173.842
49.84000 180.225
49.88000 176.496
49.92000 175.328
49.96000 162.874
50.00000 154.114
50.04000 162.838
50.08000 165.726
50.12000 174.624
50.16000 170.598
50.20000 170.087
50.24000 170.251
50.28000 180.503
50.32000 176.419
50.36000 186.257
50.40000 184.365
50.44000 178.890
50.48000 187.661
50.52000 191.513
50.56000 179.121
50.60000 190.749
50.64000 184.245
50.68000 182.234
50.72000 187.880
50.76000 184.379
50.80000 194.093
50.84000 186.574
50.88000 199.091
50.92000 182.961
50.96000 179.755
51.00000 173.879
51.04000 176.866
51.08000 181.021
51.12000 177.445
51.16000 181.337
51.20000 167.114
51.24000 163.066
51.28000 175.286
51.32000 162.647
51.36000 171.720
51.40000 168.983
51.44000 156.041
51.48000 158.400
51.52000 165.553
51.56000 157.904
51.60000 162.497
51.64000 165.515
51.68000 166.457
51.72000 159.635
51.76000 151.153
51.80000 163.219
51.84000 164.424
51.88000 163.825
51.92000 162.219
51.96000 170.810
52.00000 163.443
52.04000 160.941
52.08000 155.843
52.12000 163.476
52.16000 161.639
52.20000 161.866
52.24000 147.482
52.28000 157.503
52.32000 162.544
52.36000 160.017
52.40000 152.510
52.44000 149.152
52.48000 154.605
52.52000 160.812
52.56000 169.224
52.60000 154.248
52.64000 146.340
52.68000 157.227
52.72000 154.915
52.76000 157.345
52.80000 159.961
52.84000 156.800
52.88000 155.602
52.92000 150.932
52.96000 150.885
53.00000 164.222
53.04000 171.815
53.08000 157.103
53.12000 154.546
53.16000 157.730
53.20000 158.456
53.24000 154.145
53.28000 158.824
53.32000 157.912
53.36000 156.800
53.40000 153.244
53.44000 165.301
53.48000 167.123
53.52000 166.861
53.56000 154.971
53.60000 165.065
53.64000 160.534
53.68000 160.517
53.72000 151.231
53.76000 155.942
53.80000 153.717
53.84000 154.135
53.88000 145.781
53.92000 155.787
53.96000 152.633
54.00000 149.113
54.04000 155.453
54.08000 145.206
54.12000 154.670
54.16000 154.256
54.20000 154.360
54.24000 154.977
54.28000 153.094
54.32000 150.599
54.36000 153.648
54.40000 146.030
54.44000 149.887
54.48000 151.113
54.52000 146.175
54.56000 140.409
54.60000 144.583
54.64000 159.850
54.68000 152.247
54.72000 157.180
54.76000 147.343
54.80000 154.219
54.84000 137.388
54.88000 149.100
54.92000 146.761
54.96000 143.831
55.00000 141.612
55.04000 152.908
55.08000 156.735
55.12000 157.131
55.16000 154.321
55.20000 160.287
55.24000 147.585
55.28000 160.000
55.32000 151.326
55.36000 160.983
55.40000 164.541
55.44000 162.750
55.48000 172.806
55.52000 180.143
55.56000 183.388
55.60000 195.742
55.64000 194.955
55.68000 232.690
55.72000 265.743
55.76000 294.164
55.80000 337.788
55.84000 380.535
55.88000 402.605
55.92000 405.510
55.96000 450.108
56.00000 443.987
56.04000 454.784
56.08000 427.220
56.12000 378.393
56.16000 355.584
56.20000 313.775
56.24000 289.826
56.28000 249.788
56.32000 232.334
56.36000 221.157
56.40000 209.788
56.44000 193.235
56.48000 177.242
56.52000 168.840
56.56000 167.457
56.60000 159.675
56.64000 161.167
56.68000 157.118
56.72000 157.805
56.76000 146.474
56.80000 153.456
56.84000 158.392
56.88000 153.613
56.92000 144.469
56.96000 153.505
57.00000 152.266
57.04000 144.585
57.08000 148.650
57.12000 138.538
57.16000 144.837
57.20000 141.475
57.24000 137.384
57.28000 135.583
57.32000 133.984
57.36000 138.421
57.40000 141.385
57.44000 135.621
57.48000 139.364
57.52000 145.745
57.56000 137.040
57.60000 137.573
57.64000 138.072
57.68000 137.696
57.72000 138.805
57.76000 143.979
57.80000 139.045
57.84000 142.129
57.88000 144.818
57.92000 138.415
57.96000 142.004
58.00000 135.736
58.04000 145.948
58.08000 135.798
58.12000 129.293
58.16000 128.832
58.20000 136.720
58.24000 138.529
58.28000 139.782
58.32000 138.235
58.36000 135.118
58.40000 139.924
58.44000 142.979
58.48000 138.398
58.52000 133.380
58.56000 123.874
58.60000 137.582
58.64000 140.472
58.68000 138.288
58.72000 131.504
58.76000 127.281
58.80000 138.016
58.84000 139.110
58.88000 132.391
58.92000 132.151
58.96000 134.402
59.00000 130.750
59.04000 126.443
59.08000 139.153
59.12000 139.456
59.16000 130.350
59.20000 140.793
59.24000 138.345
59.28000 144.207
59.32000 131.768
59.36000 136.456
59.40000 139.631
59.44000 129.233
59.48000 123.258
59.52000 134.456
59.56000 136.557
59.60000 136.810
59.64000 135.902
59.68000 133.514
59.72000 139.397
59.76000 133.458
59.80000 132.967
59.84000 138.306
59.88000 133.746
59.92000 127.790
59.96000 126.750
60.00000 132.427
60.04000 139.208
60.08000 135.289
60.12000 132.463
60.16000 121.858
60.20000 130.711
60.24000 128.692
60.28000 143.977
60.32000 131.907
60.36000 135.065
60.40000 128.221
60.44000 130.778
60.48000 127.907
60.52000 131.824
60.56000 132.285
60.60000 140.297
60.64000 123.474
60.68000 140.099
60.72000 134.291
60.76000 125.218
60.80000 131.844
60.84000 138.775
60.88000 129.906
60.92000 122.847
60.96000 131.286
61.00000 140.516
61.04000 128.532
61.08000 129.488
61.12000 137.943
61.16000 126.788
61.20000 137.314
61.24000 126.717
61.28000 134.352
61.32000 138.706
61.36000 140.062
61.40000 135.792
61.44000 140.838
61.48000 145.148
61.52000 153.729
61.56000 193.890
61.60000 224.785
61.64000 255.360
61.68000 257.887
61.72000 264.536
61.76000 263.832
61.80000 222.442
61.84000 167.747
61.88000 152.465
61.92000 159.064
61.96000 137.374
62.00000 135.661
62.04000 135.298
62.08000 130.277
62.12000 145.435
62.16000 129.989
62.20000 142.682
62.24000 137.553
62.28000 142.812
62.32000 146.335
62.36000 145.405
62.40000 138.528
62.44000 136.289
62.48000 140.602
62.52000 144.439
62.56000 144.401
62.60000 140.969
62.64000 141.205
62.68000 146.367
62.72000 143.252
62.76000 133.791
62.80000 146.280
62.84000 138.709
62.88000 150.103
62.92000 145.195
62.96000 138.199
63.00000 153.391
63.04000 152.878
63.08000 145.176
63.12000 144.423
63.16000 141.166
63.20000 138.172
63.24000 149.904
63.28000 151.036
63.32000 151.213
63.36000 146.488
63.40000 150.883
63.44000 150.066
63.48000 155.568
63.52000 140.609
63.56000 147.365
63.60000 136.903
63.64000 158.926
63.68000 152.817
63.72000 139.058
63.76000 159.610
63.80000 149.193
63.84000 153.270
63.88000 145.746
63.92000 162.832
63.96000 164.679
64.00000 155.489
64.04000 170.566
64.08000 154.973
64.12000 162.528
64.16000 157.510
64.20000 150.320
64.24000 151.545
64.28000 153.353
64.32000 152.934
64.36000 156.993
64.40000 163.193
64.44000 155.609
64.48000 168.229
64.52000 171.964
64.56000 169.681
64.60000 162.172
64.64000 161.107
64.68000 171.031
64.72000 171.420
64.76000 166.215
64.80000 175.150
64.84000 168.681
64.88000 187.613
64.92000 181.379
64.96000 193.922
65.00000 182.353
65.04000 187.911
65.08000 192.144
65.12000 195.248
65.16000 196.518
65.20000 199.773
65.24000 194.736
65.28000 221.732
65.32000 215.946
65.36000 218.139
65.40000 229.432
65.44000 263.954
65.48000 268.658
65.52000 264.005
65.56000 279.257
65.60000 292.638
65.64000 331.735
65.68000 402.132
65.72000 523.708
65.76000 727.353
65.80000 927.173
65.84000 1013.256
65.88000 1068.234
65.92000 1008.111
65.96000 894.703
66.00000 648.819
66.04000 466.641
66.08000 344.888
66.12000 314.490
66.16000 303.839
66.20000 312.852
66.24000 308.088
66.28000 330.236
66.32000 373.728
66.36000 414.356
66.40000 439.878
66.44000 455.408
66.48000 433.240
66.52000 417.364
66.56000 378.701
66.60000 335.635
66.64000 310.574
66.68000 324.528
66.72000 310.477
66.76000 315.595
66.80000 327.820
66.84000 334.727
66.88000 347.151
66.92000 352.568
66.96000 336.581
67.00000 337.855
67.04000 346.331
67.08000 354.636
67.12000 348.420
67.16000 363.420
67.20000 371.844
67.24000 383.082
67.28000 396.880
67.32000 386.576
67.36000 398.668
67.40000 412.148
67.44000 408.953
67.48000 426.746
67.52000 418.552
67.56000 436.458
67.60000 442.267
67.64000 460.977
67.68000 442.929
67.72000 443.579
67.76000 458.775
67.80000 471.229
67.84000 481.944
67.88000 497.585
67.92000 508.571
67.96000 535.743
68.00000 531.156
68.04000 541.558
68.08000 528.042
68.12000 561.225
68.16000 580.148
68.20000 581.670
68.24000 608.692
68.28000 621.824
68.32000 649.262
68.36000 666.259
68.40000 664.591
68.44000 715.142
68.48000 752.253
68.52000 779.580
68.56000 868.406
68.60000 975.318
68.64000 1098.548
68.68000 1266.488
68.72000 1508.811
68.76000 1745.613
68.80000 1958.257
68.84000 2237.556
68.88000 2738.198
68.92000 4324.326
68.96000 10965.509
69.00000 25417.719
69.04000 42283.785
69.08000 51378.836
69.12000 53278.285
69.16000 55192.930
69.20000 56559.758
69.24000 47911.934
69.28000 36010.012
69.32000 29327.111
69.36000 26474.975
69.40000 22400.182
69.44000 14032.058
69.48000 6618.469
69.52000 2978.497
69.56000 1884.179
69.60000 1486.366
69.64000 1265.454
69.68000 1103.846
69.72000 1009.599
69.76000 918.794
69.80000 850.938
69.84000 771.167
69.88000 752.484
69.92000 709.970
69.96000 680.682
70.00000 657.883