File: XRD/XRD/25-09-2025/XY Data/BTO_Mapping_Theta2Theta_25-09-2025_001_09_36-542_16-269.xy
20.00000 569.587
20.04000 541.185
20.08000 573.475
20.12000 559.672
20.16000 552.588
20.20000 549.545
20.24000 556.757
20.28000 545.714
20.32000 551.596
20.36000 567.246
20.40000 557.471
20.44000 572.704
20.48000 559.318
20.52000 547.987
20.56000 544.020
20.60000 520.721
20.64000 552.155
20.68000 545.607
20.72000 533.351
20.76000 548.907
20.80000 536.916
20.84000 546.599
20.88000 539.059
20.92000 542.845
20.96000 541.964
21.00000 537.945
21.04000 531.700
21.08000 547.254
21.12000 518.965
21.16000 558.500
21.20000 544.993
21.24000 550.330
21.28000 528.964
21.32000 541.558
21.36000 536.526
21.40000 536.447
21.44000 514.688
21.48000 517.874
21.52000 532.507
21.56000 551.844
21.60000 545.608
21.64000 519.899
21.68000 547.293
21.72000 540.730
21.76000 525.254
21.80000 558.128
21.84000 551.437
21.88000 566.628
21.92000 570.500
21.96000 581.887
22.00000 570.944
22.04000 565.282
22.08000 606.709
22.12000 582.876
22.16000 598.875
22.20000 595.798
22.24000 596.606
22.28000 556.556
22.32000 572.624
22.36000 562.339
22.40000 564.078
22.44000 562.333
22.48000 567.722
22.52000 529.408
22.56000 532.549
22.60000 533.364
22.64000 536.803
22.68000 532.901
22.72000 486.954
22.76000 508.780
22.80000 510.476
22.84000 506.743
22.88000 485.340
22.92000 508.609
22.96000 494.567
23.00000 509.620
23.04000 501.522
23.08000 500.685
23.12000 508.574
23.16000 495.094
23.20000 508.007
23.24000 493.565
23.28000 520.441
23.32000 498.044
23.36000 494.780
23.40000 502.616
23.44000 507.675
23.48000 494.051
23.52000 481.963
23.56000 494.275
23.60000 477.618
23.64000 495.727
23.68000 495.946
23.72000 496.411
23.76000 488.034
23.80000 488.189
23.84000 480.796
23.88000 477.521
23.92000 499.259
23.96000 490.416
24.00000 493.409
24.04000 474.709
24.08000 470.717
24.12000 505.154
24.16000 483.876
24.20000 490.340
24.24000 489.677
24.28000 465.036
24.32000 480.035
24.36000 496.973
24.40000 487.782
24.44000 503.276
24.48000 473.113
24.52000 491.181
24.56000 513.903
24.60000 489.639
24.64000 462.947
24.68000 472.034
24.72000 479.763
24.76000 468.288
24.80000 481.246
24.84000 488.753
24.88000 491.442
24.92000 460.009
24.96000 471.457
25.00000 474.148
25.04000 477.485
25.08000 470.934
25.12000 468.867
25.16000 458.508
25.20000 480.283
25.24000 466.815
25.28000 475.421
25.32000 459.906
25.36000 472.033
25.40000 458.410
25.44000 458.384
25.48000 458.736
25.52000 460.295
25.56000 471.961
25.60000 447.476
25.64000 452.255
25.68000 451.889
25.72000 479.264
25.76000 453.110
25.80000 462.890
25.84000 456.384
25.88000 470.631
25.92000 467.132
25.96000 446.959
26.00000 453.031
26.04000 461.495
26.08000 447.387
26.12000 450.651
26.16000 446.972
26.20000 459.904
26.24000 439.508
26.28000 450.655
26.32000 452.831
26.36000 469.653
26.40000 455.608
26.44000 438.781
26.48000 455.659
26.52000 448.311
26.56000 436.012
26.60000 451.043
26.64000 429.739
26.68000 438.687
26.72000 444.045
26.76000 436.089
26.80000 435.097
26.84000 437.373
26.88000 429.796
26.92000 424.389
26.96000 437.657
27.00000 437.998
27.04000 450.970
27.08000 424.437
27.12000 435.221
27.16000 455.802
27.20000 437.852
27.24000 431.095
27.28000 429.887
27.32000 448.377
27.36000 427.261
27.40000 427.600
27.44000 444.581
27.48000 447.693
27.52000 443.801
27.56000 442.791
27.60000 433.171
27.64000 427.704
27.68000 431.553
27.72000 422.711
27.76000 444.629
27.80000 428.728
27.84000 429.413
27.88000 411.335
27.92000 436.617
27.96000 424.365
28.00000 419.397
28.04000 427.064
28.08000 427.058
28.12000 434.349
28.16000 412.723
28.20000 440.943
28.24000 421.966
28.28000 434.107
28.32000 427.386
28.36000 415.599
28.40000 413.435
28.44000 428.457
28.48000 417.216
28.52000 435.531
28.56000 447.019
28.60000 411.710
28.64000 439.031
28.68000 426.953
28.72000 426.287
28.76000 431.344
28.80000 443.592
28.84000 430.448
28.88000 433.531
28.92000 461.470
28.96000 445.767
29.00000 414.615
29.04000 420.974
29.08000 404.426
29.12000 415.442
29.16000 414.996
29.20000 416.911
29.24000 414.245
29.28000 404.485
29.32000 414.693
29.36000 413.066
29.40000 423.827
29.44000 388.365
29.48000 404.770
29.52000 409.163
29.56000 413.423
29.60000 417.314
29.64000 402.307
29.68000 409.301
29.72000 415.369
29.76000 416.586
29.80000 403.022
29.84000 443.159
29.88000 406.306
29.92000 406.496
29.96000 422.058
30.00000 405.430
30.04000 405.208
30.08000 399.845
30.12000 401.259
30.16000 405.533
30.20000 408.407
30.24000 419.180
30.28000 398.026
30.32000 423.057
30.36000 410.486
30.40000 418.512
30.44000 411.906
30.48000 403.785
30.52000 394.423
30.56000 416.573
30.60000 414.490
30.64000 391.786
30.68000 409.704
30.72000 409.103
30.76000 408.331
30.80000 418.284
30.84000 418.457
30.88000 429.027
30.92000 447.530
30.96000 452.401
31.00000 483.947
31.04000 494.678
31.08000 533.282
31.12000 569.787
31.16000 611.836
31.20000 707.397
31.24000 793.517
31.28000 887.554
31.32000 978.846
31.36000 1057.147
31.40000 1044.808
31.44000 1064.935
31.48000 1063.411
31.52000 1003.092
31.56000 890.335
31.60000 799.592
31.64000 720.400
31.68000 624.326
31.72000 590.423
31.76000 508.534
31.80000 503.098
31.84000 468.808
31.88000 427.549
31.92000 451.571
31.96000 411.154
32.00000 435.799
32.04000 413.739
32.08000 412.955
32.12000 414.567
32.16000 411.858
32.20000 399.479
32.24000 400.668
32.28000 394.361
32.32000 396.456
32.36000 392.875
32.40000 395.543
32.44000 385.674
32.48000 365.039
32.52000 373.760
32.56000 376.937
32.60000 375.530
32.64000 369.575
32.68000 374.890
32.72000 362.975
32.76000 373.488
32.80000 362.154
32.84000 376.658
32.88000 380.559
32.92000 364.563
32.96000 376.145
33.00000 357.855
33.04000 359.817
33.08000 339.376
33.12000 349.004
33.16000 349.490
33.20000 346.415
33.24000 346.387
33.28000 342.098
33.32000 346.086
33.36000 339.257
33.40000 347.462
33.44000 323.168
33.48000 322.202
33.52000 334.821
33.56000 333.719
33.60000 331.991
33.64000 332.122
33.68000 325.747
33.72000 321.932
33.76000 322.340
33.80000 335.545
33.84000 330.179
33.88000 333.845
33.92000 335.701
33.96000 319.781
34.00000 328.917
34.04000 323.334
34.08000 335.646
34.12000 336.859
34.16000 318.111
34.20000 330.387
34.24000 313.687
34.28000 315.359
34.32000 315.747
34.36000 331.024
34.40000 317.628
34.44000 327.576
34.48000 327.068
34.52000 305.487
34.56000 320.210
34.60000 329.927
34.64000 320.285
34.68000 328.471
34.72000 340.697
34.76000 313.377
34.80000 313.611
34.84000 313.995
34.88000 327.318
34.92000 294.666
34.96000 305.921
35.00000 322.943
35.04000 317.124
35.08000 298.865
35.12000 294.558
35.16000 309.473
35.20000 319.503
35.24000 309.681
35.28000 305.879
35.32000 319.532
35.36000 305.653
35.40000 320.729
35.44000 304.549
35.48000 305.131
35.52000 311.935
35.56000 305.070
35.60000 314.261
35.64000 297.542
35.68000 307.377
35.72000 310.585
35.76000 301.487
35.80000 291.008
35.84000 287.163
35.88000 281.446
35.92000 284.767
35.96000 291.617
36.00000 288.749
36.04000 309.601
36.08000 307.788
36.12000 308.950
36.16000 310.096
36.20000 303.544
36.24000 299.918
36.28000 305.976
36.32000 299.243
36.36000 314.858
36.40000 300.341
36.44000 306.018
36.48000 303.604
36.52000 303.486
36.56000 298.058
36.60000 295.550
36.64000 291.181
36.68000 281.412
36.72000 289.617
36.76000 283.094
36.80000 274.260
36.84000 289.294
36.88000 300.708
36.92000 305.294
36.96000 288.046
37.00000 288.542
37.04000 289.219
37.08000 288.272
37.12000 279.389
37.16000 286.095
37.20000 285.861
37.24000 285.684
37.28000 282.561
37.32000 291.675
37.36000 290.601
37.40000 281.050
37.44000 289.149
37.48000 285.504
37.52000 286.736
37.56000 288.634
37.60000 295.172
37.64000 275.234
37.68000 277.916
37.72000 284.873
37.76000 277.526
37.80000 288.901
37.84000 289.895
37.88000 288.504
37.92000 300.351
37.96000 282.338
38.00000 280.147
38.04000 281.733
38.08000 281.386
38.12000 285.390
38.16000 281.615
38.20000 287.518
38.24000 301.472
38.28000 293.266
38.32000 287.828
38.36000 323.677
38.40000 314.305
38.44000 358.690
38.48000 353.855
38.52000 386.505
38.56000 449.911
38.60000 471.566
38.64000 503.137
38.68000 559.236
38.72000 544.152
38.76000 545.366
38.80000 526.098
38.84000 464.822
38.88000 427.550
38.92000 391.961
38.96000 351.499
39.00000 336.903
39.04000 305.375
39.08000 284.611
39.12000 284.822
39.16000 278.942
39.20000 280.375
39.24000 275.590
39.28000 275.141
39.32000 264.110
39.36000 275.787
39.40000 271.994
39.44000 266.620
39.48000 262.647
39.52000 249.724
39.56000 255.843
39.60000 272.238
39.64000 273.041
39.68000 269.477
39.72000 264.373
39.76000 261.186
39.80000 265.320
39.84000 262.225
39.88000 266.756
39.92000 269.220
39.96000 258.895
40.00000 249.729
40.04000 252.843
40.08000 254.320
40.12000 243.188
40.16000 248.732
40.20000 254.075
40.24000 245.032
40.28000 253.176
40.32000 252.352
40.36000 248.708
40.40000 262.697
40.44000 241.288
40.48000 264.643
40.52000 248.673
40.56000 237.636
40.60000 248.786
40.64000 256.891
40.68000 266.275
40.72000 262.379
40.76000 249.455
40.80000 251.606
40.84000 243.775
40.88000 237.897
40.92000 239.769
40.96000 241.288
41.00000 242.457
41.04000 251.638
41.08000 242.032
41.12000 245.377
41.16000 243.925
41.20000 240.505
41.24000 250.123
41.28000 240.124
41.32000 248.159
41.36000 237.026
41.40000 240.567
41.44000 233.246
41.48000 220.487
41.52000 226.595
41.56000 231.770
41.60000 243.177
41.64000 235.750
41.68000 243.332
41.72000 251.704
41.76000 232.462
41.80000 232.710
41.84000 237.775
41.88000 225.769
41.92000 238.060
41.96000 245.583
42.00000 243.254
42.04000 238.522
42.08000 225.543
42.12000 230.521
42.16000 239.406
42.20000 230.940
42.24000 228.301
42.28000 243.024
42.32000 226.081
42.36000 239.988
42.40000 231.293
42.44000 220.898
42.48000 230.869
42.52000 235.150
42.56000 232.122
42.60000 237.339
42.64000 238.021
42.68000 227.518
42.72000 216.949
42.76000 214.112
42.80000 214.173
42.84000 224.556
42.88000 219.385
42.92000 223.412
42.96000 229.536
43.00000 210.022
43.04000 225.192
43.08000 225.606
43.12000 210.914
43.16000 227.304
43.20000 223.465
43.24000 221.789
43.28000 226.626
43.32000 219.136
43.36000 222.902
43.40000 217.183
43.44000 215.918
43.48000 232.936
43.52000 228.786
43.56000 221.878
43.60000 213.448
43.64000 222.775
43.68000 207.757
43.72000 207.088
43.76000 223.523
43.80000 224.094
43.84000 215.697
43.88000 218.405
43.92000 213.277
43.96000 227.717
44.00000 222.781
44.04000 209.955
44.08000 219.152
44.12000 219.207
44.16000 221.159
44.20000 211.343
44.24000 206.437
44.28000 208.368
44.32000 210.510
44.36000 209.879
44.40000 214.892
44.44000 215.860
44.48000 213.431
44.52000 211.696
44.56000 204.371
44.60000 226.797
44.64000 208.805
44.68000 220.154
44.72000 220.613
44.76000 222.020
44.80000 236.708
44.84000 236.295
44.88000 224.967
44.92000 221.861
44.96000 228.916
45.00000 241.475
45.04000 242.345
45.08000 223.867
45.12000 250.596
45.16000 242.866
45.20000 227.532
45.24000 239.777
45.28000 246.535
45.32000 249.841
45.36000 247.246
45.40000 248.435
45.44000 239.622
45.48000 239.941
45.52000 250.627
45.56000 237.783
45.60000 246.172
45.64000 231.423
45.68000 216.463
45.72000 221.180
45.76000 223.058
45.80000 228.211
45.84000 225.026
45.88000 223.066
45.92000 225.986
45.96000 203.582
46.00000 206.277
46.04000 203.253
46.08000 201.031
46.12000 195.264
46.16000 204.674
46.20000 205.910
46.24000 200.288
46.28000 199.019
46.32000 195.162
46.36000 203.548
46.40000 202.699
46.44000 198.902
46.48000 204.328
46.52000 196.592
46.56000 192.320
46.60000 184.914
46.64000 199.032
46.68000 200.496
46.72000 202.611
46.76000 208.100
46.80000 203.709
46.84000 207.957
46.88000 190.468
46.92000 201.632
46.96000 183.733
47.00000 190.989
47.04000 186.231
47.08000 208.307
47.12000 192.811
47.16000 189.099
47.20000 195.614
47.24000 198.012
47.28000 190.148
47.32000 197.636
47.36000 188.333
47.40000 193.580
47.44000 184.129
47.48000 193.715
47.52000 182.507
47.56000 187.566
47.60000 183.357
47.64000 182.914
47.68000 178.399
47.72000 193.280
47.76000 181.536
47.80000 172.728
47.84000 188.879
47.88000 176.899
47.92000 178.763
47.96000 184.899
48.00000 183.038
48.04000 182.741
48.08000 187.588
48.12000 190.135
48.16000 171.254
48.20000 191.575
48.24000 189.097
48.28000 190.056
48.32000 184.801
48.36000 175.605
48.40000 176.082
48.44000 178.367
48.48000 180.262
48.52000 192.001
48.56000 187.873
48.60000 178.388
48.64000 175.925
48.68000 174.155
48.72000 176.126
48.76000 179.340
48.80000 179.949
48.84000 175.376
48.88000 174.104
48.92000 172.786
48.96000 171.461
49.00000 178.914
49.04000 192.535
49.08000 160.848
49.12000 177.824
49.16000 172.022
49.20000 169.617
49.24000 184.195
49.28000 177.264
49.32000 187.793
49.36000 179.256
49.40000 178.796
49.44000 171.341
49.48000 167.994
49.52000 177.351
49.56000 167.399
49.60000 170.709
49.64000 184.621
49.68000 169.932
49.72000 162.068
49.76000 176.564
49.80000 178.178
49.84000 166.044
49.88000 169.143
49.92000 174.096
49.96000 166.983
50.00000 166.329
50.04000 178.510
50.08000 168.985
50.12000 170.764
50.16000 180.684
50.20000 171.539
50.24000 179.323
50.28000 177.416
50.32000 167.878
50.36000 188.816
50.40000 174.242
50.44000 176.593
50.48000 183.495
50.52000 186.196
50.56000 179.218
50.60000 186.575
50.64000 187.518
50.68000 202.452
50.72000 184.181
50.76000 187.524
50.80000 180.362
50.84000 185.994
50.88000 194.892
50.92000 183.974
50.96000 181.783
51.00000 185.706
51.04000 189.769
51.08000 173.041
51.12000 172.516
51.16000 176.586
51.20000 172.188
51.24000 172.162
51.28000 163.682
51.32000 173.805
51.36000 169.897
51.40000 170.718
51.44000 152.509
51.48000 172.557
51.52000 171.702
51.56000 161.841
51.60000 163.470
51.64000 171.569
51.68000 162.339
51.72000 169.081
51.76000 154.909
51.80000 163.323
51.84000 152.895
51.88000 157.371
51.92000 162.848
51.96000 164.596
52.00000 157.714
52.04000 166.044
52.08000 159.593
52.12000 162.255
52.16000 165.250
52.20000 161.295
52.24000 161.133
52.28000 159.474
52.32000 165.814
52.36000 154.830
52.40000 159.561
52.44000 155.538
52.48000 169.887
52.52000 153.912
52.56000 162.247
52.60000 158.089
52.64000 149.477
52.68000 157.331
52.72000 159.524
52.76000 152.148
52.80000 151.296
52.84000 155.101
52.88000 162.435
52.92000 153.280
52.96000 152.323
53.00000 166.736
53.04000 168.882
53.08000 164.252
53.12000 163.697
53.16000 160.845
53.20000 152.950
53.24000 152.643
53.28000 153.119
53.32000 158.527
53.36000 162.289
53.40000 147.670
53.44000 162.453
53.48000 159.142
53.52000 153.945
53.56000 160.391
53.60000 150.644
53.64000 157.398
53.68000 151.655
53.72000 151.904
53.76000 156.686
53.80000 153.396
53.84000 141.970
53.88000 159.658
53.92000 149.753
53.96000 166.361
54.00000 149.108
54.04000 146.399
54.08000 143.992
54.12000 155.996
54.16000 159.196
54.20000 166.421
54.24000 149.746
54.28000 153.742
54.32000 147.261
54.36000 148.661
54.40000 156.692
54.44000 155.143
54.48000 148.856
54.52000 161.254
54.56000 150.751
54.60000 147.276
54.64000 155.601
54.68000 150.680
54.72000 159.219
54.76000 145.885
54.80000 154.088
54.84000 146.703
54.88000 160.182
54.92000 156.621
54.96000 150.964
55.00000 142.122
55.04000 154.454
55.08000 161.474
55.12000 159.269
55.16000 161.487
55.20000 154.991
55.24000 166.463
55.28000 157.827
55.32000 170.728
55.36000 160.213
55.40000 164.454
55.44000 173.485
55.48000 166.280
55.52000 166.700
55.56000 174.182
55.60000 187.926
55.64000 199.686
55.68000 209.688
55.72000 221.352
55.76000 230.614
55.80000 246.411
55.84000 265.466
55.88000 267.137
55.92000 286.334
55.96000 281.974
56.00000 275.804
56.04000 276.303
56.08000 272.565
56.12000 249.131
56.16000 234.491
56.20000 232.392
56.24000 209.994
56.28000 207.064
56.32000 189.880
56.36000 184.959
56.40000 174.883
56.44000 171.287
56.48000 175.928
56.52000 161.376
56.56000 158.745
56.60000 163.385
56.64000 146.256
56.68000 160.249
56.72000 144.414
56.76000 143.485
56.80000 140.665
56.84000 150.130
56.88000 149.064
56.92000 136.883
56.96000 151.121
57.00000 136.466
57.04000 152.246
57.08000 143.898
57.12000 136.835
57.16000 150.860
57.20000 150.486
57.24000 146.015
57.28000 151.607
57.32000 143.351
57.36000 143.327
57.40000 139.918
57.44000 143.155
57.48000 144.914
57.52000 146.705
57.56000 144.729
57.60000 151.413
57.64000 149.688
57.68000 145.893
57.72000 141.206
57.76000 139.100
57.80000 143.570
57.84000 130.504
57.88000 142.338
57.92000 130.436
57.96000 137.781
58.00000 140.550
58.04000 147.595
58.08000 139.549
58.12000 134.396
58.16000 138.062
58.20000 137.298
58.24000 136.547
58.28000 135.585
58.32000 139.510
58.36000 144.036
58.40000 136.437
58.44000 132.788
58.48000 142.432
58.52000 142.855
58.56000 137.791
58.60000 134.311
58.64000 129.608
58.68000 137.499
58.72000 139.567
58.76000 136.532
58.80000 134.408
58.84000 139.381
58.88000 134.301
58.92000 144.903
58.96000 126.472
59.00000 139.395
59.04000 140.728
59.08000 135.129
59.12000 139.369
59.16000 136.989
59.20000 127.858
59.24000 133.728
59.28000 130.449
59.32000 132.274
59.36000 133.679
59.40000 134.312
59.44000 127.173
59.48000 136.916
59.52000 132.759
59.56000 134.044
59.60000 134.160
59.64000 129.288
59.68000 138.538
59.72000 133.462
59.76000 138.615
59.80000 123.833
59.84000 133.738
59.88000 125.851
59.92000 133.441
59.96000 140.494
60.00000 128.017
60.04000 143.201
60.08000 128.960
60.12000 120.382
60.16000 131.713
60.20000 128.450
60.24000 138.457
60.28000 140.610
60.32000 123.061
60.36000 133.503
60.40000 143.218
60.44000 133.728
60.48000 139.574
60.52000 134.004
60.56000 137.498
60.60000 141.696
60.64000 136.602
60.68000 132.266
60.72000 134.686
60.76000 137.495
60.80000 135.514
60.84000 135.434
60.88000 135.190
60.92000 130.448
60.96000 144.219
61.00000 129.457
61.04000 126.800
61.08000 141.827
61.12000 132.087
61.16000 139.359
61.20000 140.681
61.24000 134.609
61.28000 140.578
61.32000 134.668
61.36000 137.793
61.40000 143.701
61.44000 139.666
61.48000 147.542
61.52000 146.684
61.56000 187.585
61.60000 225.700
61.64000 252.389
61.68000 249.598
61.72000 255.806
61.76000 258.694
61.80000 230.324
61.84000 174.786
61.88000 151.690
61.92000 145.827
61.96000 136.383
62.00000 145.892
62.04000 136.106
62.08000 139.727
62.12000 145.752
62.16000 144.639
62.20000 141.253
62.24000 134.466
62.28000 143.912
62.32000 159.977
62.36000 139.060
62.40000 143.865
62.44000 136.584
62.48000 143.567
62.52000 138.615
62.56000 142.931
62.60000 144.210
62.64000 148.790
62.68000 136.540
62.72000 145.802
62.76000 145.494
62.80000 150.098
62.84000 148.730
62.88000 145.113
62.92000 137.543
62.96000 151.011
63.00000 150.173
63.04000 146.935
63.08000 141.767
63.12000 142.850
63.16000 154.456
63.20000 150.856
63.24000 144.400
63.28000 147.511
63.32000 143.094
63.36000 150.659
63.40000 147.840
63.44000 139.414
63.48000 158.318
63.52000 152.964
63.56000 148.093
63.60000 159.985
63.64000 159.178
63.68000 148.864
63.72000 150.713
63.76000 166.018
63.80000 161.973
63.84000 162.036
63.88000 147.875
63.92000 167.017
63.96000 148.915
64.00000 152.158
64.04000 151.466
64.08000 161.387
64.12000 155.965
64.16000 162.879
64.20000 164.907
64.24000 166.631
64.28000 169.138
64.32000 156.917
64.36000 161.843
64.40000 168.338
64.44000 165.155
64.48000 168.328
64.52000 165.481
64.56000 168.699
64.60000 175.940
64.64000 179.218
64.68000 183.001
64.72000 171.448
64.76000 173.418
64.80000 186.596
64.84000 188.142
64.88000 171.189
64.92000 185.188
64.96000 194.621
65.00000 198.581
65.04000 186.795
65.08000 187.936
65.12000 199.115
65.16000 191.698
65.20000 208.650
65.24000 200.138
65.28000 203.279
65.32000 211.570
65.36000 220.858
65.40000 232.568
65.44000 249.138
65.48000 252.002
65.52000 261.831
65.56000 258.387
65.60000 281.848
65.64000 319.821
65.68000 344.126
65.72000 466.397
65.76000 671.421
65.80000 870.099
65.84000 997.682
65.88000 1011.689
65.92000 1019.225
65.96000 927.079
66.00000 673.008
66.04000 509.153
66.08000 390.206
66.12000 317.747
66.16000 312.825
66.20000 322.305
66.24000 322.258
66.28000 336.181
66.32000 400.217
66.36000 407.672
66.40000 429.009
66.44000 460.211
66.48000 435.445
66.52000 398.105
66.56000 385.986
66.60000 348.512
66.64000 317.153
66.68000 323.055
66.72000 322.627
66.76000 324.136
66.80000 341.069
66.84000 336.534
66.88000 345.966
66.92000 342.676
66.96000 359.903
67.00000 354.887
67.04000 357.241
67.08000 369.148
67.12000 370.815
67.16000 368.927
67.20000 377.699
67.24000 370.651
67.28000 374.277
67.32000 400.058
67.36000 404.307
67.40000 407.537
67.44000 412.779
67.48000 412.647
67.52000 407.416
67.56000 438.767
67.60000 459.116
67.64000 459.844
67.68000 468.205
67.72000 470.164
67.76000 476.344
67.80000 490.743
67.84000 489.962
67.88000 481.723
67.92000 515.987
67.96000 521.635
68.00000 552.497
68.04000 562.550
68.08000 551.954
68.12000 594.384
68.16000 592.650
68.20000 592.987
68.24000 609.207
68.28000 618.975
68.32000 648.759
68.36000 654.308
68.40000 684.155
68.44000 715.565
68.48000 750.359
68.52000 788.770
68.56000 856.805
68.60000 918.687
68.64000 1061.819
68.68000 1240.396
68.72000 1461.306
68.76000 1659.136
68.80000 1848.627
68.84000 2077.396
68.88000 2480.928
68.92000 3680.508
68.96000 8761.379
69.00000 21863.051
69.04000 39623.746
69.08000 50829.191
69.12000 53515.285
69.16000 55383.820
69.20000 57274.027
69.24000 51045.648
69.28000 38440.172
69.32000 30443.545
69.36000 27101.137
69.40000 23782.184
69.44000 16248.320
69.48000 7773.636
69.52000 3421.968
69.56000 1974.802
69.60000 1488.896
69.64000 1289.577
69.68000 1127.167
69.72000 1027.010
69.76000 938.656
69.80000 859.054
69.84000 788.432
69.88000 769.096
69.92000 712.131
69.96000 688.065
70.00000 668.488