File: XRD/XRD/25-09-2025/XY Data/BTO_Mapping_Theta2Theta_25-09-2025_001_17_12-361_38-042.xy
20.00000 567.049
20.04000 568.106
20.08000 576.573
20.12000 562.046
20.16000 549.763
20.20000 559.895
20.24000 555.552
20.28000 554.583
20.32000 554.481
20.36000 563.972
20.40000 543.505
20.44000 545.826
20.48000 539.756
20.52000 565.081
20.56000 548.245
20.60000 532.233
20.64000 555.609
20.68000 551.647
20.72000 540.350
20.76000 547.579
20.80000 532.858
20.84000 543.495
20.88000 527.401
20.92000 544.318
20.96000 540.556
21.00000 537.075
21.04000 543.755
21.08000 541.229
21.12000 537.247
21.16000 523.927
21.20000 523.781
21.24000 533.227
21.28000 558.378
21.32000 544.743
21.36000 543.325
21.40000 542.234
21.44000 528.389
21.48000 536.670
21.52000 539.268
21.56000 538.416
21.60000 544.146
21.64000 539.707
21.68000 552.273
21.72000 548.483
21.76000 552.033
21.80000 555.142
21.84000 560.556
21.88000 565.019
21.92000 563.861
21.96000 592.713
22.00000 590.914
22.04000 591.967
22.08000 610.525
22.12000 593.317
22.16000 618.945
22.20000 600.762
22.24000 585.875
22.28000 599.479
22.32000 599.334
22.36000 614.865
22.40000 582.961
22.44000 565.686
22.48000 564.017
22.52000 544.944
22.56000 533.723
22.60000 526.032
22.64000 522.093
22.68000 518.057
22.72000 531.688
22.76000 529.988
22.80000 515.392
22.84000 510.897
22.88000 507.170
22.92000 501.903
22.96000 518.141
23.00000 529.108
23.04000 499.170
23.08000 518.128
23.12000 487.924
23.16000 490.372
23.20000 506.884
23.24000 523.448
23.28000 504.809
23.32000 488.070
23.36000 498.809
23.40000 492.362
23.44000 497.101
23.48000 508.613
23.52000 502.706
23.56000 496.420
23.60000 503.873
23.64000 502.928
23.68000 514.742
23.72000 499.184
23.76000 523.277
23.80000 502.300
23.84000 493.657
23.88000 502.660
23.92000 489.321
23.96000 515.989
24.00000 500.762
24.04000 505.074
24.08000 462.555
24.12000 485.977
24.16000 482.922
24.20000 467.458
24.24000 478.540
24.28000 475.657
24.32000 484.326
24.36000 467.308
24.40000 492.944
24.44000 511.008
24.48000 472.629
24.52000 464.674
24.56000 477.782
24.60000 475.505
24.64000 474.363
24.68000 486.731
24.72000 481.285
24.76000 469.357
24.80000 472.253
24.84000 474.773
24.88000 473.767
24.92000 483.925
24.96000 478.116
25.00000 482.781
25.04000 455.508
25.08000 457.502
25.12000 488.569
25.16000 457.837
25.20000 472.339
25.24000 481.980
25.28000 470.775
25.32000 468.109
25.36000 475.535
25.40000 469.427
25.44000 465.444
25.48000 468.470
25.52000 452.854
25.56000 468.396
25.60000 458.468
25.64000 451.287
25.68000 449.955
25.72000 456.257
25.76000 467.092
25.80000 453.211
25.84000 460.622
25.88000 464.665
25.92000 462.025
25.96000 461.322
26.00000 462.765
26.04000 445.470
26.08000 461.010
26.12000 446.095
26.16000 444.199
26.20000 452.466
26.24000 442.683
26.28000 439.575
26.32000 451.420
26.36000 449.725
26.40000 455.498
26.44000 450.040
26.48000 457.838
26.52000 456.384
26.56000 432.727
26.60000 429.767
26.64000 438.104
26.68000 460.428
26.72000 435.802
26.76000 435.054
26.80000 437.718
26.84000 431.951
26.88000 442.718
26.92000 429.381
26.96000 443.112
27.00000 450.952
27.04000 457.738
27.08000 444.777
27.12000 446.147
27.16000 429.678
27.20000 435.649
27.24000 440.252
27.28000 416.101
27.32000 428.658
27.36000 420.603
27.40000 423.606
27.44000 417.950
27.48000 422.520
27.52000 436.711
27.56000 433.265
27.60000 421.555
27.64000 421.437
27.68000 425.199
27.72000 425.861
27.76000 435.784
27.80000 427.081
27.84000 425.985
27.88000 419.977
27.92000 417.447
27.96000 424.572
28.00000 438.839
28.04000 428.266
28.08000 416.174
28.12000 421.667
28.16000 411.563
28.20000 393.622
28.24000 415.870
28.28000 422.991
28.32000 420.328
28.36000 416.341
28.40000 401.162
28.44000 425.481
28.48000 426.306
28.52000 418.629
28.56000 420.739
28.60000 424.237
28.64000 421.876
28.68000 409.680
28.72000 421.746
28.76000 405.012
28.80000 410.629
28.84000 409.800
28.88000 418.377
28.92000 415.884
28.96000 406.428
29.00000 424.114
29.04000 407.797
29.08000 417.305
29.12000 399.585
29.16000 405.368
29.20000 400.003
29.24000 396.871
29.28000 399.675
29.32000 410.671
29.36000 417.744
29.40000 404.314
29.44000 398.398
29.48000 399.341
29.52000 407.426
29.56000 411.884
29.60000 396.594
29.64000 405.001
29.68000 399.807
29.72000 403.149
29.76000 413.977
29.80000 406.986
29.84000 405.405
29.88000 403.792
29.92000 408.475
29.96000 391.054
30.00000 398.235
30.04000 422.516
30.08000 416.434
30.12000 398.268
30.16000 412.395
30.20000 409.071
30.24000 402.732
30.28000 407.435
30.32000 408.149
30.36000 387.453
30.40000 407.183
30.44000 412.752
30.48000 414.566
30.52000 408.928
30.56000 413.885
30.60000 416.237
30.64000 415.669
30.68000 421.301
30.72000 422.181
30.76000 418.613
30.80000 429.865
30.84000 440.269
30.88000 450.062
30.92000 448.336
30.96000 447.259
31.00000 474.865
31.04000 506.849
31.08000 564.227
31.12000 639.357
31.16000 711.201
31.20000 803.671
31.24000 932.273
31.28000 1047.495
31.32000 1181.256
31.36000 1252.970
31.40000 1304.511
31.44000 1330.394
31.48000 1245.081
31.52000 1123.526
31.56000 1019.969
31.60000 897.325
31.64000 811.537
31.68000 709.913
31.72000 619.435
31.76000 557.555
31.80000 524.101
31.84000 484.199
31.88000 463.156
31.92000 453.400
31.96000 417.575
32.00000 419.915
32.04000 404.240
32.08000 392.417
32.12000 378.368
32.16000 393.860
32.20000 399.616
32.24000 383.343
32.28000 385.247
32.32000 372.508
32.36000 404.464
32.40000 400.240
32.44000 391.571
32.48000 376.239
32.52000 377.094
32.56000 386.325
32.60000 376.796
32.64000 369.952
32.68000 357.508
32.72000 375.766
32.76000 354.196
32.80000 368.618
32.84000 371.093
32.88000 374.096
32.92000 373.624
32.96000 362.085
33.00000 373.564
33.04000 380.927
33.08000 349.574
33.12000 358.735
33.16000 346.448
33.20000 336.614
33.24000 348.114
33.28000 352.014
33.32000 343.272
33.36000 344.336
33.40000 341.706
33.44000 332.096
33.48000 331.720
33.52000 333.518
33.56000 347.134
33.60000 339.281
33.64000 338.168
33.68000 326.410
33.72000 322.034
33.76000 309.515
33.80000 324.820
33.84000 336.341
33.88000 323.239
33.92000 345.252
33.96000 332.998
34.00000 342.151
34.04000 323.747
34.08000 328.192
34.12000 344.298
34.16000 340.411
34.20000 330.477
34.24000 332.970
34.28000 323.219
34.32000 314.063
34.36000 320.544
34.40000 315.535
34.44000 307.886
34.48000 319.296
34.52000 318.316
34.56000 315.544
34.60000 301.382
34.64000 309.453
34.68000 320.444
34.72000 321.227
34.76000 322.487
34.80000 307.739
34.84000 316.177
34.88000 307.904
34.92000 322.808
34.96000 313.019
35.00000 322.789
35.04000 294.301
35.08000 315.578
35.12000 300.713
35.16000 323.417
35.20000 329.464
35.24000 297.419
35.28000 315.504
35.32000 303.369
35.36000 305.490
35.40000 307.791
35.44000 310.515
35.48000 296.131
35.52000 304.097
35.56000 303.681
35.60000 306.033
35.64000 297.022
35.68000 291.062
35.72000 293.698
35.76000 301.966
35.80000 296.790
35.84000 302.809
35.88000 306.403
35.92000 292.730
35.96000 301.785
36.00000 298.111
36.04000 313.608
36.08000 288.667
36.12000 303.271
36.16000 310.195
36.20000 296.275
36.24000 309.194
36.28000 303.934
36.32000 278.790
36.36000 287.909
36.40000 304.007
36.44000 305.235
36.48000 304.060
36.52000 301.458
36.56000 294.939
36.60000 291.676
36.64000 278.555
36.68000 296.952
36.72000 290.959
36.76000 298.287
36.80000 293.559
36.84000 282.784
36.88000 293.726
36.92000 291.225
36.96000 284.852
37.00000 298.128
37.04000 287.068
37.08000 297.740
37.12000 286.998
37.16000 289.634
37.20000 291.012
37.24000 293.081
37.28000 274.884
37.32000 285.420
37.36000 294.804
37.40000 284.675
37.44000 288.477
37.48000 285.828
37.52000 283.205
37.56000 301.252
37.60000 297.111
37.64000 282.716
37.68000 283.939
37.72000 295.704
37.76000 287.518
37.80000 286.744
37.84000 283.244
37.88000 288.985
37.92000 287.120
37.96000 271.686
38.00000 282.164
38.04000 284.927
38.08000 290.059
38.12000 278.155
38.16000 292.193
38.20000 281.749
38.24000 279.746
38.28000 291.199
38.32000 296.071
38.36000 301.678
38.40000 318.347
38.44000 338.343
38.48000 369.394
38.52000 415.831
38.56000 449.903
38.60000 525.252
38.64000 581.949
38.68000 618.908
38.72000 634.420
38.76000 629.676
38.80000 588.220
38.84000 546.337
38.88000 476.486
38.92000 437.596
38.96000 373.517
39.00000 324.950
39.04000 317.093
39.08000 300.222
39.12000 287.011
39.16000 294.205
39.20000 286.664
39.24000 278.585
39.28000 267.356
39.32000 275.098
39.36000 262.060
39.40000 260.120
39.44000 250.912
39.48000 273.781
39.52000 271.603
39.56000 264.324
39.60000 265.522
39.64000 273.436
39.68000 265.257
39.72000 270.116
39.76000 270.123
39.80000 271.415
39.84000 267.952
39.88000 268.826
39.92000 265.942
39.96000 271.432
40.00000 257.329
40.04000 255.079
40.08000 259.989
40.12000 264.489
40.16000 258.885
40.20000 275.534
40.24000 253.580
40.28000 255.619
40.32000 249.660
40.36000 245.437
40.40000 257.349
40.44000 245.464
40.48000 240.744
40.52000 243.907
40.56000 247.711
40.60000 240.830
40.64000 246.729
40.68000 249.907
40.72000 240.704
40.76000 251.276
40.80000 255.960
40.84000 251.158
40.88000 240.019
40.92000 227.592
40.96000 242.503
41.00000 237.676
41.04000 243.961
41.08000 239.977
41.12000 237.777
41.16000 232.656
41.20000 242.702
41.24000 250.948
41.28000 235.049
41.32000 236.675
41.36000 239.018
41.40000 234.359
41.44000 244.108
41.48000 235.393
41.52000 248.130
41.56000 233.160
41.60000 226.778
41.64000 240.471
41.68000 244.244
41.72000 237.019
41.76000 225.046
41.80000 246.747
41.84000 236.688
41.88000 226.418
41.92000 237.869
41.96000 233.512
42.00000 238.242
42.04000 237.456
42.08000 221.906
42.12000 227.972
42.16000 223.339
42.20000 231.919
42.24000 233.329
42.28000 236.055
42.32000 237.775
42.36000 226.089
42.40000 222.604
42.44000 234.206
42.48000 226.930
42.52000 220.568
42.56000 208.286
42.60000 224.488
42.64000 237.890
42.68000 241.256
42.72000 208.098
42.76000 219.054
42.80000 225.999
42.84000 233.859
42.88000 229.775
42.92000 214.998
42.96000 224.068
43.00000 223.894
43.04000 207.132
43.08000 219.790
43.12000 226.553
43.16000 223.590
43.20000 213.621
43.24000 230.445
43.28000 226.946
43.32000 222.433
43.36000 229.573
43.40000 224.110
43.44000 233.640
43.48000 217.896
43.52000 217.979
43.56000 220.867
43.60000 214.883
43.64000 220.744
43.68000 226.303
43.72000 202.227
43.76000 224.971
43.80000 225.953
43.84000 218.106
43.88000 223.011
43.92000 216.279
43.96000 201.247
44.00000 220.078
44.04000 205.418
44.08000 209.418
44.12000 214.783
44.16000 220.829
44.20000 215.724
44.24000 216.594
44.28000 217.202
44.32000 223.812
44.36000 209.978
44.40000 218.392
44.44000 223.252
44.48000 211.227
44.52000 217.925
44.56000 202.525
44.60000 224.079
44.64000 228.418
44.68000 224.838
44.72000 220.878
44.76000 215.341
44.80000 212.000
44.84000 232.643
44.88000 241.042
44.92000 218.702
44.96000 241.784
45.00000 237.737
45.04000 237.482
45.08000 243.675
45.12000 245.223
45.16000 262.643
45.20000 246.770
45.24000 263.731
45.28000 265.245
45.32000 245.851
45.36000 250.793
45.40000 248.494
45.44000 255.162
45.48000 250.444
45.52000 257.402
45.56000 254.605
45.60000 235.764
45.64000 238.828
45.68000 240.597
45.72000 225.269
45.76000 230.183
45.80000 220.829
45.84000 225.248
45.88000 204.498
45.92000 216.985
45.96000 220.607
46.00000 214.521
46.04000 203.185
46.08000 208.593
46.12000 192.117
46.16000 204.755
46.20000 203.021
46.24000 209.672
46.28000 204.147
46.32000 191.515
46.36000 196.559
46.40000 206.974
46.44000 188.657
46.48000 194.174
46.52000 192.148
46.56000 206.872
46.60000 199.019
46.64000 185.066
46.68000 196.575
46.72000 188.206
46.76000 185.183
46.80000 196.408
46.84000 206.187
46.88000 188.459
46.92000 195.878
46.96000 189.014
47.00000 196.898
47.04000 195.618
47.08000 194.863
47.12000 184.170
47.16000 191.258
47.20000 190.379
47.24000 197.632
47.28000 185.344
47.32000 199.208
47.36000 199.017
47.40000 176.984
47.44000 184.472
47.48000 187.526
47.52000 183.246
47.56000 187.413
47.60000 178.814
47.64000 191.040
47.68000 186.323
47.72000 174.465
47.76000 183.960
47.80000 172.810
47.84000 185.398
47.88000 185.911
47.92000 189.319
47.96000 187.835
48.00000 187.961
48.04000 188.287
48.08000 183.599
48.12000 178.635
48.16000 184.503
48.20000 180.762
48.24000 184.332
48.28000 189.779
48.32000 184.811
48.36000 190.784
48.40000 171.082
48.44000 171.028
48.48000 189.926
48.52000 188.625
48.56000 189.461
48.60000 176.354
48.64000 185.268
48.68000 176.004
48.72000 183.927
48.76000 188.917
48.80000 177.586
48.84000 192.894
48.88000 175.938
48.92000 183.029
48.96000 177.296
49.00000 172.636
49.04000 181.730
49.08000 177.548
49.12000 182.199
49.16000 179.925
49.20000 188.605
49.24000 173.910
49.28000 180.699
49.32000 187.907
49.36000 180.305
49.40000 180.566
49.44000 166.695
49.48000 173.781
49.52000 170.349
49.56000 179.180
49.60000 175.502
49.64000 177.179
49.68000 171.686
49.72000 174.912
49.76000 177.584
49.80000 168.726
49.84000 196.011
49.88000 176.848
49.92000 169.607
49.96000 155.611
50.00000 163.301
50.04000 183.374
50.08000 173.833
50.12000 178.111
50.16000 176.662
50.20000 177.509
50.24000 172.775
50.28000 176.863
50.32000 167.982
50.36000 182.373
50.40000 181.711
50.44000 174.364
50.48000 165.679
50.52000 176.353
50.56000 180.815
50.60000 176.735
50.64000 197.031
50.68000 178.233
50.72000 191.510
50.76000 170.845
50.80000 182.667
50.84000 184.488
50.88000 180.464
50.92000 178.720
50.96000 187.495
51.00000 179.234
51.04000 183.031
51.08000 188.382
51.12000 167.082
51.16000 169.309
51.20000 174.534
51.24000 169.580
51.28000 174.540
51.32000 158.440
51.36000 162.048
51.40000 166.697
51.44000 171.293
51.48000 167.177
51.52000 159.311
51.56000 161.226
51.60000 161.822
51.64000 158.335
51.68000 160.880
51.72000 167.716
51.76000 156.013
51.80000 165.887
51.84000 159.073
51.88000 162.158
51.92000 168.374
51.96000 165.584
52.00000 164.503
52.04000 157.550
52.08000 167.090
52.12000 152.208
52.16000 160.171
52.20000 165.690
52.24000 159.087
52.28000 168.802
52.32000 166.208
52.36000 166.746
52.40000 160.888
52.44000 156.822
52.48000 153.133
52.52000 161.527
52.56000 153.325
52.60000 151.340
52.64000 159.674
52.68000 156.335
52.72000 152.769
52.76000 159.034
52.80000 153.047
52.84000 153.172
52.88000 151.388
52.92000 146.363
52.96000 150.116
53.00000 158.834
53.04000 155.771
53.08000 157.940
53.12000 151.631
53.16000 157.104
53.20000 158.961
53.24000 149.471
53.28000 170.101
53.32000 145.499
53.36000 157.670
53.40000 156.212
53.44000 163.855
53.48000 155.938
53.52000 161.857
53.56000 144.903
53.60000 154.381
53.64000 164.002
53.68000 156.714
53.72000 148.978
53.76000 157.029
53.80000 152.315
53.84000 162.632
53.88000 160.933
53.92000 155.122
53.96000 144.405
54.00000 154.661
54.04000 150.149
54.08000 149.828
54.12000 150.788
54.16000 151.632
54.20000 152.297
54.24000 151.190
54.28000 162.476
54.32000 158.620
54.36000 148.172
54.40000 149.643
54.44000 153.169
54.48000 152.201
54.52000 145.573
54.56000 146.947
54.60000 151.797
54.64000 149.469
54.68000 158.494
54.72000 145.619
54.76000 150.587
54.80000 151.402
54.84000 151.824
54.88000 155.023
54.92000 151.232
54.96000 151.818
55.00000 149.535
55.04000 158.501
55.08000 157.357
55.12000 140.299
55.16000 154.831
55.20000 163.200
55.24000 152.106
55.28000 159.896
55.32000 161.880
55.36000 162.251
55.40000 174.683
55.44000 167.959
55.48000 178.921
55.52000 180.345
55.56000 179.756
55.60000 194.077
55.64000 183.384
55.68000 217.600
55.72000 224.771
55.76000 251.399
55.80000 295.130
55.84000 310.486
55.88000 320.180
55.92000 341.549
55.96000 328.938
56.00000 343.445
56.04000 309.600
56.08000 293.967
56.12000 287.153
56.16000 275.248
56.20000 239.823
56.24000 229.916
56.28000 206.598
56.32000 190.434
56.36000 187.841
56.40000 179.483
56.44000 173.876
56.48000 164.342
56.52000 167.784
56.56000 151.494
56.60000 163.286
56.64000 171.500
56.68000 152.908
56.72000 154.902
56.76000 149.735
56.80000 155.322
56.84000 147.513
56.88000 150.381
56.92000 138.203
56.96000 142.495
57.00000 150.172
57.04000 145.653
57.08000 136.885
57.12000 144.147
57.16000 151.184
57.20000 141.376
57.24000 147.404
57.28000 140.073
57.32000 141.324
57.36000 141.670
57.40000 145.400
57.44000 133.857
57.48000 131.559
57.52000 133.884
57.56000 146.185
57.60000 136.616
57.64000 144.412
57.68000 140.379
57.72000 143.736
57.76000 140.988
57.80000 137.033
57.84000 131.937
57.88000 143.543
57.92000 131.299
57.96000 140.278
58.00000 137.495
58.04000 141.382
58.08000 144.474
58.12000 138.128
58.16000 142.676
58.20000 138.280
58.24000 144.880
58.28000 138.477
58.32000 149.125
58.36000 131.612
58.40000 141.053
58.44000 143.835
58.48000 142.020
58.52000 136.528
58.56000 133.082
58.60000 134.795
58.64000 129.407
58.68000 140.525
58.72000 144.145
58.76000 136.303
58.80000 147.321
58.84000 132.990
58.88000 133.670
58.92000 141.882
58.96000 134.950
59.00000 127.803
59.04000 124.269
59.08000 135.575
59.12000 140.988
59.16000 139.050
59.20000 134.587
59.24000 131.614
59.28000 128.307
59.32000 129.887
59.36000 145.836
59.40000 119.985
59.44000 129.673
59.48000 129.389
59.52000 137.223
59.56000 132.643
59.60000 136.386
59.64000 127.571
59.68000 127.605
59.72000 135.522
59.76000 129.298
59.80000 132.404
59.84000 136.461
59.88000 130.397
59.92000 129.020
59.96000 138.689
60.00000 125.748
60.04000 120.630
60.08000 131.999
60.12000 136.215
60.16000 129.357
60.20000 139.093
60.24000 127.637
60.28000 125.119
60.32000 135.094
60.36000 138.519
60.40000 132.214
60.44000 135.000
60.48000 135.221
60.52000 130.734
60.56000 129.315
60.60000 124.024
60.64000 133.692
60.68000 137.236
60.72000 131.007
60.76000 128.974
60.80000 131.205
60.84000 129.648
60.88000 131.441
60.92000 136.888
60.96000 135.289
61.00000 132.764
61.04000 134.646
61.08000 133.836
61.12000 133.794
61.16000 131.582
61.20000 140.279
61.24000 130.950
61.28000 145.832
61.32000 129.401
61.36000 128.561
61.40000 142.163
61.44000 146.411
61.48000 141.993
61.52000 161.594
61.56000 183.697
61.60000 229.428
61.64000 243.730
61.68000 265.501
61.72000 273.339
61.76000 266.952
61.80000 223.165
61.84000 176.263
61.88000 152.123
61.92000 144.927
61.96000 146.807
62.00000 148.547
62.04000 144.906
62.08000 145.079
62.12000 139.765
62.16000 134.316
62.20000 133.760
62.24000 137.713
62.28000 130.429
62.32000 143.080
62.36000 143.396
62.40000 138.984
62.44000 144.190
62.48000 134.679
62.52000 144.495
62.56000 143.988
62.60000 150.423
62.64000 147.511
62.68000 128.145
62.72000 144.009
62.76000 144.094
62.80000 141.975
62.84000 145.254
62.88000 131.229
62.92000 156.696
62.96000 138.950
63.00000 163.319
63.04000 137.580
63.08000 135.877
63.12000 149.112
63.16000 150.030
63.20000 149.571
63.24000 147.538
63.28000 152.715
63.32000 152.006
63.36000 147.673
63.40000 147.322
63.44000 154.346
63.48000 140.287
63.52000 159.913
63.56000 150.900
63.60000 148.933
63.64000 149.118
63.68000 148.539
63.72000 150.649
63.76000 151.721
63.80000 155.542
63.84000 149.945
63.88000 165.934
63.92000 152.082
63.96000 156.474
64.00000 161.179
64.04000 162.288
64.08000 156.732
64.12000 154.972
64.16000 166.306
64.20000 160.618
64.24000 157.702
64.28000 162.779
64.32000 163.252
64.36000 178.040
64.40000 177.792
64.44000 163.110
64.48000 166.113
64.52000 172.336
64.56000 163.025
64.60000 179.709
64.64000 173.310
64.68000 181.249
64.72000 176.382
64.76000 173.174
64.80000 178.138
64.84000 187.841
64.88000 174.097
64.92000 186.760
64.96000 195.836
65.00000 185.226
65.04000 188.225
65.08000 185.025
65.12000 195.766
65.16000 199.520
65.20000 214.191
65.24000 221.154
65.28000 216.407
65.32000 224.777
65.36000 234.445
65.40000 250.108
65.44000 254.463
65.48000 247.116
65.52000 279.756
65.56000 278.508
65.60000 304.825
65.64000 316.691
65.68000 405.146
65.72000 516.103
65.76000 721.664
65.80000 917.355
65.84000 1008.824
65.88000 1067.654
65.92000 1034.274
65.96000 902.406
66.00000 672.424
66.04000 481.409
66.08000 365.384
66.12000 340.686
66.16000 312.956
66.20000 315.369
66.24000 320.013
66.28000 345.945
66.32000 384.159
66.36000 421.640
66.40000 442.280
66.44000 442.126
66.48000 442.141
66.52000 423.169
66.56000 366.436
66.60000 350.010
66.64000 313.626
66.68000 319.305
66.72000 320.706
66.76000 327.195
66.80000 326.601
66.84000 335.312
66.88000 341.341
66.92000 348.422
66.96000 351.649
67.00000 347.452
67.04000 361.061
67.08000 361.621
67.12000 357.840
67.16000 361.930
67.20000 365.504
67.24000 369.970
67.28000 392.207
67.32000 382.525
67.36000 380.534
67.40000 412.575
67.44000 417.280
67.48000 426.839
67.52000 435.299
67.56000 441.726
67.60000 448.447
67.64000 443.522
67.68000 457.823
67.72000 476.323
67.76000 483.254
67.80000 467.989
67.84000 499.307
67.88000 504.812
67.92000 522.485
67.96000 541.424
68.00000 527.767
68.04000 539.833
68.08000 555.975
68.12000 588.961
68.16000 589.736
68.20000 596.993
68.24000 616.172
68.28000 632.261
68.32000 644.989
68.36000 672.682
68.40000 690.099
68.44000 731.612
68.48000 755.854
68.52000 807.448
68.56000 839.967
68.60000 961.030
68.64000 1095.072
68.68000 1274.301
68.72000 1514.256
68.76000 1704.835
68.80000 1878.616
68.84000 2198.626
68.88000 2699.011
68.92000 4194.602
68.96000 10544.065
69.00000 25029.598
69.04000 42075.766
69.08000 51460.375
69.12000 53718.891
69.16000 55678.336
69.20000 56686.754
69.24000 48530.215
69.28000 36477.098
69.32000 29308.973
69.36000 26515.795
69.40000 22725.158
69.44000 14366.219
69.48000 6759.976
69.52000 2999.948
69.56000 1857.330
69.60000 1469.829
69.64000 1244.398
69.68000 1093.659
69.72000 1006.420
69.76000 911.773
69.80000 859.676
69.84000 811.742
69.88000 761.722
69.92000 731.629
69.96000 678.605
70.00000 663.312