File: XRD/XRD/25-09-2025/XY Data/BTO_Mapping_Theta2Theta_25-09-2025_001_18_-1-045_9-945.xy
20.00000 555.833
20.04000 550.957
20.08000 558.152
20.12000 561.095
20.16000 553.939
20.20000 546.913
20.24000 539.369
20.28000 568.090
20.32000 554.205
20.36000 569.468
20.40000 563.955
20.44000 543.109
20.48000 530.669
20.52000 537.482
20.56000 558.438
20.60000 548.656
20.64000 544.203
20.68000 544.464
20.72000 546.091
20.76000 548.037
20.80000 550.947
20.84000 527.944
20.88000 555.725
20.92000 519.536
20.96000 535.163
21.00000 544.780
21.04000 511.709
21.08000 542.793
21.12000 536.994
21.16000 527.946
21.20000 544.749
21.24000 529.677
21.28000 549.197
21.32000 544.602
21.36000 568.449
21.40000 535.624
21.44000 538.142
21.48000 527.934
21.52000 531.230
21.56000 538.323
21.60000 537.316
21.64000 520.850
21.68000 553.779
21.72000 527.501
21.76000 532.073
21.80000 551.105
21.84000 567.271
21.88000 544.861
21.92000 580.084
21.96000 605.332
22.00000 623.343
22.04000 601.801
22.08000 604.188
22.12000 633.282
22.16000 635.480
22.20000 632.015
22.24000 645.451
22.28000 610.896
22.32000 619.806
22.36000 588.358
22.40000 577.167
22.44000 570.358
22.48000 559.358
22.52000 572.381
22.56000 565.642
22.60000 538.807
22.64000 540.991
22.68000 529.296
22.72000 530.881
22.76000 539.333
22.80000 511.870
22.84000 484.977
22.88000 510.257
22.92000 516.379
22.96000 515.861
23.00000 507.856
23.04000 498.661
23.08000 507.734
23.12000 504.254
23.16000 508.830
23.20000 524.844
23.24000 495.424
23.28000 497.995
23.32000 485.431
23.36000 497.579
23.40000 504.195
23.44000 508.209
23.48000 510.014
23.52000 492.035
23.56000 497.943
23.60000 497.825
23.64000 498.994
23.68000 507.470
23.72000 504.887
23.76000 503.877
23.80000 489.257
23.84000 491.211
23.88000 504.484
23.92000 500.242
23.96000 477.127
24.00000 492.264
24.04000 488.822
24.08000 490.298
24.12000 500.895
24.16000 487.707
24.20000 492.241
24.24000 480.614
24.28000 491.266
24.32000 483.717
24.36000 477.076
24.40000 472.529
24.44000 462.770
24.48000 476.820
24.52000 466.566
24.56000 489.083
24.60000 481.578
24.64000 480.127
24.68000 468.452
24.72000 453.359
24.76000 480.097
24.80000 465.410
24.84000 475.800
24.88000 469.823
24.92000 471.576
24.96000 471.841
25.00000 469.773
25.04000 481.622
25.08000 495.354
25.12000 463.377
25.16000 470.855
25.20000 484.150
25.24000 469.208
25.28000 460.863
25.32000 456.805
25.36000 461.993
25.40000 467.152
25.44000 453.065
25.48000 465.250
25.52000 459.826
25.56000 447.016
25.60000 436.705
25.64000 447.638
25.68000 460.650
25.72000 457.101
25.76000 452.499
25.80000 461.593
25.84000 455.512
25.88000 452.797
25.92000 452.779
25.96000 469.383
26.00000 446.636
26.04000 454.997
26.08000 445.137
26.12000 455.802
26.16000 436.813
26.20000 459.131
26.24000 468.410
26.28000 449.340
26.32000 454.955
26.36000 439.946
26.40000 436.071
26.44000 440.542
26.48000 453.031
26.52000 464.554
26.56000 440.683
26.60000 444.609
26.64000 421.041
26.68000 442.126
26.72000 428.803
26.76000 438.681
26.80000 445.607
26.84000 453.342
26.88000 449.920
26.92000 419.278
26.96000 437.118
27.00000 446.920
27.04000 435.837
27.08000 443.011
27.12000 445.267
27.16000 434.528
27.20000 431.538
27.24000 431.060
27.28000 423.553
27.32000 427.398
27.36000 437.509
27.40000 424.982
27.44000 426.689
27.48000 441.926
27.52000 442.234
27.56000 424.133
27.60000 429.930
27.64000 420.723
27.68000 428.511
27.72000 422.636
27.76000 413.549
27.80000 416.921
27.84000 412.075
27.88000 413.104
27.92000 417.666
27.96000 406.186
28.00000 427.360
28.04000 419.662
28.08000 444.045
28.12000 414.115
28.16000 416.363
28.20000 420.691
28.24000 416.771
28.28000 429.304
28.32000 420.527
28.36000 412.528
28.40000 410.661
28.44000 417.661
28.48000 413.552
28.52000 416.477
28.56000 412.270
28.60000 416.029
28.64000 396.691
28.68000 416.447
28.72000 407.118
28.76000 416.800
28.80000 401.666
28.84000 402.726
28.88000 426.803
28.92000 393.664
28.96000 391.773
29.00000 415.464
29.04000 409.000
29.08000 414.558
29.12000 396.513
29.16000 409.762
29.20000 408.942
29.24000 408.537
29.28000 397.450
29.32000 394.546
29.36000 395.809
29.40000 392.573
29.44000 386.881
29.48000 373.559
29.52000 387.815
29.56000 394.448
29.60000 400.226
29.64000 375.004
29.68000 386.347
29.72000 380.245
29.76000 396.050
29.80000 411.250
29.84000 405.712
29.88000 416.881
29.92000 420.103
29.96000 417.407
30.00000 402.657
30.04000 410.073
30.08000 412.000
30.12000 418.328
30.16000 429.983
30.20000 407.639
30.24000 412.870
30.28000 391.831
30.32000 407.603
30.36000 398.990
30.40000 402.981
30.44000 407.168
30.48000 421.743
30.52000 408.355
30.56000 426.684
30.60000 405.333
30.64000 406.412
30.68000 417.674
30.72000 410.067
30.76000 410.107
30.80000 383.657
30.84000 427.358
30.88000 434.822
30.92000 443.324
30.96000 474.196
31.00000 489.020
31.04000 519.833
31.08000 551.756
31.12000 642.240
31.16000 768.864
31.20000 864.067
31.24000 1030.900
31.28000 1203.951
31.32000 1333.504
31.36000 1408.474
31.40000 1482.782
31.44000 1429.773
31.48000 1344.540
31.52000 1166.764
31.56000 1041.266
31.60000 875.804
31.64000 759.137
31.68000 658.871
31.72000 588.813
31.76000 512.656
31.80000 479.259
31.84000 468.380
31.88000 442.960
31.92000 431.339
31.96000 421.292
32.00000 410.608
32.04000 395.791
32.08000 393.335
32.12000 404.129
32.16000 371.138
32.20000 383.924
32.24000 379.643
32.28000 375.915
32.32000 373.588
32.36000 372.376
32.40000 369.547
32.44000 376.873
32.48000 377.679
32.52000 386.225
32.56000 366.217
32.60000 377.569
32.64000 383.812
32.68000 361.470
32.72000 371.941
32.76000 358.344
32.80000 360.888
32.84000 376.880
32.88000 365.712
32.92000 359.799
32.96000 346.093
33.00000 363.764
33.04000 364.911
33.08000 351.780
33.12000 335.904
33.16000 354.969
33.20000 340.801
33.24000 343.798
33.28000 347.054
33.32000 349.165
33.36000 327.506
33.40000 342.487
33.44000 332.558
33.48000 329.324
33.52000 344.518
33.56000 344.745
33.60000 322.525
33.64000 343.154
33.68000 312.830
33.72000 329.689
33.76000 330.032
33.80000 341.879
33.84000 327.848
33.88000 308.439
33.92000 324.459
33.96000 339.955
34.00000 328.738
34.04000 327.058
34.08000 324.974
34.12000 331.893
34.16000 323.270
34.20000 315.936
34.24000 329.811
34.28000 327.344
34.32000 314.586
34.36000 306.875
34.40000 303.165
34.44000 324.651
34.48000 331.534
34.52000 321.483
34.56000 317.299
34.60000 333.966
34.64000 318.535
34.68000 318.631
34.72000 317.986
34.76000 308.672
34.80000 313.749
34.84000 313.785
34.88000 314.374
34.92000 318.460
34.96000 302.917
35.00000 319.356
35.04000 317.328
35.08000 312.730
35.12000 310.900
35.16000 302.509
35.20000 310.143
35.24000 310.164
35.28000 305.588
35.32000 309.557
35.36000 312.671
35.40000 310.392
35.44000 299.939
35.48000 296.133
35.52000 312.257
35.56000 294.460
35.60000 304.118
35.64000 300.146
35.68000 293.332
35.72000 298.499
35.76000 296.163
35.80000 298.957
35.84000 305.641
35.88000 297.596
35.92000 298.196
35.96000 296.167
36.00000 298.711
36.04000 299.225
36.08000 296.889
36.12000 293.886
36.16000 294.074
36.20000 307.801
36.24000 299.569
36.28000 293.314
36.32000 296.208
36.36000 297.734
36.40000 281.630
36.44000 290.971
36.48000 289.108
36.52000 285.860
36.56000 286.564
36.60000 288.931
36.64000 287.050
36.68000 304.362
36.72000 291.234
36.76000 288.786
36.80000 294.481
36.84000 284.566
36.88000 297.406
36.92000 297.781
36.96000 304.549
37.00000 303.603
37.04000 292.137
37.08000 295.166
37.12000 309.883
37.16000 293.865
37.20000 295.795
37.24000 291.926
37.28000 276.300
37.32000 279.807
37.36000 277.300
37.40000 299.993
37.44000 291.752
37.48000 287.435
37.52000 272.211
37.56000 284.449
37.60000 293.747
37.64000 287.115
37.68000 298.268
37.72000 281.155
37.76000 285.255
37.80000 280.040
37.84000 279.349
37.88000 287.353
37.92000 271.141
37.96000 287.418
38.00000 296.361
38.04000 279.436
38.08000 286.787
38.12000 275.354
38.16000 284.415
38.20000 282.665
38.24000 290.477
38.28000 299.286
38.32000 293.930
38.36000 331.495
38.40000 341.242
38.44000 367.682
38.48000 428.280
38.52000 470.411
38.56000 547.135
38.60000 665.710
38.64000 740.376
38.68000 783.595
38.72000 831.391
38.76000 825.808
38.80000 775.044
38.84000 723.109
38.88000 603.554
38.92000 534.222
38.96000 453.952
39.00000 393.063
39.04000 344.849
39.08000 331.532
39.12000 313.477
39.16000 289.575
39.20000 278.546
39.24000 275.995
39.28000 263.487
39.32000 270.981
39.36000 285.841
39.40000 278.623
39.44000 268.447
39.48000 266.424
39.52000 264.219
39.56000 262.514
39.60000 270.902
39.64000 275.711
39.68000 272.320
39.72000 238.765
39.76000 257.008
39.80000 260.110
39.84000 270.746
39.88000 271.005
39.92000 256.434
39.96000 264.379
40.00000 262.685
40.04000 266.084
40.08000 251.834
40.12000 263.135
40.16000 254.822
40.20000 252.574
40.24000 247.137
40.28000 252.917
40.32000 248.169
40.36000 254.380
40.40000 253.910
40.44000 251.426
40.48000 260.551
40.52000 243.335
40.56000 238.875
40.60000 239.147
40.64000 250.083
40.68000 251.249
40.72000 247.984
40.76000 242.972
40.80000 256.378
40.84000 237.150
40.88000 254.766
40.92000 246.045
40.96000 247.833
41.00000 235.547
41.04000 250.086
41.08000 246.548
41.12000 246.089
41.16000 235.443
41.20000 253.218
41.24000 237.738
41.28000 235.926
41.32000 246.300
41.36000 223.233
41.40000 238.269
41.44000 248.799
41.48000 234.380
41.52000 237.477
41.56000 242.674
41.60000 234.173
41.64000 231.548
41.68000 239.555
41.72000 230.414
41.76000 227.578
41.80000 235.864
41.84000 235.091
41.88000 232.207
41.92000 232.627
41.96000 215.118
42.00000 224.658
42.04000 229.460
42.08000 232.883
42.12000 228.081
42.16000 230.719
42.20000 236.238
42.24000 230.304
42.28000 241.157
42.32000 242.111
42.36000 232.455
42.40000 232.116
42.44000 233.023
42.48000 219.513
42.52000 233.457
42.56000 232.332
42.60000 238.915
42.64000 221.971
42.68000 226.255
42.72000 219.933
42.76000 220.271
42.80000 226.171
42.84000 226.789
42.88000 223.641
42.92000 233.375
42.96000 230.919
43.00000 228.341
43.04000 222.059
43.08000 214.973
43.12000 211.999
43.16000 233.993
43.20000 224.928
43.24000 226.462
43.28000 220.100
43.32000 220.259
43.36000 220.681
43.40000 228.165
43.44000 210.310
43.48000 223.693
43.52000 211.329
43.56000 215.690
43.60000 218.310
43.64000 233.387
43.68000 223.302
43.72000 219.163
43.76000 214.315
43.80000 212.814
43.84000 227.826
43.88000 231.460
43.92000 230.942
43.96000 213.396
44.00000 211.913
44.04000 218.171
44.08000 211.946
44.12000 220.310
44.16000 214.482
44.20000 221.512
44.24000 193.050
44.28000 196.979
44.32000 208.172
44.36000 223.646
44.40000 229.922
44.44000 220.690
44.48000 220.988
44.52000 211.019
44.56000 223.456
44.60000 222.771
44.64000 231.673
44.68000 229.156
44.72000 223.502
44.76000 249.417
44.80000 227.115
44.84000 232.341
44.88000 254.913
44.92000 241.608
44.96000 251.493
45.00000 253.157
45.04000 258.400
45.08000 268.762
45.12000 266.362
45.16000 252.466
45.20000 267.117
45.24000 259.447
45.28000 273.758
45.32000 268.728
45.36000 244.540
45.40000 260.832
45.44000 260.723
45.48000 254.225
45.52000 268.255
45.56000 257.605
45.60000 243.627
45.64000 245.661
45.68000 249.469
45.72000 252.500
45.76000 246.953
45.80000 235.165
45.84000 241.118
45.88000 229.188
45.92000 220.417
45.96000 235.378
46.00000 210.436
46.04000 210.132
46.08000 223.368
46.12000 200.360
46.16000 209.954
46.20000 217.684
46.24000 206.385
46.28000 205.427
46.32000 206.719
46.36000 205.129
46.40000 205.438
46.44000 210.100
46.48000 201.015
46.52000 211.942
46.56000 205.481
46.60000 199.345
46.64000 199.312
46.68000 206.507
46.72000 190.492
46.76000 205.046
46.80000 209.914
46.84000 195.364
46.88000 189.741
46.92000 202.691
46.96000 195.805
47.00000 195.131
47.04000 181.806
47.08000 187.326
47.12000 199.461
47.16000 194.871
47.20000 187.782
47.24000 186.318
47.28000 193.725
47.32000 203.249
47.36000 185.360
47.40000 183.369
47.44000 184.294
47.48000 187.569
47.52000 180.612
47.56000 177.333
47.60000 193.115
47.64000 197.850
47.68000 185.917
47.72000 185.461
47.76000 179.594
47.80000 182.842
47.84000 179.030
47.88000 179.637
47.92000 180.515
47.96000 179.489
48.00000 180.286
48.04000 176.443
48.08000 181.022
48.12000 186.995
48.16000 184.307
48.20000 184.003
48.24000 178.075
48.28000 179.294
48.32000 175.780
48.36000 178.943
48.40000 183.329
48.44000 191.609
48.48000 165.138
48.52000 189.783
48.56000 175.679
48.60000 185.790
48.64000 178.059
48.68000 168.646
48.72000 176.783
48.76000 173.351
48.80000 159.664
48.84000 174.834
48.88000 169.624
48.92000 184.608
48.96000 171.220
49.00000 173.586
49.04000 186.875
49.08000 178.380
49.12000 179.089
49.16000 186.961
49.20000 181.020
49.24000 167.177
49.28000 178.563
49.32000 174.081
49.36000 176.931
49.40000 174.388
49.44000 165.437
49.48000 175.996
49.52000 180.269
49.56000 174.507
49.60000 173.369
49.64000 175.364
49.68000 165.373
49.72000 175.074
49.76000 167.541
49.80000 178.640
49.84000 176.617
49.88000 175.748
49.92000 184.214
49.96000 173.616
50.00000 169.258
50.04000 174.625
50.08000 182.219
50.12000 181.387
50.16000 168.250
50.20000 160.924
50.24000 165.071
50.28000 175.958
50.32000 180.713
50.36000 180.192
50.40000 178.799
50.44000 192.077
50.48000 182.626
50.52000 186.834
50.56000 193.662
50.60000 189.308
50.64000 198.422
50.68000 205.787
50.72000 196.694
50.76000 213.118
50.80000 193.429
50.84000 184.268
50.88000 196.239
50.92000 184.759
50.96000 203.845
51.00000 189.783
51.04000 190.146
51.08000 191.124
51.12000 178.698
51.16000 174.835
51.20000 166.127
51.24000 169.698
51.28000 172.740
51.32000 164.223
51.36000 170.998
51.40000 164.168
51.44000 164.389
51.48000 173.200
51.52000 165.847
51.56000 151.755
51.60000 163.760
51.64000 156.674
51.68000 151.850
51.72000 165.752
51.76000 164.387
51.80000 168.916
51.84000 158.204
51.88000 157.571
51.92000 157.901
51.96000 159.695
52.00000 155.705
52.04000 157.702
52.08000 157.005
52.12000 159.413
52.16000 161.030
52.20000 153.362
52.24000 165.692
52.28000 161.243
52.32000 155.076
52.36000 156.990
52.40000 162.896
52.44000 140.297
52.48000 157.102
52.52000 153.027
52.56000 163.040
52.60000 163.148
52.64000 169.888
52.68000 158.355
52.72000 151.025
52.76000 155.096
52.80000 157.213
52.84000 140.172
52.88000 155.932
52.92000 152.525
52.96000 153.315
53.00000 145.410
53.04000 159.200
53.08000 153.564
53.12000 147.826
53.16000 149.881
53.20000 153.383
53.24000 169.101
53.28000 164.161
53.32000 160.459
53.36000 161.359
53.40000 156.593
53.44000 157.959
53.48000 153.970
53.52000 148.740
53.56000 156.476
53.60000 147.705
53.64000 145.122
53.68000 156.279
53.72000 150.346
53.76000 158.554
53.80000 151.375
53.84000 164.434
53.88000 148.588
53.92000 147.688
53.96000 151.679
54.00000 163.021
54.04000 155.699
54.08000 144.179
54.12000 156.597
54.16000 144.050
54.20000 145.434
54.24000 146.633
54.28000 154.992
54.32000 153.227
54.36000 146.135
54.40000 144.490
54.44000 153.244
54.48000 149.568
54.52000 159.743
54.56000 155.808
54.60000 147.804
54.64000 148.824
54.68000 162.636
54.72000 158.196
54.76000 160.962
54.80000 153.071
54.84000 148.014
54.88000 161.170
54.92000 147.289
54.96000 154.698
55.00000 144.863
55.04000 154.800
55.08000 143.412
55.12000 160.527
55.16000 162.573
55.20000 158.673
55.24000 157.246
55.28000 161.824
55.32000 156.423
55.36000 172.533
55.40000 176.208
55.44000 170.772
55.48000 181.287
55.52000 181.436
55.56000 204.167
55.60000 215.348
55.64000 226.401
55.68000 258.627
55.72000 299.387
55.76000 345.578
55.80000 362.625
55.84000 394.914
55.88000 437.796
55.92000 466.053
55.96000 473.294
56.00000 470.747
56.04000 465.447
56.08000 424.666
56.12000 392.515
56.16000 382.468
56.20000 328.121
56.24000 317.042
56.28000 276.370
56.32000 238.321
56.36000 228.350
56.40000 212.308
56.44000 190.251
56.48000 178.760
56.52000 178.293
56.56000 166.216
56.60000 153.671
56.64000 170.413
56.68000 157.281
56.72000 153.389
56.76000 157.095
56.80000 156.524
56.84000 142.845
56.88000 142.847
56.92000 155.206
56.96000 155.474
57.00000 146.362
57.04000 147.281
57.08000 148.107
57.12000 141.198
57.16000 151.017
57.20000 140.226
57.24000 146.863
57.28000 148.434
57.32000 147.020
57.36000 148.323
57.40000 145.605
57.44000 143.629
57.48000 126.198
57.52000 144.010
57.56000 137.070
57.60000 146.268
57.64000 136.528
57.68000 133.334
57.72000 143.580
57.76000 130.999
57.80000 137.308
57.84000 143.529
57.88000 147.001
57.92000 146.398
57.96000 141.359
58.00000 139.139
58.04000 135.808
58.08000 144.030
58.12000 137.503
58.16000 139.967
58.20000 137.118
58.24000 122.480
58.28000 132.076
58.32000 129.526
58.36000 133.918
58.40000 136.891
58.44000 139.742
58.48000 134.737
58.52000 134.289
58.56000 130.572
58.60000 131.888
58.64000 141.665
58.68000 133.323
58.72000 134.768
58.76000 135.181
58.80000 137.552
58.84000 134.837
58.88000 140.506
58.92000 127.701
58.96000 134.140
59.00000 130.146
59.04000 129.181
59.08000 137.031
59.12000 137.264
59.16000 145.400
59.20000 127.796
59.24000 129.281
59.28000 132.653
59.32000 129.008
59.36000 142.727
59.40000 122.266
59.44000 122.129
59.48000 125.663
59.52000 136.048
59.56000 143.373
59.60000 129.123
59.64000 135.993
59.68000 124.224
59.72000 148.293
59.76000 138.398
59.80000 135.569
59.84000 136.703
59.88000 131.952
59.92000 136.663
59.96000 134.165
60.00000 127.875
60.04000 133.489
60.08000 122.526
60.12000 136.097
60.16000 132.240
60.20000 127.342
60.24000 136.941
60.28000 135.296
60.32000 116.440
60.36000 130.934
60.40000 119.098
60.44000 129.162
60.48000 133.670
60.52000 124.239
60.56000 130.654
60.60000 122.883
60.64000 133.137
60.68000 136.957
60.72000 125.988
60.76000 131.053
60.80000 129.735
60.84000 140.909
60.88000 136.903
60.92000 130.337
60.96000 130.246
61.00000 131.301
61.04000 129.267
61.08000 139.416
61.12000 128.288
61.16000 134.826
61.20000 145.796
61.24000 142.120
61.28000 136.124
61.32000 137.240
61.36000 141.788
61.40000 133.653
61.44000 141.648
61.48000 140.339
61.52000 161.065
61.56000 199.289
61.60000 241.289
61.64000 259.152
61.68000 258.572
61.72000 263.993
61.76000 254.340
61.80000 218.365
61.84000 176.018
61.88000 156.310
61.92000 146.675
61.96000 157.162
62.00000 142.645
62.04000 154.972
62.08000 132.808
62.12000 143.403
62.16000 128.758
62.20000 144.015
62.24000 137.037
62.28000 138.401
62.32000 130.964
62.36000 146.578
62.40000 138.628
62.44000 138.521
62.48000 135.539
62.52000 137.369
62.56000 133.363
62.60000 129.904
62.64000 144.689
62.68000 144.057
62.72000 140.342
62.76000 141.845
62.80000 145.249
62.84000 146.704
62.88000 137.809
62.92000 151.060
62.96000 154.386
63.00000 141.589
63.04000 147.887
63.08000 142.679
63.12000 149.725
63.16000 143.149
63.20000 155.220
63.24000 145.853
63.28000 128.302
63.32000 155.337
63.36000 147.244
63.40000 142.180
63.44000 144.809
63.48000 140.061
63.52000 146.512
63.56000 154.644
63.60000 157.102
63.64000 156.461
63.68000 148.026
63.72000 144.519
63.76000 156.745
63.80000 157.891
63.84000 153.724
63.88000 149.726
63.92000 145.842
63.96000 162.260
64.00000 159.504
64.04000 156.266
64.08000 156.588
64.12000 162.294
64.16000 143.966
64.20000 155.493
64.24000 166.161
64.28000 153.559
64.32000 156.240
64.36000 167.489
64.40000 160.765
64.44000 156.533
64.48000 167.006
64.52000 165.173
64.56000 153.732
64.60000 176.830
64.64000 170.590
64.68000 166.040
64.72000 167.043
64.76000 181.869
64.80000 182.346
64.84000 176.783
64.88000 181.251
64.92000 183.024
64.96000 193.889
65.00000 195.036
65.04000 188.479
65.08000 202.585
65.12000 205.539
65.16000 198.395
65.20000 217.024
65.24000 220.774
65.28000 226.311
65.32000 235.170
65.36000 238.662
65.40000 249.245
65.44000 265.952
65.48000 277.173
65.52000 278.583
65.56000 295.260
65.60000 308.622
65.64000 336.024
65.68000 377.033
65.72000 556.851
65.76000 757.363
65.80000 956.159
65.84000 1061.527
65.88000 1070.819
65.92000 1036.950
65.96000 885.180
66.00000 614.397
66.04000 447.027
66.08000 353.664
66.12000 310.712
66.16000 305.051
66.20000 311.416
66.24000 305.395
66.28000 351.406
66.32000 382.187
66.36000 419.323
66.40000 438.061
66.44000 438.860
66.48000 439.284
66.52000 414.040
66.56000 369.363
66.60000 336.703
66.64000 295.605
66.68000 308.071
66.72000 319.535
66.76000 327.035
66.80000 334.328
66.84000 339.817
66.88000 327.089
66.92000 356.300
66.96000 340.311
67.00000 341.509
67.04000 354.213
67.08000 361.739
67.12000 347.417
67.16000 376.492
67.20000 380.560
67.24000 382.821
67.28000 379.546
67.32000 386.595
67.36000 400.876
67.40000 388.780
67.44000 388.317
67.48000 422.977
67.52000 440.309
67.56000 447.172
67.60000 432.423
67.64000 445.590
67.68000 451.114
67.72000 455.254
67.76000 488.676
67.80000 481.269
67.84000 471.018
67.88000 480.295
67.92000 510.241
67.96000 532.265
68.00000 536.091
68.04000 538.118
68.08000 546.384
68.12000 550.118
68.16000 584.244
68.20000 603.621
68.24000 601.605
68.28000 620.723
68.32000 652.575
68.36000 678.725
68.40000 698.413
68.44000 726.586
68.48000 735.109
68.52000 771.593
68.56000 867.183
68.60000 969.004
68.64000 1110.239
68.68000 1318.574
68.72000 1546.303
68.76000 1757.955
68.80000 1989.994
68.84000 2312.558
68.88000 2854.840
68.92000 4783.855
68.96000 12163.573
69.00000 27355.359
69.04000 43951.008
69.08000 52332.125
69.12000 54512.340
69.16000 56522.855
69.20000 56860.094
69.24000 47124.797
69.28000 35949.156
69.32000 29435.898
69.36000 26629.150
69.40000 22049.445
69.44000 13444.415
69.48000 6331.100
69.52000 2865.474
69.56000 1891.167
69.60000 1450.101
69.64000 1265.041
69.68000 1102.090
69.72000 987.969
69.76000 894.581
69.80000 851.882
69.84000 781.528
69.88000 750.326
69.92000 725.400
69.96000 684.355
70.00000 654.498