File: XRD/XRD/25-09-2025/XY Data/BTO_Mapping_Theta2Theta_25-09-2025_001_48_-3-136_-29-836.xy
20.00000 563.651
20.04000 552.568
20.08000 546.659
20.12000 557.216
20.16000 557.860
20.20000 559.977
20.24000 552.785
20.28000 575.157
20.32000 523.007
20.36000 543.422
20.40000 540.127
20.44000 564.514
20.48000 547.737
20.52000 537.130
20.56000 562.531
20.60000 543.678
20.64000 545.151
20.68000 549.162
20.72000 541.597
20.76000 564.223
20.80000 551.115
20.84000 514.932
20.88000 549.789
20.92000 542.991
20.96000 546.386
21.00000 547.658
21.04000 559.712
21.08000 555.507
21.12000 508.094
21.16000 558.583
21.20000 551.191
21.24000 521.947
21.28000 541.671
21.32000 531.185
21.36000 545.751
21.40000 535.210
21.44000 535.083
21.48000 541.269
21.52000 553.061
21.56000 545.729
21.60000 551.288
21.64000 557.038
21.68000 561.267
21.72000 562.968
21.76000 603.238
21.80000 580.602
21.84000 615.210
21.88000 624.510
21.92000 634.621
21.96000 675.758
22.00000 707.569
22.04000 714.103
22.08000 714.287
22.12000 699.566
22.16000 678.332
22.20000 674.798
22.24000 657.544
22.28000 637.013
22.32000 623.769
22.36000 597.651
22.40000 588.000
22.44000 570.991
22.48000 572.699
22.52000 543.796
22.56000 533.269
22.60000 538.932
22.64000 502.643
22.68000 521.775
22.72000 508.632
22.76000 500.998
22.80000 492.935
22.84000 504.581
22.88000 507.029
22.92000 518.618
22.96000 516.840
23.00000 502.269
23.04000 501.613
23.08000 495.636
23.12000 509.276
23.16000 502.677
23.20000 491.602
23.24000 506.953
23.28000 515.336
23.32000 502.157
23.36000 499.905
23.40000 503.507
23.44000 514.718
23.48000 508.557
23.52000 504.303
23.56000 486.932
23.60000 490.089
23.64000 487.143
23.68000 495.264
23.72000 496.454
23.76000 502.904
23.80000 502.323
23.84000 468.048
23.88000 497.664
23.92000 488.591
23.96000 474.326
24.00000 487.254
24.04000 505.612
24.08000 486.974
24.12000 471.111
24.16000 481.654
24.20000 472.645
24.24000 487.724
24.28000 493.557
24.32000 483.974
24.36000 478.057
24.40000 474.196
24.44000 443.936
24.48000 477.865
24.52000 466.433
24.56000 491.255
24.60000 480.071
24.64000 470.645
24.68000 476.468
24.72000 480.873
24.76000 467.149
24.80000 481.505
24.84000 483.682
24.88000 484.564
24.92000 474.866
24.96000 457.815
25.00000 498.995
25.04000 476.129
25.08000 491.474
25.12000 457.691
25.16000 465.799
25.20000 472.661
25.24000 461.477
25.28000 462.304
25.32000 465.788
25.36000 478.317
25.40000 458.241
25.44000 458.656
25.48000 465.099
25.52000 467.093
25.56000 460.610
25.60000 466.468
25.64000 437.197
25.68000 460.431
25.72000 456.465
25.76000 460.507
25.80000 452.636
25.84000 450.869
25.88000 479.024
25.92000 453.830
25.96000 452.562
26.00000 447.853
26.04000 452.423
26.08000 448.488
26.12000 455.600
26.16000 450.060
26.20000 449.596
26.24000 453.670
26.28000 439.045
26.32000 437.420
26.36000 441.745
26.40000 432.615
26.44000 452.273
26.48000 456.297
26.52000 460.810
26.56000 459.044
26.60000 439.807
26.64000 440.388
26.68000 455.399
26.72000 440.366
26.76000 442.324
26.80000 435.213
26.84000 445.305
26.88000 436.669
26.92000 409.486
26.96000 423.433
27.00000 433.368
27.04000 446.279
27.08000 445.043
27.12000 457.658
27.16000 442.244
27.20000 429.173
27.24000 420.661
27.28000 443.762
27.32000 430.748
27.36000 421.761
27.40000 423.470
27.44000 414.641
27.48000 437.074
27.52000 424.373
27.56000 437.405
27.60000 435.849
27.64000 435.046
27.68000 428.010
27.72000 428.339
27.76000 431.806
27.80000 419.069
27.84000 415.273
27.88000 435.151
27.92000 412.993
27.96000 429.946
28.00000 413.350
28.04000 433.914
28.08000 436.851
28.12000 435.705
28.16000 428.623
28.20000 420.305
28.24000 426.602
28.28000 407.436
28.32000 435.096
28.36000 427.032
28.40000 406.465
28.44000 426.714
28.48000 406.582
28.52000 417.651
28.56000 412.607
28.60000 422.513
28.64000 430.581
28.68000 420.491
28.72000 412.740
28.76000 411.956
28.80000 411.692
28.84000 428.469
28.88000 409.368
28.92000 427.850
28.96000 410.658
29.00000 403.168
29.04000 409.983
29.08000 407.730
29.12000 422.479
29.16000 402.187
29.20000 390.101
29.24000 401.054
29.28000 400.432
29.32000 425.333
29.36000 401.687
29.40000 410.661
29.44000 402.499
29.48000 409.772
29.52000 396.446
29.56000 419.692
29.60000 409.888
29.64000 417.305
29.68000 405.695
29.72000 415.669
29.76000 398.632
29.80000 400.348
29.84000 410.879
29.88000 426.551
29.92000 420.783
29.96000 415.226
30.00000 409.432
30.04000 429.378
30.08000 440.297
30.12000 438.460
30.16000 407.599
30.20000 418.536
30.24000 409.946
30.28000 410.945
30.32000 403.785
30.36000 421.822
30.40000 418.335
30.44000 402.870
30.48000 410.859
30.52000 405.694
30.56000 393.466
30.60000 433.622
30.64000 426.002
30.68000 416.658
30.72000 423.066
30.76000 420.824
30.80000 428.466
30.84000 435.597
30.88000 438.156
30.92000 484.943
30.96000 503.993
31.00000 541.236
31.04000 601.646
31.08000 728.674
31.12000 848.728
31.16000 1037.741
31.20000 1262.893
31.24000 1472.173
31.28000 1760.111
31.32000 1946.792
31.36000 2048.719
31.40000 2077.947
31.44000 1996.588
31.48000 1814.972
31.52000 1635.000
31.56000 1395.785
31.60000 1183.755
31.64000 955.384
31.68000 801.234
31.72000 678.219
31.76000 607.317
31.80000 543.813
31.84000 510.146
31.88000 460.377
31.92000 466.672
31.96000 448.609
32.00000 415.561
32.04000 420.703
32.08000 404.907
32.12000 382.515
32.16000 378.191
32.20000 387.588
32.24000 368.335
32.28000 367.732
32.32000 388.516
32.36000 395.144
32.40000 376.784
32.44000 353.380
32.48000 369.423
32.52000 371.464
32.56000 378.943
32.60000 363.897
32.64000 345.735
32.68000 360.325
32.72000 379.077
32.76000 364.701
32.80000 364.421
32.84000 386.954
32.88000 369.149
32.92000 381.020
32.96000 387.960
33.00000 371.741
33.04000 374.848
33.08000 347.104
33.12000 334.278
33.16000 342.728
33.20000 336.489
33.24000 324.794
33.28000 342.403
33.32000 350.452
33.36000 342.793
33.40000 340.564
33.44000 339.572
33.48000 330.684
33.52000 336.135
33.56000 332.633
33.60000 329.447
33.64000 316.584
33.68000 329.833
33.72000 341.033
33.76000 334.569
33.80000 325.107
33.84000 327.610
33.88000 339.629
33.92000 338.583
33.96000 336.915
34.00000 311.891
34.04000 337.000
34.08000 313.133
34.12000 321.888
34.16000 320.675
34.20000 337.324
34.24000 308.271
34.28000 316.960
34.32000 320.142
34.36000 338.155
34.40000 339.907
34.44000 325.793
34.48000 329.392
34.52000 325.900
34.56000 324.440
34.60000 327.545
34.64000 321.288
34.68000 326.632
34.72000 342.214
34.76000 312.268
34.80000 317.626
34.84000 316.055
34.88000 311.489
34.92000 332.390
34.96000 315.918
35.00000 313.430
35.04000 304.583
35.08000 307.919
35.12000 314.912
35.16000 315.279
35.20000 329.535
35.24000 328.345
35.28000 308.332
35.32000 311.900
35.36000 321.777
35.40000 300.050
35.44000 295.015
35.48000 307.323
35.52000 310.288
35.56000 315.027
35.60000 295.804
35.64000 302.503
35.68000 294.412
35.72000 304.183
35.76000 313.746
35.80000 293.956
35.84000 307.898
35.88000 301.948
35.92000 303.883
35.96000 299.817
36.00000 308.726
36.04000 297.496
36.08000 305.951
36.12000 300.058
36.16000 294.471
36.20000 286.008
36.24000 292.158
36.28000 292.756
36.32000 302.864
36.36000 298.503
36.40000 284.118
36.44000 286.601
36.48000 290.276
36.52000 295.462
36.56000 305.409
36.60000 304.093
36.64000 310.336
36.68000 282.078
36.72000 302.701
36.76000 305.876
36.80000 298.796
36.84000 284.920
36.88000 300.463
36.92000 271.677
36.96000 293.425
37.00000 301.478
37.04000 297.548
37.08000 294.299
37.12000 298.983
37.16000 299.986
37.20000 297.656
37.24000 293.435
37.28000 302.583
37.32000 279.547
37.36000 287.559
37.40000 296.427
37.44000 277.695
37.48000 283.363
37.52000 276.913
37.56000 283.141
37.60000 267.052
37.64000 277.091
37.68000 284.632
37.72000 282.007
37.76000 277.813
37.80000 290.269
37.84000 279.664
37.88000 280.146
37.92000 283.465
37.96000 284.888
38.00000 289.477
38.04000 283.395
38.08000 277.605
38.12000 282.860
38.16000 297.667
38.20000 296.241
38.24000 285.447
38.28000 298.866
38.32000 313.298
38.36000 334.203
38.40000 350.954
38.44000 368.132
38.48000 424.510
38.52000 476.305
38.56000 520.455
38.60000 602.099
38.64000 613.806
38.68000 651.380
38.72000 671.267
38.76000 660.026
38.80000 618.610
38.84000 603.218
38.88000 511.230
38.92000 451.450
38.96000 384.689
39.00000 372.560
39.04000 344.719
39.08000 297.348
39.12000 296.607
39.16000 302.235
39.20000 277.650
39.24000 271.226
39.28000 269.540
39.32000 281.558
39.36000 270.760
39.40000 260.419
39.44000 258.423
39.48000 265.950
39.52000 266.194
39.56000 252.166
39.60000 261.962
39.64000 262.192
39.68000 266.196
39.72000 261.426
39.76000 260.187
39.80000 267.591
39.84000 268.078
39.88000 254.963
39.92000 270.133
39.96000 259.252
40.00000 275.021
40.04000 254.331
40.08000 249.781
40.12000 260.606
40.16000 268.752
40.20000 257.357
40.24000 259.978
40.28000 254.964
40.32000 251.087
40.36000 258.547
40.40000 251.986
40.44000 257.504
40.48000 264.649
40.52000 230.536
40.56000 248.311
40.60000 244.700
40.64000 253.293
40.68000 233.985
40.72000 249.636
40.76000 236.812
40.80000 232.525
40.84000 230.421
40.88000 241.205
40.92000 241.295
40.96000 249.150
41.00000 258.222
41.04000 227.375
41.08000 238.173
41.12000 249.150
41.16000 243.644
41.20000 242.477
41.24000 245.650
41.28000 237.467
41.32000 243.366
41.36000 237.547
41.40000 238.901
41.44000 241.394
41.48000 250.943
41.52000 231.197
41.56000 231.869
41.60000 236.948
41.64000 242.416
41.68000 246.434
41.72000 235.583
41.76000 230.155
41.80000 234.017
41.84000 236.134
41.88000 247.321
41.92000 235.552
41.96000 222.133
42.00000 221.456
42.04000 233.589
42.08000 236.364
42.12000 216.955
42.16000 244.365
42.20000 228.732
42.24000 235.645
42.28000 226.806
42.32000 229.435
42.36000 244.882
42.40000 235.428
42.44000 228.074
42.48000 233.903
42.52000 231.466
42.56000 233.954
42.60000 221.395
42.64000 224.526
42.68000 228.769
42.72000 212.493
42.76000 231.941
42.80000 231.754
42.84000 227.473
42.88000 223.724
42.92000 229.301
42.96000 235.606
43.00000 227.875
43.04000 228.681
43.08000 228.950
43.12000 221.144
43.16000 228.812
43.20000 218.930
43.24000 231.188
43.28000 214.550
43.32000 216.766
43.36000 226.020
43.40000 222.323
43.44000 219.611
43.48000 225.396
43.52000 222.761
43.56000 221.518
43.60000 228.061
43.64000 228.909
43.68000 221.821
43.72000 206.465
43.76000 225.858
43.80000 210.367
43.84000 220.474
43.88000 224.545
43.92000 207.088
43.96000 228.355
44.00000 221.854
44.04000 203.823
44.08000 223.751
44.12000 215.497
44.16000 229.126
44.20000 208.697
44.24000 223.290
44.28000 213.036
44.32000 225.572
44.36000 223.205
44.40000 222.235
44.44000 214.988
44.48000 224.978
44.52000 222.249
44.56000 229.335
44.60000 229.424
44.64000 240.626
44.68000 253.820
44.72000 244.595
44.76000 260.170
44.80000 268.485
44.84000 277.291
44.88000 295.754
44.92000 319.536
44.96000 319.196
45.00000 322.294
45.04000 321.671
45.08000 346.913
45.12000 315.247
45.16000 299.080
45.20000 320.795
45.24000 318.243
45.28000 293.978
45.32000 296.564
45.36000 287.760
45.40000 277.773
45.44000 274.118
45.48000 270.012
45.52000 263.479
45.56000 256.413
45.60000 237.323
45.64000 264.039
45.68000 260.873
45.72000 248.742
45.76000 250.835
45.80000 233.992
45.84000 219.667
45.88000 203.333
45.92000 220.233
45.96000 230.625
46.00000 222.063
46.04000 224.563
46.08000 215.246
46.12000 204.801
46.16000 216.779
46.20000 213.159
46.24000 212.142
46.28000 206.558
46.32000 204.290
46.36000 191.405
46.40000 204.881
46.44000 193.549
46.48000 197.891
46.52000 213.906
46.56000 208.817
46.60000 200.882
46.64000 197.562
46.68000 200.827
46.72000 191.009
46.76000 192.467
46.80000 193.781
46.84000 195.669
46.88000 199.235
46.92000 186.154
46.96000 205.965
47.00000 188.720
47.04000 191.638
47.08000 187.492
47.12000 197.757
47.16000 187.512
47.20000 183.437
47.24000 176.730
47.28000 197.824
47.32000 189.297
47.36000 189.939
47.40000 184.608
47.44000 197.866
47.48000 192.043
47.52000 179.164
47.56000 192.388
47.60000 185.169
47.64000 186.421
47.68000 186.763
47.72000 184.488
47.76000 178.394
47.80000 184.215
47.84000 178.836
47.88000 196.813
47.92000 185.273
47.96000 185.632
48.00000 186.220
48.04000 185.688
48.08000 184.711
48.12000 185.973
48.16000 193.747
48.20000 191.472
48.24000 183.838
48.28000 186.188
48.32000 188.452
48.36000 194.390
48.40000 189.286
48.44000 183.383
48.48000 168.677
48.52000 181.077
48.56000 185.474
48.60000 177.830
48.64000 176.680
48.68000 180.856
48.72000 178.484
48.76000 192.496
48.80000 177.633
48.84000 181.691
48.88000 193.384
48.92000 170.627
48.96000 179.913
49.00000 176.425
49.04000 172.499
49.08000 178.784
49.12000 172.072
49.16000 173.671
49.20000 167.936
49.24000 177.341
49.28000 177.019
49.32000 177.475
49.36000 177.894
49.40000 177.623
49.44000 182.659
49.48000 171.206
49.52000 176.380
49.56000 178.796
49.60000 185.120
49.64000 175.270
49.68000 165.683
49.72000 174.233
49.76000 177.744
49.80000 175.793
49.84000 171.927
49.88000 174.103
49.92000 166.501
49.96000 173.657
50.00000 188.314
50.04000 168.394
50.08000 175.192
50.12000 181.439
50.16000 163.579
50.20000 177.349
50.24000 170.006
50.28000 178.031
50.32000 176.827
50.36000 186.147
50.40000 195.967
50.44000 192.489
50.48000 191.418
50.52000 215.686
50.56000 201.615
50.60000 224.844
50.64000 219.118
50.68000 224.904
50.72000 225.302
50.76000 224.747
50.80000 215.268
50.84000 213.917
50.88000 209.914
50.92000 191.971
50.96000 193.961
51.00000 177.820
51.04000 182.321
51.08000 186.556
51.12000 185.191
51.16000 172.974
51.20000 170.510
51.24000 178.926
51.28000 169.869
51.32000 172.952
51.36000 170.066
51.40000 184.099
51.44000 163.620
51.48000 158.533
51.52000 170.297
51.56000 171.077
51.60000 168.844
51.64000 174.350
51.68000 159.964
51.72000 158.297
51.76000 166.575
51.80000 167.751
51.84000 169.246
51.88000 159.248
51.92000 153.174
51.96000 172.013
52.00000 165.928
52.04000 169.494
52.08000 166.839
52.12000 141.383
52.16000 155.335
52.20000 159.721
52.24000 155.076
52.28000 158.760
52.32000 150.780
52.36000 160.032
52.40000 156.671
52.44000 158.754
52.48000 165.165
52.52000 156.125
52.56000 164.710
52.60000 160.231
52.64000 137.093
52.68000 150.830
52.72000 159.731
52.76000 164.298
52.80000 162.488
52.84000 162.542
52.88000 160.311
52.92000 149.534
52.96000 175.115
53.00000 167.268
53.04000 154.770
53.08000 150.077
53.12000 152.358
53.16000 148.949
53.20000 158.453
53.24000 153.521
53.28000 162.871
53.32000 153.069
53.36000 165.456
53.40000 163.369
53.44000 168.632
53.48000 160.609
53.52000 156.365
53.56000 160.110
53.60000 158.221
53.64000 154.205
53.68000 155.594
53.72000 144.965
53.76000 150.537
53.80000 159.843
53.84000 155.924
53.88000 142.358
53.92000 149.049
53.96000 145.585
54.00000 141.306
54.04000 150.263
54.08000 151.254
54.12000 151.971
54.16000 154.272
54.20000 152.768
54.24000 144.286
54.28000 157.065
54.32000 161.077
54.36000 153.239
54.40000 140.292
54.44000 152.626
54.48000 156.332
54.52000 150.667
54.56000 155.732
54.60000 144.950
54.64000 151.838
54.68000 150.420
54.72000 148.236
54.76000 156.237
54.80000 154.566
54.84000 154.171
54.88000 145.862
54.92000 149.418
54.96000 145.264
55.00000 150.069
55.04000 148.199
55.08000 152.314
55.12000 164.901
55.16000 154.531
55.20000 152.620
55.24000 159.995
55.28000 161.498
55.32000 152.876
55.36000 162.539
55.40000 166.916
55.44000 188.977
55.48000 192.910
55.52000 186.534
55.56000 232.109
55.60000 252.417
55.64000 273.888
55.68000 300.066
55.72000 329.816
55.76000 349.489
55.80000 374.011
55.84000 404.099
55.88000 434.628
55.92000 426.570
55.96000 408.384
56.00000 400.464
56.04000 385.953
56.08000 366.583
56.12000 331.427
56.16000 304.408
56.20000 281.724
56.24000 257.416
56.28000 237.997
56.32000 217.886
56.36000 202.767
56.40000 208.815
56.44000 191.069
56.48000 185.758
56.52000 170.575
56.56000 181.566
56.60000 155.782
56.64000 158.181
56.68000 173.666
56.72000 160.902
56.76000 149.607
56.80000 150.200
56.84000 147.063
56.88000 148.801
56.92000 150.523
56.96000 136.284
57.00000 133.707
57.04000 144.265
57.08000 146.209
57.12000 140.567
57.16000 146.599
57.20000 149.315
57.24000 147.094
57.28000 140.704
57.32000 142.227
57.36000 139.039
57.40000 149.585
57.44000 141.200
57.48000 136.179
57.52000 140.272
57.56000 136.633
57.60000 139.029
57.64000 149.856
57.68000 143.790
57.72000 142.544
57.76000 140.116
57.80000 141.558
57.84000 134.432
57.88000 140.899
57.92000 134.561
57.96000 151.864
58.00000 149.042
58.04000 148.960
58.08000 142.217
58.12000 145.036
58.16000 139.232
58.20000 137.339
58.24000 136.731
58.28000 147.266
58.32000 138.472
58.36000 127.741
58.40000 130.817
58.44000 132.452
58.48000 130.234
58.52000 136.308
58.56000 153.875
58.60000 132.995
58.64000 133.932
58.68000 136.509
58.72000 132.979
58.76000 134.451
58.80000 132.150
58.84000 133.466
58.88000 135.099
58.92000 137.905
58.96000 130.746
59.00000 129.480
59.04000 133.088
59.08000 124.303
59.12000 129.221
59.16000 138.594
59.20000 129.973
59.24000 134.351
59.28000 139.031
59.32000 133.609
59.36000 145.021
59.40000 131.143
59.44000 129.019
59.48000 133.901
59.52000 133.981
59.56000 133.229
59.60000 138.792
59.64000 133.796
59.68000 123.533
59.72000 128.023
59.76000 135.203
59.80000 117.417
59.84000 126.243
59.88000 134.220
59.92000 133.015
59.96000 126.194
60.00000 137.558
60.04000 138.418
60.08000 136.219
60.12000 129.795
60.16000 143.253
60.20000 122.842
60.24000 137.907
60.28000 120.706
60.32000 127.881
60.36000 133.088
60.40000 133.062
60.44000 131.586
60.48000 122.609
60.52000 129.281
60.56000 131.429
60.60000 133.608
60.64000 132.268
60.68000 126.262
60.72000 137.332
60.76000 127.095
60.80000 128.738
60.84000 129.493
60.88000 128.265
60.92000 132.348
60.96000 139.695
61.00000 140.392
61.04000 129.017
61.08000 128.118
61.12000 135.922
61.16000 137.463
61.20000 128.707
61.24000 145.011
61.28000 135.953
61.32000 137.169
61.36000 140.590
61.40000 137.883
61.44000 139.879
61.48000 142.634
61.52000 160.921
61.56000 200.046
61.60000 232.382
61.64000 270.030
61.68000 297.848
61.72000 280.975
61.76000 278.805
61.80000 231.685
61.84000 186.375
61.88000 155.768
61.92000 155.959
61.96000 151.083
62.00000 144.067
62.04000 130.952
62.08000 140.659
62.12000 143.530
62.16000 141.081
62.20000 141.845
62.24000 137.396
62.28000 137.834
62.32000 143.684
62.36000 132.705
62.40000 143.927
62.44000 136.908
62.48000 140.387
62.52000 148.391
62.56000 142.947
62.60000 133.371
62.64000 146.243
62.68000 145.564
62.72000 136.247
62.76000 138.628
62.80000 140.485
62.84000 137.429
62.88000 138.423
62.92000 141.483
62.96000 144.789
63.00000 147.105
63.04000 143.363
63.08000 146.692
63.12000 144.515
63.16000 148.434
63.20000 149.467
63.24000 140.721
63.28000 143.441
63.32000 150.627
63.36000 148.590
63.40000 135.497
63.44000 147.019
63.48000 143.667
63.52000 150.956
63.56000 156.587
63.60000 158.843
63.64000 138.502
63.68000 143.269
63.72000 140.942
63.76000 146.034
63.80000 146.983
63.84000 148.562
63.88000 157.614
63.92000 152.646
63.96000 149.899
64.00000 148.627
64.04000 153.130
64.08000 167.444
64.12000 157.447
64.16000 164.948
64.20000 157.649
64.24000 165.866
64.28000 161.585
64.32000 162.034
64.36000 159.667
64.40000 166.402
64.44000 168.362
64.48000 164.244
64.52000 163.468
64.56000 162.523
64.60000 172.258
64.64000 177.554
64.68000 178.424
64.72000 181.579
64.76000 167.936
64.80000 174.311
64.84000 179.892
64.88000 181.553
64.92000 182.315
64.96000 191.329
65.00000 201.422
65.04000 188.548
65.08000 215.661
65.12000 211.640
65.16000 216.337
65.20000 223.901
65.24000 236.477
65.28000 245.476
65.32000 256.957
65.36000 267.655
65.40000 262.293
65.44000 299.525
65.48000 286.668
65.52000 308.051
65.56000 316.495
65.60000 351.366
65.64000 383.519
65.68000 454.342
65.72000 594.158
65.76000 841.170
65.80000 1075.720
65.84000 1161.325
65.88000 1205.007
65.92000 1160.533
65.96000 992.256
66.00000 685.105
66.04000 502.919
66.08000 383.879
66.12000 331.565
66.16000 327.716
66.20000 310.087
66.24000 326.855
66.28000 377.155
66.32000 419.480
66.36000 446.783
66.40000 466.787
66.44000 466.208
66.48000 463.529
66.52000 439.134
66.56000 387.627
66.60000 348.021
66.64000 345.561
66.68000 324.831
66.72000 323.405
66.76000 326.332
66.80000 336.478
66.84000 335.703
66.88000 340.770
66.92000 345.546
66.96000 346.523
67.00000 356.708
67.04000 364.814
67.08000 369.795
67.12000 374.059
67.16000 384.031
67.20000 368.940
67.24000 383.740
67.28000 389.500
67.32000 407.163
67.36000 435.041
67.40000 421.799
67.44000 416.426
67.48000 431.698
67.52000 455.729
67.56000 451.011
67.60000 457.491
67.64000 461.339
67.68000 467.104
67.72000 469.390
67.76000 491.539
67.80000 497.329
67.84000 511.011
67.88000 541.423
67.92000 536.859
67.96000 515.629
68.00000 559.658
68.04000 547.718
68.08000 583.964
68.12000 588.600
68.16000 594.690
68.20000 612.867
68.24000 626.247
68.28000 615.319
68.32000 667.105
68.36000 700.640
68.40000 722.248
68.44000 748.564
68.48000 790.838
68.52000 831.079
68.56000 891.887
68.60000 990.523
68.64000 1150.946
68.68000 1373.924
68.72000 1605.819
68.76000 1835.650
68.80000 2111.862
68.84000 2454.271
68.88000 3115.144
68.92000 5130.629
68.96000 13017.757
69.00000 29638.244
69.04000 48047.164
69.08000 57901.758
69.12000 60097.613
69.16000 62062.887
69.20000 62690.430
69.24000 52625.828
69.28000 40032.879
69.32000 32596.920
69.36000 29538.818
69.40000 24451.756
69.44000 15156.596
69.48000 7248.311
69.52000 3182.728
69.56000 1982.325
69.60000 1574.216
69.64000 1340.607
69.68000 1159.135
69.72000 1042.200
69.76000 940.950
69.80000 883.393
69.84000 824.626
69.88000 763.586
69.92000 741.874
69.96000 708.685
70.00000 690.278