File: XRD/XRD/25-09-2025/XY Data/BTO_Mapping_Theta2Theta_25-09-2025_001_38_-8-090_-5-878.xy
20.00000 553.431
20.04000 554.374
20.08000 562.134
20.12000 537.393
20.16000 551.073
20.20000 554.485
20.24000 557.232
20.28000 561.789
20.32000 525.424
20.36000 561.832
20.40000 558.147
20.44000 560.925
20.48000 550.760
20.52000 542.963
20.56000 555.319
20.60000 539.583
20.64000 555.111
20.68000 552.640
20.72000 535.553
20.76000 555.448
20.80000 540.906
20.84000 550.216
20.88000 536.434
20.92000 541.034
20.96000 536.248
21.00000 546.873
21.04000 547.538
21.08000 531.098
21.12000 557.444
21.16000 534.511
21.20000 556.550
21.24000 546.633
21.28000 526.568
21.32000 533.503
21.36000 549.354
21.40000 525.294
21.44000 539.686
21.48000 535.333
21.52000 559.551
21.56000 520.264
21.60000 549.200
21.64000 549.338
21.68000 543.156
21.72000 548.398
21.76000 569.294
21.80000 594.849
21.84000 607.164
21.88000 593.474
21.92000 629.619
21.96000 683.128
22.00000 668.607
22.04000 692.134
22.08000 684.440
22.12000 695.374
22.16000 706.997
22.20000 692.422
22.24000 653.224
22.28000 644.018
22.32000 618.638
22.36000 611.714
22.40000 617.820
22.44000 583.700
22.48000 557.609
22.52000 553.609
22.56000 545.503
22.60000 558.207
22.64000 534.006
22.68000 517.725
22.72000 522.814
22.76000 515.568
22.80000 531.135
22.84000 517.667
22.88000 513.999
22.92000 519.387
22.96000 515.925
23.00000 507.971
23.04000 507.503
23.08000 503.700
23.12000 507.981
23.16000 504.420
23.20000 512.115
23.24000 510.873
23.28000 498.103
23.32000 500.487
23.36000 504.282
23.40000 494.579
23.44000 494.298
23.48000 480.107
23.52000 485.264
23.56000 493.326
23.60000 466.366
23.64000 495.988
23.68000 483.990
23.72000 491.352
23.76000 476.022
23.80000 485.322
23.84000 504.805
23.88000 488.198
23.92000 486.870
23.96000 491.908
24.00000 475.349
24.04000 494.502
24.08000 483.488
24.12000 493.168
24.16000 485.559
24.20000 504.615
24.24000 488.838
24.28000 478.864
24.32000 477.651
24.36000 483.286
24.40000 493.009
24.44000 484.682
24.48000 470.681
24.52000 477.518
24.56000 490.393
24.60000 472.942
24.64000 482.600
24.68000 483.741
24.72000 479.255
24.76000 481.987
24.80000 495.364
24.84000 472.154
24.88000 478.938
24.92000 482.666
24.96000 492.864
25.00000 459.495
25.04000 463.084
25.08000 467.170
25.12000 475.432
25.16000 442.566
25.20000 458.873
25.24000 478.490
25.28000 454.324
25.32000 458.656
25.36000 455.957
25.40000 475.682
25.44000 477.315
25.48000 449.667
25.52000 452.817
25.56000 450.666
25.60000 468.799
25.64000 441.721
25.68000 454.193
25.72000 465.791
25.76000 455.046
25.80000 444.981
25.84000 460.317
25.88000 472.010
25.92000 457.608
25.96000 456.410
26.00000 450.560
26.04000 465.126
26.08000 451.187
26.12000 445.101
26.16000 466.018
26.20000 467.968
26.24000 448.448
26.28000 448.025
26.32000 432.436
26.36000 443.276
26.40000 451.532
26.44000 441.350
26.48000 453.881
26.52000 439.259
26.56000 453.540
26.60000 438.627
26.64000 443.566
26.68000 430.511
26.72000 451.063
26.76000 440.122
26.80000 433.951
26.84000 449.446
26.88000 415.789
26.92000 440.013
26.96000 418.414
27.00000 441.038
27.04000 422.423
27.08000 425.580
27.12000 435.012
27.16000 448.931
27.20000 435.033
27.24000 426.505
27.28000 433.397
27.32000 426.430
27.36000 428.848
27.40000 429.720
27.44000 416.287
27.48000 420.151
27.52000 422.825
27.56000 406.697
27.60000 413.029
27.64000 423.638
27.68000 423.398
27.72000 439.585
27.76000 415.818
27.80000 431.149
27.84000 427.054
27.88000 417.814
27.92000 412.891
27.96000 431.603
28.00000 429.847
28.04000 422.372
28.08000 429.371
28.12000 436.753
28.16000 440.125
28.20000 409.577
28.24000 427.891
28.28000 418.490
28.32000 423.959
28.36000 432.891
28.40000 436.304
28.44000 429.340
28.48000 410.892
28.52000 422.585
28.56000 417.584
28.60000 411.224
28.64000 423.214
28.68000 413.651
28.72000 432.034
28.76000 422.994
28.80000 426.385
28.84000 393.751
28.88000 400.038
28.92000 426.664
28.96000 402.828
29.00000 420.242
29.04000 404.465
29.08000 399.412
29.12000 400.263
29.16000 413.267
29.20000 401.616
29.24000 391.193
29.28000 394.758
29.32000 420.117
29.36000 381.962
29.40000 405.648
29.44000 394.934
29.48000 392.235
29.52000 390.404
29.56000 400.309
29.60000 400.595
29.64000 409.072
29.68000 387.431
29.72000 402.712
29.76000 405.157
29.80000 407.722
29.84000 405.443
29.88000 428.218
29.92000 422.607
29.96000 423.880
30.00000 437.600
30.04000 425.905
30.08000 431.643
30.12000 416.968
30.16000 420.814
30.20000 434.251
30.24000 410.127
30.28000 408.709
30.32000 397.273
30.36000 416.767
30.40000 405.583
30.44000 388.523
30.48000 409.572
30.52000 403.401
30.56000 407.047
30.60000 409.673
30.64000 425.959
30.68000 395.259
30.72000 417.820
30.76000 423.795
30.80000 421.787
30.84000 434.300
30.88000 435.698
30.92000 469.336
30.96000 500.022
31.00000 536.934
31.04000 615.693
31.08000 699.462
31.12000 836.005
31.16000 999.580
31.20000 1242.926
31.24000 1474.931
31.28000 1718.118
31.32000 1955.730
31.36000 2009.665
31.40000 2023.745
31.44000 1969.708
31.48000 1777.893
31.52000 1605.336
31.56000 1353.661
31.60000 1103.130
31.64000 938.153
31.68000 790.977
31.72000 675.573
31.76000 577.815
31.80000 529.234
31.84000 495.118
31.88000 471.394
31.92000 462.954
31.96000 429.178
32.00000 418.201
32.04000 423.270
32.08000 421.130
32.12000 394.697
32.16000 399.086
32.20000 383.192
32.24000 393.224
32.28000 384.970
32.32000 379.921
32.36000 383.130
32.40000 386.437
32.44000 394.801
32.48000 372.092
32.52000 370.251
32.56000 395.037
32.60000 359.708
32.64000 382.172
32.68000 366.652
32.72000 364.570
32.76000 369.867
32.80000 365.006
32.84000 367.591
32.88000 376.225
32.92000 370.161
32.96000 384.702
33.00000 375.649
33.04000 361.447
33.08000 357.440
33.12000 344.391
33.16000 348.856
33.20000 339.035
33.24000 337.678
33.28000 347.915
33.32000 338.320
33.36000 326.937
33.40000 331.885
33.44000 338.601
33.48000 344.242
33.52000 343.407
33.56000 338.559
33.60000 335.830
33.64000 333.200
33.68000 328.841
33.72000 332.148
33.76000 328.493
33.80000 329.141
33.84000 324.026
33.88000 335.814
33.92000 331.511
33.96000 336.985
34.00000 336.443
34.04000 332.238
34.08000 328.930
34.12000 326.607
34.16000 324.367
34.20000 320.712
34.24000 329.139
34.28000 325.141
34.32000 327.849
34.36000 317.087
34.40000 319.136
34.44000 310.768
34.48000 324.309
34.52000 317.304
34.56000 317.987
34.60000 317.050
34.64000 330.901
34.68000 313.367
34.72000 327.882
34.76000 331.169
34.80000 328.548
34.84000 315.044
34.88000 322.845
34.92000 301.291
34.96000 311.070
35.00000 315.603
35.04000 318.168
35.08000 308.430
35.12000 291.629
35.16000 303.734
35.20000 306.592
35.24000 307.758
35.28000 317.817
35.32000 301.510
35.36000 318.363
35.40000 314.582
35.44000 292.576
35.48000 307.680
35.52000 307.422
35.56000 309.246
35.60000 310.042
35.64000 293.592
35.68000 294.506
35.72000 295.557
35.76000 308.990
35.80000 290.128
35.84000 287.295
35.88000 305.390
35.92000 298.497
35.96000 306.569
36.00000 298.753
36.04000 299.053
36.08000 304.234
36.12000 297.886
36.16000 312.331
36.20000 307.305
36.24000 293.605
36.28000 303.018
36.32000 305.040
36.36000 302.207
36.40000 296.620
36.44000 297.450
36.48000 279.468
36.52000 293.424
36.56000 294.628
36.60000 298.526
36.64000 275.236
36.68000 318.027
36.72000 286.999
36.76000 296.173
36.80000 299.732
36.84000 292.686
36.88000 305.990
36.92000 282.878
36.96000 298.167
37.00000 269.026
37.04000 288.532
37.08000 307.895
37.12000 278.389
37.16000 290.564
37.20000 288.152
37.24000 292.994
37.28000 289.666
37.32000 301.787
37.36000 282.936
37.40000 297.418
37.44000 287.152
37.48000 284.441
37.52000 284.264
37.56000 284.992
37.60000 269.136
37.64000 288.449
37.68000 282.468
37.72000 273.669
37.76000 290.150
37.80000 272.214
37.84000 288.933
37.88000 285.562
37.92000 279.172
37.96000 280.667
38.00000 293.001
38.04000 281.063
38.08000 287.368
38.12000 271.191
38.16000 278.356
38.20000 294.381
38.24000 305.441
38.28000 307.068
38.32000 305.160
38.36000 341.324
38.40000 368.043
38.44000 392.211
38.48000 430.703
38.52000 474.862
38.56000 557.972
38.60000 605.356
38.64000 663.060
38.68000 688.185
38.72000 671.897
38.76000 695.328
38.80000 643.798
38.84000 583.657
38.88000 511.870
38.92000 462.503
38.96000 420.520
39.00000 356.379
39.04000 338.723
39.08000 320.143
39.12000 295.494
39.16000 275.706
39.20000 289.576
39.24000 277.010
39.28000 273.606
39.32000 265.042
39.36000 270.915
39.40000 273.922
39.44000 284.844
39.48000 271.501
39.52000 266.224
39.56000 250.430
39.60000 259.533
39.64000 252.470
39.68000 276.435
39.72000 259.641
39.76000 252.069
39.80000 265.148
39.84000 263.107
39.88000 252.299
39.92000 255.923
39.96000 258.332
40.00000 251.182
40.04000 250.788
40.08000 244.657
40.12000 257.463
40.16000 259.785
40.20000 258.523
40.24000 249.550
40.28000 253.160
40.32000 255.472
40.36000 249.754
40.40000 248.149
40.44000 244.821
40.48000 247.246
40.52000 241.963
40.56000 249.197
40.60000 256.021
40.64000 256.537
40.68000 252.154
40.72000 236.281
40.76000 247.769
40.80000 250.430
40.84000 272.150
40.88000 230.689
40.92000 241.026
40.96000 252.645
41.00000 256.320
41.04000 248.339
41.08000 248.585
41.12000 244.240
41.16000 244.981
41.20000 237.964
41.24000 247.994
41.28000 246.818
41.32000 243.541
41.36000 249.536
41.40000 234.347
41.44000 233.007
41.48000 247.787
41.52000 235.487
41.56000 231.969
41.60000 236.445
41.64000 239.141
41.68000 232.545
41.72000 247.323
41.76000 243.907
41.80000 232.963
41.84000 238.249
41.88000 234.229
41.92000 220.883
41.96000 230.418
42.00000 219.572
42.04000 221.005
42.08000 234.108
42.12000 230.587
42.16000 228.285
42.20000 233.134
42.24000 240.753
42.28000 232.864
42.32000 236.094
42.36000 230.040
42.40000 223.025
42.44000 232.369
42.48000 229.996
42.52000 224.859
42.56000 229.042
42.60000 236.742
42.64000 233.041
42.68000 235.838
42.72000 227.947
42.76000 222.465
42.80000 226.524
42.84000 235.356
42.88000 228.707
42.92000 227.834
42.96000 230.443
43.00000 229.299
43.04000 232.047
43.08000 226.712
43.12000 230.077
43.16000 228.309
43.20000 237.666
43.24000 219.026
43.28000 221.121
43.32000 223.506
43.36000 219.816
43.40000 229.819
43.44000 226.652
43.48000 217.165
43.52000 222.025
43.56000 207.446
43.60000 223.150
43.64000 221.561
43.68000 218.863
43.72000 213.959
43.76000 218.882
43.80000 222.633
43.84000 222.384
43.88000 223.140
43.92000 219.359
43.96000 215.633
44.00000 203.237
44.04000 222.878
44.08000 215.583
44.12000 209.828
44.16000 218.299
44.20000 215.436
44.24000 225.619
44.28000 222.766
44.32000 222.320
44.36000 210.491
44.40000 210.498
44.44000 223.088
44.48000 239.901
44.52000 224.788
44.56000 230.175
44.60000 227.181
44.64000 226.159
44.68000 257.270
44.72000 245.423
44.76000 257.173
44.80000 251.486
44.84000 271.112
44.88000 276.249
44.92000 290.879
44.96000 284.711
45.00000 305.612
45.04000 329.551
45.08000 322.948
45.12000 320.651
45.16000 312.473
45.20000 295.233
45.24000 297.618
45.28000 284.639
45.32000 288.692
45.36000 310.309
45.40000 288.960
45.44000 274.436
45.48000 266.803
45.52000 274.260
45.56000 271.240
45.60000 254.589
45.64000 258.892
45.68000 265.306
45.72000 245.941
45.76000 239.713
45.80000 243.959
45.84000 220.267
45.88000 230.502
45.92000 234.885
45.96000 223.631
46.00000 222.521
46.04000 221.964
46.08000 212.805
46.12000 217.160
46.16000 207.691
46.20000 206.029
46.24000 205.212
46.28000 205.639
46.32000 205.289
46.36000 207.237
46.40000 195.278
46.44000 201.309
46.48000 201.231
46.52000 209.056
46.56000 210.859
46.60000 205.745
46.64000 197.200
46.68000 190.346
46.72000 203.120
46.76000 200.642
46.80000 199.876
46.84000 183.065
46.88000 201.976
46.92000 184.370
46.96000 200.856
47.00000 199.311
47.04000 198.591
47.08000 198.494
47.12000 200.248
47.16000 187.944
47.20000 188.581
47.24000 183.041
47.28000 180.290
47.32000 186.121
47.36000 183.519
47.40000 193.506
47.44000 199.320
47.48000 187.362
47.52000 190.844
47.56000 178.980
47.60000 188.305
47.64000 197.536
47.68000 182.732
47.72000 185.530
47.76000 182.784
47.80000 180.405
47.84000 185.526
47.88000 169.091
47.92000 192.774
47.96000 183.004
48.00000 175.967
48.04000 180.521
48.08000 179.647
48.12000 188.468
48.16000 179.899
48.20000 192.601
48.24000 179.947
48.28000 183.030
48.32000 188.934
48.36000 173.880
48.40000 186.887
48.44000 186.359
48.48000 188.542
48.52000 178.313
48.56000 183.450
48.60000 177.380
48.64000 163.801
48.68000 183.105
48.72000 182.230
48.76000 178.112
48.80000 170.255
48.84000 177.247
48.88000 179.062
48.92000 176.489
48.96000 185.361
49.00000 168.386
49.04000 178.384
49.08000 188.383
49.12000 173.300
49.16000 169.449
49.20000 177.607
49.24000 169.851
49.28000 166.187
49.32000 175.768
49.36000 167.182
49.40000 179.969
49.44000 168.209
49.48000 176.797
49.52000 182.829
49.56000 182.951
49.60000 175.134
49.64000 170.767
49.68000 171.493
49.72000 165.835
49.76000 180.784
49.80000 177.758
49.84000 195.546
49.88000 174.925
49.92000 177.162
49.96000 198.124
50.00000 172.011
50.04000 176.862
50.08000 189.681
50.12000 183.132
50.16000 182.481
50.20000 178.668
50.24000 177.587
50.28000 176.280
50.32000 176.899
50.36000 193.494
50.40000 183.786
50.44000 192.183
50.48000 200.383
50.52000 201.323
50.56000 216.783
50.60000 220.033
50.64000 218.975
50.68000 218.090
50.72000 220.668
50.76000 212.362
50.80000 212.722
50.84000 204.443
50.88000 217.541
50.92000 189.560
50.96000 193.711
51.00000 190.049
51.04000 191.864
51.08000 178.861
51.12000 181.415
51.16000 177.179
51.20000 178.415
51.24000 171.773
51.28000 169.185
51.32000 169.549
51.36000 162.360
51.40000 149.420
51.44000 172.935
51.48000 158.608
51.52000 163.040
51.56000 165.134
51.60000 164.840
51.64000 163.203
51.68000 161.650
51.72000 153.228
51.76000 164.312
51.80000 165.037
51.84000 159.755
51.88000 154.960
51.92000 158.288
51.96000 157.242
52.00000 153.908
52.04000 155.999
52.08000 147.285
52.12000 150.960
52.16000 156.566
52.20000 155.116
52.24000 162.067
52.28000 160.259
52.32000 158.785
52.36000 156.915
52.40000 156.544
52.44000 151.370
52.48000 170.208
52.52000 156.115
52.56000 159.740
52.60000 151.477
52.64000 144.571
52.68000 154.311
52.72000 149.823
52.76000 157.837
52.80000 165.833
52.84000 152.602
52.88000 148.897
52.92000 152.598
52.96000 153.323
53.00000 164.507
53.04000 161.123
53.08000 155.790
53.12000 163.671
53.16000 150.814
53.20000 152.132
53.24000 155.844
53.28000 157.575
53.32000 153.512
53.36000 164.399
53.40000 164.584
53.44000 168.313
53.48000 160.900
53.52000 150.813
53.56000 157.756
53.60000 159.385
53.64000 149.072
53.68000 149.988
53.72000 151.377
53.76000 146.611
53.80000 156.338
53.84000 155.992
53.88000 139.692
53.92000 155.901
53.96000 152.026
54.00000 135.271
54.04000 156.194
54.08000 138.165
54.12000 156.327
54.16000 146.275
54.20000 156.189
54.24000 154.269
54.28000 149.361
54.32000 161.889
54.36000 159.453
54.40000 151.683
54.44000 152.211
54.48000 151.816
54.52000 148.075
54.56000 153.477
54.60000 152.735
54.64000 143.868
54.68000 152.768
54.72000 152.496
54.76000 157.979
54.80000 156.201
54.84000 151.860
54.88000 155.389
54.92000 157.432
54.96000 151.990
55.00000 162.853
55.04000 154.716
55.08000 161.262
55.12000 151.142
55.16000 158.651
55.20000 156.897
55.24000 158.407
55.28000 151.609
55.32000 163.964
55.36000 166.714
55.40000 177.495
55.44000 195.043
55.48000 184.543
55.52000 204.059
55.56000 212.803
55.60000 236.644
55.64000 258.425
55.68000 306.324
55.72000 297.421
55.76000 364.326
55.80000 384.780
55.84000 406.556
55.88000 411.568
55.92000 415.268
55.96000 419.182
56.00000 401.300
56.04000 382.097
56.08000 358.657
56.12000 324.729
56.16000 326.123
56.20000 290.895
56.24000 273.572
56.28000 232.953
56.32000 218.635
56.36000 216.761
56.40000 189.337
56.44000 186.311
56.48000 176.903
56.52000 169.530
56.56000 165.351
56.60000 175.655
56.64000 167.677
56.68000 140.553
56.72000 159.099
56.76000 153.648
56.80000 143.243
56.84000 147.562
56.88000 145.786
56.92000 156.971
56.96000 152.646
57.00000 138.475
57.04000 147.140
57.08000 147.493
57.12000 139.537
57.16000 155.312
57.20000 137.276
57.24000 141.295
57.28000 140.316
57.32000 143.225
57.36000 145.948
57.40000 140.849
57.44000 136.224
57.48000 136.933
57.52000 150.056
57.56000 138.449
57.60000 137.812
57.64000 145.522
57.68000 144.904
57.72000 140.541
57.76000 139.970
57.80000 146.587
57.84000 144.125
57.88000 137.210
57.92000 152.049
57.96000 140.865
58.00000 142.672
58.04000 141.795
58.08000 144.917
58.12000 151.001
58.16000 150.042
58.20000 139.962
58.24000 136.354
58.28000 136.830
58.32000 126.309
58.36000 131.353
58.40000 129.945
58.44000 139.655
58.48000 130.473
58.52000 126.803
58.56000 131.972
58.60000 132.148
58.64000 139.936
58.68000 140.268
58.72000 141.651
58.76000 123.165
58.80000 140.718
58.84000 133.461
58.88000 134.897
58.92000 135.214
58.96000 137.236
59.00000 138.097
59.04000 131.079
59.08000 138.637
59.12000 136.802
59.16000 136.096
59.20000 131.030
59.24000 139.271
59.28000 137.378
59.32000 125.223
59.36000 138.772
59.40000 130.614
59.44000 137.496
59.48000 132.353
59.52000 131.848
59.56000 129.824
59.60000 131.639
59.64000 136.770
59.68000 127.050
59.72000 136.297
59.76000 135.379
59.80000 133.681
59.84000 131.785
59.88000 134.458
59.92000 126.654
59.96000 133.202
60.00000 134.850
60.04000 141.435
60.08000 130.522
60.12000 130.212
60.16000 131.945
60.20000 125.459
60.24000 128.578
60.28000 124.444
60.32000 129.910
60.36000 135.029
60.40000 126.981
60.44000 132.266
60.48000 127.918
60.52000 126.273
60.56000 130.130
60.60000 132.174
60.64000 131.452
60.68000 127.447
60.72000 139.910
60.76000 132.217
60.80000 130.194
60.84000 133.610
60.88000 135.105
60.92000 134.509
60.96000 136.750
61.00000 131.863
61.04000 143.645
61.08000 131.839
61.12000 135.995
61.16000 138.528
61.20000 129.979
61.24000 134.622
61.28000 134.418
61.32000 131.120
61.36000 134.169
61.40000 137.847
61.44000 149.484
61.48000 150.097
61.52000 169.460
61.56000 202.373
61.60000 248.671
61.64000 260.368
61.68000 288.330
61.72000 288.032
61.76000 260.525
61.80000 211.869
61.84000 174.355
61.88000 144.559
61.92000 149.109
61.96000 146.413
62.00000 147.631
62.04000 144.090
62.08000 151.137
62.12000 141.387
62.16000 136.923
62.20000 136.531
62.24000 145.685
62.28000 141.766
62.32000 139.330
62.36000 149.135
62.40000 142.982
62.44000 135.028
62.48000 147.875
62.52000 136.000
62.56000 138.242
62.60000 144.979
62.64000 143.718
62.68000 148.896
62.72000 143.078
62.76000 139.408
62.80000 150.696
62.84000 146.642
62.88000 145.186
62.92000 143.019
62.96000 140.874
63.00000 146.502
63.04000 133.474
63.08000 144.146
63.12000 155.739
63.16000 145.782
63.20000 153.631
63.24000 147.410
63.28000 144.735
63.32000 139.384
63.36000 141.901
63.40000 152.687
63.44000 147.759
63.48000 154.149
63.52000 160.884
63.56000 142.907
63.60000 149.370
63.64000 158.975
63.68000 156.807
63.72000 140.525
63.76000 153.209
63.80000 155.526
63.84000 148.454
63.88000 165.879
63.92000 145.509
63.96000 142.450
64.00000 151.289
64.04000 143.030
64.08000 148.432
64.12000 160.030
64.16000 154.594
64.20000 159.971
64.24000 166.825
64.28000 171.130
64.32000 171.815
64.36000 169.556
64.40000 171.319
64.44000 167.852
64.48000 161.097
64.52000 161.698
64.56000 160.181
64.60000 176.189
64.64000 168.951
64.68000 179.926
64.72000 172.233
64.76000 190.757
64.80000 176.437
64.84000 183.536
64.88000 202.156
64.92000 189.683
64.96000 193.949
65.00000 198.317
65.04000 207.126
65.08000 206.074
65.12000 220.686
65.16000 221.164
65.20000 215.023
65.24000 241.930
65.28000 233.139
65.32000 252.252
65.36000 269.529
65.40000 277.637
65.44000 281.981
65.48000 290.172
65.52000 309.370
65.56000 318.289
65.60000 332.842
65.64000 379.396
65.68000 441.426
65.72000 615.449
65.76000 864.931
65.80000 1068.231
65.84000 1143.149
65.88000 1172.569
65.92000 1167.518
65.96000 981.381
66.00000 688.164
66.04000 485.002
66.08000 385.442
66.12000 343.111
66.16000 319.471
66.20000 323.073
66.24000 318.202
66.28000 381.609
66.32000 396.999
66.36000 441.669
66.40000 481.827
66.44000 485.297
66.48000 477.505
66.52000 426.241
66.56000 364.002
66.60000 344.864
66.64000 322.184
66.68000 317.697
66.72000 333.249
66.76000 335.819
66.80000 329.568
66.84000 344.067
66.88000 336.724
66.92000 357.942
66.96000 347.417
67.00000 353.850
67.04000 366.146
67.08000 362.455
67.12000 370.928
67.16000 385.002
67.20000 372.705
67.24000 385.504
67.28000 401.885
67.32000 408.449
67.36000 418.535
67.40000 422.526
67.44000 424.050
67.48000 425.195
67.52000 425.724
67.56000 426.290
67.60000 476.335
67.64000 470.534
67.68000 455.508
67.72000 486.285
67.76000 495.252
67.80000 496.571
67.84000 512.568
67.88000 493.143
67.92000 529.794
67.96000 538.103
68.00000 544.264
68.04000 558.895
68.08000 583.541
68.12000 577.852
68.16000 597.679
68.20000 616.847
68.24000 622.754
68.28000 671.442
68.32000 658.006
68.36000 704.432
68.40000 731.520
68.44000 739.916
68.48000 780.725
68.52000 842.430
68.56000 903.466
68.60000 1025.891
68.64000 1173.268
68.68000 1414.604
68.72000 1623.263
68.76000 1866.188
68.80000 2077.965
68.84000 2490.777
68.88000 3148.372
68.92000 5398.819
68.96000 13699.573
69.00000 30692.660
69.04000 48576.117
69.08000 57645.949
69.12000 59552.785
69.16000 62053.230
69.20000 62047.914
69.24000 51144.156
69.28000 39245.656
69.32000 31954.383
69.36000 28947.018
69.40000 23724.129
69.44000 14241.895
69.48000 6751.342
69.52000 3054.032
69.56000 1928.030
69.60000 1536.593
69.64000 1313.986
69.68000 1150.111
69.72000 1013.349
69.76000 932.870
69.80000 869.350
69.84000 817.443
69.88000 753.434
69.92000 721.538
69.96000 697.215
70.00000 681.896