File: XRD/XRD/25-09-2025/XY Data/BTO_Mapping_Theta2Theta_25-09-2025_001_03_20-000_0-000.xy
20.00000 571.770
20.04000 563.608
20.08000 562.781
20.12000 569.743
20.16000 567.141
20.20000 571.485
20.24000 560.500
20.28000 568.613
20.32000 570.087
20.36000 528.626
20.40000 547.410
20.44000 558.758
20.48000 551.827
20.52000 577.310
20.56000 550.796
20.60000 544.238
20.64000 528.615
20.68000 548.765
20.72000 556.860
20.76000 537.980
20.80000 550.308
20.84000 527.295
20.88000 540.142
20.92000 534.532
20.96000 551.410
21.00000 555.745
21.04000 538.406
21.08000 553.907
21.12000 555.318
21.16000 543.493
21.20000 542.845
21.24000 511.420
21.28000 546.974
21.32000 531.949
21.36000 519.067
21.40000 536.935
21.44000 551.988
21.48000 528.336
21.52000 549.736
21.56000 537.967
21.60000 543.193
21.64000 551.939
21.68000 557.998
21.72000 561.663
21.76000 561.183
21.80000 562.731
21.84000 557.049
21.88000 554.479
21.92000 552.913
21.96000 582.266
22.00000 567.314
22.04000 601.274
22.08000 590.739
22.12000 602.417
22.16000 603.843
22.20000 618.242
22.24000 604.666
22.28000 613.368
22.32000 599.856
22.36000 595.054
22.40000 573.441
22.44000 562.280
22.48000 581.462
22.52000 563.383
22.56000 543.414
22.60000 538.446
22.64000 529.425
22.68000 522.240
22.72000 515.657
22.76000 529.855
22.80000 511.144
22.84000 514.465
22.88000 515.538
22.92000 534.000
22.96000 515.875
23.00000 503.633
23.04000 524.350
23.08000 507.368
23.12000 515.560
23.16000 506.232
23.20000 507.133
23.24000 499.110
23.28000 496.610
23.32000 495.795
23.36000 503.953
23.40000 510.595
23.44000 489.738
23.48000 500.548
23.52000 496.708
23.56000 486.268
23.60000 473.883
23.64000 499.109
23.68000 508.106
23.72000 506.749
23.76000 486.907
23.80000 494.518
23.84000 485.908
23.88000 490.151
23.92000 500.872
23.96000 499.164
24.00000 490.271
24.04000 472.315
24.08000 488.982
24.12000 475.256
24.16000 485.931
24.20000 483.166
24.24000 462.879
24.28000 479.915
24.32000 481.851
24.36000 465.155
24.40000 471.679
24.44000 473.985
24.48000 504.023
24.52000 463.192
24.56000 480.531
24.60000 475.318
24.64000 458.790
24.68000 472.176
24.72000 480.799
24.76000 461.290
24.80000 469.976
24.84000 474.268
24.88000 470.486
24.92000 487.827
24.96000 472.002
25.00000 487.080
25.04000 476.814
25.08000 467.584
25.12000 480.511
25.16000 456.368
25.20000 469.678
25.24000 471.517
25.28000 462.090
25.32000 470.932
25.36000 469.705
25.40000 464.503
25.44000 468.597
25.48000 481.079
25.52000 457.062
25.56000 458.966
25.60000 466.812
25.64000 464.478
25.68000 471.285
25.72000 450.364
25.76000 458.694
25.80000 446.233
25.84000 448.458
25.88000 454.699
25.92000 473.207
25.96000 452.563
26.00000 452.735
26.04000 439.062
26.08000 445.821
26.12000 459.749
26.16000 464.452
26.20000 452.529
26.24000 462.301
26.28000 441.560
26.32000 439.491
26.36000 459.811
26.40000 448.589
26.44000 435.498
26.48000 448.327
26.52000 438.616
26.56000 443.326
26.60000 465.003
26.64000 441.711
26.68000 447.413
26.72000 458.037
26.76000 457.787
26.80000 447.068
26.84000 450.551
26.88000 440.571
26.92000 412.368
26.96000 433.050
27.00000 433.993
27.04000 431.331
27.08000 443.018
27.12000 433.093
27.16000 427.851
27.20000 431.889
27.24000 430.346
27.28000 446.638
27.32000 432.661
27.36000 416.844
27.40000 436.262
27.44000 433.888
27.48000 415.137
27.52000 418.447
27.56000 430.793
27.60000 444.531
27.64000 449.702
27.68000 439.996
27.72000 426.479
27.76000 416.500
27.80000 421.933
27.84000 414.118
27.88000 431.330
27.92000 419.801
27.96000 426.859
28.00000 421.030
28.04000 430.873
28.08000 427.527
28.12000 423.051
28.16000 436.455
28.20000 435.658
28.24000 426.319
28.28000 428.917
28.32000 414.346
28.36000 424.061
28.40000 395.242
28.44000 427.056
28.48000 405.185
28.52000 436.952
28.56000 405.602
28.60000 406.548
28.64000 418.406
28.68000 416.383
28.72000 413.331
28.76000 432.082
28.80000 396.920
28.84000 407.010
28.88000 418.333
28.92000 424.935
28.96000 415.118
29.00000 410.404
29.04000 392.638
29.08000 406.143
29.12000 414.504
29.16000 404.400
29.20000 398.283
29.24000 404.600
29.28000 424.797
29.32000 394.616
29.36000 403.675
29.40000 407.916
29.44000 415.530
29.48000 409.477
29.52000 405.109
29.56000 415.709
29.60000 402.239
29.64000 403.631
29.68000 394.423
29.72000 395.059
29.76000 392.710
29.80000 395.155
29.84000 394.655
29.88000 411.454
29.92000 408.599
29.96000 395.770
30.00000 400.189
30.04000 406.446
30.08000 397.739
30.12000 400.375
30.16000 410.201
30.20000 404.970
30.24000 405.479
30.28000 418.417
30.32000 402.510
30.36000 400.796
30.40000 412.327
30.44000 406.657
30.48000 406.983
30.52000 402.203
30.56000 391.437
30.60000 418.453
30.64000 408.080
30.68000 407.951
30.72000 418.629
30.76000 408.930
30.80000 410.862
30.84000 419.249
30.88000 420.037
30.92000 457.035
30.96000 448.588
31.00000 465.881
31.04000 504.982
31.08000 529.881
31.12000 577.239
31.16000 671.308
31.20000 793.644
31.24000 916.953
31.28000 1017.029
31.32000 1157.652
31.36000 1285.345
31.40000 1347.717
31.44000 1317.960
31.48000 1253.179
31.52000 1170.525
31.56000 1027.881
31.60000 908.384
31.64000 788.812
31.68000 672.795
31.72000 599.215
31.76000 551.557
31.80000 528.527
31.84000 500.640
31.88000 476.645
31.92000 440.136
31.96000 441.899
32.00000 448.125
32.04000 418.013
32.08000 418.728
32.12000 404.018
32.16000 395.084
32.20000 397.165
32.24000 388.181
32.28000 399.315
32.32000 396.380
32.36000 384.811
32.40000 360.566
32.44000 380.872
32.48000 377.652
32.52000 361.953
32.56000 369.944
32.60000 357.347
32.64000 360.779
32.68000 369.380
32.72000 364.875
32.76000 369.498
32.80000 374.610
32.84000 380.923
32.88000 386.735
32.92000 381.614
32.96000 368.869
33.00000 370.704
33.04000 357.126
33.08000 347.921
33.12000 339.645
33.16000 332.141
33.20000 342.857
33.24000 343.398
33.28000 337.973
33.32000 334.078
33.36000 335.234
33.40000 321.493
33.44000 315.237
33.48000 362.583
33.52000 347.044
33.56000 346.703
33.60000 349.684
33.64000 342.546
33.68000 321.932
33.72000 331.076
33.76000 342.051
33.80000 328.223
33.84000 327.822
33.88000 316.901
33.92000 328.794
33.96000 314.862
34.00000 347.116
34.04000 325.677
34.08000 315.572
34.12000 325.319
34.16000 332.152
34.20000 322.419
34.24000 325.387
34.28000 332.734
34.32000 329.461
34.36000 334.966
34.40000 315.352
34.44000 330.549
34.48000 318.738
34.52000 340.084
34.56000 323.105
34.60000 321.246
34.64000 316.941
34.68000 322.150
34.72000 322.112
34.76000 309.008
34.80000 319.713
34.84000 335.479
34.88000 319.010
34.92000 320.278
34.96000 310.293
35.00000 314.375
35.04000 308.143
35.08000 304.068
35.12000 294.494
35.16000 302.886
35.20000 302.554
35.24000 319.825
35.28000 300.086
35.32000 305.739
35.36000 307.708
35.40000 299.046
35.44000 295.737
35.48000 300.226
35.52000 288.978
35.56000 305.475
35.60000 309.186
35.64000 314.315
35.68000 301.280
35.72000 292.684
35.76000 300.717
35.80000 297.781
35.84000 311.815
35.88000 314.402
35.92000 302.584
35.96000 292.480
36.00000 297.307
36.04000 294.782
36.08000 313.642
36.12000 308.654
36.16000 296.080
36.20000 306.978
36.24000 298.860
36.28000 301.112
36.32000 295.054
36.36000 289.842
36.40000 300.727
36.44000 289.482
36.48000 287.256
36.52000 295.082
36.56000 293.501
36.60000 293.084
36.64000 296.584
36.68000 268.179
36.72000 292.746
36.76000 292.684
36.80000 296.172
36.84000 294.521
36.88000 284.589
36.92000 286.153
36.96000 290.492
37.00000 297.601
37.04000 304.573
37.08000 310.707
37.12000 273.984
37.16000 297.961
37.20000 293.553
37.24000 296.115
37.28000 291.748
37.32000 276.698
37.36000 278.928
37.40000 273.899
37.44000 283.306
37.48000 282.699
37.52000 279.854
37.56000 280.422
37.60000 270.591
37.64000 298.218
37.68000 280.204
37.72000 278.680
37.76000 273.070
37.80000 271.037
37.84000 295.987
37.88000 284.882
37.92000 278.999
37.96000 290.244
38.00000 281.261
38.04000 278.808
38.08000 292.349
38.12000 288.087
38.16000 296.787
38.20000 282.035
38.24000 287.969
38.28000 293.473
38.32000 299.477
38.36000 311.658
38.40000 317.067
38.44000 338.072
38.48000 373.651
38.52000 422.893
38.56000 464.640
38.60000 548.774
38.64000 610.736
38.68000 703.497
38.72000 734.279
38.76000 781.721
38.80000 738.659
38.84000 673.735
38.88000 591.842
38.92000 496.699
38.96000 430.611
39.00000 377.747
39.04000 329.953
39.08000 313.107
39.12000 289.983
39.16000 277.501
39.20000 294.126
39.24000 276.916
39.28000 264.758
39.32000 273.924
39.36000 260.845
39.40000 253.353
39.44000 264.987
39.48000 265.307
39.52000 254.829
39.56000 257.880
39.60000 266.054
39.64000 268.488
39.68000 266.818
39.72000 272.371
39.76000 267.617
39.80000 249.452
39.84000 256.857
39.88000 256.008
39.92000 256.769
39.96000 250.926
40.00000 260.895
40.04000 260.940
40.08000 264.999
40.12000 253.702
40.16000 262.775
40.20000 240.473
40.24000 258.344
40.28000 262.328
40.32000 265.939
40.36000 262.709
40.40000 249.979
40.44000 257.610
40.48000 257.946
40.52000 253.684
40.56000 238.397
40.60000 248.066
40.64000 254.245
40.68000 243.692
40.72000 240.636
40.76000 245.611
40.80000 229.316
40.84000 258.208
40.88000 247.833
40.92000 234.311
40.96000 256.286
41.00000 264.026
41.04000 239.785
41.08000 245.360
41.12000 242.141
41.16000 245.188
41.20000 238.779
41.24000 228.553
41.28000 228.996
41.32000 236.973
41.36000 238.991
41.40000 246.162
41.44000 244.495
41.48000 238.940
41.52000 242.503
41.56000 231.188
41.60000 231.894
41.64000 228.670
41.68000 235.683
41.72000 228.080
41.76000 224.513
41.80000 233.357
41.84000 234.432
41.88000 231.859
41.92000 227.081
41.96000 239.625
42.00000 229.655
42.04000 232.771
42.08000 222.012
42.12000 241.400
42.16000 232.210
42.20000 231.465
42.24000 230.373
42.28000 218.807
42.32000 224.025
42.36000 225.271
42.40000 240.921
42.44000 236.181
42.48000 235.551
42.52000 232.235
42.56000 221.325
42.60000 227.765
42.64000 236.737
42.68000 233.849
42.72000 219.609
42.76000 214.223
42.80000 228.144
42.84000 224.702
42.88000 236.440
42.92000 220.077
42.96000 226.415
43.00000 223.599
43.04000 226.954
43.08000 216.223
43.12000 219.437
43.16000 218.678
43.20000 228.977
43.24000 211.754
43.28000 222.172
43.32000 223.996
43.36000 218.392
43.40000 218.933
43.44000 225.747
43.48000 219.338
43.52000 219.367
43.56000 213.989
43.60000 214.244
43.64000 219.770
43.68000 217.980
43.72000 208.041
43.76000 219.845
43.80000 210.414
43.84000 224.108
43.88000 217.394
43.92000 218.848
43.96000 214.289
44.00000 215.389
44.04000 220.469
44.08000 213.796
44.12000 221.194
44.16000 217.252
44.20000 219.313
44.24000 204.455
44.28000 220.895
44.32000 217.302
44.36000 213.893
44.40000 218.635
44.44000 218.974
44.48000 214.500
44.52000 224.710
44.56000 210.962
44.60000 213.427
44.64000 225.336
44.68000 226.070
44.72000 222.092
44.76000 232.622
44.80000 240.551
44.84000 232.213
44.88000 222.244
44.92000 238.220
44.96000 248.696
45.00000 254.414
45.04000 243.808
45.08000 256.849
45.12000 259.794
45.16000 276.313
45.20000 264.695
45.24000 247.070
45.28000 247.378
45.32000 242.002
45.36000 246.509
45.40000 257.352
45.44000 252.125
45.48000 251.155
45.52000 249.242
45.56000 245.358
45.60000 251.803
45.64000 235.866
45.68000 232.126
45.72000 226.397
45.76000 237.826
45.80000 249.084
45.84000 231.680
45.88000 229.037
45.92000 233.680
45.96000 227.052
46.00000 224.824
46.04000 220.530
46.08000 212.748
46.12000 199.534
46.16000 210.397
46.20000 211.608
46.24000 211.320
46.28000 209.023
46.32000 211.610
46.36000 212.444
46.40000 202.062
46.44000 204.564
46.48000 197.850
46.52000 195.518
46.56000 195.485
46.60000 196.987
46.64000 204.174
46.68000 190.245
46.72000 190.318
46.76000 200.499
46.80000 198.418
46.84000 210.105
46.88000 202.490
46.92000 191.855
46.96000 204.603
47.00000 189.596
47.04000 202.990
47.08000 190.248
47.12000 195.889
47.16000 184.319
47.20000 182.740
47.24000 193.479
47.28000 193.105
47.32000 194.063
47.36000 184.180
47.40000 189.395
47.44000 185.137
47.48000 193.488
47.52000 193.678
47.56000 180.943
47.60000 179.069
47.64000 179.334
47.68000 178.504
47.72000 185.921
47.76000 180.820
47.80000 181.993
47.84000 176.380
47.88000 195.081
47.92000 180.766
47.96000 190.097
48.00000 180.326
48.04000 181.821
48.08000 189.132
48.12000 183.723
48.16000 178.846
48.20000 179.904
48.24000 195.296
48.28000 174.006
48.32000 184.216
48.36000 171.155
48.40000 183.499
48.44000 174.216
48.48000 196.296
48.52000 175.262
48.56000 179.213
48.60000 182.167
48.64000 179.286
48.68000 175.115
48.72000 186.689
48.76000 182.398
48.80000 191.271
48.84000 181.650
48.88000 177.918
48.92000 178.349
48.96000 174.829
49.00000 172.838
49.04000 170.523
49.08000 174.632
49.12000 182.244
49.16000 180.926
49.20000 186.915
49.24000 175.906
49.28000 167.292
49.32000 172.630
49.36000 172.530
49.40000 162.153
49.44000 178.567
49.48000 174.735
49.52000 183.106
49.56000 183.825
49.60000 181.949
49.64000 173.383
49.68000 171.930
49.72000 162.993
49.76000 172.671
49.80000 176.546
49.84000 172.351
49.88000 181.740
49.92000 172.723
49.96000 169.901
50.00000 173.947
50.04000 181.258
50.08000 173.302
50.12000 173.449
50.16000 170.268
50.20000 177.602
50.24000 174.447
50.28000 170.190
50.32000 179.509
50.36000 170.259
50.40000 181.321
50.44000 171.196
50.48000 168.645
50.52000 178.612
50.56000 185.373
50.60000 190.830
50.64000 193.387
50.68000 183.114
50.72000 183.597
50.76000 193.758
50.80000 183.202
50.84000 178.478
50.88000 181.001
50.92000 186.900
50.96000 188.676
51.00000 175.998
51.04000 182.305
51.08000 177.556
51.12000 170.366
51.16000 174.587
51.20000 175.661
51.24000 168.771
51.28000 165.821
51.32000 170.333
51.36000 171.658
51.40000 154.168
51.44000 170.900
51.48000 165.601
51.52000 167.111
51.56000 165.822
51.60000 169.294
51.64000 158.211
51.68000 156.968
51.72000 159.362
51.76000 156.869
51.80000 168.096
51.84000 160.510
51.88000 151.203
51.92000 159.245
51.96000 155.228
52.00000 153.553
52.04000 155.547
52.08000 167.372
52.12000 166.747
52.16000 159.781
52.20000 158.033
52.24000 159.729
52.28000 153.919
52.32000 157.151
52.36000 162.417
52.40000 158.042
52.44000 171.302
52.48000 161.776
52.52000 162.836
52.56000 149.652
52.60000 163.948
52.64000 149.119
52.68000 155.743
52.72000 169.077
52.76000 157.575
52.80000 161.796
52.84000 144.926
52.88000 150.902
52.92000 158.304
52.96000 150.818
53.00000 155.082
53.04000 155.499
53.08000 154.139
53.12000 144.079
53.16000 155.011
53.20000 156.641
53.24000 157.822
53.28000 169.164
53.32000 162.993
53.36000 152.438
53.40000 165.309
53.44000 157.026
53.48000 158.937
53.52000 149.784
53.56000 151.891
53.60000 152.422
53.64000 152.453
53.68000 154.610
53.72000 139.743
53.76000 155.065
53.80000 159.534
53.84000 151.436
53.88000 149.819
53.92000 149.590
53.96000 140.773
54.00000 153.516
54.04000 145.839
54.08000 159.175
54.12000 152.076
54.16000 151.753
54.20000 159.510
54.24000 149.091
54.28000 145.992
54.32000 151.804
54.36000 157.106
54.40000 153.548
54.44000 155.357
54.48000 156.672
54.52000 140.685
54.56000 156.704
54.60000 156.174
54.64000 154.286
54.68000 150.083
54.72000 153.225
54.76000 148.838
54.80000 142.988
54.84000 151.038
54.88000 159.308
54.92000 155.230
54.96000 149.523
55.00000 140.395
55.04000 157.029
55.08000 161.254
55.12000 155.542
55.16000 144.789
55.20000 157.262
55.24000 153.418
55.28000 146.714
55.32000 156.162
55.36000 159.768
55.40000 152.506
55.44000 164.991
55.48000 173.162
55.52000 182.725
55.56000 190.707
55.60000 189.770
55.64000 212.285
55.68000 226.458
55.72000 261.245
55.76000 297.971
55.80000 323.518
55.84000 349.578
55.88000 380.342
55.92000 399.150
55.96000 414.815
56.00000 425.312
56.04000 422.995
56.08000 400.419
56.12000 364.554
56.16000 331.173
56.20000 300.524
56.24000 261.579
56.28000 236.171
56.32000 227.787
56.36000 203.390
56.40000 195.202
56.44000 187.852
56.48000 174.265
56.52000 170.401
56.56000 171.801
56.60000 157.298
56.64000 154.943
56.68000 155.999
56.72000 146.909
56.76000 161.521
56.80000 150.200
56.84000 153.422
56.88000 143.765
56.92000 146.843
56.96000 143.375
57.00000 152.965
57.04000 137.970
57.08000 141.353
57.12000 142.509
57.16000 134.534
57.20000 157.323
57.24000 137.605
57.28000 142.633
57.32000 144.719
57.36000 148.458
57.40000 140.384
57.44000 140.935
57.48000 138.916
57.52000 127.268
57.56000 135.369
57.60000 138.034
57.64000 136.122
57.68000 136.360
57.72000 150.857
57.76000 138.082
57.80000 135.040
57.84000 136.137
57.88000 137.852
57.92000 126.816
57.96000 150.087
58.00000 138.360
58.04000 134.129
58.08000 134.476
58.12000 139.232
58.16000 138.432
58.20000 135.511
58.24000 132.897
58.28000 134.103
58.32000 135.894
58.36000 138.025
58.40000 131.322
58.44000 130.857
58.48000 128.447
58.52000 133.948
58.56000 142.988
58.60000 143.331
58.64000 125.709
58.68000 140.034
58.72000 137.026
58.76000 133.276
58.80000 136.151
58.84000 133.613
58.88000 128.059
58.92000 135.392
58.96000 135.510
59.00000 151.354
59.04000 139.812
59.08000 136.339
59.12000 131.857
59.16000 130.184
59.20000 135.879
59.24000 133.244
59.28000 126.401
59.32000 138.205
59.36000 142.098
59.40000 135.953
59.44000 128.774
59.48000 145.364
59.52000 124.307
59.56000 133.508
59.60000 142.644
59.64000 129.826
59.68000 136.593
59.72000 136.790
59.76000 121.119
59.80000 134.047
59.84000 131.461
59.88000 123.923
59.92000 137.273
59.96000 133.083
60.00000 133.309
60.04000 139.941
60.08000 133.762
60.12000 127.117
60.16000 136.003
60.20000 132.600
60.24000 131.670
60.28000 119.337
60.32000 138.905
60.36000 125.162
60.40000 131.978
60.44000 125.483
60.48000 135.683
60.52000 131.497
60.56000 137.341
60.60000 137.856
60.64000 140.375
60.68000 135.269
60.72000 128.386
60.76000 133.056
60.80000 134.069
60.84000 129.641
60.88000 135.202
60.92000 138.859
60.96000 143.829
61.00000 145.587
61.04000 138.030
61.08000 141.149
61.12000 139.426
61.16000 125.574
61.20000 136.361
61.24000 138.068
61.28000 134.987
61.32000 137.583
61.36000 138.898
61.40000 140.163
61.44000 132.918
61.48000 140.160
61.52000 151.687
61.56000 190.503
61.60000 223.854
61.64000 261.673
61.68000 263.542
61.72000 267.276
61.76000 257.732
61.80000 226.392
61.84000 172.681
61.88000 154.016
61.92000 148.243
61.96000 150.672
62.00000 148.116
62.04000 135.843
62.08000 139.335
62.12000 144.017
62.16000 135.850
62.20000 150.951
62.24000 144.786
62.28000 133.247
62.32000 143.210
62.36000 140.870
62.40000 141.753
62.44000 132.412
62.48000 142.973
62.52000 148.368
62.56000 148.363
62.60000 141.030
62.64000 143.514
62.68000 147.629
62.72000 144.121
62.76000 143.361
62.80000 135.920
62.84000 137.203
62.88000 130.608
62.92000 144.385
62.96000 143.477
63.00000 137.741
63.04000 148.757
63.08000 137.309
63.12000 146.220
63.16000 148.576
63.20000 143.308
63.24000 146.016
63.28000 139.533
63.32000 133.222
63.36000 146.411
63.40000 145.032
63.44000 134.941
63.48000 141.764
63.52000 159.944
63.56000 144.954
63.60000 155.252
63.64000 150.639
63.68000 146.943
63.72000 153.198
63.76000 145.065
63.80000 155.054
63.84000 164.964
63.88000 154.351
63.92000 160.176
63.96000 160.588
64.00000 149.299
64.04000 141.405
64.08000 157.408
64.12000 163.001
64.16000 158.011
64.20000 161.055
64.24000 157.440
64.28000 161.770
64.32000 168.358
64.36000 172.277
64.40000 163.961
64.44000 170.634
64.48000 167.318
64.52000 175.841
64.56000 166.617
64.60000 168.026
64.64000 175.579
64.68000 174.769
64.72000 170.855
64.76000 181.912
64.80000 186.003
64.84000 189.643
64.88000 178.981
64.92000 192.391
64.96000 179.851
65.00000 190.083
65.04000 191.481
65.08000 213.226
65.12000 191.188
65.16000 203.268
65.20000 210.303
65.24000 216.183
65.28000 214.966
65.32000 220.313
65.36000 231.790
65.40000 227.789
65.44000 244.796
65.48000 258.729
65.52000 266.704
65.56000 284.788
65.60000 281.231
65.64000 316.185
65.68000 374.503
65.72000 525.782
65.76000 729.600
65.80000 914.607
65.84000 1028.286
65.88000 1026.697
65.92000 1012.482
65.96000 893.304
66.00000 666.881
66.04000 456.865
66.08000 363.717
66.12000 309.510
66.16000 301.712
66.20000 306.480
66.24000 309.920
66.28000 341.005
66.32000 398.004
66.36000 425.442
66.40000 434.865
66.44000 451.357
66.48000 453.175
66.52000 421.934
66.56000 376.366
66.60000 347.972
66.64000 333.653
66.68000 327.083
66.72000 310.345
66.76000 323.227
66.80000 337.337
66.84000 319.591
66.88000 321.649
66.92000 333.407
66.96000 345.557
67.00000 347.752
67.04000 350.552
67.08000 355.347
67.12000 366.640
67.16000 370.654
67.20000 380.344
67.24000 377.392
67.28000 374.769
67.32000 383.149
67.36000 378.839
67.40000 403.590
67.44000 422.891
67.48000 402.139
67.52000 420.081
67.56000 437.976
67.60000 431.403
67.64000 446.227
67.68000 429.524
67.72000 445.436
67.76000 475.158
67.80000 477.205
67.84000 479.286
67.88000 505.435
67.92000 496.468
67.96000 499.989
68.00000 518.054
68.04000 552.470
68.08000 556.811
68.12000 568.034
68.16000 571.790
68.20000 575.085
68.24000 620.539
68.28000 628.993
68.32000 628.566
68.36000 661.486
68.40000 661.097
68.44000 717.032
68.48000 756.604
68.52000 778.874
68.56000 845.547
68.60000 936.783
68.64000 1069.405
68.68000 1258.637
68.72000 1497.982
68.76000 1690.799
68.80000 1883.203
68.84000 2168.158
68.88000 2632.243
68.92000 4142.024
68.96000 10287.393
69.00000 24369.199
69.04000 41465.516
69.08000 50813.539
69.12000 53286.348
69.16000 55021.938
69.20000 56060.055
69.24000 48058.930
69.28000 36252.137
69.32000 29428.967
69.36000 26470.164
69.40000 22680.396
69.44000 14405.360
69.48000 6835.692
69.52000 3090.840
69.56000 1877.612
69.60000 1496.023
69.64000 1244.090
69.68000 1109.576
69.72000 997.451
69.76000 928.766
69.80000 860.701
69.84000 817.412
69.88000 777.491
69.92000 717.417
69.96000 694.673
70.00000 662.171