File: XRD/XRD/25-09-2025/XY Data/BTO_Mapping_Theta2Theta_25-09-2025_001_30_-9-781_2-079.xy
20.00000 547.854
20.04000 548.585
20.08000 576.054
20.12000 559.856
20.16000 563.121
20.20000 551.517
20.24000 556.896
20.28000 566.615
20.32000 549.562
20.36000 549.862
20.40000 553.630
20.44000 546.926
20.48000 533.999
20.52000 545.175
20.56000 559.758
20.60000 573.888
20.64000 565.961
20.68000 544.325
20.72000 528.478
20.76000 552.862
20.80000 552.053
20.84000 538.915
20.88000 550.462
20.92000 557.234
20.96000 550.797
21.00000 548.580
21.04000 532.469
21.08000 547.221
21.12000 558.551
21.16000 527.586
21.20000 537.555
21.24000 550.413
21.28000 542.661
21.32000 532.914
21.36000 514.205
21.40000 537.163
21.44000 542.068
21.48000 547.562
21.52000 543.050
21.56000 529.058
21.60000 543.736
21.64000 560.483
21.68000 540.707
21.72000 570.709
21.76000 565.339
21.80000 578.574
21.84000 599.246
21.88000 610.253
21.92000 627.520
21.96000 634.164
22.00000 667.309
22.04000 675.476
22.08000 678.428
22.12000 698.483
22.16000 673.679
22.20000 655.133
22.24000 655.311
22.28000 614.111
22.32000 615.054
22.36000 599.881
22.40000 617.358
22.44000 588.545
22.48000 573.133
22.52000 562.503
22.56000 553.134
22.60000 538.634
22.64000 518.020
22.68000 537.333
22.72000 522.969
22.76000 509.194
22.80000 527.833
22.84000 507.968
22.88000 500.310
22.92000 513.947
22.96000 516.682
23.00000 499.473
23.04000 498.236
23.08000 511.664
23.12000 509.421
23.16000 496.290
23.20000 506.780
23.24000 491.911
23.28000 482.714
23.32000 499.766
23.36000 484.259
23.40000 517.249
23.44000 522.374
23.48000 504.249
23.52000 503.907
23.56000 498.420
23.60000 503.445
23.64000 484.126
23.68000 497.022
23.72000 497.777
23.76000 483.887
23.80000 493.910
23.84000 505.236
23.88000 489.259
23.92000 489.414
23.96000 486.272
24.00000 483.666
24.04000 487.680
24.08000 467.775
24.12000 486.390
24.16000 477.823
24.20000 481.017
24.24000 489.197
24.28000 487.021
24.32000 468.327
24.36000 486.223
24.40000 481.560
24.44000 495.559
24.48000 472.576
24.52000 488.119
24.56000 470.465
24.60000 484.201
24.64000 469.426
24.68000 469.936
24.72000 473.813
24.76000 479.984
24.80000 478.751
24.84000 478.316
24.88000 456.521
24.92000 470.926
24.96000 458.715
25.00000 473.812
25.04000 462.096
25.08000 475.635
25.12000 483.913
25.16000 462.529
25.20000 456.894
25.24000 460.801
25.28000 482.411
25.32000 462.715
25.36000 474.829
25.40000 455.317
25.44000 452.581
25.48000 483.163
25.52000 473.362
25.56000 458.215
25.60000 446.581
25.64000 451.883
25.68000 453.214
25.72000 464.217
25.76000 456.989
25.80000 459.984
25.84000 453.435
25.88000 459.020
25.92000 452.474
25.96000 454.368
26.00000 445.219
26.04000 457.867
26.08000 466.398
26.12000 469.280
26.16000 457.737
26.20000 453.968
26.24000 444.159
26.28000 452.597
26.32000 423.522
26.36000 441.040
26.40000 456.432
26.44000 441.831
26.48000 446.536
26.52000 443.662
26.56000 451.056
26.60000 436.193
26.64000 457.506
26.68000 428.869
26.72000 436.876
26.76000 432.242
26.80000 439.346
26.84000 442.526
26.88000 412.872
26.92000 433.214
26.96000 454.649
27.00000 428.297
27.04000 434.471
27.08000 461.230
27.12000 434.124
27.16000 441.976
27.20000 419.762
27.24000 429.404
27.28000 419.221
27.32000 430.097
27.36000 429.564
27.40000 431.953
27.44000 437.638
27.48000 428.777
27.52000 415.184
27.56000 416.579
27.60000 428.932
27.64000 422.839
27.68000 414.685
27.72000 443.883
27.76000 426.480
27.80000 415.134
27.84000 424.502
27.88000 410.078
27.92000 397.257
27.96000 439.360
28.00000 414.989
28.04000 414.911
28.08000 419.993
28.12000 402.584
28.16000 415.354
28.20000 425.950
28.24000 421.847
28.28000 434.104
28.32000 432.409
28.36000 421.906
28.40000 410.687
28.44000 414.826
28.48000 404.730
28.52000 425.348
28.56000 423.867
28.60000 401.624
28.64000 426.011
28.68000 427.635
28.72000 396.831
28.76000 408.165
28.80000 422.921
28.84000 402.658
28.88000 385.456
28.92000 405.714
28.96000 410.654
29.00000 408.441
29.04000 403.495
29.08000 414.330
29.12000 429.010
29.16000 398.346
29.20000 394.082
29.24000 390.536
29.28000 396.325
29.32000 396.125
29.36000 401.101
29.40000 395.571
29.44000 384.109
29.48000 397.824
29.52000 381.980
29.56000 427.470
29.60000 408.188
29.64000 412.838
29.68000 403.502
29.72000 411.482
29.76000 398.824
29.80000 393.857
29.84000 416.777
29.88000 424.168
29.92000 414.678
29.96000 411.446
30.00000 413.479
30.04000 428.186
30.08000 413.967
30.12000 408.623
30.16000 435.544
30.20000 401.560
30.24000 417.486
30.28000 413.307
30.32000 409.551
30.36000 421.464
30.40000 409.248
30.44000 408.775
30.48000 414.309
30.52000 410.546
30.56000 408.731
30.60000 408.476
30.64000 410.755
30.68000 440.229
30.72000 419.544
30.76000 424.780
30.80000 425.837
30.84000 445.416
30.88000 459.065
30.92000 464.900
30.96000 498.731
31.00000 542.330
31.04000 584.501
31.08000 665.536
31.12000 794.611
31.16000 1012.256
31.20000 1235.183
31.24000 1445.041
31.28000 1640.129
31.32000 1836.155
31.36000 2002.432
31.40000 1965.835
31.44000 1959.703
31.48000 1734.814
31.52000 1497.227
31.56000 1315.469
31.60000 1109.018
31.64000 905.287
31.68000 772.226
31.72000 684.015
31.76000 584.818
31.80000 532.096
31.84000 487.900
31.88000 466.064
31.92000 442.573
31.96000 429.850
32.00000 427.516
32.04000 404.465
32.08000 410.031
32.12000 380.290
32.16000 396.995
32.20000 401.661
32.24000 396.663
32.28000 380.817
32.32000 369.430
32.36000 374.473
32.40000 376.328
32.44000 381.519
32.48000 381.766
32.52000 387.637
32.56000 380.971
32.60000 364.349
32.64000 368.220
32.68000 366.431
32.72000 360.852
32.76000 373.942
32.80000 365.821
32.84000 367.897
32.88000 380.120
32.92000 381.423
32.96000 386.297
33.00000 399.971
33.04000 368.609
33.08000 340.890
33.12000 350.296
33.16000 344.589
33.20000 342.404
33.24000 343.420
33.28000 332.863
33.32000 337.187
33.36000 336.055
33.40000 337.042
33.44000 341.204
33.48000 357.296
33.52000 339.472
33.56000 338.303
33.60000 340.484
33.64000 337.977
33.68000 332.241
33.72000 332.659
33.76000 325.263
33.80000 337.689
33.84000 331.416
33.88000 328.826
33.92000 327.117
33.96000 321.116
34.00000 333.034
34.04000 330.473
34.08000 326.943
34.12000 315.614
34.16000 310.806
34.20000 310.704
34.24000 330.529
34.28000 319.489
34.32000 315.281
34.36000 318.932
34.40000 323.370
34.44000 323.651
34.48000 324.584
34.52000 310.330
34.56000 311.918
34.60000 325.440
34.64000 313.290
34.68000 323.061
34.72000 293.656
34.76000 308.024
34.80000 310.715
34.84000 315.550
34.88000 320.600
34.92000 314.487
34.96000 321.414
35.00000 299.175
35.04000 298.848
35.08000 309.100
35.12000 310.789
35.16000 306.494
35.20000 305.762
35.24000 290.607
35.28000 308.347
35.32000 301.277
35.36000 311.763
35.40000 300.877
35.44000 297.041
35.48000 299.737
35.52000 298.667
35.56000 297.329
35.60000 295.215
35.64000 319.039
35.68000 304.267
35.72000 306.210
35.76000 308.907
35.80000 301.279
35.84000 323.479
35.88000 306.674
35.92000 302.815
35.96000 292.912
36.00000 313.448
36.04000 299.276
36.08000 288.542
36.12000 294.590
36.16000 300.129
36.20000 296.904
36.24000 290.203
36.28000 291.519
36.32000 288.145
36.36000 291.292
36.40000 292.433
36.44000 301.870
36.48000 303.776
36.52000 293.405
36.56000 279.699
36.60000 298.258
36.64000 304.780
36.68000 323.514
36.72000 293.814
36.76000 295.185
36.80000 303.893
36.84000 288.060
36.88000 299.313
36.92000 300.752
36.96000 297.318
37.00000 276.102
37.04000 296.018
37.08000 297.755
37.12000 300.966
37.16000 294.581
37.20000 292.415
37.24000 291.759
37.28000 280.852
37.32000 294.056
37.36000 288.962
37.40000 269.433
37.44000 278.116
37.48000 277.625
37.52000 298.231
37.56000 286.293
37.60000 279.447
37.64000 275.576
37.68000 277.006
37.72000 289.322
37.76000 270.683
37.80000 281.052
37.84000 295.332
37.88000 279.792
37.92000 282.509
37.96000 281.187
38.00000 280.301
38.04000 299.164
38.08000 282.706
38.12000 293.542
38.16000 291.353
38.20000 295.120
38.24000 290.022
38.28000 317.263
38.32000 312.939
38.36000 343.416
38.40000 348.251
38.44000 398.390
38.48000 415.688
38.52000 485.914
38.56000 562.955
38.60000 637.766
38.64000 661.323
38.68000 708.532
38.72000 737.479
38.76000 723.551
38.80000 661.300
38.84000 614.218
38.88000 538.177
38.92000 471.236
38.96000 428.359
39.00000 366.782
39.04000 329.908
39.08000 299.964
39.12000 285.544
39.16000 289.993
39.20000 286.416
39.24000 280.883
39.28000 280.683
39.32000 265.452
39.36000 280.739
39.40000 283.618
39.44000 268.699
39.48000 267.063
39.52000 270.838
39.56000 255.959
39.60000 266.268
39.64000 274.149
39.68000 254.585
39.72000 253.019
39.76000 265.149
39.80000 252.083
39.84000 265.564
39.88000 266.909
39.92000 254.483
39.96000 255.845
40.00000 268.365
40.04000 253.739
40.08000 265.940
40.12000 265.946
40.16000 251.313
40.20000 248.783
40.24000 254.188
40.28000 259.346
40.32000 247.870
40.36000 257.473
40.40000 255.171
40.44000 258.404
40.48000 273.482
40.52000 250.357
40.56000 248.538
40.60000 254.260
40.64000 239.971
40.68000 253.898
40.72000 231.937
40.76000 243.683
40.80000 238.284
40.84000 239.676
40.88000 247.135
40.92000 247.624
40.96000 247.030
41.00000 240.330
41.04000 246.441
41.08000 250.868
41.12000 237.261
41.16000 244.955
41.20000 247.327
41.24000 261.344
41.28000 245.954
41.32000 243.277
41.36000 242.342
41.40000 244.479
41.44000 236.991
41.48000 244.183
41.52000 244.145
41.56000 248.000
41.60000 230.633
41.64000 247.024
41.68000 229.181
41.72000 223.881
41.76000 224.538
41.80000 242.550
41.84000 227.804
41.88000 247.461
41.92000 238.103
41.96000 236.040
42.00000 247.138
42.04000 230.917
42.08000 232.243
42.12000 236.535
42.16000 234.544
42.20000 238.132
42.24000 234.280
42.28000 242.067
42.32000 245.219
42.36000 231.180
42.40000 231.419
42.44000 227.133
42.48000 218.042
42.52000 230.513
42.56000 235.446
42.60000 226.620
42.64000 227.511
42.68000 242.164
42.72000 222.540
42.76000 231.773
42.80000 231.009
42.84000 220.815
42.88000 220.367
42.92000 227.384
42.96000 220.882
43.00000 210.032
43.04000 237.466
43.08000 217.536
43.12000 233.800
43.16000 222.675
43.20000 228.064
43.24000 217.713
43.28000 230.785
43.32000 248.501
43.36000 234.524
43.40000 236.218
43.44000 213.177
43.48000 221.461
43.52000 219.846
43.56000 229.033
43.60000 221.377
43.64000 218.398
43.68000 230.033
43.72000 213.532
43.76000 218.479
43.80000 223.539
43.84000 222.715
43.88000 212.272
43.92000 213.041
43.96000 222.544
44.00000 210.253
44.04000 213.141
44.08000 213.787
44.12000 219.755
44.16000 215.007
44.20000 219.094
44.24000 214.075
44.28000 223.131
44.32000 218.854
44.36000 219.454
44.40000 233.438
44.44000 222.968
44.48000 210.491
44.52000 224.328
44.56000 232.210
44.60000 228.942
44.64000 239.283
44.68000 236.122
44.72000 238.403
44.76000 237.077
44.80000 265.896
44.84000 265.323
44.88000 278.713
44.92000 284.559
44.96000 282.229
45.00000 297.403
45.04000 311.777
45.08000 323.308
45.12000 314.645
45.16000 313.079
45.20000 324.911
45.24000 319.068
45.28000 302.948
45.32000 289.043
45.36000 290.047
45.40000 264.732
45.44000 279.825
45.48000 277.377
45.52000 263.231
45.56000 259.470
45.60000 246.412
45.64000 248.301
45.68000 254.935
45.72000 245.765
45.76000 235.582
45.80000 223.988
45.84000 232.902
45.88000 227.173
45.92000 222.649
45.96000 223.013
46.00000 215.356
46.04000 227.106
46.08000 218.933
46.12000 228.009
46.16000 201.356
46.20000 199.647
46.24000 211.294
46.28000 202.738
46.32000 198.469
46.36000 199.254
46.40000 194.299
46.44000 202.265
46.48000 212.588
46.52000 208.613
46.56000 199.635
46.60000 204.905
46.64000 194.947
46.68000 197.822
46.72000 209.184
46.76000 192.425
46.80000 204.837
46.84000 189.537
46.88000 201.494
46.92000 203.250
46.96000 191.221
47.00000 187.605
47.04000 197.278
47.08000 201.372
47.12000 194.083
47.16000 183.332
47.20000 189.502
47.24000 200.419
47.28000 191.571
47.32000 187.365
47.36000 185.843
47.40000 194.370
47.44000 188.759
47.48000 187.458
47.52000 192.972
47.56000 183.081
47.60000 185.993
47.64000 192.213
47.68000 180.905
47.72000 191.628
47.76000 185.922
47.80000 185.042
47.84000 175.998
47.88000 191.241
47.92000 183.481
47.96000 176.206
48.00000 181.087
48.04000 187.225
48.08000 194.384
48.12000 181.373
48.16000 183.468
48.20000 180.624
48.24000 182.839
48.28000 188.901
48.32000 172.397
48.36000 177.493
48.40000 184.402
48.44000 176.386
48.48000 179.448
48.52000 189.780
48.56000 177.097
48.60000 179.055
48.64000 174.482
48.68000 167.933
48.72000 178.919
48.76000 183.116
48.80000 165.644
48.84000 179.366
48.88000 163.500
48.92000 173.419
48.96000 180.855
49.00000 184.350
49.04000 175.296
49.08000 174.043
49.12000 176.941
49.16000 175.495
49.20000 185.909
49.24000 179.064
49.28000 176.144
49.32000 179.102
49.36000 168.121
49.40000 164.829
49.44000 175.631
49.48000 168.108
49.52000 187.007
49.56000 171.673
49.60000 163.189
49.64000 171.389
49.68000 178.201
49.72000 176.957
49.76000 167.985
49.80000 173.554
49.84000 158.006
49.88000 173.181
49.92000 170.562
49.96000 169.409
50.00000 172.644
50.04000 180.153
50.08000 168.768
50.12000 176.075
50.16000 173.867
50.20000 172.274
50.24000 192.038
50.28000 176.074
50.32000 176.443
50.36000 174.163
50.40000 197.379
50.44000 204.633
50.48000 188.133
50.52000 206.577
50.56000 220.848
50.60000 219.976
50.64000 220.161
50.68000 230.749
50.72000 206.861
50.76000 213.664
50.80000 209.344
50.84000 207.099
50.88000 208.632
50.92000 200.189
50.96000 199.968
51.00000 202.339
51.04000 187.990
51.08000 185.911
51.12000 171.690
51.16000 176.028
51.20000 179.457
51.24000 176.379
51.28000 183.114
51.32000 172.621
51.36000 172.609
51.40000 183.732
51.44000 165.754
51.48000 166.396
51.52000 173.537
51.56000 162.448
51.60000 157.269
51.64000 172.883
51.68000 160.720
51.72000 156.111
51.76000 158.978
51.80000 169.097
51.84000 159.208
51.88000 167.545
51.92000 161.481
51.96000 154.571
52.00000 164.727
52.04000 155.139
52.08000 166.790
52.12000 155.199
52.16000 159.883
52.20000 163.047
52.24000 166.732
52.28000 164.946
52.32000 145.082
52.36000 152.718
52.40000 166.124
52.44000 155.981
52.48000 161.407
52.52000 150.646
52.56000 163.121
52.60000 169.302
52.64000 145.917
52.68000 145.304
52.72000 154.143
52.76000 161.243
52.80000 165.429
52.84000 146.393
52.88000 140.201
52.92000 153.853
52.96000 147.955
53.00000 148.806
53.04000 156.151
53.08000 154.702
53.12000 155.530
53.16000 158.027
53.20000 154.203
53.24000 157.090
53.28000 164.252
53.32000 152.459
53.36000 158.336
53.40000 157.017
53.44000 143.265
53.48000 146.562
53.52000 157.967
53.56000 152.236
53.60000 148.237
53.64000 149.477
53.68000 156.584
53.72000 160.629
53.76000 159.006
53.80000 157.857
53.84000 153.445
53.88000 158.735
53.92000 151.859
53.96000 152.044
54.00000 145.607
54.04000 154.228
54.08000 154.221
54.12000 147.880
54.16000 153.118
54.20000 163.672
54.24000 158.257
54.28000 151.619
54.32000 146.457
54.36000 145.604
54.40000 151.509
54.44000 160.759
54.48000 161.984
54.52000 149.367
54.56000 147.296
54.60000 154.319
54.64000 143.068
54.68000 144.654
54.72000 162.850
54.76000 151.404
54.80000 141.175
54.84000 153.345
54.88000 150.125
54.92000 155.368
54.96000 151.088
55.00000 159.194
55.04000 151.248
55.08000 150.908
55.12000 150.354
55.16000 149.965
55.20000 166.738
55.24000 173.054
55.28000 159.472
55.32000 161.412
55.36000 162.826
55.40000 178.667
55.44000 169.096
55.48000 188.037
55.52000 198.883
55.56000 211.334
55.60000 237.865
55.64000 257.510
55.68000 281.683
55.72000 304.412
55.76000 352.971
55.80000 365.761
55.84000 409.094
55.88000 424.629
55.92000 416.633
55.96000 435.424
56.00000 410.056
56.04000 415.658
56.08000 370.287
56.12000 342.544
56.16000 319.676
56.20000 285.188
56.24000 261.848
56.28000 243.830
56.32000 222.139
56.36000 209.784
56.40000 196.391
56.44000 184.682
56.48000 192.536
56.52000 173.434
56.56000 160.541
56.60000 170.260
56.64000 163.240
56.68000 162.380
56.72000 147.815
56.76000 148.488
56.80000 152.647
56.84000 156.674
56.88000 147.140
56.92000 140.203
56.96000 150.255
57.00000 147.209
57.04000 136.014
57.08000 127.873
57.12000 136.269
57.16000 147.377
57.20000 147.209
57.24000 146.085
57.28000 144.470
57.32000 134.801
57.36000 144.613
57.40000 145.225
57.44000 134.656
57.48000 142.501
57.52000 137.451
57.56000 143.136
57.60000 134.080
57.64000 132.705
57.68000 138.186
57.72000 145.167
57.76000 130.455
57.80000 126.341
57.84000 132.892
57.88000 138.359
57.92000 141.157
57.96000 140.212
58.00000 151.991
58.04000 132.849
58.08000 136.628
58.12000 139.877
58.16000 132.267
58.20000 134.357
58.24000 135.974
58.28000 135.347
58.32000 137.583
58.36000 138.406
58.40000 133.406
58.44000 137.519
58.48000 139.887
58.52000 139.426
58.56000 129.291
58.60000 148.776
58.64000 140.453
58.68000 140.632
58.72000 142.283
58.76000 149.058
58.80000 134.351
58.84000 138.921
58.88000 135.087
58.92000 133.471
58.96000 128.557
59.00000 136.645
59.04000 142.876
59.08000 136.268
59.12000 130.967
59.16000 132.255
59.20000 135.445
59.24000 140.094
59.28000 130.192
59.32000 134.419
59.36000 135.057
59.40000 129.819
59.44000 135.578
59.48000 117.932
59.52000 137.699
59.56000 131.496
59.60000 131.770
59.64000 133.625
59.68000 123.088
59.72000 139.196
59.76000 137.916
59.80000 129.750
59.84000 133.512
59.88000 130.655
59.92000 139.764
59.96000 141.331
60.00000 127.423
60.04000 133.697
60.08000 135.079
60.12000 127.411
60.16000 130.402
60.20000 130.423
60.24000 137.624
60.28000 133.258
60.32000 130.781
60.36000 135.482
60.40000 137.175
60.44000 135.879
60.48000 130.317
60.52000 130.178
60.56000 128.633
60.60000 131.947
60.64000 133.902
60.68000 128.182
60.72000 137.182
60.76000 133.339
60.80000 134.661
60.84000 123.040
60.88000 129.416
60.92000 126.449
60.96000 134.357
61.00000 144.529
61.04000 126.294
61.08000 134.827
61.12000 123.024
61.16000 136.520
61.20000 137.419
61.24000 139.781
61.28000 126.702
61.32000 135.062
61.36000 137.050
61.40000 142.533
61.44000 131.693
61.48000 151.812
61.52000 168.960
61.56000 201.077
61.60000 243.850
61.64000 263.891
61.68000 268.121
61.72000 268.019
61.76000 268.451
61.80000 222.621
61.84000 180.687
61.88000 155.559
61.92000 135.238
61.96000 139.427
62.00000 140.998
62.04000 132.849
62.08000 145.814
62.12000 134.989
62.16000 132.671
62.20000 135.333
62.24000 139.237
62.28000 133.149
62.32000 134.356
62.36000 145.737
62.40000 139.011
62.44000 137.890
62.48000 143.011
62.52000 139.494
62.56000 144.512
62.60000 142.670
62.64000 144.527
62.68000 138.714
62.72000 144.495
62.76000 143.507
62.80000 142.891
62.84000 138.841
62.88000 131.585
62.92000 143.565
62.96000 149.319
63.00000 141.736
63.04000 153.368
63.08000 135.943
63.12000 151.369
63.16000 149.657
63.20000 148.180
63.24000 150.581
63.28000 152.373
63.32000 149.248
63.36000 149.250
63.40000 154.164
63.44000 148.170
63.48000 153.807
63.52000 147.496
63.56000 154.227
63.60000 136.212
63.64000 140.683
63.68000 141.728
63.72000 144.505
63.76000 152.920
63.80000 150.716
63.84000 150.961
63.88000 154.888
63.92000 147.417
63.96000 158.169
64.00000 160.860
64.04000 151.778
64.08000 152.179
64.12000 154.582
64.16000 167.762
64.20000 160.979
64.24000 169.617
64.28000 162.478
64.32000 167.600
64.36000 161.597
64.40000 158.127
64.44000 162.313
64.48000 167.688
64.52000 157.372
64.56000 168.100
64.60000 167.962
64.64000 157.826
64.68000 181.074
64.72000 174.290
64.76000 177.487
64.80000 176.010
64.84000 169.800
64.88000 189.146
64.92000 187.098
64.96000 192.493
65.00000 201.312
65.04000 196.053
65.08000 194.272
65.12000 206.291
65.16000 219.836
65.20000 235.362
65.24000 243.387
65.28000 237.726
65.32000 258.208
65.36000 262.248
65.40000 262.904
65.44000 285.805
65.48000 296.120
65.52000 313.027
65.56000 314.855
65.60000 336.589
65.64000 373.320
65.68000 456.199
65.72000 581.811
65.76000 822.958
65.80000 1050.790
65.84000 1113.941
65.88000 1142.643
65.92000 1135.393
65.96000 932.661
66.00000 667.793
66.04000 463.520
66.08000 376.289
66.12000 343.324
66.16000 310.430
66.20000 316.424
66.24000 344.106
66.28000 364.303
66.32000 409.922
66.36000 450.931
66.40000 469.063
66.44000 478.403
66.48000 454.432
66.52000 401.500
66.56000 376.206
66.60000 336.908
66.64000 336.083
66.68000 316.031
66.72000 318.402
66.76000 331.232
66.80000 328.414
66.84000 337.703
66.88000 354.967
66.92000 339.738
66.96000 342.428
67.00000 352.965
67.04000 370.406
67.08000 364.849
67.12000 382.295
67.16000 379.390
67.20000 383.387
67.24000 387.919
67.28000 392.432
67.32000 391.421
67.36000 396.498
67.40000 413.244
67.44000 422.001
67.48000 423.668
67.52000 427.837
67.56000 452.020
67.60000 464.031
67.64000 464.693
67.68000 459.963
67.72000 496.617
67.76000 462.230
67.80000 502.951
67.84000 505.813
67.88000 528.597
67.92000 540.135
67.96000 555.460
68.00000 545.580
68.04000 559.619
68.08000 581.596
68.12000 586.050
68.16000 606.376
68.20000 593.203
68.24000 631.261
68.28000 638.794
68.32000 650.483
68.36000 696.195
68.40000 712.986
68.44000 750.335
68.48000 806.300
68.52000 821.571
68.56000 903.761
68.60000 1045.819
68.64000 1177.355
68.68000 1420.692
68.72000 1608.554
68.76000 1866.679
68.80000 2110.673
68.84000 2473.320
68.88000 3150.736
68.92000 5404.211
68.96000 13869.255
69.00000 30824.729
69.04000 48470.418
69.08000 57028.148
69.12000 58721.059
69.16000 61272.766
69.20000 61095.117
69.24000 50185.988
69.28000 38587.559
69.32000 31507.859
69.36000 28519.746
69.40000 23379.895
69.44000 13955.695
69.48000 6583.654
69.52000 2976.677
69.56000 1934.367
69.60000 1522.208
69.64000 1302.727
69.68000 1165.273
69.72000 1039.492
69.76000 925.949
69.80000 870.097
69.84000 801.752
69.88000 782.143
69.92000 731.183
69.96000 692.509
70.00000 687.252