File: XRD/XRD/25-09-2025/XY Data/BTO_Mapping_Theta2Theta_25-09-2025_001_42_-5-000_-8-660.xy
20.00000 566.304
20.04000 561.454
20.08000 535.015
20.12000 548.800
20.16000 547.348
20.20000 576.939
20.24000 561.075
20.28000 550.254
20.32000 530.514
20.36000 552.914
20.40000 556.218
20.44000 568.999
20.48000 554.768
20.52000 536.327
20.56000 551.277
20.60000 566.232
20.64000 561.304
20.68000 561.863
20.72000 544.386
20.76000 536.237
20.80000 535.377
20.84000 563.689
20.88000 555.556
20.92000 549.701
20.96000 538.291
21.00000 551.744
21.04000 535.361
21.08000 528.591
21.12000 544.136
21.16000 532.837
21.20000 526.834
21.24000 541.441
21.28000 538.862
21.32000 526.061
21.36000 534.783
21.40000 540.179
21.44000 535.817
21.48000 552.270
21.52000 539.633
21.56000 550.597
21.60000 544.527
21.64000 533.461
21.68000 525.639
21.72000 559.326
21.76000 572.686
21.80000 589.146
21.84000 594.394
21.88000 603.693
21.92000 623.131
21.96000 634.266
22.00000 637.067
22.04000 663.131
22.08000 678.826
22.12000 670.760
22.16000 669.414
22.20000 651.145
22.24000 658.851
22.28000 610.633
22.32000 614.586
22.36000 624.190
22.40000 563.720
22.44000 582.521
22.48000 554.819
22.52000 558.452
22.56000 563.814
22.60000 551.038
22.64000 545.756
22.68000 528.864
22.72000 529.922
22.76000 519.331
22.80000 500.601
22.84000 520.376
22.88000 502.755
22.92000 509.520
22.96000 504.029
23.00000 508.445
23.04000 520.647
23.08000 492.375
23.12000 500.072
23.16000 503.529
23.20000 505.835
23.24000 502.993
23.28000 511.747
23.32000 473.956
23.36000 490.071
23.40000 488.231
23.44000 490.952
23.48000 511.325
23.52000 503.502
23.56000 491.059
23.60000 487.032
23.64000 516.159
23.68000 498.854
23.72000 490.747
23.76000 490.607
23.80000 487.458
23.84000 499.039
23.88000 489.467
23.92000 488.733
23.96000 480.578
24.00000 482.308
24.04000 488.264
24.08000 491.828
24.12000 476.922
24.16000 488.120
24.20000 480.665
24.24000 487.123
24.28000 476.158
24.32000 475.148
24.36000 451.952
24.40000 496.487
24.44000 494.105
24.48000 483.018
24.52000 460.242
24.56000 467.678
24.60000 465.706
24.64000 483.773
24.68000 461.469
24.72000 451.898
24.76000 474.825
24.80000 489.776
24.84000 477.489
24.88000 482.712
24.92000 461.292
24.96000 469.017
25.00000 454.966
25.04000 475.484
25.08000 467.874
25.12000 464.934
25.16000 454.455
25.20000 457.760
25.24000 470.974
25.28000 485.083
25.32000 452.484
25.36000 461.366
25.40000 459.051
25.44000 457.464
25.48000 444.888
25.52000 455.442
25.56000 473.162
25.60000 466.271
25.64000 464.693
25.68000 434.278
25.72000 453.992
25.76000 454.723
25.80000 452.726
25.84000 453.326
25.88000 480.926
25.92000 453.164
25.96000 473.344
26.00000 459.853
26.04000 457.150
26.08000 451.231
26.12000 448.486
26.16000 450.541
26.20000 464.215
26.24000 446.081
26.28000 445.411
26.32000 449.199
26.36000 436.179
26.40000 430.610
26.44000 448.221
26.48000 438.233
26.52000 446.002
26.56000 450.971
26.60000 435.608
26.64000 438.917
26.68000 441.434
26.72000 440.864
26.76000 429.104
26.80000 446.621
26.84000 436.905
26.88000 440.998
26.92000 440.485
26.96000 447.377
27.00000 422.641
27.04000 464.428
27.08000 435.936
27.12000 448.008
27.16000 452.073
27.20000 440.893
27.24000 428.547
27.28000 431.539
27.32000 418.537
27.36000 427.271
27.40000 436.192
27.44000 407.569
27.48000 425.486
27.52000 423.344
27.56000 427.718
27.60000 439.212
27.64000 417.097
27.68000 421.446
27.72000 427.232
27.76000 401.027
27.80000 435.279
27.84000 424.302
27.88000 434.852
27.92000 430.250
27.96000 420.281
28.00000 430.790
28.04000 442.701
28.08000 404.985
28.12000 429.705
28.16000 416.277
28.20000 418.913
28.24000 421.478
28.28000 428.892
28.32000 404.993
28.36000 414.777
28.40000 426.711
28.44000 412.777
28.48000 401.600
28.52000 421.423
28.56000 407.554
28.60000 412.383
28.64000 416.509
28.68000 424.165
28.72000 400.152
28.76000 406.746
28.80000 410.565
28.84000 411.555
28.88000 419.953
28.92000 410.644
28.96000 422.944
29.00000 431.046
29.04000 416.586
29.08000 405.994
29.12000 390.989
29.16000 404.038
29.20000 399.950
29.24000 397.282
29.28000 406.941
29.32000 407.949
29.36000 381.232
29.40000 395.912
29.44000 409.445
29.48000 412.823
29.52000 396.496
29.56000 392.651
29.60000 393.432
29.64000 393.264
29.68000 406.530
29.72000 412.321
29.76000 412.901
29.80000 418.381
29.84000 413.050
29.88000 420.331
29.92000 419.745
29.96000 412.937
30.00000 411.939
30.04000 438.269
30.08000 407.530
30.12000 413.777
30.16000 423.221
30.20000 419.606
30.24000 405.717
30.28000 414.683
30.32000 393.001
30.36000 414.174
30.40000 395.773
30.44000 416.607
30.48000 398.511
30.52000 408.146
30.56000 405.213
30.60000 396.239
30.64000 402.403
30.68000 402.129
30.72000 425.251
30.76000 423.584
30.80000 427.168
30.84000 444.039
30.88000 456.620
30.92000 457.458
30.96000 494.659
31.00000 530.358
31.04000 591.064
31.08000 697.076
31.12000 793.391
31.16000 971.636
31.20000 1168.141
31.24000 1397.149
31.28000 1614.131
31.32000 1804.235
31.36000 1928.990
31.40000 1915.514
31.44000 1904.745
31.48000 1720.790
31.52000 1551.242
31.56000 1306.034
31.60000 1092.816
31.64000 875.301
31.68000 745.748
31.72000 649.137
31.76000 586.742
31.80000 528.128
31.84000 491.770
31.88000 468.289
31.92000 472.552
31.96000 449.157
32.00000 417.425
32.04000 418.886
32.08000 405.417
32.12000 405.569
32.16000 394.676
32.20000 383.142
32.24000 394.950
32.28000 377.538
32.32000 379.838
32.36000 379.040
32.40000 375.599
32.44000 369.474
32.48000 384.698
32.52000 372.258
32.56000 355.275
32.60000 375.876
32.64000 357.041
32.68000 362.999
32.72000 342.379
32.76000 356.035
32.80000 370.298
32.84000 377.291
32.88000 375.095
32.92000 385.370
32.96000 371.868
33.00000 355.529
33.04000 372.345
33.08000 351.844
33.12000 340.144
33.16000 348.671
33.20000 339.916
33.24000 350.612
33.28000 342.127
33.32000 349.448
33.36000 326.862
33.40000 335.947
33.44000 345.122
33.48000 354.702
33.52000 334.215
33.56000 334.769
33.60000 328.044
33.64000 332.811
33.68000 327.682
33.72000 344.888
33.76000 330.811
33.80000 338.196
33.84000 339.797
33.88000 337.387
33.92000 328.975
33.96000 335.311
34.00000 307.799
34.04000 325.363
34.08000 321.726
34.12000 307.167
34.16000 327.410
34.20000 321.086
34.24000 336.017
34.28000 309.575
34.32000 329.192
34.36000 331.334
34.40000 322.597
34.44000 331.907
34.48000 325.456
34.52000 307.602
34.56000 323.016
34.60000 313.750
34.64000 316.434
34.68000 299.509
34.72000 335.751
34.76000 320.811
34.80000 310.442
34.84000 321.174
34.88000 316.037
34.92000 304.274
34.96000 317.698
35.00000 322.719
35.04000 331.718
35.08000 301.628
35.12000 323.140
35.16000 305.105
35.20000 305.307
35.24000 301.069
35.28000 309.860
35.32000 297.518
35.36000 304.986
35.40000 307.934
35.44000 296.825
35.48000 301.502
35.52000 307.219
35.56000 309.829
35.60000 303.674
35.64000 298.884
35.68000 313.198
35.72000 301.333
35.76000 313.299
35.80000 310.152
35.84000 312.376
35.88000 290.706
35.92000 298.052
35.96000 306.398
36.00000 303.837
36.04000 298.626
36.08000 297.145
36.12000 298.996
36.16000 286.040
36.20000 299.150
36.24000 290.987
36.28000 283.914
36.32000 301.120
36.36000 281.751
36.40000 295.458
36.44000 282.733
36.48000 288.500
36.52000 296.322
36.56000 297.865
36.60000 282.545
36.64000 292.525
36.68000 287.608
36.72000 291.512
36.76000 279.310
36.80000 310.810
36.84000 294.941
36.88000 296.762
36.92000 287.387
36.96000 294.907
37.00000 278.088
37.04000 290.913
37.08000 315.242
37.12000 272.877
37.16000 285.367
37.20000 274.416
37.24000 294.963
37.28000 287.399
37.32000 276.436
37.36000 281.646
37.40000 288.075
37.44000 271.225
37.48000 290.477
37.52000 287.333
37.56000 282.169
37.60000 294.389
37.64000 278.857
37.68000 284.028
37.72000 286.008
37.76000 290.366
37.80000 276.368
37.84000 279.407
37.88000 285.555
37.92000 267.664
37.96000 290.329
38.00000 292.891
38.04000 288.696
38.08000 287.651
38.12000 277.811
38.16000 282.597
38.20000 295.430
38.24000 299.536
38.28000 291.320
38.32000 303.272
38.36000 352.952
38.40000 375.619
38.44000 410.412
38.48000 419.875
38.52000 521.045
38.56000 541.921
38.60000 620.037
38.64000 686.440
38.68000 724.311
38.72000 735.524
38.76000 717.836
38.80000 663.404
38.84000 618.236
38.88000 561.106
38.92000 476.883
38.96000 424.678
39.00000 371.187
39.04000 333.151
39.08000 313.734
39.12000 298.493
39.16000 279.433
39.20000 287.365
39.24000 264.380
39.28000 282.115
39.32000 268.045
39.36000 257.122
39.40000 270.795
39.44000 267.782
39.48000 257.470
39.52000 268.121
39.56000 252.886
39.60000 271.630
39.64000 267.633
39.68000 255.926
39.72000 249.785
39.76000 270.189
39.80000 260.359
39.84000 250.012
39.88000 239.814
39.92000 243.430
39.96000 256.372
40.00000 266.139
40.04000 245.812
40.08000 233.594
40.12000 264.742
40.16000 253.146
40.20000 246.394
40.24000 247.527
40.28000 251.023
40.32000 247.891
40.36000 248.241
40.40000 255.473
40.44000 252.764
40.48000 249.372
40.52000 256.356
40.56000 254.253
40.60000 236.060
40.64000 245.020
40.68000 238.258
40.72000 246.275
40.76000 239.827
40.80000 242.916
40.84000 246.334
40.88000 241.217
40.92000 255.509
40.96000 237.243
41.00000 244.295
41.04000 235.932
41.08000 249.380
41.12000 250.535
41.16000 245.576
41.20000 248.574
41.24000 244.286
41.28000 239.535
41.32000 223.236
41.36000 239.411
41.40000 239.062
41.44000 256.028
41.48000 240.666
41.52000 224.303
41.56000 240.885
41.60000 230.101
41.64000 243.290
41.68000 235.342
41.72000 229.821
41.76000 245.014
41.80000 242.006
41.84000 251.466
41.88000 232.622
41.92000 228.076
41.96000 238.947
42.00000 244.858
42.04000 247.199
42.08000 247.773
42.12000 234.348
42.16000 233.815
42.20000 233.197
42.24000 218.385
42.28000 222.561
42.32000 234.739
42.36000 229.279
42.40000 241.069
42.44000 223.491
42.48000 235.165
42.52000 213.446
42.56000 232.978
42.60000 223.222
42.64000 228.375
42.68000 214.155
42.72000 224.302
42.76000 225.381
42.80000 222.490
42.84000 219.567
42.88000 219.444
42.92000 221.178
42.96000 240.530
43.00000 227.495
43.04000 226.642
43.08000 230.560
43.12000 233.064
43.16000 229.540
43.20000 211.828
43.24000 228.367
43.28000 228.729
43.32000 218.063
43.36000 225.559
43.40000 223.339
43.44000 226.398
43.48000 226.389
43.52000 207.400
43.56000 212.143
43.60000 224.603
43.64000 224.346
43.68000 222.986
43.72000 225.473
43.76000 216.111
43.80000 219.677
43.84000 211.881
43.88000 222.512
43.92000 206.034
43.96000 219.493
44.00000 220.997
44.04000 235.485
44.08000 222.102
44.12000 215.470
44.16000 217.439
44.20000 214.157
44.24000 223.772
44.28000 218.423
44.32000 217.215
44.36000 223.727
44.40000 223.674
44.44000 222.785
44.48000 219.546
44.52000 218.853
44.56000 239.278
44.60000 222.051
44.64000 235.291
44.68000 236.859
44.72000 242.368
44.76000 246.972
44.80000 252.242
44.84000 256.173
44.88000 278.124
44.92000 258.070
44.96000 280.664
45.00000 289.689
45.04000 287.796
45.08000 302.173
45.12000 301.189
45.16000 313.896
45.20000 301.213
45.24000 297.648
45.28000 278.970
45.32000 280.506
45.36000 293.733
45.40000 269.195
45.44000 275.684
45.48000 271.786
45.52000 261.351
45.56000 257.142
45.60000 245.213
45.64000 260.519
45.68000 232.543
45.72000 243.969
45.76000 234.174
45.80000 250.692
45.84000 236.789
45.88000 238.229
45.92000 238.760
45.96000 227.496
46.00000 235.768
46.04000 227.842
46.08000 223.888
46.12000 211.141
46.16000 212.212
46.20000 221.163
46.24000 211.288
46.28000 205.574
46.32000 197.391
46.36000 194.824
46.40000 195.880
46.44000 207.454
46.48000 198.572
46.52000 195.383
46.56000 202.425
46.60000 191.799
46.64000 193.274
46.68000 193.166
46.72000 188.552
46.76000 193.658
46.80000 202.761
46.84000 200.981
46.88000 203.224
46.92000 189.806
46.96000 193.003
47.00000 195.163
47.04000 193.577
47.08000 190.355
47.12000 184.015
47.16000 188.619
47.20000 195.514
47.24000 193.689
47.28000 195.724
47.32000 192.178
47.36000 197.450
47.40000 183.332
47.44000 182.305
47.48000 196.157
47.52000 186.625
47.56000 184.924
47.60000 182.355
47.64000 187.689
47.68000 181.797
47.72000 191.498
47.76000 184.425
47.80000 185.940
47.84000 170.970
47.88000 194.195
47.92000 174.768
47.96000 172.802
48.00000 187.420
48.04000 178.514
48.08000 175.168
48.12000 189.323
48.16000 185.952
48.20000 180.515
48.24000 189.817
48.28000 176.396
48.32000 179.425
48.36000 181.817
48.40000 179.053
48.44000 187.851
48.48000 186.333
48.52000 179.425
48.56000 181.553
48.60000 186.761
48.64000 187.624
48.68000 179.489
48.72000 178.533
48.76000 171.722
48.80000 175.336
48.84000 190.370
48.88000 181.604
48.92000 171.889
48.96000 177.839
49.00000 171.685
49.04000 179.871
49.08000 173.982
49.12000 185.567
49.16000 181.560
49.20000 166.175
49.24000 168.649
49.28000 177.499
49.32000 178.496
49.36000 169.984
49.40000 172.643
49.44000 172.379
49.48000 175.639
49.52000 179.562
49.56000 174.940
49.60000 175.224
49.64000 175.312
49.68000 175.770
49.72000 174.709
49.76000 180.469
49.80000 182.039
49.84000 176.113
49.88000 174.502
49.92000 171.079
49.96000 159.835
50.00000 173.305
50.04000 179.982
50.08000 174.726
50.12000 180.441
50.16000 177.778
50.20000 169.856
50.24000 168.736
50.28000 175.268
50.32000 178.108
50.36000 192.277
50.40000 190.825
50.44000 203.267
50.48000 206.774
50.52000 218.713
50.56000 210.139
50.60000 226.578
50.64000 205.119
50.68000 211.211
50.72000 217.056
50.76000 217.014
50.80000 207.349
50.84000 206.353
50.88000 202.617
50.92000 206.733
50.96000 193.807
51.00000 191.250
51.04000 184.499
51.08000 188.390
51.12000 172.685
51.16000 171.187
51.20000 177.901
51.24000 173.097
51.28000 187.131
51.32000 175.586
51.36000 179.083
51.40000 171.839
51.44000 170.701
51.48000 168.051
51.52000 168.028
51.56000 166.161
51.60000 171.849
51.64000 169.221
51.68000 160.230
51.72000 165.541
51.76000 166.356
51.80000 169.198
51.84000 157.538
51.88000 153.074
51.92000 167.230
51.96000 161.831
52.00000 155.401
52.04000 157.286
52.08000 165.465
52.12000 162.964
52.16000 167.332
52.20000 146.752
52.24000 145.017
52.28000 171.325
52.32000 159.724
52.36000 163.165
52.40000 154.780
52.44000 148.334
52.48000 157.498
52.52000 146.590
52.56000 162.101
52.60000 156.590
52.64000 155.587
52.68000 158.073
52.72000 154.892
52.76000 155.384
52.80000 157.289
52.84000 144.771
52.88000 145.488
52.92000 160.662
52.96000 144.821
53.00000 157.203
53.04000 157.476
53.08000 159.225
53.12000 147.399
53.16000 157.463
53.20000 154.903
53.24000 152.801
53.28000 147.460
53.32000 151.526
53.36000 151.071
53.40000 151.654
53.44000 151.293
53.48000 162.317
53.52000 145.351
53.56000 155.180
53.60000 150.080
53.64000 148.329
53.68000 156.136
53.72000 156.330
53.76000 159.329
53.80000 151.479
53.84000 157.600
53.88000 153.737
53.92000 148.942
53.96000 139.058
54.00000 150.946
54.04000 150.040
54.08000 158.295
54.12000 148.797
54.16000 152.892
54.20000 164.589
54.24000 151.179
54.28000 154.397
54.32000 157.356
54.36000 151.225
54.40000 146.217
54.44000 152.253
54.48000 159.069
54.52000 147.974
54.56000 149.310
54.60000 153.677
54.64000 161.660
54.68000 139.558
54.72000 145.842
54.76000 155.309
54.80000 148.603
54.84000 154.338
54.88000 149.069
54.92000 146.070
54.96000 150.884
55.00000 156.115
55.04000 148.663
55.08000 160.209
55.12000 158.362
55.16000 155.321
55.20000 160.174
55.24000 164.766
55.28000 160.463
55.32000 163.497
55.36000 179.178
55.40000 171.732
55.44000 177.713
55.48000 172.313
55.52000 188.255
55.56000 203.482
55.60000 226.204
55.64000 256.896
55.68000 281.666
55.72000 320.247
55.76000 346.182
55.80000 384.735
55.84000 441.446
55.88000 434.240
55.92000 427.516
55.96000 442.361
56.00000 435.224
56.04000 393.486
56.08000 367.922
56.12000 348.163
56.16000 323.042
56.20000 295.750
56.24000 274.570
56.28000 249.641
56.32000 217.499
56.36000 208.955
56.40000 194.435
56.44000 191.112
56.48000 193.237
56.52000 170.830
56.56000 166.465
56.60000 170.560
56.64000 157.688
56.68000 155.961
56.72000 154.948
56.76000 156.725
56.80000 146.035
56.84000 147.400
56.88000 156.720
56.92000 149.935
56.96000 145.023
57.00000 143.302
57.04000 150.799
57.08000 141.886
57.12000 153.014
57.16000 139.584
57.20000 144.608
57.24000 144.498
57.28000 137.722
57.32000 148.335
57.36000 140.994
57.40000 150.808
57.44000 145.908
57.48000 132.885
57.52000 126.977
57.56000 131.623
57.60000 142.969
57.64000 146.706
57.68000 142.980
57.72000 139.610
57.76000 138.729
57.80000 135.702
57.84000 137.022
57.88000 136.966
57.92000 137.515
57.96000 134.160
58.00000 144.794
58.04000 142.728
58.08000 134.202
58.12000 137.760
58.16000 133.027
58.20000 130.282
58.24000 141.903
58.28000 135.225
58.32000 141.100
58.36000 149.754
58.40000 133.223
58.44000 141.803
58.48000 133.662
58.52000 129.733
58.56000 137.498
58.60000 135.798
58.64000 139.113
58.68000 134.381
58.72000 142.796
58.76000 140.477
58.80000 134.317
58.84000 136.645
58.88000 138.799
58.92000 138.124
58.96000 125.243
59.00000 136.741
59.04000 135.908
59.08000 126.549
59.12000 131.217
59.16000 144.529
59.20000 137.022
59.24000 124.947
59.28000 125.040
59.32000 128.452
59.36000 135.680
59.40000 132.271
59.44000 132.300
59.48000 127.978
59.52000 129.469
59.56000 137.754
59.60000 136.047
59.64000 136.705
59.68000 143.296
59.72000 134.930
59.76000 138.260
59.80000 137.425
59.84000 133.426
59.88000 126.588
59.92000 133.994
59.96000 134.360
60.00000 131.566
60.04000 131.766
60.08000 129.499
60.12000 135.019
60.16000 131.995
60.20000 134.996
60.24000 133.202
60.28000 132.284
60.32000 137.268
60.36000 132.558
60.40000 129.373
60.44000 127.254
60.48000 132.963
60.52000 134.130
60.56000 138.389
60.60000 132.735
60.64000 135.424
60.68000 132.409
60.72000 131.142
60.76000 126.128
60.80000 139.596
60.84000 145.953
60.88000 129.784
60.92000 135.835
60.96000 134.734
61.00000 125.013
61.04000 133.938
61.08000 134.297
61.12000 132.519
61.16000 135.904
61.20000 137.585
61.24000 142.456
61.28000 131.392
61.32000 132.458
61.36000 133.452
61.40000 137.472
61.44000 143.949
61.48000 145.665
61.52000 155.990
61.56000 197.675
61.60000 246.871
61.64000 260.830
61.68000 270.145
61.72000 276.835
61.76000 266.556
61.80000 218.083
61.84000 161.073
61.88000 140.804
61.92000 140.990
61.96000 134.031
62.00000 140.325
62.04000 150.365
62.08000 133.450
62.12000 140.493
62.16000 134.610
62.20000 138.404
62.24000 134.825
62.28000 140.678
62.32000 148.990
62.36000 140.199
62.40000 129.720
62.44000 145.385
62.48000 145.315
62.52000 141.048
62.56000 143.614
62.60000 134.388
62.64000 136.199
62.68000 139.369
62.72000 146.373
62.76000 148.496
62.80000 152.247
62.84000 153.208
62.88000 153.597
62.92000 139.820
62.96000 138.869
63.00000 154.256
63.04000 138.364
63.08000 140.295
63.12000 153.613
63.16000 152.444
63.20000 146.866
63.24000 152.985
63.28000 151.412
63.32000 143.275
63.36000 145.640
63.40000 155.691
63.44000 140.920
63.48000 144.971
63.52000 148.967
63.56000 146.317
63.60000 142.809
63.64000 151.272
63.68000 149.023
63.72000 146.010
63.76000 156.121
63.80000 158.153
63.84000 158.889
63.88000 152.088
63.92000 144.384
63.96000 154.830
64.00000 163.429
64.04000 158.997
64.08000 152.731
64.12000 165.998
64.16000 156.146
64.20000 162.745
64.24000 157.890
64.28000 163.105
64.32000 153.363
64.36000 161.269
64.40000 162.323
64.44000 154.019
64.48000 154.554
64.52000 174.012
64.56000 165.713
64.60000 169.719
64.64000 175.362
64.68000 170.801
64.72000 180.742
64.76000 179.304
64.80000 176.971
64.84000 178.082
64.88000 184.432
64.92000 174.586
64.96000 171.372
65.00000 182.106
65.04000 200.204
65.08000 203.800
65.12000 200.932
65.16000 219.463
65.20000 224.669
65.24000 232.436
65.28000 236.885
65.32000 242.403
65.36000 249.768
65.40000 272.153
65.44000 281.507
65.48000 306.170
65.52000 314.673
65.56000 309.075
65.60000 323.006
65.64000 364.605
65.68000 444.317
65.72000 615.556
65.76000 845.779
65.80000 1007.401
65.84000 1134.712
65.88000 1173.601
65.92000 1087.227
65.96000 925.735
66.00000 688.519
66.04000 486.856
66.08000 371.768
66.12000 330.459
66.16000 316.165
66.20000 323.624
66.24000 325.947
66.28000 363.928
66.32000 406.819
66.36000 440.166
66.40000 467.002
66.44000 459.359
66.48000 459.777
66.52000 420.069
66.56000 386.050
66.60000 337.690
66.64000 330.678
66.68000 319.987
66.72000 317.435
66.76000 324.768
66.80000 328.016
66.84000 345.264
66.88000 342.228
66.92000 337.858
66.96000 338.864
67.00000 346.009
67.04000 363.306
67.08000 357.932
67.12000 380.757
67.16000 387.283
67.20000 388.628
67.24000 386.467
67.28000 397.344
67.32000 391.080
67.36000 423.701
67.40000 415.725
67.44000 417.445
67.48000 429.641
67.52000 434.157
67.56000 441.799
67.60000 434.614
67.64000 433.972
67.68000 446.649
67.72000 465.417
67.76000 479.961
67.80000 483.853
67.84000 502.312
67.88000 520.599
67.92000 521.179
67.96000 537.507
68.00000 536.046
68.04000 542.002
68.08000 579.583
68.12000 582.108
68.16000 586.839
68.20000 617.347
68.24000 615.342
68.28000 662.244
68.32000 664.555
68.36000 679.632
68.40000 713.909
68.44000 724.193
68.48000 764.294
68.52000 832.373
68.56000 870.400
68.60000 994.430
68.64000 1137.259
68.68000 1356.460
68.72000 1574.446
68.76000 1833.827
68.80000 2075.469
68.84000 2428.929
68.88000 3082.381
68.92000 5117.664
68.96000 13125.327
69.00000 29584.705
69.04000 47111.184
69.08000 55966.785
69.12000 57920.871
69.16000 60263.336
69.20000 60738.707
69.24000 49959.051
69.28000 38323.512
69.32000 31376.424
69.36000 28193.715
69.40000 23338.791
69.44000 14150.723
69.48000 6725.046
69.52000 2997.169
69.56000 1919.967
69.60000 1513.879
69.64000 1277.159
69.68000 1140.687
69.72000 1015.312
69.76000 929.504
69.80000 863.327
69.84000 822.221
69.88000 761.093
69.92000 718.594
69.96000 704.481
70.00000 692.976