File: XRD/XRD/25-09-2025/XY Data/BTO_Mapping_Theta2Theta_25-09-2025_001_31_-19-563_4-158.xy
20.00000 560.279
20.04000 557.010
20.08000 551.766
20.12000 562.465
20.16000 556.907
20.20000 580.262
20.24000 555.708
20.28000 559.322
20.32000 541.334
20.36000 547.110
20.40000 560.892
20.44000 555.198
20.48000 572.855
20.52000 568.888
20.56000 536.290
20.60000 553.291
20.64000 569.117
20.68000 564.435
20.72000 552.402
20.76000 552.811
20.80000 562.090
20.84000 534.793
20.88000 566.076
20.92000 541.431
20.96000 543.972
21.00000 538.972
21.04000 542.067
21.08000 539.706
21.12000 569.493
21.16000 543.167
21.20000 560.449
21.24000 533.245
21.28000 532.314
21.32000 526.114
21.36000 554.037
21.40000 544.196
21.44000 559.129
21.48000 531.316
21.52000 540.849
21.56000 528.948
21.60000 554.394
21.64000 552.072
21.68000 563.348
21.72000 564.433
21.76000 615.806
21.80000 606.215
21.84000 652.267
21.88000 683.673
21.92000 716.546
21.96000 742.779
22.00000 762.017
22.04000 779.216
22.08000 774.177
22.12000 747.215
22.16000 739.553
22.20000 705.683
22.24000 664.226
22.28000 656.814
22.32000 617.731
22.36000 609.390
22.40000 611.327
22.44000 581.876
22.48000 557.653
22.52000 550.224
22.56000 543.477
22.60000 522.729
22.64000 518.162
22.68000 532.397
22.72000 537.332
22.76000 508.785
22.80000 516.507
22.84000 520.609
22.88000 516.058
22.92000 495.844
22.96000 500.366
23.00000 489.299
23.04000 519.659
23.08000 521.616
23.12000 487.102
23.16000 525.106
23.20000 493.163
23.24000 506.289
23.28000 499.852
23.32000 494.356
23.36000 498.445
23.40000 479.399
23.44000 490.563
23.48000 506.365
23.52000 490.673
23.56000 502.849
23.60000 515.593
23.64000 483.126
23.68000 500.732
23.72000 494.080
23.76000 494.651
23.80000 493.290
23.84000 478.091
23.88000 502.613
23.92000 495.148
23.96000 475.628
24.00000 484.033
24.04000 510.893
24.08000 470.534
24.12000 510.495
24.16000 501.889
24.20000 486.607
24.24000 478.542
24.28000 492.923
24.32000 477.995
24.36000 480.334
24.40000 494.979
24.44000 478.554
24.48000 478.996
24.52000 486.066
24.56000 481.148
24.60000 462.710
24.64000 477.142
24.68000 498.920
24.72000 463.151
24.76000 482.012
24.80000 475.755
24.84000 474.564
24.88000 466.970
24.92000 473.735
24.96000 466.949
25.00000 491.992
25.04000 484.605
25.08000 481.454
25.12000 472.953
25.16000 470.859
25.20000 471.453
25.24000 464.559
25.28000 461.654
25.32000 461.929
25.36000 463.280
25.40000 456.598
25.44000 464.175
25.48000 465.757
25.52000 463.914
25.56000 471.826
25.60000 468.382
25.64000 448.861
25.68000 438.113
25.72000 457.532
25.76000 461.383
25.80000 449.987
25.84000 449.090
25.88000 454.437
25.92000 473.294
25.96000 445.575
26.00000 461.048
26.04000 451.856
26.08000 452.847
26.12000 434.977
26.16000 458.391
26.20000 455.760
26.24000 456.559
26.28000 455.822
26.32000 441.853
26.36000 452.225
26.40000 454.562
26.44000 453.695
26.48000 447.407
26.52000 444.784
26.56000 448.464
26.60000 450.820
26.64000 424.405
26.68000 446.953
26.72000 426.824
26.76000 440.654
26.80000 436.094
26.84000 425.607
26.88000 426.721
26.92000 453.501
26.96000 450.842
27.00000 411.977
27.04000 415.419
27.08000 423.756
27.12000 438.901
27.16000 445.870
27.20000 438.276
27.24000 433.940
27.28000 429.352
27.32000 420.062
27.36000 427.102
27.40000 431.007
27.44000 449.962
27.48000 438.857
27.52000 442.628
27.56000 439.309
27.60000 423.243
27.64000 416.612
27.68000 441.585
27.72000 436.670
27.76000 420.224
27.80000 413.244
27.84000 421.868
27.88000 433.028
27.92000 431.372
27.96000 411.793
28.00000 432.465
28.04000 420.730
28.08000 410.271
28.12000 414.047
28.16000 422.977
28.20000 429.806
28.24000 424.424
28.28000 416.093
28.32000 425.725
28.36000 440.432
28.40000 429.410
28.44000 412.701
28.48000 417.944
28.52000 410.854
28.56000 419.976
28.60000 415.237
28.64000 406.133
28.68000 405.351
28.72000 405.536
28.76000 403.936
28.80000 398.569
28.84000 415.245
28.88000 412.263
28.92000 400.621
28.96000 401.127
29.00000 409.016
29.04000 414.538
29.08000 398.351
29.12000 400.951
29.16000 399.399
29.20000 406.253
29.24000 384.698
29.28000 398.653
29.32000 419.104
29.36000 420.033
29.40000 401.085
29.44000 400.506
29.48000 410.094
29.52000 413.184
29.56000 408.349
29.60000 399.840
29.64000 412.402
29.68000 411.629
29.72000 412.577
29.76000 414.965
29.80000 406.767
29.84000 410.549
29.88000 413.238
29.92000 413.271
29.96000 418.244
30.00000 423.665
30.04000 400.260
30.08000 417.121
30.12000 409.745
30.16000 427.063
30.20000 413.434
30.24000 404.083
30.28000 412.097
30.32000 410.330
30.36000 405.898
30.40000 407.939
30.44000 410.785
30.48000 406.449
30.52000 426.914
30.56000 410.508
30.60000 401.400
30.64000 425.139
30.68000 444.465
30.72000 420.186
30.76000 426.267
30.80000 435.798
30.84000 449.026
30.88000 481.342
30.92000 479.911
30.96000 536.537
31.00000 568.531
31.04000 678.270
31.08000 800.252
31.12000 968.311
31.16000 1180.921
31.20000 1436.769
31.24000 1676.820
31.28000 1918.604
31.32000 2104.553
31.36000 2197.396
31.40000 2209.177
31.44000 2072.712
31.48000 1879.612
31.52000 1637.378
31.56000 1395.072
31.60000 1228.266
31.64000 974.459
31.68000 817.252
31.72000 719.239
31.76000 635.375
31.80000 545.966
31.84000 520.291
31.88000 487.399
31.92000 467.158
31.96000 441.219
32.00000 409.041
32.04000 406.815
32.08000 412.671
32.12000 405.639
32.16000 393.984
32.20000 399.629
32.24000 390.874
32.28000 380.125
32.32000 386.588
32.36000 376.952
32.40000 363.152
32.44000 373.194
32.48000 369.401
32.52000 374.095
32.56000 363.963
32.60000 360.742
32.64000 369.873
32.68000 356.713
32.72000 356.459
32.76000 387.175
32.80000 371.820
32.84000 378.262
32.88000 389.181
32.92000 392.371
32.96000 392.922
33.00000 378.091
33.04000 375.998
33.08000 357.477
33.12000 348.548
33.16000 353.482
33.20000 355.630
33.24000 345.671
33.28000 334.901
33.32000 341.641
33.36000 347.439
33.40000 341.186
33.44000 343.645
33.48000 318.768
33.52000 351.634
33.56000 345.734
33.60000 332.296
33.64000 334.998
33.68000 336.355
33.72000 340.980
33.76000 316.967
33.80000 342.222
33.84000 333.317
33.88000 336.867
33.92000 321.464
33.96000 338.369
34.00000 315.488
34.04000 330.129
34.08000 326.626
34.12000 321.766
34.16000 325.097
34.20000 306.665
34.24000 319.597
34.28000 315.619
34.32000 324.948
34.36000 319.466
34.40000 326.174
34.44000 318.853
34.48000 326.926
34.52000 319.122
34.56000 328.772
34.60000 328.968
34.64000 324.448
34.68000 304.206
34.72000 310.883
34.76000 316.021
34.80000 312.836
34.84000 315.992
34.88000 318.065
34.92000 312.584
34.96000 309.445
35.00000 317.265
35.04000 316.385
35.08000 312.558
35.12000 334.545
35.16000 309.356
35.20000 304.847
35.24000 309.877
35.28000 306.956
35.32000 298.239
35.36000 314.290
35.40000 305.170
35.44000 307.186
35.48000 321.949
35.52000 308.562
35.56000 313.120
35.60000 307.240
35.64000 302.646
35.68000 297.196
35.72000 295.641
35.76000 298.265
35.80000 315.625
35.84000 309.488
35.88000 312.044
35.92000 290.756
35.96000 310.883
36.00000 300.656
36.04000 307.566
36.08000 287.050
36.12000 293.385
36.16000 286.428
36.20000 295.384
36.24000 286.307
36.28000 295.984
36.32000 298.372
36.36000 305.115
36.40000 294.651
36.44000 308.245
36.48000 299.384
36.52000 295.376
36.56000 294.351
36.60000 287.764
36.64000 292.312
36.68000 297.480
36.72000 279.484
36.76000 284.279
36.80000 286.527
36.84000 290.713
36.88000 289.969
36.92000 302.666
36.96000 284.737
37.00000 289.282
37.04000 287.755
37.08000 280.164
37.12000 297.104
37.16000 286.429
37.20000 277.833
37.24000 292.927
37.28000 267.554
37.32000 274.160
37.36000 281.478
37.40000 291.886
37.44000 281.783
37.48000 281.874
37.52000 289.077
37.56000 284.067
37.60000 262.126
37.64000 294.248
37.68000 288.622
37.72000 284.648
37.76000 282.818
37.80000 286.096
37.84000 287.977
37.88000 278.715
37.92000 273.976
37.96000 291.476
38.00000 273.663
38.04000 293.701
38.08000 277.300
38.12000 293.304
38.16000 291.543
38.20000 289.578
38.24000 312.245
38.28000 292.109
38.32000 322.872
38.36000 339.602
38.40000 358.894
38.44000 399.858
38.48000 416.035
38.52000 467.113
38.56000 495.874
38.60000 550.005
38.64000 587.742
38.68000 574.236
38.72000 570.887
38.76000 572.546
38.80000 532.829
38.84000 490.761
38.88000 450.031
38.92000 413.374
38.96000 378.692
39.00000 331.208
39.04000 313.207
39.08000 301.560
39.12000 295.739
39.16000 274.395
39.20000 285.160
39.24000 278.151
39.28000 268.534
39.32000 261.479
39.36000 268.806
39.40000 279.254
39.44000 274.693
39.48000 267.150
39.52000 259.733
39.56000 268.110
39.60000 250.119
39.64000 272.865
39.68000 264.371
39.72000 257.644
39.76000 258.365
39.80000 256.507
39.84000 259.821
39.88000 268.008
39.92000 257.547
39.96000 275.464
40.00000 252.334
40.04000 267.595
40.08000 262.076
40.12000 254.528
40.16000 254.586
40.20000 258.515
40.24000 258.861
40.28000 254.013
40.32000 261.042
40.36000 257.961
40.40000 258.506
40.44000 239.197
40.48000 253.252
40.52000 243.868
40.56000 253.609
40.60000 238.002
40.64000 245.626
40.68000 241.222
40.72000 254.804
40.76000 248.560
40.80000 242.741
40.84000 254.510
40.88000 235.099
40.92000 242.647
40.96000 247.591
41.00000 248.659
41.04000 229.073
41.08000 237.244
41.12000 238.429
41.16000 242.400
41.20000 251.487
41.24000 229.799
41.28000 236.836
41.32000 235.769
41.36000 239.753
41.40000 250.566
41.44000 245.609
41.48000 241.235
41.52000 239.293
41.56000 241.932
41.60000 252.913
41.64000 241.945
41.68000 243.552
41.72000 245.407
41.76000 242.601
41.80000 239.734
41.84000 239.012
41.88000 240.217
41.92000 235.026
41.96000 233.581
42.00000 229.643
42.04000 237.325
42.08000 228.033
42.12000 226.366
42.16000 228.476
42.20000 228.878
42.24000 231.342
42.28000 223.421
42.32000 223.926
42.36000 241.010
42.40000 245.600
42.44000 225.613
42.48000 228.425
42.52000 233.224
42.56000 223.760
42.60000 220.121
42.64000 235.535
42.68000 239.669
42.72000 228.624
42.76000 234.940
42.80000 237.877
42.84000 225.581
42.88000 227.286
42.92000 223.049
42.96000 226.080
43.00000 228.952
43.04000 228.758
43.08000 225.951
43.12000 204.261
43.16000 223.940
43.20000 221.420
43.24000 221.784
43.28000 220.464
43.32000 214.331
43.36000 235.328
43.40000 236.919
43.44000 223.035
43.48000 221.630
43.52000 209.035
43.56000 220.635
43.60000 216.124
43.64000 226.097
43.68000 222.150
43.72000 212.203
43.76000 225.042
43.80000 222.213
43.84000 214.479
43.88000 224.598
43.92000 217.381
43.96000 217.443
44.00000 224.158
44.04000 211.189
44.08000 233.340
44.12000 213.750
44.16000 229.806
44.20000 227.435
44.24000 213.537
44.28000 237.093
44.32000 237.463
44.36000 216.847
44.40000 215.917
44.44000 221.994
44.48000 224.905
44.52000 243.042
44.56000 247.169
44.60000 251.070
44.64000 261.408
44.68000 259.750
44.72000 277.920
44.76000 298.091
44.80000 305.569
44.84000 334.003
44.88000 342.197
44.92000 364.773
44.96000 372.381
45.00000 392.065
45.04000 380.080
45.08000 362.907
45.12000 363.818
45.16000 365.602
45.20000 338.625
45.24000 336.786
45.28000 335.839
45.32000 320.282
45.36000 297.213
45.40000 300.139
45.44000 272.350
45.48000 274.989
45.52000 277.038
45.56000 277.683
45.60000 265.571
45.64000 249.499
45.68000 257.835
45.72000 257.367
45.76000 247.100
45.80000 240.499
45.84000 237.108
45.88000 238.195
45.92000 217.842
45.96000 231.035
46.00000 223.781
46.04000 216.060
46.08000 205.053
46.12000 221.728
46.16000 213.519
46.20000 215.118
46.24000 205.990
46.28000 206.656
46.32000 199.991
46.36000 204.113
46.40000 193.970
46.44000 206.812
46.48000 196.296
46.52000 205.056
46.56000 195.752
46.60000 204.722
46.64000 197.094
46.68000 202.523
46.72000 188.754
46.76000 199.798
46.80000 197.473
46.84000 195.548
46.88000 185.956
46.92000 188.340
46.96000 200.271
47.00000 185.232
47.04000 197.453
47.08000 198.503
47.12000 190.859
47.16000 196.727
47.20000 193.911
47.24000 189.417
47.28000 189.967
47.32000 199.620
47.36000 182.585
47.40000 186.931
47.44000 185.095
47.48000 185.379
47.52000 175.383
47.56000 184.207
47.60000 187.197
47.64000 174.657
47.68000 174.353
47.72000 184.584
47.76000 196.036
47.80000 190.773
47.84000 181.688
47.88000 187.103
47.92000 188.000
47.96000 190.058
48.00000 175.347
48.04000 185.472
48.08000 188.987
48.12000 191.649
48.16000 190.028
48.20000 178.153
48.24000 180.238
48.28000 184.246
48.32000 181.365
48.36000 184.594
48.40000 182.812
48.44000 171.071
48.48000 182.440
48.52000 189.728
48.56000 180.982
48.60000 175.101
48.64000 191.303
48.68000 179.289
48.72000 184.518
48.76000 174.982
48.80000 173.385
48.84000 178.959
48.88000 183.660
48.92000 173.883
48.96000 181.062
49.00000 186.784
49.04000 173.494
49.08000 183.677
49.12000 173.338
49.16000 178.761
49.20000 169.894
49.24000 173.414
49.28000 171.848
49.32000 177.300
49.36000 175.838
49.40000 171.487
49.44000 179.204
49.48000 183.149
49.52000 172.343
49.56000 177.525
49.60000 164.932
49.64000 183.943
49.68000 166.792
49.72000 170.620
49.76000 177.340
49.80000 169.462
49.84000 176.184
49.88000 184.161
49.92000 158.492
49.96000 173.392
50.00000 167.376
50.04000 182.684
50.08000 169.503
50.12000 176.595
50.16000 180.860
50.20000 178.635
50.24000 192.180
50.28000 189.516
50.32000 204.133
50.36000 198.266
50.40000 194.044
50.44000 201.265
50.48000 199.032
50.52000 208.142
50.56000 216.411
50.60000 226.152
50.64000 229.608
50.68000 235.164
50.72000 229.613
50.76000 228.312
50.80000 204.581
50.84000 204.600
50.88000 204.851
50.92000 202.755
50.96000 198.816
51.00000 190.151
51.04000 187.615
51.08000 184.590
51.12000 188.525
51.16000 178.491
51.20000 168.264
51.24000 177.161
51.28000 167.496
51.32000 176.545
51.36000 176.457
51.40000 166.364
51.44000 176.043
51.48000 168.784
51.52000 168.339
51.56000 161.521
51.60000 178.485
51.64000 169.445
51.68000 165.888
51.72000 163.140
51.76000 162.667
51.80000 178.284
51.84000 158.070
51.88000 158.385
51.92000 159.846
51.96000 157.247
52.00000 161.848
52.04000 161.555
52.08000 159.373
52.12000 173.764
52.16000 156.523
52.20000 163.037
52.24000 159.404
52.28000 152.112
52.32000 173.645
52.36000 163.652
52.40000 163.354
52.44000 168.485
52.48000 154.960
52.52000 163.402
52.56000 157.515
52.60000 155.283
52.64000 156.700
52.68000 159.699
52.72000 149.506
52.76000 152.989
52.80000 147.612
52.84000 151.367
52.88000 152.167
52.92000 158.106
52.96000 170.402
53.00000 153.914
53.04000 148.436
53.08000 155.775
53.12000 151.647
53.16000 160.272
53.20000 153.577
53.24000 169.568
53.28000 162.144
53.32000 143.470
53.36000 161.011
53.40000 162.374
53.44000 170.287
53.48000 154.478
53.52000 147.129
53.56000 154.018
53.60000 156.480
53.64000 156.185
53.68000 153.374
53.72000 150.642
53.76000 145.345
53.80000 138.715
53.84000 157.173
53.88000 158.823
53.92000 145.834
53.96000 140.244
54.00000 146.722
54.04000 161.695
54.08000 156.207
54.12000 147.355
54.16000 153.977
54.20000 142.599
54.24000 149.069
54.28000 165.353
54.32000 160.938
54.36000 152.419
54.40000 159.928
54.44000 151.247
54.48000 142.398
54.52000 153.446
54.56000 151.435
54.60000 146.764
54.64000 147.741
54.68000 147.817
54.72000 149.256
54.76000 155.824
54.80000 156.885
54.84000 152.331
54.88000 154.446
54.92000 143.914
54.96000 152.841
55.00000 152.939
55.04000 151.623
55.08000 152.920
55.12000 149.608
55.16000 152.715
55.20000 155.238
55.24000 163.833
55.28000 168.424
55.32000 169.717
55.36000 165.858
55.40000 183.116
55.44000 195.067
55.48000 201.763
55.52000 212.865
55.56000 237.381
55.60000 241.778
55.64000 273.458
55.68000 301.893
55.72000 330.812
55.76000 353.030
55.80000 377.454
55.84000 386.617
55.88000 410.413
55.92000 408.616
55.96000 389.873
56.00000 387.945
56.04000 361.758
56.08000 340.645
56.12000 311.182
56.16000 298.101
56.20000 258.488
56.24000 249.824
56.28000 223.933
56.32000 205.348
56.36000 220.728
56.40000 193.246
56.44000 177.041
56.48000 173.874
56.52000 175.676
56.56000 165.999
56.60000 155.401
56.64000 160.122
56.68000 163.798
56.72000 154.988
56.76000 161.000
56.80000 164.164
56.84000 148.202
56.88000 143.892
56.92000 147.859
56.96000 152.820
57.00000 139.837
57.04000 132.582
57.08000 130.751
57.12000 142.781
57.16000 141.189
57.20000 136.074
57.24000 142.166
57.28000 140.225
57.32000 135.219
57.36000 143.575
57.40000 139.590
57.44000 131.672
57.48000 138.502
57.52000 126.011
57.56000 131.804
57.60000 132.751
57.64000 137.485
57.68000 120.962
57.72000 125.382
57.76000 151.562
57.80000 131.252
57.84000 139.493
57.88000 139.837
57.92000 143.308
57.96000 143.193
58.00000 137.135
58.04000 148.010
58.08000 133.522
58.12000 132.979
58.16000 144.888
58.20000 137.556
58.24000 132.932
58.28000 144.291
58.32000 144.376
58.36000 142.399
58.40000 145.182
58.44000 133.621
58.48000 140.466
58.52000 129.340
58.56000 135.592
58.60000 143.640
58.64000 130.362
58.68000 144.399
58.72000 139.351
58.76000 135.177
58.80000 130.344
58.84000 131.737
58.88000 130.030
58.92000 137.148
58.96000 129.389
59.00000 131.375
59.04000 148.545
59.08000 129.059
59.12000 139.672
59.16000 120.640
59.20000 129.178
59.24000 137.370
59.28000 134.710
59.32000 139.207
59.36000 139.541
59.40000 132.348
59.44000 132.972
59.48000 133.512
59.52000 136.057
59.56000 138.385
59.60000 128.652
59.64000 125.393
59.68000 123.626
59.72000 133.666
59.76000 125.008
59.80000 140.792
59.84000 132.513
59.88000 133.687
59.92000 138.844
59.96000 142.367
60.00000 131.257
60.04000 132.886
60.08000 133.720
60.12000 130.727
60.16000 131.141
60.20000 141.271
60.24000 137.299
60.28000 135.250
60.32000 133.292
60.36000 138.462
60.40000 137.891
60.44000 132.049
60.48000 140.646
60.52000 139.230
60.56000 133.028
60.60000 135.813
60.64000 129.591
60.68000 135.485
60.72000 120.244
60.76000 139.060
60.80000 137.533
60.84000 139.923
60.88000 127.724
60.92000 148.015
60.96000 134.267
61.00000 135.153
61.04000 134.499
61.08000 132.177
61.12000 129.366
61.16000 136.942
61.20000 133.604
61.24000 137.616
61.28000 138.536
61.32000 126.177
61.36000 136.378
61.40000 140.542
61.44000 149.484
61.48000 155.593
61.52000 167.627
61.56000 221.283
61.60000 260.204
61.64000 292.033
61.68000 298.733
61.72000 306.700
61.76000 274.845
61.80000 223.332
61.84000 193.426
61.88000 156.348
61.92000 154.679
61.96000 145.827
62.00000 143.311
62.04000 139.418
62.08000 147.902
62.12000 146.244
62.16000 145.529
62.20000 130.658
62.24000 145.500
62.28000 141.494
62.32000 149.145
62.36000 141.620
62.40000 130.156
62.44000 142.432
62.48000 141.040
62.52000 138.077
62.56000 151.044
62.60000 150.891
62.64000 145.791
62.68000 140.199
62.72000 149.201
62.76000 145.751
62.80000 134.471
62.84000 146.590
62.88000 147.067
62.92000 143.771
62.96000 150.032
63.00000 152.986
63.04000 143.208
63.08000 155.558
63.12000 152.497
63.16000 147.121
63.20000 141.196
63.24000 148.346
63.28000 152.177
63.32000 146.578
63.36000 145.142
63.40000 155.617
63.44000 147.301
63.48000 138.065
63.52000 163.135
63.56000 151.363
63.60000 140.047
63.64000 137.109
63.68000 150.493
63.72000 143.353
63.76000 141.009
63.80000 149.876
63.84000 151.221
63.88000 159.127
63.92000 150.053
63.96000 150.699
64.00000 155.051
64.04000 161.224
64.08000 156.948
64.12000 160.281
64.16000 166.281
64.20000 171.084
64.24000 158.117
64.28000 158.581
64.32000 158.876
64.36000 158.609
64.40000 157.577
64.44000 170.238
64.48000 167.672
64.52000 178.625
64.56000 173.674
64.60000 177.244
64.64000 185.183
64.68000 170.501
64.72000 171.081
64.76000 170.461
64.80000 184.146
64.84000 185.677
64.88000 184.352
64.92000 186.450
64.96000 205.448
65.00000 201.159
65.04000 210.476
65.08000 215.181
65.12000 226.647
65.16000 233.808
65.20000 245.301
65.24000 236.459
65.28000 261.358
65.32000 267.066
65.36000 264.641
65.40000 300.534
65.44000 303.145
65.48000 300.699
65.52000 327.571
65.56000 341.296
65.60000 368.767
65.64000 393.687
65.68000 473.120
65.72000 662.351
65.76000 934.157
65.80000 1132.725
65.84000 1264.468
65.88000 1301.519
65.92000 1237.703
65.96000 1050.594
66.00000 745.625
66.04000 521.731
66.08000 401.700
66.12000 369.154
66.16000 334.303
66.20000 326.676
66.24000 357.409
66.28000 386.652
66.32000 439.072
66.36000 494.088
66.40000 491.321
66.44000 501.963
66.48000 493.431
66.52000 448.410
66.56000 393.810
66.60000 346.743
66.64000 361.208
66.68000 356.915
66.72000 354.574
66.76000 342.935
66.80000 342.560
66.84000 350.259
66.88000 345.302
66.92000 359.754
66.96000 357.681
67.00000 358.263
67.04000 364.681
67.08000 384.688
67.12000 383.344
67.16000 401.992
67.20000 407.306
67.24000 404.398
67.28000 416.261
67.32000 405.715
67.36000 410.027
67.40000 426.772
67.44000 434.241
67.48000 455.575
67.52000 461.363
67.56000 461.119
67.60000 473.587
67.64000 482.811
67.68000 470.757
67.72000 495.675
67.76000 498.488
67.80000 513.450
67.84000 530.675
67.88000 546.619
67.92000 545.432
67.96000 553.825
68.00000 584.478
68.04000 588.154
68.08000 597.308
68.12000 600.799
68.16000 609.433
68.20000 641.781
68.24000 645.230
68.28000 665.282
68.32000 687.416
68.36000 740.759
68.40000 783.579
68.44000 791.585
68.48000 830.939
68.52000 876.553
68.56000 970.413
68.60000 1100.956
68.64000 1267.641
68.68000 1475.718
68.72000 1775.495
68.76000 2050.074
68.80000 2338.328
68.84000 2837.672
68.88000 3684.866
68.92000 6633.664
68.96000 16588.369
69.00000 35789.457
69.04000 55216.250
69.08000 64308.824
69.12000 66633.000
69.16000 69261.352
69.20000 68360.828
69.24000 56194.984
69.28000 43435.051
69.32000 35640.375
69.36000 32077.760
69.40000 25733.803
69.44000 15394.110
69.48000 7275.816
69.52000 3246.447
69.56000 2091.799
69.60000 1636.693
69.64000 1401.986
69.68000 1196.667
69.72000 1073.057
69.76000 971.672
69.80000 902.280
69.84000 848.680
69.88000 830.217
69.92000 787.353
69.96000 717.728
70.00000 685.191