File: XRD/XRD/25-09-2025/XY Data/BTO_Mapping_Theta2Theta_25-09-2025_001_05_40-000_0-000.xy
20.00000 558.786
20.04000 561.190
20.08000 552.668
20.12000 545.185
20.16000 557.080
20.20000 575.933
20.24000 541.366
20.28000 557.285
20.32000 545.153
20.36000 542.548
20.40000 548.618
20.44000 541.428
20.48000 549.465
20.52000 552.833
20.56000 537.044
20.60000 548.930
20.64000 548.763
20.68000 562.998
20.72000 550.284
20.76000 569.743
20.80000 540.464
20.84000 548.417
20.88000 535.026
20.92000 545.075
20.96000 542.229
21.00000 545.841
21.04000 544.971
21.08000 529.122
21.12000 531.445
21.16000 551.312
21.20000 534.321
21.24000 538.409
21.28000 537.241
21.32000 523.690
21.36000 537.782
21.40000 531.293
21.44000 517.798
21.48000 548.990
21.52000 543.136
21.56000 517.958
21.60000 524.306
21.64000 535.414
21.68000 551.133
21.72000 544.381
21.76000 560.185
21.80000 556.772
21.84000 551.969
21.88000 561.223
21.92000 555.575
21.96000 578.201
22.00000 591.344
22.04000 588.435
22.08000 586.338
22.12000 569.173
22.16000 591.444
22.20000 594.543
22.24000 599.026
22.28000 590.879
22.32000 582.513
22.36000 563.874
22.40000 583.120
22.44000 550.928
22.48000 547.907
22.52000 535.836
22.56000 528.949
22.60000 538.288
22.64000 532.990
22.68000 535.368
22.72000 521.407
22.76000 525.735
22.80000 504.543
22.84000 519.138
22.88000 492.587
22.92000 504.382
22.96000 518.426
23.00000 494.139
23.04000 515.988
23.08000 500.897
23.12000 507.349
23.16000 495.996
23.20000 499.194
23.24000 506.228
23.28000 502.407
23.32000 480.932
23.36000 484.721
23.40000 500.352
23.44000 488.403
23.48000 509.438
23.52000 494.234
23.56000 504.635
23.60000 496.708
23.64000 514.099
23.68000 501.137
23.72000 482.999
23.76000 485.821
23.80000 476.835
23.84000 475.594
23.88000 495.687
23.92000 506.676
23.96000 481.373
24.00000 471.464
24.04000 470.981
24.08000 477.030
24.12000 481.109
24.16000 485.073
24.20000 490.110
24.24000 479.970
24.28000 476.362
24.32000 475.547
24.36000 470.244
24.40000 464.865
24.44000 467.460
24.48000 471.191
24.52000 482.800
24.56000 482.377
24.60000 484.578
24.64000 484.536
24.68000 470.153
24.72000 492.400
24.76000 471.407
24.80000 480.573
24.84000 454.163
24.88000 479.015
24.92000 457.746
24.96000 470.638
25.00000 462.996
25.04000 465.156
25.08000 470.309
25.12000 469.973
25.16000 472.974
25.20000 472.110
25.24000 473.126
25.28000 461.790
25.32000 454.373
25.36000 471.058
25.40000 478.000
25.44000 453.106
25.48000 453.912
25.52000 462.922
25.56000 475.637
25.60000 468.599
25.64000 453.726
25.68000 461.884
25.72000 453.283
25.76000 467.529
25.80000 456.857
25.84000 446.262
25.88000 455.644
25.92000 473.197
25.96000 450.475
26.00000 462.238
26.04000 478.306
26.08000 469.363
26.12000 457.026
26.16000 454.386
26.20000 436.856
26.24000 452.622
26.28000 434.633
26.32000 437.483
26.36000 459.316
26.40000 446.935
26.44000 438.185
26.48000 433.586
26.52000 453.566
26.56000 459.045
26.60000 454.677
26.64000 475.075
26.68000 456.141
26.72000 446.528
26.76000 456.786
26.80000 437.208
26.84000 438.521
26.88000 449.002
26.92000 435.610
26.96000 460.100
27.00000 438.977
27.04000 444.261
27.08000 441.809
27.12000 450.430
27.16000 427.444
27.20000 451.448
27.24000 429.018
27.28000 447.598
27.32000 440.837
27.36000 435.017
27.40000 440.134
27.44000 439.044
27.48000 448.287
27.52000 435.687
27.56000 452.084
27.60000 436.994
27.64000 413.080
27.68000 443.357
27.72000 436.193
27.76000 428.769
27.80000 423.382
27.84000 407.600
27.88000 409.636
27.92000 426.200
27.96000 416.011
28.00000 416.069
28.04000 415.155
28.08000 432.913
28.12000 423.379
28.16000 416.745
28.20000 418.245
28.24000 433.226
28.28000 437.463
28.32000 419.711
28.36000 405.971
28.40000 419.796
28.44000 414.292
28.48000 409.845
28.52000 413.662
28.56000 430.116
28.60000 447.803
28.64000 432.174
28.68000 430.993
28.72000 418.176
28.76000 441.048
28.80000 433.904
28.84000 443.779
28.88000 436.007
28.92000 424.088
28.96000 435.960
29.00000 407.777
29.04000 417.269
29.08000 418.853
29.12000 428.401
29.16000 419.092
29.20000 428.503
29.24000 405.851
29.28000 404.407
29.32000 396.754
29.36000 411.820
29.40000 393.377
29.44000 397.710
29.48000 402.477
29.52000 401.490
29.56000 404.243
29.60000 401.410
29.64000 400.587
29.68000 404.997
29.72000 411.859
29.76000 416.109
29.80000 408.828
29.84000 402.734
29.88000 405.044
29.92000 406.540
29.96000 396.587
30.00000 414.645
30.04000 408.159
30.08000 421.044
30.12000 407.826
30.16000 402.620
30.20000 404.510
30.24000 414.197
30.28000 413.924
30.32000 405.572
30.36000 404.374
30.40000 403.560
30.44000 421.908
30.48000 399.673
30.52000 419.055
30.56000 415.536
30.60000 413.962
30.64000 422.326
30.68000 405.186
30.72000 417.324
30.76000 405.890
30.80000 421.726
30.84000 439.264
30.88000 426.512
30.92000 456.740
30.96000 460.636
31.00000 498.479
31.04000 516.932
31.08000 531.295
31.12000 568.779
31.16000 640.032
31.20000 728.290
31.24000 843.610
31.28000 921.174
31.32000 1006.776
31.36000 1080.659
31.40000 1105.216
31.44000 1123.575
31.48000 1064.691
31.52000 1021.170
31.56000 892.853
31.60000 789.069
31.64000 715.058
31.68000 634.130
31.72000 574.329
31.76000 541.770
31.80000 509.734
31.84000 462.142
31.88000 447.611
31.92000 439.516
31.96000 439.424
32.00000 424.702
32.04000 404.105
32.08000 416.533
32.12000 400.628
32.16000 397.144
32.20000 405.284
32.24000 384.084
32.28000 389.105
32.32000 391.376
32.36000 363.555
32.40000 388.596
32.44000 366.460
32.48000 385.447
32.52000 376.932
32.56000 369.314
32.60000 368.988
32.64000 367.899
32.68000 378.190
32.72000 381.915
32.76000 373.761
32.80000 348.733
32.84000 370.834
32.88000 359.970
32.92000 353.783
32.96000 363.904
33.00000 365.884
33.04000 354.100
33.08000 357.137
33.12000 348.434
33.16000 336.539
33.20000 342.031
33.24000 318.461
33.28000 344.719
33.32000 334.093
33.36000 339.436
33.40000 347.546
33.44000 347.968
33.48000 339.811
33.52000 343.087
33.56000 340.531
33.60000 335.123
33.64000 328.248
33.68000 341.255
33.72000 345.090
33.76000 327.295
33.80000 320.846
33.84000 332.512
33.88000 325.013
33.92000 339.248
33.96000 325.267
34.00000 335.863
34.04000 338.941
34.08000 326.390
34.12000 323.641
34.16000 328.676
34.20000 333.003
34.24000 324.099
34.28000 327.654
34.32000 326.986
34.36000 319.260
34.40000 322.826
34.44000 328.097
34.48000 329.151
34.52000 350.394
34.56000 313.923
34.60000 304.719
34.64000 319.703
34.68000 325.624
34.72000 311.084
34.76000 335.438
34.80000 317.510
34.84000 322.269
34.88000 305.687
34.92000 305.212
34.96000 323.408
35.00000 328.184
35.04000 308.603
35.08000 316.883
35.12000 301.706
35.16000 316.680
35.20000 314.160
35.24000 292.058
35.28000 305.169
35.32000 305.640
35.36000 313.989
35.40000 329.459
35.44000 313.774
35.48000 302.509
35.52000 293.033
35.56000 312.660
35.60000 316.616
35.64000 293.403
35.68000 316.413
35.72000 307.837
35.76000 300.403
35.80000 292.048
35.84000 293.181
35.88000 300.285
35.92000 313.708
35.96000 306.923
36.00000 293.424
36.04000 294.891
36.08000 303.681
36.12000 295.279
36.16000 290.340
36.20000 303.828
36.24000 306.985
36.28000 300.213
36.32000 299.451
36.36000 283.486
36.40000 297.776
36.44000 306.785
36.48000 298.222
36.52000 289.243
36.56000 299.257
36.60000 305.806
36.64000 295.491
36.68000 288.834
36.72000 307.145
36.76000 289.220
36.80000 298.444
36.84000 294.314
36.88000 302.167
36.92000 296.977
36.96000 292.826
37.00000 291.034
37.04000 295.570
37.08000 287.607
37.12000 291.994
37.16000 297.031
37.20000 276.021
37.24000 283.756
37.28000 288.615
37.32000 287.005
37.36000 293.460
37.40000 289.248
37.44000 283.687
37.48000 280.297
37.52000 280.388
37.56000 281.703
37.60000 294.539
37.64000 289.427
37.68000 297.624
37.72000 274.556
37.76000 285.754
37.80000 276.377
37.84000 289.532
37.88000 275.409
37.92000 286.831
37.96000 278.739
38.00000 288.701
38.04000 276.806
38.08000 287.171
38.12000 282.901
38.16000 289.073
38.20000 296.802
38.24000 298.136
38.28000 297.643
38.32000 312.799
38.36000 306.359
38.40000 312.041
38.44000 318.198
38.48000 360.336
38.52000 402.080
38.56000 430.381
38.60000 499.712
38.64000 547.726
38.68000 579.397
38.72000 556.535
38.76000 571.717
38.80000 526.096
38.84000 476.366
38.88000 425.613
38.92000 387.095
38.96000 351.027
39.00000 336.281
39.04000 318.844
39.08000 308.321
39.12000 300.762
39.16000 288.570
39.20000 284.184
39.24000 277.052
39.28000 272.548
39.32000 267.028
39.36000 269.513
39.40000 276.132
39.44000 255.279
39.48000 280.073
39.52000 262.351
39.56000 262.684
39.60000 266.077
39.64000 261.250
39.68000 274.941
39.72000 263.589
39.76000 257.917
39.80000 270.588
39.84000 262.021
39.88000 256.182
39.92000 248.116
39.96000 259.717
40.00000 270.980
40.04000 250.041
40.08000 250.270
40.12000 246.432
40.16000 252.259
40.20000 257.834
40.24000 259.511
40.28000 251.062
40.32000 249.500
40.36000 253.936
40.40000 234.744
40.44000 254.711
40.48000 246.501
40.52000 264.647
40.56000 238.391
40.60000 240.620
40.64000 247.399
40.68000 244.317
40.72000 260.650
40.76000 243.766
40.80000 240.574
40.84000 232.297
40.88000 236.361
40.92000 236.948
40.96000 241.078
41.00000 246.056
41.04000 249.355
41.08000 245.062
41.12000 258.834
41.16000 229.970
41.20000 246.152
41.24000 252.102
41.28000 250.231
41.32000 235.945
41.36000 244.736
41.40000 238.785
41.44000 235.023
41.48000 234.483
41.52000 234.260
41.56000 238.916
41.60000 247.987
41.64000 238.816
41.68000 244.576
41.72000 239.101
41.76000 259.438
41.80000 234.813
41.84000 238.089
41.88000 233.648
41.92000 235.755
41.96000 242.463
42.00000 226.025
42.04000 228.252
42.08000 232.694
42.12000 233.932
42.16000 225.805
42.20000 223.029
42.24000 223.874
42.28000 226.897
42.32000 236.429
42.36000 232.904
42.40000 236.342
42.44000 228.223
42.48000 219.136
42.52000 238.090
42.56000 217.415
42.60000 234.237
42.64000 220.199
42.68000 224.685
42.72000 221.630
42.76000 219.384
42.80000 247.038
42.84000 229.199
42.88000 223.063
42.92000 220.468
42.96000 232.128
43.00000 219.203
43.04000 225.137
43.08000 228.840
43.12000 223.582
43.16000 228.725
43.20000 223.190
43.24000 214.901
43.28000 208.061
43.32000 215.957
43.36000 212.303
43.40000 228.537
43.44000 220.975
43.48000 222.654
43.52000 231.707
43.56000 216.314
43.60000 229.609
43.64000 220.192
43.68000 220.264
43.72000 208.543
43.76000 222.523
43.80000 213.793
43.84000 222.333
43.88000 220.423
43.92000 204.900
43.96000 215.715
44.00000 215.635
44.04000 214.034
44.08000 206.311
44.12000 212.696
44.16000 210.740
44.20000 220.915
44.24000 213.550
44.28000 211.052
44.32000 218.906
44.36000 213.553
44.40000 216.678
44.44000 227.278
44.48000 225.368
44.52000 207.786
44.56000 217.197
44.60000 225.559
44.64000 231.399
44.68000 220.708
44.72000 216.841
44.76000 217.460
44.80000 224.087
44.84000 230.736
44.88000 235.386
44.92000 233.406
44.96000 228.070
45.00000 239.379
45.04000 252.811
45.08000 234.333
45.12000 246.083
45.16000 227.993
45.20000 244.981
45.24000 249.851
45.28000 253.023
45.32000 271.710
45.36000 266.282
45.40000 246.046
45.44000 232.987
45.48000 245.698
45.52000 238.721
45.56000 237.456
45.60000 243.181
45.64000 235.055
45.68000 232.700
45.72000 224.862
45.76000 227.861
45.80000 204.223
45.84000 212.558
45.88000 221.032
45.92000 210.050
45.96000 213.866
46.00000 208.113
46.04000 211.061
46.08000 210.917
46.12000 210.890
46.16000 200.326
46.20000 191.813
46.24000 200.005
46.28000 196.385
46.32000 198.851
46.36000 202.619
46.40000 206.625
46.44000 203.022
46.48000 205.086
46.52000 212.723
46.56000 200.885
46.60000 184.502
46.64000 198.184
46.68000 200.603
46.72000 201.786
46.76000 199.095
46.80000 199.906
46.84000 192.639
46.88000 198.345
46.92000 194.748
46.96000 193.865
47.00000 196.828
47.04000 202.952
47.08000 188.371
47.12000 198.781
47.16000 194.356
47.20000 189.564
47.24000 182.305
47.28000 182.963
47.32000 190.002
47.36000 185.766
47.40000 196.057
47.44000 192.745
47.48000 193.243
47.52000 181.238
47.56000 186.458
47.60000 181.154
47.64000 185.019
47.68000 194.435
47.72000 180.695
47.76000 189.268
47.80000 172.871
47.84000 171.176
47.88000 177.839
47.92000 192.499
47.96000 186.063
48.00000 182.218
48.04000 175.049
48.08000 184.807
48.12000 189.402
48.16000 175.997
48.20000 179.886
48.24000 190.449
48.28000 179.603
48.32000 188.391
48.36000 170.316
48.40000 186.004
48.44000 181.716
48.48000 190.287
48.52000 184.387
48.56000 189.626
48.60000 172.906
48.64000 188.603
48.68000 184.754
48.72000 178.649
48.76000 182.726
48.80000 190.466
48.84000 191.288
48.88000 183.020
48.92000 188.135
48.96000 186.649
49.00000 186.389
49.04000 173.980
49.08000 170.156
49.12000 160.291
49.16000 173.229
49.20000 180.718
49.24000 172.018
49.28000 174.325
49.32000 180.377
49.36000 175.784
49.40000 178.873
49.44000 164.658
49.48000 178.481
49.52000 180.577
49.56000 179.669
49.60000 174.416
49.64000 185.042
49.68000 171.194
49.72000 156.588
49.76000 181.462
49.80000 179.741
49.84000 170.757
49.88000 182.803
49.92000 176.829
49.96000 168.698
50.00000 176.440
50.04000 166.759
50.08000 185.685
50.12000 175.474
50.16000 171.312
50.20000 166.784
50.24000 166.044
50.28000 180.203
50.32000 177.228
50.36000 163.234
50.40000 172.522
50.44000 184.516
50.48000 173.681
50.52000 175.020
50.56000 180.724
50.60000 178.372
50.64000 183.489
50.68000 189.955
50.72000 180.478
50.76000 179.145
50.80000 184.250
50.84000 180.640
50.88000 176.556
50.92000 184.398
50.96000 177.644
51.00000 192.845
51.04000 177.730
51.08000 160.662
51.12000 174.525
51.16000 171.771
51.20000 169.921
51.24000 166.939
51.28000 172.053
51.32000 175.121
51.36000 174.321
51.40000 155.465
51.44000 173.842
51.48000 158.557
51.52000 159.613
51.56000 167.330
51.60000 154.666
51.64000 161.839
51.68000 161.176
51.72000 148.251
51.76000 161.623
51.80000 157.840
51.84000 167.165
51.88000 169.572
51.92000 157.399
51.96000 167.928
52.00000 154.849
52.04000 164.205
52.08000 154.373
52.12000 148.367
52.16000 156.179
52.20000 160.442
52.24000 158.531
52.28000 162.197
52.32000 159.212
52.36000 159.663
52.40000 159.397
52.44000 161.290
52.48000 153.622
52.52000 149.043
52.56000 159.137
52.60000 158.111
52.64000 164.797
52.68000 160.420
52.72000 160.971
52.76000 163.870
52.80000 153.484
52.84000 153.696
52.88000 146.984
52.92000 151.930
52.96000 152.478
53.00000 152.400
53.04000 156.578
53.08000 154.987
53.12000 154.832
53.16000 149.080
53.20000 146.574
53.24000 166.844
53.28000 145.186
53.32000 155.309
53.36000 156.321
53.40000 161.018
53.44000 151.497
53.48000 161.705
53.52000 156.868
53.56000 150.351
53.60000 146.108
53.64000 149.633
53.68000 146.027
53.72000 156.748
53.76000 144.617
53.80000 154.436
53.84000 154.086
53.88000 154.192
53.92000 153.221
53.96000 152.199
54.00000 158.035
54.04000 154.232
54.08000 156.544
54.12000 149.764
54.16000 146.997
54.20000 157.982
54.24000 157.766
54.28000 149.108
54.32000 151.784
54.36000 147.556
54.40000 153.248
54.44000 150.835
54.48000 149.092
54.52000 149.052
54.56000 151.400
54.60000 149.986
54.64000 165.511
54.68000 163.563
54.72000 152.646
54.76000 151.222
54.80000 157.820
54.84000 154.297
54.88000 154.372
54.92000 146.626
54.96000 152.687
55.00000 151.313
55.04000 146.132
55.08000 155.635
55.12000 162.232
55.16000 157.072
55.20000 162.054
55.24000 156.915
55.28000 157.430
55.32000 158.103
55.36000 155.284
55.40000 174.935
55.44000 160.952
55.48000 174.857
55.52000 187.230
55.56000 174.315
55.60000 184.245
55.64000 199.993
55.68000 206.037
55.72000 222.410
55.76000 223.188
55.80000 255.955
55.84000 261.210
55.88000 268.939
55.92000 277.028
55.96000 287.531
56.00000 284.064
56.04000 261.458
56.08000 248.991
56.12000 254.796
56.16000 235.260
56.20000 228.150
56.24000 207.895
56.28000 198.235
56.32000 204.220
56.36000 190.480
56.40000 180.144
56.44000 169.528
56.48000 174.815
56.52000 156.963
56.56000 169.416
56.60000 145.106
56.64000 164.171
56.68000 129.918
56.72000 144.544
56.76000 152.581
56.80000 143.812
56.84000 146.960
56.88000 150.689
56.92000 154.871
56.96000 145.417
57.00000 148.230
57.04000 138.395
57.08000 141.647
57.12000 132.790
57.16000 141.778
57.20000 137.602
57.24000 143.815
57.28000 146.070
57.32000 143.654
57.36000 140.837
57.40000 145.029
57.44000 136.282
57.48000 138.268
57.52000 144.792
57.56000 143.124
57.60000 143.511
57.64000 149.749
57.68000 149.508
57.72000 136.875
57.76000 133.674
57.80000 134.003
57.84000 144.385
57.88000 139.066
57.92000 133.811
57.96000 146.972
58.00000 135.609
58.04000 143.684
58.08000 141.534
58.12000 134.679
58.16000 138.193
58.20000 137.666
58.24000 134.226
58.28000 143.738
58.32000 120.475
58.36000 142.431
58.40000 142.478
58.44000 125.854
58.48000 137.095
58.52000 139.555
58.56000 133.897
58.60000 130.812
58.64000 139.479
58.68000 142.149
58.72000 132.745
58.76000 127.947
58.80000 137.588
58.84000 131.679
58.88000 141.436
58.92000 139.539
58.96000 143.651
59.00000 133.008
59.04000 143.161
59.08000 135.195
59.12000 135.341
59.16000 140.849
59.20000 128.300
59.24000 126.203
59.28000 136.144
59.32000 138.840
59.36000 131.606
59.40000 132.731
59.44000 127.535
59.48000 126.327
59.52000 127.787
59.56000 144.926
59.60000 134.421
59.64000 130.783
59.68000 130.805
59.72000 143.284
59.76000 133.757
59.80000 127.077
59.84000 126.282
59.88000 139.508
59.92000 136.604
59.96000 132.763
60.00000 140.729
60.04000 131.240
60.08000 131.384
60.12000 137.655
60.16000 118.281
60.20000 132.474
60.24000 131.902
60.28000 134.327
60.32000 131.741
60.36000 132.560
60.40000 128.910
60.44000 133.762
60.48000 131.005
60.52000 140.249
60.56000 123.713
60.60000 128.267
60.64000 124.824
60.68000 130.486
60.72000 133.185
60.76000 131.755
60.80000 132.477
60.84000 137.562
60.88000 129.240
60.92000 135.686
60.96000 128.638
61.00000 124.868
61.04000 126.201
61.08000 130.628
61.12000 139.882
61.16000 132.374
61.20000 129.805
61.24000 131.223
61.28000 142.315
61.32000 146.299
61.36000 138.905
61.40000 132.342
61.44000 134.484
61.48000 148.907
61.52000 152.428
61.56000 189.271
61.60000 225.179
61.64000 242.510
61.68000 278.599
61.72000 273.454
61.76000 265.395
61.80000 229.133
61.84000 197.180
61.88000 159.307
61.92000 153.805
61.96000 132.328
62.00000 143.441
62.04000 153.454
62.08000 140.504
62.12000 145.682
62.16000 145.808
62.20000 141.405
62.24000 144.857
62.28000 149.646
62.32000 147.591
62.36000 143.923
62.40000 140.326
62.44000 140.077
62.48000 137.542
62.52000 142.259
62.56000 147.796
62.60000 136.636
62.64000 141.771
62.68000 139.807
62.72000 142.392
62.76000 158.945
62.80000 135.868
62.84000 141.690
62.88000 145.718
62.92000 141.203
62.96000 143.262
63.00000 153.267
63.04000 146.370
63.08000 138.515
63.12000 146.797
63.16000 151.420
63.20000 149.411
63.24000 152.161
63.28000 150.500
63.32000 140.072
63.36000 138.154
63.40000 150.689
63.44000 146.232
63.48000 148.649
63.52000 142.864
63.56000 149.791
63.60000 159.279
63.64000 145.044
63.68000 153.686
63.72000 170.042
63.76000 159.552
63.80000 150.437
63.84000 157.083
63.88000 151.736
63.92000 158.117
63.96000 150.875
64.00000 149.204
64.04000 172.987
64.08000 159.540
64.12000 150.119
64.16000 159.666
64.20000 171.506
64.24000 159.976
64.28000 170.931
64.32000 175.736
64.36000 153.816
64.40000 164.239
64.44000 176.125
64.48000 168.804
64.52000 163.469
64.56000 175.829
64.60000 169.126
64.64000 177.599
64.68000 180.810
64.72000 181.425
64.76000 173.099
64.80000 182.701
64.84000 182.081
64.88000 189.374
64.92000 186.795
64.96000 192.028
65.00000 191.960
65.04000 187.147
65.08000 191.633
65.12000 189.417
65.16000 202.742
65.20000 203.861
65.24000 211.393
65.28000 221.742
65.32000 220.274
65.36000 230.876
65.40000 238.452
65.44000 249.044
65.48000 250.473
65.52000 266.343
65.56000 274.726
65.60000 287.092
65.64000 322.073
65.68000 345.268
65.72000 487.491
65.76000 673.982
65.80000 872.888
65.84000 989.439
65.88000 1039.340
65.92000 1036.598
65.96000 916.139
66.00000 696.462
66.04000 483.660
66.08000 377.793
66.12000 318.704
66.16000 315.113
66.20000 315.323
66.24000 302.741
66.28000 327.477
66.32000 389.447
66.36000 409.591
66.40000 437.933
66.44000 456.813
66.48000 446.368
66.52000 405.945
66.56000 389.892
66.60000 340.039
66.64000 320.843
66.68000 329.103
66.72000 321.940
66.76000 324.735
66.80000 333.742
66.84000 345.631
66.88000 324.051
66.92000 336.030
66.96000 342.892
67.00000 346.584
67.04000 364.150
67.08000 361.465
67.12000 362.611
67.16000 367.944
67.20000 366.662
67.24000 398.878
67.28000 390.837
67.32000 388.088
67.36000 428.789
67.40000 420.652
67.44000 417.325
67.48000 417.528
67.52000 434.040
67.56000 440.082
67.60000 437.489
67.64000 450.994
67.68000 451.557
67.72000 472.589
67.76000 475.857
67.80000 491.238
67.84000 501.439
67.88000 499.996
67.92000 500.809
67.96000 525.326
68.00000 541.293
68.04000 535.661
68.08000 533.191
68.12000 562.674
68.16000 565.039
68.20000 602.861
68.24000 624.541
68.28000 622.459
68.32000 651.513
68.36000 687.753
68.40000 697.340
68.44000 720.295
68.48000 748.102
68.52000 763.604
68.56000 831.402
68.60000 945.440
68.64000 1062.960
68.68000 1234.935
68.72000 1441.875
68.76000 1623.528
68.80000 1833.709
68.84000 2057.954
68.88000 2481.530
68.92000 3739.853
68.96000 8957.427
69.00000 22242.957
69.04000 39885.348
69.08000 50712.586
69.12000 53437.125
69.16000 54992.352
69.20000 57258.594
69.24000 50439.605
69.28000 37881.988
69.32000 30038.029
69.36000 26912.295
69.40000 23541.088
69.44000 15979.731
69.48000 7648.798
69.52000 3274.657
69.56000 1941.816
69.60000 1514.693
69.64000 1275.962
69.68000 1108.951
69.72000 1017.554
69.76000 914.408
69.80000 876.283
69.84000 784.064
69.88000 744.028
69.92000 707.562
69.96000 681.072
70.00000 676.356