File: XRD/XRD/25-09-2025/XY Data/BTO_Mapping_Theta2Theta_25-09-2025_001_49_-4-181_-39-781.xy
20.00000 563.010
20.04000 571.037
20.08000 561.610
20.12000 567.171
20.16000 562.355
20.20000 575.236
20.24000 558.740
20.28000 529.915
20.32000 538.849
20.36000 558.462
20.40000 550.846
20.44000 552.225
20.48000 546.168
20.52000 553.350
20.56000 544.584
20.60000 539.738
20.64000 535.474
20.68000 544.279
20.72000 547.830
20.76000 546.839
20.80000 546.377
20.84000 560.009
20.88000 540.132
20.92000 554.857
20.96000 550.106
21.00000 549.389
21.04000 557.751
21.08000 535.791
21.12000 550.984
21.16000 555.869
21.20000 538.346
21.24000 559.775
21.28000 549.093
21.32000 533.657
21.36000 538.603
21.40000 543.424
21.44000 536.393
21.48000 544.483
21.52000 550.995
21.56000 537.671
21.60000 563.459
21.64000 544.588
21.68000 562.253
21.72000 575.357
21.76000 581.050
21.80000 571.026
21.84000 597.677
21.88000 653.557
21.92000 670.926
21.96000 692.771
22.00000 723.799
22.04000 734.954
22.08000 733.130
22.12000 748.413
22.16000 722.139
22.20000 712.124
22.24000 680.444
22.28000 666.583
22.32000 606.423
22.36000 610.441
22.40000 597.147
22.44000 584.499
22.48000 597.840
22.52000 543.389
22.56000 543.484
22.60000 527.710
22.64000 528.695
22.68000 526.975
22.72000 533.765
22.76000 522.973
22.80000 507.221
22.84000 498.210
22.88000 510.290
22.92000 525.311
22.96000 521.666
23.00000 518.432
23.04000 506.025
23.08000 483.146
23.12000 516.192
23.16000 517.885
23.20000 494.451
23.24000 487.647
23.28000 507.906
23.32000 511.357
23.36000 479.736
23.40000 492.402
23.44000 506.082
23.48000 509.289
23.52000 495.076
23.56000 480.740
23.60000 490.613
23.64000 497.746
23.68000 506.227
23.72000 486.074
23.76000 485.770
23.80000 485.672
23.84000 488.672
23.88000 485.908
23.92000 506.863
23.96000 505.814
24.00000 487.674
24.04000 498.083
24.08000 477.964
24.12000 487.302
24.16000 478.616
24.20000 475.807
24.24000 503.121
24.28000 490.307
24.32000 500.783
24.36000 475.391
24.40000 481.063
24.44000 474.511
24.48000 489.518
24.52000 477.438
24.56000 504.342
24.60000 492.697
24.64000 477.376
24.68000 474.956
24.72000 479.157
24.76000 472.280
24.80000 467.103
24.84000 476.991
24.88000 474.484
24.92000 467.899
24.96000 486.801
25.00000 467.541
25.04000 475.344
25.08000 482.992
25.12000 457.023
25.16000 452.783
25.20000 459.920
25.24000 476.138
25.28000 476.445
25.32000 467.587
25.36000 460.079
25.40000 465.144
25.44000 457.198
25.48000 471.138
25.52000 451.333
25.56000 448.491
25.60000 445.865
25.64000 423.914
25.68000 437.883
25.72000 441.259
25.76000 469.692
25.80000 468.403
25.84000 465.114
25.88000 468.392
25.92000 460.133
25.96000 454.852
26.00000 431.143
26.04000 459.890
26.08000 457.109
26.12000 462.102
26.16000 453.811
26.20000 443.165
26.24000 437.009
26.28000 433.174
26.32000 444.949
26.36000 439.522
26.40000 432.769
26.44000 457.111
26.48000 437.577
26.52000 449.507
26.56000 459.651
26.60000 451.046
26.64000 445.708
26.68000 433.280
26.72000 439.396
26.76000 445.283
26.80000 444.166
26.84000 426.427
26.88000 439.122
26.92000 419.014
26.96000 422.490
27.00000 438.276
27.04000 425.685
27.08000 426.383
27.12000 416.098
27.16000 420.076
27.20000 432.816
27.24000 433.724
27.28000 432.771
27.32000 431.090
27.36000 427.261
27.40000 428.913
27.44000 440.919
27.48000 418.343
27.52000 442.922
27.56000 438.734
27.60000 434.574
27.64000 437.318
27.68000 436.447
27.72000 428.896
27.76000 444.004
27.80000 435.906
27.84000 435.636
27.88000 422.554
27.92000 417.212
27.96000 407.344
28.00000 433.720
28.04000 433.657
28.08000 426.188
28.12000 428.337
28.16000 419.757
28.20000 425.007
28.24000 408.785
28.28000 424.361
28.32000 418.235
28.36000 434.155
28.40000 425.903
28.44000 429.694
28.48000 417.960
28.52000 426.959
28.56000 410.573
28.60000 415.502
28.64000 406.974
28.68000 419.681
28.72000 440.871
28.76000 406.380
28.80000 428.201
28.84000 418.675
28.88000 409.931
28.92000 428.436
28.96000 409.459
29.00000 421.054
29.04000 394.816
29.08000 415.484
29.12000 404.603
29.16000 407.706
29.20000 413.583
29.24000 424.336
29.28000 389.934
29.32000 407.394
29.36000 400.385
29.40000 419.226
29.44000 417.788
29.48000 415.662
29.52000 413.201
29.56000 401.613
29.60000 404.231
29.64000 413.014
29.68000 399.149
29.72000 409.582
29.76000 395.222
29.80000 399.939
29.84000 405.478
29.88000 416.123
29.92000 421.648
29.96000 411.769
30.00000 413.210
30.04000 417.990
30.08000 431.266
30.12000 418.519
30.16000 411.869
30.20000 436.097
30.24000 424.770
30.28000 416.398
30.32000 424.136
30.36000 393.909
30.40000 403.823
30.44000 422.184
30.48000 420.629
30.52000 411.558
30.56000 407.976
30.60000 395.951
30.64000 418.346
30.68000 415.726
30.72000 403.722
30.76000 415.552
30.80000 445.721
30.84000 447.521
30.88000 473.287
30.92000 488.526
30.96000 515.920
31.00000 562.150
31.04000 604.032
31.08000 725.482
31.12000 862.406
31.16000 1064.453
31.20000 1263.462
31.24000 1534.646
31.28000 1801.350
31.32000 1945.556
31.36000 2114.671
31.40000 2180.351
31.44000 2071.115
31.48000 1928.036
31.52000 1721.086
31.56000 1460.331
31.60000 1254.012
31.64000 1024.180
31.68000 854.343
31.72000 751.912
31.76000 659.309
31.80000 572.208
31.84000 499.525
31.88000 482.186
31.92000 461.779
31.96000 438.318
32.00000 423.155
32.04000 388.278
32.08000 396.591
32.12000 399.555
32.16000 385.972
32.20000 379.695
32.24000 380.356
32.28000 398.959
32.32000 371.877
32.36000 378.195
32.40000 372.243
32.44000 361.680
32.48000 384.671
32.52000 373.293
32.56000 367.007
32.60000 372.844
32.64000 391.132
32.68000 367.833
32.72000 361.218
32.76000 370.774
32.80000 359.129
32.84000 387.015
32.88000 372.394
32.92000 381.075
32.96000 362.144
33.00000 367.012
33.04000 358.763
33.08000 363.959
33.12000 344.393
33.16000 335.436
33.20000 340.968
33.24000 347.483
33.28000 355.113
33.32000 349.054
33.36000 342.101
33.40000 341.577
33.44000 343.568
33.48000 323.741
33.52000 330.712
33.56000 341.382
33.60000 333.912
33.64000 347.077
33.68000 319.993
33.72000 322.569
33.76000 320.853
33.80000 336.869
33.84000 325.700
33.88000 336.693
33.92000 319.306
33.96000 318.640
34.00000 335.717
34.04000 329.705
34.08000 324.914
34.12000 328.256
34.16000 332.879
34.20000 335.392
34.24000 333.725
34.28000 323.601
34.32000 324.030
34.36000 310.299
34.40000 344.405
34.44000 322.292
34.48000 319.513
34.52000 329.490
34.56000 315.046
34.60000 325.107
34.64000 317.983
34.68000 317.709
34.72000 313.141
34.76000 308.217
34.80000 324.162
34.84000 323.396
34.88000 319.285
34.92000 319.742
34.96000 323.258
35.00000 307.380
35.04000 310.469
35.08000 314.501
35.12000 307.838
35.16000 304.468
35.20000 300.793
35.24000 311.223
35.28000 300.965
35.32000 300.336
35.36000 315.437
35.40000 298.515
35.44000 297.812
35.48000 321.225
35.52000 315.042
35.56000 304.997
35.60000 297.950
35.64000 298.890
35.68000 309.873
35.72000 312.579
35.76000 306.279
35.80000 307.336
35.84000 304.147
35.88000 294.328
35.92000 287.114
35.96000 302.856
36.00000 297.724
36.04000 302.059
36.08000 290.899
36.12000 306.841
36.16000 305.266
36.20000 289.512
36.24000 299.100
36.28000 307.399
36.32000 300.107
36.36000 301.334
36.40000 292.844
36.44000 300.940
36.48000 280.792
36.52000 306.134
36.56000 297.080
36.60000 291.818
36.64000 293.940
36.68000 295.415
36.72000 296.182
36.76000 286.332
36.80000 297.209
36.84000 291.631
36.88000 282.789
36.92000 304.608
36.96000 292.072
37.00000 295.516
37.04000 287.632
37.08000 291.095
37.12000 301.061
37.16000 299.120
37.20000 288.032
37.24000 294.122
37.28000 277.100
37.32000 278.672
37.36000 291.486
37.40000 280.102
37.44000 288.250
37.48000 274.781
37.52000 288.020
37.56000 298.552
37.60000 283.917
37.64000 283.700
37.68000 283.383
37.72000 281.551
37.76000 287.138
37.80000 282.685
37.84000 290.722
37.88000 278.796
37.92000 280.774
37.96000 281.194
38.00000 279.068
38.04000 287.770
38.08000 277.814
38.12000 302.639
38.16000 285.771
38.20000 300.942
38.24000 292.906
38.28000 293.978
38.32000 309.549
38.36000 317.821
38.40000 368.799
38.44000 354.112
38.48000 417.305
38.52000 448.818
38.56000 487.002
38.60000 534.083
38.64000 560.830
38.68000 594.056
38.72000 615.640
38.76000 602.562
38.80000 583.257
38.84000 543.217
38.88000 501.723
38.92000 453.031
38.96000 407.448
39.00000 379.816
39.04000 343.017
39.08000 303.944
39.12000 295.243
39.16000 304.285
39.20000 281.119
39.24000 283.197
39.28000 262.164
39.32000 259.844
39.36000 258.278
39.40000 271.930
39.44000 268.492
39.48000 268.521
39.52000 263.346
39.56000 275.111
39.60000 263.244
39.64000 277.114
39.68000 267.618
39.72000 261.410
39.76000 254.530
39.80000 255.342
39.84000 249.598
39.88000 272.125
39.92000 257.093
39.96000 263.522
40.00000 260.638
40.04000 255.672
40.08000 250.768
40.12000 248.806
40.16000 251.920
40.20000 256.306
40.24000 253.375
40.28000 246.586
40.32000 257.345
40.36000 248.002
40.40000 246.717
40.44000 243.259
40.48000 253.971
40.52000 250.053
40.56000 251.260
40.60000 251.784
40.64000 249.846
40.68000 254.704
40.72000 237.313
40.76000 249.274
40.80000 242.570
40.84000 241.299
40.88000 245.265
40.92000 237.790
40.96000 246.630
41.00000 255.981
41.04000 251.537
41.08000 247.093
41.12000 236.324
41.16000 248.780
41.20000 234.839
41.24000 241.480
41.28000 248.933
41.32000 250.318
41.36000 225.219
41.40000 239.264
41.44000 241.171
41.48000 241.649
41.52000 233.319
41.56000 246.194
41.60000 235.098
41.64000 226.601
41.68000 237.267
41.72000 242.161
41.76000 241.023
41.80000 242.019
41.84000 235.646
41.88000 241.218
41.92000 245.445
41.96000 231.298
42.00000 232.230
42.04000 226.156
42.08000 243.865
42.12000 233.325
42.16000 238.455
42.20000 235.176
42.24000 224.395
42.28000 235.138
42.32000 244.029
42.36000 235.135
42.40000 219.999
42.44000 242.536
42.48000 223.889
42.52000 227.652
42.56000 226.818
42.60000 222.496
42.64000 235.276
42.68000 227.050
42.72000 222.738
42.76000 222.313
42.80000 233.969
42.84000 220.894
42.88000 221.065
42.92000 226.625
42.96000 227.259
43.00000 222.645
43.04000 227.025
43.08000 220.474
43.12000 226.233
43.16000 209.716
43.20000 215.122
43.24000 232.416
43.28000 222.918
43.32000 212.511
43.36000 220.722
43.40000 217.953
43.44000 228.218
43.48000 233.246
43.52000 231.314
43.56000 221.897
43.60000 215.561
43.64000 228.678
43.68000 225.969
43.72000 217.700
43.76000 222.006
43.80000 213.764
43.84000 206.637
43.88000 216.532
43.92000 219.558
43.96000 231.439
44.00000 235.059
44.04000 229.089
44.08000 224.517
44.12000 220.826
44.16000 230.616
44.20000 234.526
44.24000 211.944
44.28000 220.877
44.32000 235.289
44.36000 221.115
44.40000 232.916
44.44000 219.880
44.48000 227.525
44.52000 220.999
44.56000 228.961
44.60000 242.308
44.64000 241.655
44.68000 237.720
44.72000 265.356
44.76000 276.942
44.80000 281.573
44.84000 297.155
44.88000 324.518
44.92000 332.032
44.96000 339.662
45.00000 367.961
45.04000 357.800
45.08000 352.335
45.12000 350.372
45.16000 338.263
45.20000 327.726
45.24000 325.849
45.28000 335.496
45.32000 320.509
45.36000 304.457
45.40000 293.399
45.44000 297.168
45.48000 277.905
45.52000 279.918
45.56000 275.297
45.60000 262.051
45.64000 256.642
45.68000 253.026
45.72000 254.737
45.76000 247.061
45.80000 253.034
45.84000 232.040
45.88000 238.206
45.92000 240.129
45.96000 227.137
46.00000 223.114
46.04000 219.170
46.08000 200.831
46.12000 223.145
46.16000 203.560
46.20000 211.907
46.24000 215.150
46.28000 197.326
46.32000 206.190
46.36000 213.114
46.40000 210.809
46.44000 193.855
46.48000 196.775
46.52000 200.096
46.56000 182.023
46.60000 196.641
46.64000 186.208
46.68000 191.435
46.72000 181.892
46.76000 197.786
46.80000 206.706
46.84000 207.021
46.88000 187.956
46.92000 177.611
46.96000 184.859
47.00000 180.896
47.04000 198.288
47.08000 200.364
47.12000 192.666
47.16000 190.289
47.20000 198.583
47.24000 200.980
47.28000 195.430
47.32000 198.134
47.36000 185.138
47.40000 179.172
47.44000 186.572
47.48000 201.305
47.52000 188.049
47.56000 200.348
47.60000 194.274
47.64000 176.765
47.68000 184.566
47.72000 179.072
47.76000 179.354
47.80000 181.637
47.84000 187.860
47.88000 170.877
47.92000 180.986
47.96000 176.540
48.00000 178.431
48.04000 186.030
48.08000 186.652
48.12000 188.214
48.16000 185.074
48.20000 179.708
48.24000 179.299
48.28000 176.770
48.32000 169.343
48.36000 179.677
48.40000 174.052
48.44000 181.504
48.48000 181.844
48.52000 179.080
48.56000 183.134
48.60000 180.254
48.64000 182.902
48.68000 165.682
48.72000 175.516
48.76000 186.458
48.80000 182.003
48.84000 182.728
48.88000 182.688
48.92000 185.905
48.96000 176.836
49.00000 181.414
49.04000 187.757
49.08000 179.349
49.12000 192.350
49.16000 165.715
49.20000 173.921
49.24000 175.933
49.28000 175.292
49.32000 168.347
49.36000 176.411
49.40000 188.995
49.44000 165.938
49.48000 178.715
49.52000 184.120
49.56000 175.213
49.60000 164.726
49.64000 178.411
49.68000 176.051
49.72000 172.962
49.76000 171.854
49.80000 178.909
49.84000 178.125
49.88000 167.635
49.92000 173.622
49.96000 174.922
50.00000 168.258
50.04000 175.699
50.08000 169.043
50.12000 175.123
50.16000 167.110
50.20000 179.781
50.24000 171.420
50.28000 182.163
50.32000 183.100
50.36000 196.610
50.40000 189.402
50.44000 190.792
50.48000 206.940
50.52000 216.555
50.56000 222.217
50.60000 223.995
50.64000 217.939
50.68000 230.120
50.72000 225.984
50.76000 220.603
50.80000 216.730
50.84000 206.657
50.88000 206.981
50.92000 206.666
50.96000 194.888
51.00000 199.975
51.04000 193.337
51.08000 182.700
51.12000 179.983
51.16000 183.760
51.20000 165.551
51.24000 182.090
51.28000 175.424
51.32000 170.570
51.36000 165.413
51.40000 165.448
51.44000 159.351
51.48000 160.516
51.52000 161.733
51.56000 160.481
51.60000 163.776
51.64000 160.559
51.68000 159.719
51.72000 167.571
51.76000 156.412
51.80000 159.714
51.84000 152.889
51.88000 160.891
51.92000 135.480
51.96000 163.769
52.00000 168.210
52.04000 153.908
52.08000 156.988
52.12000 153.188
52.16000 161.052
52.20000 161.385
52.24000 153.872
52.28000 157.343
52.32000 155.871
52.36000 165.323
52.40000 157.307
52.44000 154.597
52.48000 154.320
52.52000 164.708
52.56000 157.820
52.60000 164.629
52.64000 168.400
52.68000 162.406
52.72000 159.673
52.76000 168.834
52.80000 158.688
52.84000 153.910
52.88000 154.505
52.92000 154.295
52.96000 153.290
53.00000 151.175
53.04000 158.172
53.08000 150.239
53.12000 148.678
53.16000 153.271
53.20000 159.498
53.24000 156.781
53.28000 153.171
53.32000 157.713
53.36000 152.622
53.40000 157.731
53.44000 146.391
53.48000 156.476
53.52000 148.886
53.56000 146.304
53.60000 150.076
53.64000 152.259
53.68000 146.146
53.72000 150.519
53.76000 149.947
53.80000 158.194
53.84000 149.072
53.88000 139.842
53.92000 150.336
53.96000 140.563
54.00000 166.240
54.04000 158.571
54.08000 160.394
54.12000 143.347
54.16000 149.121
54.20000 155.659
54.24000 149.111
54.28000 138.359
54.32000 146.374
54.36000 155.596
54.40000 155.368
54.44000 154.385
54.48000 164.136
54.52000 152.433
54.56000 157.416
54.60000 141.877
54.64000 153.382
54.68000 147.173
54.72000 164.475
54.76000 152.978
54.80000 150.640
54.84000 147.370
54.88000 148.492
54.92000 151.380
54.96000 155.778
55.00000 138.753
55.04000 151.270
55.08000 154.087
55.12000 149.677
55.16000 158.586
55.20000 154.079
55.24000 144.691
55.28000 165.564
55.32000 165.116
55.36000 167.798
55.40000 169.706
55.44000 167.111
55.48000 183.982
55.52000 196.067
55.56000 223.147
55.60000 229.084
55.64000 267.577
55.68000 292.178
55.72000 306.307
55.76000 345.782
55.80000 354.721
55.84000 391.061
55.88000 408.893
55.92000 414.184
55.96000 404.068
56.00000 397.851
56.04000 387.736
56.08000 357.737
56.12000 335.554
56.16000 298.557
56.20000 283.010
56.24000 263.328
56.28000 246.314
56.32000 214.192
56.36000 201.515
56.40000 206.758
56.44000 192.645
56.48000 176.104
56.52000 175.412
56.56000 170.327
56.60000 162.370
56.64000 169.910
56.68000 164.418
56.72000 161.308
56.76000 144.452
56.80000 147.545
56.84000 155.675
56.88000 150.272
56.92000 150.392
56.96000 144.992
57.00000 150.033
57.04000 140.313
57.08000 143.361
57.12000 142.514
57.16000 136.213
57.20000 150.967
57.24000 135.712
57.28000 151.355
57.32000 140.978
57.36000 139.314
57.40000 141.297
57.44000 129.451
57.48000 136.449
57.52000 136.772
57.56000 136.862
57.60000 132.465
57.64000 132.733
57.68000 136.469
57.72000 141.134
57.76000 139.121
57.80000 136.597
57.84000 139.609
57.88000 143.719
57.92000 140.299
57.96000 135.026
58.00000 142.983
58.04000 132.464
58.08000 139.738
58.12000 129.155
58.16000 138.533
58.20000 138.014
58.24000 146.895
58.28000 137.256
58.32000 139.364
58.36000 138.380
58.40000 131.094
58.44000 121.041
58.48000 133.230
58.52000 130.678
58.56000 133.553
58.60000 140.553
58.64000 131.853
58.68000 135.332
58.72000 135.283
58.76000 135.213
58.80000 131.010
58.84000 138.447
58.88000 144.158
58.92000 132.731
58.96000 137.666
59.00000 138.248
59.04000 139.788
59.08000 133.383
59.12000 127.906
59.16000 133.275
59.20000 132.680
59.24000 135.452
59.28000 128.049
59.32000 128.889
59.36000 125.417
59.40000 132.726
59.44000 129.585
59.48000 126.361
59.52000 139.577
59.56000 130.141
59.60000 144.370
59.64000 138.979
59.68000 142.808
59.72000 137.829
59.76000 128.206
59.80000 124.746
59.84000 134.020
59.88000 122.459
59.92000 129.815
59.96000 129.925
60.00000 127.592
60.04000 133.176
60.08000 130.875
60.12000 138.081
60.16000 130.548
60.20000 134.490
60.24000 130.301
60.28000 129.033
60.32000 130.997
60.36000 135.331
60.40000 135.608
60.44000 133.582
60.48000 135.530
60.52000 130.839
60.56000 134.300
60.60000 131.402
60.64000 135.720
60.68000 131.209
60.72000 143.391
60.76000 129.367
60.80000 136.596
60.84000 127.499
60.88000 140.022
60.92000 137.388
60.96000 132.810
61.00000 135.589
61.04000 137.117
61.08000 126.479
61.12000 135.397
61.16000 136.392
61.20000 132.922
61.24000 134.933
61.28000 128.573
61.32000 133.027
61.36000 131.817
61.40000 135.499
61.44000 134.911
61.48000 148.291
61.52000 154.994
61.56000 201.330
61.60000 246.490
61.64000 271.737
61.68000 275.297
61.72000 301.875
61.76000 283.158
61.80000 236.170
61.84000 195.090
61.88000 154.750
61.92000 143.191
61.96000 142.095
62.00000 138.644
62.04000 133.749
62.08000 146.002
62.12000 144.743
62.16000 145.037
62.20000 137.371
62.24000 140.158
62.28000 138.878
62.32000 133.252
62.36000 138.422
62.40000 145.125
62.44000 141.524
62.48000 135.642
62.52000 138.771
62.56000 146.917
62.60000 140.441
62.64000 130.922
62.68000 141.300
62.72000 149.837
62.76000 145.094
62.80000 131.768
62.84000 137.807
62.88000 136.186
62.92000 145.944
62.96000 135.009
63.00000 133.754
63.04000 145.625
63.08000 149.065
63.12000 141.569
63.16000 153.227
63.20000 151.655
63.24000 156.452
63.28000 145.231
63.32000 150.711
63.36000 142.524
63.40000 141.690
63.44000 155.404
63.48000 151.168
63.52000 158.668
63.56000 144.768
63.60000 150.279
63.64000 154.801
63.68000 156.006
63.72000 159.159
63.76000 160.867
63.80000 161.745
63.84000 155.691
63.88000 148.082
63.92000 150.275
63.96000 156.872
64.00000 151.558
64.04000 151.443
64.08000 161.134
64.12000 172.548
64.16000 155.708
64.20000 168.339
64.24000 164.817
64.28000 162.535
64.32000 169.529
64.36000 167.906
64.40000 172.444
64.44000 172.148
64.48000 162.989
64.52000 160.815
64.56000 175.294
64.60000 172.621
64.64000 175.707
64.68000 178.879
64.72000 183.627
64.76000 185.470
64.80000 180.064
64.84000 190.778
64.88000 188.689
64.92000 190.801
64.96000 195.585
65.00000 193.909
65.04000 199.094
65.08000 194.820
65.12000 219.189
65.16000 226.056
65.20000 237.430
65.24000 233.548
65.28000 253.288
65.32000 253.564
65.36000 263.375
65.40000 267.989
65.44000 280.604
65.48000 294.076
65.52000 312.874
65.56000 308.640
65.60000 360.381
65.64000 379.599
65.68000 447.977
65.72000 591.900
65.76000 844.402
65.80000 1070.417
65.84000 1192.347
65.88000 1220.655
65.92000 1199.889
65.96000 1031.159
66.00000 745.549
66.04000 529.194
66.08000 396.416
66.12000 375.965
66.16000 339.715
66.20000 328.698
66.24000 322.358
66.28000 368.714
66.32000 432.986
66.36000 452.768
66.40000 464.321
66.44000 497.615
66.48000 488.634
66.52000 459.495
66.56000 395.911
66.60000 350.057
66.64000 348.439
66.68000 330.462
66.72000 329.272
66.76000 349.637
66.80000 342.179
66.84000 352.858
66.88000 346.783
66.92000 343.197
66.96000 359.572
67.00000 353.063
67.04000 367.610
67.08000 376.230
67.12000 372.557
67.16000 373.629
67.20000 403.097
67.24000 402.953
67.28000 393.571
67.32000 407.692
67.36000 390.277
67.40000 402.232
67.44000 457.052
67.48000 435.322
67.52000 437.184
67.56000 441.998
67.60000 467.224
67.64000 475.761
67.68000 465.123
67.72000 474.612
67.76000 470.535
67.80000 497.228
67.84000 515.779
67.88000 530.472
67.92000 535.122
67.96000 557.526
68.00000 561.531
68.04000 586.085
68.08000 572.260
68.12000 599.388
68.16000 599.247
68.20000 610.051
68.24000 642.745
68.28000 638.157
68.32000 679.649
68.36000 688.566
68.40000 722.223
68.44000 755.350
68.48000 823.519
68.52000 819.226
68.56000 912.992
68.60000 1028.023
68.64000 1199.638
68.68000 1418.689
68.72000 1639.035
68.76000 1876.554
68.80000 2168.443
68.84000 2508.862
68.88000 3160.445
68.92000 5197.198
68.96000 12671.545
69.00000 29173.807
69.04000 48740.137
69.08000 59528.965
69.12000 62184.754
69.16000 64744.039
69.20000 65548.727
69.24000 55275.359
69.28000 42731.359
69.32000 34369.340
69.36000 30786.936
69.40000 25973.834
69.44000 16498.410
69.48000 8004.008
69.52000 3510.035
69.56000 2068.385
69.60000 1597.472
69.64000 1365.374
69.68000 1194.443
69.72000 1034.186
69.76000 977.171
69.80000 891.322
69.84000 821.260
69.88000 777.695
69.92000 737.780
69.96000 714.378
70.00000 677.216