File: XRD/XRD/25-09-2025/XY Data/BTO_Mapping_Theta2Theta_25-09-2025_001_53_12-361_-38-042.xy
20.00000 582.406
20.04000 549.950
20.08000 562.711
20.12000 562.055
20.16000 562.424
20.20000 555.176
20.24000 557.479
20.28000 546.779
20.32000 571.447
20.36000 556.102
20.40000 571.972
20.44000 550.948
20.48000 567.238
20.52000 541.061
20.56000 551.788
20.60000 542.409
20.64000 547.086
20.68000 563.846
20.72000 534.703
20.76000 539.747
20.80000 541.804
20.84000 530.382
20.88000 549.530
20.92000 553.629
20.96000 547.705
21.00000 556.154
21.04000 567.495
21.08000 536.977
21.12000 535.398
21.16000 525.760
21.20000 515.039
21.24000 517.851
21.28000 544.482
21.32000 558.414
21.36000 544.517
21.40000 546.715
21.44000 556.647
21.48000 513.623
21.52000 540.862
21.56000 533.073
21.60000 540.320
21.64000 536.345
21.68000 558.851
21.72000 552.953
21.76000 538.861
21.80000 556.287
21.84000 572.927
21.88000 563.368
21.92000 583.042
21.96000 580.906
22.00000 614.310
22.04000 595.340
22.08000 652.145
22.12000 622.277
22.16000 645.361
22.20000 626.953
22.24000 624.426
22.28000 626.653
22.32000 597.131
22.36000 597.838
22.40000 573.688
22.44000 575.266
22.48000 583.662
22.52000 552.562
22.56000 543.104
22.60000 538.872
22.64000 531.389
22.68000 537.588
22.72000 521.666
22.76000 518.144
22.80000 503.653
22.84000 520.583
22.88000 521.346
22.92000 526.439
22.96000 518.735
23.00000 497.096
23.04000 506.537
23.08000 494.731
23.12000 501.891
23.16000 502.063
23.20000 488.639
23.24000 497.608
23.28000 511.476
23.32000 503.857
23.36000 501.584
23.40000 499.585
23.44000 491.628
23.48000 504.938
23.52000 497.787
23.56000 507.699
23.60000 496.127
23.64000 493.923
23.68000 515.893
23.72000 508.193
23.76000 495.295
23.80000 485.615
23.84000 487.014
23.88000 474.907
23.92000 479.943
23.96000 484.033
24.00000 506.580
24.04000 491.263
24.08000 494.441
24.12000 488.434
24.16000 492.738
24.20000 486.175
24.24000 493.885
24.28000 490.485
24.32000 486.658
24.36000 468.583
24.40000 476.618
24.44000 476.807
24.48000 483.025
24.52000 491.341
24.56000 477.394
24.60000 477.428
24.64000 479.169
24.68000 482.074
24.72000 479.228
24.76000 457.357
24.80000 462.523
24.84000 466.113
24.88000 470.731
24.92000 460.146
24.96000 448.397
25.00000 463.995
25.04000 484.021
25.08000 472.032
25.12000 468.444
25.16000 440.527
25.20000 449.241
25.24000 469.992
25.28000 479.200
25.32000 475.973
25.36000 463.730
25.40000 491.377
25.44000 463.172
25.48000 470.436
25.52000 473.349
25.56000 474.510
25.60000 465.476
25.64000 446.618
25.68000 464.988
25.72000 454.031
25.76000 468.828
25.80000 462.207
25.84000 449.375
25.88000 442.748
25.92000 475.189
25.96000 458.993
26.00000 446.522
26.04000 461.273
26.08000 459.012
26.12000 450.256
26.16000 444.474
26.20000 432.217
26.24000 441.001
26.28000 441.378
26.32000 447.819
26.36000 451.849
26.40000 450.546
26.44000 447.828
26.48000 439.662
26.52000 439.059
26.56000 426.654
26.60000 435.831
26.64000 432.474
26.68000 436.078
26.72000 438.250
26.76000 427.275
26.80000 443.000
26.84000 442.594
26.88000 441.185
26.92000 432.805
26.96000 430.653
27.00000 450.203
27.04000 458.748
27.08000 430.000
27.12000 439.435
27.16000 422.496
27.20000 425.156
27.24000 424.026
27.28000 424.862
27.32000 430.646
27.36000 441.730
27.40000 431.382
27.44000 438.699
27.48000 407.581
27.52000 420.784
27.56000 396.749
27.60000 428.965
27.64000 440.265
27.68000 423.318
27.72000 422.548
27.76000 428.673
27.80000 425.933
27.84000 421.951
27.88000 403.799
27.92000 414.003
27.96000 416.093
28.00000 433.632
28.04000 426.243
28.08000 434.461
28.12000 419.250
28.16000 425.438
28.20000 431.657
28.24000 418.098
28.28000 400.783
28.32000 417.691
28.36000 422.102
28.40000 427.104
28.44000 405.273
28.48000 438.017
28.52000 402.723
28.56000 392.698
28.60000 423.445
28.64000 416.410
28.68000 409.162
28.72000 426.467
28.76000 413.853
28.80000 422.311
28.84000 413.820
28.88000 413.931
28.92000 406.180
28.96000 418.220
29.00000 414.048
29.04000 419.746
29.08000 413.943
29.12000 403.646
29.16000 414.089
29.20000 408.182
29.24000 402.453
29.28000 394.000
29.32000 397.605
29.36000 403.380
29.40000 408.494
29.44000 405.772
29.48000 410.187
29.52000 397.523
29.56000 415.645
29.60000 390.190
29.64000 400.577
29.68000 397.216
29.72000 391.287
29.76000 406.237
29.80000 417.593
29.84000 408.362
29.88000 397.655
29.92000 397.130
29.96000 411.994
30.00000 414.642
30.04000 397.556
30.08000 413.400
30.12000 407.047
30.16000 402.017
30.20000 394.651
30.24000 392.441
30.28000 403.158
30.32000 395.252
30.36000 409.841
30.40000 410.514
30.44000 403.788
30.48000 408.477
30.52000 406.881
30.56000 391.541
30.60000 412.719
30.64000 418.669
30.68000 405.195
30.72000 420.435
30.76000 409.963
30.80000 403.292
30.84000 410.382
30.88000 425.699
30.92000 443.386
30.96000 451.913
31.00000 484.309
31.04000 510.996
31.08000 546.696
31.12000 620.210
31.16000 719.263
31.20000 846.076
31.24000 965.380
31.28000 1108.315
31.32000 1240.501
31.36000 1361.971
31.40000 1411.953
31.44000 1382.636
31.48000 1308.800
31.52000 1115.315
31.56000 1000.520
31.60000 869.303
31.64000 730.843
31.68000 649.962
31.72000 567.295
31.76000 533.959
31.80000 513.589
31.84000 458.048
31.88000 450.294
31.92000 442.876
31.96000 432.053
32.00000 443.937
32.04000 416.932
32.08000 401.884
32.12000 397.608
32.16000 407.770
32.20000 392.150
32.24000 387.896
32.28000 385.271
32.32000 377.703
32.36000 372.103
32.40000 368.746
32.44000 383.889
32.48000 385.660
32.52000 367.114
32.56000 372.879
32.60000 371.668
32.64000 357.903
32.68000 381.001
32.72000 365.690
32.76000 353.979
32.80000 366.202
32.84000 368.715
32.88000 378.556
32.92000 376.783
32.96000 379.277
33.00000 364.599
33.04000 361.646
33.08000 349.227
33.12000 355.819
33.16000 338.514
33.20000 336.143
33.24000 332.820
33.28000 349.611
33.32000 322.393
33.36000 338.635
33.40000 329.226
33.44000 339.305
33.48000 347.740
33.52000 336.222
33.56000 346.841
33.60000 332.330
33.64000 328.363
33.68000 345.696
33.72000 330.887
33.76000 342.420
33.80000 342.311
33.84000 314.347
33.88000 350.491
33.92000 322.894
33.96000 319.637
34.00000 344.509
34.04000 326.833
34.08000 333.773
34.12000 323.860
34.16000 321.917
34.20000 337.699
34.24000 313.207
34.28000 321.289
34.32000 318.645
34.36000 327.158
34.40000 304.669
34.44000 310.519
34.48000 310.211
34.52000 316.879
34.56000 313.700
34.60000 332.690
34.64000 310.607
34.68000 312.039
34.72000 320.776
34.76000 316.628
34.80000 319.969
34.84000 331.175
34.88000 313.802
34.92000 318.376
34.96000 308.663
35.00000 316.147
35.04000 323.945
35.08000 309.275
35.12000 329.153
35.16000 315.882
35.20000 314.402
35.24000 302.883
35.28000 300.385
35.32000 304.095
35.36000 298.517
35.40000 301.928
35.44000 303.374
35.48000 307.761
35.52000 304.163
35.56000 312.918
35.60000 302.005
35.64000 305.379
35.68000 306.043
35.72000 302.968
35.76000 310.202
35.80000 299.460
35.84000 297.667
35.88000 291.752
35.92000 289.223
35.96000 297.061
36.00000 301.375
36.04000 302.731
36.08000 290.398
36.12000 300.605
36.16000 275.761
36.20000 303.312
36.24000 299.467
36.28000 291.678
36.32000 284.805
36.36000 287.022
36.40000 310.627
36.44000 299.016
36.48000 285.709
36.52000 278.101
36.56000 266.371
36.60000 279.465
36.64000 284.928
36.68000 288.443
36.72000 280.191
36.76000 283.166
36.80000 296.396
36.84000 293.670
36.88000 285.163
36.92000 284.096
36.96000 297.493
37.00000 293.344
37.04000 302.289
37.08000 291.070
37.12000 308.942
37.16000 302.444
37.20000 294.353
37.24000 298.764
37.28000 290.508
37.32000 285.192
37.36000 285.055
37.40000 297.311
37.44000 287.615
37.48000 301.006
37.52000 289.671
37.56000 276.031
37.60000 287.075
37.64000 281.080
37.68000 286.184
37.72000 282.576
37.76000 279.221
37.80000 278.484
37.84000 281.545
37.88000 276.919
37.92000 287.612
37.96000 289.629
38.00000 295.028
38.04000 274.496
38.08000 280.732
38.12000 289.478
38.16000 284.062
38.20000 294.527
38.24000 293.628
38.28000 299.628
38.32000 306.382
38.36000 319.527
38.40000 348.640
38.44000 357.847
38.48000 388.715
38.52000 447.475
38.56000 518.709
38.60000 619.058
38.64000 682.200
38.68000 751.208
38.72000 795.408
38.76000 797.623
38.80000 778.690
38.84000 722.559
38.88000 659.827
38.92000 556.527
38.96000 466.377
39.00000 397.263
39.04000 356.120
39.08000 322.352
39.12000 314.057
39.16000 293.885
39.20000 281.635
39.24000 292.441
39.28000 258.328
39.32000 269.492
39.36000 277.595
39.40000 266.286
39.44000 265.513
39.48000 279.102
39.52000 266.061
39.56000 271.526
39.60000 254.934
39.64000 259.010
39.68000 248.209
39.72000 253.416
39.76000 262.050
39.80000 248.963
39.84000 253.616
39.88000 256.351
39.92000 255.276
39.96000 258.392
40.00000 261.961
40.04000 248.042
40.08000 260.295
40.12000 255.958
40.16000 253.508
40.20000 253.794
40.24000 265.206
40.28000 245.245
40.32000 244.301
40.36000 249.792
40.40000 264.794
40.44000 255.049
40.48000 249.281
40.52000 249.702
40.56000 242.149
40.60000 245.932
40.64000 249.107
40.68000 236.427
40.72000 250.726
40.76000 249.129
40.80000 239.592
40.84000 247.039
40.88000 248.203
40.92000 238.587
40.96000 245.444
41.00000 250.826
41.04000 245.012
41.08000 247.854
41.12000 240.430
41.16000 241.916
41.20000 240.860
41.24000 243.427
41.28000 224.619
41.32000 231.961
41.36000 250.645
41.40000 236.687
41.44000 221.114
41.48000 236.922
41.52000 228.659
41.56000 225.166
41.60000 234.938
41.64000 232.240
41.68000 238.602
41.72000 244.099
41.76000 232.613
41.80000 224.140
41.84000 231.763
41.88000 232.986
41.92000 231.748
41.96000 229.148
42.00000 229.915
42.04000 231.163
42.08000 239.613
42.12000 234.406
42.16000 224.741
42.20000 220.631
42.24000 228.099
42.28000 222.693
42.32000 222.348
42.36000 216.051
42.40000 229.954
42.44000 230.673
42.48000 235.503
42.52000 218.076
42.56000 226.916
42.60000 238.307
42.64000 229.211
42.68000 226.561
42.72000 226.780
42.76000 213.609
42.80000 214.954
42.84000 235.569
42.88000 222.780
42.92000 226.104
42.96000 213.601
43.00000 216.150
43.04000 215.449
43.08000 225.636
43.12000 235.833
43.16000 227.733
43.20000 214.280
43.24000 220.832
43.28000 225.623
43.32000 220.752
43.36000 220.324
43.40000 231.166
43.44000 236.823
43.48000 218.045
43.52000 224.944
43.56000 226.374
43.60000 228.234
43.64000 230.538
43.68000 225.912
43.72000 227.530
43.76000 227.233
43.80000 219.898
43.84000 218.908
43.88000 225.812
43.92000 230.038
43.96000 211.578
44.00000 205.995
44.04000 223.474
44.08000 218.085
44.12000 230.955
44.16000 215.725
44.20000 220.632
44.24000 231.254
44.28000 209.666
44.32000 215.928
44.36000 227.867
44.40000 209.384
44.44000 219.500
44.48000 208.161
44.52000 226.618
44.56000 221.124
44.60000 228.233
44.64000 227.839
44.68000 214.219
44.72000 227.535
44.76000 221.654
44.80000 244.084
44.84000 232.185
44.88000 249.758
44.92000 249.148
44.96000 244.413
45.00000 254.248
45.04000 262.216
45.08000 272.173
45.12000 273.078
45.16000 263.357
45.20000 281.502
45.24000 270.156
45.28000 263.910
45.32000 257.686
45.36000 244.451
45.40000 256.480
45.44000 262.750
45.48000 249.492
45.52000 259.000
45.56000 246.819
45.60000 245.245
45.64000 238.791
45.68000 238.187
45.72000 233.436
45.76000 228.681
45.80000 232.610
45.84000 239.030
45.88000 233.318
45.92000 231.132
45.96000 218.198
46.00000 228.276
46.04000 220.030
46.08000 230.961
46.12000 230.009
46.16000 206.963
46.20000 213.830
46.24000 212.087
46.28000 211.164
46.32000 213.171
46.36000 211.411
46.40000 221.989
46.44000 190.666
46.48000 200.707
46.52000 202.540
46.56000 201.041
46.60000 201.338
46.64000 202.801
46.68000 203.256
46.72000 209.868
46.76000 201.702
46.80000 187.235
46.84000 209.190
46.88000 194.932
46.92000 195.586
46.96000 195.365
47.00000 195.223
47.04000 193.458
47.08000 194.149
47.12000 190.764
47.16000 202.578
47.20000 193.729
47.24000 189.997
47.28000 193.238
47.32000 189.192
47.36000 189.847
47.40000 183.947
47.44000 178.154
47.48000 193.936
47.52000 190.843
47.56000 179.952
47.60000 178.784
47.64000 180.540
47.68000 193.566
47.72000 179.804
47.76000 174.808
47.80000 186.426
47.84000 177.989
47.88000 182.654
47.92000 181.480
47.96000 185.592
48.00000 184.647
48.04000 179.930
48.08000 175.874
48.12000 174.603
48.16000 170.022
48.20000 169.788
48.24000 171.617
48.28000 186.585
48.32000 174.562
48.36000 180.718
48.40000 176.671
48.44000 175.224
48.48000 177.016
48.52000 182.580
48.56000 172.846
48.60000 190.252
48.64000 179.988
48.68000 175.771
48.72000 180.156
48.76000 184.884
48.80000 185.219
48.84000 171.119
48.88000 171.789
48.92000 178.059
48.96000 176.465
49.00000 174.823
49.04000 176.233
49.08000 175.664
49.12000 177.132
49.16000 169.254
49.20000 172.947
49.24000 181.342
49.28000 169.595
49.32000 173.078
49.36000 173.536
49.40000 169.185
49.44000 174.730
49.48000 169.487
49.52000 184.559
49.56000 172.227
49.60000 167.502
49.64000 169.066
49.68000 184.212
49.72000 189.280
49.76000 171.281
49.80000 166.449
49.84000 174.601
49.88000 170.589
49.92000 178.059
49.96000 185.396
50.00000 171.942
50.04000 169.162
50.08000 181.222
50.12000 173.353
50.16000 167.447
50.20000 168.964
50.24000 183.449
50.28000 171.774
50.32000 179.308
50.36000 172.110
50.40000 186.952
50.44000 193.600
50.48000 196.081
50.52000 188.029
50.56000 194.881
50.60000 197.627
50.64000 189.781
50.68000 202.708
50.72000 201.438
50.76000 190.601
50.80000 196.472
50.84000 199.233
50.88000 207.699
50.92000 196.778
50.96000 190.092
51.00000 185.451
51.04000 192.407
51.08000 185.356
51.12000 175.628
51.16000 174.944
51.20000 161.562
51.24000 179.060
51.28000 168.832
51.32000 171.399
51.36000 161.523
51.40000 174.538
51.44000 161.191
51.48000 154.646
51.52000 157.073
51.56000 159.235
51.60000 153.192
51.64000 159.386
51.68000 166.263
51.72000 157.385
51.76000 158.795
51.80000 160.940
51.84000 156.555
51.88000 154.917
51.92000 161.915
51.96000 161.639
52.00000 158.296
52.04000 158.916
52.08000 156.214
52.12000 170.363
52.16000 160.043
52.20000 145.327
52.24000 148.314
52.28000 156.139
52.32000 155.675
52.36000 158.125
52.40000 161.949
52.44000 159.793
52.48000 156.867
52.52000 165.614
52.56000 161.203
52.60000 162.892
52.64000 154.761
52.68000 145.029
52.72000 156.735
52.76000 153.810
52.80000 165.618
52.84000 162.134
52.88000 154.378
52.92000 148.787
52.96000 150.244
53.00000 159.835
53.04000 147.740
53.08000 158.603
53.12000 156.219
53.16000 160.277
53.20000 161.792
53.24000 157.382
53.28000 151.433
53.32000 153.640
53.36000 150.451
53.40000 154.704
53.44000 152.223
53.48000 155.519
53.52000 152.191
53.56000 156.403
53.60000 144.343
53.64000 150.831
53.68000 168.244
53.72000 149.799
53.76000 158.111
53.80000 150.561
53.84000 154.923
53.88000 159.475
53.92000 154.149
53.96000 150.644
54.00000 146.981
54.04000 147.615
54.08000 152.300
54.12000 148.307
54.16000 151.496
54.20000 160.691
54.24000 157.066
54.28000 152.126
54.32000 141.962
54.36000 154.956
54.40000 154.306
54.44000 143.725
54.48000 144.190
54.52000 156.314
54.56000 145.180
54.60000 167.511
54.64000 155.812
54.68000 142.246
54.72000 154.143
54.76000 147.892
54.80000 147.961
54.84000 155.047
54.88000 157.595
54.92000 151.447
54.96000 149.494
55.00000 144.839
55.04000 154.990
55.08000 145.195
55.12000 141.126
55.16000 165.491
55.20000 158.445
55.24000 153.282
55.28000 152.501
55.32000 159.325
55.36000 152.429
55.40000 165.625
55.44000 172.396
55.48000 179.148
55.52000 178.150
55.56000 198.619
55.60000 212.056
55.64000 235.642
55.68000 250.912
55.72000 296.333
55.76000 325.598
55.80000 354.466
55.84000 393.761
55.88000 427.479
55.92000 452.310
55.96000 460.593
56.00000 458.646
56.04000 423.351
56.08000 419.586
56.12000 396.730
56.16000 368.641
56.20000 326.250
56.24000 298.283
56.28000 278.321
56.32000 250.521
56.36000 227.458
56.40000 216.337
56.44000 204.150
56.48000 176.791
56.52000 171.894
56.56000 172.113
56.60000 164.279
56.64000 147.846
56.68000 157.375
56.72000 158.557
56.76000 151.766
56.80000 156.588
56.84000 154.995
56.88000 150.734
56.92000 145.084
56.96000 144.129
57.00000 148.908
57.04000 135.444
57.08000 147.345
57.12000 150.000
57.16000 139.254
57.20000 157.515
57.24000 135.669
57.28000 141.791
57.32000 145.005
57.36000 145.805
57.40000 143.765
57.44000 136.737
57.48000 143.735
57.52000 139.738
57.56000 141.534
57.60000 137.690
57.64000 133.983
57.68000 146.307
57.72000 132.754
57.76000 145.267
57.80000 134.203
57.84000 139.894
57.88000 132.762
57.92000 136.416
57.96000 136.562
58.00000 149.506
58.04000 139.810
58.08000 136.590
58.12000 148.613
58.16000 134.735
58.20000 136.164
58.24000 136.366
58.28000 136.996
58.32000 146.768
58.36000 138.945
58.40000 145.591
58.44000 134.341
58.48000 140.191
58.52000 144.026
58.56000 137.670
58.60000 134.522
58.64000 132.865
58.68000 134.024
58.72000 137.830
58.76000 149.038
58.80000 140.804
58.84000 129.814
58.88000 141.254
58.92000 129.845
58.96000 122.843
59.00000 129.228
59.04000 128.313
59.08000 136.585
59.12000 136.507
59.16000 136.255
59.20000 132.275
59.24000 139.453
59.28000 133.388
59.32000 135.911
59.36000 141.405
59.40000 125.075
59.44000 129.519
59.48000 148.219
59.52000 143.165
59.56000 126.017
59.60000 137.545
59.64000 128.542
59.68000 123.704
59.72000 140.029
59.76000 141.138
59.80000 133.636
59.84000 138.717
59.88000 131.407
59.92000 128.950
59.96000 136.042
60.00000 128.168
60.04000 137.562
60.08000 134.356
60.12000 147.402
60.16000 128.922
60.20000 135.615
60.24000 134.915
60.28000 123.256
60.32000 120.728
60.36000 125.054
60.40000 132.583
60.44000 129.638
60.48000 129.371
60.52000 128.125
60.56000 131.394
60.60000 128.697
60.64000 132.223
60.68000 127.110
60.72000 131.773
60.76000 137.783
60.80000 138.481
60.84000 133.944
60.88000 142.677
60.92000 129.170
60.96000 138.118
61.00000 127.464
61.04000 136.625
61.08000 133.710
61.12000 141.133
61.16000 140.019
61.20000 141.704
61.24000 141.490
61.28000 138.501
61.32000 140.027
61.36000 140.156
61.40000 136.980
61.44000 135.843
61.48000 132.979
61.52000 150.023
61.56000 190.359
61.60000 223.779
61.64000 252.139
61.68000 248.799
61.72000 269.693
61.76000 247.847
61.80000 220.058
61.84000 185.347
61.88000 158.186
61.92000 149.285
61.96000 140.177
62.00000 136.055
62.04000 132.637
62.08000 134.919
62.12000 134.379
62.16000 142.879
62.20000 138.909
62.24000 140.245
62.28000 129.838
62.32000 134.017
62.36000 143.656
62.40000 131.192
62.44000 138.073
62.48000 128.343
62.52000 140.608
62.56000 134.966
62.60000 136.669
62.64000 143.801
62.68000 147.747
62.72000 134.330
62.76000 138.071
62.80000 141.827
62.84000 145.807
62.88000 144.030
62.92000 147.233
62.96000 152.562
63.00000 145.470
63.04000 138.829
63.08000 135.923
63.12000 136.434
63.16000 139.335
63.20000 145.799
63.24000 143.187
63.28000 148.106
63.32000 135.510
63.36000 137.698
63.40000 143.889
63.44000 148.221
63.48000 148.802
63.52000 148.642
63.56000 152.283
63.60000 156.123
63.64000 149.871
63.68000 141.661
63.72000 147.132
63.76000 149.616
63.80000 159.164
63.84000 165.014
63.88000 148.958
63.92000 157.001
63.96000 159.229
64.00000 171.509
64.04000 163.088
64.08000 156.650
64.12000 160.120
64.16000 158.001
64.20000 162.600
64.24000 150.346
64.28000 163.553
64.32000 148.905
64.36000 154.652
64.40000 161.296
64.44000 157.441
64.48000 170.146
64.52000 170.314
64.56000 154.634
64.60000 173.441
64.64000 166.382
64.68000 176.959
64.72000 174.802
64.76000 183.233
64.80000 173.702
64.84000 189.309
64.88000 182.440
64.92000 170.113
64.96000 190.284
65.00000 186.532
65.04000 194.678
65.08000 192.233
65.12000 195.148
65.16000 204.638
65.20000 209.442
65.24000 221.026
65.28000 214.967
65.32000 225.491
65.36000 224.707
65.40000 243.596
65.44000 257.024
65.48000 253.940
65.52000 276.155
65.56000 284.045
65.60000 322.207
65.64000 324.260
65.68000 353.919
65.72000 500.646
65.76000 724.531
65.80000 916.615
65.84000 1044.559
65.88000 1048.936
65.92000 1068.458
65.96000 907.972
66.00000 666.126
66.04000 473.173
66.08000 374.485
66.12000 339.865
66.16000 309.676
66.20000 310.334
66.24000 325.712
66.28000 340.126
66.32000 375.443
66.36000 417.839
66.40000 435.229
66.44000 432.087
66.48000 458.712
66.52000 430.455
66.56000 369.526
66.60000 338.962
66.64000 321.663
66.68000 322.469
66.72000 318.186
66.76000 322.188
66.80000 319.008
66.84000 320.519
66.88000 323.273
66.92000 333.768
66.96000 348.230
67.00000 340.286
67.04000 322.184
67.08000 358.967
67.12000 367.176
67.16000 381.595
67.20000 375.949
67.24000 371.083
67.28000 390.278
67.32000 384.215
67.36000 391.415
67.40000 399.932
67.44000 416.411
67.48000 412.308
67.52000 437.641
67.56000 406.567
67.60000 453.213
67.64000 441.706
67.68000 454.218
67.72000 453.888
67.76000 470.621
67.80000 471.607
67.84000 479.434
67.88000 497.337
67.92000 507.419
67.96000 513.172
68.00000 527.348
68.04000 536.485
68.08000 552.547
68.12000 580.635
68.16000 588.175
68.20000 569.208
68.24000 608.323
68.28000 632.942
68.32000 635.364
68.36000 654.267
68.40000 681.440
68.44000 705.250
68.48000 751.430
68.52000 810.718
68.56000 872.368
68.60000 927.483
68.64000 1059.985
68.68000 1279.665
68.72000 1464.207
68.76000 1692.651
68.80000 1939.584
68.84000 2200.000
68.88000 2663.631
68.92000 4201.031
68.96000 10382.109
69.00000 24673.279
69.04000 41611.793
69.08000 51637.930
69.12000 53892.836
69.16000 56035.090
69.20000 57200.594
69.24000 48998.215
69.28000 37248.516
69.32000 29859.416
69.36000 26955.010
69.40000 22987.230
69.44000 14852.557
69.48000 7079.813
69.52000 3168.391
69.56000 1950.048
69.60000 1514.471
69.64000 1217.561
69.68000 1118.570
69.72000 987.163
69.76000 934.147
69.80000 842.694
69.84000 793.959
69.88000 731.102
69.92000 710.844
69.96000 691.698
70.00000 666.407