File: XRD/XRD/25-09-2025/XY Data/BTO_Mapping_Theta2Theta_25-09-2025_001_61_36-542_-16-269.xy
20.00000 575.711
20.04000 552.668
20.08000 545.880
20.12000 551.303
20.16000 563.307
20.20000 548.917
20.24000 543.466
20.28000 542.691
20.32000 540.677
20.36000 559.965
20.40000 568.816
20.44000 545.391
20.48000 532.183
20.52000 550.909
20.56000 557.412
20.60000 544.404
20.64000 552.466
20.68000 558.717
20.72000 556.680
20.76000 548.862
20.80000 537.933
20.84000 535.681
20.88000 540.791
20.92000 551.309
20.96000 546.584
21.00000 543.216
21.04000 534.745
21.08000 554.709
21.12000 551.477
21.16000 551.743
21.20000 546.872
21.24000 560.864
21.28000 533.110
21.32000 551.595
21.36000 545.798
21.40000 558.646
21.44000 527.717
21.48000 551.406
21.52000 557.939
21.56000 537.270
21.60000 542.946
21.64000 549.035
21.68000 550.533
21.72000 542.758
21.76000 531.235
21.80000 545.225
21.84000 566.297
21.88000 556.250
21.92000 590.847
21.96000 568.211
22.00000 587.008
22.04000 579.247
22.08000 581.134
22.12000 595.221
22.16000 605.188
22.20000 606.926
22.24000 618.163
22.28000 579.957
22.32000 585.310
22.36000 578.100
22.40000 556.817
22.44000 549.546
22.48000 546.005
22.52000 547.148
22.56000 539.850
22.60000 531.741
22.64000 538.757
22.68000 534.489
22.72000 523.675
22.76000 523.037
22.80000 516.370
22.84000 518.950
22.88000 514.410
22.92000 521.692
22.96000 509.268
23.00000 511.435
23.04000 505.630
23.08000 506.982
23.12000 480.486
23.16000 490.377
23.20000 496.954
23.24000 499.996
23.28000 499.521
23.32000 509.420
23.36000 507.847
23.40000 487.939
23.44000 495.788
23.48000 496.039
23.52000 493.495
23.56000 492.495
23.60000 488.745
23.64000 495.364
23.68000 481.553
23.72000 486.450
23.76000 478.869
23.80000 491.809
23.84000 505.006
23.88000 497.525
23.92000 477.951
23.96000 497.959
24.00000 498.057
24.04000 479.230
24.08000 503.263
24.12000 494.688
24.16000 501.911
24.20000 476.768
24.24000 478.130
24.28000 488.299
24.32000 472.261
24.36000 467.978
24.40000 477.920
24.44000 473.216
24.48000 478.764
24.52000 479.551
24.56000 489.085
24.60000 466.059
24.64000 479.859
24.68000 457.484
24.72000 468.606
24.76000 468.265
24.80000 473.409
24.84000 455.683
24.88000 469.344
24.92000 494.188
24.96000 472.395
25.00000 476.607
25.04000 463.088
25.08000 471.268
25.12000 472.382
25.16000 476.857
25.20000 447.390
25.24000 463.850
25.28000 452.813
25.32000 478.940
25.36000 470.605
25.40000 466.552
25.44000 451.186
25.48000 469.177
25.52000 473.289
25.56000 475.987
25.60000 452.531
25.64000 467.670
25.68000 458.799
25.72000 462.833
25.76000 462.677
25.80000 454.694
25.84000 460.253
25.88000 461.592
25.92000 455.908
25.96000 432.604
26.00000 433.973
26.04000 451.779
26.08000 445.476
26.12000 453.614
26.16000 475.485
26.20000 447.129
26.24000 447.065
26.28000 459.520
26.32000 447.057
26.36000 438.461
26.40000 449.587
26.44000 468.944
26.48000 446.802
26.52000 437.904
26.56000 436.190
26.60000 446.616
26.64000 432.291
26.68000 433.243
26.72000 440.093
26.76000 429.892
26.80000 442.024
26.84000 457.176
26.88000 438.387
26.92000 448.064
26.96000 429.447
27.00000 430.921
27.04000 442.235
27.08000 410.259
27.12000 423.385
27.16000 459.863
27.20000 437.260
27.24000 429.603
27.28000 425.921
27.32000 430.992
27.36000 425.089
27.40000 427.126
27.44000 419.682
27.48000 434.379
27.52000 430.132
27.56000 434.687
27.60000 434.497
27.64000 436.445
27.68000 463.237
27.72000 424.570
27.76000 438.808
27.80000 420.746
27.84000 429.778
27.88000 418.671
27.92000 430.161
27.96000 418.509
28.00000 421.619
28.04000 431.811
28.08000 436.962
28.12000 427.893
28.16000 429.571
28.20000 420.158
28.24000 414.267
28.28000 396.984
28.32000 408.551
28.36000 413.295
28.40000 420.992
28.44000 428.471
28.48000 415.903
28.52000 402.628
28.56000 424.784
28.60000 412.234
28.64000 423.422
28.68000 417.723
28.72000 404.925
28.76000 436.255
28.80000 423.086
28.84000 419.712
28.88000 388.787
28.92000 419.651
28.96000 400.065
29.00000 410.902
29.04000 400.336
29.08000 407.846
29.12000 416.099
29.16000 413.351
29.20000 401.720
29.24000 433.737
29.28000 405.467
29.32000 415.081
29.36000 401.499
29.40000 403.428
29.44000 387.615
29.48000 398.347
29.52000 401.945
29.56000 420.391
29.60000 407.052
29.64000 396.512
29.68000 401.225
29.72000 391.582
29.76000 399.059
29.80000 409.389
29.84000 407.690
29.88000 410.711
29.92000 402.687
29.96000 412.761
30.00000 414.937
30.04000 415.936
30.08000 421.888
30.12000 418.881
30.16000 414.912
30.20000 418.768
30.24000 417.135
30.28000 413.251
30.32000 405.301
30.36000 396.547
30.40000 405.060
30.44000 412.347
30.48000 429.802
30.52000 407.814
30.56000 401.409
30.60000 414.085
30.64000 424.175
30.68000 409.972
30.72000 418.870
30.76000 425.984
30.80000 428.368
30.84000 423.428
30.88000 442.193
30.92000 449.848
30.96000 472.244
31.00000 490.312
31.04000 525.857
31.08000 553.166
31.12000 620.166
31.16000 693.329
31.20000 796.796
31.24000 926.200
31.28000 1038.179
31.32000 1158.254
31.36000 1269.853
31.40000 1265.197
31.44000 1252.027
31.48000 1216.559
31.52000 1129.819
31.56000 1010.391
31.60000 886.104
31.64000 775.101
31.68000 700.106
31.72000 624.054
31.76000 545.191
31.80000 510.497
31.84000 487.662
31.88000 456.563
31.92000 463.158
31.96000 423.420
32.00000 413.842
32.04000 402.625
32.08000 409.729
32.12000 396.432
32.16000 388.686
32.20000 396.406
32.24000 405.158
32.28000 382.938
32.32000 392.293
32.36000 387.898
32.40000 387.260
32.44000 363.178
32.48000 368.922
32.52000 354.962
32.56000 367.712
32.60000 373.682
32.64000 370.516
32.68000 365.873
32.72000 354.754
32.76000 365.848
32.80000 358.132
32.84000 373.837
32.88000 367.292
32.92000 361.285
32.96000 353.063
33.00000 373.796
33.04000 372.311
33.08000 372.914
33.12000 336.867
33.16000 342.386
33.20000 350.154
33.24000 347.641
33.28000 341.425
33.32000 342.083
33.36000 338.695
33.40000 355.403
33.44000 351.731
33.48000 323.340
33.52000 327.775
33.56000 347.369
33.60000 353.188
33.64000 332.019
33.68000 334.681
33.72000 318.514
33.76000 329.432
33.80000 331.214
33.84000 329.398
33.88000 334.234
33.92000 321.449
33.96000 320.574
34.00000 332.694
34.04000 327.788
34.08000 323.574
34.12000 319.732
34.16000 320.602
34.20000 329.257
34.24000 323.191
34.28000 319.280
34.32000 329.568
34.36000 314.291
34.40000 316.533
34.44000 336.617
34.48000 319.065
34.52000 338.389
34.56000 332.527
34.60000 321.299
34.64000 321.556
34.68000 324.267
34.72000 314.514
34.76000 325.034
34.80000 317.117
34.84000 322.697
34.88000 313.914
34.92000 314.743
34.96000 312.611
35.00000 301.897
35.04000 301.161
35.08000 302.451
35.12000 325.769
35.16000 313.014
35.20000 317.139
35.24000 309.596
35.28000 307.178
35.32000 305.303
35.36000 313.907
35.40000 310.684
35.44000 291.310
35.48000 310.061
35.52000 303.760
35.56000 317.657
35.60000 309.613
35.64000 278.812
35.68000 294.895
35.72000 303.250
35.76000 304.336
35.80000 307.830
35.84000 310.192
35.88000 297.662
35.92000 305.652
35.96000 301.112
36.00000 300.882
36.04000 302.275
36.08000 309.731
36.12000 295.374
36.16000 286.538
36.20000 308.769
36.24000 296.819
36.28000 308.708
36.32000 274.257
36.36000 291.221
36.40000 302.492
36.44000 299.055
36.48000 305.598
36.52000 310.849
36.56000 292.368
36.60000 292.093
36.64000 281.716
36.68000 296.265
36.72000 296.417
36.76000 289.021
36.80000 301.678
36.84000 287.171
36.88000 297.432
36.92000 306.754
36.96000 289.940
37.00000 286.690
37.04000 295.101
37.08000 296.922
37.12000 284.661
37.16000 273.010
37.20000 274.603
37.24000 290.986
37.28000 299.596
37.32000 275.183
37.36000 288.224
37.40000 255.059
37.44000 280.972
37.48000 281.013
37.52000 271.033
37.56000 288.870
37.60000 279.559
37.64000 283.972
37.68000 273.378
37.72000 283.379
37.76000 287.527
37.80000 290.881
37.84000 285.967
37.88000 274.574
37.92000 295.366
37.96000 286.208
38.00000 279.018
38.04000 294.387
38.08000 283.357
38.12000 297.838
38.16000 288.339
38.20000 292.536
38.24000 300.572
38.28000 306.011
38.32000 299.858
38.36000 313.577
38.40000 323.616
38.44000 330.516
38.48000 369.774
38.52000 430.066
38.56000 476.460
38.60000 549.671
38.64000 568.490
38.68000 618.665
38.72000 636.763
38.76000 587.462
38.80000 588.054
38.84000 519.799
38.88000 453.313
38.92000 402.760
38.96000 373.126
39.00000 335.559
39.04000 312.917
39.08000 289.411
39.12000 277.734
39.16000 277.213
39.20000 287.495
39.24000 290.961
39.28000 267.499
39.32000 273.332
39.36000 278.051
39.40000 265.866
39.44000 273.865
39.48000 265.458
39.52000 266.634
39.56000 266.254
39.60000 258.833
39.64000 261.023
39.68000 272.672
39.72000 271.074
39.76000 258.063
39.80000 260.903
39.84000 257.285
39.88000 249.999
39.92000 252.214
39.96000 261.549
40.00000 254.003
40.04000 248.880
40.08000 259.087
40.12000 254.081
40.16000 262.305
40.20000 244.894
40.24000 249.404
40.28000 264.487
40.32000 262.746
40.36000 255.344
40.40000 263.892
40.44000 246.162
40.48000 237.464
40.52000 249.532
40.56000 254.196
40.60000 243.688
40.64000 253.443
40.68000 256.769
40.72000 250.879
40.76000 249.628
40.80000 249.074
40.84000 253.512
40.88000 250.384
40.92000 264.806
40.96000 249.780
41.00000 248.303
41.04000 251.255
41.08000 239.346
41.12000 236.256
41.16000 251.323
41.20000 236.390
41.24000 260.394
41.28000 239.083
41.32000 243.491
41.36000 225.073
41.40000 240.185
41.44000 229.869
41.48000 241.998
41.52000 241.272
41.56000 254.595
41.60000 241.150
41.64000 219.844
41.68000 233.435
41.72000 229.447
41.76000 231.584
41.80000 228.520
41.84000 214.491
41.88000 249.293
41.92000 234.283
41.96000 236.607
42.00000 231.047
42.04000 243.712
42.08000 238.545
42.12000 226.030
42.16000 228.359
42.20000 238.814
42.24000 225.993
42.28000 218.414
42.32000 237.647
42.36000 234.569
42.40000 236.540
42.44000 246.882
42.48000 223.980
42.52000 219.776
42.56000 218.173
42.60000 233.614
42.64000 235.614
42.68000 226.372
42.72000 218.715
42.76000 222.211
42.80000 225.609
42.84000 237.870
42.88000 218.193
42.92000 224.793
42.96000 223.395
43.00000 217.444
43.04000 235.925
43.08000 231.706
43.12000 208.735
43.16000 226.943
43.20000 224.228
43.24000 218.428
43.28000 233.768
43.32000 223.221
43.36000 221.058
43.40000 228.300
43.44000 235.610
43.48000 231.200
43.52000 214.331
43.56000 221.307
43.60000 214.250
43.64000 216.710
43.68000 215.369
43.72000 220.163
43.76000 220.995
43.80000 224.354
43.84000 215.602
43.88000 212.064
43.92000 216.407
43.96000 216.445
44.00000 217.366
44.04000 206.254
44.08000 216.489
44.12000 208.065
44.16000 225.858
44.20000 222.603
44.24000 219.041
44.28000 219.784
44.32000 221.653
44.36000 221.556
44.40000 217.613
44.44000 207.910
44.48000 224.299
44.52000 225.399
44.56000 224.869
44.60000 232.957
44.64000 226.057
44.68000 226.164
44.72000 214.748
44.76000 216.601
44.80000 227.943
44.84000 238.900
44.88000 231.852
44.92000 240.270
44.96000 242.720
45.00000 243.125
45.04000 233.778
45.08000 227.962
45.12000 237.539
45.16000 233.407
45.20000 261.436
45.24000 257.865
45.28000 235.101
45.32000 265.851
45.36000 253.898
45.40000 246.318
45.44000 244.361
45.48000 242.159
45.52000 249.194
45.56000 237.597
45.60000 246.020
45.64000 239.253
45.68000 226.850
45.72000 236.423
45.76000 218.529
45.80000 220.961
45.84000 221.570
45.88000 213.820
45.92000 206.517
45.96000 208.951
46.00000 195.132
46.04000 209.652
46.08000 198.579
46.12000 200.089
46.16000 202.717
46.20000 195.184
46.24000 205.634
46.28000 202.100
46.32000 200.766
46.36000 219.556
46.40000 203.743
46.44000 206.630
46.48000 195.570
46.52000 207.221
46.56000 197.235
46.60000 197.592
46.64000 208.985
46.68000 207.555
46.72000 196.261
46.76000 188.812
46.80000 204.798
46.84000 189.320
46.88000 197.178
46.92000 201.438
46.96000 194.502
47.00000 185.080
47.04000 195.544
47.08000 196.765
47.12000 189.799
47.16000 186.462
47.20000 185.868
47.24000 190.226
47.28000 189.263
47.32000 193.608
47.36000 172.258
47.40000 181.431
47.44000 190.409
47.48000 188.223
47.52000 190.951
47.56000 190.605
47.60000 177.004
47.64000 174.465
47.68000 195.471
47.72000 184.607
47.76000 167.678
47.80000 182.704
47.84000 178.009
47.88000 189.966
47.92000 186.932
47.96000 183.004
48.00000 174.823
48.04000 174.056
48.08000 181.879
48.12000 185.438
48.16000 177.513
48.20000 185.427
48.24000 175.001
48.28000 173.584
48.32000 175.364
48.36000 180.913
48.40000 181.442
48.44000 192.136
48.48000 189.783
48.52000 178.767
48.56000 177.392
48.60000 187.548
48.64000 185.501
48.68000 173.679
48.72000 187.656
48.76000 180.100
48.80000 166.492
48.84000 178.178
48.88000 166.421
48.92000 169.083
48.96000 178.517
49.00000 185.435
49.04000 181.332
49.08000 179.180
49.12000 186.869
49.16000 181.949
49.20000 187.433
49.24000 171.125
49.28000 182.659
49.32000 176.754
49.36000 172.264
49.40000 185.010
49.44000 168.675
49.48000 175.447
49.52000 179.927
49.56000 175.333
49.60000 179.772
49.64000 180.172
49.68000 172.443
49.72000 165.798
49.76000 175.292
49.80000 168.751
49.84000 172.159
49.88000 179.618
49.92000 183.517
49.96000 180.233
50.00000 170.988
50.04000 178.322
50.08000 182.637
50.12000 172.977
50.16000 172.424
50.20000 169.657
50.24000 181.965
50.28000 180.098
50.32000 169.796
50.36000 171.592
50.40000 164.462
50.44000 175.969
50.48000 184.958
50.52000 187.459
50.56000 173.608
50.60000 175.561
50.64000 179.674
50.68000 183.085
50.72000 190.397
50.76000 192.420
50.80000 175.199
50.84000 186.475
50.88000 171.152
50.92000 177.681
50.96000 170.412
51.00000 184.246
51.04000 187.929
51.08000 159.412
51.12000 178.721
51.16000 172.018
51.20000 166.667
51.24000 162.199
51.28000 160.274
51.32000 174.750
51.36000 165.561
51.40000 168.329
51.44000 174.119
51.48000 160.458
51.52000 161.084
51.56000 166.860
51.60000 156.085
51.64000 155.468
51.68000 162.042
51.72000 154.884
51.76000 151.199
51.80000 169.214
51.84000 159.641
51.88000 152.626
51.92000 163.245
51.96000 163.084
52.00000 158.948
52.04000 152.320
52.08000 165.442
52.12000 165.519
52.16000 165.844
52.20000 163.730
52.24000 158.888
52.28000 168.015
52.32000 164.077
52.36000 162.353
52.40000 154.553
52.44000 157.836
52.48000 152.679
52.52000 170.578
52.56000 154.262
52.60000 154.562
52.64000 160.606
52.68000 152.929
52.72000 164.755
52.76000 161.654
52.80000 157.166
52.84000 157.921
52.88000 159.817
52.92000 159.514
52.96000 160.233
53.00000 159.447
53.04000 155.539
53.08000 155.884
53.12000 167.791
53.16000 165.427
53.20000 158.540
53.24000 160.003
53.28000 157.392
53.32000 158.696
53.36000 148.748
53.40000 147.112
53.44000 159.130
53.48000 149.709
53.52000 157.682
53.56000 164.676
53.60000 162.947
53.64000 149.874
53.68000 156.736
53.72000 151.419
53.76000 151.689
53.80000 152.375
53.84000 159.195
53.88000 152.202
53.92000 154.366
53.96000 159.262
54.00000 155.848
54.04000 145.757
54.08000 143.071
54.12000 151.784
54.16000 149.148
54.20000 153.884
54.24000 153.325
54.28000 153.524
54.32000 167.132
54.36000 148.929
54.40000 154.028
54.44000 153.164
54.48000 153.269
54.52000 148.965
54.56000 152.308
54.60000 141.813
54.64000 156.533
54.68000 145.906
54.72000 159.555
54.76000 159.578
54.80000 146.098
54.84000 158.565
54.88000 156.706
54.92000 159.725
54.96000 151.048
55.00000 163.186
55.04000 150.045
55.08000 149.854
55.12000 166.947
55.16000 158.323
55.20000 143.883
55.24000 164.121
55.28000 167.470
55.32000 158.999
55.36000 165.050
55.40000 174.522
55.44000 174.946
55.48000 163.067
55.52000 181.488
55.56000 192.006
55.60000 191.953
55.64000 211.116
55.68000 222.937
55.72000 246.797
55.76000 251.033
55.80000 265.370
55.84000 306.783
55.88000 294.203
55.92000 309.385
55.96000 332.360
56.00000 314.549
56.04000 302.514
56.08000 284.918
56.12000 263.426
56.16000 264.121
56.20000 245.408
56.24000 233.725
56.28000 219.805
56.32000 197.824
56.36000 171.735
56.40000 187.584
56.44000 180.174
56.48000 169.775
56.52000 167.141
56.56000 170.665
56.60000 167.961
56.64000 164.234
56.68000 160.196
56.72000 151.911
56.76000 154.866
56.80000 148.053
56.84000 139.915
56.88000 143.995
56.92000 140.296
56.96000 141.298
57.00000 149.780
57.04000 146.791
57.08000 143.029
57.12000 150.382
57.16000 141.700
57.20000 129.186
57.24000 140.888
57.28000 139.283
57.32000 149.221
57.36000 153.748
57.40000 141.546
57.44000 150.707
57.48000 144.877
57.52000 138.188
57.56000 143.417
57.60000 134.462
57.64000 140.042
57.68000 146.256
57.72000 146.496
57.76000 150.070
57.80000 133.525
57.84000 141.938
57.88000 143.594
57.92000 137.354
57.96000 141.438
58.00000 145.831
58.04000 134.358
58.08000 142.593
58.12000 142.616
58.16000 136.869
58.20000 141.538
58.24000 134.505
58.28000 138.401
58.32000 134.372
58.36000 130.374
58.40000 134.802
58.44000 137.575
58.48000 140.408
58.52000 144.819
58.56000 145.848
58.60000 142.485
58.64000 128.934
58.68000 132.885
58.72000 129.392
58.76000 136.552
58.80000 126.911
58.84000 129.459
58.88000 136.231
58.92000 135.613
58.96000 132.911
59.00000 134.953
59.04000 130.973
59.08000 130.151
59.12000 141.496
59.16000 114.550
59.20000 139.847
59.24000 134.648
59.28000 133.875
59.32000 139.227
59.36000 146.848
59.40000 140.464
59.44000 139.920
59.48000 142.341
59.52000 133.828
59.56000 134.853
59.60000 129.929
59.64000 131.130
59.68000 136.785
59.72000 136.867
59.76000 137.931
59.80000 125.924
59.84000 132.371
59.88000 128.594
59.92000 138.126
59.96000 136.040
60.00000 128.751
60.04000 138.280
60.08000 124.169
60.12000 127.932
60.16000 127.914
60.20000 132.879
60.24000 143.258
60.28000 129.957
60.32000 134.919
60.36000 138.144
60.40000 133.175
60.44000 133.466
60.48000 122.197
60.52000 127.511
60.56000 129.445
60.60000 127.960
60.64000 123.595
60.68000 144.195
60.72000 132.588
60.76000 133.182
60.80000 138.297
60.84000 128.846
60.88000 139.047
60.92000 136.450
60.96000 136.370
61.00000 132.214
61.04000 135.626
61.08000 133.195
61.12000 127.446
61.16000 139.426
61.20000 141.866
61.24000 138.563
61.28000 148.505
61.32000 132.277
61.36000 132.787
61.40000 139.281
61.44000 141.045
61.48000 149.483
61.52000 161.192
61.56000 190.993
61.60000 227.113
61.64000 252.139
61.68000 268.271
61.72000 266.047
61.76000 256.037
61.80000 212.311
61.84000 177.916
61.88000 165.705
61.92000 140.116
61.96000 146.726
62.00000 148.012
62.04000 145.631
62.08000 138.697
62.12000 138.633
62.16000 139.911
62.20000 136.855
62.24000 138.274
62.28000 148.719
62.32000 143.739
62.36000 145.281
62.40000 141.633
62.44000 136.709
62.48000 132.991
62.52000 143.380
62.56000 144.902
62.60000 135.260
62.64000 147.039
62.68000 143.968
62.72000 143.069
62.76000 134.517
62.80000 138.982
62.84000 145.690
62.88000 143.835
62.92000 143.101
62.96000 142.406
63.00000 158.430
63.04000 139.874
63.08000 152.758
63.12000 158.027
63.16000 147.991
63.20000 154.151
63.24000 147.419
63.28000 157.883
63.32000 146.973
63.36000 152.270
63.40000 145.494
63.44000 146.875
63.48000 143.541
63.52000 156.466
63.56000 153.218
63.60000 150.715
63.64000 156.291
63.68000 157.019
63.72000 144.478
63.76000 150.703
63.80000 149.748
63.84000 146.997
63.88000 152.544
63.92000 147.120
63.96000 162.860
64.00000 158.811
64.04000 162.185
64.08000 156.069
64.12000 152.389
64.16000 153.512
64.20000 165.390
64.24000 167.900
64.28000 163.227
64.32000 168.382
64.36000 168.506
64.40000 163.962
64.44000 159.207
64.48000 170.212
64.52000 168.564
64.56000 177.752
64.60000 174.319
64.64000 172.252
64.68000 165.520
64.72000 170.393
64.76000 194.474
64.80000 183.647
64.84000 179.915
64.88000 186.709
64.92000 192.678
64.96000 182.697
65.00000 188.830
65.04000 189.175
65.08000 198.998
65.12000 205.369
65.16000 202.633
65.20000 209.232
65.24000 213.092
65.28000 226.266
65.32000 231.672
65.36000 244.934
65.40000 243.606
65.44000 253.363
65.48000 254.168
65.52000 281.792
65.56000 296.630
65.60000 300.939
65.64000 318.300
65.68000 372.149
65.72000 513.775
65.76000 704.804
65.80000 916.032
65.84000 1002.062
65.88000 1053.954
65.92000 1074.056
65.96000 919.058
66.00000 710.799
66.04000 476.880
66.08000 350.527
66.12000 322.169
66.16000 309.776
66.20000 301.018
66.24000 316.647
66.28000 338.149
66.32000 379.889
66.36000 432.333
66.40000 454.397
66.44000 445.409
66.48000 429.936
66.52000 425.211
66.56000 374.947
66.60000 322.186
66.64000 333.136
66.68000 332.829
66.72000 319.266
66.76000 317.051
66.80000 315.038
66.84000 327.332
66.88000 332.950
66.92000 337.906
66.96000 343.628
67.00000 336.245
67.04000 368.193
67.08000 368.651
67.12000 346.312
67.16000 370.273
67.20000 380.608
67.24000 387.695
67.28000 369.347
67.32000 396.849
67.36000 389.917
67.40000 417.037
67.44000 419.596
67.48000 415.831
67.52000 415.788
67.56000 441.112
67.60000 454.521
67.64000 443.330
67.68000 467.627
67.72000 471.736
67.76000 485.982
67.80000 487.448
67.84000 481.876
67.88000 520.008
67.92000 519.296
67.96000 525.043
68.00000 523.773
68.04000 537.994
68.08000 576.477
68.12000 563.467
68.16000 595.261
68.20000 588.572
68.24000 617.677
68.28000 638.428
68.32000 649.377
68.36000 688.339
68.40000 685.808
68.44000 712.681
68.48000 757.146
68.52000 790.041
68.56000 838.452
68.60000 947.884
68.64000 1073.345
68.68000 1266.068
68.72000 1420.192
68.76000 1674.535
68.80000 1840.681
68.84000 2130.956
68.88000 2582.651
68.92000 3879.671
68.96000 9600.260
69.00000 23496.250
69.04000 40882.590
69.08000 51128.332
69.12000 53288.363
69.16000 55238.391
69.20000 56807.059
69.24000 49305.066
69.28000 37014.531
69.32000 29673.262
69.36000 26755.252
69.40000 23176.496
69.44000 15197.284
69.48000 7176.413
69.52000 3126.835
69.56000 1908.885
69.60000 1515.696
69.64000 1273.752
69.68000 1118.068
69.72000 1001.583
69.76000 913.286
69.80000 846.424
69.84000 814.612
69.88000 738.671
69.92000 715.920
69.96000 689.382
70.00000 662.793