File: XRD/XRD/25-09-2025/XY Data/BTO_Mapping_Theta2Theta_25-09-2025_001_46_-1-045_-9-945.xy
20.00000 547.725
20.04000 552.141
20.08000 563.638
20.12000 553.832
20.16000 533.588
20.20000 521.550
20.24000 536.597
20.28000 548.203
20.32000 547.891
20.36000 542.276
20.40000 543.385
20.44000 552.203
20.48000 547.271
20.52000 545.477
20.56000 532.797
20.60000 569.209
20.64000 563.415
20.68000 560.576
20.72000 533.026
20.76000 548.647
20.80000 558.920
20.84000 535.736
20.88000 535.098
20.92000 538.629
20.96000 573.071
21.00000 551.587
21.04000 536.121
21.08000 556.162
21.12000 542.027
21.16000 538.639
21.20000 535.599
21.24000 526.781
21.28000 523.313
21.32000 543.546
21.36000 527.468
21.40000 532.197
21.44000 554.203
21.48000 531.663
21.52000 536.040
21.56000 549.376
21.60000 538.949
21.64000 555.189
21.68000 559.321
21.72000 552.268
21.76000 562.063
21.80000 573.670
21.84000 589.654
21.88000 596.070
21.92000 599.032
21.96000 620.006
22.00000 626.576
22.04000 645.338
22.08000 640.994
22.12000 634.141
22.16000 669.576
22.20000 644.697
22.24000 629.020
22.28000 615.529
22.32000 603.095
22.36000 606.544
22.40000 615.227
22.44000 567.604
22.48000 563.158
22.52000 562.649
22.56000 556.639
22.60000 535.271
22.64000 552.053
22.68000 537.455
22.72000 500.919
22.76000 506.732
22.80000 514.178
22.84000 529.621
22.88000 536.164
22.92000 477.753
22.96000 514.658
23.00000 514.424
23.04000 500.061
23.08000 497.792
23.12000 486.963
23.16000 496.095
23.20000 511.466
23.24000 501.854
23.28000 496.012
23.32000 501.724
23.36000 504.746
23.40000 500.019
23.44000 512.533
23.48000 478.552
23.52000 493.494
23.56000 480.166
23.60000 491.962
23.64000 487.817
23.68000 490.159
23.72000 500.821
23.76000 486.387
23.80000 483.840
23.84000 505.002
23.88000 503.790
23.92000 495.147
23.96000 489.949
24.00000 484.675
24.04000 454.265
24.08000 480.237
24.12000 474.679
24.16000 479.834
24.20000 480.021
24.24000 454.168
24.28000 475.602
24.32000 473.079
24.36000 464.741
24.40000 473.549
24.44000 480.817
24.48000 470.579
24.52000 479.359
24.56000 493.703
24.60000 488.049
24.64000 476.057
24.68000 483.815
24.72000 473.916
24.76000 491.460
24.80000 483.453
24.84000 480.207
24.88000 461.485
24.92000 480.425
24.96000 477.101
25.00000 480.743
25.04000 466.007
25.08000 497.294
25.12000 482.592
25.16000 468.706
25.20000 461.097
25.24000 471.435
25.28000 447.767
25.32000 458.476
25.36000 454.585
25.40000 478.030
25.44000 461.954
25.48000 462.732
25.52000 458.066
25.56000 462.161
25.60000 437.757
25.64000 463.556
25.68000 466.196
25.72000 472.840
25.76000 446.246
25.80000 468.669
25.84000 459.385
25.88000 458.545
25.92000 461.555
25.96000 462.718
26.00000 441.893
26.04000 460.388
26.08000 476.422
26.12000 435.569
26.16000 437.575
26.20000 459.678
26.24000 464.173
26.28000 444.826
26.32000 450.753
26.36000 451.285
26.40000 450.336
26.44000 454.205
26.48000 437.470
26.52000 441.936
26.56000 425.636
26.60000 431.834
26.64000 418.773
26.68000 449.856
26.72000 434.586
26.76000 445.798
26.80000 420.173
26.84000 430.806
26.88000 433.155
26.92000 422.973
26.96000 437.406
27.00000 462.312
27.04000 438.194
27.08000 437.358
27.12000 442.699
27.16000 449.867
27.20000 444.807
27.24000 435.224
27.28000 447.978
27.32000 450.338
27.36000 457.888
27.40000 425.198
27.44000 422.610
27.48000 413.699
27.52000 432.744
27.56000 425.286
27.60000 418.884
27.64000 423.745
27.68000 414.383
27.72000 421.320
27.76000 412.017
27.80000 429.876
27.84000 420.040
27.88000 411.885
27.92000 431.171
27.96000 410.346
28.00000 418.730
28.04000 423.968
28.08000 423.953
28.12000 416.006
28.16000 439.630
28.20000 429.451
28.24000 437.012
28.28000 423.441
28.32000 427.470
28.36000 413.935
28.40000 422.028
28.44000 406.979
28.48000 424.426
28.52000 410.664
28.56000 416.903
28.60000 419.138
28.64000 409.303
28.68000 409.626
28.72000 439.190
28.76000 420.808
28.80000 408.385
28.84000 412.080
28.88000 411.342
28.92000 404.093
28.96000 407.617
29.00000 401.232
29.04000 389.527
29.08000 412.347
29.12000 406.069
29.16000 402.154
29.20000 407.231
29.24000 400.004
29.28000 417.498
29.32000 414.785
29.36000 393.314
29.40000 408.415
29.44000 404.247
29.48000 386.169
29.52000 415.220
29.56000 401.626
29.60000 383.485
29.64000 402.388
29.68000 409.868
29.72000 401.119
29.76000 404.447
29.80000 397.521
29.84000 408.152
29.88000 400.402
29.92000 411.902
29.96000 420.486
30.00000 399.838
30.04000 404.291
30.08000 412.161
30.12000 420.580
30.16000 419.176
30.20000 411.563
30.24000 413.910
30.28000 427.820
30.32000 399.409
30.36000 406.004
30.40000 417.350
30.44000 406.812
30.48000 384.351
30.52000 408.380
30.56000 399.774
30.60000 421.059
30.64000 412.372
30.68000 409.601
30.72000 418.723
30.76000 402.948
30.80000 436.278
30.84000 439.016
30.88000 439.743
30.92000 451.777
30.96000 475.981
31.00000 504.080
31.04000 571.202
31.08000 618.354
31.12000 750.373
31.16000 872.080
31.20000 1084.001
31.24000 1313.724
31.28000 1479.266
31.32000 1657.644
31.36000 1731.544
31.40000 1746.705
31.44000 1729.683
31.48000 1631.317
31.52000 1426.737
31.56000 1210.942
31.60000 1023.909
31.64000 830.257
31.68000 706.931
31.72000 628.709
31.76000 574.283
31.80000 515.713
31.84000 482.564
31.88000 471.845
31.92000 409.208
31.96000 422.051
32.00000 404.375
32.04000 414.841
32.08000 406.771
32.12000 407.003
32.16000 384.939
32.20000 378.500
32.24000 382.962
32.28000 374.040
32.32000 389.976
32.36000 386.454
32.40000 379.157
32.44000 385.672
32.48000 366.378
32.52000 374.980
32.56000 374.150
32.60000 360.733
32.64000 356.541
32.68000 357.615
32.72000 358.740
32.76000 382.637
32.80000 368.784
32.84000 395.892
32.88000 364.832
32.92000 368.510
32.96000 368.422
33.00000 383.134
33.04000 362.694
33.08000 350.513
33.12000 353.579
33.16000 342.943
33.20000 339.951
33.24000 352.255
33.28000 345.660
33.32000 327.191
33.36000 340.629
33.40000 350.994
33.44000 324.361
33.48000 319.251
33.52000 334.495
33.56000 354.795
33.60000 328.776
33.64000 331.804
33.68000 322.036
33.72000 323.839
33.76000 341.391
33.80000 312.868
33.84000 333.461
33.88000 315.843
33.92000 328.207
33.96000 336.111
34.00000 321.599
34.04000 319.016
34.08000 323.208
34.12000 318.922
34.16000 330.501
34.20000 327.801
34.24000 329.034
34.28000 322.800
34.32000 322.682
34.36000 318.842
34.40000 310.042
34.44000 316.877
34.48000 315.335
34.52000 337.716
34.56000 305.340
34.60000 323.125
34.64000 330.211
34.68000 312.436
34.72000 316.845
34.76000 316.265
34.80000 320.633
34.84000 317.912
34.88000 317.114
34.92000 331.520
34.96000 318.589
35.00000 313.797
35.04000 318.282
35.08000 310.326
35.12000 308.491
35.16000 318.085
35.20000 298.671
35.24000 298.614
35.28000 309.269
35.32000 318.398
35.36000 303.388
35.40000 326.099
35.44000 315.697
35.48000 304.450
35.52000 309.806
35.56000 296.171
35.60000 308.029
35.64000 301.618
35.68000 305.437
35.72000 320.719
35.76000 298.147
35.80000 294.588
35.84000 306.701
35.88000 307.137
35.92000 309.913
35.96000 312.039
36.00000 302.400
36.04000 296.074
36.08000 303.068
36.12000 303.208
36.16000 298.124
36.20000 298.620
36.24000 298.446
36.28000 305.982
36.32000 294.252
36.36000 289.109
36.40000 291.620
36.44000 302.047
36.48000 288.528
36.52000 302.956
36.56000 273.367
36.60000 299.320
36.64000 296.706
36.68000 311.105
36.72000 294.337
36.76000 298.069
36.80000 283.577
36.84000 292.327
36.88000 303.042
36.92000 299.566
36.96000 300.876
37.00000 301.915
37.04000 304.944
37.08000 307.930
37.12000 293.918
37.16000 288.103
37.20000 311.482
37.24000 281.182
37.28000 284.229
37.32000 289.413
37.36000 273.328
37.40000 287.171
37.44000 289.013
37.48000 291.455
37.52000 265.526
37.56000 286.557
37.60000 272.102
37.64000 288.206
37.68000 300.247
37.72000 292.952
37.76000 277.599
37.80000 272.960
37.84000 271.621
37.88000 279.173
37.92000 286.888
37.96000 278.573
38.00000 287.397
38.04000 284.525
38.08000 278.936
38.12000 281.104
38.16000 285.633
38.20000 290.956
38.24000 285.376
38.28000 292.618
38.32000 315.983
38.36000 336.372
38.40000 350.681
38.44000 375.029
38.48000 445.376
38.52000 526.047
38.56000 561.958
38.60000 658.626
38.64000 737.002
38.68000 795.425
38.72000 778.918
38.76000 770.485
38.80000 720.300
38.84000 662.996
38.88000 581.197
38.92000 491.027
38.96000 445.036
39.00000 388.202
39.04000 354.684
39.08000 326.331
39.12000 321.386
39.16000 308.374
39.20000 292.693
39.24000 275.713
39.28000 287.400
39.32000 274.330
39.36000 272.703
39.40000 271.234
39.44000 276.015
39.48000 255.507
39.52000 254.649
39.56000 259.363
39.60000 266.298
39.64000 258.882
39.68000 262.277
39.72000 257.272
39.76000 261.710
39.80000 267.125
39.84000 251.955
39.88000 256.910
39.92000 254.217
39.96000 265.113
40.00000 269.007
40.04000 255.397
40.08000 258.321
40.12000 273.138
40.16000 258.777
40.20000 249.293
40.24000 261.674
40.28000 255.378
40.32000 269.116
40.36000 247.612
40.40000 257.051
40.44000 254.463
40.48000 244.499
40.52000 256.532
40.56000 247.128
40.60000 249.980
40.64000 243.701
40.68000 249.455
40.72000 239.064
40.76000 235.703
40.80000 238.620
40.84000 243.693
40.88000 243.018
40.92000 236.658
40.96000 247.909
41.00000 248.162
41.04000 231.511
41.08000 241.377
41.12000 243.263
41.16000 247.206
41.20000 239.669
41.24000 239.384
41.28000 238.697
41.32000 240.530
41.36000 258.528
41.40000 233.373
41.44000 236.001
41.48000 233.685
41.52000 244.315
41.56000 243.680
41.60000 227.729
41.64000 234.702
41.68000 225.481
41.72000 234.140
41.76000 242.286
41.80000 229.759
41.84000 219.568
41.88000 233.772
41.92000 247.386
41.96000 228.234
42.00000 237.469
42.04000 236.635
42.08000 231.308
42.12000 236.341
42.16000 230.787
42.20000 236.724
42.24000 228.146
42.28000 237.075
42.32000 236.676
42.36000 239.912
42.40000 238.064
42.44000 228.701
42.48000 220.763
42.52000 217.220
42.56000 230.639
42.60000 228.861
42.64000 231.080
42.68000 241.138
42.72000 226.632
42.76000 229.417
42.80000 207.569
42.84000 222.259
42.88000 225.072
42.92000 226.663
42.96000 215.239
43.00000 227.485
43.04000 228.892
43.08000 222.613
43.12000 218.171
43.16000 221.083
43.20000 236.181
43.24000 223.491
43.28000 224.275
43.32000 237.414
43.36000 223.108
43.40000 213.512
43.44000 226.346
43.48000 217.044
43.52000 231.243
43.56000 232.274
43.60000 220.432
43.64000 218.807
43.68000 229.780
43.72000 217.065
43.76000 228.304
43.80000 226.630
43.84000 218.645
43.88000 221.035
43.92000 226.878
43.96000 202.964
44.00000 223.235
44.04000 223.176
44.08000 215.734
44.12000 208.954
44.16000 214.368
44.20000 218.467
44.24000 216.938
44.28000 204.256
44.32000 205.970
44.36000 208.630
44.40000 215.061
44.44000 212.905
44.48000 220.759
44.52000 213.226
44.56000 225.918
44.60000 222.369
44.64000 230.359
44.68000 224.151
44.72000 233.076
44.76000 246.847
44.80000 248.183
44.84000 250.194
44.88000 235.544
44.92000 270.620
44.96000 275.412
45.00000 271.996
45.04000 282.796
45.08000 287.806
45.12000 287.177
45.16000 290.322
45.20000 297.081
45.24000 296.619
45.28000 262.338
45.32000 282.566
45.36000 296.702
45.40000 264.034
45.44000 276.875
45.48000 263.786
45.52000 274.573
45.56000 259.181
45.60000 239.123
45.64000 250.789
45.68000 254.302
45.72000 246.333
45.76000 243.982
45.80000 242.730
45.84000 228.674
45.88000 240.610
45.92000 213.651
45.96000 225.247
46.00000 217.897
46.04000 221.181
46.08000 218.480
46.12000 214.863
46.16000 217.345
46.20000 209.947
46.24000 207.897
46.28000 206.076
46.32000 197.191
46.36000 204.290
46.40000 196.971
46.44000 203.253
46.48000 197.764
46.52000 193.920
46.56000 195.538
46.60000 202.885
46.64000 219.805
46.68000 203.391
46.72000 191.032
46.76000 190.394
46.80000 179.121
46.84000 188.209
46.88000 196.389
46.92000 198.760
46.96000 199.413
47.00000 200.819
47.04000 194.654
47.08000 198.224
47.12000 186.819
47.16000 187.471
47.20000 193.056
47.24000 186.259
47.28000 193.940
47.32000 194.286
47.36000 174.723
47.40000 183.327
47.44000 191.840
47.48000 192.981
47.52000 181.139
47.56000 196.687
47.60000 177.790
47.64000 182.541
47.68000 180.367
47.72000 176.724
47.76000 181.121
47.80000 184.256
47.84000 195.442
47.88000 183.952
47.92000 189.071
47.96000 183.334
48.00000 167.596
48.04000 192.992
48.08000 180.851
48.12000 176.339
48.16000 184.155
48.20000 190.012
48.24000 176.534
48.28000 182.552
48.32000 184.963
48.36000 181.531
48.40000 174.178
48.44000 177.053
48.48000 175.739
48.52000 170.402
48.56000 186.638
48.60000 183.351
48.64000 175.962
48.68000 180.745
48.72000 189.336
48.76000 184.178
48.80000 179.914
48.84000 180.707
48.88000 184.597
48.92000 186.979
48.96000 185.596
49.00000 170.919
49.04000 177.125
49.08000 178.340
49.12000 161.911
49.16000 172.347
49.20000 171.707
49.24000 185.303
49.28000 177.665
49.32000 176.048
49.36000 173.917
49.40000 177.228
49.44000 171.703
49.48000 170.658
49.52000 175.378
49.56000 179.878
49.60000 168.568
49.64000 175.571
49.68000 179.119
49.72000 167.845
49.76000 172.694
49.80000 181.495
49.84000 179.200
49.88000 179.759
49.92000 178.189
49.96000 179.720
50.00000 171.745
50.04000 168.907
50.08000 172.098
50.12000 169.598
50.16000 185.242
50.20000 176.840
50.24000 172.914
50.28000 174.652
50.32000 186.650
50.36000 183.554
50.40000 190.773
50.44000 186.077
50.48000 184.712
50.52000 195.379
50.56000 203.224
50.60000 205.544
50.64000 212.978
50.68000 207.944
50.72000 212.374
50.76000 213.697
50.80000 198.777
50.84000 198.152
50.88000 203.349
50.92000 199.009
50.96000 206.787
51.00000 182.924
51.04000 179.866
51.08000 170.677
51.12000 173.399
51.16000 174.481
51.20000 175.793
51.24000 173.479
51.28000 169.593
51.32000 169.462
51.36000 162.135
51.40000 160.506
51.44000 157.439
51.48000 161.354
51.52000 164.603
51.56000 165.157
51.60000 168.317
51.64000 159.115
51.68000 150.632
51.72000 160.400
51.76000 164.968
51.80000 161.012
51.84000 156.878
51.88000 163.476
51.92000 164.126
51.96000 161.155
52.00000 158.986
52.04000 151.532
52.08000 161.482
52.12000 166.291
52.16000 158.645
52.20000 156.884
52.24000 153.028
52.28000 159.301
52.32000 152.888
52.36000 161.296
52.40000 154.501
52.44000 154.814
52.48000 153.480
52.52000 137.923
52.56000 163.810
52.60000 163.316
52.64000 154.169
52.68000 162.298
52.72000 156.808
52.76000 150.887
52.80000 160.406
52.84000 152.483
52.88000 153.500
52.92000 154.038
52.96000 153.095
53.00000 162.241
53.04000 158.568
53.08000 152.343
53.12000 157.111
53.16000 157.929
53.20000 151.065
53.24000 153.322
53.28000 155.281
53.32000 155.062
53.36000 150.849
53.40000 155.430
53.44000 150.471
53.48000 162.309
53.52000 156.604
53.56000 156.265
53.60000 159.730
53.64000 166.705
53.68000 157.819
53.72000 152.558
53.76000 154.482
53.80000 152.751
53.84000 153.404
53.88000 163.865
53.92000 147.889
53.96000 152.624
54.00000 153.670
54.04000 159.020
54.08000 145.314
54.12000 157.841
54.16000 156.220
54.20000 152.634
54.24000 153.326
54.28000 155.521
54.32000 161.609
54.36000 149.214
54.40000 153.939
54.44000 142.860
54.48000 141.085
54.52000 152.280
54.56000 151.410
54.60000 165.262
54.64000 153.574
54.68000 150.386
54.72000 146.448
54.76000 152.840
54.80000 155.148
54.84000 146.807
54.88000 152.858
54.92000 161.829
54.96000 143.086
55.00000 149.842
55.04000 154.231
55.08000 149.819
55.12000 166.071
55.16000 155.197
55.20000 153.964
55.24000 161.984
55.28000 166.026
55.32000 166.757
55.36000 164.135
55.40000 171.774
55.44000 170.685
55.48000 188.382
55.52000 203.003
55.56000 215.543
55.60000 229.531
55.64000 274.236
55.68000 295.332
55.72000 323.053
55.76000 359.162
55.80000 389.953
55.84000 438.173
55.88000 444.017
55.92000 438.308
55.96000 473.370
56.00000 450.298
56.04000 422.022
56.08000 398.386
56.12000 357.505
56.16000 334.573
56.20000 302.742
56.24000 274.011
56.28000 252.179
56.32000 222.506
56.36000 208.296
56.40000 204.047
56.44000 196.178
56.48000 171.893
56.52000 178.317
56.56000 164.202
56.60000 173.925
56.64000 160.296
56.68000 157.187
56.72000 144.416
56.76000 149.773
56.80000 164.297
56.84000 153.260
56.88000 160.571
56.92000 135.921
56.96000 141.486
57.00000 150.026
57.04000 150.040
57.08000 147.040
57.12000 147.142
57.16000 137.279
57.20000 143.934
57.24000 139.557
57.28000 143.959
57.32000 135.373
57.36000 137.788
57.40000 156.875
57.44000 138.802
57.48000 146.358
57.52000 148.338
57.56000 139.434
57.60000 143.580
57.64000 140.692
57.68000 139.285
57.72000 131.724
57.76000 135.888
57.80000 134.620
57.84000 144.364
57.88000 148.221
57.92000 143.120
57.96000 133.190
58.00000 139.675
58.04000 145.829
58.08000 138.114
58.12000 134.794
58.16000 136.276
58.20000 136.431
58.24000 140.231
58.28000 138.132
58.32000 141.740
58.36000 131.640
58.40000 133.994
58.44000 146.549
58.48000 126.509
58.52000 130.964
58.56000 136.579
58.60000 131.045
58.64000 129.329
58.68000 130.616
58.72000 129.160
58.76000 145.301
58.80000 138.874
58.84000 135.548
58.88000 142.954
58.92000 126.728
58.96000 143.476
59.00000 128.080
59.04000 139.479
59.08000 131.567
59.12000 129.580
59.16000 130.905
59.20000 138.298
59.24000 133.678
59.28000 143.227
59.32000 138.656
59.36000 131.973
59.40000 131.257
59.44000 127.042
59.48000 137.897
59.52000 130.820
59.56000 138.599
59.60000 128.116
59.64000 134.461
59.68000 137.907
59.72000 130.953
59.76000 125.771
59.80000 133.419
59.84000 121.401
59.88000 131.769
59.92000 133.962
59.96000 138.299
60.00000 139.792
60.04000 127.372
60.08000 134.732
60.12000 138.579
60.16000 134.223
60.20000 136.516
60.24000 130.333
60.28000 132.422
60.32000 130.181
60.36000 140.212
60.40000 141.355
60.44000 134.495
60.48000 135.334
60.52000 129.337
60.56000 131.861
60.60000 132.144
60.64000 123.427
60.68000 126.225
60.72000 128.563
60.76000 132.437
60.80000 136.466
60.84000 130.544
60.88000 135.159
60.92000 139.217
60.96000 133.684
61.00000 135.268
61.04000 157.601
61.08000 135.330
61.12000 145.953
61.16000 134.174
61.20000 144.482
61.24000 131.953
61.28000 139.598
61.32000 137.182
61.36000 133.517
61.40000 142.281
61.44000 136.377
61.48000 147.282
61.52000 165.295
61.56000 193.290
61.60000 229.363
61.64000 247.309
61.68000 270.224
61.72000 270.635
61.76000 268.077
61.80000 217.808
61.84000 181.980
61.88000 153.154
61.92000 152.521
61.96000 150.061
62.00000 141.392
62.04000 139.044
62.08000 131.578
62.12000 140.095
62.16000 136.703
62.20000 138.949
62.24000 142.441
62.28000 138.819
62.32000 137.119
62.36000 136.453
62.40000 142.905
62.44000 139.616
62.48000 148.259
62.52000 130.948
62.56000 138.525
62.60000 145.394
62.64000 142.726
62.68000 141.990
62.72000 140.742
62.76000 140.303
62.80000 145.220
62.84000 148.959
62.88000 123.876
62.92000 138.949
62.96000 147.135
63.00000 156.515
63.04000 152.647
63.08000 147.052
63.12000 153.867
63.16000 140.484
63.20000 151.348
63.24000 143.438
63.28000 149.360
63.32000 143.592
63.36000 146.336
63.40000 141.820
63.44000 135.506
63.48000 136.729
63.52000 155.716
63.56000 142.228
63.60000 158.129
63.64000 138.900
63.68000 150.801
63.72000 150.913
63.76000 151.261
63.80000 155.309
63.84000 151.263
63.88000 161.157
63.92000 156.709
63.96000 157.054
64.00000 154.716
64.04000 156.017
64.08000 156.947
64.12000 155.695
64.16000 158.156
64.20000 163.480
64.24000 169.458
64.28000 159.057
64.32000 162.361
64.36000 166.528
64.40000 173.463
64.44000 161.693
64.48000 175.078
64.52000 167.141
64.56000 171.563
64.60000 163.116
64.64000 176.387
64.68000 169.104
64.72000 174.219
64.76000 179.753
64.80000 175.024
64.84000 177.492
64.88000 177.414
64.92000 181.885
64.96000 192.194
65.00000 197.959
65.04000 195.343
65.08000 199.304
65.12000 202.043
65.16000 214.299
65.20000 215.455
65.24000 231.155
65.28000 221.429
65.32000 246.494
65.36000 243.284
65.40000 252.865
65.44000 260.221
65.48000 289.227
65.52000 300.197
65.56000 318.913
65.60000 309.129
65.64000 360.654
65.68000 421.414
65.72000 583.541
65.76000 790.800
65.80000 989.639
65.84000 1098.548
65.88000 1088.764
65.92000 1083.275
65.96000 921.099
66.00000 698.267
66.04000 470.958
66.08000 370.860
66.12000 323.803
66.16000 311.564
66.20000 299.701
66.24000 315.215
66.28000 354.954
66.32000 395.773
66.36000 442.876
66.40000 464.386
66.44000 451.554
66.48000 450.625
66.52000 428.529
66.56000 382.424
66.60000 335.734
66.64000 343.033
66.68000 317.351
66.72000 339.392
66.76000 310.701
66.80000 314.439
66.84000 324.292
66.88000 339.870
66.92000 332.179
66.96000 340.793
67.00000 361.071
67.04000 345.052
67.08000 354.228
67.12000 360.744
67.16000 378.031
67.20000 384.175
67.24000 394.826
67.28000 399.857
67.32000 386.102
67.36000 414.164
67.40000 393.121
67.44000 403.134
67.48000 439.280
67.52000 441.709
67.56000 438.987
67.60000 441.941
67.64000 459.733
67.68000 472.296
67.72000 459.592
67.76000 471.647
67.80000 483.735
67.84000 483.856
67.88000 517.768
67.92000 517.357
67.96000 508.185
68.00000 517.422
68.04000 558.412
68.08000 569.942
68.12000 576.948
68.16000 580.389
68.20000 621.899
68.24000 612.389
68.28000 623.939
68.32000 648.545
68.36000 665.663
68.40000 695.361
68.44000 732.008
68.48000 767.431
68.52000 813.320
68.56000 884.146
68.60000 991.357
68.64000 1109.353
68.68000 1305.254
68.72000 1561.152
68.76000 1775.244
68.80000 1998.922
68.84000 2350.843
68.88000 2946.712
68.92000 4869.909
68.96000 12430.143
69.00000 28098.113
69.04000 45252.086
69.08000 54028.875
69.12000 55844.371
69.16000 58403.922
69.20000 58792.863
69.24000 48812.996
69.28000 37126.875
69.32000 30355.381
69.36000 27532.217
69.40000 22734.156
69.44000 13925.932
69.48000 6589.508
69.52000 2942.714
69.56000 1924.468
69.60000 1496.997
69.64000 1298.570
69.68000 1142.117
69.72000 1019.967
69.76000 902.307
69.80000 873.494
69.84000 809.120
69.88000 748.115
69.92000 717.390
69.96000 702.935
70.00000 663.354