File: XRD/XRD/25-09-2025/XY Data/BTO_Mapping_Theta2Theta_25-09-2025_001_02_10-000_0-000.xy
20.00000 536.091
20.04000 553.527
20.08000 546.184
20.12000 564.249
20.16000 536.917
20.20000 557.722
20.24000 552.718
20.28000 542.270
20.32000 558.462
20.36000 552.143
20.40000 559.838
20.44000 552.514
20.48000 566.335
20.52000 538.924
20.56000 525.983
20.60000 548.958
20.64000 552.630
20.68000 541.460
20.72000 561.478
20.76000 543.406
20.80000 535.485
20.84000 539.162
20.88000 546.284
20.92000 517.825
20.96000 544.650
21.00000 544.126
21.04000 530.676
21.08000 526.734
21.12000 530.729
21.16000 531.128
21.20000 545.407
21.24000 544.618
21.28000 526.955
21.32000 537.490
21.36000 542.139
21.40000 550.652
21.44000 528.186
21.48000 518.958
21.52000 524.224
21.56000 541.397
21.60000 535.692
21.64000 547.467
21.68000 548.284
21.72000 551.961
21.76000 552.159
21.80000 545.891
21.84000 549.896
21.88000 599.748
21.92000 580.207
21.96000 558.101
22.00000 599.706
22.04000 582.737
22.08000 607.980
22.12000 616.906
22.16000 607.263
22.20000 616.070
22.24000 601.375
22.28000 616.597
22.32000 575.945
22.36000 608.928
22.40000 579.812
22.44000 581.646
22.48000 586.880
22.52000 560.112
22.56000 553.699
22.60000 544.094
22.64000 544.563
22.68000 514.927
22.72000 540.690
22.76000 536.380
22.80000 512.876
22.84000 508.494
22.88000 508.321
22.92000 515.755
22.96000 512.137
23.00000 497.669
23.04000 503.488
23.08000 509.416
23.12000 501.725
23.16000 503.828
23.20000 490.787
23.24000 493.182
23.28000 505.291
23.32000 521.233
23.36000 516.161
23.40000 488.232
23.44000 508.522
23.48000 509.593
23.52000 510.286
23.56000 496.732
23.60000 491.598
23.64000 499.575
23.68000 483.365
23.72000 490.357
23.76000 484.270
23.80000 473.980
23.84000 493.924
23.88000 491.566
23.92000 490.554
23.96000 490.634
24.00000 482.283
24.04000 491.755
24.08000 497.349
24.12000 504.849
24.16000 486.231
24.20000 492.920
24.24000 464.227
24.28000 482.240
24.32000 494.598
24.36000 483.117
24.40000 479.110
24.44000 473.261
24.48000 502.217
24.52000 461.968
24.56000 482.296
24.60000 477.497
24.64000 481.918
24.68000 468.493
24.72000 482.125
24.76000 462.887
24.80000 469.111
24.84000 470.946
24.88000 473.022
24.92000 464.567
24.96000 479.913
25.00000 467.039
25.04000 474.818
25.08000 475.702
25.12000 467.953
25.16000 462.700
25.20000 454.981
25.24000 467.335
25.28000 470.154
25.32000 464.948
25.36000 465.395
25.40000 450.345
25.44000 470.253
25.48000 452.953
25.52000 473.711
25.56000 467.397
25.60000 480.589
25.64000 462.315
25.68000 471.691
25.72000 475.076
25.76000 457.731
25.80000 451.445
25.84000 462.729
25.88000 447.100
25.92000 437.698
25.96000 447.685
26.00000 457.854
26.04000 453.968
26.08000 441.235
26.12000 466.086
26.16000 449.238
26.20000 459.943
26.24000 438.805
26.28000 446.543
26.32000 459.922
26.36000 439.549
26.40000 442.507
26.44000 441.947
26.48000 453.764
26.52000 424.381
26.56000 459.247
26.60000 442.658
26.64000 431.602
26.68000 439.270
26.72000 448.066
26.76000 440.737
26.80000 435.239
26.84000 437.580
26.88000 437.837
26.92000 441.734
26.96000 452.514
27.00000 454.730
27.04000 442.546
27.08000 436.925
27.12000 445.779
27.16000 427.167
27.20000 442.018
27.24000 433.422
27.28000 435.444
27.32000 423.447
27.36000 416.709
27.40000 421.474
27.44000 415.562
27.48000 431.235
27.52000 446.114
27.56000 435.354
27.60000 429.772
27.64000 423.778
27.68000 418.733
27.72000 420.734
27.76000 414.616
27.80000 419.993
27.84000 411.552
27.88000 408.572
27.92000 413.672
27.96000 432.366
28.00000 399.225
28.04000 425.710
28.08000 434.722
28.12000 419.269
28.16000 429.284
28.20000 413.461
28.24000 417.180
28.28000 419.464
28.32000 433.341
28.36000 408.469
28.40000 404.670
28.44000 407.604
28.48000 416.615
28.52000 432.747
28.56000 417.448
28.60000 394.764
28.64000 421.642
28.68000 405.635
28.72000 436.024
28.76000 400.960
28.80000 414.716
28.84000 414.877
28.88000 407.141
28.92000 403.703
28.96000 388.490
29.00000 402.394
29.04000 405.935
29.08000 418.134
29.12000 391.226
29.16000 411.137
29.20000 423.885
29.24000 402.871
29.28000 397.294
29.32000 412.262
29.36000 399.984
29.40000 397.822
29.44000 399.036
29.48000 403.772
29.52000 416.975
29.56000 401.276
29.60000 398.624
29.64000 394.622
29.68000 401.661
29.72000 398.889
29.76000 393.682
29.80000 403.091
29.84000 399.567
29.88000 407.652
29.92000 410.819
29.96000 392.320
30.00000 402.590
30.04000 406.543
30.08000 415.218
30.12000 404.693
30.16000 416.698
30.20000 405.521
30.24000 399.515
30.28000 420.725
30.32000 417.863
30.36000 405.788
30.40000 395.458
30.44000 398.441
30.48000 387.411
30.52000 395.996
30.56000 403.824
30.60000 403.286
30.64000 396.577
30.68000 407.617
30.72000 413.476
30.76000 430.012
30.80000 400.308
30.84000 418.736
30.88000 404.482
30.92000 430.706
30.96000 469.512
31.00000 471.325
31.04000 491.406
31.08000 538.150
31.12000 597.341
31.16000 706.732
31.20000 784.839
31.24000 910.033
31.28000 1075.900
31.32000 1187.659
31.36000 1266.546
31.40000 1312.972
31.44000 1256.689
31.48000 1160.357
31.52000 1092.793
31.56000 930.945
31.60000 800.309
31.64000 712.639
31.68000 623.630
31.72000 565.456
31.76000 526.262
31.80000 497.076
31.84000 454.250
31.88000 451.924
31.92000 433.149
31.96000 439.329
32.00000 413.281
32.04000 418.201
32.08000 395.051
32.12000 404.543
32.16000 392.839
32.20000 392.112
32.24000 382.560
32.28000 371.152
32.32000 410.420
32.36000 383.620
32.40000 388.185
32.44000 390.672
32.48000 368.203
32.52000 345.844
32.56000 373.321
32.60000 371.671
32.64000 363.148
32.68000 359.731
32.72000 359.548
32.76000 370.750
32.80000 360.359
32.84000 371.721
32.88000 363.841
32.92000 362.454
32.96000 391.703
33.00000 351.468
33.04000 358.737
33.08000 348.070
33.12000 355.631
33.16000 334.880
33.20000 321.993
33.24000 356.806
33.28000 338.721
33.32000 344.442
33.36000 339.726
33.40000 350.616
33.44000 340.722
33.48000 331.054
33.52000 329.767
33.56000 319.721
33.60000 322.185
33.64000 323.209
33.68000 333.653
33.72000 324.261
33.76000 321.147
33.80000 343.235
33.84000 337.575
33.88000 324.910
33.92000 335.566
33.96000 322.765
34.00000 324.538
34.04000 334.428
34.08000 339.750
34.12000 325.099
34.16000 331.169
34.20000 346.257
34.24000 318.615
34.28000 337.474
34.32000 326.757
34.36000 317.376
34.40000 323.173
34.44000 324.079
34.48000 338.370
34.52000 316.426
34.56000 313.275
34.60000 306.838
34.64000 314.625
34.68000 324.108
34.72000 317.042
34.76000 314.848
34.80000 320.408
34.84000 323.999
34.88000 336.173
34.92000 318.096
34.96000 310.239
35.00000 310.914
35.04000 322.880
35.08000 308.665
35.12000 322.591
35.16000 306.176
35.20000 303.126
35.24000 322.729
35.28000 307.771
35.32000 307.284
35.36000 306.297
35.40000 301.858
35.44000 315.619
35.48000 302.948
35.52000 312.633
35.56000 317.864
35.60000 306.709
35.64000 300.856
35.68000 321.174
35.72000 308.082
35.76000 298.708
35.80000 298.604
35.84000 284.562
35.88000 293.826
35.92000 300.913
35.96000 313.516
36.00000 300.475
36.04000 295.221
36.08000 293.734
36.12000 288.589
36.16000 312.109
36.20000 314.121
36.24000 298.002
36.28000 304.192
36.32000 308.523
36.36000 293.762
36.40000 299.311
36.44000 285.243
36.48000 285.089
36.52000 292.772
36.56000 301.224
36.60000 290.064
36.64000 287.978
36.68000 298.652
36.72000 296.453
36.76000 299.084
36.80000 303.267
36.84000 298.668
36.88000 305.312
36.92000 294.987
36.96000 288.942
37.00000 292.608
37.04000 300.273
37.08000 291.724
37.12000 303.153
37.16000 295.530
37.20000 289.639
37.24000 277.651
37.28000 281.739
37.32000 276.527
37.36000 300.376
37.40000 284.591
37.44000 284.976
37.48000 287.423
37.52000 283.598
37.56000 290.927
37.60000 292.172
37.64000 287.447
37.68000 288.145
37.72000 306.626
37.76000 276.064
37.80000 295.979
37.84000 283.961
37.88000 279.590
37.92000 273.556
37.96000 287.937
38.00000 300.065
38.04000 275.849
38.08000 290.827
38.12000 286.140
38.16000 286.868
38.20000 285.365
38.24000 291.756
38.28000 295.986
38.32000 299.318
38.36000 315.008
38.40000 325.902
38.44000 333.763
38.48000 384.047
38.52000 453.283
38.56000 514.388
38.60000 613.923
38.64000 707.065
38.68000 762.419
38.72000 804.770
38.76000 827.212
38.80000 769.776
38.84000 707.039
38.88000 630.672
38.92000 552.991
38.96000 456.382
39.00000 397.802
39.04000 355.469
39.08000 308.433
39.12000 297.821
39.16000 296.310
39.20000 270.472
39.24000 275.609
39.28000 275.518
39.32000 271.030
39.36000 275.848
39.40000 282.928
39.44000 261.735
39.48000 258.653
39.52000 274.752
39.56000 263.387
39.60000 253.441
39.64000 263.470
39.68000 270.742
39.72000 271.194
39.76000 284.817
39.80000 272.544
39.84000 255.213
39.88000 266.840
39.92000 259.525
39.96000 263.673
40.00000 249.690
40.04000 258.765
40.08000 265.710
40.12000 248.940
40.16000 261.221
40.20000 266.306
40.24000 242.537
40.28000 249.259
40.32000 255.433
40.36000 245.443
40.40000 242.541
40.44000 250.956
40.48000 252.788
40.52000 247.765
40.56000 247.017
40.60000 235.112
40.64000 260.079
40.68000 250.103
40.72000 240.960
40.76000 251.288
40.80000 245.487
40.84000 239.296
40.88000 242.982
40.92000 246.170
40.96000 246.313
41.00000 245.572
41.04000 248.760
41.08000 247.236
41.12000 235.986
41.16000 229.340
41.20000 231.443
41.24000 237.128
41.28000 227.912
41.32000 233.342
41.36000 240.843
41.40000 230.394
41.44000 231.134
41.48000 224.760
41.52000 238.347
41.56000 233.380
41.60000 239.549
41.64000 238.296
41.68000 248.538
41.72000 235.994
41.76000 232.913
41.80000 240.970
41.84000 236.125
41.88000 234.390
41.92000 232.759
41.96000 237.264
42.00000 236.494
42.04000 236.942
42.08000 231.030
42.12000 233.070
42.16000 227.851
42.20000 223.005
42.24000 235.771
42.28000 229.238
42.32000 222.935
42.36000 236.654
42.40000 225.982
42.44000 218.560
42.48000 228.327
42.52000 223.820
42.56000 230.980
42.60000 223.527
42.64000 232.678
42.68000 230.352
42.72000 235.883
42.76000 232.558
42.80000 222.795
42.84000 219.326
42.88000 228.752
42.92000 225.310
42.96000 221.918
43.00000 221.596
43.04000 220.752
43.08000 228.376
43.12000 225.090
43.16000 227.159
43.20000 234.938
43.24000 213.838
43.28000 209.192
43.32000 216.710
43.36000 221.834
43.40000 227.907
43.44000 229.001
43.48000 219.084
43.52000 217.842
43.56000 222.044
43.60000 221.814
43.64000 215.484
43.68000 215.292
43.72000 216.933
43.76000 210.786
43.80000 215.155
43.84000 231.093
43.88000 209.778
43.92000 210.102
43.96000 216.526
44.00000 209.610
44.04000 208.776
44.08000 221.205
44.12000 217.787
44.16000 213.675
44.20000 224.708
44.24000 221.536
44.28000 220.995
44.32000 227.334
44.36000 215.960
44.40000 209.905
44.44000 227.155
44.48000 227.810
44.52000 227.749
44.56000 224.800
44.60000 224.463
44.64000 231.338
44.68000 234.471
44.72000 227.294
44.76000 231.292
44.80000 234.858
44.84000 234.553
44.88000 230.440
44.92000 247.843
44.96000 249.890
45.00000 270.997
45.04000 258.753
45.08000 265.908
45.12000 263.299
45.16000 264.320
45.20000 247.571
45.24000 259.569
45.28000 250.797
45.32000 253.410
45.36000 247.085
45.40000 259.016
45.44000 260.789
45.48000 261.625
45.52000 249.159
45.56000 246.158
45.60000 254.080
45.64000 250.703
45.68000 249.341
45.72000 243.922
45.76000 243.572
45.80000 224.681
45.84000 239.025
45.88000 226.963
45.92000 228.816
45.96000 215.762
46.00000 221.741
46.04000 233.061
46.08000 221.261
46.12000 227.930
46.16000 210.583
46.20000 199.752
46.24000 206.843
46.28000 209.233
46.32000 211.945
46.36000 216.707
46.40000 206.810
46.44000 202.890
46.48000 205.034
46.52000 195.737
46.56000 191.602
46.60000 194.820
46.64000 201.387
46.68000 188.071
46.72000 190.225
46.76000 199.703
46.80000 199.260
46.84000 200.179
46.88000 198.026
46.92000 194.622
46.96000 194.908
47.00000 183.544
47.04000 188.726
47.08000 201.272
47.12000 191.500
47.16000 200.388
47.20000 189.155
47.24000 194.823
47.28000 184.356
47.32000 189.876
47.36000 188.125
47.40000 193.916
47.44000 181.702
47.48000 190.607
47.52000 189.080
47.56000 190.902
47.60000 177.637
47.64000 175.632
47.68000 183.387
47.72000 193.987
47.76000 181.848
47.80000 179.665
47.84000 191.537
47.88000 185.548
47.92000 177.423
47.96000 169.866
48.00000 186.662
48.04000 185.460
48.08000 176.784
48.12000 179.875
48.16000 174.671
48.20000 167.389
48.24000 191.596
48.28000 198.179
48.32000 178.716
48.36000 170.843
48.40000 179.095
48.44000 177.487
48.48000 186.333
48.52000 166.513
48.56000 187.193
48.60000 170.959
48.64000 172.007
48.68000 169.264
48.72000 176.056
48.76000 178.669
48.80000 179.704
48.84000 173.659
48.88000 178.500
48.92000 190.711
48.96000 181.183
49.00000 183.033
49.04000 170.179
49.08000 181.470
49.12000 183.260
49.16000 174.924
49.20000 173.009
49.24000 178.020
49.28000 175.107
49.32000 167.216
49.36000 169.155
49.40000 180.259
49.44000 181.789
49.48000 175.176
49.52000 184.046
49.56000 184.552
49.60000 185.750
49.64000 174.524
49.68000 166.095
49.72000 173.658
49.76000 171.304
49.80000 163.938
49.84000 172.361
49.88000 178.162
49.92000 162.104
49.96000 176.763
50.00000 173.116
50.04000 168.075
50.08000 171.132
50.12000 169.902
50.16000 173.012
50.20000 164.243
50.24000 179.199
50.28000 179.389
50.32000 179.229
50.36000 181.112
50.40000 176.599
50.44000 180.973
50.48000 182.838
50.52000 184.039
50.56000 170.003
50.60000 189.479
50.64000 202.240
50.68000 190.980
50.72000 188.827
50.76000 187.130
50.80000 189.080
50.84000 203.355
50.88000 189.140
50.92000 183.550
50.96000 180.752
51.00000 191.437
51.04000 188.766
51.08000 182.538
51.12000 176.897
51.16000 175.484
51.20000 176.922
51.24000 173.571
51.28000 166.849
51.32000 174.929
51.36000 177.843
51.40000 166.687
51.44000 163.553
51.48000 163.474
51.52000 163.484
51.56000 175.043
51.60000 166.053
51.64000 158.878
51.68000 154.368
51.72000 166.044
51.76000 166.876
51.80000 170.470
51.84000 164.747
51.88000 159.123
51.92000 164.320
51.96000 154.258
52.00000 150.117
52.04000 159.443
52.08000 166.534
52.12000 158.568
52.16000 152.759
52.20000 147.311
52.24000 161.494
52.28000 157.072
52.32000 160.790
52.36000 160.885
52.40000 154.498
52.44000 157.989
52.48000 160.034
52.52000 164.087
52.56000 147.818
52.60000 153.139
52.64000 161.664
52.68000 157.230
52.72000 157.380
52.76000 161.388
52.80000 159.148
52.84000 149.152
52.88000 157.336
52.92000 158.205
52.96000 165.080
53.00000 154.984
53.04000 142.772
53.08000 155.744
53.12000 157.349
53.16000 142.339
53.20000 156.462
53.24000 151.633
53.28000 157.462
53.32000 154.704
53.36000 156.449
53.40000 155.044
53.44000 159.592
53.48000 151.192
53.52000 158.893
53.56000 144.970
53.60000 157.895
53.64000 152.031
53.68000 152.218
53.72000 156.037
53.76000 139.167
53.80000 157.854
53.84000 147.075
53.88000 149.419
53.92000 157.309
53.96000 155.482
54.00000 156.708
54.04000 149.780
54.08000 138.890
54.12000 155.324
54.16000 154.570
54.20000 151.471
54.24000 146.777
54.28000 152.152
54.32000 147.220
54.36000 151.293
54.40000 136.147
54.44000 150.055
54.48000 156.933
54.52000 153.369
54.56000 150.513
54.60000 166.667
54.64000 151.031
54.68000 151.572
54.72000 158.389
54.76000 153.205
54.80000 148.071
54.84000 147.978
54.88000 147.017
54.92000 151.538
54.96000 145.068
55.00000 153.438
55.04000 145.904
55.08000 164.929
55.12000 157.332
55.16000 157.130
55.20000 156.662
55.24000 168.218
55.28000 152.671
55.32000 171.968
55.36000 175.895
55.40000 165.849
55.44000 181.722
55.48000 165.049
55.52000 175.549
55.56000 189.846
55.60000 197.701
55.64000 211.252
55.68000 240.506
55.72000 264.817
55.76000 324.266
55.80000 350.042
55.84000 378.130
55.88000 417.390
55.92000 436.503
55.96000 470.522
56.00000 460.514
56.04000 447.136
56.08000 425.569
56.12000 392.200
56.16000 370.526
56.20000 321.714
56.24000 305.433
56.28000 284.053
56.32000 242.727
56.36000 234.943
56.40000 211.888
56.44000 212.688
56.48000 190.780
56.52000 172.874
56.56000 168.453
56.60000 161.125
56.64000 171.573
56.68000 165.625
56.72000 160.137
56.76000 153.909
56.80000 139.046
56.84000 147.471
56.88000 146.265
56.92000 151.983
56.96000 148.122
57.00000 137.331
57.04000 143.859
57.08000 136.192
57.12000 140.485
57.16000 146.344
57.20000 144.733
57.24000 145.210
57.28000 131.973
57.32000 137.978
57.36000 139.792
57.40000 134.932
57.44000 137.254
57.48000 134.538
57.52000 152.169
57.56000 139.609
57.60000 142.690
57.64000 129.056
57.68000 138.208
57.72000 137.689
57.76000 138.057
57.80000 143.651
57.84000 132.947
57.88000 143.656
57.92000 150.106
57.96000 135.755
58.00000 132.509
58.04000 140.575
58.08000 140.196
58.12000 132.748
58.16000 147.310
58.20000 137.995
58.24000 128.356
58.28000 143.560
58.32000 130.909
58.36000 136.975
58.40000 144.483
58.44000 132.874
58.48000 142.664
58.52000 146.259
58.56000 132.171
58.60000 135.028
58.64000 139.876
58.68000 123.752
58.72000 137.966
58.76000 130.360
58.80000 143.012
58.84000 135.936
58.88000 133.963
58.92000 136.002
58.96000 125.862
59.00000 133.098
59.04000 137.680
59.08000 128.161
59.12000 124.713
59.16000 136.972
59.20000 133.255
59.24000 129.381
59.28000 135.835
59.32000 127.785
59.36000 122.328
59.40000 122.968
59.44000 132.887
59.48000 134.255
59.52000 138.534
59.56000 128.964
59.60000 130.768
59.64000 134.738
59.68000 141.441
59.72000 123.997
59.76000 134.988
59.80000 135.229
59.84000 135.249
59.88000 138.568
59.92000 137.605
59.96000 127.891
60.00000 138.238
60.04000 128.016
60.08000 131.840
60.12000 142.055
60.16000 131.392
60.20000 133.672
60.24000 139.857
60.28000 137.742
60.32000 125.828
60.36000 129.615
60.40000 133.076
60.44000 132.939
60.48000 129.003
60.52000 122.712
60.56000 135.215
60.60000 120.293
60.64000 129.974
60.68000 129.457
60.72000 129.134
60.76000 125.997
60.80000 123.877
60.84000 132.520
60.88000 135.065
60.92000 136.954
60.96000 128.564
61.00000 133.167
61.04000 136.775
61.08000 126.581
61.12000 131.604
61.16000 130.418
61.20000 138.230
61.24000 133.138
61.28000 130.054
61.32000 137.182
61.36000 133.289
61.40000 131.199
61.44000 132.302
61.48000 146.297
61.52000 167.015
61.56000 186.146
61.60000 223.918
61.64000 250.957
61.68000 261.015
61.72000 258.524
61.76000 248.641
61.80000 217.611
61.84000 177.341
61.88000 158.963
61.92000 138.303
61.96000 143.626
62.00000 149.881
62.04000 136.289
62.08000 143.160
62.12000 145.536
62.16000 144.247
62.20000 133.750
62.24000 135.240
62.28000 136.237
62.32000 136.218
62.36000 147.722
62.40000 140.897
62.44000 140.389
62.48000 141.594
62.52000 140.029
62.56000 143.003
62.60000 140.880
62.64000 147.722
62.68000 145.958
62.72000 141.091
62.76000 146.456
62.80000 143.285
62.84000 141.937
62.88000 135.665
62.92000 140.269
62.96000 144.836
63.00000 134.399
63.04000 144.068
63.08000 136.451
63.12000 153.174
63.16000 148.674
63.20000 141.018
63.24000 149.879
63.28000 145.498
63.32000 141.219
63.36000 141.760
63.40000 141.901
63.44000 141.629
63.48000 137.522
63.52000 136.110
63.56000 139.538
63.60000 142.972
63.64000 152.530
63.68000 158.160
63.72000 143.719
63.76000 151.481
63.80000 151.471
63.84000 146.822
63.88000 149.193
63.92000 154.482
63.96000 154.244
64.00000 143.705
64.04000 161.336
64.08000 148.496
64.12000 163.488
64.16000 159.644
64.20000 148.085
64.24000 160.567
64.28000 164.384
64.32000 154.795
64.36000 174.615
64.40000 167.133
64.44000 170.578
64.48000 170.971
64.52000 171.770
64.56000 157.518
64.60000 164.498
64.64000 184.887
64.68000 175.840
64.72000 172.518
64.76000 170.418
64.80000 179.355
64.84000 179.650
64.88000 181.741
64.92000 184.629
64.96000 193.348
65.00000 186.085
65.04000 185.956
65.08000 169.678
65.12000 195.711
65.16000 194.333
65.20000 208.767
65.24000 208.899
65.28000 210.374
65.32000 224.863
65.36000 229.137
65.40000 236.408
65.44000 246.308
65.48000 250.834
65.52000 264.574
65.56000 282.314
65.60000 294.516
65.64000 321.789
65.68000 382.247
65.72000 499.942
65.76000 734.514
65.80000 927.483
65.84000 1000.221
65.88000 1035.041
65.92000 995.695
65.96000 905.268
66.00000 670.073
66.04000 450.977
66.08000 363.424
66.12000 310.744
66.16000 300.415
66.20000 304.357
66.24000 321.119
66.28000 365.867
66.32000 388.395
66.36000 423.617
66.40000 435.226
66.44000 449.963
66.48000 444.410
66.52000 398.547
66.56000 370.099
66.60000 328.612
66.64000 319.641
66.68000 323.780
66.72000 326.860
66.76000 316.416
66.80000 319.869
66.84000 317.014
66.88000 317.656
66.92000 337.147
66.96000 344.199
67.00000 346.647
67.04000 337.801
67.08000 357.434
67.12000 366.379
67.16000 371.193
67.20000 365.452
67.24000 384.486
67.28000 373.670
67.32000 380.584
67.36000 398.740
67.40000 410.195
67.44000 396.815
67.48000 417.473
67.52000 430.915
67.56000 429.487
67.60000 448.984
67.64000 431.022
67.68000 468.743
67.72000 448.887
67.76000 472.478
67.80000 477.722
67.84000 488.165
67.88000 510.640
67.92000 491.893
67.96000 514.921
68.00000 529.174
68.04000 531.955
68.08000 535.836
68.12000 556.195
68.16000 572.146
68.20000 592.238
68.24000 599.363
68.28000 647.820
68.32000 648.104
68.36000 665.676
68.40000 695.060
68.44000 735.701
68.48000 772.638
68.52000 805.953
68.56000 865.505
68.60000 951.700
68.64000 1098.740
68.68000 1290.120
68.72000 1499.324
68.76000 1720.323
68.80000 1934.553
68.84000 2204.815
68.88000 2734.109
68.92000 4396.590
68.96000 10960.172
69.00000 25692.945
69.04000 42313.168
69.08000 51400.754
69.12000 53383.621
69.16000 55343.508
69.20000 56369.926
69.24000 47773.488
69.28000 36028.738
69.32000 29320.010
69.36000 26381.588
69.40000 22359.090
69.44000 13995.206
69.48000 6566.565
69.52000 2973.689
69.56000 1920.664
69.60000 1517.149
69.64000 1271.780
69.68000 1091.506
69.72000 1017.130
69.76000 941.597
69.80000 861.677
69.84000 792.726
69.88000 728.539
69.92000 702.482
69.96000 685.397
70.00000 655.141