File: XRD/XRD/25-09-2025/XY Data/BTO_Mapping_Theta2Theta_25-09-2025_001_10_6-691_7-431.xy
20.00000 565.129
20.04000 545.560
20.08000 547.734
20.12000 564.982
20.16000 566.580
20.20000 550.157
20.24000 553.135
20.28000 576.593
20.32000 564.687
20.36000 556.230
20.40000 570.612
20.44000 549.951
20.48000 543.593
20.52000 536.597
20.56000 563.554
20.60000 539.738
20.64000 536.924
20.68000 547.591
20.72000 554.205
20.76000 535.015
20.80000 552.743
20.84000 532.830
20.88000 546.945
20.92000 533.545
20.96000 556.060
21.00000 530.198
21.04000 534.186
21.08000 534.777
21.12000 539.050
21.16000 548.407
21.20000 555.030
21.24000 522.601
21.28000 534.938
21.32000 540.069
21.36000 580.545
21.40000 537.517
21.44000 542.328
21.48000 536.258
21.52000 561.323
21.56000 568.514
21.60000 552.966
21.64000 542.881
21.68000 535.492
21.72000 540.089
21.76000 546.468
21.80000 547.276
21.84000 531.368
21.88000 577.756
21.92000 571.334
21.96000 610.246
22.00000 613.302
22.04000 591.901
22.08000 611.785
22.12000 632.165
22.16000 607.650
22.20000 611.551
22.24000 601.213
22.28000 614.621
22.32000 623.241
22.36000 593.045
22.40000 588.888
22.44000 572.206
22.48000 561.480
22.52000 568.352
22.56000 542.972
22.60000 543.192
22.64000 533.363
22.68000 508.889
22.72000 524.707
22.76000 508.957
22.80000 509.955
22.84000 523.869
22.88000 494.528
22.92000 513.360
22.96000 503.097
23.00000 501.577
23.04000 509.209
23.08000 481.673
23.12000 515.702
23.16000 505.244
23.20000 486.918
23.24000 518.451
23.28000 502.190
23.32000 481.353
23.36000 499.357
23.40000 517.580
23.44000 497.551
23.48000 495.895
23.52000 522.606
23.56000 493.145
23.60000 505.731
23.64000 493.353
23.68000 493.141
23.72000 474.345
23.76000 479.442
23.80000 501.077
23.84000 480.824
23.88000 489.622
23.92000 497.083
23.96000 482.154
24.00000 497.705
24.04000 504.113
24.08000 481.747
24.12000 484.376
24.16000 503.928
24.20000 487.792
24.24000 485.164
24.28000 483.700
24.32000 485.628
24.36000 492.964
24.40000 475.668
24.44000 472.530
24.48000 490.393
24.52000 476.104
24.56000 478.566
24.60000 474.902
24.64000 481.270
24.68000 490.741
24.72000 486.099
24.76000 467.217
24.80000 471.849
24.84000 462.985
24.88000 469.890
24.92000 476.578
24.96000 472.143
25.00000 470.533
25.04000 472.843
25.08000 462.820
25.12000 467.029
25.16000 459.146
25.20000 458.768
25.24000 468.072
25.28000 481.439
25.32000 468.058
25.36000 451.405
25.40000 440.437
25.44000 453.232
25.48000 468.843
25.52000 468.518
25.56000 476.183
25.60000 454.335
25.64000 458.774
25.68000 451.266
25.72000 436.044
25.76000 442.232
25.80000 446.595
25.84000 475.413
25.88000 447.931
25.92000 456.297
25.96000 446.296
26.00000 456.939
26.04000 450.918
26.08000 444.780
26.12000 465.725
26.16000 444.628
26.20000 457.465
26.24000 443.523
26.28000 436.906
26.32000 455.566
26.36000 435.386
26.40000 452.458
26.44000 432.594
26.48000 449.623
26.52000 443.728
26.56000 438.402
26.60000 440.672
26.64000 446.351
26.68000 449.687
26.72000 451.436
26.76000 432.236
26.80000 456.629
26.84000 436.999
26.88000 428.209
26.92000 446.000
26.96000 448.708
27.00000 441.938
27.04000 445.529
27.08000 435.055
27.12000 432.957
27.16000 437.626
27.20000 426.268
27.24000 428.195
27.28000 428.502
27.32000 430.825
27.36000 424.765
27.40000 422.343
27.44000 447.539
27.48000 440.417
27.52000 429.142
27.56000 414.094
27.60000 430.475
27.64000 430.416
27.68000 409.462
27.72000 424.776
27.76000 423.497
27.80000 416.201
27.84000 425.172
27.88000 420.845
27.92000 416.958
27.96000 407.810
28.00000 409.843
28.04000 425.823
28.08000 433.492
28.12000 428.798
28.16000 422.204
28.20000 412.521
28.24000 415.313
28.28000 417.000
28.32000 418.821
28.36000 412.075
28.40000 434.715
28.44000 416.175
28.48000 416.515
28.52000 424.266
28.56000 423.753
28.60000 424.412
28.64000 404.910
28.68000 389.765
28.72000 402.839
28.76000 408.647
28.80000 401.506
28.84000 400.673
28.88000 409.367
28.92000 413.842
28.96000 397.601
29.00000 405.344
29.04000 407.469
29.08000 405.015
29.12000 386.706
29.16000 429.674
29.20000 390.273
29.24000 400.684
29.28000 401.370
29.32000 423.813
29.36000 414.586
29.40000 408.086
29.44000 413.227
29.48000 402.827
29.52000 406.713
29.56000 396.154
29.60000 411.674
29.64000 392.038
29.68000 394.719
29.72000 408.266
29.76000 395.785
29.80000 400.559
29.84000 396.628
29.88000 393.031
29.92000 393.935
29.96000 406.501
30.00000 413.833
30.04000 408.887
30.08000 409.508
30.12000 407.631
30.16000 404.882
30.20000 390.275
30.24000 414.194
30.28000 399.672
30.32000 405.704
30.36000 413.577
30.40000 397.429
30.44000 409.872
30.48000 390.212
30.52000 416.429
30.56000 413.208
30.60000 410.937
30.64000 405.111
30.68000 400.361
30.72000 420.119
30.76000 412.920
30.80000 427.644
30.84000 420.582
30.88000 424.454
30.92000 455.818
30.96000 455.501
31.00000 464.876
31.04000 495.922
31.08000 546.891
31.12000 603.510
31.16000 664.340
31.20000 784.876
31.24000 918.401
31.28000 1066.179
31.32000 1210.647
31.36000 1262.940
31.40000 1281.935
31.44000 1279.527
31.48000 1182.287
31.52000 1086.752
31.56000 949.889
31.60000 847.012
31.64000 716.368
31.68000 625.222
31.72000 567.863
31.76000 550.175
31.80000 504.236
31.84000 467.959
31.88000 448.439
31.92000 436.850
31.96000 418.402
32.00000 427.799
32.04000 420.070
32.08000 393.119
32.12000 381.417
32.16000 392.908
32.20000 385.866
32.24000 391.492
32.28000 385.960
32.32000 371.518
32.36000 387.133
32.40000 388.148
32.44000 370.053
32.48000 371.156
32.52000 371.568
32.56000 372.000
32.60000 364.999
32.64000 366.022
32.68000 366.606
32.72000 362.711
32.76000 355.111
32.80000 355.649
32.84000 359.950
32.88000 372.537
32.92000 362.338
32.96000 355.680
33.00000 373.820
33.04000 355.718
33.08000 347.797
33.12000 341.846
33.16000 335.930
33.20000 354.405
33.24000 327.811
33.28000 334.229
33.32000 355.051
33.36000 338.743
33.40000 337.782
33.44000 344.977
33.48000 344.344
33.52000 331.555
33.56000 317.422
33.60000 330.704
33.64000 338.712
33.68000 325.528
33.72000 346.093
33.76000 315.074
33.80000 328.407
33.84000 329.377
33.88000 323.860
33.92000 330.184
33.96000 317.084
34.00000 328.694
34.04000 330.245
34.08000 339.957
34.12000 305.825
34.16000 314.501
34.20000 316.267
34.24000 316.363
34.28000 320.900
34.32000 327.057
34.36000 317.111
34.40000 331.302
34.44000 327.566
34.48000 326.089
34.52000 311.856
34.56000 307.577
34.60000 330.627
34.64000 323.438
34.68000 326.857
34.72000 297.404
34.76000 302.898
34.80000 305.190
34.84000 334.307
34.88000 316.906
34.92000 310.605
34.96000 317.447
35.00000 310.422
35.04000 325.926
35.08000 314.036
35.12000 302.512
35.16000 304.750
35.20000 313.927
35.24000 302.671
35.28000 319.645
35.32000 322.124
35.36000 305.518
35.40000 311.139
35.44000 312.518
35.48000 318.275
35.52000 298.237
35.56000 311.945
35.60000 295.097
35.64000 307.599
35.68000 289.524
35.72000 303.446
35.76000 309.850
35.80000 296.381
35.84000 295.243
35.88000 295.124
35.92000 295.077
35.96000 290.244
36.00000 296.702
36.04000 291.169
36.08000 292.363
36.12000 295.169
36.16000 294.222
36.20000 281.650
36.24000 297.411
36.28000 286.379
36.32000 290.642
36.36000 298.600
36.40000 302.755
36.44000 305.345
36.48000 302.951
36.52000 292.769
36.56000 288.073
36.60000 292.203
36.64000 288.199
36.68000 291.717
36.72000 279.708
36.76000 295.937
36.80000 297.587
36.84000 290.125
36.88000 292.777
36.92000 303.528
36.96000 294.460
37.00000 286.949
37.04000 295.537
37.08000 289.692
37.12000 280.913
37.16000 281.130
37.20000 294.016
37.24000 296.849
37.28000 279.486
37.32000 280.080
37.36000 282.600
37.40000 290.061
37.44000 293.918
37.48000 277.167
37.52000 281.140
37.56000 294.688
37.60000 285.941
37.64000 296.826
37.68000 298.973
37.72000 267.607
37.76000 280.848
37.80000 271.676
37.84000 298.094
37.88000 289.544
37.92000 279.561
37.96000 282.798
38.00000 278.995
38.04000 299.184
38.08000 285.891
38.12000 283.447
38.16000 286.035
38.20000 270.129
38.24000 289.256
38.28000 303.317
38.32000 307.579
38.36000 315.158
38.40000 320.844
38.44000 339.844
38.48000 383.753
38.52000 456.575
38.56000 521.560
38.60000 598.527
38.64000 649.260
38.68000 762.742
38.72000 801.737
38.76000 753.962
38.80000 784.870
38.84000 720.645
38.88000 626.004
38.92000 545.173
38.96000 453.829
39.00000 406.532
39.04000 346.367
39.08000 315.262
39.12000 304.893
39.16000 295.502
39.20000 277.959
39.24000 277.163
39.28000 282.479
39.32000 277.682
39.36000 259.834
39.40000 275.431
39.44000 274.017
39.48000 274.431
39.52000 260.518
39.56000 271.961
39.60000 267.545
39.64000 269.354
39.68000 278.147
39.72000 255.009
39.76000 263.705
39.80000 255.715
39.84000 260.814
39.88000 261.345
39.92000 261.141
39.96000 261.287
40.00000 249.098
40.04000 242.124
40.08000 251.151
40.12000 259.326
40.16000 256.184
40.20000 259.501
40.24000 263.702
40.28000 257.565
40.32000 252.347
40.36000 251.391
40.40000 252.385
40.44000 242.846
40.48000 232.152
40.52000 250.003
40.56000 260.003
40.60000 243.701
40.64000 236.700
40.68000 251.316
40.72000 254.636
40.76000 252.073
40.80000 237.818
40.84000 240.983
40.88000 257.180
40.92000 252.282
40.96000 244.708
41.00000 245.295
41.04000 235.289
41.08000 232.344
41.12000 238.521
41.16000 239.128
41.20000 231.817
41.24000 243.659
41.28000 227.826
41.32000 233.194
41.36000 232.007
41.40000 234.320
41.44000 241.326
41.48000 230.890
41.52000 243.473
41.56000 239.529
41.60000 243.733
41.64000 231.883
41.68000 238.089
41.72000 242.319
41.76000 240.787
41.80000 233.617
41.84000 238.758
41.88000 221.587
41.92000 239.291
41.96000 229.604
42.00000 238.325
42.04000 227.955
42.08000 233.873
42.12000 225.799
42.16000 240.008
42.20000 243.870
42.24000 222.933
42.28000 221.652
42.32000 239.671
42.36000 232.862
42.40000 242.187
42.44000 228.377
42.48000 235.750
42.52000 236.350
42.56000 216.006
42.60000 233.164
42.64000 245.375
42.68000 231.397
42.72000 228.577
42.76000 230.954
42.80000 232.842
42.84000 221.427
42.88000 228.056
42.92000 224.008
42.96000 236.968
43.00000 216.000
43.04000 234.814
43.08000 226.522
43.12000 222.097
43.16000 221.237
43.20000 227.592
43.24000 227.679
43.28000 220.197
43.32000 213.927
43.36000 215.677
43.40000 212.759
43.44000 223.532
43.48000 214.331
43.52000 220.965
43.56000 220.804
43.60000 212.872
43.64000 219.836
43.68000 210.074
43.72000 225.317
43.76000 212.245
43.80000 221.916
43.84000 225.844
43.88000 221.044
43.92000 229.043
43.96000 212.377
44.00000 210.032
44.04000 210.206
44.08000 218.463
44.12000 213.943
44.16000 219.004
44.20000 229.229
44.24000 228.904
44.28000 215.821
44.32000 216.042
44.36000 205.212
44.40000 216.276
44.44000 227.677
44.48000 209.975
44.52000 209.819
44.56000 226.680
44.60000 218.799
44.64000 224.258
44.68000 211.845
44.72000 218.852
44.76000 226.173
44.80000 232.895
44.84000 245.179
44.88000 220.426
44.92000 230.225
44.96000 240.970
45.00000 258.481
45.04000 251.459
45.08000 247.845
45.12000 264.087
45.16000 248.406
45.20000 256.591
45.24000 257.213
45.28000 262.387
45.32000 253.815
45.36000 252.810
45.40000 243.705
45.44000 258.460
45.48000 244.106
45.52000 250.254
45.56000 241.133
45.60000 255.956
45.64000 243.422
45.68000 233.621
45.72000 242.984
45.76000 235.666
45.80000 224.924
45.84000 233.805
45.88000 222.643
45.92000 216.487
45.96000 218.124
46.00000 208.630
46.04000 229.148
46.08000 215.946
46.12000 212.045
46.16000 215.112
46.20000 221.337
46.24000 209.184
46.28000 207.996
46.32000 203.963
46.36000 200.598
46.40000 204.764
46.44000 210.048
46.48000 208.638
46.52000 202.647
46.56000 195.872
46.60000 195.620
46.64000 196.448
46.68000 193.792
46.72000 187.654
46.76000 195.392
46.80000 190.529
46.84000 207.509
46.88000 186.260
46.92000 190.603
46.96000 189.771
47.00000 196.707
47.04000 199.063
47.08000 194.883
47.12000 193.616
47.16000 196.808
47.20000 195.882
47.24000 186.283
47.28000 185.163
47.32000 180.462
47.36000 178.959
47.40000 189.876
47.44000 192.002
47.48000 183.207
47.52000 197.485
47.56000 183.110
47.60000 188.335
47.64000 185.079
47.68000 188.008
47.72000 201.920
47.76000 182.091
47.80000 182.753
47.84000 185.860
47.88000 155.244
47.92000 177.987
47.96000 188.078
48.00000 181.578
48.04000 185.956
48.08000 165.788
48.12000 176.576
48.16000 178.029
48.20000 189.171
48.24000 179.964
48.28000 185.608
48.32000 167.728
48.36000 182.637
48.40000 199.057
48.44000 184.190
48.48000 172.815
48.52000 182.574
48.56000 179.151
48.60000 186.099
48.64000 183.978
48.68000 172.328
48.72000 183.033
48.76000 176.779
48.80000 183.517
48.84000 181.715
48.88000 181.648
48.92000 171.245
48.96000 178.084
49.00000 180.280
49.04000 178.613
49.08000 188.606
49.12000 173.738
49.16000 173.450
49.20000 181.358
49.24000 169.926
49.28000 169.559
49.32000 172.190
49.36000 169.130
49.40000 178.040
49.44000 170.772
49.48000 172.014
49.52000 170.821
49.56000 174.953
49.60000 165.779
49.64000 173.245
49.68000 168.231
49.72000 175.883
49.76000 165.139
49.80000 186.231
49.84000 166.704
49.88000 168.171
49.92000 161.691
49.96000 177.853
50.00000 168.835
50.04000 179.018
50.08000 168.455
50.12000 177.907
50.16000 186.254
50.20000 176.144
50.24000 172.742
50.28000 177.062
50.32000 175.175
50.36000 182.774
50.40000 182.033
50.44000 188.218
50.48000 179.107
50.52000 184.960
50.56000 174.812
50.60000 183.515
50.64000 187.980
50.68000 193.002
50.72000 193.092
50.76000 184.539
50.80000 189.217
50.84000 195.778
50.88000 197.075
50.92000 177.778
50.96000 183.298
51.00000 172.968
51.04000 174.927
51.08000 173.245
51.12000 182.043
51.16000 180.680
51.20000 175.469
51.24000 180.440
51.28000 180.230
51.32000 170.865
51.36000 179.151
51.40000 174.290
51.44000 164.108
51.48000 169.317
51.52000 164.186
51.56000 169.842
51.60000 171.552
51.64000 164.914
51.68000 169.895
51.72000 158.457
51.76000 163.799
51.80000 162.694
51.84000 163.928
51.88000 163.191
51.92000 154.158
51.96000 154.359
52.00000 166.133
52.04000 147.351
52.08000 152.363
52.12000 167.435
52.16000 149.539
52.20000 147.632
52.24000 155.193
52.28000 148.056
52.32000 167.428
52.36000 166.550
52.40000 158.431
52.44000 157.430
52.48000 159.049
52.52000 153.592
52.56000 151.131
52.60000 150.498
52.64000 160.682
52.68000 149.270
52.72000 160.515
52.76000 164.688
52.80000 155.027
52.84000 159.383
52.88000 156.281
52.92000 162.086
52.96000 162.645
53.00000 157.943
53.04000 154.911
53.08000 152.350
53.12000 156.883
53.16000 156.163
53.20000 155.246
53.24000 151.233
53.28000 159.924
53.32000 157.528
53.36000 158.652
53.40000 162.699
53.44000 164.966
53.48000 161.581
53.52000 152.735
53.56000 151.324
53.60000 156.208
53.64000 157.340
53.68000 151.761
53.72000 147.420
53.76000 151.071
53.80000 158.802
53.84000 148.117
53.88000 143.662
53.92000 154.549
53.96000 158.255
54.00000 141.025
54.04000 148.570
54.08000 131.971
54.12000 153.114
54.16000 141.853
54.20000 150.770
54.24000 149.063
54.28000 144.072
54.32000 158.760
54.36000 155.720
54.40000 153.432
54.44000 155.718
54.48000 150.735
54.52000 156.769
54.56000 152.681
54.60000 144.828
54.64000 155.326
54.68000 144.322
54.72000 151.254
54.76000 150.750
54.80000 153.214
54.84000 152.612
54.88000 159.606
54.92000 154.002
54.96000 147.924
55.00000 160.322
55.04000 151.125
55.08000 145.594
55.12000 146.219
55.16000 152.053
55.20000 160.357
55.24000 157.117
55.28000 167.302
55.32000 165.172
55.36000 165.414
55.40000 166.290
55.44000 171.795
55.48000 179.753
55.52000 165.029
55.56000 184.985
55.60000 201.386
55.64000 222.343
55.68000 256.558
55.72000 278.663
55.76000 314.457
55.80000 347.124
55.84000 402.463
55.88000 414.405
55.92000 451.211
55.96000 458.097
56.00000 449.731
56.04000 455.458
56.08000 446.129
56.12000 394.349
56.16000 367.196
56.20000 330.191
56.24000 294.951
56.28000 269.688
56.32000 251.040
56.36000 221.037
56.40000 209.561
56.44000 196.490
56.48000 197.008
56.52000 179.127
56.56000 158.511
56.60000 168.279
56.64000 158.976
56.68000 155.846
56.72000 146.402
56.76000 151.682
56.80000 146.213
56.84000 153.074
56.88000 146.526
56.92000 151.600
56.96000 147.457
57.00000 151.238
57.04000 147.123
57.08000 153.879
57.12000 142.931
57.16000 146.726
57.20000 148.277
57.24000 140.995
57.28000 143.582
57.32000 139.326
57.36000 138.755
57.40000 131.996
57.44000 137.845
57.48000 145.406
57.52000 142.641
57.56000 139.322
57.60000 126.731
57.64000 139.939
57.68000 135.553
57.72000 140.103
57.76000 146.470
57.80000 142.402
57.84000 127.581
57.88000 143.547
57.92000 145.805
57.96000 138.159
58.00000 139.394
58.04000 142.653
58.08000 138.348
58.12000 149.065
58.16000 145.726
58.20000 141.865
58.24000 135.800
58.28000 140.956
58.32000 139.326
58.36000 134.061
58.40000 137.957
58.44000 132.046
58.48000 139.022
58.52000 135.643
58.56000 131.372
58.60000 137.771
58.64000 138.536
58.68000 129.643
58.72000 132.111
58.76000 134.956
58.80000 131.692
58.84000 125.526
58.88000 134.839
58.92000 138.541
58.96000 141.258
59.00000 129.877
59.04000 137.453
59.08000 137.178
59.12000 134.026
59.16000 143.227
59.20000 125.427
59.24000 131.760
59.28000 130.980
59.32000 129.024
59.36000 131.272
59.40000 131.066
59.44000 131.697
59.48000 126.740
59.52000 137.017
59.56000 138.811
59.60000 124.532
59.64000 139.105
59.68000 146.439
59.72000 130.689
59.76000 139.579
59.80000 128.370
59.84000 140.113
59.88000 139.839
59.92000 134.699
59.96000 134.528
60.00000 130.496
60.04000 134.452
60.08000 137.645
60.12000 131.668
60.16000 128.512
60.20000 128.135
60.24000 127.619
60.28000 125.991
60.32000 129.694
60.36000 140.419
60.40000 142.137
60.44000 131.769
60.48000 134.907
60.52000 126.698
60.56000 130.854
60.60000 138.552
60.64000 133.822
60.68000 125.264
60.72000 131.565
60.76000 128.895
60.80000 129.382
60.84000 132.619
60.88000 135.317
60.92000 137.011
60.96000 129.485
61.00000 132.397
61.04000 133.585
61.08000 136.858
61.12000 138.117
61.16000 133.585
61.20000 143.579
61.24000 127.457
61.28000 140.021
61.32000 130.213
61.36000 118.374
61.40000 134.145
61.44000 141.577
61.48000 146.550
61.52000 163.365
61.56000 198.035
61.60000 221.274
61.64000 250.499
61.68000 269.565
61.72000 262.875
61.76000 255.054
61.80000 226.374
61.84000 186.066
61.88000 151.403
61.92000 140.230
61.96000 142.405
62.00000 139.065
62.04000 143.676
62.08000 139.948
62.12000 145.094
62.16000 140.359
62.20000 139.299
62.24000 133.907
62.28000 137.085
62.32000 143.704
62.36000 148.035
62.40000 143.011
62.44000 138.680
62.48000 145.474
62.52000 141.085
62.56000 137.393
62.60000 141.682
62.64000 140.241
62.68000 138.580
62.72000 138.569
62.76000 137.763
62.80000 140.112
62.84000 145.967
62.88000 134.833
62.92000 145.000
62.96000 146.317
63.00000 150.254
63.04000 141.735
63.08000 149.979
63.12000 144.877
63.16000 142.532
63.20000 135.191
63.24000 151.033
63.28000 144.825
63.32000 156.652
63.36000 158.764
63.40000 138.536
63.44000 142.368
63.48000 143.287
63.52000 145.052
63.56000 138.144
63.60000 148.463
63.64000 129.512
63.68000 153.458
63.72000 156.823
63.76000 142.862
63.80000 140.305
63.84000 149.722
63.88000 156.644
63.92000 157.458
63.96000 152.562
64.00000 152.069
64.04000 165.241
64.08000 151.761
64.12000 151.952
64.16000 166.468
64.20000 161.568
64.24000 161.139
64.28000 159.607
64.32000 164.543
64.36000 158.412
64.40000 165.489
64.44000 166.800
64.48000 167.809
64.52000 165.958
64.56000 169.875
64.60000 166.089
64.64000 156.157
64.68000 175.160
64.72000 176.456
64.76000 179.583
64.80000 180.617
64.84000 173.938
64.88000 172.939
64.92000 177.014
64.96000 183.937
65.00000 191.692
65.04000 186.175
65.08000 184.735
65.12000 202.048
65.16000 209.449
65.20000 202.049
65.24000 208.453
65.28000 216.788
65.32000 224.032
65.36000 227.991
65.40000 237.346
65.44000 244.798
65.48000 253.191
65.52000 264.668
65.56000 278.521
65.60000 290.104
65.64000 321.763
65.68000 394.453
65.72000 516.873
65.76000 737.790
65.80000 935.933
65.84000 987.559
65.88000 1050.636
65.92000 1011.557
65.96000 876.601
66.00000 639.568
66.04000 466.576
66.08000 356.667
66.12000 329.657
66.16000 300.508
66.20000 311.496
66.24000 316.815
66.28000 326.671
66.32000 389.732
66.36000 427.610
66.40000 452.127
66.44000 450.863
66.48000 431.545
66.52000 405.463
66.56000 369.482
66.60000 345.476
66.64000 326.032
66.68000 314.629
66.72000 323.393
66.76000 326.290
66.80000 335.391
66.84000 317.686
66.88000 313.776
66.92000 336.212
66.96000 337.356
67.00000 342.803
67.04000 333.781
67.08000 355.978
67.12000 364.504
67.16000 372.816
67.20000 389.064
67.24000 409.036
67.28000 380.342
67.32000 383.682
67.36000 371.246
67.40000 403.025
67.44000 382.608
67.48000 428.050
67.52000 432.880
67.56000 426.049
67.60000 432.417
67.64000 439.596
67.68000 457.347
67.72000 451.039
67.76000 471.137
67.80000 466.639
67.84000 487.684
67.88000 489.449
67.92000 501.358
67.96000 512.382
68.00000 527.471
68.04000 533.811
68.08000 563.192
68.12000 579.953
68.16000 573.827
68.20000 590.197
68.24000 602.851
68.28000 626.594
68.32000 633.495
68.36000 666.532
68.40000 661.387
68.44000 711.980
68.48000 750.963
68.52000 811.860
68.56000 872.348
68.60000 948.896
68.64000 1093.293
68.68000 1308.480
68.72000 1507.513
68.76000 1697.139
68.80000 1962.256
68.84000 2236.825
68.88000 2751.230
68.92000 4448.134
68.96000 10989.010
69.00000 25723.893
69.04000 42403.352
69.08000 51268.168
69.12000 53459.230
69.16000 55424.047
69.20000 56236.961
69.24000 47716.605
69.28000 36016.488
69.32000 29325.314
69.36000 26424.242
69.40000 22439.096
69.44000 14025.886
69.48000 6600.091
69.52000 2920.804
69.56000 1894.661
69.60000 1473.874
69.64000 1250.150
69.68000 1097.801
69.72000 992.681
69.76000 893.731
69.80000 837.431
69.84000 772.862
69.88000 763.882
69.92000 702.497
69.96000 697.073
70.00000 657.434