File: XRD/XRD/25-09-2025/XY Data/BTO_Mapping_Theta2Theta_25-09-2025_001_44_-15-000_-25-981.xy
20.00000 562.177
20.04000 563.644
20.08000 537.676
20.12000 565.918
20.16000 568.117
20.20000 575.688
20.24000 554.614
20.28000 558.819
20.32000 552.539
20.36000 556.961
20.40000 539.898
20.44000 558.112
20.48000 543.976
20.52000 566.506
20.56000 528.882
20.60000 541.368
20.64000 537.522
20.68000 544.447
20.72000 535.627
20.76000 535.396
20.80000 530.535
20.84000 529.066
20.88000 555.528
20.92000 565.732
20.96000 545.100
21.00000 556.881
21.04000 532.458
21.08000 529.962
21.12000 541.821
21.16000 535.260
21.20000 555.027
21.24000 532.405
21.28000 547.977
21.32000 546.697
21.36000 539.797
21.40000 560.250
21.44000 537.124
21.48000 540.306
21.52000 525.684
21.56000 554.774
21.60000 556.309
21.64000 577.949
21.68000 595.156
21.72000 594.861
21.76000 618.017
21.80000 642.914
21.84000 689.356
21.88000 727.503
21.92000 767.969
21.96000 816.363
22.00000 810.296
22.04000 836.522
22.08000 803.113
22.12000 779.220
22.16000 744.522
22.20000 708.132
22.24000 653.211
22.28000 640.245
22.32000 637.204
22.36000 601.492
22.40000 588.101
22.44000 569.419
22.48000 557.623
22.52000 546.748
22.56000 555.371
22.60000 528.716
22.64000 535.641
22.68000 528.200
22.72000 505.395
22.76000 522.620
22.80000 511.711
22.84000 520.494
22.88000 529.995
22.92000 515.966
22.96000 510.295
23.00000 491.602
23.04000 504.177
23.08000 508.810
23.12000 511.067
23.16000 488.186
23.20000 485.048
23.24000 503.775
23.28000 494.285
23.32000 504.967
23.36000 493.580
23.40000 510.410
23.44000 502.268
23.48000 502.260
23.52000 513.574
23.56000 491.385
23.60000 490.126
23.64000 503.207
23.68000 506.090
23.72000 499.825
23.76000 497.465
23.80000 481.270
23.84000 495.172
23.88000 479.755
23.92000 486.294
23.96000 481.038
24.00000 473.541
24.04000 496.993
24.08000 488.260
24.12000 496.288
24.16000 489.566
24.20000 489.926
24.24000 484.289
24.28000 485.435
24.32000 492.176
24.36000 490.276
24.40000 489.256
24.44000 494.438
24.48000 469.183
24.52000 476.388
24.56000 493.266
24.60000 456.700
24.64000 476.627
24.68000 472.423
24.72000 485.304
24.76000 478.962
24.80000 482.446
24.84000 478.518
24.88000 459.232
24.92000 461.476
24.96000 462.436
25.00000 490.287
25.04000 480.859
25.08000 477.427
25.12000 468.064
25.16000 459.871
25.20000 475.339
25.24000 452.216
25.28000 461.635
25.32000 460.463
25.36000 478.864
25.40000 479.188
25.44000 465.824
25.48000 456.985
25.52000 470.349
25.56000 474.296
25.60000 442.313
25.64000 449.677
25.68000 462.467
25.72000 451.288
25.76000 448.836
25.80000 460.700
25.84000 471.899
25.88000 475.084
25.92000 468.887
25.96000 453.659
26.00000 448.502
26.04000 448.446
26.08000 445.236
26.12000 439.251
26.16000 432.589
26.20000 448.706
26.24000 444.086
26.28000 444.074
26.32000 457.247
26.36000 450.216
26.40000 434.336
26.44000 442.231
26.48000 447.689
26.52000 439.727
26.56000 439.560
26.60000 440.218
26.64000 457.212
26.68000 446.225
26.72000 457.197
26.76000 437.006
26.80000 444.735
26.84000 436.544
26.88000 456.193
26.92000 437.788
26.96000 425.023
27.00000 429.350
27.04000 433.740
27.08000 449.589
27.12000 432.246
27.16000 439.132
27.20000 450.368
27.24000 440.971
27.28000 434.571
27.32000 436.825
27.36000 399.882
27.40000 435.471
27.44000 429.918
27.48000 447.209
27.52000 429.351
27.56000 429.057
27.60000 425.741
27.64000 427.833
27.68000 453.061
27.72000 435.352
27.76000 418.501
27.80000 402.593
27.84000 425.941
27.88000 442.757
27.92000 423.264
27.96000 414.266
28.00000 426.739
28.04000 413.066
28.08000 412.464
28.12000 423.243
28.16000 416.184
28.20000 430.870
28.24000 429.839
28.28000 426.496
28.32000 422.300
28.36000 408.917
28.40000 421.128
28.44000 425.130
28.48000 397.537
28.52000 420.707
28.56000 424.486
28.60000 424.134
28.64000 419.340
28.68000 417.425
28.72000 407.334
28.76000 425.844
28.80000 438.398
28.84000 406.312
28.88000 418.476
28.92000 402.476
28.96000 417.391
29.00000 425.525
29.04000 400.372
29.08000 422.272
29.12000 403.585
29.16000 396.713
29.20000 405.215
29.24000 419.697
29.28000 430.802
29.32000 420.874
29.36000 426.520
29.40000 423.019
29.44000 424.661
29.48000 416.354
29.52000 410.867
29.56000 394.620
29.60000 400.740
29.64000 399.339
29.68000 398.654
29.72000 393.426
29.76000 388.932
29.80000 417.585
29.84000 423.043
29.88000 407.165
29.92000 435.003
29.96000 431.709
30.00000 422.329
30.04000 427.778
30.08000 430.814
30.12000 418.975
30.16000 398.659
30.20000 418.578
30.24000 437.254
30.28000 426.540
30.32000 422.742
30.36000 412.347
30.40000 418.166
30.44000 408.033
30.48000 401.750
30.52000 410.924
30.56000 391.001
30.60000 416.819
30.64000 425.240
30.68000 427.961
30.72000 432.018
30.76000 444.400
30.80000 457.927
30.84000 459.113
30.88000 497.635
30.92000 496.475
30.96000 551.216
31.00000 621.150
31.04000 735.568
31.08000 886.882
31.12000 1079.646
31.16000 1331.904
31.20000 1593.500
31.24000 1872.766
31.28000 2179.366
31.32000 2294.828
31.36000 2418.790
31.40000 2394.772
31.44000 2213.977
31.48000 2006.503
31.52000 1729.927
31.56000 1467.974
31.60000 1231.719
31.64000 1030.034
31.68000 867.440
31.72000 786.127
31.76000 684.776
31.80000 616.426
31.84000 547.252
31.88000 509.433
31.92000 448.518
31.96000 447.577
32.00000 430.348
32.04000 407.502
32.08000 404.428
32.12000 417.501
32.16000 390.551
32.20000 389.212
32.24000 388.509
32.28000 379.750
32.32000 371.711
32.36000 402.077
32.40000 367.746
32.44000 389.766
32.48000 390.494
32.52000 376.648
32.56000 383.129
32.60000 380.833
32.64000 352.692
32.68000 361.201
32.72000 381.179
32.76000 368.220
32.80000 375.176
32.84000 385.748
32.88000 398.551
32.92000 399.306
32.96000 409.073
33.00000 380.226
33.04000 384.368
33.08000 373.708
33.12000 360.983
33.16000 349.908
33.20000 340.379
33.24000 336.346
33.28000 347.872
33.32000 346.374
33.36000 341.594
33.40000 338.318
33.44000 340.366
33.48000 355.110
33.52000 336.282
33.56000 340.934
33.60000 331.682
33.64000 336.843
33.68000 348.942
33.72000 323.634
33.76000 325.712
33.80000 335.491
33.84000 333.305
33.88000 332.790
33.92000 343.408
33.96000 336.980
34.00000 310.390
34.04000 331.650
34.08000 336.296
34.12000 334.710
34.16000 337.426
34.20000 322.332
34.24000 332.668
34.28000 330.531
34.32000 329.120
34.36000 331.866
34.40000 333.094
34.44000 320.624
34.48000 324.230
34.52000 314.418
34.56000 320.161
34.60000 317.506
34.64000 319.306
34.68000 326.626
34.72000 302.235
34.76000 326.644
34.80000 316.434
34.84000 327.819
34.88000 320.781
34.92000 312.038
34.96000 320.918
35.00000 313.735
35.04000 332.112
35.08000 326.263
35.12000 306.504
35.16000 302.250
35.20000 298.740
35.24000 328.567
35.28000 308.214
35.32000 302.389
35.36000 316.847
35.40000 296.284
35.44000 318.614
35.48000 308.337
35.52000 297.726
35.56000 308.812
35.60000 306.817
35.64000 305.284
35.68000 306.894
35.72000 299.691
35.76000 297.646
35.80000 300.596
35.84000 300.356
35.88000 300.195
35.92000 302.026
35.96000 279.590
36.00000 301.557
36.04000 307.759
36.08000 298.743
36.12000 301.512
36.16000 300.305
36.20000 288.136
36.24000 292.190
36.28000 305.590
36.32000 301.789
36.36000 305.398
36.40000 287.975
36.44000 288.514
36.48000 292.825
36.52000 310.278
36.56000 297.084
36.60000 301.090
36.64000 300.784
36.68000 295.480
36.72000 298.140
36.76000 282.723
36.80000 294.552
36.84000 286.624
36.88000 278.060
36.92000 292.318
36.96000 290.498
37.00000 300.242
37.04000 301.130
37.08000 307.460
37.12000 298.924
37.16000 297.770
37.20000 271.881
37.24000 273.328
37.28000 282.043
37.32000 288.011
37.36000 283.263
37.40000 283.344
37.44000 289.368
37.48000 286.505
37.52000 280.584
37.56000 282.076
37.60000 262.812
37.64000 274.804
37.68000 289.547
37.72000 269.969
37.76000 271.581
37.80000 276.404
37.84000 266.767
37.88000 283.738
37.92000 292.912
37.96000 287.490
38.00000 290.071
38.04000 294.258
38.08000 281.724
38.12000 282.320
38.16000 295.858
38.20000 290.726
38.24000 281.668
38.28000 304.453
38.32000 305.759
38.36000 331.680
38.40000 356.386
38.44000 395.535
38.48000 420.065
38.52000 445.233
38.56000 490.033
38.60000 513.053
38.64000 539.302
38.68000 531.444
38.72000 516.697
38.76000 518.762
38.80000 486.488
38.84000 463.148
38.88000 426.220
38.92000 369.565
38.96000 361.482
39.00000 339.224
39.04000 325.839
39.08000 301.956
39.12000 285.917
39.16000 279.766
39.20000 265.548
39.24000 282.049
39.28000 278.105
39.32000 270.336
39.36000 270.302
39.40000 261.674
39.44000 268.656
39.48000 278.648
39.52000 268.718
39.56000 268.322
39.60000 245.263
39.64000 261.409
39.68000 268.752
39.72000 267.591
39.76000 260.370
39.80000 261.121
39.84000 263.986
39.88000 271.549
39.92000 261.651
39.96000 260.748
40.00000 275.226
40.04000 258.037
40.08000 260.753
40.12000 251.769
40.16000 261.019
40.20000 263.428
40.24000 250.508
40.28000 255.715
40.32000 244.653
40.36000 251.606
40.40000 263.188
40.44000 254.740
40.48000 256.470
40.52000 258.603
40.56000 253.252
40.60000 254.491
40.64000 239.335
40.68000 253.023
40.72000 233.918
40.76000 243.792
40.80000 247.326
40.84000 251.469
40.88000 241.831
40.92000 263.741
40.96000 237.300
41.00000 236.396
41.04000 240.713
41.08000 244.800
41.12000 235.840
41.16000 231.579
41.20000 234.338
41.24000 226.368
41.28000 247.817
41.32000 241.533
41.36000 221.362
41.40000 235.041
41.44000 232.922
41.48000 238.205
41.52000 236.288
41.56000 233.392
41.60000 231.653
41.64000 244.529
41.68000 242.893
41.72000 235.945
41.76000 238.185
41.80000 229.818
41.84000 235.316
41.88000 242.520
41.92000 240.767
41.96000 232.450
42.00000 234.168
42.04000 221.500
42.08000 229.882
42.12000 226.666
42.16000 225.647
42.20000 236.756
42.24000 240.108
42.28000 237.023
42.32000 232.161
42.36000 218.979
42.40000 223.430
42.44000 224.848
42.48000 235.955
42.52000 234.431
42.56000 224.593
42.60000 235.498
42.64000 233.691
42.68000 223.649
42.72000 227.481
42.76000 227.341
42.80000 230.676
42.84000 207.275
42.88000 216.112
42.92000 220.333
42.96000 228.405
43.00000 235.462
43.04000 234.616
43.08000 232.650
43.12000 226.967
43.16000 222.371
43.20000 216.556
43.24000 226.437
43.28000 231.459
43.32000 230.408
43.36000 229.995
43.40000 224.282
43.44000 220.491
43.48000 215.735
43.52000 223.741
43.56000 229.590
43.60000 229.322
43.64000 211.809
43.68000 227.323
43.72000 220.612
43.76000 221.188
43.80000 230.909
43.84000 213.620
43.88000 220.951
43.92000 228.239
43.96000 237.718
44.00000 233.338
44.04000 222.327
44.08000 211.634
44.12000 209.540
44.16000 222.546
44.20000 214.937
44.24000 216.724
44.28000 223.453
44.32000 235.606
44.36000 224.052
44.40000 221.376
44.44000 239.561
44.48000 242.046
44.52000 246.961
44.56000 265.341
44.60000 264.965
44.64000 282.873
44.68000 291.919
44.72000 312.482
44.76000 336.197
44.80000 364.224
44.84000 396.318
44.88000 401.141
44.92000 408.735
44.96000 392.238
45.00000 426.031
45.04000 415.842
45.08000 407.622
45.12000 399.940
45.16000 387.550
45.20000 348.662
45.24000 340.632
45.28000 314.744
45.32000 329.295
45.36000 309.494
45.40000 303.851
45.44000 293.812
45.48000 280.891
45.52000 276.717
45.56000 262.063
45.60000 274.686
45.64000 264.360
45.68000 265.807
45.72000 271.038
45.76000 251.568
45.80000 242.978
45.84000 239.954
45.88000 230.463
45.92000 233.152
45.96000 226.790
46.00000 204.271
46.04000 214.438
46.08000 219.661
46.12000 211.466
46.16000 201.120
46.20000 209.855
46.24000 197.080
46.28000 204.062
46.32000 208.581
46.36000 198.100
46.40000 203.599
46.44000 203.242
46.48000 202.237
46.52000 210.842
46.56000 196.363
46.60000 201.920
46.64000 197.895
46.68000 189.415
46.72000 189.890
46.76000 194.044
46.80000 197.596
46.84000 199.623
46.88000 196.794
46.92000 194.927
46.96000 192.668
47.00000 198.954
47.04000 197.540
47.08000 187.716
47.12000 198.673
47.16000 189.535
47.20000 186.602
47.24000 190.884
47.28000 188.197
47.32000 191.079
47.36000 176.044
47.40000 189.936
47.44000 182.513
47.48000 193.401
47.52000 185.501
47.56000 198.370
47.60000 184.017
47.64000 189.445
47.68000 186.356
47.72000 185.229
47.76000 180.841
47.80000 186.032
47.84000 186.723
47.88000 190.171
47.92000 181.550
47.96000 172.539
48.00000 200.376
48.04000 184.328
48.08000 190.055
48.12000 187.715
48.16000 178.345
48.20000 180.085
48.24000 189.230
48.28000 180.068
48.32000 174.384
48.36000 174.696
48.40000 175.093
48.44000 182.098
48.48000 183.264
48.52000 185.212
48.56000 189.166
48.60000 184.022
48.64000 172.915
48.68000 173.096
48.72000 181.375
48.76000 173.257
48.80000 180.544
48.84000 174.299
48.88000 183.989
48.92000 178.379
48.96000 174.630
49.00000 178.343
49.04000 171.955
49.08000 181.015
49.12000 192.538
49.16000 178.564
49.20000 170.365
49.24000 171.219
49.28000 175.232
49.32000 174.740
49.36000 173.652
49.40000 181.410
49.44000 167.603
49.48000 179.433
49.52000 176.895
49.56000 173.364
49.60000 171.117
49.64000 182.986
49.68000 180.196
49.72000 174.232
49.76000 181.633
49.80000 176.619
49.84000 181.982
49.88000 162.181
49.92000 172.066
49.96000 178.694
50.00000 180.393
50.04000 189.406
50.08000 180.343
50.12000 186.290
50.16000 177.467
50.20000 176.925
50.24000 185.872
50.28000 189.732
50.32000 201.643
50.36000 200.465
50.40000 213.707
50.44000 204.978
50.48000 217.564
50.52000 219.015
50.56000 215.231
50.60000 232.914
50.64000 228.043
50.68000 233.411
50.72000 229.318
50.76000 223.929
50.80000 221.824
50.84000 200.826
50.88000 219.653
50.92000 207.195
50.96000 203.233
51.00000 198.342
51.04000 193.013
51.08000 202.354
51.12000 177.761
51.16000 187.256
51.20000 173.188
51.24000 171.181
51.28000 176.364
51.32000 181.205
51.36000 182.532
51.40000 160.911
51.44000 171.101
51.48000 167.165
51.52000 174.558
51.56000 169.623
51.60000 168.840
51.64000 167.896
51.68000 162.261
51.72000 157.735
51.76000 159.009
51.80000 165.661
51.84000 167.260
51.88000 168.599
51.92000 153.249
51.96000 161.159
52.00000 162.412
52.04000 152.706
52.08000 151.856
52.12000 165.448
52.16000 165.879
52.20000 160.174
52.24000 162.738
52.28000 156.076
52.32000 161.699
52.36000 158.823
52.40000 160.338
52.44000 154.997
52.48000 166.107
52.52000 151.041
52.56000 167.469
52.60000 169.485
52.64000 166.338
52.68000 153.809
52.72000 152.073
52.76000 148.125
52.80000 148.408
52.84000 156.600
52.88000 149.473
52.92000 165.632
52.96000 154.292
53.00000 156.538
53.04000 165.648
53.08000 160.739
53.12000 155.737
53.16000 164.438
53.20000 152.596
53.24000 161.924
53.28000 160.037
53.32000 157.789
53.36000 147.641
53.40000 160.250
53.44000 151.032
53.48000 167.377
53.52000 155.043
53.56000 168.981
53.60000 158.985
53.64000 143.157
53.68000 148.892
53.72000 164.026
53.76000 153.159
53.80000 156.413
53.84000 151.577
53.88000 155.285
53.92000 153.679
53.96000 147.773
54.00000 166.666
54.04000 155.708
54.08000 153.485
54.12000 155.097
54.16000 148.134
54.20000 145.084
54.24000 145.706
54.28000 160.336
54.32000 141.254
54.36000 137.956
54.40000 168.566
54.44000 155.026
54.48000 157.366
54.52000 160.030
54.56000 149.618
54.60000 155.258
54.64000 151.776
54.68000 148.616
54.72000 155.054
54.76000 149.431
54.80000 142.897
54.84000 143.557
54.88000 151.936
54.92000 147.866
54.96000 156.518
55.00000 157.015
55.04000 150.947
55.08000 163.469
55.12000 170.039
55.16000 163.471
55.20000 163.302
55.24000 165.691
55.28000 170.370
55.32000 162.201
55.36000 178.670
55.40000 187.837
55.44000 207.109
55.48000 219.209
55.52000 219.806
55.56000 241.898
55.60000 269.135
55.64000 295.269
55.68000 307.901
55.72000 333.653
55.76000 352.794
55.80000 380.459
55.84000 394.668
55.88000 402.324
55.92000 396.903
55.96000 396.558
56.00000 382.330
56.04000 346.658
56.08000 339.028
56.12000 320.525
56.16000 300.796
56.20000 259.914
56.24000 246.993
56.28000 221.009
56.32000 210.442
56.36000 211.042
56.40000 195.660
56.44000 193.968
56.48000 168.035
56.52000 165.647
56.56000 169.002
56.60000 166.750
56.64000 168.492
56.68000 158.847
56.72000 155.804
56.76000 160.528
56.80000 149.106
56.84000 148.483
56.88000 142.067
56.92000 146.446
56.96000 145.681
57.00000 142.950
57.04000 153.117
57.08000 149.712
57.12000 147.625
57.16000 142.883
57.20000 141.496
57.24000 141.216
57.28000 139.897
57.32000 141.976
57.36000 139.098
57.40000 142.510
57.44000 142.580
57.48000 142.104
57.52000 138.054
57.56000 156.763
57.60000 139.579
57.64000 140.925
57.68000 144.692
57.72000 142.714
57.76000 137.748
57.80000 133.870
57.84000 146.826
57.88000 140.048
57.92000 143.798
57.96000 133.941
58.00000 132.059
58.04000 144.945
58.08000 142.048
58.12000 136.007
58.16000 133.130
58.20000 134.804
58.24000 148.921
58.28000 145.318
58.32000 152.435
58.36000 132.783
58.40000 137.954
58.44000 131.180
58.48000 134.033
58.52000 140.790
58.56000 153.449
58.60000 140.539
58.64000 129.238
58.68000 133.046
58.72000 134.514
58.76000 136.547
58.80000 127.876
58.84000 133.185
58.88000 128.059
58.92000 141.318
58.96000 129.595
59.00000 133.992
59.04000 145.739
59.08000 132.770
59.12000 125.409
59.16000 123.660
59.20000 126.378
59.24000 138.048
59.28000 120.256
59.32000 134.347
59.36000 129.452
59.40000 136.323
59.44000 139.188
59.48000 127.742
59.52000 130.251
59.56000 132.642
59.60000 134.594
59.64000 132.318
59.68000 131.766
59.72000 132.264
59.76000 135.786
59.80000 133.798
59.84000 138.592
59.88000 122.519
59.92000 140.378
59.96000 128.105
60.00000 132.338
60.04000 124.022
60.08000 132.188
60.12000 126.621
60.16000 131.081
60.20000 127.950
60.24000 131.036
60.28000 130.119
60.32000 126.184
60.36000 121.733
60.40000 137.156
60.44000 137.483
60.48000 136.447
60.52000 135.695
60.56000 135.172
60.60000 138.980
60.64000 135.249
60.68000 134.090
60.72000 136.583
60.76000 127.323
60.80000 128.500
60.84000 123.992
60.88000 133.068
60.92000 130.802
60.96000 136.982
61.00000 120.736
61.04000 127.691
61.08000 139.489
61.12000 132.478
61.16000 129.536
61.20000 135.457
61.24000 138.260
61.28000 150.725
61.32000 135.978
61.36000 136.633
61.40000 136.171
61.44000 145.626
61.48000 139.542
61.52000 183.546
61.56000 222.069
61.60000 274.811
61.64000 306.778
61.68000 317.495
61.72000 327.480
61.76000 312.258
61.80000 238.124
61.84000 195.414
61.88000 161.559
61.92000 153.473
61.96000 146.013
62.00000 147.044
62.04000 147.429
62.08000 132.017
62.12000 138.917
62.16000 139.284
62.20000 141.219
62.24000 141.694
62.28000 133.228
62.32000 134.840
62.36000 141.745
62.40000 137.093
62.44000 140.806
62.48000 150.206
62.52000 137.274
62.56000 147.653
62.60000 147.286
62.64000 141.935
62.68000 147.595
62.72000 138.323
62.76000 139.974
62.80000 136.230
62.84000 150.037
62.88000 157.016
62.92000 151.271
62.96000 146.743
63.00000 155.917
63.04000 140.193
63.08000 146.969
63.12000 150.153
63.16000 146.729
63.20000 142.383
63.24000 146.282
63.28000 144.073
63.32000 152.744
63.36000 149.382
63.40000 150.139
63.44000 159.202
63.48000 149.393
63.52000 147.871
63.56000 146.178
63.60000 150.760
63.64000 141.959
63.68000 147.789
63.72000 155.046
63.76000 156.409
63.80000 164.687
63.84000 143.220
63.88000 147.340
63.92000 158.753
63.96000 159.856
64.00000 153.790
64.04000 153.369
64.08000 171.080
64.12000 161.669
64.16000 154.096
64.20000 159.649
64.24000 168.613
64.28000 164.500
64.32000 172.092
64.36000 166.628
64.40000 165.880
64.44000 164.563
64.48000 166.144
64.52000 175.105
64.56000 181.126
64.60000 171.453
64.64000 169.647
64.68000 181.819
64.72000 183.382
64.76000 190.488
64.80000 199.880
64.84000 203.740
64.88000 192.008
64.92000 200.460
64.96000 213.401
65.00000 208.873
65.04000 201.967
65.08000 224.270
65.12000 229.822
65.16000 241.992
65.20000 250.265
65.24000 272.117
65.28000 275.738
65.32000 285.606
65.36000 300.160
65.40000 311.063
65.44000 316.941
65.48000 346.234
65.52000 330.749
65.56000 348.025
65.60000 361.336
65.64000 420.018
65.68000 511.504
65.72000 710.787
65.76000 985.319
65.80000 1260.063
65.84000 1383.502
65.88000 1397.386
65.92000 1336.764
65.96000 1138.989
66.00000 802.506
66.04000 545.441
66.08000 432.536
66.12000 377.993
66.16000 360.279
66.20000 343.786
66.24000 395.628
66.28000 400.359
66.32000 465.160
66.36000 526.545
66.40000 553.973
66.44000 531.197
66.48000 514.837
66.52000 493.290
66.56000 410.606
66.60000 388.348
66.64000 361.504
66.68000 370.093
66.72000 358.723
66.76000 355.009
66.80000 336.552
66.84000 351.935
66.88000 364.089
66.92000 365.136
66.96000 375.823
67.00000 387.194
67.04000 387.663
67.08000 391.083
67.12000 410.028
67.16000 403.443
67.20000 409.514
67.24000 429.294
67.28000 426.695
67.32000 430.079
67.36000 464.754
67.40000 457.456
67.44000 450.354
67.48000 450.328
67.52000 476.029
67.56000 462.919
67.60000 487.705
67.64000 502.398
67.68000 520.765
67.72000 508.501
67.76000 537.022
67.80000 523.914
67.84000 551.916
67.88000 567.538
67.92000 567.833
67.96000 579.457
68.00000 587.686
68.04000 607.228
68.08000 601.451
68.12000 628.133
68.16000 643.299
68.20000 663.900
68.24000 685.773
68.28000 712.375
68.32000 708.271
68.36000 764.449
68.40000 787.467
68.44000 828.559
68.48000 915.233
68.52000 939.942
68.56000 1019.140
68.60000 1143.771
68.64000 1313.201
68.68000 1597.033
68.72000 1881.238
68.76000 2188.550
68.80000 2546.355
68.84000 3038.551
68.88000 3969.326
68.92000 6853.766
68.96000 17146.619
69.00000 37749.020
69.04000 59736.473
69.08000 71005.492
69.12000 73697.359
69.16000 76458.477
69.20000 76045.992
69.24000 63451.457
69.28000 48952.922
69.32000 39904.945
69.36000 35761.848
69.40000 29324.262
69.44000 17840.203
69.48000 8580.556
69.52000 3837.974
69.56000 2330.089
69.60000 1788.343
69.64000 1469.720
69.68000 1278.154
69.72000 1123.117
69.76000 1076.718
69.80000 952.953
69.84000 910.239
69.88000 821.834
69.92000 794.201
69.96000 748.408
70.00000 726.813