File: XRD/XRD/25-09-2025/XY Data/BTO_Mapping_Theta2Theta_25-09-2025_001_25_-20-000_34-641.xy
20.00000 576.813
20.04000 544.574
20.08000 553.774
20.12000 558.181
20.16000 562.748
20.20000 565.249
20.24000 548.878
20.28000 566.884
20.32000 559.153
20.36000 554.872
20.40000 551.352
20.44000 553.815
20.48000 560.810
20.52000 556.987
20.56000 547.642
20.60000 547.582
20.64000 556.866
20.68000 564.392
20.72000 535.519
20.76000 544.747
20.80000 537.433
20.84000 550.979
20.88000 579.563
20.92000 553.428
20.96000 546.847
21.00000 547.162
21.04000 512.992
21.08000 553.785
21.12000 526.127
21.16000 552.991
21.20000 538.600
21.24000 537.351
21.28000 535.720
21.32000 547.950
21.36000 552.652
21.40000 544.897
21.44000 544.018
21.48000 530.188
21.52000 542.210
21.56000 528.995
21.60000 529.514
21.64000 547.430
21.68000 567.096
21.72000 561.918
21.76000 580.323
21.80000 555.903
21.84000 576.511
21.88000 585.437
21.92000 600.466
21.96000 605.378
22.00000 637.570
22.04000 613.543
22.08000 650.201
22.12000 658.235
22.16000 669.999
22.20000 659.242
22.24000 644.164
22.28000 631.454
22.32000 612.250
22.36000 618.617
22.40000 589.985
22.44000 583.762
22.48000 588.182
22.52000 567.947
22.56000 544.531
22.60000 559.846
22.64000 536.763
22.68000 547.415
22.72000 512.548
22.76000 507.696
22.80000 513.255
22.84000 515.785
22.88000 530.167
22.92000 516.582
22.96000 510.150
23.00000 524.073
23.04000 514.420
23.08000 511.963
23.12000 507.531
23.16000 504.751
23.20000 496.405
23.24000 505.151
23.28000 504.897
23.32000 516.822
23.36000 506.155
23.40000 500.684
23.44000 498.859
23.48000 484.500
23.52000 472.515
23.56000 494.491
23.60000 492.396
23.64000 488.055
23.68000 503.330
23.72000 496.090
23.76000 483.476
23.80000 498.665
23.84000 512.425
23.88000 474.061
23.92000 498.679
23.96000 482.553
24.00000 466.925
24.04000 478.978
24.08000 495.316
24.12000 488.929
24.16000 497.023
24.20000 481.180
24.24000 478.188
24.28000 488.359
24.32000 477.020
24.36000 481.938
24.40000 497.933
24.44000 483.500
24.48000 485.061
24.52000 475.379
24.56000 475.292
24.60000 466.658
24.64000 475.811
24.68000 482.343
24.72000 471.323
24.76000 471.003
24.80000 483.319
24.84000 479.510
24.88000 477.107
24.92000 486.736
24.96000 474.229
25.00000 486.051
25.04000 483.006
25.08000 469.560
25.12000 459.241
25.16000 474.346
25.20000 469.726
25.24000 463.799
25.28000 453.722
25.32000 457.593
25.36000 448.440
25.40000 455.134
25.44000 458.174
25.48000 461.637
25.52000 456.669
25.56000 478.223
25.60000 448.158
25.64000 442.702
25.68000 474.274
25.72000 468.852
25.76000 463.722
25.80000 451.292
25.84000 465.827
25.88000 448.101
25.92000 466.207
25.96000 454.423
26.00000 443.688
26.04000 433.899
26.08000 449.652
26.12000 438.462
26.16000 457.301
26.20000 462.893
26.24000 448.432
26.28000 441.893
26.32000 462.380
26.36000 446.630
26.40000 457.955
26.44000 439.589
26.48000 442.089
26.52000 448.442
26.56000 455.997
26.60000 443.753
26.64000 452.764
26.68000 431.172
26.72000 450.610
26.76000 437.345
26.80000 430.563
26.84000 430.736
26.88000 442.664
26.92000 431.691
26.96000 434.647
27.00000 425.381
27.04000 431.369
27.08000 439.468
27.12000 448.652
27.16000 425.483
27.20000 437.322
27.24000 432.517
27.28000 418.383
27.32000 425.699
27.36000 423.845
27.40000 429.062
27.44000 438.504
27.48000 410.873
27.52000 425.883
27.56000 424.147
27.60000 431.282
27.64000 424.086
27.68000 431.570
27.72000 425.111
27.76000 398.304
27.80000 415.664
27.84000 436.248
27.88000 411.650
27.92000 408.353
27.96000 421.893
28.00000 421.342
28.04000 429.112
28.08000 401.872
28.12000 435.509
28.16000 413.944
28.20000 433.807
28.24000 419.131
28.28000 406.315
28.32000 403.742
28.36000 406.965
28.40000 413.723
28.44000 430.328
28.48000 425.543
28.52000 405.635
28.56000 404.056
28.60000 432.370
28.64000 415.506
28.68000 405.488
28.72000 406.919
28.76000 396.529
28.80000 387.199
28.84000 422.567
28.88000 413.985
28.92000 392.182
28.96000 399.750
29.00000 386.082
29.04000 408.777
29.08000 394.780
29.12000 419.792
29.16000 400.776
29.20000 399.974
29.24000 409.252
29.28000 401.657
29.32000 399.777
29.36000 419.317
29.40000 412.698
29.44000 399.938
29.48000 403.750
29.52000 415.623
29.56000 397.148
29.60000 424.547
29.64000 426.535
29.68000 396.920
29.72000 397.878
29.76000 389.433
29.80000 398.572
29.84000 397.553
29.88000 402.416
29.92000 404.210
29.96000 391.358
30.00000 400.190
30.04000 389.380
30.08000 405.276
30.12000 419.338
30.16000 408.067
30.20000 413.532
30.24000 407.477
30.28000 390.438
30.32000 399.904
30.36000 420.371
30.40000 408.937
30.44000 386.465
30.48000 418.601
30.52000 391.009
30.56000 387.491
30.60000 410.859
30.64000 403.836
30.68000 416.068
30.72000 421.623
30.76000 410.789
30.80000 408.576
30.84000 424.041
30.88000 426.387
30.92000 431.556
30.96000 452.600
31.00000 469.554
31.04000 524.604
31.08000 566.660
31.12000 626.714
31.16000 707.381
31.20000 850.259
31.24000 982.982
31.28000 1171.502
31.32000 1331.629
31.36000 1395.455
31.40000 1459.952
31.44000 1443.700
31.48000 1337.166
31.52000 1221.857
31.56000 1055.358
31.60000 910.436
31.64000 760.001
31.68000 637.522
31.72000 578.032
31.76000 519.297
31.80000 500.131
31.84000 472.809
31.88000 457.768
31.92000 458.262
31.96000 429.647
32.00000 452.360
32.04000 404.247
32.08000 397.156
32.12000 401.704
32.16000 375.587
32.20000 375.230
32.24000 381.024
32.28000 389.562
32.32000 415.176
32.36000 385.713
32.40000 386.033
32.44000 382.060
32.48000 365.689
32.52000 376.082
32.56000 385.232
32.60000 378.138
32.64000 357.981
32.68000 367.404
32.72000 370.745
32.76000 346.745
32.80000 371.081
32.84000 370.642
32.88000 388.642
32.92000 385.177
32.96000 379.993
33.00000 386.523
33.04000 377.431
33.08000 352.652
33.12000 344.481
33.16000 357.348
33.20000 349.978
33.24000 346.104
33.28000 355.153
33.32000 340.364
33.36000 323.596
33.40000 343.034
33.44000 334.082
33.48000 319.905
33.52000 338.494
33.56000 332.145
33.60000 346.573
33.64000 332.937
33.68000 343.617
33.72000 331.825
33.76000 312.432
33.80000 324.637
33.84000 328.314
33.88000 330.393
33.92000 314.717
33.96000 344.212
34.00000 333.498
34.04000 330.009
34.08000 331.967
34.12000 317.764
34.16000 320.474
34.20000 325.632
34.24000 328.672
34.28000 340.890
34.32000 324.661
34.36000 318.460
34.40000 312.263
34.44000 303.941
34.48000 326.130
34.52000 309.027
34.56000 310.942
34.60000 317.606
34.64000 320.703
34.68000 323.521
34.72000 315.355
34.76000 313.985
34.80000 305.761
34.84000 300.415
34.88000 308.536
34.92000 313.834
34.96000 312.690
35.00000 305.234
35.04000 323.710
35.08000 303.085
35.12000 317.643
35.16000 296.348
35.20000 312.051
35.24000 314.269
35.28000 312.847
35.32000 301.387
35.36000 316.846
35.40000 309.458
35.44000 312.765
35.48000 315.492
35.52000 303.884
35.56000 300.971
35.60000 314.032
35.64000 303.403
35.68000 308.962
35.72000 295.667
35.76000 301.807
35.80000 311.491
35.84000 303.563
35.88000 308.424
35.92000 302.245
35.96000 276.050
36.00000 320.416
36.04000 307.099
36.08000 302.005
36.12000 293.976
36.16000 286.109
36.20000 293.570
36.24000 308.017
36.28000 298.007
36.32000 311.645
36.36000 291.335
36.40000 303.978
36.44000 292.095
36.48000 287.427
36.52000 309.272
36.56000 290.693
36.60000 285.174
36.64000 279.591
36.68000 273.173
36.72000 289.846
36.76000 286.900
36.80000 283.739
36.84000 300.013
36.88000 294.140
36.92000 289.282
36.96000 287.309
37.00000 296.223
37.04000 285.403
37.08000 285.840
37.12000 299.535
37.16000 300.623
37.20000 285.202
37.24000 302.296
37.28000 289.132
37.32000 290.280
37.36000 297.819
37.40000 300.155
37.44000 278.759
37.48000 272.962
37.52000 288.885
37.56000 274.288
37.60000 275.505
37.64000 288.897
37.68000 292.378
37.72000 288.257
37.76000 271.518
37.80000 287.977
37.84000 302.271
37.88000 277.397
37.92000 268.213
37.96000 280.983
38.00000 287.468
38.04000 283.422
38.08000 286.238
38.12000 292.120
38.16000 289.736
38.20000 292.307
38.24000 305.071
38.28000 297.434
38.32000 309.129
38.36000 312.442
38.40000 336.689
38.44000 368.011
38.48000 411.372
38.52000 454.324
38.56000 525.810
38.60000 590.253
38.64000 671.335
38.68000 737.274
38.72000 788.173
38.76000 759.392
38.80000 747.661
38.84000 687.962
38.88000 605.994
38.92000 549.933
38.96000 469.127
39.00000 405.535
39.04000 360.955
39.08000 329.859
39.12000 312.145
39.16000 293.664
39.20000 292.971
39.24000 287.812
39.28000 275.249
39.32000 262.165
39.36000 290.086
39.40000 269.421
39.44000 282.151
39.48000 267.766
39.52000 266.551
39.56000 270.552
39.60000 264.522
39.64000 263.348
39.68000 266.916
39.72000 255.578
39.76000 273.827
39.80000 248.811
39.84000 260.109
39.88000 258.109
39.92000 258.411
39.96000 253.725
40.00000 247.992
40.04000 260.590
40.08000 258.125
40.12000 252.684
40.16000 258.015
40.20000 261.499
40.24000 241.619
40.28000 261.271
40.32000 252.821
40.36000 251.597
40.40000 249.235
40.44000 255.679
40.48000 249.547
40.52000 258.284
40.56000 222.605
40.60000 245.230
40.64000 255.273
40.68000 245.790
40.72000 239.453
40.76000 247.715
40.80000 263.529
40.84000 242.599
40.88000 239.361
40.92000 230.463
40.96000 247.161
41.00000 245.892
41.04000 250.824
41.08000 245.678
41.12000 236.314
41.16000 236.491
41.20000 244.330
41.24000 242.065
41.28000 235.440
41.32000 240.070
41.36000 249.108
41.40000 237.411
41.44000 230.528
41.48000 232.892
41.52000 236.130
41.56000 242.383
41.60000 247.604
41.64000 240.841
41.68000 237.856
41.72000 237.728
41.76000 228.854
41.80000 242.056
41.84000 243.993
41.88000 235.652
41.92000 241.465
41.96000 227.166
42.00000 222.883
42.04000 216.813
42.08000 228.817
42.12000 228.434
42.16000 227.170
42.20000 235.089
42.24000 225.983
42.28000 226.964
42.32000 236.697
42.36000 233.169
42.40000 233.443
42.44000 233.520
42.48000 221.107
42.52000 232.638
42.56000 232.795
42.60000 227.304
42.64000 223.394
42.68000 241.305
42.72000 221.466
42.76000 229.355
42.80000 217.521
42.84000 218.753
42.88000 216.701
42.92000 226.713
42.96000 220.218
43.00000 212.774
43.04000 237.957
43.08000 240.417
43.12000 216.576
43.16000 225.112
43.20000 224.176
43.24000 209.835
43.28000 216.913
43.32000 205.672
43.36000 227.908
43.40000 222.573
43.44000 218.670
43.48000 222.473
43.52000 226.147
43.56000 215.312
43.60000 214.715
43.64000 219.883
43.68000 216.340
43.72000 216.604
43.76000 216.156
43.80000 216.645
43.84000 219.130
43.88000 214.730
43.92000 217.257
43.96000 214.085
44.00000 218.870
44.04000 220.875
44.08000 216.561
44.12000 211.369
44.16000 237.904
44.20000 226.055
44.24000 211.309
44.28000 220.224
44.32000 208.075
44.36000 223.713
44.40000 212.402
44.44000 213.861
44.48000 218.316
44.52000 227.870
44.56000 240.468
44.60000 215.682
44.64000 225.231
44.68000 231.201
44.72000 230.446
44.76000 227.892
44.80000 235.929
44.84000 245.137
44.88000 252.249
44.92000 244.998
44.96000 253.341
45.00000 283.943
45.04000 276.942
45.08000 282.805
45.12000 286.986
45.16000 294.508
45.20000 303.859
45.24000 280.911
45.28000 271.918
45.32000 281.664
45.36000 265.879
45.40000 265.405
45.44000 262.912
45.48000 270.341
45.52000 262.259
45.56000 261.780
45.60000 250.135
45.64000 236.857
45.68000 238.956
45.72000 250.119
45.76000 244.270
45.80000 243.188
45.84000 239.631
45.88000 232.792
45.92000 223.614
45.96000 225.405
46.00000 231.651
46.04000 210.905
46.08000 200.525
46.12000 210.651
46.16000 211.371
46.20000 205.549
46.24000 216.140
46.28000 201.290
46.32000 202.895
46.36000 204.999
46.40000 214.375
46.44000 208.932
46.48000 190.770
46.52000 197.168
46.56000 194.727
46.60000 203.473
46.64000 204.363
46.68000 201.311
46.72000 202.718
46.76000 199.487
46.80000 203.953
46.84000 190.800
46.88000 207.329
46.92000 196.946
46.96000 192.754
47.00000 203.129
47.04000 186.537
47.08000 185.917
47.12000 184.034
47.16000 187.846
47.20000 188.023
47.24000 177.043
47.28000 185.942
47.32000 187.042
47.36000 179.791
47.40000 182.189
47.44000 185.931
47.48000 189.126
47.52000 186.096
47.56000 179.465
47.60000 187.018
47.64000 174.275
47.68000 181.636
47.72000 195.831
47.76000 175.669
47.80000 190.243
47.84000 179.193
47.88000 178.963
47.92000 187.829
47.96000 198.281
48.00000 181.885
48.04000 178.152
48.08000 184.088
48.12000 177.732
48.16000 178.546
48.20000 189.296
48.24000 177.736
48.28000 182.240
48.32000 185.279
48.36000 182.029
48.40000 180.711
48.44000 185.528
48.48000 172.905
48.52000 176.686
48.56000 186.780
48.60000 177.722
48.64000 178.661
48.68000 187.956
48.72000 178.668
48.76000 173.852
48.80000 177.505
48.84000 186.491
48.88000 178.399
48.92000 182.474
48.96000 174.094
49.00000 173.794
49.04000 179.924
49.08000 169.335
49.12000 166.019
49.16000 168.400
49.20000 184.936
49.24000 180.360
49.28000 173.841
49.32000 179.408
49.36000 177.192
49.40000 175.514
49.44000 181.730
49.48000 173.517
49.52000 169.915
49.56000 172.983
49.60000 183.717
49.64000 173.148
49.68000 178.661
49.72000 175.216
49.76000 163.852
49.80000 177.121
49.84000 185.300
49.88000 171.782
49.92000 171.956
49.96000 177.005
50.00000 174.575
50.04000 168.722
50.08000 165.536
50.12000 167.375
50.16000 170.505
50.20000 177.439
50.24000 174.797
50.28000 183.587
50.32000 176.318
50.36000 173.014
50.40000 180.417
50.44000 188.880
50.48000 190.261
50.52000 186.784
50.56000 187.826
50.60000 193.826
50.64000 196.566
50.68000 198.034
50.72000 196.315
50.76000 217.485
50.80000 201.008
50.84000 196.326
50.88000 216.223
50.92000 193.677
50.96000 193.303
51.00000 182.101
51.04000 180.055
51.08000 177.189
51.12000 180.302
51.16000 184.154
51.20000 170.287
51.24000 176.570
51.28000 167.667
51.32000 166.536
51.36000 169.030
51.40000 158.090
51.44000 171.991
51.48000 162.092
51.52000 168.062
51.56000 168.603
51.60000 170.755
51.64000 168.754
51.68000 156.381
51.72000 161.066
51.76000 166.019
51.80000 160.103
51.84000 165.416
51.88000 160.486
51.92000 165.400
51.96000 164.021
52.00000 169.326
52.04000 155.800
52.08000 169.271
52.12000 162.136
52.16000 158.277
52.20000 150.847
52.24000 162.548
52.28000 163.292
52.32000 164.564
52.36000 152.730
52.40000 161.263
52.44000 149.060
52.48000 156.033
52.52000 154.541
52.56000 142.710
52.60000 158.438
52.64000 151.935
52.68000 161.696
52.72000 148.981
52.76000 152.575
52.80000 150.569
52.84000 169.226
52.88000 159.292
52.92000 150.645
52.96000 161.306
53.00000 150.170
53.04000 146.499
53.08000 160.780
53.12000 161.627
53.16000 151.301
53.20000 157.973
53.24000 152.149
53.28000 163.302
53.32000 155.298
53.36000 153.204
53.40000 152.266
53.44000 151.472
53.48000 161.798
53.52000 164.114
53.56000 150.803
53.60000 150.773
53.64000 158.132
53.68000 160.316
53.72000 153.017
53.76000 156.452
53.80000 145.797
53.84000 158.747
53.88000 148.572
53.92000 151.607
53.96000 149.093
54.00000 140.430
54.04000 156.118
54.08000 139.090
54.12000 149.982
54.16000 148.280
54.20000 150.241
54.24000 154.577
54.28000 149.657
54.32000 151.252
54.36000 154.183
54.40000 155.956
54.44000 149.858
54.48000 155.086
54.52000 158.586
54.56000 145.584
54.60000 147.066
54.64000 143.355
54.68000 145.964
54.72000 149.335
54.76000 145.773
54.80000 151.062
54.84000 156.238
54.88000 157.511
54.92000 156.872
54.96000 158.648
55.00000 156.641
55.04000 160.153
55.08000 155.457
55.12000 154.351
55.16000 160.713
55.20000 149.792
55.24000 153.798
55.28000 159.657
55.32000 159.252
55.36000 161.515
55.40000 168.369
55.44000 163.153
55.48000 173.234
55.52000 186.489
55.56000 198.298
55.60000 222.570
55.64000 239.240
55.68000 266.368
55.72000 286.454
55.76000 325.837
55.80000 344.570
55.84000 356.637
55.88000 406.078
55.92000 443.997
55.96000 444.481
56.00000 454.715
56.04000 427.321
56.08000 393.375
56.12000 383.121
56.16000 342.300
56.20000 323.866
56.24000 300.316
56.28000 272.635
56.32000 246.127
56.36000 223.899
56.40000 202.386
56.44000 193.837
56.48000 186.899
56.52000 179.575
56.56000 174.798
56.60000 166.944
56.64000 165.477
56.68000 149.820
56.72000 157.784
56.76000 155.309
56.80000 149.693
56.84000 148.839
56.88000 152.370
56.92000 145.152
56.96000 148.582
57.00000 140.113
57.04000 139.831
57.08000 148.801
57.12000 147.018
57.16000 147.100
57.20000 150.067
57.24000 137.056
57.28000 139.119
57.32000 141.697
57.36000 143.460
57.40000 161.691
57.44000 145.502
57.48000 131.220
57.52000 146.275
57.56000 148.441
57.60000 133.591
57.64000 134.274
57.68000 141.366
57.72000 138.420
57.76000 135.697
57.80000 138.764
57.84000 143.372
57.88000 140.586
57.92000 138.658
57.96000 135.776
58.00000 127.872
58.04000 130.379
58.08000 138.577
58.12000 135.347
58.16000 147.954
58.20000 148.775
58.24000 141.474
58.28000 133.985
58.32000 127.745
58.36000 133.185
58.40000 132.345
58.44000 128.315
58.48000 134.757
58.52000 138.962
58.56000 141.718
58.60000 136.135
58.64000 136.001
58.68000 135.967
58.72000 141.065
58.76000 127.870
58.80000 130.990
58.84000 131.257
58.88000 129.742
58.92000 130.731
58.96000 131.595
59.00000 141.322
59.04000 127.826
59.08000 136.761
59.12000 145.204
59.16000 120.246
59.20000 136.201
59.24000 138.078
59.28000 139.540
59.32000 132.453
59.36000 139.254
59.40000 134.362
59.44000 127.004
59.48000 144.366
59.52000 128.511
59.56000 134.515
59.60000 139.644
59.64000 127.169
59.68000 117.739
59.72000 128.102
59.76000 135.059
59.80000 135.954
59.84000 134.191
59.88000 126.654
59.92000 134.524
59.96000 130.970
60.00000 135.850
60.04000 128.671
60.08000 130.082
60.12000 115.842
60.16000 131.939
60.20000 129.639
60.24000 131.705
60.28000 130.691
60.32000 122.818
60.36000 131.174
60.40000 126.759
60.44000 128.253
60.48000 122.198
60.52000 137.917
60.56000 127.633
60.60000 129.182
60.64000 130.801
60.68000 125.349
60.72000 135.606
60.76000 131.226
60.80000 132.949
60.84000 133.221
60.88000 135.454
60.92000 136.319
60.96000 137.407
61.00000 135.143
61.04000 127.728
61.08000 130.784
61.12000 129.091
61.16000 127.612
61.20000 135.589
61.24000 144.766
61.28000 133.749
61.32000 139.013
61.36000 138.969
61.40000 129.899
61.44000 130.177
61.48000 151.283
61.52000 161.682
61.56000 210.487
61.60000 236.105
61.64000 264.878
61.68000 275.764
61.72000 274.522
61.76000 241.597
61.80000 211.461
61.84000 162.406
61.88000 153.973
61.92000 147.028
61.96000 145.857
62.00000 140.053
62.04000 148.314
62.08000 153.414
62.12000 140.316
62.16000 128.039
62.20000 138.714
62.24000 138.282
62.28000 140.983
62.32000 146.878
62.36000 144.061
62.40000 133.908
62.44000 131.309
62.48000 128.392
62.52000 145.342
62.56000 136.582
62.60000 136.428
62.64000 140.409
62.68000 135.658
62.72000 141.445
62.76000 131.909
62.80000 142.038
62.84000 138.554
62.88000 138.366
62.92000 144.375
62.96000 145.126
63.00000 123.214
63.04000 143.559
63.08000 144.032
63.12000 150.571
63.16000 144.709
63.20000 133.777
63.24000 145.353
63.28000 144.199
63.32000 151.715
63.36000 149.428
63.40000 144.572
63.44000 146.089
63.48000 132.933
63.52000 149.233
63.56000 150.287
63.60000 147.477
63.64000 149.657
63.68000 145.036
63.72000 147.467
63.76000 138.300
63.80000 149.911
63.84000 153.817
63.88000 156.439
63.92000 166.378
63.96000 160.055
64.00000 151.625
64.04000 156.754
64.08000 153.941
64.12000 164.126
64.16000 165.705
64.20000 151.844
64.24000 160.690
64.28000 160.756
64.32000 160.233
64.36000 166.964
64.40000 161.690
64.44000 168.187
64.48000 166.237
64.52000 177.023
64.56000 172.712
64.60000 175.187
64.64000 170.543
64.68000 176.709
64.72000 173.601
64.76000 175.586
64.80000 178.685
64.84000 176.130
64.88000 190.267
64.92000 176.897
64.96000 180.635
65.00000 183.513
65.04000 180.998
65.08000 176.517
65.12000 202.217
65.16000 204.905
65.20000 204.963
65.24000 204.026
65.28000 228.079
65.32000 223.193
65.36000 243.160
65.40000 233.801
65.44000 244.757
65.48000 274.571
65.52000 274.328
65.56000 295.527
65.60000 318.154
65.64000 358.613
65.68000 433.186
65.72000 579.105
65.76000 775.520
65.80000 987.396
65.84000 1072.831
65.88000 1101.320
65.92000 1056.126
65.96000 887.936
66.00000 652.927
66.04000 463.867
66.08000 370.560
66.12000 315.663
66.16000 310.237
66.20000 314.228
66.24000 307.288
66.28000 348.946
66.32000 385.690
66.36000 439.049
66.40000 457.826
66.44000 444.754
66.48000 453.372
66.52000 413.587
66.56000 367.888
66.60000 319.511
66.64000 337.092
66.68000 309.575
66.72000 329.208
66.76000 342.194
66.80000 340.739
66.84000 321.210
66.88000 346.596
66.92000 345.714
66.96000 326.642
67.00000 346.575
67.04000 358.647
67.08000 373.526
67.12000 356.967
67.16000 379.942
67.20000 380.446
67.24000 389.560
67.28000 365.096
67.32000 387.337
67.36000 404.044
67.40000 425.417
67.44000 418.450
67.48000 422.748
67.52000 417.362
67.56000 436.765
67.60000 454.177
67.64000 456.005
67.68000 462.136
67.72000 470.442
67.76000 467.670
67.80000 497.751
67.84000 495.786
67.88000 513.835
67.92000 507.862
67.96000 523.849
68.00000 565.964
68.04000 554.407
68.08000 548.729
68.12000 583.505
68.16000 565.455
68.20000 587.146
68.24000 622.352
68.28000 645.363
68.32000 649.253
68.36000 660.923
68.40000 709.837
68.44000 743.007
68.48000 761.032
68.52000 800.236
68.56000 854.524
68.60000 1011.212
68.64000 1141.085
68.68000 1339.506
68.72000 1589.423
68.76000 1788.404
68.80000 2074.098
68.84000 2472.290
68.88000 3114.039
68.92000 5277.997
68.96000 13070.537
69.00000 29046.379
69.04000 45978.254
69.08000 54638.973
69.12000 56431.121
69.16000 58713.313
69.20000 58658.316
69.24000 48484.313
69.28000 37308.969
69.32000 30303.238
69.36000 27361.736
69.40000 22656.490
69.44000 13733.167
69.48000 6527.629
69.52000 2929.764
69.56000 1898.731
69.60000 1517.200
69.64000 1295.415
69.68000 1122.781
69.72000 1014.825
69.76000 931.966
69.80000 858.950
69.84000 817.394
69.88000 765.926
69.92000 725.081
69.96000 678.992
70.00000 659.164