File: XRD/XRD/25-09-2025/XY Data/BTO_Mapping_Theta2Theta_25-09-2025_001_07_18-271_8-135.xy
20.00000 544.875
20.04000 556.013
20.08000 556.419
20.12000 556.088
20.16000 571.264
20.20000 570.450
20.24000 554.951
20.28000 543.977
20.32000 561.799
20.36000 539.521
20.40000 576.117
20.44000 553.542
20.48000 540.325
20.52000 565.984
20.56000 553.676
20.60000 540.288
20.64000 546.380
20.68000 542.170
20.72000 527.828
20.76000 542.471
20.80000 538.084
20.84000 555.430
20.88000 552.889
20.92000 554.781
20.96000 569.636
21.00000 546.787
21.04000 542.900
21.08000 547.228
21.12000 539.857
21.16000 539.515
21.20000 527.617
21.24000 541.746
21.28000 532.936
21.32000 542.085
21.36000 550.356
21.40000 542.948
21.44000 540.841
21.48000 541.805
21.52000 541.713
21.56000 557.929
21.60000 554.263
21.64000 548.915
21.68000 562.729
21.72000 527.305
21.76000 547.026
21.80000 559.770
21.84000 542.404
21.88000 546.559
21.92000 549.098
21.96000 571.656
22.00000 582.926
22.04000 581.231
22.08000 584.416
22.12000 605.129
22.16000 601.265
22.20000 578.189
22.24000 591.257
22.28000 591.448
22.32000 587.840
22.36000 603.215
22.40000 592.515
22.44000 580.243
22.48000 554.339
22.52000 558.447
22.56000 539.420
22.60000 548.803
22.64000 531.715
22.68000 532.721
22.72000 504.232
22.76000 510.746
22.80000 500.513
22.84000 512.945
22.88000 500.967
22.92000 495.358
22.96000 520.532
23.00000 501.337
23.04000 528.892
23.08000 500.183
23.12000 498.638
23.16000 505.509
23.20000 498.142
23.24000 492.997
23.28000 505.346
23.32000 517.538
23.36000 483.207
23.40000 497.306
23.44000 501.902
23.48000 497.042
23.52000 499.340
23.56000 505.222
23.60000 495.746
23.64000 520.294
23.68000 501.966
23.72000 513.712
23.76000 478.656
23.80000 489.458
23.84000 513.964
23.88000 495.400
23.92000 503.997
23.96000 502.926
24.00000 477.641
24.04000 515.575
24.08000 480.459
24.12000 499.585
24.16000 488.820
24.20000 488.657
24.24000 489.044
24.28000 477.944
24.32000 460.115
24.36000 476.342
24.40000 473.922
24.44000 480.769
24.48000 483.131
24.52000 481.815
24.56000 485.308
24.60000 475.921
24.64000 474.079
24.68000 471.136
24.72000 478.009
24.76000 478.131
24.80000 454.389
24.84000 457.565
24.88000 476.195
24.92000 471.112
24.96000 479.938
25.00000 486.290
25.04000 473.889
25.08000 476.778
25.12000 469.126
25.16000 464.202
25.20000 473.122
25.24000 454.803
25.28000 462.949
25.32000 475.544
25.36000 464.810
25.40000 458.497
25.44000 447.009
25.48000 460.682
25.52000 459.040
25.56000 463.752
25.60000 466.821
25.64000 451.836
25.68000 431.215
25.72000 470.127
25.76000 458.401
25.80000 466.620
25.84000 463.714
25.88000 462.432
25.92000 486.197
25.96000 452.092
26.00000 445.795
26.04000 448.349
26.08000 450.381
26.12000 448.998
26.16000 440.423
26.20000 443.559
26.24000 444.025
26.28000 455.386
26.32000 454.045
26.36000 446.306
26.40000 450.070
26.44000 456.156
26.48000 440.972
26.52000 423.375
26.56000 446.324
26.60000 456.715
26.64000 448.148
26.68000 441.188
26.72000 442.867
26.76000 434.254
26.80000 436.093
26.84000 429.063
26.88000 445.591
26.92000 431.536
26.96000 434.387
27.00000 439.602
27.04000 447.785
27.08000 425.886
27.12000 431.130
27.16000 442.273
27.20000 431.207
27.24000 430.712
27.28000 427.467
27.32000 452.916
27.36000 405.697
27.40000 439.924
27.44000 422.590
27.48000 415.511
27.52000 423.579
27.56000 422.017
27.60000 433.910
27.64000 417.383
27.68000 438.254
27.72000 422.324
27.76000 426.999
27.80000 438.834
27.84000 428.093
27.88000 398.905
27.92000 420.274
27.96000 413.285
28.00000 421.855
28.04000 422.211
28.08000 440.090
28.12000 412.051
28.16000 406.911
28.20000 399.265
28.24000 415.639
28.28000 417.787
28.32000 418.641
28.36000 418.714
28.40000 414.884
28.44000 414.388
28.48000 412.246
28.52000 401.467
28.56000 422.532
28.60000 408.474
28.64000 405.444
28.68000 407.270
28.72000 424.513
28.76000 399.256
28.80000 390.749
28.84000 412.061
28.88000 407.594
28.92000 409.113
28.96000 411.007
29.00000 402.014
29.04000 412.164
29.08000 395.263
29.12000 414.116
29.16000 426.535
29.20000 412.994
29.24000 416.919
29.28000 402.141
29.32000 400.464
29.36000 405.748
29.40000 405.195
29.44000 402.590
29.48000 394.990
29.52000 380.368
29.56000 411.742
29.60000 390.634
29.64000 407.945
29.68000 405.842
29.72000 381.422
29.76000 412.510
29.80000 400.142
29.84000 395.403
29.88000 407.088
29.92000 395.482
29.96000 402.899
30.00000 406.510
30.04000 412.762
30.08000 414.516
30.12000 412.773
30.16000 391.982
30.20000 417.934
30.24000 402.078
30.28000 404.636
30.32000 410.817
30.36000 406.693
30.40000 406.630
30.44000 404.768
30.48000 414.583
30.52000 412.645
30.56000 412.685
30.60000 409.367
30.64000 389.208
30.68000 420.606
30.72000 411.768
30.76000 409.851
30.80000 415.873
30.84000 423.887
30.88000 417.217
30.92000 441.104
30.96000 468.996
31.00000 490.455
31.04000 498.970
31.08000 561.781
31.12000 610.155
31.16000 682.050
31.20000 821.631
31.24000 903.294
31.28000 1040.551
31.32000 1198.508
31.36000 1254.507
31.40000 1350.823
31.44000 1324.391
31.48000 1217.013
31.52000 1193.643
31.56000 1037.107
31.60000 914.685
31.64000 770.697
31.68000 708.603
31.72000 630.050
31.76000 552.825
31.80000 513.452
31.84000 486.169
31.88000 477.962
31.92000 470.215
31.96000 440.661
32.00000 432.861
32.04000 415.012
32.08000 410.235
32.12000 402.192
32.16000 409.367
32.20000 408.777
32.24000 389.038
32.28000 385.825
32.32000 380.620
32.36000 390.960
32.40000 384.225
32.44000 377.689
32.48000 369.723
32.52000 388.433
32.56000 378.667
32.60000 376.901
32.64000 372.865
32.68000 371.995
32.72000 376.938
32.76000 353.385
32.80000 374.461
32.84000 359.382
32.88000 368.513
32.92000 380.314
32.96000 366.578
33.00000 362.555
33.04000 378.300
33.08000 359.235
33.12000 340.595
33.16000 348.125
33.20000 349.449
33.24000 330.470
33.28000 349.352
33.32000 344.034
33.36000 325.815
33.40000 327.687
33.44000 344.210
33.48000 358.045
33.52000 330.637
33.56000 315.496
33.60000 329.495
33.64000 335.242
33.68000 316.520
33.72000 328.077
33.76000 330.884
33.80000 329.949
33.84000 326.769
33.88000 327.985
33.92000 326.413
33.96000 316.279
34.00000 323.784
34.04000 316.624
34.08000 312.518
34.12000 333.468
34.16000 317.805
34.20000 332.946
34.24000 320.329
34.28000 320.252
34.32000 331.809
34.36000 322.686
34.40000 312.286
34.44000 324.389
34.48000 331.299
34.52000 317.205
34.56000 322.712
34.60000 320.460
34.64000 331.563
34.68000 316.520
34.72000 307.244
34.76000 315.966
34.80000 322.618
34.84000 319.000
34.88000 323.382
34.92000 302.408
34.96000 322.590
35.00000 319.342
35.04000 323.107
35.08000 316.063
35.12000 317.615
35.16000 318.428
35.20000 307.766
35.24000 309.007
35.28000 317.839
35.32000 314.049
35.36000 309.502
35.40000 306.351
35.44000 296.645
35.48000 305.267
35.52000 309.014
35.56000 305.381
35.60000 287.170
35.64000 308.187
35.68000 304.806
35.72000 292.488
35.76000 303.997
35.80000 303.385
35.84000 294.469
35.88000 303.449
35.92000 304.044
35.96000 304.524
36.00000 298.266
36.04000 287.497
36.08000 300.200
36.12000 305.994
36.16000 295.320
36.20000 304.697
36.24000 293.001
36.28000 293.114
36.32000 297.273
36.36000 287.427
36.40000 290.870
36.44000 303.425
36.48000 297.818
36.52000 292.115
36.56000 278.461
36.60000 296.189
36.64000 294.547
36.68000 284.918
36.72000 280.934
36.76000 304.184
36.80000 296.364
36.84000 295.442
36.88000 292.616
36.92000 298.332
36.96000 289.258
37.00000 308.538
37.04000 303.611
37.08000 295.384
37.12000 291.938
37.16000 299.304
37.20000 282.006
37.24000 303.757
37.28000 290.428
37.32000 297.146
37.36000 288.210
37.40000 284.613
37.44000 280.871
37.48000 284.784
37.52000 289.013
37.56000 282.940
37.60000 287.178
37.64000 279.574
37.68000 300.258
37.72000 285.836
37.76000 282.483
37.80000 282.613
37.84000 279.033
37.88000 281.639
37.92000 278.219
37.96000 276.285
38.00000 280.600
38.04000 275.805
38.08000 306.747
38.12000 279.352
38.16000 284.489
38.20000 282.747
38.24000 289.875
38.28000 290.049
38.32000 305.673
38.36000 297.806
38.40000 308.936
38.44000 321.890
38.48000 378.542
38.52000 426.900
38.56000 475.891
38.60000 560.794
38.64000 637.343
38.68000 696.583
38.72000 737.045
38.76000 726.745
38.80000 690.451
38.84000 619.546
38.88000 566.002
38.92000 485.351
38.96000 418.144
39.00000 356.910
39.04000 321.882
39.08000 317.181
39.12000 287.370
39.16000 279.179
39.20000 279.523
39.24000 281.174
39.28000 264.432
39.32000 277.900
39.36000 275.789
39.40000 270.650
39.44000 279.980
39.48000 249.930
39.52000 266.920
39.56000 247.632
39.60000 255.860
39.64000 257.501
39.68000 269.948
39.72000 267.231
39.76000 256.629
39.80000 270.636
39.84000 259.955
39.88000 263.669
39.92000 263.882
39.96000 277.402
40.00000 265.243
40.04000 255.911
40.08000 252.288
40.12000 257.920
40.16000 263.388
40.20000 263.804
40.24000 253.225
40.28000 263.964
40.32000 250.881
40.36000 244.596
40.40000 252.505
40.44000 249.476
40.48000 251.003
40.52000 243.486
40.56000 245.769
40.60000 246.046
40.64000 249.127
40.68000 249.249
40.72000 239.612
40.76000 239.087
40.80000 242.217
40.84000 254.186
40.88000 237.571
40.92000 230.012
40.96000 238.666
41.00000 239.259
41.04000 241.831
41.08000 240.857
41.12000 246.620
41.16000 239.798
41.20000 251.544
41.24000 243.402
41.28000 241.806
41.32000 228.741
41.36000 239.840
41.40000 244.537
41.44000 238.767
41.48000 245.016
41.52000 238.188
41.56000 239.840
41.60000 233.058
41.64000 241.308
41.68000 228.016
41.72000 224.053
41.76000 218.738
41.80000 224.837
41.84000 228.327
41.88000 243.942
41.92000 230.652
41.96000 233.369
42.00000 240.716
42.04000 225.197
42.08000 229.401
42.12000 234.781
42.16000 238.136
42.20000 233.033
42.24000 228.936
42.28000 229.554
42.32000 238.640
42.36000 232.863
42.40000 235.075
42.44000 235.390
42.48000 228.121
42.52000 229.403
42.56000 223.788
42.60000 244.903
42.64000 229.313
42.68000 225.531
42.72000 214.610
42.76000 224.440
42.80000 216.894
42.84000 238.101
42.88000 233.975
42.92000 221.795
42.96000 218.148
43.00000 213.316
43.04000 217.811
43.08000 230.001
43.12000 223.364
43.16000 215.747
43.20000 218.604
43.24000 229.035
43.28000 230.144
43.32000 227.835
43.36000 225.313
43.40000 230.231
43.44000 235.341
43.48000 211.862
43.52000 222.244
43.56000 221.188
43.60000 225.134
43.64000 219.617
43.68000 211.597
43.72000 217.845
43.76000 232.234
43.80000 217.178
43.84000 218.408
43.88000 212.554
43.92000 216.761
43.96000 212.448
44.00000 233.412
44.04000 210.616
44.08000 203.046
44.12000 206.371
44.16000 221.930
44.20000 218.426
44.24000 209.195
44.28000 210.647
44.32000 215.177
44.36000 217.576
44.40000 217.499
44.44000 223.484
44.48000 214.487
44.52000 231.094
44.56000 216.377
44.60000 222.871
44.64000 214.945
44.68000 221.186
44.72000 223.202
44.76000 223.362
44.80000 219.666
44.84000 220.106
44.88000 235.242
44.92000 242.252
44.96000 243.518
45.00000 239.304
45.04000 245.757
45.08000 244.276
45.12000 251.270
45.16000 262.379
45.20000 255.312
45.24000 244.420
45.28000 254.789
45.32000 254.620
45.36000 255.777
45.40000 241.562
45.44000 241.334
45.48000 248.455
45.52000 248.686
45.56000 245.791
45.60000 234.354
45.64000 242.955
45.68000 232.611
45.72000 246.478
45.76000 235.309
45.80000 222.982
45.84000 227.614
45.88000 239.151
45.92000 244.272
45.96000 218.171
46.00000 222.218
46.04000 213.385
46.08000 202.459
46.12000 224.447
46.16000 213.476
46.20000 219.042
46.24000 201.372
46.28000 201.615
46.32000 216.083
46.36000 211.622
46.40000 188.368
46.44000 203.156
46.48000 197.360
46.52000 188.068
46.56000 198.966
46.60000 197.729
46.64000 186.224
46.68000 196.448
46.72000 188.046
46.76000 197.165
46.80000 193.296
46.84000 197.541
46.88000 203.257
46.92000 189.045
46.96000 186.400
47.00000 196.554
47.04000 192.768
47.08000 187.186
47.12000 181.704
47.16000 187.924
47.20000 179.250
47.24000 184.466
47.28000 192.014
47.32000 195.737
47.36000 190.478
47.40000 186.321
47.44000 184.717
47.48000 195.017
47.52000 191.110
47.56000 192.061
47.60000 178.789
47.64000 184.238
47.68000 189.657
47.72000 196.677
47.76000 178.887
47.80000 180.008
47.84000 173.728
47.88000 191.975
47.92000 169.416
47.96000 193.400
48.00000 179.408
48.04000 176.545
48.08000 180.352
48.12000 196.374
48.16000 181.584
48.20000 178.992
48.24000 180.340
48.28000 188.093
48.32000 172.204
48.36000 188.607
48.40000 183.549
48.44000 180.861
48.48000 176.643
48.52000 184.453
48.56000 177.064
48.60000 195.872
48.64000 174.525
48.68000 167.927
48.72000 181.478
48.76000 173.075
48.80000 184.604
48.84000 177.516
48.88000 181.655
48.92000 184.516
48.96000 183.005
49.00000 186.776
49.04000 178.983
49.08000 178.458
49.12000 184.920
49.16000 177.297
49.20000 165.751
49.24000 178.366
49.28000 177.789
49.32000 176.603
49.36000 178.377
49.40000 176.063
49.44000 183.983
49.48000 185.110
49.52000 170.802
49.56000 166.541
49.60000 161.613
49.64000 182.025
49.68000 173.221
49.72000 179.093
49.76000 158.386
49.80000 172.329
49.84000 174.525
49.88000 158.386
49.92000 166.781
49.96000 176.706
50.00000 167.262
50.04000 169.826
50.08000 170.091
50.12000 175.346
50.16000 177.913
50.20000 174.501
50.24000 179.652
50.28000 167.342
50.32000 180.629
50.36000 176.705
50.40000 176.463
50.44000 167.619
50.48000 167.208
50.52000 169.921
50.56000 178.863
50.60000 189.435
50.64000 186.326
50.68000 182.232
50.72000 192.570
50.76000 195.872
50.80000 180.457
50.84000 193.227
50.88000 188.227
50.92000 183.888
50.96000 180.984
51.00000 180.458
51.04000 176.727
51.08000 161.666
51.12000 168.540
51.16000 165.601
51.20000 176.968
51.24000 173.733
51.28000 163.385
51.32000 172.223
51.36000 167.195
51.40000 166.604
51.44000 163.650
51.48000 168.449
51.52000 171.895
51.56000 162.762
51.60000 164.043
51.64000 161.507
51.68000 155.674
51.72000 163.462
51.76000 159.156
51.80000 161.141
51.84000 156.872
51.88000 158.955
51.92000 156.419
51.96000 160.104
52.00000 161.414
52.04000 167.441
52.08000 160.232
52.12000 164.886
52.16000 168.680
52.20000 171.461
52.24000 158.056
52.28000 166.699
52.32000 157.187
52.36000 152.830
52.40000 154.482
52.44000 152.401
52.48000 153.261
52.52000 152.693
52.56000 148.242
52.60000 142.720
52.64000 153.291
52.68000 163.040
52.72000 162.007
52.76000 154.132
52.80000 151.691
52.84000 149.665
52.88000 152.106
52.92000 151.842
52.96000 157.627
53.00000 161.977
53.04000 145.251
53.08000 157.944
53.12000 161.317
53.16000 156.445
53.20000 157.311
53.24000 147.577
53.28000 165.757
53.32000 163.162
53.36000 165.402
53.40000 157.522
53.44000 146.116
53.48000 153.684
53.52000 159.515
53.56000 147.266
53.60000 153.777
53.64000 155.476
53.68000 141.082
53.72000 151.190
53.76000 140.779
53.80000 155.299
53.84000 150.962
53.88000 160.993
53.92000 156.429
53.96000 148.147
54.00000 157.905
54.04000 149.788
54.08000 146.981
54.12000 148.098
54.16000 165.455
54.20000 149.125
54.24000 154.022
54.28000 147.921
54.32000 148.600
54.36000 152.614
54.40000 147.304
54.44000 150.817
54.48000 146.555
54.52000 156.918
54.56000 151.763
54.60000 151.294
54.64000 149.917
54.68000 147.752
54.72000 158.851
54.76000 151.082
54.80000 145.181
54.84000 156.393
54.88000 152.856
54.92000 156.322
54.96000 149.678
55.00000 154.484
55.04000 146.280
55.08000 149.163
55.12000 155.181
55.16000 143.101
55.20000 161.144
55.24000 153.666
55.28000 164.327
55.32000 162.742
55.36000 159.838
55.40000 159.993
55.44000 155.117
55.48000 160.857
55.52000 180.401
55.56000 196.110
55.60000 189.545
55.64000 204.371
55.68000 230.007
55.72000 260.400
55.76000 270.995
55.80000 308.287
55.84000 366.795
55.88000 379.485
55.92000 405.563
55.96000 403.999
56.00000 421.510
56.04000 408.357
56.08000 385.253
56.12000 362.135
56.16000 323.707
56.20000 310.400
56.24000 261.764
56.28000 254.935
56.32000 227.827
56.36000 204.301
56.40000 192.101
56.44000 175.541
56.48000 176.479
56.52000 167.073
56.56000 167.294
56.60000 160.729
56.64000 146.028
56.68000 160.362
56.72000 140.783
56.76000 158.257
56.80000 145.508
56.84000 145.078
56.88000 149.917
56.92000 150.873
56.96000 140.043
57.00000 154.030
57.04000 138.807
57.08000 149.642
57.12000 137.083
57.16000 147.832
57.20000 148.498
57.24000 142.410
57.28000 130.306
57.32000 149.409
57.36000 143.544
57.40000 141.181
57.44000 135.752
57.48000 140.122
57.52000 131.290
57.56000 140.418
57.60000 141.319
57.64000 138.577
57.68000 141.558
57.72000 139.012
57.76000 144.103
57.80000 152.113
57.84000 152.366
57.88000 126.156
57.92000 136.563
57.96000 136.643
58.00000 141.295
58.04000 141.916
58.08000 137.468
58.12000 136.225
58.16000 134.664
58.20000 143.089
58.24000 141.731
58.28000 136.049
58.32000 124.992
58.36000 143.145
58.40000 143.855
58.44000 132.334
58.48000 134.462
58.52000 136.241
58.56000 131.487
58.60000 138.327
58.64000 136.904
58.68000 138.882
58.72000 130.620
58.76000 128.350
58.80000 133.918
58.84000 128.181
58.88000 138.978
58.92000 137.550
58.96000 130.634
59.00000 133.314
59.04000 135.796
59.08000 148.465
59.12000 132.962
59.16000 126.820
59.20000 128.321
59.24000 129.825
59.28000 135.390
59.32000 135.000
59.36000 146.241
59.40000 127.617
59.44000 129.162
59.48000 134.686
59.52000 140.563
59.56000 132.532
59.60000 130.428
59.64000 144.750
59.68000 129.051
59.72000 131.634
59.76000 128.857
59.80000 132.098
59.84000 131.430
59.88000 125.463
59.92000 127.170
59.96000 133.640
60.00000 129.939
60.04000 123.150
60.08000 131.847
60.12000 125.948
60.16000 129.122
60.20000 122.089
60.24000 136.241
60.28000 139.518
60.32000 135.995
60.36000 130.593
60.40000 127.944
60.44000 127.977
60.48000 128.652
60.52000 127.305
60.56000 135.851
60.60000 131.999
60.64000 130.113
60.68000 131.046
60.72000 133.433
60.76000 139.622
60.80000 131.584
60.84000 125.446
60.88000 135.776
60.92000 123.993
60.96000 132.447
61.00000 128.992
61.04000 133.557
61.08000 129.420
61.12000 140.982
61.16000 130.562
61.20000 143.940
61.24000 138.043
61.28000 135.732
61.32000 133.584
61.36000 140.235
61.40000 136.357
61.44000 138.680
61.48000 143.909
61.52000 159.888
61.56000 175.733
61.60000 226.850
61.64000 252.716
61.68000 271.977
61.72000 272.137
61.76000 260.794
61.80000 225.550
61.84000 176.296
61.88000 152.047
61.92000 147.348
61.96000 151.070
62.00000 135.678
62.04000 144.356
62.08000 143.165
62.12000 143.087
62.16000 139.621
62.20000 133.011
62.24000 141.332
62.28000 157.226
62.32000 146.360
62.36000 147.916
62.40000 143.464
62.44000 144.917
62.48000 128.509
62.52000 148.078
62.56000 147.599
62.60000 147.605
62.64000 141.690
62.68000 152.337
62.72000 136.125
62.76000 141.502
62.80000 140.299
62.84000 139.206
62.88000 135.617
62.92000 139.642
62.96000 146.114
63.00000 137.841
63.04000 139.228
63.08000 138.821
63.12000 138.283
63.16000 140.612
63.20000 139.849
63.24000 149.813
63.28000 143.129
63.32000 149.586
63.36000 156.210
63.40000 145.121
63.44000 156.057
63.48000 152.315
63.52000 165.150
63.56000 133.664
63.60000 150.023
63.64000 151.177
63.68000 146.276
63.72000 149.941
63.76000 152.780
63.80000 158.506
63.84000 146.559
63.88000 153.856
63.92000 160.921
63.96000 156.461
64.00000 162.337
64.04000 155.569
64.08000 157.725
64.12000 161.912
64.16000 165.007
64.20000 162.338
64.24000 161.047
64.28000 154.568
64.32000 152.555
64.36000 158.499
64.40000 162.297
64.44000 154.158
64.48000 165.980
64.52000 159.384
64.56000 172.198
64.60000 173.934
64.64000 162.816
64.68000 173.609
64.72000 178.640
64.76000 186.113
64.80000 174.075
64.84000 173.139
64.88000 175.103
64.92000 178.355
64.96000 179.804
65.00000 183.039
65.04000 182.785
65.08000 183.202
65.12000 184.019
65.16000 197.273
65.20000 210.388
65.24000 219.497
65.28000 226.006
65.32000 207.638
65.36000 232.915
65.40000 245.908
65.44000 265.906
65.48000 257.419
65.52000 276.447
65.56000 279.367
65.60000 317.913
65.64000 332.590
65.68000 380.918
65.72000 526.819
65.76000 724.264
65.80000 885.823
65.84000 1043.933
65.88000 1050.532
65.92000 1025.243
65.96000 880.522
66.00000 638.859
66.04000 467.313
66.08000 364.925
66.12000 306.713
66.16000 302.119
66.20000 296.587
66.24000 313.363
66.28000 339.609
66.32000 385.529
66.36000 416.926
66.40000 452.206
66.44000 465.392
66.48000 434.576
66.52000 420.254
66.56000 356.066
66.60000 331.127
66.64000 331.309
66.68000 330.666
66.72000 327.136
66.76000 320.363
66.80000 315.826
66.84000 331.166
66.88000 327.997
66.92000 338.565
66.96000 322.860
67.00000 342.930
67.04000 347.334
67.08000 368.115
67.12000 363.648
67.16000 366.565
67.20000 371.802
67.24000 376.879
67.28000 381.158
67.32000 414.434
67.36000 375.714
67.40000 392.075
67.44000 396.057
67.48000 441.566
67.52000 438.804
67.56000 427.795
67.60000 439.539
67.64000 453.401
67.68000 461.357
67.72000 458.320
67.76000 452.053
67.80000 491.504
67.84000 483.140
67.88000 505.291
67.92000 518.647
67.96000 560.671
68.00000 527.579
68.04000 544.077
68.08000 552.013
68.12000 567.349
68.16000 578.616
68.20000 586.504
68.24000 603.820
68.28000 633.550
68.32000 626.871
68.36000 670.940
68.40000 682.370
68.44000 708.179
68.48000 740.816
68.52000 811.580
68.56000 868.312
68.60000 922.147
68.64000 1087.130
68.68000 1279.692
68.72000 1479.285
68.76000 1724.148
68.80000 1904.804
68.84000 2164.906
68.88000 2604.879
68.92000 4084.788
68.96000 10228.795
69.00000 24549.863
69.04000 41586.273
69.08000 50828.227
69.12000 53054.707
69.16000 55042.012
69.20000 56305.004
69.24000 48151.621
69.28000 36362.074
69.32000 29323.727
69.36000 26411.471
69.40000 22616.838
69.44000 14478.961
69.48000 6880.192
69.52000 2999.733
69.56000 1872.541
69.60000 1445.048
69.64000 1246.710
69.68000 1112.909
69.72000 990.311
69.76000 913.869
69.80000 871.316
69.84000 790.593
69.88000 750.961
69.92000 712.977
69.96000 698.303
70.00000 684.606