File: XRD/XRD/25-09-2025/XY Data/BTO_Mapping_Theta2Theta_25-09-2025_001_56_20-074_-22-294.xy
20.00000 570.631
20.04000 559.689
20.08000 546.395
20.12000 559.593
20.16000 548.130
20.20000 551.584
20.24000 556.975
20.28000 558.899
20.32000 560.854
20.36000 534.779
20.40000 549.304
20.44000 556.025
20.48000 556.955
20.52000 572.173
20.56000 562.128
20.60000 560.767
20.64000 555.020
20.68000 544.873
20.72000 574.785
20.76000 533.409
20.80000 546.147
20.84000 544.599
20.88000 544.757
20.92000 545.589
20.96000 555.002
21.00000 551.992
21.04000 519.637
21.08000 533.787
21.12000 534.650
21.16000 537.440
21.20000 532.323
21.24000 522.333
21.28000 541.292
21.32000 555.929
21.36000 541.324
21.40000 530.421
21.44000 519.503
21.48000 552.088
21.52000 548.847
21.56000 547.055
21.60000 542.299
21.64000 533.849
21.68000 536.189
21.72000 533.429
21.76000 547.604
21.80000 557.892
21.84000 555.062
21.88000 569.623
21.92000 566.304
21.96000 601.057
22.00000 600.223
22.04000 610.392
22.08000 595.883
22.12000 634.648
22.16000 627.266
22.20000 606.109
22.24000 603.729
22.28000 610.795
22.32000 610.186
22.36000 599.051
22.40000 581.502
22.44000 572.318
22.48000 557.645
22.52000 553.382
22.56000 542.945
22.60000 546.832
22.64000 539.425
22.68000 548.671
22.72000 536.999
22.76000 514.456
22.80000 526.833
22.84000 508.002
22.88000 512.477
22.92000 505.746
22.96000 500.855
23.00000 494.698
23.04000 518.023
23.08000 507.373
23.12000 487.828
23.16000 498.426
23.20000 507.229
23.24000 488.048
23.28000 521.616
23.32000 514.378
23.36000 505.591
23.40000 501.846
23.44000 494.304
23.48000 475.691
23.52000 507.209
23.56000 490.379
23.60000 507.040
23.64000 480.367
23.68000 497.442
23.72000 503.092
23.76000 500.808
23.80000 504.023
23.84000 506.085
23.88000 478.971
23.92000 475.055
23.96000 497.323
24.00000 473.448
24.04000 500.880
24.08000 482.438
24.12000 482.429
24.16000 491.836
24.20000 483.452
24.24000 480.543
24.28000 467.570
24.32000 475.165
24.36000 484.092
24.40000 489.075
24.44000 486.921
24.48000 473.871
24.52000 467.103
24.56000 469.027
24.60000 481.489
24.64000 475.617
24.68000 463.149
24.72000 470.277
24.76000 480.307
24.80000 477.049
24.84000 472.704
24.88000 481.810
24.92000 471.881
24.96000 454.255
25.00000 479.164
25.04000 466.282
25.08000 471.391
25.12000 470.112
25.16000 468.637
25.20000 478.205
25.24000 472.615
25.28000 463.636
25.32000 460.302
25.36000 455.222
25.40000 461.844
25.44000 464.567
25.48000 459.388
25.52000 479.769
25.56000 465.176
25.60000 458.668
25.64000 454.516
25.68000 451.856
25.72000 446.489
25.76000 461.435
25.80000 471.172
25.84000 462.835
25.88000 456.400
25.92000 446.420
25.96000 457.967
26.00000 449.255
26.04000 448.128
26.08000 452.926
26.12000 444.934
26.16000 444.291
26.20000 442.664
26.24000 444.272
26.28000 446.756
26.32000 442.054
26.36000 459.150
26.40000 448.416
26.44000 473.102
26.48000 442.803
26.52000 433.420
26.56000 434.120
26.60000 445.137
26.64000 441.100
26.68000 437.745
26.72000 434.235
26.76000 451.748
26.80000 442.862
26.84000 437.646
26.88000 427.409
26.92000 439.623
26.96000 428.997
27.00000 435.943
27.04000 426.124
27.08000 439.568
27.12000 430.188
27.16000 448.177
27.20000 434.997
27.24000 424.794
27.28000 429.762
27.32000 420.259
27.36000 429.610
27.40000 437.574
27.44000 412.780
27.48000 417.093
27.52000 449.730
27.56000 445.498
27.60000 422.998
27.64000 436.378
27.68000 438.232
27.72000 419.853
27.76000 422.968
27.80000 427.245
27.84000 425.979
27.88000 412.055
27.92000 420.320
27.96000 411.086
28.00000 426.678
28.04000 421.279
28.08000 412.112
28.12000 439.447
28.16000 426.323
28.20000 399.704
28.24000 411.184
28.28000 411.317
28.32000 407.040
28.36000 409.439
28.40000 403.505
28.44000 407.163
28.48000 438.749
28.52000 419.343
28.56000 404.725
28.60000 410.980
28.64000 393.808
28.68000 409.709
28.72000 426.489
28.76000 419.148
28.80000 396.443
28.84000 405.823
28.88000 403.104
28.92000 412.878
28.96000 411.764
29.00000 401.219
29.04000 408.214
29.08000 403.648
29.12000 411.968
29.16000 380.551
29.20000 411.110
29.24000 388.524
29.28000 411.129
29.32000 403.513
29.36000 404.524
29.40000 393.368
29.44000 402.186
29.48000 407.530
29.52000 404.010
29.56000 401.735
29.60000 399.486
29.64000 394.576
29.68000 395.175
29.72000 399.755
29.76000 414.339
29.80000 396.025
29.84000 397.327
29.88000 404.219
29.92000 398.684
29.96000 409.562
30.00000 413.854
30.04000 410.742
30.08000 414.237
30.12000 423.450
30.16000 382.854
30.20000 410.208
30.24000 409.548
30.28000 387.638
30.32000 395.609
30.36000 411.038
30.40000 411.952
30.44000 404.782
30.48000 417.073
30.52000 413.080
30.56000 397.300
30.60000 399.133
30.64000 404.092
30.68000 418.839
30.72000 420.981
30.76000 414.957
30.80000 416.983
30.84000 418.065
30.88000 419.557
30.92000 431.982
30.96000 438.166
31.00000 466.413
31.04000 492.852
31.08000 547.439
31.12000 599.654
31.16000 675.633
31.20000 796.574
31.24000 873.627
31.28000 1029.769
31.32000 1114.466
31.36000 1232.759
31.40000 1254.015
31.44000 1242.048
31.48000 1174.895
31.52000 1066.592
31.56000 952.831
31.60000 841.532
31.64000 715.409
31.68000 652.250
31.72000 578.232
31.76000 536.583
31.80000 491.538
31.84000 463.244
31.88000 457.241
31.92000 433.118
31.96000 419.433
32.00000 423.953
32.04000 396.149
32.08000 406.803
32.12000 391.281
32.16000 396.141
32.20000 388.926
32.24000 389.573
32.28000 373.437
32.32000 389.485
32.36000 378.908
32.40000 377.453
32.44000 361.363
32.48000 367.215
32.52000 368.376
32.56000 377.695
32.60000 363.834
32.64000 368.959
32.68000 352.034
32.72000 362.207
32.76000 353.261
32.80000 365.747
32.84000 359.229
32.88000 380.315
32.92000 371.124
32.96000 364.475
33.00000 370.815
33.04000 365.992
33.08000 361.629
33.12000 355.169
33.16000 358.992
33.20000 340.039
33.24000 344.388
33.28000 332.191
33.32000 332.836
33.36000 337.433
33.40000 330.200
33.44000 335.210
33.48000 334.954
33.52000 331.708
33.56000 328.263
33.60000 333.958
33.64000 320.791
33.68000 329.596
33.72000 330.258
33.76000 323.088
33.80000 318.585
33.84000 322.866
33.88000 319.090
33.92000 343.916
33.96000 331.160
34.00000 318.293
34.04000 322.245
34.08000 308.323
34.12000 345.373
34.16000 307.984
34.20000 321.979
34.24000 329.996
34.28000 332.091
34.32000 307.147
34.36000 316.885
34.40000 321.884
34.44000 328.767
34.48000 311.994
34.52000 318.421
34.56000 323.859
34.60000 307.010
34.64000 308.126
34.68000 316.950
34.72000 294.572
34.76000 304.830
34.80000 332.280
34.84000 312.699
34.88000 312.397
34.92000 322.553
34.96000 320.069
35.00000 333.543
35.04000 316.324
35.08000 307.891
35.12000 311.504
35.16000 315.956
35.20000 305.796
35.24000 302.233
35.28000 301.801
35.32000 323.912
35.36000 311.932
35.40000 308.810
35.44000 306.774
35.48000 305.540
35.52000 314.925
35.56000 319.183
35.60000 303.027
35.64000 306.167
35.68000 312.612
35.72000 300.107
35.76000 295.221
35.80000 301.948
35.84000 309.263
35.88000 295.145
35.92000 297.340
35.96000 312.999
36.00000 309.783
36.04000 317.032
36.08000 317.713
36.12000 306.037
36.16000 295.648
36.20000 303.961
36.24000 300.016
36.28000 286.960
36.32000 293.756
36.36000 302.038
36.40000 293.376
36.44000 296.871
36.48000 298.690
36.52000 292.821
36.56000 303.723
36.60000 294.850
36.64000 290.799
36.68000 286.567
36.72000 289.757
36.76000 287.035
36.80000 293.742
36.84000 282.073
36.88000 285.753
36.92000 291.594
36.96000 307.199
37.00000 295.658
37.04000 292.384
37.08000 298.533
37.12000 291.196
37.16000 292.308
37.20000 273.228
37.24000 306.224
37.28000 283.944
37.32000 286.182
37.36000 295.983
37.40000 279.950
37.44000 271.642
37.48000 278.385
37.52000 287.633
37.56000 290.113
37.60000 279.968
37.64000 289.921
37.68000 277.824
37.72000 282.908
37.76000 289.178
37.80000 283.768
37.84000 275.859
37.88000 289.745
37.92000 305.626
37.96000 277.744
38.00000 275.197
38.04000 283.016
38.08000 285.415
38.12000 286.391
38.16000 283.934
38.20000 288.634
38.24000 278.174
38.28000 299.396
38.32000 294.373
38.36000 298.468
38.40000 319.228
38.44000 346.332
38.48000 368.011
38.52000 416.965
38.56000 485.834
38.60000 578.649
38.64000 670.676
38.68000 717.365
38.72000 780.463
38.76000 802.402
38.80000 744.751
38.84000 685.598
38.88000 637.558
38.92000 537.208
38.96000 432.929
39.00000 387.832
39.04000 340.510
39.08000 322.968
39.12000 300.002
39.16000 282.557
39.20000 282.347
39.24000 268.028
39.28000 267.976
39.32000 268.297
39.36000 271.778
39.40000 258.513
39.44000 265.796
39.48000 262.950
39.52000 264.525
39.56000 259.860
39.60000 269.759
39.64000 271.688
39.68000 252.931
39.72000 254.980
39.76000 255.876
39.80000 269.118
39.84000 256.135
39.88000 256.493
39.92000 269.085
39.96000 263.646
40.00000 267.364
40.04000 263.549
40.08000 274.213
40.12000 252.110
40.16000 242.389
40.20000 249.531
40.24000 252.559
40.28000 259.703
40.32000 245.898
40.36000 246.040
40.40000 259.358
40.44000 250.973
40.48000 248.041
40.52000 264.137
40.56000 248.890
40.60000 251.439
40.64000 241.295
40.68000 247.848
40.72000 257.492
40.76000 257.414
40.80000 249.834
40.84000 242.532
40.88000 244.103
40.92000 240.185
40.96000 240.357
41.00000 239.593
41.04000 255.019
41.08000 236.490
41.12000 237.036
41.16000 227.520
41.20000 244.459
41.24000 252.907
41.28000 234.681
41.32000 239.219
41.36000 230.985
41.40000 235.947
41.44000 250.378
41.48000 222.587
41.52000 228.559
41.56000 246.608
41.60000 232.676
41.64000 232.634
41.68000 242.462
41.72000 246.282
41.76000 244.580
41.80000 235.673
41.84000 225.829
41.88000 231.266
41.92000 232.468
41.96000 242.106
42.00000 229.609
42.04000 230.312
42.08000 239.837
42.12000 232.564
42.16000 223.203
42.20000 229.647
42.24000 217.039
42.28000 224.341
42.32000 228.943
42.36000 233.113
42.40000 235.578
42.44000 230.461
42.48000 230.549
42.52000 222.633
42.56000 218.924
42.60000 219.259
42.64000 225.975
42.68000 235.460
42.72000 226.201
42.76000 234.513
42.80000 223.909
42.84000 218.805
42.88000 226.808
42.92000 225.031
42.96000 224.923
43.00000 223.256
43.04000 233.402
43.08000 223.936
43.12000 231.495
43.16000 215.659
43.20000 219.239
43.24000 225.322
43.28000 228.155
43.32000 218.899
43.36000 220.999
43.40000 222.133
43.44000 226.645
43.48000 226.491
43.52000 216.439
43.56000 223.451
43.60000 229.188
43.64000 217.772
43.68000 221.132
43.72000 209.839
43.76000 220.519
43.80000 204.768
43.84000 231.214
43.88000 215.867
43.92000 230.565
43.96000 212.721
44.00000 212.378
44.04000 200.179
44.08000 205.509
44.12000 215.267
44.16000 214.930
44.20000 231.131
44.24000 221.773
44.28000 213.391
44.32000 208.282
44.36000 224.681
44.40000 214.212
44.44000 218.785
44.48000 213.537
44.52000 212.516
44.56000 215.769
44.60000 216.614
44.64000 224.418
44.68000 240.308
44.72000 226.475
44.76000 228.078
44.80000 218.548
44.84000 236.521
44.88000 229.458
44.92000 240.790
44.96000 258.928
45.00000 253.119
45.04000 266.002
45.08000 259.125
45.12000 258.837
45.16000 258.190
45.20000 254.166
45.24000 245.834
45.28000 260.278
45.32000 261.195
45.36000 255.364
45.40000 262.129
45.44000 252.176
45.48000 258.251
45.52000 262.138
45.56000 258.778
45.60000 250.576
45.64000 240.702
45.68000 239.456
45.72000 240.711
45.76000 226.110
45.80000 235.959
45.84000 207.649
45.88000 214.119
45.92000 223.765
45.96000 230.741
46.00000 223.146
46.04000 222.104
46.08000 207.620
46.12000 206.064
46.16000 206.424
46.20000 219.928
46.24000 217.003
46.28000 205.364
46.32000 189.758
46.36000 203.157
46.40000 211.102
46.44000 195.644
46.48000 203.233
46.52000 205.369
46.56000 188.684
46.60000 196.454
46.64000 187.717
46.68000 199.994
46.72000 201.913
46.76000 202.257
46.80000 209.445
46.84000 208.921
46.88000 188.757
46.92000 189.258
46.96000 209.146
47.00000 204.610
47.04000 193.033
47.08000 201.324
47.12000 194.483
47.16000 189.313
47.20000 196.084
47.24000 180.940
47.28000 196.083
47.32000 190.631
47.36000 176.939
47.40000 191.125
47.44000 195.534
47.48000 185.961
47.52000 177.764
47.56000 177.109
47.60000 180.379
47.64000 191.538
47.68000 190.332
47.72000 189.019
47.76000 177.069
47.80000 194.765
47.84000 181.963
47.88000 179.019
47.92000 192.123
47.96000 184.402
48.00000 185.128
48.04000 177.027
48.08000 182.420
48.12000 180.386
48.16000 194.435
48.20000 188.811
48.24000 193.839
48.28000 164.767
48.32000 183.667
48.36000 181.991
48.40000 193.406
48.44000 183.172
48.48000 188.353
48.52000 175.518
48.56000 176.934
48.60000 188.524
48.64000 185.737
48.68000 185.101
48.72000 169.945
48.76000 177.368
48.80000 193.803
48.84000 178.458
48.88000 179.386
48.92000 175.978
48.96000 181.743
49.00000 176.964
49.04000 191.463
49.08000 183.079
49.12000 175.638
49.16000 180.568
49.20000 177.543
49.24000 176.377
49.28000 164.626
49.32000 164.154
49.36000 169.913
49.40000 170.610
49.44000 181.533
49.48000 174.653
49.52000 166.782
49.56000 170.725
49.60000 168.283
49.64000 175.713
49.68000 174.340
49.72000 170.931
49.76000 177.005
49.80000 171.937
49.84000 177.577
49.88000 173.215
49.92000 170.077
49.96000 166.693
50.00000 182.129
50.04000 174.654
50.08000 175.323
50.12000 180.615
50.16000 178.570
50.20000 174.758
50.24000 164.297
50.28000 177.616
50.32000 186.569
50.36000 181.211
50.40000 179.523
50.44000 177.124
50.48000 179.215
50.52000 184.289
50.56000 179.266
50.60000 185.630
50.64000 188.858
50.68000 201.941
50.72000 194.559
50.76000 182.517
50.80000 179.831
50.84000 185.975
50.88000 196.789
50.92000 177.794
50.96000 176.277
51.00000 193.053
51.04000 183.641
51.08000 170.970
51.12000 168.847
51.16000 181.433
51.20000 179.288
51.24000 174.730
51.28000 168.288
51.32000 167.194
51.36000 170.381
51.40000 162.242
51.44000 165.458
51.48000 163.865
51.52000 169.416
51.56000 171.124
51.60000 171.842
51.64000 173.721
51.68000 166.309
51.72000 156.854
51.76000 165.361
51.80000 162.511
51.84000 159.553
51.88000 162.320
51.92000 165.745
51.96000 164.311
52.00000 167.544
52.04000 160.401
52.08000 154.759
52.12000 162.244
52.16000 163.956
52.20000 173.466
52.24000 157.532
52.28000 154.323
52.32000 164.375
52.36000 157.954
52.40000 144.054
52.44000 153.382
52.48000 154.599
52.52000 149.129
52.56000 154.882
52.60000 154.978
52.64000 162.900
52.68000 152.034
52.72000 156.958
52.76000 152.286
52.80000 156.838
52.84000 144.231
52.88000 154.042
52.92000 155.089
52.96000 155.917
53.00000 159.002
53.04000 153.080
53.08000 159.426
53.12000 153.656
53.16000 168.998
53.20000 156.842
53.24000 160.205
53.28000 155.616
53.32000 145.327
53.36000 137.852
53.40000 165.155
53.44000 167.039
53.48000 166.533
53.52000 156.576
53.56000 141.636
53.60000 144.916
53.64000 147.492
53.68000 156.396
53.72000 155.814
53.76000 139.268
53.80000 143.534
53.84000 152.263
53.88000 153.276
53.92000 151.424
53.96000 152.373
54.00000 152.768
54.04000 143.604
54.08000 152.704
54.12000 142.789
54.16000 150.902
54.20000 149.076
54.24000 147.378
54.28000 149.476
54.32000 147.999
54.36000 154.518
54.40000 156.117
54.44000 147.216
54.48000 151.304
54.52000 169.560
54.56000 155.861
54.60000 149.577
54.64000 144.977
54.68000 147.357
54.72000 152.792
54.76000 152.758
54.80000 150.759
54.84000 148.645
54.88000 153.523
54.92000 147.192
54.96000 149.447
55.00000 145.738
55.04000 155.629
55.08000 157.780
55.12000 143.346
55.16000 152.313
55.20000 148.891
55.24000 156.443
55.28000 152.440
55.32000 156.498
55.36000 161.377
55.40000 161.694
55.44000 168.320
55.48000 169.210
55.52000 185.273
55.56000 180.195
55.60000 204.148
55.64000 207.294
55.68000 245.271
55.72000 269.266
55.76000 291.942
55.80000 331.641
55.84000 366.837
55.88000 417.187
55.92000 459.130
55.96000 453.352
56.00000 461.474
56.04000 445.216
56.08000 416.090
56.12000 388.735
56.16000 362.455
56.20000 326.441
56.24000 285.951
56.28000 269.508
56.32000 243.347
56.36000 211.759
56.40000 202.794
56.44000 179.354
56.48000 178.067
56.52000 170.569
56.56000 169.562
56.60000 166.391
56.64000 158.451
56.68000 174.748
56.72000 157.387
56.76000 149.995
56.80000 139.416
56.84000 150.598
56.88000 145.634
56.92000 156.313
56.96000 148.727
57.00000 155.021
57.04000 143.277
57.08000 140.609
57.12000 146.168
57.16000 144.340
57.20000 155.289
57.24000 140.327
57.28000 134.346
57.32000 142.875
57.36000 139.247
57.40000 152.134
57.44000 142.758
57.48000 142.954
57.52000 143.227
57.56000 140.329
57.60000 133.608
57.64000 135.970
57.68000 142.982
57.72000 144.638
57.76000 136.136
57.80000 143.258
57.84000 133.691
57.88000 139.070
57.92000 138.701
57.96000 138.733
58.00000 137.814
58.04000 136.120
58.08000 133.776
58.12000 130.594
58.16000 136.397
58.20000 141.433
58.24000 137.025
58.28000 135.489
58.32000 129.021
58.36000 140.648
58.40000 138.888
58.44000 142.541
58.48000 146.905
58.52000 136.308
58.56000 135.849
58.60000 134.870
58.64000 124.330
58.68000 135.279
58.72000 138.655
58.76000 142.592
58.80000 134.234
58.84000 136.264
58.88000 142.559
58.92000 138.863
58.96000 139.080
59.00000 133.447
59.04000 129.165
59.08000 140.054
59.12000 132.164
59.16000 130.900
59.20000 130.518
59.24000 131.364
59.28000 134.274
59.32000 137.668
59.36000 124.525
59.40000 134.141
59.44000 133.474
59.48000 123.420
59.52000 139.298
59.56000 124.240
59.60000 135.200
59.64000 126.330
59.68000 133.060
59.72000 130.744
59.76000 135.020
59.80000 133.640
59.84000 123.138
59.88000 144.502
59.92000 125.592
59.96000 137.183
60.00000 138.968
60.04000 136.602
60.08000 133.485
60.12000 127.548
60.16000 129.099
60.20000 133.211
60.24000 134.632
60.28000 139.668
60.32000 134.957
60.36000 134.348
60.40000 131.907
60.44000 125.984
60.48000 123.520
60.52000 125.056
60.56000 125.039
60.60000 137.173
60.64000 130.532
60.68000 133.391
60.72000 124.897
60.76000 135.349
60.80000 125.187
60.84000 136.217
60.88000 132.992
60.92000 131.581
60.96000 135.032
61.00000 138.850
61.04000 127.780
61.08000 134.312
61.12000 135.498
61.16000 129.935
61.20000 136.792
61.24000 137.493
61.28000 128.425
61.32000 144.866
61.36000 132.299
61.40000 129.508
61.44000 144.214
61.48000 142.568
61.52000 146.813
61.56000 190.335
61.60000 230.175
61.64000 247.805
61.68000 273.971
61.72000 269.280
61.76000 251.802
61.80000 221.023
61.84000 180.653
61.88000 155.284
61.92000 149.001
61.96000 134.790
62.00000 137.106
62.04000 131.192
62.08000 137.210
62.12000 131.339
62.16000 134.562
62.20000 141.332
62.24000 141.031
62.28000 135.715
62.32000 136.864
62.36000 132.203
62.40000 138.679
62.44000 138.188
62.48000 130.161
62.52000 151.149
62.56000 145.458
62.60000 134.787
62.64000 140.156
62.68000 138.431
62.72000 131.319
62.76000 133.691
62.80000 143.871
62.84000 144.154
62.88000 145.778
62.92000 148.754
62.96000 140.712
63.00000 152.247
63.04000 145.684
63.08000 134.928
63.12000 154.449
63.16000 151.515
63.20000 155.676
63.24000 144.009
63.28000 140.218
63.32000 142.487
63.36000 148.697
63.40000 152.181
63.44000 149.230
63.48000 149.752
63.52000 139.203
63.56000 144.404
63.60000 143.922
63.64000 144.193
63.68000 150.646
63.72000 154.509
63.76000 152.585
63.80000 148.766
63.84000 156.461
63.88000 159.979
63.92000 143.681
63.96000 154.776
64.00000 156.742
64.04000 164.555
64.08000 151.954
64.12000 153.634
64.16000 158.672
64.20000 162.212
64.24000 162.055
64.28000 155.634
64.32000 164.631
64.36000 157.545
64.40000 151.391
64.44000 155.818
64.48000 166.778
64.52000 156.639
64.56000 173.150
64.60000 166.560
64.64000 165.926
64.68000 174.051
64.72000 176.878
64.76000 167.104
64.80000 171.613
64.84000 168.469
64.88000 183.753
64.92000 182.259
64.96000 181.108
65.00000 198.000
65.04000 193.606
65.08000 187.566
65.12000 190.953
65.16000 193.292
65.20000 206.507
65.24000 217.729
65.28000 221.606
65.32000 223.150
65.36000 223.830
65.40000 249.545
65.44000 244.907
65.48000 255.738
65.52000 266.442
65.56000 281.152
65.60000 296.366
65.64000 325.420
65.68000 384.206
65.72000 519.617
65.76000 719.519
65.80000 891.989
65.84000 1016.108
65.88000 1063.090
65.92000 1001.591
65.96000 895.622
66.00000 660.631
66.04000 484.968
66.08000 355.614
66.12000 339.145
66.16000 319.089
66.20000 292.902
66.24000 297.274
66.28000 328.173
66.32000 384.148
66.36000 415.427
66.40000 449.179
66.44000 447.803
66.48000 436.210
66.52000 412.467
66.56000 354.057
66.60000 336.325
66.64000 327.227
66.68000 319.114
66.72000 320.702
66.76000 328.819
66.80000 321.385
66.84000 335.062
66.88000 335.766
66.92000 332.899
66.96000 353.460
67.00000 346.387
67.04000 349.329
67.08000 357.445
67.12000 365.168
67.16000 367.320
67.20000 371.612
67.24000 364.401
67.28000 386.792
67.32000 383.786
67.36000 389.292
67.40000 420.147
67.44000 418.072
67.48000 420.530
67.52000 432.337
67.56000 413.395
67.60000 451.027
67.64000 432.759
67.68000 465.055
67.72000 473.182
67.76000 459.690
67.80000 485.948
67.84000 497.057
67.88000 517.641
67.92000 511.734
67.96000 527.825
68.00000 531.189
68.04000 528.098
68.08000 547.284
68.12000 568.945
68.16000 568.059
68.20000 579.299
68.24000 603.288
68.28000 617.747
68.32000 658.778
68.36000 664.029
68.40000 676.468
68.44000 709.100
68.48000 766.083
68.52000 798.249
68.56000 830.481
68.60000 944.983
68.64000 1082.294
68.68000 1303.909
68.72000 1452.541
68.76000 1684.697
68.80000 1848.623
68.84000 2157.983
68.88000 2640.039
68.92000 4175.444
68.96000 10280.586
69.00000 24350.297
69.04000 41039.375
69.08000 50628.074
69.12000 52902.930
69.16000 54863.074
69.20000 56071.652
69.24000 48070.320
69.28000 36333.238
69.32000 29260.072
69.36000 26413.256
69.40000 22667.186
69.44000 14496.060
69.48000 6843.103
69.52000 3079.051
69.56000 1902.223
69.60000 1480.680
69.64000 1230.269
69.68000 1107.934
69.72000 980.226
69.76000 942.479
69.80000 835.902
69.84000 800.727
69.88000 761.223
69.92000 727.197
69.96000 695.097
70.00000 664.853