File: XRD/XRD/25-09-2025/XY Data/BTO_Mapping_Theta2Theta_25-09-2025_001_60_27-406_-12-202.xy
20.00000 563.384
20.04000 555.838
20.08000 550.004
20.12000 556.528
20.16000 567.429
20.20000 567.709
20.24000 539.031
20.28000 556.633
20.32000 574.188
20.36000 554.029
20.40000 554.371
20.44000 532.016
20.48000 559.042
20.52000 534.719
20.56000 546.539
20.60000 557.358
20.64000 530.978
20.68000 551.712
20.72000 547.791
20.76000 543.209
20.80000 541.596
20.84000 539.798
20.88000 542.965
20.92000 538.098
20.96000 530.973
21.00000 531.610
21.04000 545.279
21.08000 536.343
21.12000 530.958
21.16000 523.829
21.20000 550.724
21.24000 541.329
21.28000 538.711
21.32000 542.342
21.36000 539.862
21.40000 534.828
21.44000 536.941
21.48000 539.054
21.52000 541.078
21.56000 576.514
21.60000 538.918
21.64000 509.648
21.68000 553.928
21.72000 553.978
21.76000 527.924
21.80000 547.172
21.84000 559.470
21.88000 568.342
21.92000 573.343
21.96000 581.312
22.00000 575.364
22.04000 604.490
22.08000 599.822
22.12000 583.739
22.16000 614.181
22.20000 608.301
22.24000 608.884
22.28000 611.032
22.32000 591.249
22.36000 593.381
22.40000 595.401
22.44000 551.514
22.48000 549.204
22.52000 536.795
22.56000 520.544
22.60000 519.051
22.64000 526.662
22.68000 517.487
22.72000 505.622
22.76000 523.978
22.80000 512.100
22.84000 510.371
22.88000 525.329
22.92000 514.503
22.96000 510.467
23.00000 519.239
23.04000 493.659
23.08000 503.264
23.12000 507.691
23.16000 518.013
23.20000 507.797
23.24000 499.430
23.28000 489.739
23.32000 508.579
23.36000 494.778
23.40000 501.519
23.44000 509.319
23.48000 510.361
23.52000 475.103
23.56000 491.721
23.60000 480.674
23.64000 474.915
23.68000 483.372
23.72000 495.106
23.76000 498.192
23.80000 479.200
23.84000 471.188
23.88000 495.603
23.92000 492.558
23.96000 483.522
24.00000 490.487
24.04000 483.967
24.08000 490.405
24.12000 469.498
24.16000 476.344
24.20000 483.816
24.24000 503.602
24.28000 475.333
24.32000 474.559
24.36000 468.861
24.40000 479.115
24.44000 472.548
24.48000 467.463
24.52000 473.996
24.56000 457.344
24.60000 486.785
24.64000 463.728
24.68000 493.059
24.72000 463.361
24.76000 477.876
24.80000 476.904
24.84000 485.727
24.88000 481.455
24.92000 481.038
24.96000 474.419
25.00000 464.083
25.04000 462.786
25.08000 466.425
25.12000 463.928
25.16000 463.369
25.20000 473.681
25.24000 474.615
25.28000 463.381
25.32000 450.124
25.36000 443.468
25.40000 456.641
25.44000 461.186
25.48000 470.935
25.52000 457.856
25.56000 467.998
25.60000 479.471
25.64000 465.699
25.68000 473.217
25.72000 452.116
25.76000 453.278
25.80000 479.254
25.84000 466.565
25.88000 467.818
25.92000 476.174
25.96000 457.380
26.00000 461.064
26.04000 455.797
26.08000 460.675
26.12000 469.954
26.16000 457.903
26.20000 441.317
26.24000 465.417
26.28000 458.130
26.32000 437.108
26.36000 433.576
26.40000 456.675
26.44000 432.411
26.48000 450.774
26.52000 431.743
26.56000 449.569
26.60000 457.107
26.64000 453.240
26.68000 440.538
26.72000 449.813
26.76000 448.870
26.80000 444.316
26.84000 424.569
26.88000 427.787
26.92000 425.402
26.96000 438.128
27.00000 437.338
27.04000 432.367
27.08000 440.949
27.12000 441.309
27.16000 430.251
27.20000 434.194
27.24000 428.878
27.28000 412.008
27.32000 432.415
27.36000 423.963
27.40000 436.641
27.44000 424.876
27.48000 426.705
27.52000 437.426
27.56000 445.183
27.60000 439.344
27.64000 441.607
27.68000 452.651
27.72000 434.918
27.76000 426.186
27.80000 427.281
27.84000 415.928
27.88000 405.029
27.92000 421.967
27.96000 426.291
28.00000 428.196
28.04000 426.429
28.08000 428.447
28.12000 411.830
28.16000 413.580
28.20000 432.414
28.24000 410.323
28.28000 420.588
28.32000 409.308
28.36000 413.401
28.40000 422.498
28.44000 423.275
28.48000 412.569
28.52000 412.856
28.56000 413.480
28.60000 418.993
28.64000 403.891
28.68000 399.478
28.72000 415.600
28.76000 404.873
28.80000 408.803
28.84000 402.553
28.88000 411.357
28.92000 417.448
28.96000 406.012
29.00000 429.079
29.04000 424.479
29.08000 404.980
29.12000 420.678
29.16000 409.177
29.20000 403.314
29.24000 424.222
29.28000 422.861
29.32000 381.927
29.36000 424.110
29.40000 398.012
29.44000 390.519
29.48000 420.214
29.52000 418.987
29.56000 408.256
29.60000 410.503
29.64000 394.182
29.68000 410.452
29.72000 410.403
29.76000 414.184
29.80000 390.252
29.84000 409.906
29.88000 410.483
29.92000 398.355
29.96000 405.284
30.00000 408.868
30.04000 416.139
30.08000 416.814
30.12000 421.193
30.16000 422.730
30.20000 420.518
30.24000 409.621
30.28000 411.545
30.32000 418.233
30.36000 389.600
30.40000 418.685
30.44000 416.959
30.48000 423.615
30.52000 396.712
30.56000 406.102
30.60000 408.292
30.64000 413.058
30.68000 416.892
30.72000 426.328
30.76000 419.550
30.80000 440.343
30.84000 438.178
30.88000 423.810
30.92000 445.834
30.96000 455.868
31.00000 485.588
31.04000 512.026
31.08000 555.771
31.12000 618.837
31.16000 692.880
31.20000 793.630
31.24000 943.367
31.28000 1050.916
31.32000 1209.762
31.36000 1322.601
31.40000 1337.329
31.44000 1318.544
31.48000 1245.345
31.52000 1140.114
31.56000 1009.440
31.60000 929.152
31.64000 796.911
31.68000 695.782
31.72000 617.941
31.76000 559.551
31.80000 534.374
31.84000 483.668
31.88000 458.053
31.92000 448.851
31.96000 446.233
32.00000 429.420
32.04000 429.055
32.08000 397.743
32.12000 410.202
32.16000 399.399
32.20000 379.324
32.24000 395.853
32.28000 384.464
32.32000 381.225
32.36000 396.580
32.40000 376.963
32.44000 379.257
32.48000 382.729
32.52000 381.177
32.56000 360.169
32.60000 359.865
32.64000 366.644
32.68000 360.948
32.72000 360.724
32.76000 372.424
32.80000 356.212
32.84000 360.139
32.88000 365.496
32.92000 364.308
32.96000 366.246
33.00000 361.614
33.04000 371.621
33.08000 352.020
33.12000 346.294
33.16000 357.091
33.20000 348.892
33.24000 353.784
33.28000 332.553
33.32000 342.837
33.36000 334.571
33.40000 340.172
33.44000 340.806
33.48000 338.028
33.52000 345.660
33.56000 335.760
33.60000 347.610
33.64000 338.617
33.68000 337.324
33.72000 326.749
33.76000 324.902
33.80000 328.886
33.84000 317.503
33.88000 335.522
33.92000 321.771
33.96000 329.139
34.00000 332.853
34.04000 320.600
34.08000 322.051
34.12000 326.738
34.16000 338.601
34.20000 323.673
34.24000 328.825
34.28000 323.281
34.32000 326.736
34.36000 315.969
34.40000 325.671
34.44000 334.229
34.48000 320.337
34.52000 302.830
34.56000 324.498
34.60000 320.079
34.64000 322.745
34.68000 325.736
34.72000 317.324
34.76000 326.158
34.80000 312.521
34.84000 323.310
34.88000 318.108
34.92000 318.738
34.96000 306.757
35.00000 312.160
35.04000 307.436
35.08000 316.289
35.12000 297.298
35.16000 300.091
35.20000 314.135
35.24000 296.798
35.28000 301.311
35.32000 318.032
35.36000 310.736
35.40000 310.442
35.44000 331.437
35.48000 297.916
35.52000 302.820
35.56000 298.996
35.60000 295.649
35.64000 307.751
35.68000 312.867
35.72000 295.859
35.76000 306.680
35.80000 304.683
35.84000 306.625
35.88000 295.435
35.92000 307.060
35.96000 299.522
36.00000 294.880
36.04000 298.654
36.08000 307.721
36.12000 309.476
36.16000 308.539
36.20000 293.305
36.24000 289.597
36.28000 287.642
36.32000 290.566
36.36000 299.049
36.40000 276.220
36.44000 292.794
36.48000 298.632
36.52000 283.493
36.56000 305.843
36.60000 295.988
36.64000 284.942
36.68000 286.731
36.72000 284.659
36.76000 299.319
36.80000 301.705
36.84000 293.950
36.88000 278.627
36.92000 293.909
36.96000 279.419
37.00000 317.817
37.04000 275.488
37.08000 291.394
37.12000 306.983
37.16000 288.107
37.20000 281.523
37.24000 292.350
37.28000 276.478
37.32000 276.774
37.36000 282.746
37.40000 285.629
37.44000 277.641
37.48000 291.435
37.52000 283.951
37.56000 284.165
37.60000 300.520
37.64000 282.348
37.68000 291.818
37.72000 268.406
37.76000 270.330
37.80000 267.596
37.84000 277.551
37.88000 284.588
37.92000 276.925
37.96000 285.616
38.00000 289.120
38.04000 278.270
38.08000 276.046
38.12000 290.504
38.16000 280.808
38.20000 302.702
38.24000 266.114
38.28000 285.759
38.32000 289.541
38.36000 295.284
38.40000 318.752
38.44000 332.183
38.48000 372.737
38.52000 415.850
38.56000 482.492
38.60000 552.018
38.64000 655.596
38.68000 691.178
38.72000 742.270
38.76000 740.390
38.80000 659.004
38.84000 599.294
38.88000 546.562
38.92000 470.583
38.96000 386.523
39.00000 337.211
39.04000 328.737
39.08000 325.522
39.12000 295.753
39.16000 282.787
39.20000 273.793
39.24000 273.500
39.28000 277.968
39.32000 276.585
39.36000 272.167
39.40000 276.305
39.44000 259.645
39.48000 264.881
39.52000 255.473
39.56000 264.650
39.60000 269.200
39.64000 261.760
39.68000 259.983
39.72000 268.582
39.76000 246.473
39.80000 261.508
39.84000 254.933
39.88000 257.652
39.92000 262.384
39.96000 255.741
40.00000 253.122
40.04000 259.706
40.08000 244.949
40.12000 253.548
40.16000 256.485
40.20000 255.419
40.24000 260.659
40.28000 248.573
40.32000 269.443
40.36000 249.544
40.40000 252.718
40.44000 257.164
40.48000 249.640
40.52000 238.838
40.56000 247.754
40.60000 247.224
40.64000 256.898
40.68000 243.666
40.72000 250.628
40.76000 246.266
40.80000 244.789
40.84000 244.232
40.88000 256.171
40.92000 247.586
40.96000 242.124
41.00000 239.401
41.04000 233.908
41.08000 240.332
41.12000 245.709
41.16000 243.419
41.20000 237.941
41.24000 238.756
41.28000 245.570
41.32000 240.020
41.36000 240.273
41.40000 239.634
41.44000 242.997
41.48000 245.052
41.52000 233.510
41.56000 237.624
41.60000 249.257
41.64000 231.404
41.68000 234.412
41.72000 243.740
41.76000 224.817
41.80000 236.241
41.84000 228.939
41.88000 237.839
41.92000 240.637
41.96000 238.841
42.00000 244.496
42.04000 227.972
42.08000 234.005
42.12000 228.249
42.16000 217.651
42.20000 227.845
42.24000 237.596
42.28000 239.096
42.32000 235.308
42.36000 226.025
42.40000 235.081
42.44000 235.344
42.48000 238.099
42.52000 213.743
42.56000 214.559
42.60000 227.804
42.64000 215.964
42.68000 234.713
42.72000 216.845
42.76000 218.355
42.80000 221.353
42.84000 225.789
42.88000 234.104
42.92000 222.345
42.96000 226.156
43.00000 217.233
43.04000 221.566
43.08000 228.006
43.12000 217.533
43.16000 216.875
43.20000 216.221
43.24000 222.906
43.28000 218.114
43.32000 217.811
43.36000 233.176
43.40000 213.543
43.44000 220.247
43.48000 216.627
43.52000 220.724
43.56000 223.483
43.60000 217.166
43.64000 213.310
43.68000 227.328
43.72000 232.986
43.76000 221.899
43.80000 221.413
43.84000 218.179
43.88000 224.229
43.92000 212.920
43.96000 205.013
44.00000 213.693
44.04000 211.321
44.08000 217.888
44.12000 214.188
44.16000 228.530
44.20000 216.871
44.24000 226.653
44.28000 222.880
44.32000 226.557
44.36000 215.098
44.40000 216.246
44.44000 230.480
44.48000 223.085
44.52000 224.330
44.56000 215.099
44.60000 220.799
44.64000 220.361
44.68000 226.418
44.72000 222.857
44.76000 217.392
44.80000 222.454
44.84000 231.228
44.88000 228.035
44.92000 233.071
44.96000 241.864
45.00000 230.691
45.04000 235.246
45.08000 253.846
45.12000 244.566
45.16000 264.942
45.20000 263.277
45.24000 251.166
45.28000 263.578
45.32000 247.967
45.36000 257.031
45.40000 248.864
45.44000 241.592
45.48000 251.255
45.52000 240.550
45.56000 255.666
45.60000 259.376
45.64000 236.563
45.68000 240.596
45.72000 240.115
45.76000 225.867
45.80000 240.781
45.84000 223.707
45.88000 232.163
45.92000 217.223
45.96000 216.052
46.00000 218.694
46.04000 213.104
46.08000 214.148
46.12000 213.355
46.16000 198.264
46.20000 212.677
46.24000 208.497
46.28000 207.659
46.32000 205.830
46.36000 212.299
46.40000 200.028
46.44000 194.653
46.48000 187.650
46.52000 207.112
46.56000 196.143
46.60000 200.308
46.64000 207.954
46.68000 201.795
46.72000 201.123
46.76000 194.426
46.80000 206.834
46.84000 188.668
46.88000 200.107
46.92000 201.405
46.96000 189.400
47.00000 194.279
47.04000 190.201
47.08000 200.723
47.12000 191.958
47.16000 201.297
47.20000 194.706
47.24000 196.760
47.28000 192.627
47.32000 185.958
47.36000 185.827
47.40000 189.531
47.44000 187.516
47.48000 181.689
47.52000 188.500
47.56000 191.324
47.60000 201.531
47.64000 185.765
47.68000 183.086
47.72000 183.034
47.76000 187.883
47.80000 186.246
47.84000 183.819
47.88000 192.599
47.92000 188.926
47.96000 186.029
48.00000 179.749
48.04000 184.207
48.08000 175.982
48.12000 185.471
48.16000 175.938
48.20000 186.234
48.24000 192.209
48.28000 192.797
48.32000 174.543
48.36000 175.664
48.40000 184.034
48.44000 181.204
48.48000 182.618
48.52000 187.348
48.56000 176.158
48.60000 183.184
48.64000 182.749
48.68000 179.920
48.72000 169.589
48.76000 177.021
48.80000 174.614
48.84000 176.728
48.88000 171.502
48.92000 169.620
48.96000 187.098
49.00000 173.279
49.04000 180.094
49.08000 176.022
49.12000 168.005
49.16000 175.957
49.20000 178.915
49.24000 174.967
49.28000 163.026
49.32000 178.835
49.36000 181.275
49.40000 182.577
49.44000 177.390
49.48000 170.815
49.52000 176.010
49.56000 173.374
49.60000 177.333
49.64000 177.868
49.68000 173.887
49.72000 172.407
49.76000 161.522
49.80000 176.823
49.84000 171.171
49.88000 168.318
49.92000 177.118
49.96000 169.038
50.00000 172.783
50.04000 162.114
50.08000 179.514
50.12000 173.114
50.16000 166.343
50.20000 180.278
50.24000 190.569
50.28000 161.551
50.32000 180.479
50.36000 163.077
50.40000 177.009
50.44000 183.026
50.48000 178.981
50.52000 193.638
50.56000 169.933
50.60000 179.427
50.64000 184.587
50.68000 170.652
50.72000 192.093
50.76000 189.897
50.80000 174.316
50.84000 175.869
50.88000 172.795
50.92000 175.064
50.96000 188.456
51.00000 173.846
51.04000 180.282
51.08000 181.385
51.12000 175.461
51.16000 175.134
51.20000 178.066
51.24000 172.168
51.28000 168.302
51.32000 160.544
51.36000 158.555
51.40000 163.987
51.44000 164.843
51.48000 181.226
51.52000 162.242
51.56000 166.226
51.60000 169.744
51.64000 160.618
51.68000 156.308
51.72000 155.819
51.76000 155.180
51.80000 160.657
51.84000 157.508
51.88000 159.617
51.92000 172.294
51.96000 155.739
52.00000 162.298
52.04000 167.970
52.08000 160.099
52.12000 165.705
52.16000 153.863
52.20000 162.676
52.24000 162.916
52.28000 155.645
52.32000 152.092
52.36000 156.561
52.40000 158.032
52.44000 167.718
52.48000 158.114
52.52000 154.778
52.56000 156.257
52.60000 163.945
52.64000 156.996
52.68000 154.718
52.72000 166.523
52.76000 151.085
52.80000 150.506
52.84000 148.784
52.88000 151.228
52.92000 158.343
52.96000 163.063
53.00000 158.539
53.04000 167.497
53.08000 158.549
53.12000 151.679
53.16000 156.279
53.20000 154.697
53.24000 157.909
53.28000 160.046
53.32000 163.920
53.36000 154.550
53.40000 153.304
53.44000 155.811
53.48000 163.265
53.52000 154.246
53.56000 147.174
53.60000 158.359
53.64000 164.533
53.68000 149.319
53.72000 160.047
53.76000 155.453
53.80000 154.931
53.84000 145.183
53.88000 155.807
53.92000 149.073
53.96000 135.442
54.00000 162.344
54.04000 158.397
54.08000 146.420
54.12000 160.023
54.16000 156.337
54.20000 145.686
54.24000 152.525
54.28000 167.884
54.32000 140.754
54.36000 147.292
54.40000 152.494
54.44000 153.046
54.48000 165.843
54.52000 151.066
54.56000 154.867
54.60000 147.205
54.64000 148.024
54.68000 158.865
54.72000 152.122
54.76000 151.262
54.80000 148.643
54.84000 152.779
54.88000 163.844
54.92000 150.370
54.96000 143.066
55.00000 142.419
55.04000 160.870
55.08000 165.453
55.12000 159.728
55.16000 162.110
55.20000 146.399
55.24000 153.625
55.28000 155.667
55.32000 156.526
55.36000 161.880
55.40000 168.512
55.44000 177.474
55.48000 169.663
55.52000 184.568
55.56000 183.493
55.60000 190.809
55.64000 203.821
55.68000 223.312
55.72000 263.050
55.76000 271.215
55.80000 300.686
55.84000 328.060
55.88000 364.858
55.92000 373.989
55.96000 376.834
56.00000 385.336
56.04000 371.111
56.08000 356.546
56.12000 331.781
56.16000 302.872
56.20000 271.433
56.24000 250.345
56.28000 228.890
56.32000 214.802
56.36000 215.058
56.40000 189.936
56.44000 180.079
56.48000 163.051
56.52000 168.114
56.56000 171.793
56.60000 162.174
56.64000 154.675
56.68000 157.653
56.72000 157.881
56.76000 152.996
56.80000 145.271
56.84000 143.291
56.88000 146.115
56.92000 150.936
56.96000 148.766
57.00000 146.860
57.04000 145.216
57.08000 152.729
57.12000 144.348
57.16000 139.771
57.20000 135.641
57.24000 146.493
57.28000 147.060
57.32000 148.127
57.36000 142.932
57.40000 144.538
57.44000 141.792
57.48000 143.811
57.52000 145.613
57.56000 145.156
57.60000 141.224
57.64000 143.867
57.68000 137.862
57.72000 150.799
57.76000 143.866
57.80000 137.457
57.84000 143.276
57.88000 138.822
57.92000 142.087
57.96000 138.995
58.00000 126.491
58.04000 146.423
58.08000 136.824
58.12000 138.309
58.16000 141.379
58.20000 142.221
58.24000 141.432
58.28000 141.085
58.32000 132.127
58.36000 129.285
58.40000 130.194
58.44000 133.526
58.48000 139.953
58.52000 135.689
58.56000 139.378
58.60000 139.746
58.64000 138.985
58.68000 141.076
58.72000 134.427
58.76000 129.788
58.80000 132.378
58.84000 129.568
58.88000 139.514
58.92000 129.930
58.96000 123.600
59.00000 128.538
59.04000 133.418
59.08000 131.496
59.12000 131.051
59.16000 130.194
59.20000 140.327
59.24000 142.827
59.28000 128.963
59.32000 137.139
59.36000 130.756
59.40000 133.838
59.44000 122.770
59.48000 133.347
59.52000 130.956
59.56000 131.889
59.60000 142.605
59.64000 139.140
59.68000 131.944
59.72000 127.181
59.76000 134.525
59.80000 131.328
59.84000 139.457
59.88000 137.598
59.92000 130.107
59.96000 125.098
60.00000 130.251
60.04000 130.837
60.08000 135.002
60.12000 151.423
60.16000 140.801
60.20000 137.666
60.24000 132.518
60.28000 130.943
60.32000 130.612
60.36000 133.021
60.40000 126.906
60.44000 133.196
60.48000 138.126
60.52000 135.734
60.56000 122.302
60.60000 131.151
60.64000 132.658
60.68000 132.534
60.72000 132.799
60.76000 140.300
60.80000 130.311
60.84000 136.849
60.88000 134.651
60.92000 126.470
60.96000 128.197
61.00000 131.385
61.04000 128.837
61.08000 134.108
61.12000 129.991
61.16000 132.805
61.20000 136.346
61.24000 129.504
61.28000 136.953
61.32000 142.174
61.36000 133.232
61.40000 137.280
61.44000 135.524
61.48000 141.597
61.52000 150.265
61.56000 181.272
61.60000 217.006
61.64000 260.029
61.68000 263.775
61.72000 252.719
61.76000 255.379
61.80000 230.160
61.84000 186.119
61.88000 158.689
61.92000 155.776
61.96000 136.130
62.00000 143.064
62.04000 144.280
62.08000 139.557
62.12000 144.613
62.16000 139.218
62.20000 134.147
62.24000 141.536
62.28000 149.103
62.32000 139.844
62.36000 131.547
62.40000 152.808
62.44000 135.647
62.48000 141.341
62.52000 138.475
62.56000 137.640
62.60000 142.131
62.64000 141.535
62.68000 147.429
62.72000 133.296
62.76000 147.105
62.80000 145.018
62.84000 138.807
62.88000 136.441
62.92000 141.350
62.96000 144.048
63.00000 146.230
63.04000 146.192
63.08000 144.579
63.12000 144.554
63.16000 153.485
63.20000 149.384
63.24000 135.881
63.28000 144.269
63.32000 153.753
63.36000 142.937
63.40000 151.349
63.44000 141.421
63.48000 155.285
63.52000 151.006
63.56000 146.641
63.60000 142.758
63.64000 156.913
63.68000 156.522
63.72000 157.301
63.76000 151.871
63.80000 158.856
63.84000 156.798
63.88000 156.787
63.92000 145.630
63.96000 149.052
64.00000 143.845
64.04000 157.291
64.08000 153.934
64.12000 154.971
64.16000 155.295
64.20000 157.921
64.24000 162.563
64.28000 152.981
64.32000 161.453
64.36000 172.684
64.40000 156.671
64.44000 161.284
64.48000 166.754
64.52000 173.878
64.56000 167.091
64.60000 177.985
64.64000 159.964
64.68000 165.222
64.72000 164.791
64.76000 176.408
64.80000 173.180
64.84000 174.828
64.88000 185.694
64.92000 182.005
64.96000 190.562
65.00000 181.811
65.04000 195.031
65.08000 194.346
65.12000 190.052
65.16000 203.366
65.20000 199.025
65.24000 212.130
65.28000 209.475
65.32000 222.504
65.36000 234.238
65.40000 238.175
65.44000 252.635
65.48000 252.551
65.52000 275.766
65.56000 286.255
65.60000 285.558
65.64000 320.636
65.68000 361.601
65.72000 514.853
65.76000 725.369
65.80000 904.527
65.84000 1026.572
65.88000 1082.760
65.92000 1018.941
65.96000 914.502
66.00000 661.573
66.04000 477.359
66.08000 368.513
66.12000 315.151
66.16000 312.353
66.20000 305.790
66.24000 310.164
66.28000 333.304
66.32000 393.146
66.36000 424.750
66.40000 438.325
66.44000 454.480
66.48000 447.741
66.52000 421.006
66.56000 383.823
66.60000 348.082
66.64000 315.371
66.68000 327.101
66.72000 309.350
66.76000 327.573
66.80000 328.141
66.84000 341.192
66.88000 339.952
66.92000 348.400
66.96000 344.673
67.00000 357.794
67.04000 331.182
67.08000 364.304
67.12000 374.499
67.16000 351.980
67.20000 369.465
67.24000 383.715
67.28000 389.398
67.32000 392.636
67.36000 373.634
67.40000 404.196
67.44000 420.327
67.48000 409.491
67.52000 427.726
67.56000 428.495
67.60000 443.844
67.64000 471.893
67.68000 461.036
67.72000 474.326
67.76000 460.308
67.80000 467.138
67.84000 484.487
67.88000 500.936
67.92000 502.371
67.96000 524.818
68.00000 527.219
68.04000 543.622
68.08000 548.788
68.12000 590.593
68.16000 573.398
68.20000 580.980
68.24000 600.892
68.28000 640.703
68.32000 641.602
68.36000 668.677
68.40000 684.509
68.44000 706.844
68.48000 716.746
68.52000 785.230
68.56000 874.707
68.60000 932.864
68.64000 1088.251
68.68000 1288.537
68.72000 1469.996
68.76000 1646.228
68.80000 1789.363
68.84000 2164.694
68.88000 2632.589
68.92000 4059.779
68.96000 10038.112
69.00000 24105.127
69.04000 40959.359
69.08000 50507.195
69.12000 52801.910
69.16000 54819.609
69.20000 56139.145
69.24000 48321.004
69.28000 36291.379
69.32000 29319.748
69.36000 26276.043
69.40000 22538.865
69.44000 14619.085
69.48000 6898.432
69.52000 3020.453
69.56000 1890.831
69.60000 1473.862
69.64000 1277.894
69.68000 1121.065
69.72000 1011.224
69.76000 927.384
69.80000 863.194
69.84000 825.148
69.88000 773.644
69.92000 728.242
69.96000 713.049
70.00000 648.358