File: XRD/XRD/25-09-2025/XY Data/BTO_Mapping_Theta2Theta_25-09-2025_001_04_30-000_0-000.xy
20.00000 576.698
20.04000 567.329
20.08000 549.561
20.12000 553.821
20.16000 564.335
20.20000 558.477
20.24000 556.482
20.28000 552.767
20.32000 550.265
20.36000 550.649
20.40000 548.079
20.44000 547.597
20.48000 531.012
20.52000 550.830
20.56000 533.693
20.60000 550.975
20.64000 547.242
20.68000 554.318
20.72000 559.572
20.76000 555.517
20.80000 536.790
20.84000 545.947
20.88000 534.697
20.92000 553.378
20.96000 532.539
21.00000 537.643
21.04000 540.876
21.08000 566.452
21.12000 553.443
21.16000 542.213
21.20000 547.555
21.24000 549.099
21.28000 531.315
21.32000 539.580
21.36000 543.140
21.40000 538.004
21.44000 533.424
21.48000 553.568
21.52000 545.576
21.56000 528.943
21.60000 547.483
21.64000 538.487
21.68000 554.238
21.72000 559.395
21.76000 559.876
21.80000 556.143
21.84000 567.463
21.88000 566.438
21.92000 564.044
21.96000 570.884
22.00000 566.109
22.04000 585.672
22.08000 576.519
22.12000 597.667
22.16000 615.378
22.20000 613.614
22.24000 620.292
22.28000 598.887
22.32000 604.571
22.36000 583.844
22.40000 563.874
22.44000 566.862
22.48000 546.712
22.52000 552.495
22.56000 542.906
22.60000 518.741
22.64000 542.148
22.68000 503.051
22.72000 525.115
22.76000 525.896
22.80000 524.350
22.84000 507.447
22.88000 526.505
22.92000 514.990
22.96000 507.932
23.00000 523.357
23.04000 493.907
23.08000 505.770
23.12000 490.887
23.16000 512.361
23.20000 504.302
23.24000 507.874
23.28000 511.181
23.32000 479.693
23.36000 497.936
23.40000 506.534
23.44000 498.790
23.48000 506.929
23.52000 502.789
23.56000 500.261
23.60000 501.061
23.64000 496.524
23.68000 498.271
23.72000 500.007
23.76000 475.952
23.80000 491.991
23.84000 505.879
23.88000 502.770
23.92000 483.579
23.96000 491.067
24.00000 473.062
24.04000 480.482
24.08000 474.686
24.12000 482.905
24.16000 477.911
24.20000 501.636
24.24000 484.327
24.28000 498.110
24.32000 481.723
24.36000 470.564
24.40000 484.493
24.44000 496.381
24.48000 474.354
24.52000 472.785
24.56000 489.787
24.60000 474.335
24.64000 487.790
24.68000 465.826
24.72000 480.683
24.76000 479.803
24.80000 475.171
24.84000 480.558
24.88000 479.524
24.92000 466.261
24.96000 480.735
25.00000 460.723
25.04000 468.552
25.08000 486.159
25.12000 473.649
25.16000 479.136
25.20000 461.215
25.24000 480.339
25.28000 471.620
25.32000 485.005
25.36000 467.164
25.40000 463.545
25.44000 469.096
25.48000 469.547
25.52000 460.302
25.56000 469.591
25.60000 443.228
25.64000 461.400
25.68000 447.450
25.72000 460.441
25.76000 456.948
25.80000 470.961
25.84000 455.075
25.88000 461.404
25.92000 454.517
25.96000 445.958
26.00000 446.863
26.04000 456.455
26.08000 442.873
26.12000 436.897
26.16000 451.423
26.20000 431.248
26.24000 458.992
26.28000 445.546
26.32000 456.706
26.36000 452.454
26.40000 450.024
26.44000 437.603
26.48000 446.254
26.52000 455.948
26.56000 460.987
26.60000 461.032
26.64000 442.410
26.68000 446.164
26.72000 443.345
26.76000 439.664
26.80000 452.627
26.84000 450.020
26.88000 440.066
26.92000 444.363
26.96000 428.465
27.00000 435.280
27.04000 440.551
27.08000 436.193
27.12000 441.664
27.16000 431.292
27.20000 436.732
27.24000 427.020
27.28000 438.640
27.32000 441.120
27.36000 418.362
27.40000 430.462
27.44000 439.356
27.48000 432.509
27.52000 427.225
27.56000 427.839
27.60000 421.944
27.64000 407.654
27.68000 405.995
27.72000 426.229
27.76000 441.191
27.80000 414.660
27.84000 402.480
27.88000 438.950
27.92000 425.387
27.96000 433.670
28.00000 438.935
28.04000 425.851
28.08000 405.137
28.12000 405.482
28.16000 397.293
28.20000 417.486
28.24000 413.931
28.28000 405.097
28.32000 429.450
28.36000 428.586
28.40000 422.859
28.44000 425.507
28.48000 427.941
28.52000 413.145
28.56000 410.896
28.60000 401.993
28.64000 414.475
28.68000 411.474
28.72000 425.588
28.76000 422.326
28.80000 402.556
28.84000 413.529
28.88000 413.638
28.92000 420.436
28.96000 413.361
29.00000 390.798
29.04000 416.364
29.08000 409.916
29.12000 410.273
29.16000 414.249
29.20000 420.403
29.24000 418.036
29.28000 402.822
29.32000 410.387
29.36000 403.297
29.40000 390.788
29.44000 396.181
29.48000 405.469
29.52000 413.763
29.56000 403.099
29.60000 414.513
29.64000 425.181
29.68000 404.484
29.72000 377.273
29.76000 413.394
29.80000 409.388
29.84000 425.053
29.88000 408.736
29.92000 420.404
29.96000 413.211
30.00000 405.369
30.04000 417.244
30.08000 415.086
30.12000 414.247
30.16000 416.414
30.20000 410.797
30.24000 421.092
30.28000 405.821
30.32000 402.006
30.36000 417.711
30.40000 408.490
30.44000 402.979
30.48000 420.031
30.52000 412.261
30.56000 413.760
30.60000 429.574
30.64000 422.784
30.68000 424.077
30.72000 430.342
30.76000 424.843
30.80000 434.879
30.84000 433.278
30.88000 445.589
30.92000 454.126
30.96000 461.313
31.00000 510.014
31.04000 548.857
31.08000 553.307
31.12000 638.244
31.16000 738.408
31.20000 812.645
31.24000 934.182
31.28000 1051.040
31.32000 1190.660
31.36000 1262.118
31.40000 1301.804
31.44000 1325.885
31.48000 1254.868
31.52000 1142.346
31.56000 1018.594
31.60000 906.578
31.64000 791.128
31.68000 702.194
31.72000 636.651
31.76000 582.518
31.80000 507.760
31.84000 491.893
31.88000 448.501
31.92000 451.192
31.96000 446.270
32.00000 419.230
32.04000 418.540
32.08000 415.824
32.12000 414.387
32.16000 411.087
32.20000 414.084
32.24000 394.875
32.28000 383.724
32.32000 399.682
32.36000 381.997
32.40000 377.582
32.44000 370.399
32.48000 389.468
32.52000 377.819
32.56000 376.313
32.60000 371.493
32.64000 362.967
32.68000 359.732
32.72000 382.146
32.76000 378.972
32.80000 372.407
32.84000 381.697
32.88000 379.418
32.92000 361.485
32.96000 391.273
33.00000 375.945
33.04000 360.318
33.08000 362.642
33.12000 345.449
33.16000 342.955
33.20000 347.923
33.24000 350.124
33.28000 339.318
33.32000 336.413
33.36000 352.174
33.40000 335.649
33.44000 338.526
33.48000 346.193
33.52000 354.690
33.56000 352.994
33.60000 327.237
33.64000 335.860
33.68000 338.392
33.72000 324.818
33.76000 331.926
33.80000 313.497
33.84000 334.714
33.88000 331.891
33.92000 343.119
33.96000 327.634
34.00000 341.399
34.04000 330.394
34.08000 340.588
34.12000 332.857
34.16000 328.993
34.20000 328.301
34.24000 318.561
34.28000 321.015
34.32000 338.099
34.36000 326.671
34.40000 325.021
34.44000 317.144
34.48000 309.198
34.52000 316.378
34.56000 326.311
34.60000 320.413
34.64000 303.975
34.68000 308.621
34.72000 329.801
34.76000 320.277
34.80000 315.546
34.84000 320.613
34.88000 310.426
34.92000 305.386
34.96000 321.620
35.00000 299.425
35.04000 313.808
35.08000 318.062
35.12000 308.192
35.16000 312.204
35.20000 311.029
35.24000 301.539
35.28000 305.677
35.32000 321.899
35.36000 297.160
35.40000 306.470
35.44000 325.717
35.48000 309.250
35.52000 306.825
35.56000 318.184
35.60000 300.023
35.64000 305.008
35.68000 315.498
35.72000 314.841
35.76000 323.213
35.80000 302.666
35.84000 300.127
35.88000 293.692
35.92000 299.765
35.96000 289.869
36.00000 303.211
36.04000 289.070
36.08000 292.826
36.12000 299.577
36.16000 319.140
36.20000 314.628
36.24000 313.679
36.28000 298.454
36.32000 283.966
36.36000 289.701
36.40000 301.053
36.44000 275.632
36.48000 289.968
36.52000 306.029
36.56000 301.247
36.60000 283.190
36.64000 288.422
36.68000 287.650
36.72000 293.269
36.76000 289.051
36.80000 282.789
36.84000 279.107
36.88000 290.153
36.92000 289.810
36.96000 294.747
37.00000 299.006
37.04000 287.763
37.08000 296.121
37.12000 298.686
37.16000 295.054
37.20000 291.755
37.24000 295.825
37.28000 295.881
37.32000 287.735
37.36000 284.013
37.40000 275.742
37.44000 278.176
37.48000 299.439
37.52000 281.737
37.56000 279.601
37.60000 283.425
37.64000 283.637
37.68000 300.715
37.72000 270.158
37.76000 286.490
37.80000 290.751
37.84000 283.288
37.88000 264.590
37.92000 286.655
37.96000 281.910
38.00000 285.048
38.04000 278.392
38.08000 283.757
38.12000 289.622
38.16000 290.236
38.20000 280.328
38.24000 280.763
38.28000 299.884
38.32000 311.098
38.36000 317.815
38.40000 323.590
38.44000 353.164
38.48000 373.708
38.52000 416.908
38.56000 497.291
38.60000 539.813
38.64000 615.378
38.68000 665.696
38.72000 661.795
38.76000 657.136
38.80000 594.562
38.84000 536.993
38.88000 483.007
38.92000 418.609
38.96000 373.908
39.00000 332.157
39.04000 301.938
39.08000 317.798
39.12000 299.706
39.16000 274.660
39.20000 274.753
39.24000 280.944
39.28000 289.685
39.32000 259.512
39.36000 259.516
39.40000 266.993
39.44000 269.254
39.48000 273.222
39.52000 268.500
39.56000 272.246
39.60000 267.409
39.64000 261.381
39.68000 261.443
39.72000 267.845
39.76000 269.602
39.80000 260.603
39.84000 261.120
39.88000 260.033
39.92000 265.858
39.96000 269.919
40.00000 257.908
40.04000 265.464
40.08000 239.105
40.12000 256.608
40.16000 253.840
40.20000 239.292
40.24000 260.906
40.28000 239.661
40.32000 242.664
40.36000 257.977
40.40000 257.842
40.44000 239.361
40.48000 259.807
40.52000 258.223
40.56000 234.328
40.60000 245.550
40.64000 243.211
40.68000 253.246
40.72000 240.475
40.76000 247.164
40.80000 242.046
40.84000 243.895
40.88000 248.970
40.92000 240.726
40.96000 241.680
41.00000 261.885
41.04000 242.208
41.08000 251.400
41.12000 241.474
41.16000 246.766
41.20000 247.096
41.24000 252.345
41.28000 237.025
41.32000 243.332
41.36000 240.905
41.40000 240.464
41.44000 238.874
41.48000 235.739
41.52000 245.160
41.56000 226.744
41.60000 225.848
41.64000 235.201
41.68000 240.022
41.72000 235.779
41.76000 224.153
41.80000 224.107
41.84000 220.437
41.88000 236.271
41.92000 227.311
41.96000 234.043
42.00000 231.147
42.04000 224.930
42.08000 237.468
42.12000 229.077
42.16000 214.388
42.20000 237.169
42.24000 225.270
42.28000 231.474
42.32000 239.988
42.36000 233.247
42.40000 230.080
42.44000 235.580
42.48000 220.292
42.52000 225.434
42.56000 229.246
42.60000 228.674
42.64000 235.127
42.68000 221.672
42.72000 230.189
42.76000 231.062
42.80000 221.213
42.84000 227.466
42.88000 227.413
42.92000 230.015
42.96000 214.820
43.00000 216.936
43.04000 227.862
43.08000 224.531
43.12000 215.236
43.16000 203.794
43.20000 211.833
43.24000 222.973
43.28000 225.528
43.32000 225.077
43.36000 220.608
43.40000 208.720
43.44000 238.103
43.48000 225.532
43.52000 213.793
43.56000 226.162
43.60000 221.871
43.64000 228.342
43.68000 212.690
43.72000 218.681
43.76000 215.349
43.80000 217.156
43.84000 225.788
43.88000 218.998
43.92000 223.339
43.96000 204.560
44.00000 213.492
44.04000 219.614
44.08000 218.182
44.12000 217.334
44.16000 208.341
44.20000 222.894
44.24000 210.294
44.28000 220.411
44.32000 221.234
44.36000 219.186
44.40000 220.498
44.44000 219.216
44.48000 215.287
44.52000 208.378
44.56000 225.211
44.60000 227.616
44.64000 217.606
44.68000 219.879
44.72000 214.141
44.76000 219.155
44.80000 219.405
44.84000 231.982
44.88000 240.318
44.92000 247.245
44.96000 237.907
45.00000 240.694
45.04000 238.378
45.08000 255.741
45.12000 248.727
45.16000 251.155
45.20000 260.524
45.24000 253.541
45.28000 246.723
45.32000 256.196
45.36000 238.767
45.40000 241.571
45.44000 242.634
45.48000 242.541
45.52000 250.538
45.56000 244.575
45.60000 235.011
45.64000 248.490
45.68000 238.035
45.72000 228.063
45.76000 228.913
45.80000 222.463
45.84000 219.566
45.88000 234.857
45.92000 216.982
45.96000 216.677
46.00000 222.098
46.04000 208.267
46.08000 222.307
46.12000 193.329
46.16000 201.959
46.20000 206.076
46.24000 206.742
46.28000 199.822
46.32000 210.382
46.36000 207.803
46.40000 210.162
46.44000 206.547
46.48000 190.263
46.52000 197.161
46.56000 202.200
46.60000 205.207
46.64000 203.436
46.68000 201.205
46.72000 207.547
46.76000 197.826
46.80000 187.067
46.84000 203.970
46.88000 199.149
46.92000 193.426
46.96000 192.374
47.00000 186.878
47.04000 186.934
47.08000 197.419
47.12000 193.341
47.16000 182.958
47.20000 191.303
47.24000 189.840
47.28000 189.333
47.32000 196.365
47.36000 201.046
47.40000 186.398
47.44000 186.696
47.48000 186.475
47.52000 184.872
47.56000 179.645
47.60000 187.295
47.64000 187.003
47.68000 196.242
47.72000 187.646
47.76000 195.757
47.80000 182.845
47.84000 174.789
47.88000 187.697
47.92000 187.862
47.96000 184.469
48.00000 189.077
48.04000 183.740
48.08000 199.146
48.12000 184.034
48.16000 184.232
48.20000 179.943
48.24000 193.509
48.28000 179.884
48.32000 188.001
48.36000 181.774
48.40000 186.430
48.44000 179.553
48.48000 182.917
48.52000 178.052
48.56000 178.578
48.60000 181.923
48.64000 197.172
48.68000 182.819
48.72000 191.314
48.76000 179.197
48.80000 186.031
48.84000 178.388
48.88000 178.518
48.92000 183.974
48.96000 173.439
49.00000 179.092
49.04000 177.569
49.08000 187.109
49.12000 168.754
49.16000 188.754
49.20000 178.119
49.24000 178.251
49.28000 177.003
49.32000 166.957
49.36000 169.751
49.40000 182.886
49.44000 179.650
49.48000 187.463
49.52000 158.154
49.56000 178.931
49.60000 181.873
49.64000 164.157
49.68000 176.843
49.72000 168.065
49.76000 174.169
49.80000 169.013
49.84000 165.586
49.88000 168.596
49.92000 173.225
49.96000 175.139
50.00000 169.207
50.04000 172.152
50.08000 169.449
50.12000 164.884
50.16000 170.592
50.20000 162.139
50.24000 171.391
50.28000 180.939
50.32000 163.957
50.36000 187.833
50.40000 166.264
50.44000 184.464
50.48000 178.103
50.52000 173.351
50.56000 168.532
50.60000 179.696
50.64000 184.482
50.68000 190.014
50.72000 183.019
50.76000 177.014
50.80000 187.139
50.84000 184.558
50.88000 184.788
50.92000 181.449
50.96000 174.936
51.00000 178.336
51.04000 180.938
51.08000 179.368
51.12000 180.068
51.16000 163.317
51.20000 150.304
51.24000 166.450
51.28000 162.562
51.32000 168.279
51.36000 167.246
51.40000 158.154
51.44000 165.366
51.48000 176.931
51.52000 167.985
51.56000 162.798
51.60000 166.252
51.64000 152.955
51.68000 167.581
51.72000 167.445
51.76000 167.203
51.80000 168.681
51.84000 161.581
51.88000 170.410
51.92000 154.665
51.96000 162.982
52.00000 159.573
52.04000 170.806
52.08000 165.939
52.12000 169.124
52.16000 177.521
52.20000 160.536
52.24000 160.850
52.28000 154.131
52.32000 153.275
52.36000 157.272
52.40000 160.160
52.44000 156.249
52.48000 165.900
52.52000 159.094
52.56000 155.589
52.60000 162.972
52.64000 169.789
52.68000 159.880
52.72000 152.434
52.76000 157.333
52.80000 156.430
52.84000 153.378
52.88000 154.691
52.92000 152.678
52.96000 144.917
53.00000 161.847
53.04000 157.262
53.08000 157.518
53.12000 153.357
53.16000 156.762
53.20000 145.580
53.24000 155.129
53.28000 149.451
53.32000 152.727
53.36000 161.501
53.40000 158.850
53.44000 160.674
53.48000 165.861
53.52000 166.789
53.56000 167.959
53.60000 155.626
53.64000 160.328
53.68000 153.424
53.72000 158.026
53.76000 158.576
53.80000 157.688
53.84000 159.337
53.88000 159.871
53.92000 151.058
53.96000 163.680
54.00000 157.127
54.04000 156.280
54.08000 152.946
54.12000 144.076
54.16000 155.991
54.20000 158.926
54.24000 158.336
54.28000 144.207
54.32000 149.556
54.36000 158.529
54.40000 142.615
54.44000 142.064
54.48000 152.891
54.52000 155.496
54.56000 154.688
54.60000 154.678
54.64000 152.730
54.68000 149.957
54.72000 143.428
54.76000 152.432
54.80000 160.734
54.84000 152.511
54.88000 154.314
54.92000 148.506
54.96000 158.408
55.00000 153.995
55.04000 139.141
55.08000 149.402
55.12000 163.588
55.16000 152.098
55.20000 164.079
55.24000 172.614
55.28000 159.757
55.32000 156.481
55.36000 157.180
55.40000 158.517
55.44000 164.096
55.48000 170.156
55.52000 177.478
55.56000 190.255
55.60000 201.818
55.64000 202.917
55.68000 225.539
55.72000 256.218
55.76000 274.786
55.80000 294.935
55.84000 312.386
55.88000 317.918
55.92000 331.180
55.96000 338.395
56.00000 326.610
56.04000 318.057
56.08000 308.746
56.12000 278.619
56.16000 269.925
56.20000 244.293
56.24000 230.950
56.28000 223.219
56.32000 197.621
56.36000 189.022
56.40000 189.999
56.44000 172.737
56.48000 166.487
56.52000 171.657
56.56000 169.105
56.60000 164.149
56.64000 176.974
56.68000 156.637
56.72000 161.969
56.76000 156.445
56.80000 156.862
56.84000 147.808
56.88000 144.499
56.92000 145.079
56.96000 148.505
57.00000 150.683
57.04000 146.029
57.08000 144.204
57.12000 151.004
57.16000 138.828
57.20000 144.042
57.24000 144.527
57.28000 149.374
57.32000 139.033
57.36000 149.486
57.40000 143.694
57.44000 138.043
57.48000 140.041
57.52000 143.217
57.56000 136.024
57.60000 146.795
57.64000 136.413
57.68000 148.738
57.72000 139.701
57.76000 131.107
57.80000 133.413
57.84000 138.004
57.88000 137.589
57.92000 141.483
57.96000 145.285
58.00000 142.151
58.04000 129.793
58.08000 140.120
58.12000 138.581
58.16000 137.628
58.20000 136.592
58.24000 131.230
58.28000 139.114
58.32000 136.787
58.36000 143.679
58.40000 129.787
58.44000 135.683
58.48000 140.909
58.52000 141.684
58.56000 131.541
58.60000 135.134
58.64000 140.062
58.68000 127.582
58.72000 129.360
58.76000 143.255
58.80000 136.915
58.84000 136.301
58.88000 142.421
58.92000 140.024
58.96000 140.158
59.00000 125.083
59.04000 129.060
59.08000 139.005
59.12000 129.459
59.16000 136.500
59.20000 135.934
59.24000 131.767
59.28000 140.298
59.32000 135.229
59.36000 136.494
59.40000 128.919
59.44000 126.857
59.48000 134.049
59.52000 127.093
59.56000 127.696
59.60000 134.798
59.64000 137.088
59.68000 143.901
59.72000 127.833
59.76000 131.561
59.80000 135.587
59.84000 137.582
59.88000 148.683
59.92000 143.020
59.96000 137.164
60.00000 120.033
60.04000 134.583
60.08000 142.743
60.12000 118.557
60.16000 126.447
60.20000 131.852
60.24000 135.363
60.28000 133.050
60.32000 128.862
60.36000 135.798
60.40000 133.487
60.44000 136.800
60.48000 134.509
60.52000 140.374
60.56000 129.141
60.60000 125.638
60.64000 138.006
60.68000 137.208
60.72000 138.520
60.76000 139.658
60.80000 138.153
60.84000 131.935
60.88000 127.035
60.92000 135.282
60.96000 136.454
61.00000 130.107
61.04000 124.719
61.08000 137.188
61.12000 143.769
61.16000 140.177
61.20000 146.692
61.24000 136.289
61.28000 141.886
61.32000 132.570
61.36000 147.008
61.40000 132.477
61.44000 138.488
61.48000 147.814
61.52000 150.744
61.56000 176.439
61.60000 230.215
61.64000 261.462
61.68000 254.579
61.72000 256.167
61.76000 258.073
61.80000 221.748
61.84000 183.163
61.88000 165.661
61.92000 153.854
61.96000 153.877
62.00000 140.516
62.04000 145.381
62.08000 144.147
62.12000 145.016
62.16000 132.542
62.20000 141.048
62.24000 136.834
62.28000 154.383
62.32000 143.837
62.36000 143.856
62.40000 136.297
62.44000 136.506
62.48000 139.776
62.52000 147.165
62.56000 144.575
62.60000 130.506
62.64000 136.852
62.68000 143.077
62.72000 135.641
62.76000 142.163
62.80000 149.457
62.84000 155.417
62.88000 138.531
62.92000 144.771
62.96000 134.669
63.00000 142.476
63.04000 148.083
63.08000 134.156
63.12000 156.559
63.16000 148.164
63.20000 155.197
63.24000 149.258
63.28000 142.601
63.32000 143.804
63.36000 153.885
63.40000 144.730
63.44000 140.711
63.48000 148.708
63.52000 142.450
63.56000 159.780
63.60000 146.901
63.64000 153.691
63.68000 150.751
63.72000 144.002
63.76000 152.387
63.80000 139.808
63.84000 145.062
63.88000 146.332
63.92000 176.280
63.96000 153.591
64.00000 164.518
64.04000 152.747
64.08000 145.203
64.12000 161.460
64.16000 162.761
64.20000 169.533
64.24000 161.526
64.28000 153.505
64.32000 157.711
64.36000 157.477
64.40000 173.124
64.44000 168.255
64.48000 154.357
64.52000 166.775
64.56000 167.569
64.60000 176.977
64.64000 167.820
64.68000 171.442
64.72000 172.208
64.76000 176.996
64.80000 169.156
64.84000 185.669
64.88000 183.353
64.92000 173.674
64.96000 180.077
65.00000 186.018
65.04000 186.917
65.08000 200.692
65.12000 202.430
65.16000 212.673
65.20000 204.670
65.24000 200.483
65.28000 224.666
65.32000 231.456
65.36000 220.948
65.40000 236.370
65.44000 244.327
65.48000 265.354
65.52000 270.772
65.56000 282.802
65.60000 296.133
65.64000 333.356
65.68000 373.074
65.72000 501.612
65.76000 694.078
65.80000 902.706
65.84000 1021.820
65.88000 1057.947
65.92000 1042.129
65.96000 908.059
66.00000 673.809
66.04000 467.430
66.08000 376.854
66.12000 315.420
66.16000 317.633
66.20000 304.085
66.24000 299.846
66.28000 352.624
66.32000 375.199
66.36000 431.015
66.40000 445.973
66.44000 455.984
66.48000 449.191
66.52000 419.039
66.56000 370.800
66.60000 349.840
66.64000 305.974
66.68000 311.203
66.72000 321.496
66.76000 329.816
66.80000 329.508
66.84000 330.455
66.88000 338.167
66.92000 338.125
66.96000 345.186
67.00000 357.632
67.04000 348.659
67.08000 364.670
67.12000 345.965
67.16000 367.185
67.20000 370.143
67.24000 376.048
67.28000 403.201
67.32000 392.020
67.36000 403.511
67.40000 398.926
67.44000 399.474
67.48000 420.126
67.52000 437.833
67.56000 424.320
67.60000 443.931
67.64000 455.662
67.68000 455.220
67.72000 453.400
67.76000 477.874
67.80000 496.266
67.84000 501.170
67.88000 527.014
67.92000 519.416
67.96000 527.334
68.00000 545.004
68.04000 535.208
68.08000 557.650
68.12000 564.089
68.16000 579.017
68.20000 596.041
68.24000 611.089
68.28000 602.751
68.32000 651.069
68.36000 646.926
68.40000 682.437
68.44000 708.755
68.48000 759.069
68.52000 782.036
68.56000 841.000
68.60000 943.014
68.64000 1080.121
68.68000 1264.532
68.72000 1478.190
68.76000 1650.468
68.80000 1839.681
68.84000 2160.023
68.88000 2545.106
68.92000 3850.409
68.96000 9584.061
69.00000 23383.377
69.04000 40532.512
69.08000 50728.953
69.12000 52975.566
69.16000 55008.789
69.20000 56663.172
69.24000 49156.773
69.28000 36783.031
69.32000 29582.158
69.36000 26667.756
69.40000 23008.039
69.44000 15029.827
69.48000 7181.335
69.52000 3125.577
69.56000 1891.114
69.60000 1453.704
69.64000 1232.579
69.68000 1119.254
69.72000 1008.413
69.76000 903.096
69.80000 847.221
69.84000 801.294
69.88000 755.567
69.92000 735.229
69.96000 700.220
70.00000 660.034