File: XRD/XRD/25-09-2025/XY Data/BTO_Mapping_Theta2Theta_25-09-2025_001_23_-10-000_17-321.xy
20.00000 555.989
20.04000 536.982
20.08000 530.194
20.12000 553.154
20.16000 556.347
20.20000 562.257
20.24000 555.705
20.28000 560.287
20.32000 539.762
20.36000 549.954
20.40000 557.995
20.44000 555.228
20.48000 562.463
20.52000 570.110
20.56000 546.358
20.60000 536.739
20.64000 541.291
20.68000 573.543
20.72000 544.405
20.76000 540.007
20.80000 548.376
20.84000 537.035
20.88000 542.414
20.92000 549.565
20.96000 553.052
21.00000 562.863
21.04000 548.830
21.08000 543.057
21.12000 571.347
21.16000 548.151
21.20000 550.491
21.24000 554.241
21.28000 550.879
21.32000 546.931
21.36000 542.054
21.40000 537.557
21.44000 537.780
21.48000 547.875
21.52000 532.638
21.56000 574.841
21.60000 544.444
21.64000 540.197
21.68000 540.122
21.72000 549.767
21.76000 567.729
21.80000 549.374
21.84000 567.111
21.88000 610.273
21.92000 620.165
21.96000 634.519
22.00000 625.012
22.04000 648.417
22.08000 656.700
22.12000 654.835
22.16000 664.857
22.20000 641.805
22.24000 637.355
22.28000 621.170
22.32000 623.316
22.36000 617.268
22.40000 578.544
22.44000 580.885
22.48000 578.243
22.52000 568.310
22.56000 539.161
22.60000 552.477
22.64000 533.541
22.68000 525.953
22.72000 506.684
22.76000 532.549
22.80000 506.066
22.84000 513.602
22.88000 526.220
22.92000 517.767
22.96000 524.329
23.00000 522.843
23.04000 515.750
23.08000 507.043
23.12000 508.994
23.16000 502.039
23.20000 492.357
23.24000 502.740
23.28000 498.862
23.32000 489.581
23.36000 497.561
23.40000 511.747
23.44000 515.743
23.48000 505.696
23.52000 466.299
23.56000 494.572
23.60000 481.630
23.64000 497.698
23.68000 476.500
23.72000 496.733
23.76000 485.820
23.80000 506.360
23.84000 494.414
23.88000 475.160
23.92000 484.127
23.96000 490.016
24.00000 485.286
24.04000 467.660
24.08000 491.963
24.12000 484.519
24.16000 467.254
24.20000 485.373
24.24000 505.734
24.28000 490.385
24.32000 474.404
24.36000 489.672
24.40000 479.673
24.44000 476.487
24.48000 450.645
24.52000 465.636
24.56000 491.936
24.60000 478.632
24.64000 480.819
24.68000 479.043
24.72000 462.734
24.76000 471.005
24.80000 489.166
24.84000 476.650
24.88000 467.353
24.92000 478.732
24.96000 470.702
25.00000 485.641
25.04000 483.374
25.08000 491.480
25.12000 460.740
25.16000 463.227
25.20000 473.223
25.24000 451.159
25.28000 460.145
25.32000 466.648
25.36000 467.806
25.40000 457.155
25.44000 455.811
25.48000 455.230
25.52000 451.419
25.56000 470.471
25.60000 469.722
25.64000 445.929
25.68000 456.029
25.72000 453.394
25.76000 457.555
25.80000 456.873
25.84000 457.090
25.88000 470.532
25.92000 465.548
25.96000 454.913
26.00000 438.567
26.04000 449.491
26.08000 445.075
26.12000 453.500
26.16000 464.863
26.20000 454.685
26.24000 446.018
26.28000 428.838
26.32000 445.455
26.36000 450.177
26.40000 455.155
26.44000 432.818
26.48000 440.249
26.52000 450.382
26.56000 446.079
26.60000 457.244
26.64000 444.441
26.68000 436.562
26.72000 418.334
26.76000 428.957
26.80000 427.240
26.84000 456.784
26.88000 442.729
26.92000 438.387
26.96000 443.387
27.00000 449.270
27.04000 453.767
27.08000 430.479
27.12000 437.378
27.16000 425.761
27.20000 424.706
27.24000 452.015
27.28000 426.314
27.32000 434.730
27.36000 417.891
27.40000 415.884
27.44000 435.176
27.48000 420.727
27.52000 419.640
27.56000 402.724
27.60000 411.266
27.64000 426.386
27.68000 453.400
27.72000 433.501
27.76000 422.179
27.80000 426.800
27.84000 426.249
27.88000 413.979
27.92000 423.271
27.96000 414.895
28.00000 415.226
28.04000 445.636
28.08000 419.225
28.12000 427.825
28.16000 423.566
28.20000 447.400
28.24000 414.299
28.28000 413.310
28.32000 419.734
28.36000 424.609
28.40000 408.616
28.44000 419.415
28.48000 416.347
28.52000 413.554
28.56000 416.796
28.60000 398.414
28.64000 410.269
28.68000 408.606
28.72000 436.178
28.76000 401.615
28.80000 424.268
28.84000 413.629
28.88000 403.848
28.92000 406.578
28.96000 402.209
29.00000 401.200
29.04000 396.420
29.08000 407.873
29.12000 420.373
29.16000 405.080
29.20000 410.318
29.24000 413.136
29.28000 405.204
29.32000 382.056
29.36000 411.370
29.40000 399.206
29.44000 390.602
29.48000 391.946
29.52000 390.330
29.56000 414.924
29.60000 392.042
29.64000 425.693
29.68000 404.676
29.72000 394.120
29.76000 384.999
29.80000 403.228
29.84000 412.860
29.88000 404.792
29.92000 410.834
29.96000 413.239
30.00000 431.609
30.04000 410.971
30.08000 412.216
30.12000 413.909
30.16000 402.080
30.20000 412.132
30.24000 396.720
30.28000 407.411
30.32000 393.092
30.36000 406.527
30.40000 407.703
30.44000 396.267
30.48000 390.682
30.52000 407.897
30.56000 409.415
30.60000 388.024
30.64000 395.341
30.68000 402.757
30.72000 414.069
30.76000 420.549
30.80000 422.900
30.84000 416.819
30.88000 417.267
30.92000 442.428
30.96000 471.249
31.00000 475.354
31.04000 520.082
31.08000 597.359
31.12000 676.285
31.16000 806.366
31.20000 938.338
31.24000 1157.885
31.28000 1305.569
31.32000 1488.672
31.36000 1599.419
31.40000 1583.883
31.44000 1529.676
31.48000 1445.504
31.52000 1292.485
31.56000 1128.243
31.60000 959.445
31.64000 826.842
31.68000 701.625
31.72000 603.167
31.76000 556.907
31.80000 505.217
31.84000 477.813
31.88000 461.477
31.92000 452.115
31.96000 422.078
32.00000 414.807
32.04000 394.392
32.08000 397.636
32.12000 396.697
32.16000 406.777
32.20000 388.740
32.24000 391.634
32.28000 391.424
32.32000 399.613
32.36000 384.054
32.40000 373.296
32.44000 378.989
32.48000 377.357
32.52000 357.555
32.56000 360.144
32.60000 374.723
32.64000 372.225
32.68000 369.833
32.72000 358.572
32.76000 368.657
32.80000 363.064
32.84000 365.550
32.88000 373.411
32.92000 376.749
32.96000 383.339
33.00000 359.536
33.04000 364.359
33.08000 346.533
33.12000 357.412
33.16000 343.759
33.20000 348.547
33.24000 347.397
33.28000 324.805
33.32000 339.184
33.36000 348.505
33.40000 346.110
33.44000 334.425
33.48000 341.673
33.52000 346.069
33.56000 336.987
33.60000 330.177
33.64000 328.373
33.68000 329.912
33.72000 331.806
33.76000 339.336
33.80000 314.367
33.84000 322.794
33.88000 319.038
33.92000 323.904
33.96000 333.668
34.00000 327.713
34.04000 328.792
34.08000 335.362
34.12000 307.066
34.16000 327.103
34.20000 332.767
34.24000 322.608
34.28000 316.007
34.32000 340.602
34.36000 312.246
34.40000 317.848
34.44000 323.780
34.48000 318.797
34.52000 319.411
34.56000 311.006
34.60000 319.391
34.64000 308.151
34.68000 318.399
34.72000 316.215
34.76000 322.241
34.80000 318.553
34.84000 328.647
34.88000 319.053
34.92000 310.415
34.96000 323.370
35.00000 309.905
35.04000 297.182
35.08000 300.647
35.12000 319.326
35.16000 312.567
35.20000 311.213
35.24000 314.098
35.28000 299.701
35.32000 288.043
35.36000 299.717
35.40000 302.000
35.44000 309.399
35.48000 319.485
35.52000 310.092
35.56000 306.596
35.60000 303.021
35.64000 289.793
35.68000 299.510
35.72000 304.269
35.76000 291.173
35.80000 300.519
35.84000 289.239
35.88000 297.977
35.92000 300.028
35.96000 302.467
36.00000 304.733
36.04000 297.095
36.08000 291.891
36.12000 308.865
36.16000 298.357
36.20000 300.915
36.24000 312.707
36.28000 292.067
36.32000 291.719
36.36000 313.488
36.40000 295.368
36.44000 296.088
36.48000 279.063
36.52000 284.987
36.56000 267.981
36.60000 281.257
36.64000 291.357
36.68000 285.201
36.72000 298.884
36.76000 279.914
36.80000 295.400
36.84000 292.427
36.88000 294.111
36.92000 299.975
36.96000 293.869
37.00000 302.754
37.04000 295.258
37.08000 302.936
37.12000 298.763
37.16000 296.051
37.20000 297.264
37.24000 284.300
37.28000 284.075
37.32000 289.393
37.36000 274.149
37.40000 273.632
37.44000 290.144
37.48000 287.024
37.52000 270.861
37.56000 279.949
37.60000 282.805
37.64000 268.989
37.68000 287.134
37.72000 279.709
37.76000 288.884
37.80000 278.538
37.84000 283.881
37.88000 273.752
37.92000 298.962
37.96000 288.877
38.00000 291.426
38.04000 269.685
38.08000 285.517
38.12000 298.411
38.16000 285.218
38.20000 291.390
38.24000 292.889
38.28000 296.932
38.32000 298.382
38.36000 322.776
38.40000 341.504
38.44000 374.189
38.48000 427.856
38.52000 485.348
38.56000 567.303
38.60000 641.875
38.64000 713.367
38.68000 766.780
38.72000 794.645
38.76000 797.841
38.80000 758.434
38.84000 697.264
38.88000 600.793
38.92000 524.291
38.96000 430.775
39.00000 388.058
39.04000 361.542
39.08000 303.002
39.12000 291.611
39.16000 280.724
39.20000 281.837
39.24000 288.274
39.28000 276.762
39.32000 269.207
39.36000 291.925
39.40000 272.364
39.44000 273.795
39.48000 256.657
39.52000 266.664
39.56000 269.103
39.60000 260.781
39.64000 266.193
39.68000 253.983
39.72000 262.407
39.76000 256.579
39.80000 256.427
39.84000 250.376
39.88000 243.705
39.92000 255.717
39.96000 263.590
40.00000 260.873
40.04000 246.367
40.08000 248.122
40.12000 258.769
40.16000 258.697
40.20000 241.826
40.24000 255.191
40.28000 252.409
40.32000 250.906
40.36000 252.505
40.40000 235.406
40.44000 231.004
40.48000 245.365
40.52000 241.654
40.56000 254.331
40.60000 252.491
40.64000 244.536
40.68000 242.545
40.72000 249.598
40.76000 236.727
40.80000 240.774
40.84000 231.558
40.88000 258.831
40.92000 251.999
40.96000 244.050
41.00000 240.697
41.04000 257.788
41.08000 243.326
41.12000 253.193
41.16000 238.713
41.20000 235.646
41.24000 233.409
41.28000 243.262
41.32000 236.021
41.36000 234.283
41.40000 235.840
41.44000 221.990
41.48000 235.489
41.52000 237.634
41.56000 235.696
41.60000 246.012
41.64000 236.567
41.68000 237.074
41.72000 239.528
41.76000 217.254
41.80000 239.977
41.84000 228.471
41.88000 234.449
41.92000 238.713
41.96000 228.906
42.00000 223.844
42.04000 227.215
42.08000 227.809
42.12000 239.264
42.16000 231.874
42.20000 230.690
42.24000 230.133
42.28000 231.530
42.32000 234.522
42.36000 234.852
42.40000 220.914
42.44000 226.826
42.48000 227.825
42.52000 225.889
42.56000 222.988
42.60000 232.253
42.64000 235.477
42.68000 230.681
42.72000 220.228
42.76000 220.881
42.80000 228.523
42.84000 229.371
42.88000 230.544
42.92000 236.397
42.96000 220.184
43.00000 227.846
43.04000 225.482
43.08000 224.053
43.12000 226.698
43.16000 223.251
43.20000 214.282
43.24000 209.791
43.28000 215.114
43.32000 230.181
43.36000 218.382
43.40000 219.496
43.44000 213.886
43.48000 203.775
43.52000 225.922
43.56000 215.517
43.60000 220.432
43.64000 224.451
43.68000 224.721
43.72000 215.415
43.76000 231.921
43.80000 223.941
43.84000 210.580
43.88000 209.384
43.92000 224.034
43.96000 209.916
44.00000 218.272
44.04000 217.000
44.08000 207.632
44.12000 209.900
44.16000 220.031
44.20000 204.934
44.24000 212.461
44.28000 215.635
44.32000 212.354
44.36000 221.566
44.40000 219.816
44.44000 225.558
44.48000 225.343
44.52000 224.085
44.56000 225.054
44.60000 229.374
44.64000 230.145
44.68000 234.275
44.72000 234.449
44.76000 230.379
44.80000 242.571
44.84000 253.474
44.88000 261.931
44.92000 256.155
44.96000 264.174
45.00000 273.593
45.04000 274.032
45.08000 282.485
45.12000 270.615
45.16000 281.642
45.20000 295.897
45.24000 282.584
45.28000 279.165
45.32000 281.279
45.36000 282.781
45.40000 258.247
45.44000 263.810
45.48000 270.398
45.52000 259.142
45.56000 247.175
45.60000 264.859
45.64000 243.193
45.68000 244.509
45.72000 262.434
45.76000 245.358
45.80000 219.449
45.84000 233.105
45.88000 228.157
45.92000 231.029
45.96000 239.504
46.00000 220.921
46.04000 217.679
46.08000 206.114
46.12000 216.021
46.16000 205.838
46.20000 215.147
46.24000 204.966
46.28000 209.076
46.32000 199.026
46.36000 202.219
46.40000 218.334
46.44000 207.062
46.48000 198.047
46.52000 194.447
46.56000 193.534
46.60000 206.746
46.64000 205.365
46.68000 200.608
46.72000 196.340
46.76000 205.342
46.80000 187.578
46.84000 191.402
46.88000 194.220
46.92000 186.159
46.96000 189.521
47.00000 195.805
47.04000 207.590
47.08000 197.951
47.12000 195.253
47.16000 197.268
47.20000 195.956
47.24000 188.110
47.28000 183.623
47.32000 187.791
47.36000 190.212
47.40000 177.429
47.44000 183.465
47.48000 189.730
47.52000 179.116
47.56000 187.856
47.60000 188.544
47.64000 199.827
47.68000 182.589
47.72000 189.365
47.76000 165.899
47.80000 174.379
47.84000 184.809
47.88000 189.758
47.92000 187.643
47.96000 187.459
48.00000 183.064
48.04000 185.062
48.08000 183.471
48.12000 175.264
48.16000 175.475
48.20000 181.411
48.24000 183.900
48.28000 181.310
48.32000 182.364
48.36000 181.678
48.40000 177.361
48.44000 187.843
48.48000 182.942
48.52000 190.456
48.56000 175.294
48.60000 189.232
48.64000 183.001
48.68000 179.147
48.72000 176.082
48.76000 183.998
48.80000 176.810
48.84000 183.594
48.88000 181.430
48.92000 186.903
48.96000 182.227
49.00000 169.858
49.04000 181.761
49.08000 174.072
49.12000 172.122
49.16000 174.250
49.20000 175.642
49.24000 175.584
49.28000 168.687
49.32000 186.342
49.36000 179.499
49.40000 195.445
49.44000 188.985
49.48000 170.633
49.52000 173.647
49.56000 178.042
49.60000 163.920
49.64000 170.223
49.68000 166.414
49.72000 176.321
49.76000 171.213
49.80000 177.963
49.84000 169.492
49.88000 179.503
49.92000 170.024
49.96000 170.948
50.00000 164.518
50.04000 176.023
50.08000 171.219
50.12000 174.985
50.16000 177.872
50.20000 174.165
50.24000 186.477
50.28000 182.580
50.32000 180.199
50.36000 176.643
50.40000 187.146
50.44000 176.238
50.48000 185.892
50.52000 194.268
50.56000 200.229
50.60000 196.033
50.64000 198.028
50.68000 203.788
50.72000 204.744
50.76000 204.034
50.80000 195.115
50.84000 196.301
50.88000 188.289
50.92000 191.213
50.96000 188.740
51.00000 191.011
51.04000 190.686
51.08000 178.682
51.12000 185.357
51.16000 183.670
51.20000 181.809
51.24000 181.087
51.28000 181.881
51.32000 170.870
51.36000 173.272
51.40000 170.722
51.44000 175.576
51.48000 174.923
51.52000 159.566
51.56000 168.717
51.60000 161.187
51.64000 168.282
51.68000 162.253
51.72000 159.872
51.76000 165.604
51.80000 158.754
51.84000 163.854
51.88000 164.469
51.92000 149.913
51.96000 161.608
52.00000 159.334
52.04000 158.895
52.08000 159.385
52.12000 150.905
52.16000 154.406
52.20000 159.446
52.24000 154.701
52.28000 146.297
52.32000 144.267
52.36000 157.676
52.40000 162.061
52.44000 158.088
52.48000 154.474
52.52000 162.544
52.56000 151.182
52.60000 153.376
52.64000 150.339
52.68000 156.962
52.72000 163.134
52.76000 154.349
52.80000 156.874
52.84000 162.916
52.88000 156.631
52.92000 154.742
52.96000 150.761
53.00000 164.490
53.04000 154.525
53.08000 148.222
53.12000 154.580
53.16000 159.119
53.20000 151.427
53.24000 168.020
53.28000 152.579
53.32000 149.276
53.36000 155.650
53.40000 158.340
53.44000 150.458
53.48000 165.725
53.52000 158.331
53.56000 165.636
53.60000 159.613
53.64000 161.301
53.68000 158.055
53.72000 152.990
53.76000 146.344
53.80000 147.505
53.84000 150.329
53.88000 145.783
53.92000 153.384
53.96000 167.759
54.00000 161.576
54.04000 150.447
54.08000 160.855
54.12000 143.071
54.16000 143.188
54.20000 143.940
54.24000 145.042
54.28000 139.725
54.32000 149.368
54.36000 151.530
54.40000 140.477
54.44000 148.242
54.48000 141.222
54.52000 142.032
54.56000 145.241
54.60000 163.598
54.64000 147.491
54.68000 151.883
54.72000 154.824
54.76000 146.795
54.80000 138.457
54.84000 155.659
54.88000 146.298
54.92000 156.500
54.96000 156.350
55.00000 154.624
55.04000 164.270
55.08000 158.829
55.12000 168.045
55.16000 150.085
55.20000 147.079
55.24000 160.655
55.28000 154.410
55.32000 152.077
55.36000 157.770
55.40000 177.486
55.44000 171.644
55.48000 175.915
55.52000 199.717
55.56000 208.620
55.60000 236.145
55.64000 237.255
55.68000 266.455
55.72000 307.409
55.76000 338.997
55.80000 382.096
55.84000 402.151
55.88000 425.400
55.92000 450.853
55.96000 439.000
56.00000 447.917
56.04000 428.647
56.08000 421.922
56.12000 404.997
56.16000 348.115
56.20000 317.852
56.24000 289.627
56.28000 267.135
56.32000 239.742
56.36000 216.247
56.40000 194.703
56.44000 187.468
56.48000 190.199
56.52000 181.621
56.56000 160.514
56.60000 166.898
56.64000 162.489
56.68000 157.280
56.72000 139.454
56.76000 145.474
56.80000 152.226
56.84000 159.484
56.88000 156.288
56.92000 140.263
56.96000 150.489
57.00000 137.356
57.04000 148.343
57.08000 145.646
57.12000 138.970
57.16000 138.413
57.20000 148.961
57.24000 151.185
57.28000 144.803
57.32000 144.221
57.36000 144.487
57.40000 146.702
57.44000 135.668
57.48000 133.173
57.52000 132.991
57.56000 137.783
57.60000 138.702
57.64000 139.400
57.68000 136.256
57.72000 146.694
57.76000 144.432
57.80000 144.357
57.84000 146.067
57.88000 142.517
57.92000 137.570
57.96000 129.752
58.00000 143.683
58.04000 141.120
58.08000 139.941
58.12000 130.807
58.16000 132.912
58.20000 139.356
58.24000 132.224
58.28000 138.057
58.32000 135.687
58.36000 131.408
58.40000 145.966
58.44000 137.920
58.48000 134.141
58.52000 140.620
58.56000 140.285
58.60000 140.405
58.64000 134.484
58.68000 133.887
58.72000 132.979
58.76000 139.591
58.80000 137.152
58.84000 122.897
58.88000 137.468
58.92000 133.170
58.96000 143.477
59.00000 130.860
59.04000 123.293
59.08000 129.655
59.12000 130.854
59.16000 130.027
59.20000 136.705
59.24000 128.465
59.28000 123.160
59.32000 134.938
59.36000 145.421
59.40000 126.080
59.44000 127.940
59.48000 133.938
59.52000 131.094
59.56000 128.568
59.60000 125.999
59.64000 139.385
59.68000 129.820
59.72000 136.299
59.76000 134.094
59.80000 134.613
59.84000 138.145
59.88000 133.144
59.92000 137.546
59.96000 127.731
60.00000 133.150
60.04000 136.474
60.08000 125.778
60.12000 139.742
60.16000 130.528
60.20000 128.701
60.24000 124.924
60.28000 139.648
60.32000 139.365
60.36000 132.984
60.40000 129.501
60.44000 122.071
60.48000 125.993
60.52000 130.128
60.56000 134.447
60.60000 141.472
60.64000 136.319
60.68000 141.338
60.72000 132.302
60.76000 133.147
60.80000 132.413
60.84000 133.238
60.88000 130.356
60.92000 141.665
60.96000 135.189
61.00000 138.593
61.04000 134.303
61.08000 136.958
61.12000 121.426
61.16000 132.947
61.20000 123.823
61.24000 129.924
61.28000 139.905
61.32000 131.605
61.36000 123.471
61.40000 145.079
61.44000 139.403
61.48000 153.275
61.52000 168.449
61.56000 187.175
61.60000 235.809
61.64000 261.108
61.68000 262.104
61.72000 270.360
61.76000 267.757
61.80000 222.774
61.84000 179.094
61.88000 153.549
61.92000 150.830
61.96000 147.301
62.00000 149.715
62.04000 142.872
62.08000 142.682
62.12000 139.394
62.16000 140.060
62.20000 120.577
62.24000 132.087
62.28000 137.659
62.32000 136.156
62.36000 143.709
62.40000 131.929
62.44000 134.442
62.48000 137.311
62.52000 141.655
62.56000 142.190
62.60000 137.817
62.64000 144.356
62.68000 146.938
62.72000 151.903
62.76000 136.654
62.80000 144.790
62.84000 145.491
62.88000 136.639
62.92000 140.790
62.96000 144.432
63.00000 158.660
63.04000 136.773
63.08000 138.865
63.12000 146.633
63.16000 143.361
63.20000 144.577
63.24000 137.384
63.28000 132.167
63.32000 146.050
63.36000 157.631
63.40000 149.749
63.44000 151.773
63.48000 152.241
63.52000 152.037
63.56000 150.202
63.60000 151.439
63.64000 146.078
63.68000 145.043
63.72000 152.065
63.76000 155.893
63.80000 145.460
63.84000 159.347
63.88000 155.186
63.92000 147.518
63.96000 156.956
64.00000 156.654
64.04000 157.482
64.08000 160.445
64.12000 149.213
64.16000 163.112
64.20000 171.327
64.24000 167.236
64.28000 159.486
64.32000 180.056
64.36000 165.532
64.40000 173.745
64.44000 165.358
64.48000 165.901
64.52000 157.874
64.56000 176.988
64.60000 157.972
64.64000 174.408
64.68000 174.827
64.72000 170.250
64.76000 181.877
64.80000 177.749
64.84000 180.077
64.88000 169.196
64.92000 186.323
64.96000 189.049
65.00000 184.205
65.04000 194.436
65.08000 194.303
65.12000 199.949
65.16000 206.167
65.20000 211.478
65.24000 232.084
65.28000 222.545
65.32000 227.595
65.36000 237.953
65.40000 259.324
65.44000 259.432
65.48000 266.711
65.52000 285.616
65.56000 298.493
65.60000 314.862
65.64000 346.279
65.68000 420.148
65.72000 568.599
65.76000 793.512
65.80000 963.038
65.84000 1080.544
65.88000 1110.164
65.92000 1070.664
65.96000 888.722
66.00000 629.491
66.04000 468.588
66.08000 384.574
66.12000 341.875
66.16000 317.028
66.20000 313.379
66.24000 324.167
66.28000 350.520
66.32000 385.902
66.36000 419.992
66.40000 429.852
66.44000 445.654
66.48000 437.912
66.52000 424.562
66.56000 361.048
66.60000 326.616
66.64000 331.342
66.68000 324.155
66.72000 314.074
66.76000 324.062
66.80000 335.711
66.84000 322.421
66.88000 339.237
66.92000 339.479
66.96000 351.134
67.00000 349.527
67.04000 345.310
67.08000 365.234
67.12000 354.137
67.16000 370.239
67.20000 370.796
67.24000 379.662
67.28000 392.729
67.32000 386.676
67.36000 403.340
67.40000 414.059
67.44000 420.682
67.48000 412.180
67.52000 436.061
67.56000 434.321
67.60000 448.548
67.64000 432.297
67.68000 470.541
67.72000 461.394
67.76000 477.685
67.80000 465.848
67.84000 490.528
67.88000 490.781
67.92000 503.659
67.96000 516.322
68.00000 556.039
68.04000 559.358
68.08000 587.298
68.12000 567.953
68.16000 572.964
68.20000 591.223
68.24000 618.877
68.28000 654.243
68.32000 642.920
68.36000 676.605
68.40000 712.415
68.44000 738.663
68.48000 798.865
68.52000 797.733
68.56000 860.901
68.60000 979.561
68.64000 1133.479
68.68000 1329.879
68.72000 1575.310
68.76000 1803.118
68.80000 2050.287
68.84000 2435.713
68.88000 3037.213
68.92000 5144.687
68.96000 13040.913
69.00000 28989.703
69.04000 45763.539
69.08000 54055.289
69.12000 55853.086
69.16000 58054.566
69.20000 58058.008
69.24000 47828.574
69.28000 36612.559
69.32000 30160.924
69.36000 27290.875
69.40000 22310.207
69.44000 13446.448
69.48000 6386.312
69.52000 2881.992
69.56000 1889.482
69.60000 1482.645
69.64000 1263.581
69.68000 1129.669
69.72000 1016.661
69.76000 920.556
69.80000 845.813
69.84000 790.771
69.88000 750.276
69.92000 718.172
69.96000 705.705
70.00000 659.035