File: XRD/XRD/25-09-2025/XY Data/BTO_Mapping_Theta2Theta_25-09-2025_001_54_6-691_-7-431.xy
20.00000 589.228
20.04000 544.983
20.08000 545.405
20.12000 541.857
20.16000 567.029
20.20000 542.479
20.24000 568.663
20.28000 563.266
20.32000 535.748
20.36000 558.014
20.40000 550.134
20.44000 550.310
20.48000 567.147
20.52000 563.199
20.56000 552.626
20.60000 558.943
20.64000 544.149
20.68000 560.161
20.72000 530.656
20.76000 563.401
20.80000 521.330
20.84000 560.643
20.88000 530.214
20.92000 546.323
20.96000 555.303
21.00000 553.210
21.04000 544.686
21.08000 537.236
21.12000 550.189
21.16000 553.280
21.20000 535.802
21.24000 561.341
21.28000 536.798
21.32000 542.824
21.36000 520.692
21.40000 536.783
21.44000 523.369
21.48000 531.996
21.52000 540.333
21.56000 522.829
21.60000 547.302
21.64000 539.345
21.68000 523.579
21.72000 540.505
21.76000 560.277
21.80000 551.710
21.84000 567.055
21.88000 571.157
21.92000 568.956
21.96000 592.094
22.00000 605.800
22.04000 610.915
22.08000 635.512
22.12000 605.635
22.16000 612.510
22.20000 595.149
22.24000 620.062
22.28000 625.071
22.32000 604.035
22.36000 582.079
22.40000 586.844
22.44000 580.696
22.48000 562.723
22.52000 570.001
22.56000 553.184
22.60000 544.041
22.64000 539.835
22.68000 504.338
22.72000 520.343
22.76000 511.030
22.80000 510.665
22.84000 500.993
22.88000 520.171
22.92000 509.578
22.96000 513.731
23.00000 493.249
23.04000 506.378
23.08000 505.247
23.12000 495.672
23.16000 507.530
23.20000 500.644
23.24000 495.623
23.28000 501.078
23.32000 521.698
23.36000 493.377
23.40000 488.991
23.44000 506.574
23.48000 482.796
23.52000 483.866
23.56000 507.558
23.60000 512.116
23.64000 489.622
23.68000 489.451
23.72000 499.296
23.76000 492.564
23.80000 497.254
23.84000 493.814
23.88000 497.882
23.92000 493.634
23.96000 493.052
24.00000 490.547
24.04000 499.452
24.08000 491.614
24.12000 472.930
24.16000 495.569
24.20000 492.064
24.24000 470.820
24.28000 477.897
24.32000 489.329
24.36000 489.904
24.40000 471.571
24.44000 503.609
24.48000 485.158
24.52000 478.305
24.56000 486.728
24.60000 468.672
24.64000 479.861
24.68000 483.113
24.72000 484.157
24.76000 472.381
24.80000 461.382
24.84000 462.719
24.88000 456.959
24.92000 462.474
24.96000 465.202
25.00000 483.458
25.04000 466.199
25.08000 472.464
25.12000 465.096
25.16000 477.835
25.20000 470.644
25.24000 474.146
25.28000 466.710
25.32000 472.866
25.36000 468.640
25.40000 450.515
25.44000 448.136
25.48000 463.310
25.52000 443.393
25.56000 479.437
25.60000 450.562
25.64000 457.647
25.68000 460.922
25.72000 458.542
25.76000 459.133
25.80000 451.835
25.84000 433.082
25.88000 470.908
25.92000 450.654
25.96000 462.931
26.00000 461.152
26.04000 439.452
26.08000 450.257
26.12000 472.988
26.16000 460.676
26.20000 447.549
26.24000 438.512
26.28000 444.109
26.32000 447.768
26.36000 445.041
26.40000 456.501
26.44000 445.438
26.48000 455.307
26.52000 434.964
26.56000 441.378
26.60000 436.127
26.64000 445.019
26.68000 458.683
26.72000 452.289
26.76000 438.991
26.80000 429.509
26.84000 446.204
26.88000 428.798
26.92000 446.953
26.96000 449.537
27.00000 447.910
27.04000 426.932
27.08000 435.050
27.12000 415.076
27.16000 440.542
27.20000 425.385
27.24000 436.643
27.28000 424.912
27.32000 439.084
27.36000 434.077
27.40000 438.613
27.44000 431.242
27.48000 411.199
27.52000 424.068
27.56000 455.310
27.60000 426.664
27.64000 424.052
27.68000 407.145
27.72000 418.222
27.76000 430.064
27.80000 429.842
27.84000 409.930
27.88000 423.534
27.92000 420.952
27.96000 426.092
28.00000 414.316
28.04000 410.342
28.08000 447.019
28.12000 416.446
28.16000 404.063
28.20000 411.675
28.24000 410.780
28.28000 404.597
28.32000 427.162
28.36000 402.487
28.40000 421.093
28.44000 417.546
28.48000 407.550
28.52000 412.337
28.56000 418.664
28.60000 408.170
28.64000 405.324
28.68000 423.566
28.72000 422.996
28.76000 408.069
28.80000 417.730
28.84000 400.063
28.88000 397.371
28.92000 399.778
28.96000 403.143
29.00000 417.705
29.04000 410.854
29.08000 412.590
29.12000 415.238
29.16000 396.250
29.20000 402.157
29.24000 396.562
29.28000 394.512
29.32000 389.891
29.36000 413.352
29.40000 398.934
29.44000 398.293
29.48000 411.146
29.52000 404.315
29.56000 412.921
29.60000 390.525
29.64000 392.737
29.68000 385.078
29.72000 407.047
29.76000 412.619
29.80000 405.107
29.84000 387.545
29.88000 409.003
29.92000 415.260
29.96000 401.538
30.00000 401.504
30.04000 407.691
30.08000 423.218
30.12000 400.447
30.16000 404.601
30.20000 386.314
30.24000 409.965
30.28000 406.681
30.32000 389.784
30.36000 390.983
30.40000 378.801
30.44000 398.226
30.48000 406.261
30.52000 400.569
30.56000 389.773
30.60000 406.842
30.64000 394.095
30.68000 401.806
30.72000 415.204
30.76000 422.605
30.80000 407.718
30.84000 425.059
30.88000 409.128
30.92000 443.353
30.96000 454.354
31.00000 480.835
31.04000 517.501
31.08000 579.097
31.12000 638.354
31.16000 772.364
31.20000 890.234
31.24000 1046.743
31.28000 1184.841
31.32000 1350.602
31.36000 1390.790
31.40000 1444.128
31.44000 1416.114
31.48000 1321.570
31.52000 1136.260
31.56000 994.786
31.60000 897.925
31.64000 757.446
31.68000 650.217
31.72000 580.328
31.76000 519.645
31.80000 489.241
31.84000 469.704
31.88000 459.332
31.92000 444.393
31.96000 422.168
32.00000 402.021
32.04000 407.830
32.08000 406.607
32.12000 395.032
32.16000 385.808
32.20000 397.785
32.24000 393.840
32.28000 388.350
32.32000 401.796
32.36000 376.525
32.40000 371.604
32.44000 359.725
32.48000 358.934
32.52000 372.753
32.56000 367.371
32.60000 378.011
32.64000 353.111
32.68000 365.555
32.72000 360.237
32.76000 373.579
32.80000 364.449
32.84000 356.247
32.88000 358.853
32.92000 380.541
32.96000 363.170
33.00000 362.205
33.04000 344.546
33.08000 346.059
33.12000 350.784
33.16000 351.851
33.20000 338.186
33.24000 329.884
33.28000 337.710
33.32000 326.273
33.36000 357.266
33.40000 329.544
33.44000 327.104
33.48000 345.964
33.52000 352.159
33.56000 335.528
33.60000 336.738
33.64000 330.734
33.68000 332.133
33.72000 331.098
33.76000 357.645
33.80000 318.374
33.84000 334.497
33.88000 321.017
33.92000 328.647
33.96000 323.817
34.00000 333.287
34.04000 324.906
34.08000 329.614
34.12000 317.240
34.16000 324.878
34.20000 313.519
34.24000 328.091
34.28000 327.170
34.32000 301.550
34.36000 327.169
34.40000 322.422
34.44000 321.604
34.48000 311.396
34.52000 324.578
34.56000 323.030
34.60000 313.490
34.64000 320.963
34.68000 322.595
34.72000 313.225
34.76000 318.827
34.80000 314.650
34.84000 320.423
34.88000 323.965
34.92000 318.306
34.96000 312.199
35.00000 312.343
35.04000 324.088
35.08000 309.361
35.12000 304.254
35.16000 314.861
35.20000 298.845
35.24000 301.593
35.28000 305.060
35.32000 312.050
35.36000 296.304
35.40000 302.650
35.44000 294.425
35.48000 303.284
35.52000 314.253
35.56000 308.495
35.60000 309.772
35.64000 318.290
35.68000 309.957
35.72000 309.914
35.76000 303.049
35.80000 291.425
35.84000 286.680
35.88000 294.726
35.92000 297.631
35.96000 284.207
36.00000 300.522
36.04000 288.250
36.08000 295.730
36.12000 297.031
36.16000 280.433
36.20000 291.607
36.24000 279.665
36.28000 293.660
36.32000 288.724
36.36000 290.834
36.40000 290.026
36.44000 294.135
36.48000 284.529
36.52000 281.231
36.56000 283.848
36.60000 284.731
36.64000 297.347
36.68000 303.480
36.72000 294.794
36.76000 285.241
36.80000 301.298
36.84000 284.392
36.88000 291.543
36.92000 280.718
36.96000 301.353
37.00000 295.417
37.04000 298.472
37.08000 295.926
37.12000 297.539
37.16000 291.332
37.20000 293.989
37.24000 283.576
37.28000 296.202
37.32000 294.193
37.36000 285.531
37.40000 308.185
37.44000 282.104
37.48000 288.161
37.52000 295.407
37.56000 292.930
37.60000 281.191
37.64000 292.211
37.68000 284.200
37.72000 287.168
37.76000 281.304
37.80000 275.999
37.84000 282.805
37.88000 277.717
37.92000 300.596
37.96000 284.079
38.00000 276.841
38.04000 288.205
38.08000 289.114
38.12000 284.747
38.16000 305.245
38.20000 312.003
38.24000 297.073
38.28000 295.487
38.32000 310.880
38.36000 312.754
38.40000 343.402
38.44000 390.999
38.48000 432.472
38.52000 485.245
38.56000 539.240
38.60000 639.110
38.64000 703.083
38.68000 790.976
38.72000 822.309
38.76000 852.357
38.80000 779.720
38.84000 717.318
38.88000 640.103
38.92000 521.971
38.96000 459.814
39.00000 399.543
39.04000 365.333
39.08000 330.055
39.12000 301.421
39.16000 290.765
39.20000 290.154
39.24000 272.456
39.28000 271.739
39.32000 269.971
39.36000 274.158
39.40000 262.816
39.44000 280.155
39.48000 275.940
39.52000 272.417
39.56000 272.517
39.60000 267.311
39.64000 271.161
39.68000 273.127
39.72000 263.908
39.76000 256.260
39.80000 260.236
39.84000 258.485
39.88000 264.277
39.92000 265.863
39.96000 260.511
40.00000 259.264
40.04000 270.052
40.08000 272.603
40.12000 257.298
40.16000 259.003
40.20000 258.446
40.24000 243.619
40.28000 246.860
40.32000 260.045
40.36000 253.735
40.40000 254.691
40.44000 258.721
40.48000 253.189
40.52000 249.274
40.56000 250.848
40.60000 233.216
40.64000 254.344
40.68000 247.818
40.72000 248.657
40.76000 247.691
40.80000 248.329
40.84000 250.047
40.88000 252.175
40.92000 244.104
40.96000 239.243
41.00000 246.239
41.04000 252.699
41.08000 250.920
41.12000 232.390
41.16000 244.621
41.20000 240.100
41.24000 239.508
41.28000 237.968
41.32000 237.096
41.36000 250.591
41.40000 237.047
41.44000 234.126
41.48000 236.781
41.52000 238.319
41.56000 234.518
41.60000 231.949
41.64000 232.616
41.68000 244.415
41.72000 247.352
41.76000 232.877
41.80000 225.139
41.84000 234.367
41.88000 228.311
41.92000 225.014
41.96000 220.984
42.00000 232.977
42.04000 229.888
42.08000 238.528
42.12000 230.413
42.16000 232.912
42.20000 226.261
42.24000 226.796
42.28000 210.321
42.32000 227.705
42.36000 223.470
42.40000 233.002
42.44000 244.764
42.48000 216.407
42.52000 234.227
42.56000 216.830
42.60000 233.629
42.64000 225.863
42.68000 228.403
42.72000 225.505
42.76000 225.462
42.80000 223.298
42.84000 223.852
42.88000 227.673
42.92000 233.285
42.96000 228.668
43.00000 218.083
43.04000 216.284
43.08000 222.471
43.12000 219.378
43.16000 223.412
43.20000 217.402
43.24000 219.719
43.28000 213.826
43.32000 208.517
43.36000 214.095
43.40000 238.946
43.44000 214.260
43.48000 215.935
43.52000 223.852
43.56000 222.517
43.60000 236.220
43.64000 219.664
43.68000 222.775
43.72000 222.645
43.76000 219.888
43.80000 233.429
43.84000 232.327
43.88000 225.663
43.92000 232.009
43.96000 218.046
44.00000 219.760
44.04000 215.076
44.08000 214.750
44.12000 209.653
44.16000 222.117
44.20000 210.213
44.24000 213.140
44.28000 220.429
44.32000 212.124
44.36000 213.079
44.40000 211.390
44.44000 221.584
44.48000 224.902
44.52000 224.844
44.56000 229.447
44.60000 216.359
44.64000 235.325
44.68000 229.390
44.72000 233.210
44.76000 231.905
44.80000 230.334
44.84000 238.310
44.88000 256.318
44.92000 243.696
44.96000 253.799
45.00000 259.186
45.04000 254.134
45.08000 255.256
45.12000 275.721
45.16000 272.190
45.20000 263.623
45.24000 259.471
45.28000 271.130
45.32000 256.343
45.36000 257.264
45.40000 273.970
45.44000 250.009
45.48000 249.870
45.52000 241.564
45.56000 261.598
45.60000 240.927
45.64000 249.059
45.68000 242.451
45.72000 241.651
45.76000 233.891
45.80000 229.430
45.84000 242.182
45.88000 237.466
45.92000 239.285
45.96000 230.048
46.00000 220.331
46.04000 220.274
46.08000 209.155
46.12000 220.432
46.16000 201.596
46.20000 209.376
46.24000 204.410
46.28000 197.817
46.32000 220.936
46.36000 198.191
46.40000 203.748
46.44000 200.930
46.48000 198.748
46.52000 197.798
46.56000 190.412
46.60000 192.638
46.64000 200.191
46.68000 194.437
46.72000 199.012
46.76000 191.850
46.80000 199.796
46.84000 192.456
46.88000 196.307
46.92000 173.799
46.96000 188.229
47.00000 188.312
47.04000 187.572
47.08000 193.196
47.12000 171.889
47.16000 192.873
47.20000 192.279
47.24000 196.682
47.28000 187.517
47.32000 192.496
47.36000 196.599
47.40000 191.715
47.44000 192.832
47.48000 186.942
47.52000 185.056
47.56000 184.229
47.60000 176.709
47.64000 184.690
47.68000 188.860
47.72000 188.454
47.76000 179.560
47.80000 184.745
47.84000 176.298
47.88000 177.443
47.92000 186.153
47.96000 192.330
48.00000 178.036
48.04000 182.745
48.08000 183.404
48.12000 183.922
48.16000 181.933
48.20000 183.376
48.24000 183.087
48.28000 176.516
48.32000 180.967
48.36000 182.187
48.40000 176.552
48.44000 184.291
48.48000 183.298
48.52000 164.902
48.56000 173.381
48.60000 181.500
48.64000 179.995
48.68000 185.594
48.72000 182.341
48.76000 177.551
48.80000 186.025
48.84000 181.689
48.88000 185.979
48.92000 169.532
48.96000 188.387
49.00000 178.239
49.04000 181.693
49.08000 170.643
49.12000 182.877
49.16000 173.377
49.20000 171.704
49.24000 171.881
49.28000 176.889
49.32000 167.324
49.36000 178.463
49.40000 180.247
49.44000 171.168
49.48000 171.723
49.52000 166.725
49.56000 173.132
49.60000 173.265
49.64000 172.759
49.68000 181.318
49.72000 174.337
49.76000 169.001
49.80000 171.540
49.84000 170.419
49.88000 176.400
49.92000 181.854
49.96000 167.075
50.00000 176.506
50.04000 159.607
50.08000 177.510
50.12000 166.077
50.16000 170.636
50.20000 166.464
50.24000 167.965
50.28000 177.201
50.32000 176.089
50.36000 179.864
50.40000 171.003
50.44000 173.954
50.48000 179.948
50.52000 182.063
50.56000 187.693
50.60000 194.363
50.64000 203.615
50.68000 189.801
50.72000 187.567
50.76000 185.569
50.80000 199.838
50.84000 194.792
50.88000 195.176
50.92000 190.371
50.96000 176.473
51.00000 183.787
51.04000 189.603
51.08000 187.314
51.12000 182.005
51.16000 182.366
51.20000 186.662
51.24000 160.829
51.28000 159.213
51.32000 156.445
51.36000 165.948
51.40000 165.629
51.44000 151.718
51.48000 163.380
51.52000 159.743
51.56000 159.927
51.60000 163.319
51.64000 154.363
51.68000 145.388
51.72000 165.066
51.76000 163.142
51.80000 160.761
51.84000 164.194
51.88000 153.656
51.92000 146.238
51.96000 154.652
52.00000 153.032
52.04000 158.949
52.08000 163.750
52.12000 148.507
52.16000 153.816
52.20000 171.751
52.24000 159.056
52.28000 165.232
52.32000 154.043
52.36000 157.542
52.40000 162.414
52.44000 177.817
52.48000 161.340
52.52000 149.492
52.56000 156.754
52.60000 159.007
52.64000 159.428
52.68000 160.034
52.72000 150.522
52.76000 146.760
52.80000 151.793
52.84000 168.847
52.88000 158.255
52.92000 148.527
52.96000 150.929
53.00000 162.079
53.04000 162.955
53.08000 160.487
53.12000 147.952
53.16000 148.523
53.20000 152.491
53.24000 161.612
53.28000 154.215
53.32000 148.193
53.36000 155.175
53.40000 149.267
53.44000 162.244
53.48000 167.466
53.52000 161.853
53.56000 149.706
53.60000 155.364
53.64000 155.098
53.68000 158.913
53.72000 163.309
53.76000 151.266
53.80000 145.383
53.84000 165.606
53.88000 159.820
53.92000 149.096
53.96000 153.857
54.00000 155.720
54.04000 151.794
54.08000 147.100
54.12000 149.140
54.16000 150.220
54.20000 140.417
54.24000 141.979
54.28000 144.873
54.32000 155.685
54.36000 157.114
54.40000 151.806
54.44000 147.956
54.48000 148.626
54.52000 146.275
54.56000 147.937
54.60000 159.301
54.64000 155.526
54.68000 152.134
54.72000 155.574
54.76000 155.436
54.80000 150.002
54.84000 151.070
54.88000 151.186
54.92000 150.882
54.96000 144.192
55.00000 147.605
55.04000 162.499
55.08000 153.863
55.12000 145.633
55.16000 147.266
55.20000 158.496
55.24000 162.650
55.28000 150.209
55.32000 163.358
55.36000 171.782
55.40000 171.855
55.44000 176.327
55.48000 191.722
55.52000 186.375
55.56000 207.784
55.60000 217.684
55.64000 235.638
55.68000 266.973
55.72000 300.379
55.76000 348.924
55.80000 384.695
55.84000 413.057
55.88000 422.134
55.92000 459.877
55.96000 465.817
56.00000 466.273
56.04000 429.412
56.08000 438.089
56.12000 417.083
56.16000 366.381
56.20000 339.449
56.24000 293.841
56.28000 293.177
56.32000 252.797
56.36000 221.537
56.40000 209.949
56.44000 190.715
56.48000 182.688
56.52000 184.886
56.56000 161.396
56.60000 154.472
56.64000 157.533
56.68000 162.735
56.72000 159.693
56.76000 150.771
56.80000 145.229
56.84000 143.439
56.88000 152.543
56.92000 149.387
56.96000 153.032
57.00000 149.150
57.04000 141.820
57.08000 144.864
57.12000 147.303
57.16000 139.916
57.20000 143.776
57.24000 139.930
57.28000 138.417
57.32000 149.419
57.36000 140.972
57.40000 140.135
57.44000 137.811
57.48000 132.601
57.52000 146.679
57.56000 141.983
57.60000 142.808
57.64000 144.294
57.68000 137.137
57.72000 135.369
57.76000 142.967
57.80000 137.261
57.84000 139.022
57.88000 125.660
57.92000 119.772
57.96000 136.687
58.00000 148.798
58.04000 143.735
58.08000 138.103
58.12000 147.493
58.16000 137.872
58.20000 140.342
58.24000 153.373
58.28000 140.190
58.32000 132.564
58.36000 136.098
58.40000 130.252
58.44000 125.613
58.48000 135.746
58.52000 139.393
58.56000 139.239
58.60000 137.142
58.64000 130.984
58.68000 135.545
58.72000 135.689
58.76000 141.653
58.80000 132.507
58.84000 141.519
58.88000 119.485
58.92000 127.247
58.96000 125.624
59.00000 124.366
59.04000 134.669
59.08000 138.146
59.12000 133.565
59.16000 132.577
59.20000 138.683
59.24000 134.909
59.28000 139.421
59.32000 137.674
59.36000 129.677
59.40000 137.427
59.44000 133.697
59.48000 131.195
59.52000 130.213
59.56000 123.784
59.60000 130.879
59.64000 135.200
59.68000 135.484
59.72000 136.634
59.76000 141.908
59.80000 142.421
59.84000 119.735
59.88000 132.406
59.92000 136.204
59.96000 140.234
60.00000 139.102
60.04000 121.929
60.08000 133.399
60.12000 128.389
60.16000 129.238
60.20000 127.893
60.24000 134.931
60.28000 142.835
60.32000 120.979
60.36000 136.970
60.40000 126.730
60.44000 128.870
60.48000 127.036
60.52000 126.187
60.56000 127.345
60.60000 129.236
60.64000 127.088
60.68000 130.767
60.72000 132.151
60.76000 132.808
60.80000 121.886
60.84000 143.716
60.88000 136.488
60.92000 137.184
60.96000 141.148
61.00000 128.905
61.04000 140.019
61.08000 139.066
61.12000 141.214
61.16000 129.869
61.20000 142.707
61.24000 136.234
61.28000 143.670
61.32000 138.458
61.36000 138.940
61.40000 133.690
61.44000 142.762
61.48000 143.335
61.52000 169.998
61.56000 195.889
61.60000 228.949
61.64000 242.391
61.68000 269.321
61.72000 260.885
61.76000 259.057
61.80000 214.697
61.84000 175.822
61.88000 156.965
61.92000 145.226
61.96000 141.119
62.00000 143.406
62.04000 141.638
62.08000 147.039
62.12000 135.187
62.16000 130.490
62.20000 145.232
62.24000 139.008
62.28000 133.855
62.32000 133.516
62.36000 139.649
62.40000 127.485
62.44000 143.203
62.48000 145.822
62.52000 137.850
62.56000 146.516
62.60000 135.246
62.64000 136.647
62.68000 144.684
62.72000 143.689
62.76000 144.405
62.80000 140.074
62.84000 138.244
62.88000 145.212
62.92000 144.448
62.96000 139.890
63.00000 141.746
63.04000 146.432
63.08000 148.287
63.12000 137.028
63.16000 143.855
63.20000 143.762
63.24000 139.681
63.28000 143.122
63.32000 156.921
63.36000 146.517
63.40000 148.501
63.44000 148.411
63.48000 143.877
63.52000 152.635
63.56000 140.609
63.60000 151.035
63.64000 153.082
63.68000 149.361
63.72000 149.165
63.76000 151.136
63.80000 146.731
63.84000 145.493
63.88000 150.553
63.92000 157.097
63.96000 155.237
64.00000 154.001
64.04000 149.433
64.08000 153.897
64.12000 160.253
64.16000 153.724
64.20000 148.288
64.24000 157.716
64.28000 153.651
64.32000 174.467
64.36000 157.903
64.40000 169.089
64.44000 162.361
64.48000 167.875
64.52000 167.352
64.56000 167.843
64.60000 169.079
64.64000 156.815
64.68000 172.439
64.72000 165.021
64.76000 166.171
64.80000 169.784
64.84000 176.651
64.88000 171.147
64.92000 189.249
64.96000 196.214
65.00000 184.858
65.04000 198.881
65.08000 185.865
65.12000 196.897
65.16000 206.645
65.20000 214.577
65.24000 218.390
65.28000 219.020
65.32000 234.248
65.36000 239.811
65.40000 247.924
65.44000 267.644
65.48000 276.670
65.52000 277.758
65.56000 284.427
65.60000 295.524
65.64000 337.674
65.68000 384.389
65.72000 518.421
65.76000 737.250
65.80000 928.091
65.84000 1023.940
65.88000 1050.292
65.92000 1048.293
65.96000 903.585
66.00000 661.032
66.04000 452.470
66.08000 369.246
66.12000 316.988
66.16000 302.984
66.20000 297.757
66.24000 324.321
66.28000 330.238
66.32000 371.775
66.36000 415.473
66.40000 427.531
66.44000 440.790
66.48000 437.625
66.52000 404.114
66.56000 378.778
66.60000 347.154
66.64000 327.289
66.68000 325.396
66.72000 312.343
66.76000 325.739
66.80000 329.708
66.84000 330.662
66.88000 314.864
66.92000 337.211
66.96000 347.090
67.00000 348.901
67.04000 357.713
67.08000 370.218
67.12000 343.839
67.16000 357.238
67.20000 380.098
67.24000 384.765
67.28000 389.291
67.32000 399.387
67.36000 388.407
67.40000 404.576
67.44000 418.499
67.48000 414.292
67.52000 434.578
67.56000 426.097
67.60000 429.406
67.64000 460.651
67.68000 463.729
67.72000 458.096
67.76000 471.026
67.80000 464.785
67.84000 493.219
67.88000 502.399
67.92000 505.663
67.96000 528.837
68.00000 522.896
68.04000 557.750
68.08000 549.256
68.12000 545.766
68.16000 579.426
68.20000 578.200
68.24000 618.245
68.28000 621.599
68.32000 637.710
68.36000 656.107
68.40000 695.067
68.44000 710.513
68.48000 734.266
68.52000 804.176
68.56000 850.548
68.60000 947.958
68.64000 1090.657
68.68000 1299.581
68.72000 1507.906
68.76000 1683.132
68.80000 1896.515
68.84000 2210.601
68.88000 2740.531
68.92000 4507.808
68.96000 11161.732
69.00000 26012.646
69.04000 42828.336
69.08000 51668.387
69.12000 53757.977
69.16000 55836.770
69.20000 56607.074
69.24000 47776.465
69.28000 36085.059
69.32000 29433.451
69.36000 26463.299
69.40000 22391.354
69.44000 13953.608
69.48000 6606.134
69.52000 2991.640
69.56000 1861.085
69.60000 1489.793
69.64000 1273.176
69.68000 1107.734
69.72000 986.720
69.76000 909.968
69.80000 849.678
69.84000 791.311
69.88000 762.331
69.92000 693.190
69.96000 682.162
70.00000 656.067