File: XRD/XRD/25-09-2025/XY Data/BTO_Mapping_Theta2Theta_25-09-2025_001_35_-19-563_-4-158.xy
20.00000 542.617
20.04000 555.866
20.08000 551.504
20.12000 566.841
20.16000 571.289
20.20000 575.425
20.24000 563.162
20.28000 537.802
20.32000 564.972
20.36000 560.121
20.40000 558.149
20.44000 541.610
20.48000 554.893
20.52000 542.703
20.56000 541.170
20.60000 541.266
20.64000 543.076
20.68000 537.407
20.72000 533.139
20.76000 543.495
20.80000 532.939
20.84000 557.351
20.88000 548.982
20.92000 539.926
20.96000 533.398
21.00000 538.570
21.04000 560.667
21.08000 535.310
21.12000 526.512
21.16000 538.805
21.20000 527.446
21.24000 550.251
21.28000 553.884
21.32000 568.639
21.36000 560.607
21.40000 544.072
21.44000 542.942
21.48000 530.686
21.52000 547.973
21.56000 553.866
21.60000 557.591
21.64000 555.036
21.68000 586.990
21.72000 612.939
21.76000 636.618
21.80000 618.115
21.84000 662.304
21.88000 708.845
21.92000 744.456
21.96000 771.429
22.00000 802.783
22.04000 802.583
22.08000 793.460
22.12000 770.871
22.16000 758.404
22.20000 717.362
22.24000 668.676
22.28000 643.885
22.32000 629.223
22.36000 562.995
22.40000 599.919
22.44000 572.430
22.48000 576.493
22.52000 551.465
22.56000 537.746
22.60000 521.740
22.64000 533.853
22.68000 528.079
22.72000 531.641
22.76000 504.740
22.80000 504.928
22.84000 507.902
22.88000 529.861
22.92000 511.272
22.96000 515.739
23.00000 536.177
23.04000 508.403
23.08000 500.227
23.12000 477.268
23.16000 492.635
23.20000 517.774
23.24000 508.740
23.28000 514.971
23.32000 499.071
23.36000 503.961
23.40000 491.930
23.44000 486.456
23.48000 489.313
23.52000 502.219
23.56000 477.028
23.60000 499.178
23.64000 493.318
23.68000 482.628
23.72000 493.393
23.76000 488.932
23.80000 489.375
23.84000 471.831
23.88000 469.655
23.92000 499.088
23.96000 477.819
24.00000 492.669
24.04000 479.617
24.08000 485.376
24.12000 478.073
24.16000 486.050
24.20000 492.766
24.24000 489.729
24.28000 513.752
24.32000 484.340
24.36000 487.920
24.40000 493.648
24.44000 496.684
24.48000 453.540
24.52000 478.822
24.56000 468.556
24.60000 492.410
24.64000 468.899
24.68000 475.865
24.72000 496.980
24.76000 488.914
24.80000 473.700
24.84000 485.819
24.88000 476.532
24.92000 472.490
24.96000 476.518
25.00000 468.635
25.04000 465.918
25.08000 468.055
25.12000 464.107
25.16000 490.492
25.20000 463.998
25.24000 470.390
25.28000 465.413
25.32000 465.783
25.36000 472.734
25.40000 458.616
25.44000 458.709
25.48000 459.984
25.52000 445.414
25.56000 449.654
25.60000 450.193
25.64000 471.117
25.68000 445.250
25.72000 464.883
25.76000 456.106
25.80000 472.774
25.84000 481.243
25.88000 450.633
25.92000 453.669
25.96000 471.564
26.00000 433.809
26.04000 452.548
26.08000 450.066
26.12000 464.273
26.16000 448.143
26.20000 453.455
26.24000 450.342
26.28000 457.098
26.32000 446.744
26.36000 442.257
26.40000 447.397
26.44000 458.179
26.48000 431.657
26.52000 426.177
26.56000 453.738
26.60000 462.295
26.64000 436.768
26.68000 430.827
26.72000 423.536
26.76000 430.582
26.80000 441.997
26.84000 445.591
26.88000 452.111
26.92000 438.642
26.96000 446.282
27.00000 446.114
27.04000 453.861
27.08000 431.591
27.12000 446.878
27.16000 468.482
27.20000 455.087
27.24000 429.299
27.28000 443.215
27.32000 435.683
27.36000 429.635
27.40000 444.022
27.44000 436.553
27.48000 432.309
27.52000 426.289
27.56000 430.381
27.60000 435.712
27.64000 426.088
27.68000 436.934
27.72000 429.273
27.76000 418.189
27.80000 433.302
27.84000 424.156
27.88000 423.051
27.92000 421.592
27.96000 415.383
28.00000 416.464
28.04000 426.983
28.08000 409.504
28.12000 419.081
28.16000 427.379
28.20000 421.343
28.24000 415.452
28.28000 409.539
28.32000 424.537
28.36000 423.459
28.40000 412.995
28.44000 417.977
28.48000 406.315
28.52000 413.539
28.56000 406.895
28.60000 417.361
28.64000 424.569
28.68000 423.381
28.72000 406.717
28.76000 395.865
28.80000 414.451
28.84000 400.114
28.88000 405.129
28.92000 426.853
28.96000 408.967
29.00000 400.736
29.04000 412.003
29.08000 410.266
29.12000 403.304
29.16000 421.487
29.20000 407.714
29.24000 413.287
29.28000 406.758
29.32000 417.163
29.36000 401.674
29.40000 409.466
29.44000 416.929
29.48000 398.452
29.52000 400.855
29.56000 414.315
29.60000 415.551
29.64000 410.366
29.68000 420.167
29.72000 403.414
29.76000 391.710
29.80000 413.588
29.84000 421.019
29.88000 418.511
29.92000 427.097
29.96000 420.772
30.00000 425.354
30.04000 447.831
30.08000 434.322
30.12000 439.002
30.16000 421.568
30.20000 420.574
30.24000 431.817
30.28000 404.286
30.32000 419.436
30.36000 441.552
30.40000 414.695
30.44000 406.869
30.48000 414.936
30.52000 419.149
30.56000 408.440
30.60000 414.885
30.64000 408.928
30.68000 426.409
30.72000 426.461
30.76000 430.607
30.80000 441.044
30.84000 454.064
30.88000 482.345
30.92000 497.835
30.96000 534.843
31.00000 606.675
31.04000 707.449
31.08000 840.218
31.12000 1010.379
31.16000 1247.154
31.20000 1496.677
31.24000 1811.036
31.28000 2053.617
31.32000 2251.225
31.36000 2284.175
31.40000 2273.391
31.44000 2130.758
31.48000 1923.794
31.52000 1645.988
31.56000 1394.838
31.60000 1152.688
31.64000 999.028
31.68000 861.569
31.72000 720.680
31.76000 655.752
31.80000 596.088
31.84000 503.735
31.88000 482.858
31.92000 462.696
31.96000 438.184
32.00000 408.705
32.04000 411.053
32.08000 406.772
32.12000 399.495
32.16000 407.015
32.20000 386.993
32.24000 395.455
32.28000 390.025
32.32000 371.219
32.36000 386.987
32.40000 386.655
32.44000 373.211
32.48000 368.973
32.52000 383.172
32.56000 373.565
32.60000 367.380
32.64000 361.065
32.68000 362.190
32.72000 370.884
32.76000 365.609
32.80000 372.314
32.84000 403.642
32.88000 386.733
32.92000 389.073
32.96000 396.382
33.00000 374.252
33.04000 353.118
33.08000 367.856
33.12000 358.853
33.16000 361.094
33.20000 349.711
33.24000 368.199
33.28000 365.586
33.32000 343.974
33.36000 338.546
33.40000 348.134
33.44000 339.604
33.48000 356.541
33.52000 349.203
33.56000 348.885
33.60000 335.984
33.64000 338.703
33.68000 327.293
33.72000 338.210
33.76000 321.379
33.80000 338.626
33.84000 352.768
33.88000 342.110
33.92000 335.672
33.96000 316.216
34.00000 326.972
34.04000 337.232
34.08000 326.956
34.12000 317.666
34.16000 315.990
34.20000 319.434
34.24000 330.644
34.28000 323.630
34.32000 333.515
34.36000 335.033
34.40000 321.236
34.44000 313.907
34.48000 328.951
34.52000 304.029
34.56000 311.788
34.60000 331.243
34.64000 309.601
34.68000 330.052
34.72000 316.385
34.76000 311.110
34.80000 315.428
34.84000 330.337
34.88000 311.400
34.92000 319.243
34.96000 310.809
35.00000 324.065
35.04000 315.173
35.08000 323.355
35.12000 323.744
35.16000 302.192
35.20000 321.673
35.24000 312.840
35.28000 311.764
35.32000 307.759
35.36000 308.526
35.40000 312.772
35.44000 320.796
35.48000 304.267
35.52000 299.381
35.56000 311.948
35.60000 299.785
35.64000 289.853
35.68000 315.171
35.72000 306.293
35.76000 292.227
35.80000 298.925
35.84000 308.183
35.88000 300.467
35.92000 305.432
35.96000 312.023
36.00000 287.868
36.04000 293.308
36.08000 292.184
36.12000 289.058
36.16000 281.829
36.20000 292.635
36.24000 284.585
36.28000 296.314
36.32000 300.035
36.36000 299.709
36.40000 294.098
36.44000 295.369
36.48000 285.261
36.52000 291.712
36.56000 293.649
36.60000 284.853
36.64000 289.572
36.68000 301.404
36.72000 300.178
36.76000 278.200
36.80000 292.802
36.84000 284.039
36.88000 292.865
36.92000 295.060
36.96000 295.199
37.00000 283.347
37.04000 295.913
37.08000 283.999
37.12000 296.116
37.16000 275.890
37.20000 284.619
37.24000 288.176
37.28000 289.404
37.32000 288.196
37.36000 285.928
37.40000 300.224
37.44000 284.831
37.48000 282.484
37.52000 280.992
37.56000 290.158
37.60000 283.138
37.64000 279.090
37.68000 284.742
37.72000 284.826
37.76000 281.213
37.80000 279.641
37.84000 279.562
37.88000 286.024
37.92000 283.168
37.96000 287.132
38.00000 289.192
38.04000 276.183
38.08000 279.605
38.12000 282.416
38.16000 281.372
38.20000 296.233
38.24000 301.823
38.28000 295.407
38.32000 316.244
38.36000 341.062
38.40000 355.642
38.44000 413.702
38.48000 428.715
38.52000 457.754
38.56000 511.243
38.60000 523.244
38.64000 555.543
38.68000 534.226
38.72000 555.950
38.76000 538.191
38.80000 499.473
38.84000 468.564
38.88000 422.409
38.92000 395.840
38.96000 354.295
39.00000 323.049
39.04000 308.060
39.08000 296.780
39.12000 286.661
39.16000 293.543
39.20000 278.293
39.24000 273.064
39.28000 266.421
39.32000 268.224
39.36000 259.202
39.40000 265.463
39.44000 266.272
39.48000 263.394
39.52000 261.957
39.56000 262.890
39.60000 253.623
39.64000 266.738
39.68000 261.424
39.72000 284.112
39.76000 267.676
39.80000 244.215
39.84000 259.446
39.88000 246.951
39.92000 264.886
39.96000 263.330
40.00000 254.387
40.04000 264.320
40.08000 247.217
40.12000 267.599
40.16000 269.949
40.20000 250.370
40.24000 242.466
40.28000 253.870
40.32000 260.124
40.36000 260.739
40.40000 250.466
40.44000 247.624
40.48000 244.951
40.52000 269.458
40.56000 251.839
40.60000 254.531
40.64000 241.553
40.68000 251.130
40.72000 254.210
40.76000 252.229
40.80000 242.173
40.84000 236.860
40.88000 254.548
40.92000 245.120
40.96000 244.962
41.00000 234.104
41.04000 247.022
41.08000 246.866
41.12000 244.592
41.16000 246.061
41.20000 248.770
41.24000 244.086
41.28000 240.343
41.32000 242.482
41.36000 234.369
41.40000 242.096
41.44000 228.792
41.48000 235.659
41.52000 247.467
41.56000 251.836
41.60000 240.917
41.64000 254.062
41.68000 236.643
41.72000 232.837
41.76000 246.709
41.80000 257.254
41.84000 252.192
41.88000 245.218
41.92000 230.330
41.96000 236.645
42.00000 225.644
42.04000 224.208
42.08000 224.076
42.12000 229.915
42.16000 238.432
42.20000 229.340
42.24000 229.200
42.28000 225.498
42.32000 225.042
42.36000 241.026
42.40000 219.915
42.44000 230.030
42.48000 247.167
42.52000 242.313
42.56000 233.121
42.60000 220.637
42.64000 216.471
42.68000 219.897
42.72000 224.904
42.76000 225.663
42.80000 234.455
42.84000 249.769
42.88000 219.437
42.92000 230.397
42.96000 237.371
43.00000 221.959
43.04000 239.295
43.08000 229.046
43.12000 212.123
43.16000 229.421
43.20000 218.103
43.24000 216.128
43.28000 227.076
43.32000 218.184
43.36000 225.650
43.40000 213.382
43.44000 206.674
43.48000 221.106
43.52000 215.826
43.56000 218.658
43.60000 224.305
43.64000 218.020
43.68000 216.819
43.72000 218.522
43.76000 231.191
43.80000 221.472
43.84000 221.304
43.88000 222.692
43.92000 214.367
43.96000 212.291
44.00000 213.824
44.04000 220.711
44.08000 222.319
44.12000 225.508
44.16000 231.901
44.20000 233.096
44.24000 214.747
44.28000 223.820
44.32000 215.518
44.36000 224.987
44.40000 242.515
44.44000 229.408
44.48000 237.192
44.52000 248.035
44.56000 253.284
44.60000 244.396
44.64000 261.429
44.68000 290.460
44.72000 305.337
44.76000 326.478
44.80000 340.642
44.84000 366.180
44.88000 382.250
44.92000 398.846
44.96000 418.196
45.00000 400.169
45.04000 397.571
45.08000 385.201
45.12000 353.736
45.16000 367.235
45.20000 361.724
45.24000 346.031
45.28000 308.624
45.32000 307.483
45.36000 316.496
45.40000 305.278
45.44000 305.460
45.48000 278.960
45.52000 264.811
45.56000 273.056
45.60000 252.300
45.64000 256.289
45.68000 256.129
45.72000 245.791
45.76000 244.819
45.80000 235.945
45.84000 223.606
45.88000 231.410
45.92000 236.505
45.96000 229.097
46.00000 213.660
46.04000 218.860
46.08000 211.651
46.12000 216.626
46.16000 204.259
46.20000 214.644
46.24000 207.522
46.28000 210.249
46.32000 200.494
46.36000 204.134
46.40000 205.095
46.44000 201.342
46.48000 200.077
46.52000 200.543
46.56000 204.488
46.60000 203.701
46.64000 182.351
46.68000 201.237
46.72000 212.042
46.76000 199.916
46.80000 195.708
46.84000 188.855
46.88000 190.949
46.92000 192.836
46.96000 206.236
47.00000 205.195
47.04000 188.070
47.08000 204.176
47.12000 204.990
47.16000 175.791
47.20000 185.277
47.24000 187.457
47.28000 179.614
47.32000 191.573
47.36000 189.393
47.40000 199.293
47.44000 178.744
47.48000 183.341
47.52000 180.881
47.56000 179.883
47.60000 175.554
47.64000 182.997
47.68000 190.909
47.72000 193.288
47.76000 181.509
47.80000 185.152
47.84000 186.676
47.88000 193.448
47.92000 185.244
47.96000 185.916
48.00000 186.328
48.04000 184.605
48.08000 172.907
48.12000 176.796
48.16000 189.797
48.20000 180.348
48.24000 179.497
48.28000 191.774
48.32000 177.476
48.36000 184.514
48.40000 183.700
48.44000 178.511
48.48000 180.576
48.52000 181.133
48.56000 174.536
48.60000 175.043
48.64000 181.217
48.68000 194.798
48.72000 176.734
48.76000 184.742
48.80000 189.913
48.84000 190.560
48.88000 172.473
48.92000 168.709
48.96000 183.562
49.00000 178.503
49.04000 179.176
49.08000 172.229
49.12000 176.117
49.16000 187.647
49.20000 172.473
49.24000 180.562
49.28000 169.043
49.32000 182.709
49.36000 167.372
49.40000 171.233
49.44000 177.791
49.48000 165.641
49.52000 174.884
49.56000 175.159
49.60000 186.014
49.64000 170.657
49.68000 185.205
49.72000 169.580
49.76000 171.815
49.80000 179.544
49.84000 175.654
49.88000 175.693
49.92000 180.764
49.96000 169.519
50.00000 174.823
50.04000 172.444
50.08000 177.487
50.12000 178.601
50.16000 164.221
50.20000 184.185
50.24000 196.141
50.28000 180.874
50.32000 191.083
50.36000 205.804
50.40000 198.568
50.44000 210.520
50.48000 220.259
50.52000 220.989
50.56000 221.079
50.60000 224.270
50.64000 222.474
50.68000 219.699
50.72000 222.417
50.76000 215.119
50.80000 219.852
50.84000 217.396
50.88000 209.317
50.92000 196.020
50.96000 187.178
51.00000 187.768
51.04000 192.795
51.08000 190.205
51.12000 175.827
51.16000 174.639
51.20000 175.362
51.24000 182.345
51.28000 186.439
51.32000 181.223
51.36000 185.219
51.40000 193.948
51.44000 169.919
51.48000 165.711
51.52000 158.198
51.56000 166.455
51.60000 158.856
51.64000 160.106
51.68000 161.431
51.72000 150.783
51.76000 160.199
51.80000 154.180
51.84000 161.280
51.88000 164.721
51.92000 165.295
51.96000 163.312
52.00000 159.959
52.04000 164.818
52.08000 154.516
52.12000 159.513
52.16000 168.033
52.20000 159.811
52.24000 163.547
52.28000 157.795
52.32000 157.598
52.36000 169.123
52.40000 166.486
52.44000 162.203
52.48000 160.921
52.52000 160.569
52.56000 156.306
52.60000 161.853
52.64000 161.225
52.68000 160.223
52.72000 159.065
52.76000 157.366
52.80000 150.445
52.84000 160.324
52.88000 146.483
52.92000 154.475
52.96000 156.762
53.00000 163.833
53.04000 161.104
53.08000 164.560
53.12000 160.939
53.16000 153.284
53.20000 152.857
53.24000 159.335
53.28000 161.473
53.32000 165.836
53.36000 150.589
53.40000 157.861
53.44000 159.387
53.48000 151.878
53.52000 146.386
53.56000 160.084
53.60000 156.740
53.64000 163.985
53.68000 152.908
53.72000 159.433
53.76000 153.391
53.80000 160.563
53.84000 162.770
53.88000 153.068
53.92000 158.134
53.96000 150.146
54.00000 152.060
54.04000 151.272
54.08000 146.126
54.12000 164.995
54.16000 150.193
54.20000 138.851
54.24000 142.440
54.28000 154.052
54.32000 145.093
54.36000 146.138
54.40000 152.914
54.44000 150.586
54.48000 142.479
54.52000 157.340
54.56000 156.493
54.60000 149.957
54.64000 148.574
54.68000 157.271
54.72000 150.316
54.76000 146.788
54.80000 146.917
54.84000 150.343
54.88000 147.638
54.92000 157.853
54.96000 156.648
55.00000 158.154
55.04000 157.735
55.08000 146.053
55.12000 157.773
55.16000 154.543
55.20000 154.169
55.24000 184.193
55.28000 173.068
55.32000 170.777
55.36000 177.163
55.40000 189.747
55.44000 182.033
55.48000 202.013
55.52000 210.767
55.56000 246.948
55.60000 261.733
55.64000 266.436
55.68000 303.358
55.72000 325.314
55.76000 365.863
55.80000 357.861
55.84000 389.810
55.88000 388.562
55.92000 394.643
55.96000 392.833
56.00000 381.161
56.04000 357.577
56.08000 321.158
56.12000 312.723
56.16000 285.163
56.20000 264.644
56.24000 249.065
56.28000 234.409
56.32000 216.604
56.36000 199.887
56.40000 196.867
56.44000 181.939
56.48000 175.533
56.52000 178.000
56.56000 163.357
56.60000 167.537
56.64000 164.912
56.68000 153.213
56.72000 156.678
56.76000 157.049
56.80000 149.996
56.84000 141.491
56.88000 138.822
56.92000 140.974
56.96000 139.357
57.00000 151.222
57.04000 144.663
57.08000 150.146
57.12000 147.945
57.16000 143.662
57.20000 154.904
57.24000 141.659
57.28000 137.561
57.32000 132.466
57.36000 135.701
57.40000 142.528
57.44000 133.553
57.48000 137.151
57.52000 140.264
57.56000 137.527
57.60000 137.986
57.64000 140.406
57.68000 147.235
57.72000 133.587
57.76000 144.138
57.80000 149.453
57.84000 138.537
57.88000 140.612
57.92000 145.695
57.96000 134.994
58.00000 133.683
58.04000 142.098
58.08000 143.245
58.12000 137.927
58.16000 138.067
58.20000 146.080
58.24000 141.647
58.28000 135.440
58.32000 131.899
58.36000 135.152
58.40000 138.252
58.44000 142.144
58.48000 137.664
58.52000 144.084
58.56000 155.057
58.60000 139.026
58.64000 131.441
58.68000 132.927
58.72000 128.911
58.76000 129.063
58.80000 136.596
58.84000 131.287
58.88000 131.643
58.92000 134.605
58.96000 135.856
59.00000 139.316
59.04000 130.597
59.08000 133.463
59.12000 135.717
59.16000 140.407
59.20000 134.988
59.24000 121.819
59.28000 138.488
59.32000 135.663
59.36000 139.268
59.40000 123.865
59.44000 128.643
59.48000 135.667
59.52000 132.725
59.56000 125.370
59.60000 135.007
59.64000 127.012
59.68000 135.377
59.72000 129.408
59.76000 130.957
59.80000 129.059
59.84000 134.930
59.88000 136.677
59.92000 133.075
59.96000 135.544
60.00000 125.032
60.04000 137.910
60.08000 136.671
60.12000 134.605
60.16000 131.135
60.20000 133.468
60.24000 130.510
60.28000 133.679
60.32000 121.371
60.36000 128.503
60.40000 123.407
60.44000 135.121
60.48000 128.968
60.52000 136.636
60.56000 130.653
60.60000 130.900
60.64000 132.334
60.68000 134.460
60.72000 136.645
60.76000 131.703
60.80000 132.612
60.84000 131.375
60.88000 133.314
60.92000 131.754
60.96000 141.353
61.00000 140.602
61.04000 137.996
61.08000 137.740
61.12000 137.468
61.16000 125.316
61.20000 141.397
61.24000 130.638
61.28000 140.873
61.32000 128.604
61.36000 142.100
61.40000 147.109
61.44000 146.200
61.48000 153.635
61.52000 164.795
61.56000 228.623
61.60000 272.680
61.64000 304.959
61.68000 306.811
61.72000 310.834
61.76000 289.479
61.80000 225.026
61.84000 188.451
61.88000 151.175
61.92000 147.680
61.96000 139.844
62.00000 151.611
62.04000 144.804
62.08000 139.115
62.12000 132.830
62.16000 142.156
62.20000 138.277
62.24000 140.002
62.28000 138.336
62.32000 142.393
62.36000 146.616
62.40000 140.680
62.44000 151.523
62.48000 148.451
62.52000 137.818
62.56000 150.080
62.60000 140.210
62.64000 137.750
62.68000 145.844
62.72000 142.559
62.76000 148.489
62.80000 146.773
62.84000 141.585
62.88000 151.488
62.92000 148.982
62.96000 129.806
63.00000 137.420
63.04000 145.761
63.08000 161.082
63.12000 141.734
63.16000 145.957
63.20000 138.024
63.24000 148.289
63.28000 140.844
63.32000 141.468
63.36000 139.516
63.40000 145.497
63.44000 155.724
63.48000 150.700
63.52000 164.398
63.56000 154.077
63.60000 154.693
63.64000 160.778
63.68000 153.407
63.72000 150.449
63.76000 154.891
63.80000 153.188
63.84000 159.540
63.88000 155.863
63.92000 163.419
63.96000 153.695
64.00000 150.772
64.04000 163.771
64.08000 162.028
64.12000 179.955
64.16000 165.359
64.20000 159.496
64.24000 166.734
64.28000 157.092
64.32000 166.177
64.36000 156.337
64.40000 165.300
64.44000 169.704
64.48000 164.322
64.52000 170.824
64.56000 179.810
64.60000 177.829
64.64000 172.782
64.68000 173.345
64.72000 180.375
64.76000 184.770
64.80000 183.649
64.84000 194.549
64.88000 174.448
64.92000 190.990
64.96000 205.369
65.00000 206.596
65.04000 212.369
65.08000 228.309
65.12000 238.255
65.16000 254.584
65.20000 239.635
65.24000 259.401
65.28000 268.038
65.32000 280.754
65.36000 288.744
65.40000 309.982
65.44000 315.995
65.48000 314.194
65.52000 358.464
65.56000 353.434
65.60000 365.391
65.64000 416.846
65.68000 514.800
65.72000 707.595
65.76000 989.549
65.80000 1235.942
65.84000 1368.226
65.88000 1351.456
65.92000 1305.233
65.96000 1075.989
66.00000 758.555
66.04000 528.080
66.08000 408.097
66.12000 367.063
66.16000 355.028
66.20000 336.013
66.24000 371.443
66.28000 412.373
66.32000 425.788
66.36000 479.589
66.40000 526.734
66.44000 515.559
66.48000 520.631
66.52000 474.319
66.56000 416.116
66.60000 374.185
66.64000 351.712
66.68000 355.776
66.72000 341.981
66.76000 345.313
66.80000 341.440
66.84000 368.549
66.88000 365.159
66.92000 379.052
66.96000 362.616
67.00000 367.992
67.04000 381.513
67.08000 383.874
67.12000 410.668
67.16000 390.874
67.20000 405.163
67.24000 408.790
67.28000 415.852
67.32000 427.121
67.36000 447.607
67.40000 456.663
67.44000 448.885
67.48000 454.406
67.52000 477.846
67.56000 461.013
67.60000 491.075
67.64000 499.466
67.68000 510.295
67.72000 509.253
67.76000 529.739
67.80000 513.596
67.84000 538.396
67.88000 546.631
67.92000 561.030
67.96000 571.522
68.00000 585.341
68.04000 602.710
68.08000 609.973
68.12000 625.980
68.16000 658.133
68.20000 663.805
68.24000 658.568
68.28000 676.586
68.32000 720.787
68.36000 720.137
68.40000 793.238
68.44000 809.410
68.48000 840.580
68.52000 911.137
68.56000 991.929
68.60000 1107.982
68.64000 1310.468
68.68000 1576.394
68.72000 1852.696
68.76000 2141.138
68.80000 2434.139
68.84000 2977.938
68.88000 3964.436
68.92000 6994.538
68.96000 17413.096
69.00000 37958.555
69.04000 58464.273
69.08000 68644.219
69.12000 71017.305
69.16000 73809.758
69.20000 72602.508
69.24000 59962.004
69.28000 46324.273
69.32000 37967.680
69.36000 34020.527
69.40000 27484.863
69.44000 16469.262
69.48000 7859.592
69.52000 3496.598
69.56000 2216.407
69.60000 1684.727
69.64000 1375.044
69.68000 1253.710
69.72000 1101.290
69.76000 1014.341
69.80000 946.146
69.84000 870.950
69.88000 811.748
69.92000 771.992
69.96000 728.478
70.00000 718.823