File: XRD/XRD/25-09-2025/XY Data/BTO_Mapping_Theta2Theta_25-09-2025_001_32_-29-344_6-237.xy
20.00000 555.182
20.04000 556.125
20.08000 563.543
20.12000 559.268
20.16000 542.822
20.20000 569.547
20.24000 554.870
20.28000 582.247
20.32000 584.783
20.36000 543.402
20.40000 555.299
20.44000 562.200
20.48000 547.157
20.52000 552.460
20.56000 540.773
20.60000 540.517
20.64000 565.508
20.68000 547.616
20.72000 517.714
20.76000 546.650
20.80000 547.547
20.84000 558.986
20.88000 529.630
20.92000 543.082
20.96000 538.172
21.00000 561.104
21.04000 545.576
21.08000 555.161
21.12000 566.823
21.16000 547.141
21.20000 559.836
21.24000 544.560
21.28000 547.650
21.32000 546.097
21.36000 533.722
21.40000 551.910
21.44000 545.197
21.48000 540.868
21.52000 548.284
21.56000 552.423
21.60000 548.996
21.64000 560.704
21.68000 583.955
21.72000 604.904
21.76000 634.493
21.80000 662.739
21.84000 718.708
21.88000 739.531
21.92000 794.190
21.96000 817.375
22.00000 851.988
22.04000 836.642
22.08000 832.310
22.12000 799.783
22.16000 762.903
22.20000 735.845
22.24000 696.267
22.28000 672.042
22.32000 622.571
22.36000 593.482
22.40000 612.415
22.44000 581.718
22.48000 564.112
22.52000 563.553
22.56000 547.241
22.60000 533.510
22.64000 539.939
22.68000 508.824
22.72000 545.709
22.76000 516.041
22.80000 522.645
22.84000 503.845
22.88000 521.368
22.92000 504.949
22.96000 502.717
23.00000 489.488
23.04000 495.003
23.08000 499.705
23.12000 520.119
23.16000 528.851
23.20000 504.559
23.24000 493.745
23.28000 516.726
23.32000 498.699
23.36000 502.276
23.40000 511.775
23.44000 488.354
23.48000 496.314
23.52000 504.158
23.56000 512.439
23.60000 506.078
23.64000 502.532
23.68000 479.847
23.72000 501.348
23.76000 488.108
23.80000 505.298
23.84000 500.362
23.88000 494.850
23.92000 493.100
23.96000 496.757
24.00000 486.911
24.04000 480.305
24.08000 490.341
24.12000 483.763
24.16000 492.803
24.20000 502.389
24.24000 505.004
24.28000 478.076
24.32000 472.274
24.36000 475.011
24.40000 479.013
24.44000 473.739
24.48000 476.836
24.52000 480.029
24.56000 479.631
24.60000 474.962
24.64000 494.584
24.68000 488.509
24.72000 471.695
24.76000 489.350
24.80000 481.554
24.84000 475.392
24.88000 491.834
24.92000 478.990
24.96000 464.373
25.00000 479.218
25.04000 461.282
25.08000 453.365
25.12000 469.752
25.16000 466.605
25.20000 455.939
25.24000 460.464
25.28000 457.889
25.32000 463.676
25.36000 466.000
25.40000 473.790
25.44000 481.369
25.48000 468.454
25.52000 467.195
25.56000 462.675
25.60000 442.253
25.64000 449.791
25.68000 484.112
25.72000 471.777
25.76000 483.724
25.80000 457.243
25.84000 450.567
25.88000 466.294
25.92000 451.300
25.96000 445.749
26.00000 462.690
26.04000 455.586
26.08000 453.169
26.12000 469.057
26.16000 438.052
26.20000 478.168
26.24000 454.732
26.28000 447.587
26.32000 452.185
26.36000 442.196
26.40000 446.045
26.44000 452.214
26.48000 450.215
26.52000 453.709
26.56000 454.450
26.60000 445.389
26.64000 455.025
26.68000 447.491
26.72000 442.645
26.76000 438.912
26.80000 437.136
26.84000 448.083
26.88000 430.675
26.92000 425.311
26.96000 454.330
27.00000 432.361
27.04000 419.204
27.08000 446.569
27.12000 432.705
27.16000 456.390
27.20000 427.454
27.24000 437.745
27.28000 428.567
27.32000 446.722
27.36000 447.270
27.40000 424.562
27.44000 437.098
27.48000 430.791
27.52000 439.217
27.56000 449.256
27.60000 411.952
27.64000 412.527
27.68000 416.671
27.72000 430.145
27.76000 434.450
27.80000 427.679
27.84000 431.000
27.88000 435.282
27.92000 419.370
27.96000 430.757
28.00000 426.978
28.04000 411.112
28.08000 429.167
28.12000 422.615
28.16000 428.486
28.20000 433.336
28.24000 411.869
28.28000 424.814
28.32000 427.310
28.36000 415.205
28.40000 431.091
28.44000 423.446
28.48000 413.037
28.52000 432.741
28.56000 410.064
28.60000 421.356
28.64000 410.593
28.68000 406.914
28.72000 431.078
28.76000 414.782
28.80000 404.896
28.84000 403.668
28.88000 397.971
28.92000 413.627
28.96000 415.924
29.00000 399.260
29.04000 410.945
29.08000 416.889
29.12000 412.194
29.16000 429.350
29.20000 408.025
29.24000 407.865
29.28000 409.328
29.32000 390.363
29.36000 395.446
29.40000 397.930
29.44000 396.934
29.48000 406.353
29.52000 389.827
29.56000 408.437
29.60000 410.372
29.64000 438.653
29.68000 405.593
29.72000 413.441
29.76000 397.051
29.80000 416.515
29.84000 416.262
29.88000 424.244
29.92000 444.171
29.96000 430.597
30.00000 435.142
30.04000 439.764
30.08000 430.895
30.12000 443.500
30.16000 412.810
30.20000 410.090
30.24000 418.801
30.28000 430.457
30.32000 424.053
30.36000 400.528
30.40000 432.345
30.44000 430.927
30.48000 401.000
30.52000 411.804
30.56000 434.285
30.60000 433.194
30.64000 429.529
30.68000 426.870
30.72000 437.313
30.76000 435.292
30.80000 437.214
30.84000 470.178
30.88000 475.246
30.92000 512.931
30.96000 566.129
31.00000 624.361
31.04000 748.541
31.08000 929.047
31.12000 1080.409
31.16000 1333.871
31.20000 1646.595
31.24000 1929.667
31.28000 2247.527
31.32000 2457.917
31.36000 2523.973
31.40000 2465.299
31.44000 2293.319
31.48000 2053.649
31.52000 1758.647
31.56000 1523.534
31.60000 1262.134
31.64000 1059.817
31.68000 885.717
31.72000 769.550
31.76000 698.169
31.80000 627.609
31.84000 550.718
31.88000 499.837
31.92000 502.923
31.96000 446.413
32.00000 433.694
32.04000 450.310
32.08000 419.086
32.12000 408.094
32.16000 403.391
32.20000 410.728
32.24000 394.341
32.28000 395.024
32.32000 364.188
32.36000 390.816
32.40000 383.346
32.44000 406.645
32.48000 377.953
32.52000 371.632
32.56000 381.989
32.60000 378.096
32.64000 386.479
32.68000 377.764
32.72000 356.032
32.76000 363.031
32.80000 383.926
32.84000 392.813
32.88000 402.753
32.92000 397.476
32.96000 413.718
33.00000 403.133
33.04000 376.538
33.08000 377.447
33.12000 359.579
33.16000 350.288
33.20000 349.582
33.24000 347.885
33.28000 355.582
33.32000 343.169
33.36000 366.904
33.40000 349.147
33.44000 350.295
33.48000 332.750
33.52000 339.906
33.56000 314.372
33.60000 348.537
33.64000 331.060
33.68000 330.097
33.72000 332.860
33.76000 349.409
33.80000 321.377
33.84000 335.974
33.88000 322.567
33.92000 331.231
33.96000 326.216
34.00000 329.409
34.04000 331.922
34.08000 320.531
34.12000 322.454
34.16000 333.269
34.20000 332.570
34.24000 334.802
34.28000 332.899
34.32000 316.135
34.36000 313.398
34.40000 316.255
34.44000 321.605
34.48000 324.564
34.52000 327.306
34.56000 322.335
34.60000 336.743
34.64000 318.248
34.68000 327.288
34.72000 329.946
34.76000 310.576
34.80000 309.811
34.84000 298.541
34.88000 311.443
34.92000 306.140
34.96000 303.943
35.00000 313.562
35.04000 331.045
35.08000 319.947
35.12000 294.600
35.16000 303.560
35.20000 320.270
35.24000 303.134
35.28000 314.044
35.32000 305.281
35.36000 303.110
35.40000 305.081
35.44000 309.654
35.48000 313.379
35.52000 313.255
35.56000 289.693
35.60000 298.591
35.64000 306.866
35.68000 298.561
35.72000 299.711
35.76000 313.016
35.80000 295.364
35.84000 313.898
35.88000 311.789
35.92000 290.572
35.96000 301.052
36.00000 293.945
36.04000 302.872
36.08000 311.802
36.12000 308.643
36.16000 295.216
36.20000 289.755
36.24000 311.058
36.28000 296.762
36.32000 291.519
36.36000 301.514
36.40000 305.332
36.44000 294.061
36.48000 295.983
36.52000 291.561
36.56000 307.191
36.60000 303.148
36.64000 285.730
36.68000 301.659
36.72000 308.326
36.76000 291.326
36.80000 308.088
36.84000 298.423
36.88000 296.725
36.92000 282.421
36.96000 277.414
37.00000 302.923
37.04000 289.574
37.08000 294.994
37.12000 302.520
37.16000 302.338
37.20000 284.006
37.24000 286.744
37.28000 287.082
37.32000 289.486
37.36000 286.740
37.40000 284.903
37.44000 295.482
37.48000 285.077
37.52000 301.038
37.56000 282.134
37.60000 299.142
37.64000 289.867
37.68000 282.438
37.72000 280.124
37.76000 278.522
37.80000 285.729
37.84000 295.691
37.88000 281.182
37.92000 276.074
37.96000 282.434
38.00000 283.877
38.04000 283.510
38.08000 273.538
38.12000 292.664
38.16000 289.952
38.20000 291.479
38.24000 288.091
38.28000 307.893
38.32000 303.373
38.36000 320.328
38.40000 353.463
38.44000 377.231
38.48000 405.910
38.52000 428.310
38.56000 483.085
38.60000 497.644
38.64000 520.377
38.68000 520.474
38.72000 524.152
38.76000 502.762
38.80000 470.518
38.84000 459.454
38.88000 408.241
38.92000 384.533
38.96000 337.543
39.00000 328.699
39.04000 317.197
39.08000 289.601
39.12000 281.947
39.16000 274.227
39.20000 288.650
39.24000 268.640
39.28000 278.315
39.32000 274.823
39.36000 266.184
39.40000 273.562
39.44000 276.262
39.48000 265.498
39.52000 261.961
39.56000 268.507
39.60000 258.471
39.64000 263.231
39.68000 260.542
39.72000 272.929
39.76000 256.679
39.80000 264.116
39.84000 257.758
39.88000 246.110
39.92000 262.107
39.96000 260.452
40.00000 255.009
40.04000 249.728
40.08000 250.630
40.12000 251.097
40.16000 254.569
40.20000 251.053
40.24000 249.890
40.28000 246.335
40.32000 246.348
40.36000 254.445
40.40000 230.871
40.44000 258.083
40.48000 250.885
40.52000 244.728
40.56000 243.017
40.60000 244.495
40.64000 257.742
40.68000 239.427
40.72000 244.536
40.76000 253.100
40.80000 257.791
40.84000 255.773
40.88000 225.249
40.92000 230.542
40.96000 243.682
41.00000 243.469
41.04000 239.486
41.08000 237.543
41.12000 242.605
41.16000 245.088
41.20000 242.900
41.24000 240.864
41.28000 241.078
41.32000 262.345
41.36000 242.531
41.40000 232.588
41.44000 241.699
41.48000 244.774
41.52000 243.272
41.56000 248.952
41.60000 229.671
41.64000 229.635
41.68000 226.350
41.72000 233.343
41.76000 234.096
41.80000 231.461
41.84000 231.823
41.88000 245.027
41.92000 238.039
41.96000 236.825
42.00000 235.001
42.04000 233.095
42.08000 244.525
42.12000 241.935
42.16000 238.012
42.20000 242.713
42.24000 245.647
42.28000 224.653
42.32000 232.441
42.36000 236.780
42.40000 237.987
42.44000 229.971
42.48000 218.955
42.52000 233.434
42.56000 234.798
42.60000 229.978
42.64000 235.794
42.68000 229.386
42.72000 227.386
42.76000 233.246
42.80000 230.242
42.84000 224.944
42.88000 220.300
42.92000 230.123
42.96000 226.311
43.00000 235.211
43.04000 230.063
43.08000 245.468
43.12000 227.118
43.16000 229.170
43.20000 224.455
43.24000 232.394
43.28000 226.755
43.32000 216.817
43.36000 224.492
43.40000 224.462
43.44000 225.699
43.48000 229.899
43.52000 220.173
43.56000 218.466
43.60000 228.272
43.64000 236.552
43.68000 221.241
43.72000 208.154
43.76000 206.905
43.80000 223.419
43.84000 211.054
43.88000 215.780
43.92000 213.031
43.96000 225.354
44.00000 227.912
44.04000 214.352
44.08000 222.551
44.12000 219.631
44.16000 226.188
44.20000 238.775
44.24000 216.774
44.28000 231.570
44.32000 221.314
44.36000 232.884
44.40000 225.528
44.44000 242.794
44.48000 245.285
44.52000 255.137
44.56000 270.311
44.60000 277.153
44.64000 301.749
44.68000 311.661
44.72000 321.050
44.76000 361.190
44.80000 378.137
44.84000 399.399
44.88000 438.976
44.92000 432.710
44.96000 423.149
45.00000 431.224
45.04000 423.111
45.08000 404.405
45.12000 390.887
45.16000 370.680
45.20000 346.539
45.24000 360.465
45.28000 330.912
45.32000 320.167
45.36000 306.953
45.40000 311.156
45.44000 290.211
45.48000 294.209
45.52000 282.663
45.56000 271.400
45.60000 239.813
45.64000 251.046
45.68000 248.566
45.72000 240.087
45.76000 243.380
45.80000 259.315
45.84000 247.984
45.88000 227.990
45.92000 225.511
45.96000 213.384
46.00000 231.477
46.04000 211.935
46.08000 206.673
46.12000 217.420
46.16000 211.144
46.20000 209.836
46.24000 211.238
46.28000 207.824
46.32000 198.548
46.36000 203.778
46.40000 207.857
46.44000 190.070
46.48000 211.069
46.52000 193.516
46.56000 190.019
46.60000 194.366
46.64000 210.742
46.68000 199.763
46.72000 204.966
46.76000 205.827
46.80000 200.115
46.84000 209.386
46.88000 197.453
46.92000 195.637
46.96000 205.104
47.00000 189.971
47.04000 179.675
47.08000 192.712
47.12000 191.293
47.16000 186.130
47.20000 190.127
47.24000 184.441
47.28000 192.457
47.32000 186.696
47.36000 191.568
47.40000 190.759
47.44000 198.937
47.48000 193.660
47.52000 194.833
47.56000 187.492
47.60000 190.743
47.64000 195.422
47.68000 173.967
47.72000 197.275
47.76000 187.961
47.80000 175.637
47.84000 184.892
47.88000 192.771
47.92000 205.814
47.96000 175.100
48.00000 189.006
48.04000 181.988
48.08000 175.977
48.12000 187.064
48.16000 194.665
48.20000 178.875
48.24000 186.112
48.28000 171.853
48.32000 179.805
48.36000 190.871
48.40000 172.651
48.44000 186.627
48.48000 178.628
48.52000 161.682
48.56000 179.490
48.60000 188.622
48.64000 182.205
48.68000 177.436
48.72000 176.875
48.76000 176.399
48.80000 169.337
48.84000 184.374
48.88000 180.411
48.92000 160.985
48.96000 171.742
49.00000 173.067
49.04000 188.681
49.08000 179.259
49.12000 185.173
49.16000 175.026
49.20000 168.473
49.24000 188.061
49.28000 183.911
49.32000 188.165
49.36000 177.374
49.40000 180.116
49.44000 173.088
49.48000 179.561
49.52000 187.127
49.56000 176.095
49.60000 173.564
49.64000 172.238
49.68000 171.447
49.72000 174.506
49.76000 168.385
49.80000 160.686
49.84000 171.328
49.88000 171.314
49.92000 179.796
49.96000 165.321
50.00000 164.698
50.04000 182.481
50.08000 172.501
50.12000 168.860
50.16000 177.219
50.20000 194.080
50.24000 178.899
50.28000 188.002
50.32000 178.878
50.36000 201.987
50.40000 205.659
50.44000 204.298
50.48000 211.591
50.52000 222.120
50.56000 237.272
50.60000 225.184
50.64000 223.147
50.68000 222.130
50.72000 229.920
50.76000 221.766
50.80000 218.239
50.84000 208.318
50.88000 196.450
50.92000 214.141
50.96000 223.179
51.00000 196.139
51.04000 194.785
51.08000 191.202
51.12000 172.663
51.16000 189.676
51.20000 178.697
51.24000 175.013
51.28000 170.867
51.32000 175.677
51.36000 173.758
51.40000 172.366
51.44000 175.166
51.48000 181.714
51.52000 161.343
51.56000 155.601
51.60000 171.543
51.64000 166.611
51.68000 174.588
51.72000 159.696
51.76000 165.452
51.80000 159.845
51.84000 155.785
51.88000 177.005
51.92000 178.358
51.96000 157.492
52.00000 162.895
52.04000 166.050
52.08000 159.968
52.12000 156.023
52.16000 168.655
52.20000 155.724
52.24000 151.800
52.28000 157.731
52.32000 158.179
52.36000 155.321
52.40000 158.829
52.44000 156.490
52.48000 155.465
52.52000 157.193
52.56000 146.475
52.60000 157.625
52.64000 175.523
52.68000 152.266
52.72000 157.743
52.76000 155.017
52.80000 161.486
52.84000 159.022
52.88000 148.991
52.92000 164.029
52.96000 151.466
53.00000 161.128
53.04000 167.512
53.08000 149.121
53.12000 146.606
53.16000 152.973
53.20000 155.503
53.24000 166.490
53.28000 147.011
53.32000 162.960
53.36000 150.877
53.40000 142.790
53.44000 149.169
53.48000 164.083
53.52000 159.817
53.56000 155.243
53.60000 163.667
53.64000 162.861
53.68000 166.047
53.72000 158.948
53.76000 159.869
53.80000 162.412
53.84000 162.760
53.88000 154.858
53.92000 150.209
53.96000 149.969
54.00000 159.170
54.04000 148.804
54.08000 152.653
54.12000 159.397
54.16000 155.340
54.20000 140.234
54.24000 158.890
54.28000 159.557
54.32000 158.736
54.36000 154.573
54.40000 148.973
54.44000 154.817
54.48000 155.563
54.52000 155.985
54.56000 154.161
54.60000 154.579
54.64000 146.934
54.68000 147.543
54.72000 160.681
54.76000 145.633
54.80000 143.757
54.84000 152.606
54.88000 152.720
54.92000 159.553
54.96000 147.580
55.00000 149.733
55.04000 155.417
55.08000 150.985
55.12000 166.863
55.16000 159.757
55.20000 164.581
55.24000 170.249
55.28000 159.999
55.32000 171.494
55.36000 175.520
55.40000 179.576
55.44000 203.677
55.48000 206.181
55.52000 222.326
55.56000 222.993
55.60000 249.315
55.64000 284.390
55.68000 301.538
55.72000 334.664
55.76000 361.698
55.80000 398.518
55.84000 380.765
55.88000 396.817
55.92000 403.795
55.96000 395.302
56.00000 372.591
56.04000 349.763
56.08000 325.099
56.12000 312.524
56.16000 290.804
56.20000 270.188
56.24000 240.735
56.28000 238.662
56.32000 222.849
56.36000 204.501
56.40000 181.749
56.44000 181.149
56.48000 184.538
56.52000 169.209
56.56000 179.068
56.60000 167.267
56.64000 157.472
56.68000 164.653
56.72000 150.098
56.76000 151.669
56.80000 148.988
56.84000 144.249
56.88000 151.565
56.92000 148.499
56.96000 151.313
57.00000 155.388
57.04000 149.689
57.08000 130.590
57.12000 135.384
57.16000 148.586
57.20000 139.308
57.24000 137.716
57.28000 137.268
57.32000 152.309
57.36000 139.062
57.40000 142.569
57.44000 142.033
57.48000 145.859
57.52000 139.105
57.56000 136.939
57.60000 139.608
57.64000 145.599
57.68000 135.079
57.72000 135.487
57.76000 139.055
57.80000 147.019
57.84000 134.242
57.88000 143.704
57.92000 139.600
57.96000 131.948
58.00000 140.527
58.04000 149.574
58.08000 145.121
58.12000 136.650
58.16000 142.295
58.20000 135.380
58.24000 143.604
58.28000 136.205
58.32000 135.984
58.36000 134.832
58.40000 140.702
58.44000 149.321
58.48000 142.733
58.52000 141.472
58.56000 122.764
58.60000 139.690
58.64000 137.844
58.68000 131.555
58.72000 138.220
58.76000 140.178
58.80000 130.613
58.84000 128.483
58.88000 136.026
58.92000 136.430
58.96000 125.951
59.00000 136.849
59.04000 129.493
59.08000 144.675
59.12000 143.081
59.16000 146.944
59.20000 139.567
59.24000 131.080
59.28000 143.047
59.32000 127.062
59.36000 132.027
59.40000 140.392
59.44000 128.292
59.48000 131.104
59.52000 129.216
59.56000 140.430
59.60000 124.317
59.64000 126.782
59.68000 124.478
59.72000 125.846
59.76000 134.244
59.80000 124.971
59.84000 132.119
59.88000 124.889
59.92000 132.387
59.96000 127.042
60.00000 120.027
60.04000 118.846
60.08000 132.042
60.12000 139.236
60.16000 145.990
60.20000 140.551
60.24000 142.630
60.28000 128.737
60.32000 127.245
60.36000 135.511
60.40000 131.837
60.44000 133.754
60.48000 124.850
60.52000 119.011
60.56000 132.800
60.60000 130.418
60.64000 127.887
60.68000 128.909
60.72000 120.139
60.76000 135.007
60.80000 131.560
60.84000 138.386
60.88000 142.172
60.92000 132.637
60.96000 134.224
61.00000 140.482
61.04000 139.492
61.08000 132.328
61.12000 132.061
61.16000 139.049
61.20000 140.810
61.24000 131.197
61.28000 140.114
61.32000 135.917
61.36000 134.970
61.40000 133.669
61.44000 128.122
61.48000 152.890
61.52000 180.382
61.56000 232.727
61.60000 278.988
61.64000 329.862
61.68000 341.766
61.72000 318.265
61.76000 316.652
61.80000 251.135
61.84000 189.885
61.88000 168.382
61.92000 161.661
61.96000 140.103
62.00000 140.639
62.04000 145.491
62.08000 145.872
62.12000 147.016
62.16000 154.028
62.20000 144.140
62.24000 147.887
62.28000 153.961
62.32000 133.749
62.36000 151.530
62.40000 147.295
62.44000 134.128
62.48000 136.520
62.52000 139.909
62.56000 141.072
62.60000 144.677
62.64000 140.158
62.68000 149.183
62.72000 142.759
62.76000 146.950
62.80000 159.625
62.84000 149.263
62.88000 143.846
62.92000 143.484
62.96000 142.310
63.00000 143.786
63.04000 155.304
63.08000 146.892
63.12000 150.197
63.16000 145.729
63.20000 148.739
63.24000 148.751
63.28000 150.923
63.32000 142.176
63.36000 147.878
63.40000 142.828
63.44000 151.727
63.48000 146.200
63.52000 159.015
63.56000 156.357
63.60000 153.251
63.64000 143.901
63.68000 144.014
63.72000 147.717
63.76000 151.276
63.80000 155.089
63.84000 152.513
63.88000 155.879
63.92000 163.961
63.96000 158.195
64.00000 151.310
64.04000 163.991
64.08000 155.171
64.12000 157.699
64.16000 165.327
64.20000 165.373
64.24000 161.053
64.28000 153.032
64.32000 180.082
64.36000 169.022
64.40000 165.881
64.44000 164.371
64.48000 173.878
64.52000 165.645
64.56000 175.147
64.60000 182.105
64.64000 186.183
64.68000 170.080
64.72000 191.103
64.76000 182.516
64.80000 195.747
64.84000 189.595
64.88000 201.700
64.92000 210.665
64.96000 199.301
65.00000 213.570
65.04000 220.408
65.08000 223.708
65.12000 229.945
65.16000 241.624
65.20000 262.103
65.24000 273.872
65.28000 275.819
65.32000 287.889
65.36000 318.461
65.40000 313.655
65.44000 319.813
65.48000 357.128
65.52000 354.586
65.56000 363.130
65.60000 400.126
65.64000 447.289
65.68000 550.702
65.72000 777.433
65.76000 1098.551
65.80000 1325.790
65.84000 1486.630
65.88000 1498.001
65.92000 1446.276
65.96000 1162.937
66.00000 837.170
66.04000 586.371
66.08000 431.512
66.12000 382.559
66.16000 365.092
66.20000 356.243
66.24000 369.127
66.28000 429.341
66.32000 503.599
66.36000 544.434
66.40000 563.522
66.44000 555.508
66.48000 532.161
66.52000 491.503
66.56000 419.042
66.60000 375.386
66.64000 375.835
66.68000 363.414
66.72000 382.268
66.76000 361.809
66.80000 366.193
66.84000 368.624
66.88000 371.345
66.92000 384.105
66.96000 379.334
67.00000 382.280
67.04000 402.734
67.08000 405.146
67.12000 399.186
67.16000 420.708
67.20000 422.261
67.24000 446.758
67.28000 442.699
67.32000 437.455
67.36000 457.333
67.40000 450.926
67.44000 485.254
67.48000 472.207
67.52000 484.629
67.56000 486.896
67.60000 522.129
67.64000 498.579
67.68000 539.283
67.72000 546.969
67.76000 524.534
67.80000 562.409
67.84000 573.202
67.88000 564.194
67.92000 593.920
67.96000 604.230
68.00000 606.168
68.04000 619.846
68.08000 652.906
68.12000 638.333
68.16000 681.932
68.20000 695.965
68.24000 730.214
68.28000 713.902
68.32000 770.938
68.36000 771.723
68.40000 809.887
68.44000 843.817
68.48000 905.125
68.52000 951.138
68.56000 1048.089
68.60000 1188.179
68.64000 1399.662
68.68000 1664.236
68.72000 1988.506
68.76000 2350.192
68.80000 2672.768
68.84000 3378.284
68.88000 4478.230
68.92000 8097.570
68.96000 20169.105
69.00000 42741.516
69.04000 65353.703
69.08000 75931.969
69.12000 78922.719
69.16000 81783.031
69.20000 79894.516
69.24000 66238.031
69.28000 51153.957
69.32000 42135.180
69.36000 37528.734
69.40000 29759.184
69.44000 17932.041
69.48000 8531.013
69.52000 3716.535
69.56000 2351.750
69.60000 1815.386
69.64000 1531.326
69.68000 1345.358
69.72000 1186.319
69.76000 1090.349
69.80000 979.931
69.84000 952.586
69.88000 860.743
69.92000 807.822
69.96000 792.441
70.00000 745.969