File: XRD/XRD/25-09-2025/XY Data/BTO_Mapping_Theta2Theta_25-09-2025_001_59_18-271_-8-135.xy
20.00000 543.803
20.04000 557.811
20.08000 531.618
20.12000 546.474
20.16000 563.945
20.20000 554.624
20.24000 561.147
20.28000 553.985
20.32000 547.120
20.36000 527.638
20.40000 563.073
20.44000 542.672
20.48000 550.490
20.52000 566.945
20.56000 548.146
20.60000 560.396
20.64000 535.710
20.68000 535.786
20.72000 562.316
20.76000 549.342
20.80000 549.062
20.84000 562.362
20.88000 552.324
20.92000 537.428
20.96000 559.903
21.00000 540.201
21.04000 520.398
21.08000 528.698
21.12000 537.658
21.16000 525.916
21.20000 552.605
21.24000 530.638
21.28000 539.420
21.32000 539.438
21.36000 552.305
21.40000 531.808
21.44000 532.829
21.48000 534.635
21.52000 559.834
21.56000 550.707
21.60000 543.489
21.64000 553.020
21.68000 561.507
21.72000 546.568
21.76000 530.340
21.80000 554.714
21.84000 543.414
21.88000 605.107
21.92000 570.138
21.96000 578.796
22.00000 595.676
22.04000 598.163
22.08000 597.295
22.12000 612.425
22.16000 627.456
22.20000 628.433
22.24000 616.306
22.28000 623.719
22.32000 599.597
22.36000 586.574
22.40000 588.821
22.44000 576.163
22.48000 562.519
22.52000 574.880
22.56000 540.703
22.60000 556.992
22.64000 534.093
22.68000 501.179
22.72000 510.033
22.76000 508.347
22.80000 515.067
22.84000 523.818
22.88000 514.970
22.92000 510.036
22.96000 502.927
23.00000 486.981
23.04000 509.753
23.08000 508.834
23.12000 493.015
23.16000 503.798
23.20000 510.334
23.24000 498.550
23.28000 497.242
23.32000 510.839
23.36000 484.643
23.40000 489.046
23.44000 506.747
23.48000 516.385
23.52000 500.012
23.56000 499.576
23.60000 513.056
23.64000 489.525
23.68000 498.628
23.72000 461.336
23.76000 491.684
23.80000 491.927
23.84000 503.775
23.88000 494.143
23.92000 493.626
23.96000 490.792
24.00000 492.351
24.04000 486.818
24.08000 489.808
24.12000 492.424
24.16000 484.716
24.20000 480.597
24.24000 483.874
24.28000 491.147
24.32000 491.608
24.36000 479.081
24.40000 465.556
24.44000 476.753
24.48000 476.413
24.52000 469.618
24.56000 485.133
24.60000 487.779
24.64000 491.280
24.68000 453.711
24.72000 473.976
24.76000 471.321
24.80000 466.336
24.84000 485.488
24.88000 487.533
24.92000 470.459
24.96000 471.492
25.00000 471.430
25.04000 471.974
25.08000 481.792
25.12000 475.945
25.16000 464.702
25.20000 458.707
25.24000 460.766
25.28000 468.747
25.32000 460.488
25.36000 455.460
25.40000 482.715
25.44000 483.730
25.48000 457.892
25.52000 463.842
25.56000 471.535
25.60000 474.518
25.64000 462.933
25.68000 475.315
25.72000 437.108
25.76000 443.862
25.80000 457.900
25.84000 466.561
25.88000 477.595
25.92000 449.429
25.96000 435.874
26.00000 439.455
26.04000 445.024
26.08000 467.029
26.12000 455.246
26.16000 441.739
26.20000 445.020
26.24000 444.507
26.28000 463.903
26.32000 459.437
26.36000 462.000
26.40000 462.805
26.44000 462.679
26.48000 454.457
26.52000 432.125
26.56000 441.796
26.60000 448.418
26.64000 438.704
26.68000 442.683
26.72000 456.797
26.76000 448.699
26.80000 446.096
26.84000 440.522
26.88000 437.952
26.92000 435.221
26.96000 443.052
27.00000 439.781
27.04000 431.540
27.08000 436.919
27.12000 428.844
27.16000 443.156
27.20000 435.926
27.24000 426.876
27.28000 435.243
27.32000 441.229
27.36000 422.547
27.40000 427.227
27.44000 435.768
27.48000 434.136
27.52000 425.829
27.56000 421.503
27.60000 416.930
27.64000 424.001
27.68000 410.180
27.72000 430.530
27.76000 414.806
27.80000 413.845
27.84000 425.395
27.88000 410.223
27.92000 418.543
27.96000 416.683
28.00000 401.926
28.04000 415.446
28.08000 428.818
28.12000 423.641
28.16000 407.845
28.20000 434.333
28.24000 416.196
28.28000 403.681
28.32000 431.311
28.36000 418.511
28.40000 414.928
28.44000 411.181
28.48000 431.013
28.52000 401.724
28.56000 415.429
28.60000 424.661
28.64000 410.416
28.68000 424.029
28.72000 413.499
28.76000 417.213
28.80000 417.704
28.84000 401.583
28.88000 401.057
28.92000 421.087
28.96000 401.542
29.00000 396.372
29.04000 415.590
29.08000 404.555
29.12000 406.711
29.16000 409.490
29.20000 401.656
29.24000 398.910
29.28000 389.922
29.32000 395.815
29.36000 386.496
29.40000 406.460
29.44000 402.240
29.48000 400.681
29.52000 396.886
29.56000 409.609
29.60000 386.526
29.64000 404.730
29.68000 405.296
29.72000 408.888
29.76000 396.002
29.80000 395.206
29.84000 416.367
29.88000 397.683
29.92000 406.253
29.96000 389.281
30.00000 412.269
30.04000 417.287
30.08000 408.743
30.12000 402.788
30.16000 396.036
30.20000 389.215
30.24000 396.255
30.28000 413.959
30.32000 406.919
30.36000 403.689
30.40000 406.103
30.44000 395.732
30.48000 416.340
30.52000 407.716
30.56000 411.934
30.60000 399.804
30.64000 419.054
30.68000 412.674
30.72000 413.650
30.76000 419.986
30.80000 426.302
30.84000 433.734
30.88000 425.199
30.92000 437.299
30.96000 438.146
31.00000 461.074
31.04000 489.049
31.08000 552.258
31.12000 577.154
31.16000 657.575
31.20000 762.936
31.24000 885.577
31.28000 1031.029
31.32000 1130.045
31.36000 1226.136
31.40000 1281.131
31.44000 1241.518
31.48000 1202.265
31.52000 1094.146
31.56000 962.760
31.60000 856.249
31.64000 756.420
31.68000 660.344
31.72000 590.098
31.76000 537.824
31.80000 512.175
31.84000 477.108
31.88000 455.179
31.92000 443.305
31.96000 437.000
32.00000 426.894
32.04000 404.701
32.08000 400.606
32.12000 398.361
32.16000 393.087
32.20000 382.122
32.24000 396.162
32.28000 383.950
32.32000 386.931
32.36000 388.450
32.40000 399.905
32.44000 400.489
32.48000 378.133
32.52000 379.700
32.56000 371.751
32.60000 383.934
32.64000 356.547
32.68000 367.236
32.72000 374.761
32.76000 362.634
32.80000 365.718
32.84000 358.416
32.88000 371.020
32.92000 368.966
32.96000 378.794
33.00000 377.739
33.04000 361.715
33.08000 359.982
33.12000 338.898
33.16000 358.287
33.20000 344.943
33.24000 342.137
33.28000 338.686
33.32000 344.363
33.36000 324.787
33.40000 329.230
33.44000 318.719
33.48000 350.415
33.52000 330.285
33.56000 338.838
33.60000 316.127
33.64000 323.247
33.68000 330.189
33.72000 320.117
33.76000 330.517
33.80000 329.934
33.84000 332.722
33.88000 336.704
33.92000 326.503
33.96000 336.057
34.00000 321.315
34.04000 332.414
34.08000 333.629
34.12000 315.420
34.16000 328.690
34.20000 303.767
34.24000 329.180
34.28000 317.871
34.32000 324.850
34.36000 324.082
34.40000 314.440
34.44000 300.742
34.48000 312.871
34.52000 309.006
34.56000 331.203
34.60000 316.913
34.64000 318.495
34.68000 330.068
34.72000 313.688
34.76000 306.417
34.80000 322.027
34.84000 324.933
34.88000 302.934
34.92000 317.044
34.96000 312.811
35.00000 311.656
35.04000 319.250
35.08000 318.365
35.12000 314.120
35.16000 313.252
35.20000 309.529
35.24000 311.330
35.28000 321.293
35.32000 299.200
35.36000 311.868
35.40000 309.636
35.44000 312.137
35.48000 308.774
35.52000 308.086
35.56000 305.851
35.60000 301.735
35.64000 301.567
35.68000 300.361
35.72000 303.233
35.76000 316.910
35.80000 317.277
35.84000 306.887
35.88000 306.846
35.92000 308.774
35.96000 297.365
36.00000 299.950
36.04000 298.651
36.08000 295.406
36.12000 300.302
36.16000 305.690
36.20000 283.216
36.24000 294.536
36.28000 292.483
36.32000 311.608
36.36000 317.670
36.40000 286.603
36.44000 293.808
36.48000 295.871
36.52000 301.087
36.56000 290.027
36.60000 305.358
36.64000 301.315
36.68000 291.667
36.72000 300.365
36.76000 291.489
36.80000 285.143
36.84000 284.952
36.88000 297.467
36.92000 306.263
36.96000 300.924
37.00000 290.863
37.04000 292.562
37.08000 301.950
37.12000 293.968
37.16000 278.428
37.20000 283.230
37.24000 288.863
37.28000 292.182
37.32000 292.202
37.36000 278.151
37.40000 292.354
37.44000 280.165
37.48000 292.977
37.52000 283.509
37.56000 280.015
37.60000 282.984
37.64000 285.401
37.68000 284.959
37.72000 291.938
37.76000 275.067
37.80000 286.422
37.84000 282.599
37.88000 280.566
37.92000 285.832
37.96000 279.338
38.00000 279.025
38.04000 283.601
38.08000 293.351
38.12000 280.205
38.16000 285.975
38.20000 298.005
38.24000 285.935
38.28000 292.356
38.32000 286.235
38.36000 321.312
38.40000 328.312
38.44000 351.601
38.48000 382.495
38.52000 447.894
38.56000 479.878
38.60000 570.460
38.64000 651.969
38.68000 728.661
38.72000 786.005
38.76000 812.469
38.80000 750.648
38.84000 706.987
38.88000 582.883
38.92000 524.743
38.96000 452.752
39.00000 372.867
39.04000 329.529
39.08000 314.795
39.12000 315.094
39.16000 284.514
39.20000 276.414
39.24000 275.191
39.28000 274.709
39.32000 264.052
39.36000 260.373
39.40000 280.740
39.44000 269.895
39.48000 247.827
39.52000 265.598
39.56000 265.339
39.60000 270.058
39.64000 269.837
39.68000 254.354
39.72000 265.324
39.76000 259.457
39.80000 251.254
39.84000 251.127
39.88000 267.622
39.92000 252.909
39.96000 264.915
40.00000 260.760
40.04000 252.318
40.08000 262.833
40.12000 255.902
40.16000 250.808
40.20000 247.164
40.24000 258.720
40.28000 255.323
40.32000 245.806
40.36000 243.395
40.40000 238.867
40.44000 261.619
40.48000 246.148
40.52000 247.806
40.56000 257.019
40.60000 236.844
40.64000 239.752
40.68000 245.650
40.72000 252.008
40.76000 245.870
40.80000 248.776
40.84000 245.438
40.88000 252.639
40.92000 242.166
40.96000 239.237
41.00000 230.256
41.04000 236.664
41.08000 255.619
41.12000 241.070
41.16000 234.151
41.20000 245.894
41.24000 243.492
41.28000 254.815
41.32000 244.615
41.36000 237.818
41.40000 251.114
41.44000 243.662
41.48000 241.235
41.52000 227.072
41.56000 232.844
41.60000 240.203
41.64000 239.559
41.68000 232.093
41.72000 232.927
41.76000 219.679
41.80000 235.693
41.84000 237.698
41.88000 237.559
41.92000 223.631
41.96000 238.484
42.00000 238.729
42.04000 231.908
42.08000 231.360
42.12000 233.329
42.16000 245.102
42.20000 219.099
42.24000 221.984
42.28000 235.161
42.32000 224.570
42.36000 226.577
42.40000 216.440
42.44000 231.484
42.48000 224.500
42.52000 220.351
42.56000 222.734
42.60000 224.368
42.64000 226.845
42.68000 230.909
42.72000 223.674
42.76000 233.885
42.80000 205.682
42.84000 224.867
42.88000 238.002
42.92000 222.789
42.96000 233.276
43.00000 218.977
43.04000 222.120
43.08000 230.438
43.12000 230.333
43.16000 227.563
43.20000 204.971
43.24000 225.176
43.28000 216.225
43.32000 227.355
43.36000 228.239
43.40000 214.219
43.44000 231.677
43.48000 222.503
43.52000 207.829
43.56000 222.140
43.60000 223.317
43.64000 227.761
43.68000 221.442
43.72000 228.247
43.76000 222.832
43.80000 211.904
43.84000 227.040
43.88000 208.358
43.92000 228.152
43.96000 213.350
44.00000 222.522
44.04000 218.777
44.08000 222.345
44.12000 218.389
44.16000 219.662
44.20000 221.846
44.24000 224.898
44.28000 212.474
44.32000 215.506
44.36000 223.983
44.40000 213.838
44.44000 212.592
44.48000 222.408
44.52000 218.267
44.56000 222.723
44.60000 218.509
44.64000 231.692
44.68000 217.024
44.72000 218.744
44.76000 222.021
44.80000 223.321
44.84000 231.997
44.88000 229.084
44.92000 246.349
44.96000 243.313
45.00000 253.052
45.04000 262.181
45.08000 247.419
45.12000 256.635
45.16000 252.225
45.20000 244.176
45.24000 257.927
45.28000 247.336
45.32000 255.416
45.36000 268.949
45.40000 250.867
45.44000 267.087
45.48000 252.149
45.52000 251.926
45.56000 243.553
45.60000 231.790
45.64000 246.756
45.68000 245.118
45.72000 230.770
45.76000 229.481
45.80000 242.904
45.84000 221.430
45.88000 229.053
45.92000 221.146
45.96000 218.646
46.00000 215.307
46.04000 201.884
46.08000 218.830
46.12000 212.471
46.16000 214.393
46.20000 217.777
46.24000 202.345
46.28000 206.569
46.32000 206.614
46.36000 201.597
46.40000 201.141
46.44000 193.487
46.48000 199.972
46.52000 199.148
46.56000 204.356
46.60000 195.699
46.64000 213.861
46.68000 187.123
46.72000 195.806
46.76000 202.598
46.80000 195.738
46.84000 187.470
46.88000 193.834
46.92000 193.978
46.96000 190.740
47.00000 196.938
47.04000 192.621
47.08000 188.796
47.12000 192.111
47.16000 196.728
47.20000 181.450
47.24000 179.242
47.28000 188.610
47.32000 191.951
47.36000 182.581
47.40000 183.817
47.44000 185.913
47.48000 191.768
47.52000 186.399
47.56000 195.343
47.60000 177.907
47.64000 183.700
47.68000 175.321
47.72000 189.018
47.76000 181.366
47.80000 179.404
47.84000 177.616
47.88000 175.287
47.92000 182.289
47.96000 187.997
48.00000 190.292
48.04000 182.901
48.08000 186.679
48.12000 175.170
48.16000 171.941
48.20000 177.239
48.24000 188.202
48.28000 170.914
48.32000 186.737
48.36000 183.278
48.40000 180.563
48.44000 182.301
48.48000 176.776
48.52000 178.818
48.56000 180.915
48.60000 185.397
48.64000 175.638
48.68000 182.266
48.72000 171.121
48.76000 169.995
48.80000 179.091
48.84000 180.992
48.88000 170.278
48.92000 182.985
48.96000 164.050
49.00000 174.004
49.04000 177.970
49.08000 168.652
49.12000 171.441
49.16000 174.915
49.20000 179.948
49.24000 178.697
49.28000 187.779
49.32000 192.074
49.36000 169.739
49.40000 181.319
49.44000 172.653
49.48000 176.706
49.52000 173.351
49.56000 173.840
49.60000 156.634
49.64000 186.479
49.68000 174.169
49.72000 176.832
49.76000 167.618
49.80000 173.979
49.84000 156.070
49.88000 178.081
49.92000 172.046
49.96000 176.637
50.00000 173.963
50.04000 159.681
50.08000 174.436
50.12000 165.337
50.16000 171.764
50.20000 164.361
50.24000 169.381
50.28000 181.377
50.32000 174.847
50.36000 181.144
50.40000 162.268
50.44000 175.171
50.48000 183.028
50.52000 176.565
50.56000 184.762
50.60000 182.112
50.64000 187.535
50.68000 192.848
50.72000 182.319
50.76000 177.058
50.80000 191.312
50.84000 186.751
50.88000 174.453
50.92000 182.494
50.96000 184.325
51.00000 183.995
51.04000 173.947
51.08000 179.469
51.12000 176.273
51.16000 175.402
51.20000 164.007
51.24000 168.246
51.28000 174.431
51.32000 166.947
51.36000 168.207
51.40000 164.911
51.44000 169.041
51.48000 166.244
51.52000 165.498
51.56000 164.660
51.60000 161.315
51.64000 160.121
51.68000 164.153
51.72000 172.977
51.76000 167.761
51.80000 163.396
51.84000 169.128
51.88000 166.395
51.92000 163.660
51.96000 160.402
52.00000 161.799
52.04000 167.707
52.08000 167.896
52.12000 152.568
52.16000 157.573
52.20000 163.172
52.24000 158.215
52.28000 163.121
52.32000 153.897
52.36000 155.917
52.40000 160.353
52.44000 166.695
52.48000 163.511
52.52000 158.453
52.56000 155.075
52.60000 156.065
52.64000 153.556
52.68000 154.898
52.72000 145.938
52.76000 151.432
52.80000 155.943
52.84000 157.682
52.88000 152.974
52.92000 158.716
52.96000 169.885
53.00000 144.392
53.04000 158.019
53.08000 153.480
53.12000 153.099
53.16000 140.441
53.20000 153.892
53.24000 149.487
53.28000 152.881
53.32000 152.505
53.36000 160.897
53.40000 172.996
53.44000 158.768
53.48000 151.685
53.52000 156.404
53.56000 143.624
53.60000 152.518
53.64000 147.572
53.68000 161.322
53.72000 149.740
53.76000 145.985
53.80000 166.103
53.84000 157.999
53.88000 151.606
53.92000 154.830
53.96000 163.780
54.00000 155.057
54.04000 141.478
54.08000 145.100
54.12000 156.069
54.16000 155.862
54.20000 145.198
54.24000 147.766
54.28000 146.448
54.32000 151.520
54.36000 155.403
54.40000 148.897
54.44000 157.675
54.48000 149.950
54.52000 156.327
54.56000 153.688
54.60000 155.158
54.64000 149.163
54.68000 154.534
54.72000 165.808
54.76000 159.049
54.80000 160.867
54.84000 158.675
54.88000 149.496
54.92000 148.849
54.96000 160.478
55.00000 146.822
55.04000 142.713
55.08000 156.953
55.12000 152.964
55.16000 158.967
55.20000 149.734
55.24000 160.795
55.28000 156.708
55.32000 159.755
55.36000 159.231
55.40000 165.521
55.44000 166.264
55.48000 169.367
55.52000 183.484
55.56000 190.165
55.60000 207.303
55.64000 226.661
55.68000 238.911
55.72000 259.560
55.76000 303.048
55.80000 339.304
55.84000 377.578
55.88000 403.507
55.92000 429.439
55.96000 459.721
56.00000 449.913
56.04000 447.034
56.08000 413.991
56.12000 387.187
56.16000 362.166
56.20000 314.469
56.24000 286.318
56.28000 249.999
56.32000 222.644
56.36000 211.498
56.40000 193.575
56.44000 185.227
56.48000 177.907
56.52000 160.510
56.56000 163.764
56.60000 160.194
56.64000 161.060
56.68000 146.660
56.72000 155.305
56.76000 148.398
56.80000 150.212
56.84000 136.130
56.88000 154.295
56.92000 146.605
56.96000 139.481
57.00000 148.423
57.04000 160.090
57.08000 146.602
57.12000 143.272
57.16000 147.592
57.20000 152.346
57.24000 140.515
57.28000 147.348
57.32000 142.322
57.36000 140.504
57.40000 153.310
57.44000 140.560
57.48000 135.470
57.52000 150.681
57.56000 136.973
57.60000 135.017
57.64000 140.665
57.68000 134.688
57.72000 141.815
57.76000 137.393
57.80000 147.535
57.84000 133.685
57.88000 137.910
57.92000 125.173
57.96000 134.831
58.00000 132.171
58.04000 133.616
58.08000 148.441
58.12000 138.517
58.16000 135.483
58.20000 133.721
58.24000 133.575
58.28000 143.470
58.32000 136.989
58.36000 142.464
58.40000 137.907
58.44000 140.103
58.48000 129.506
58.52000 142.363
58.56000 142.582
58.60000 134.667
58.64000 133.222
58.68000 132.119
58.72000 127.494
58.76000 141.867
58.80000 139.584
58.84000 125.557
58.88000 136.975
58.92000 140.956
58.96000 137.467
59.00000 138.223
59.04000 140.153
59.08000 129.114
59.12000 126.456
59.16000 127.489
59.20000 128.094
59.24000 141.317
59.28000 128.751
59.32000 131.020
59.36000 127.525
59.40000 131.285
59.44000 129.236
59.48000 128.260
59.52000 130.828
59.56000 134.331
59.60000 121.873
59.64000 131.737
59.68000 127.020
59.72000 130.904
59.76000 125.831
59.80000 129.084
59.84000 133.827
59.88000 140.187
59.92000 131.172
59.96000 129.162
60.00000 127.095
60.04000 130.962
60.08000 138.728
60.12000 129.726
60.16000 130.572
60.20000 138.898
60.24000 134.952
60.28000 132.425
60.32000 129.260
60.36000 141.749
60.40000 129.861
60.44000 131.101
60.48000 128.611
60.52000 141.895
60.56000 129.232
60.60000 133.527
60.64000 139.639
60.68000 144.961
60.72000 128.076
60.76000 125.771
60.80000 135.620
60.84000 134.533
60.88000 133.167
60.92000 124.726
60.96000 127.750
61.00000 135.023
61.04000 123.215
61.08000 131.522
61.12000 134.854
61.16000 136.092
61.20000 141.200
61.24000 140.773
61.28000 133.769
61.32000 135.432
61.36000 128.243
61.40000 139.647
61.44000 145.764
61.48000 144.154
61.52000 152.242
61.56000 179.059
61.60000 207.777
61.64000 253.578
61.68000 269.532
61.72000 261.499
61.76000 254.848
61.80000 224.228
61.84000 180.780
61.88000 160.368
61.92000 141.660
61.96000 157.383
62.00000 141.817
62.04000 146.925
62.08000 154.853
62.12000 141.100
62.16000 144.199
62.20000 130.908
62.24000 143.001
62.28000 135.007
62.32000 138.533
62.36000 147.407
62.40000 139.298
62.44000 134.733
62.48000 144.833
62.52000 137.954
62.56000 143.014
62.60000 132.777
62.64000 134.928
62.68000 140.199
62.72000 142.048
62.76000 146.570
62.80000 131.879
62.84000 137.005
62.88000 131.874
62.92000 141.169
62.96000 144.642
63.00000 133.571
63.04000 139.347
63.08000 147.628
63.12000 145.096
63.16000 145.868
63.20000 140.318
63.24000 146.543
63.28000 148.829
63.32000 153.850
63.36000 148.290
63.40000 144.672
63.44000 143.080
63.48000 143.224
63.52000 138.270
63.56000 142.885
63.60000 155.663
63.64000 141.028
63.68000 148.930
63.72000 145.771
63.76000 158.370
63.80000 159.499
63.84000 148.660
63.88000 156.903
63.92000 165.249
63.96000 151.638
64.00000 157.515
64.04000 154.249
64.08000 157.816
64.12000 171.933
64.16000 152.553
64.20000 160.940
64.24000 153.385
64.28000 161.016
64.32000 155.881
64.36000 157.146
64.40000 161.759
64.44000 153.931
64.48000 160.814
64.52000 163.223
64.56000 159.437
64.60000 166.901
64.64000 169.390
64.68000 171.321
64.72000 164.682
64.76000 163.345
64.80000 164.568
64.84000 177.267
64.88000 170.543
64.92000 177.430
64.96000 175.203
65.00000 181.318
65.04000 183.609
65.08000 189.606
65.12000 192.340
65.16000 195.945
65.20000 203.467
65.24000 207.213
65.28000 214.973
65.32000 236.295
65.36000 240.802
65.40000 238.942
65.44000 240.183
65.48000 264.996
65.52000 259.096
65.56000 286.878
65.60000 290.207
65.64000 327.052
65.68000 378.552
65.72000 521.604
65.76000 742.966
65.80000 917.746
65.84000 1048.549
65.88000 1047.182
65.92000 1047.323
65.96000 904.044
66.00000 665.809
66.04000 455.427
66.08000 357.294
66.12000 321.139
66.16000 311.593
66.20000 303.996
66.24000 325.563
66.28000 329.717
66.32000 361.276
66.36000 428.101
66.40000 455.039
66.44000 441.379
66.48000 433.336
66.52000 411.902
66.56000 361.742
66.60000 343.199
66.64000 325.436
66.68000 300.353
66.72000 323.114
66.76000 314.061
66.80000 320.894
66.84000 316.431
66.88000 329.588
66.92000 336.031
66.96000 341.195
67.00000 346.356
67.04000 361.062
67.08000 358.596
67.12000 362.919
67.16000 366.515
67.20000 386.963
67.24000 367.031
67.28000 391.036
67.32000 382.089
67.36000 401.619
67.40000 401.107
67.44000 404.573
67.48000 426.984
67.52000 426.737
67.56000 441.605
67.60000 435.187
67.64000 434.157
67.68000 465.171
67.72000 462.605
67.76000 490.416
67.80000 486.788
67.84000 498.860
67.88000 504.795
67.92000 502.049
67.96000 513.021
68.00000 539.448
68.04000 545.917
68.08000 550.500
68.12000 557.066
68.16000 572.174
68.20000 591.322
68.24000 610.321
68.28000 634.653
68.32000 634.540
68.36000 678.266
68.40000 673.807
68.44000 702.303
68.48000 752.131
68.52000 785.522
68.56000 845.605
68.60000 956.025
68.64000 1066.651
68.68000 1264.648
68.72000 1470.571
68.76000 1671.701
68.80000 1843.575
68.84000 2178.545
68.88000 2639.185
68.92000 4178.725
68.96000 10455.786
69.00000 24818.912
69.04000 41505.840
69.08000 50921.438
69.12000 52762.074
69.16000 54971.441
69.20000 55959.902
69.24000 47904.906
69.28000 36063.438
69.32000 29299.859
69.36000 26310.762
69.40000 22416.859
69.44000 14222.987
69.48000 6774.714
69.52000 3012.491
69.56000 1863.243
69.60000 1491.862
69.64000 1268.685
69.68000 1078.723
69.72000 973.062
69.76000 922.682
69.80000 854.053
69.84000 782.775
69.88000 741.524
69.92000 729.844
69.96000 672.439
70.00000 639.999