File: XRD/XRD/08-10-2025 Dep 7/XY Data/BTO_Mapping_Theta2Theta_08-10-2025_001_05_40-000_0-000.xy
20.00000 464.221
20.04000 487.123
20.08000 516.893
20.12000 477.371
20.16000 484.592
20.20000 488.610
20.24000 464.298
20.28000 470.469
20.32000 467.786
20.36000 476.890
20.40000 485.717
20.44000 468.454
20.48000 468.948
20.52000 464.180
20.56000 487.768
20.60000 473.269
20.64000 460.134
20.68000 460.645
20.72000 473.083
20.76000 468.313
20.80000 484.454
20.84000 473.955
20.88000 463.428
20.92000 469.059
20.96000 485.284
21.00000 492.005
21.04000 474.874
21.08000 460.392
21.12000 486.060
21.16000 453.745
21.20000 470.831
21.24000 463.317
21.28000 470.011
21.32000 469.032
21.36000 468.788
21.40000 467.118
21.44000 458.845
21.48000 466.306
21.52000 468.275
21.56000 490.160
21.60000 469.938
21.64000 489.833
21.68000 462.827
21.72000 479.675
21.76000 476.888
21.80000 484.726
21.84000 489.693
21.88000 488.647
21.92000 528.928
21.96000 518.907
22.00000 499.248
22.04000 493.925
22.08000 520.469
22.12000 500.348
22.16000 490.201
22.20000 499.867
22.24000 491.716
22.28000 492.102
22.32000 478.438
22.36000 466.485
22.40000 471.205
22.44000 449.387
22.48000 455.029
22.52000 456.437
22.56000 457.488
22.60000 450.561
22.64000 460.673
22.68000 443.357
22.72000 440.493
22.76000 459.443
22.80000 454.395
22.84000 446.880
22.88000 451.905
22.92000 448.083
22.96000 453.036
23.00000 428.756
23.04000 454.402
23.08000 447.375
23.12000 469.328
23.16000 443.426
23.20000 450.392
23.24000 447.705
23.28000 457.917
23.32000 447.411
23.36000 453.132
23.40000 452.075
23.44000 444.740
23.48000 441.145
23.52000 440.933
23.56000 464.044
23.60000 462.270
23.64000 464.357
23.68000 474.414
23.72000 487.953
23.76000 506.435
23.80000 519.607
23.84000 482.852
23.88000 510.717
23.92000 510.929
23.96000 527.688
24.00000 544.525
24.04000 543.519
24.08000 510.470
24.12000 497.177
24.16000 483.983
24.20000 472.433
24.24000 481.437
24.28000 457.294
24.32000 451.126
24.36000 445.912
24.40000 427.772
24.44000 429.358
24.48000 421.910
24.52000 426.653
24.56000 423.406
24.60000 418.432
24.64000 426.289
24.68000 445.510
24.72000 413.523
24.76000 425.025
24.80000 415.928
24.84000 412.979
24.88000 417.043
24.92000 398.951
24.96000 393.513
25.00000 448.421
25.04000 432.222
25.08000 402.868
25.12000 405.271
25.16000 403.965
25.20000 404.880
25.24000 411.372
25.28000 401.082
25.32000 416.807
25.36000 413.529
25.40000 400.396
25.44000 413.921
25.48000 406.403
25.52000 396.235
25.56000 399.892
25.60000 404.776
25.64000 398.833
25.68000 411.798
25.72000 408.441
25.76000 403.165
25.80000 393.428
25.84000 390.513
25.88000 419.670
25.92000 387.165
25.96000 398.019
26.00000 381.388
26.04000 389.999
26.08000 389.215
26.12000 401.684
26.16000 392.491
26.20000 395.402
26.24000 400.911
26.28000 387.228
26.32000 406.314
26.36000 390.440
26.40000 385.713
26.44000 408.782
26.48000 396.149
26.52000 388.420
26.56000 377.364
26.60000 393.869
26.64000 393.497
26.68000 383.298
26.72000 397.045
26.76000 395.621
26.80000 370.957
26.84000 385.254
26.88000 377.281
26.92000 386.837
26.96000 383.714
27.00000 400.911
27.04000 391.497
27.08000 391.384
27.12000 379.815
27.16000 377.705
27.20000 375.299
27.24000 380.802
27.28000 379.161
27.32000 376.624
27.36000 376.818
27.40000 375.059
27.44000 369.642
27.48000 381.243
27.52000 382.257
27.56000 371.841
27.60000 392.275
27.64000 394.471
27.68000 408.176
27.72000 394.902
27.76000 380.097
27.80000 377.215
27.84000 374.185
27.88000 381.692
27.92000 380.983
27.96000 367.841
28.00000 371.065
28.04000 363.912
28.08000 356.718
28.12000 353.248
28.16000 380.507
28.20000 375.668
28.24000 381.013
28.28000 368.782
28.32000 369.632
28.36000 365.897
28.40000 358.852
28.44000 357.889
28.48000 396.066
28.52000 361.594
28.56000 380.625
28.60000 394.086
28.64000 388.210
28.68000 367.374
28.72000 364.178
28.76000 373.623
28.80000 379.610
28.84000 369.376
28.88000 376.310
28.92000 361.543
28.96000 364.184
29.00000 374.732
29.04000 374.529
29.08000 369.622
29.12000 377.865
29.16000 375.138
29.20000 365.812
29.24000 381.617
29.28000 364.606
29.32000 371.761
29.36000 393.315
29.40000 356.907
29.44000 361.006
29.48000 375.571
29.52000 356.746
29.56000 381.409
29.60000 369.334
29.64000 369.026
29.68000 369.741
29.72000 375.295
29.76000 388.980
29.80000 379.440
29.84000 376.061
29.88000 378.212
29.92000 391.919
29.96000 380.976
30.00000 382.739
30.04000 374.328
30.08000 395.430
30.12000 377.845
30.16000 372.322
30.20000 370.380
30.24000 376.220
30.28000 378.367
30.32000 376.719
30.36000 384.920
30.40000 377.995
30.44000 372.986
30.48000 375.356
30.52000 379.712
30.56000 386.499
30.60000 376.460
30.64000 398.957
30.68000 393.032
30.72000 401.735
30.76000 388.864
30.80000 416.372
30.84000 422.725
30.88000 427.267
30.92000 472.754
30.96000 475.157
31.00000 479.776
31.04000 534.875
31.08000 585.133
31.12000 659.110
31.16000 715.992
31.20000 799.647
31.24000 885.928
31.28000 946.753
31.32000 978.125
31.36000 966.962
31.40000 938.024
31.44000 882.612
31.48000 832.183
31.52000 741.164
31.56000 656.069
31.60000 596.616
31.64000 561.919
31.68000 517.811
31.72000 455.404
31.76000 473.246
31.80000 414.453
31.84000 400.459
31.88000 387.477
31.92000 380.002
31.96000 374.304
32.00000 370.769
32.04000 368.557
32.08000 366.334
32.12000 351.682
32.16000 355.326
32.20000 362.157
32.24000 359.446
32.28000 330.880
32.32000 348.812
32.36000 354.243
32.40000 327.806
32.44000 336.837
32.48000 329.748
32.52000 339.049
32.56000 331.344
32.60000 319.587
32.64000 323.025
32.68000 341.027
32.72000 334.947
32.76000 323.207
32.80000 330.168
32.84000 324.738
32.88000 341.482
32.92000 332.962
32.96000 326.965
33.00000 306.192
33.04000 320.377
33.08000 304.582
33.12000 291.238
33.16000 295.942
33.20000 297.690
33.24000 294.261
33.28000 299.441
33.32000 319.794
33.36000 309.005
33.40000 304.918
33.44000 299.734
33.48000 306.564
33.52000 290.692
33.56000 297.260
33.60000 299.715
33.64000 305.552
33.68000 301.222
33.72000 296.529
33.76000 298.199
33.80000 310.082
33.84000 302.178
33.88000 318.720
33.92000 304.727
33.96000 320.065
34.00000 304.479
34.04000 316.714
34.08000 328.248
34.12000 321.187
34.16000 320.844
34.20000 334.011
34.24000 325.141
34.28000 334.923
34.32000 318.683
34.36000 321.400
34.40000 335.960
34.44000 305.133
34.48000 309.297
34.52000 307.057
34.56000 297.858
34.60000 309.878
34.64000 294.598
34.68000 306.493
34.72000 299.740
34.76000 281.651
34.80000 279.944
34.84000 294.139
34.88000 283.162
34.92000 279.702
34.96000 286.265
35.00000 288.031
35.04000 283.434
35.08000 279.795
35.12000 276.521
35.16000 286.773
35.20000 262.368
35.24000 278.366
35.28000 252.672
35.32000 277.360
35.36000 262.768
35.40000 269.970
35.44000 269.242
35.48000 267.865
35.52000 267.945
35.56000 260.208
35.60000 276.940
35.64000 266.036
35.68000 267.274
35.72000 261.606
35.76000 258.753
35.80000 257.923
35.84000 272.344
35.88000 255.983
35.92000 268.622
35.96000 274.326
36.00000 262.288
36.04000 270.186
36.08000 273.190
36.12000 258.198
36.16000 267.596
36.20000 261.162
36.24000 282.802
36.28000 265.301
36.32000 263.143
36.36000 252.597
36.40000 259.772
36.44000 272.384
36.48000 251.948
36.52000 256.568
36.56000 257.814
36.60000 262.101
36.64000 251.613
36.68000 255.222
36.72000 267.081
36.76000 261.431
36.80000 272.346
36.84000 271.316
36.88000 274.835
36.92000 270.840
36.96000 274.943
37.00000 254.397
37.04000 266.832
37.08000 261.536
37.12000 251.021
37.16000 242.144
37.20000 258.115
37.24000 264.945
37.28000 260.852
37.32000 263.546
37.36000 253.155
37.40000 247.596
37.44000 262.021
37.48000 262.772
37.52000 266.435
37.56000 255.302
37.60000 259.817
37.64000 244.353
37.68000 250.273
37.72000 261.442
37.76000 238.875
37.80000 246.587
37.84000 259.205
37.88000 255.500
37.92000 255.675
37.96000 254.957
38.00000 257.973
38.04000 258.551
38.08000 270.444
38.12000 252.610
38.16000 265.173
38.20000 270.444
38.24000 274.231
38.28000 294.229
38.32000 294.412
38.36000 312.512
38.40000 342.578
38.44000 373.502
38.48000 396.345
38.52000 444.443
38.56000 496.345
38.60000 525.474
38.64000 548.401
38.68000 576.808
38.72000 558.406
38.76000 518.596
38.80000 484.177
38.84000 435.161
38.88000 356.583
38.92000 322.269
38.96000 313.513
39.00000 295.077
39.04000 269.690
39.08000 270.516
39.12000 262.858
39.16000 249.707
39.20000 249.208
39.24000 255.663
39.28000 250.667
39.32000 242.108
39.36000 259.989
39.40000 239.343
39.44000 227.999
39.48000 236.795
39.52000 245.647
39.56000 223.309
39.60000 235.979
39.64000 232.059
39.68000 238.698
39.72000 237.150
39.76000 239.290
39.80000 233.095
39.84000 216.814
39.88000 240.185
39.92000 241.270
39.96000 238.186
40.00000 238.002
40.04000 235.413
40.08000 232.402
40.12000 233.525
40.16000 245.100
40.20000 223.856
40.24000 223.816
40.28000 237.604
40.32000 224.807
40.36000 228.243
40.40000 220.734
40.44000 223.042
40.48000 225.493
40.52000 214.976
40.56000 214.667
40.60000 230.327
40.64000 220.969
40.68000 226.815
40.72000 216.809
40.76000 218.510
40.80000 219.862
40.84000 231.812
40.88000 202.570
40.92000 225.941
40.96000 233.107
41.00000 215.276
41.04000 218.877
41.08000 221.367
41.12000 207.974
41.16000 208.901
41.20000 213.751
41.24000 198.486
41.28000 211.508
41.32000 224.087
41.36000 222.822
41.40000 208.441
41.44000 199.155
41.48000 204.752
41.52000 215.392
41.56000 209.585
41.60000 220.540
41.64000 221.302
41.68000 219.279
41.72000 213.966
41.76000 212.538
41.80000 220.067
41.84000 207.149
41.88000 213.673
41.92000 221.839
41.96000 212.819
42.00000 220.703
42.04000 219.192
42.08000 226.368
42.12000 222.447
42.16000 213.765
42.20000 221.173
42.24000 232.685
42.28000 218.859
42.32000 215.179
42.36000 206.033
42.40000 221.226
42.44000 214.908
42.48000 230.176
42.52000 229.378
42.56000 211.603
42.60000 216.026
42.64000 203.685
42.68000 209.362
42.72000 203.665
42.76000 218.570
42.80000 208.480
42.84000 198.833
42.88000 217.589
42.92000 207.056
42.96000 205.316
43.00000 198.805
43.04000 194.666
43.08000 201.944
43.12000 205.544
43.16000 195.660
43.20000 186.726
43.24000 196.141
43.28000 198.274
43.32000 195.953
43.36000 190.623
43.40000 197.407
43.44000 199.534
43.48000 195.064
43.52000 200.830
43.56000 209.101
43.60000 166.311
43.64000 190.732
43.68000 198.610
43.72000 203.440
43.76000 205.867
43.80000 208.971
43.84000 205.691
43.88000 194.121
43.92000 193.400
43.96000 202.542
44.00000 190.268
44.04000 206.275
44.08000 194.759
44.12000 195.632
44.16000 193.911
44.20000 199.990
44.24000 207.858
44.28000 197.512
44.32000 190.242
44.36000 209.152
44.40000 216.212
44.44000 205.365
44.48000 217.549
44.52000 225.169
44.56000 204.351
44.60000 206.400
44.64000 221.435
44.68000 222.656
44.72000 226.408
44.76000 219.451
44.80000 210.715
44.84000 222.239
44.88000 225.006
44.92000 222.709
44.96000 235.306
45.00000 224.129
45.04000 229.143
45.08000 219.145
45.12000 229.231
45.16000 227.703
45.20000 227.231
45.24000 221.258
45.28000 220.212
45.32000 210.678
45.36000 211.455
45.40000 198.210
45.44000 206.079
45.48000 192.155
45.52000 199.381
45.56000 183.785
45.60000 195.305
45.64000 199.716
45.68000 192.170
45.72000 195.379
45.76000 194.707
45.80000 176.039
45.84000 184.506
45.88000 183.284
45.92000 181.833
45.96000 179.796
46.00000 169.575
46.04000 181.249
46.08000 182.576
46.12000 184.981
46.16000 175.427
46.20000 186.466
46.24000 180.215
46.28000 184.874
46.32000 177.622
46.36000 162.774
46.40000 177.186
46.44000 179.442
46.48000 184.706
46.52000 179.368
46.56000 186.005
46.60000 174.819
46.64000 178.692
46.68000 185.443
46.72000 180.707
46.76000 171.993
46.80000 171.262
46.84000 165.420
46.88000 162.892
46.92000 169.462
46.96000 179.522
47.00000 170.601
47.04000 162.528
47.08000 169.922
47.12000 169.707
47.16000 164.517
47.20000 178.077
47.24000 166.608
47.28000 169.519
47.32000 173.691
47.36000 167.192
47.40000 164.394
47.44000 178.288
47.48000 166.176
47.52000 167.075
47.56000 162.074
47.60000 156.589
47.64000 168.243
47.68000 153.278
47.72000 170.246
47.76000 181.425
47.80000 176.317
47.84000 157.926
47.88000 160.394
47.92000 160.293
47.96000 159.578
48.00000 171.726
48.04000 156.623
48.08000 167.950
48.12000 161.558
48.16000 149.378
48.20000 156.710
48.24000 177.471
48.28000 154.405
48.32000 163.243
48.36000 157.401
48.40000 162.602
48.44000 159.539
48.48000 165.181
48.52000 161.068
48.56000 170.069
48.60000 156.333
48.64000 153.501
48.68000 163.318
48.72000 150.454
48.76000 158.452
48.80000 157.954
48.84000 161.219
48.88000 162.578
48.92000 153.769
48.96000 161.600
49.00000 150.690
49.04000 163.364
49.08000 162.186
49.12000 155.710
49.16000 150.482
49.20000 150.878
49.24000 154.620
49.28000 151.606
49.32000 147.308
49.36000 158.403
49.40000 161.140
49.44000 157.083
49.48000 161.492
49.52000 145.206
49.56000 165.833
49.60000 163.224
49.64000 166.933
49.68000 154.889
49.72000 155.655
49.76000 153.424
49.80000 162.714
49.84000 157.519
49.88000 148.894
49.92000 145.316
49.96000 154.824
50.00000 162.829
50.04000 164.238
50.08000 156.121
50.12000 165.314
50.16000 161.446
50.20000 154.489
50.24000 153.168
50.28000 151.070
50.32000 163.122
50.36000 161.088
50.40000 164.844
50.44000 169.311
50.48000 175.026
50.52000 168.705
50.56000 176.820
50.60000 174.691
50.64000 175.717
50.68000 180.700
50.72000 182.356
50.76000 164.721
50.80000 158.717
50.84000 165.770
50.88000 171.933
50.92000 168.599
50.96000 155.346
51.00000 149.554
51.04000 161.284
51.08000 161.344
51.12000 161.246
51.16000 153.885
51.20000 146.806
51.24000 153.642
51.28000 144.667
51.32000 148.923
51.36000 149.683
51.40000 141.242
51.44000 148.011
51.48000 148.525
51.52000 157.358
51.56000 137.938
51.60000 148.006
51.64000 150.110
51.68000 145.374
51.72000 143.001
51.76000 149.349
51.80000 145.456
51.84000 141.374
51.88000 142.817
51.92000 148.723
51.96000 133.447
52.00000 140.004
52.04000 152.364
52.08000 149.923
52.12000 156.689
52.16000 152.189
52.20000 135.816
52.24000 131.788
52.28000 140.784
52.32000 141.750
52.36000 126.798
52.40000 138.361
52.44000 138.903
52.48000 135.885
52.52000 131.885
52.56000 147.653
52.60000 149.708
52.64000 137.192
52.68000 142.951
52.72000 139.804
52.76000 147.955
52.80000 144.153
52.84000 134.628
52.88000 138.702
52.92000 140.727
52.96000 131.735
53.00000 150.367
53.04000 150.497
53.08000 136.660
53.12000 137.294
53.16000 143.698
53.20000 143.433
53.24000 137.500
53.28000 143.755
53.32000 143.255
53.36000 146.281
53.40000 146.542
53.44000 149.398
53.48000 147.602
53.52000 147.806
53.56000 156.476
53.60000 141.338
53.64000 137.832
53.68000 128.636
53.72000 139.379
53.76000 141.967
53.80000 138.248
53.84000 140.371
53.88000 138.980
53.92000 137.071
53.96000 144.442
54.00000 149.462
54.04000 140.546
54.08000 133.435
54.12000 139.268
54.16000 134.432
54.20000 139.391
54.24000 147.072
54.28000 135.726
54.32000 142.713
54.36000 143.288
54.40000 142.944
54.44000 135.609
54.48000 126.121
54.52000 139.192
54.56000 138.016
54.60000 142.858
54.64000 133.654
54.68000 140.866
54.72000 133.114
54.76000 133.724
54.80000 141.139
54.84000 145.491
54.88000 144.403
54.92000 142.052
54.96000 130.660
55.00000 138.470
55.04000 150.790
55.08000 150.656
55.12000 147.720
55.16000 152.394
55.20000 154.456
55.24000 157.718
55.28000 159.444
55.32000 160.154
55.36000 180.094
55.40000 174.765
55.44000 172.124
55.48000 177.513
55.52000 162.325
55.56000 193.556
55.60000 192.508
55.64000 212.341
55.68000 233.356
55.72000 234.898
55.76000 241.645
55.80000 250.426
55.84000 267.814
55.88000 262.387
55.92000 260.269
55.96000 257.806
56.00000 251.724
56.04000 236.933
56.08000 219.942
56.12000 228.465
56.16000 208.188
56.20000 192.527
56.24000 192.396
56.28000 189.672
56.32000 185.813
56.36000 166.639
56.40000 167.087
56.44000 162.505
56.48000 143.466
56.52000 146.331
56.56000 145.468
56.60000 132.338
56.64000 137.346
56.68000 132.640
56.72000 145.734
56.76000 144.606
56.80000 124.071
56.84000 128.363
56.88000 124.161
56.92000 127.568
56.96000 123.789
57.00000 131.186
57.04000 138.199
57.08000 135.603
57.12000 129.573
57.16000 131.493
57.20000 118.637
57.24000 129.816
57.28000 127.461
57.32000 132.135
57.36000 127.765
57.40000 132.999
57.44000 125.735
57.48000 131.874
57.52000 136.205
57.56000 128.873
57.60000 118.638
57.64000 121.120
57.68000 126.637
57.72000 121.541
57.76000 133.654
57.80000 134.110
57.84000 131.788
57.88000 126.187
57.92000 117.998
57.96000 127.866
58.00000 126.349
58.04000 130.798
58.08000 131.921
58.12000 122.618
58.16000 129.046
58.20000 126.965
58.24000 130.589
58.28000 126.157
58.32000 125.204
58.36000 128.842
58.40000 118.758
58.44000 126.290
58.48000 109.634
58.52000 118.312
58.56000 119.119
58.60000 120.837
58.64000 129.539
58.68000 117.254
58.72000 118.646
58.76000 119.174
58.80000 112.754
58.84000 111.196
58.88000 119.745
58.92000 120.146
58.96000 122.048
59.00000 121.571
59.04000 123.458
59.08000 124.390
59.12000 124.383
59.16000 111.699
59.20000 126.976
59.24000 126.251
59.28000 121.247
59.32000 116.211
59.36000 123.615
59.40000 117.346
59.44000 121.352
59.48000 122.311
59.52000 121.331
59.56000 119.528
59.60000 116.540
59.64000 114.141
59.68000 121.790
59.72000 121.794
59.76000 115.521
59.80000 109.402
59.84000 113.136
59.88000 118.376
59.92000 120.097
59.96000 120.308
60.00000 113.763
60.04000 127.147
60.08000 124.794
60.12000 113.798
60.16000 122.723
60.20000 109.878
60.24000 125.810
60.28000 119.063
60.32000 118.154
60.36000 114.435
60.40000 124.999
60.44000 107.232
60.48000 125.716
60.52000 116.762
60.56000 118.016
60.60000 113.295
60.64000 118.347
60.68000 117.240
60.72000 128.051
60.76000 125.663
60.80000 129.002
60.84000 118.762
60.88000 119.335
60.92000 121.872
60.96000 122.862
61.00000 117.102
61.04000 115.031
61.08000 115.479
61.12000 114.971
61.16000 134.598
61.20000 129.479
61.24000 122.103
61.28000 126.226
61.32000 128.221
61.36000 120.620
61.40000 129.580
61.44000 131.450
61.48000 143.495
61.52000 174.636
61.56000 222.452
61.60000 264.650
61.64000 283.655
61.68000 294.670
61.72000 302.297
61.76000 252.381
61.80000 200.206
61.84000 145.878
61.88000 149.731
61.92000 140.344
61.96000 130.502
62.00000 134.747
62.04000 127.739
62.08000 136.818
62.12000 127.851
62.16000 125.715
62.20000 121.918
62.24000 131.337
62.28000 129.072
62.32000 140.215
62.36000 139.061
62.40000 130.390
62.44000 135.619
62.48000 131.959
62.52000 133.545
62.56000 130.568
62.60000 124.565
62.64000 137.923
62.68000 137.266
62.72000 134.919
62.76000 135.391
62.80000 133.896
62.84000 136.001
62.88000 131.848
62.92000 140.164
62.96000 133.184
63.00000 128.724
63.04000 118.545
63.08000 134.594
63.12000 135.379
63.16000 133.234
63.20000 142.316
63.24000 134.177
63.28000 135.868
63.32000 137.860
63.36000 135.242
63.40000 140.435
63.44000 133.807
63.48000 126.431
63.52000 145.882
63.56000 145.484
63.60000 140.351
63.64000 146.928
63.68000 143.928
63.72000 135.141
63.76000 146.110
63.80000 143.222
63.84000 136.078
63.88000 147.289
63.92000 149.799
63.96000 154.354
64.00000 147.424
64.04000 144.927
64.08000 149.122
64.12000 148.731
64.16000 168.431
64.20000 158.279
64.24000 151.167
64.28000 153.471
64.32000 162.947
64.36000 154.636
64.40000 149.077
64.44000 156.526
64.48000 164.652
64.52000 162.948
64.56000 165.722
64.60000 157.773
64.64000 170.722
64.68000 176.993
64.72000 171.208
64.76000 177.451
64.80000 176.225
64.84000 185.439
64.88000 182.379
64.92000 195.798
64.96000 181.142
65.00000 186.954
65.04000 200.063
65.08000 189.663
65.12000 212.383
65.16000 211.332
65.20000 206.360
65.24000 221.047
65.28000 234.357
65.32000 230.336
65.36000 252.349
65.40000 260.231
65.44000 269.693
65.48000 278.972
65.52000 296.244
65.56000 329.136
65.60000 362.223
65.64000 443.185
65.68000 685.110
65.72000 1096.652
65.76000 1594.977
65.80000 1865.959
65.84000 1925.415
65.88000 1981.719
65.92000 1808.098
65.96000 1296.681
66.00000 847.234
66.04000 529.071
66.08000 440.958
66.12000 387.585
66.16000 385.396
66.20000 371.085
66.24000 389.529
66.28000 466.534
66.32000 571.359
66.36000 644.138
66.40000 633.500
66.44000 618.424
66.48000 578.042
66.52000 494.317
66.56000 434.094
66.60000 383.227
66.64000 359.707
66.68000 362.355
66.72000 340.398
66.76000 358.206
66.80000 363.873
66.84000 358.488
66.88000 387.843
66.92000 354.791
66.96000 365.033
67.00000 369.676
67.04000 389.551
67.08000 384.434
67.12000 396.649
67.16000 392.870
67.20000 394.737
67.24000 415.440
67.28000 401.037
67.32000 420.074
67.36000 411.428
67.40000 417.420
67.44000 441.568
67.48000 426.436
67.52000 439.767
67.56000 444.628
67.60000 470.148
67.64000 439.517
67.68000 465.293
67.72000 466.024
67.76000 477.290
67.80000 490.853
67.84000 479.517
67.88000 490.270
67.92000 500.049
67.96000 517.447
68.00000 542.333
68.04000 526.197
68.08000 527.711
68.12000 549.833
68.16000 559.674
68.20000 563.139
68.24000 580.155
68.28000 583.014
68.32000 601.914
68.36000 627.389
68.40000 637.450
68.44000 671.489
68.48000 707.385
68.52000 765.792
68.56000 795.078
68.60000 921.490
68.64000 1061.180
68.68000 1234.493
68.72000 1421.000
68.76000 1572.264
68.80000 1743.623
68.84000 2042.185
68.88000 2660.103
68.92000 5361.756
68.96000 13595.463
69.00000 27374.043
69.04000 38524.852
69.08000 43001.238
69.12000 45782.742
69.16000 48229.766
69.20000 44296.723
69.24000 32921.012
69.28000 24748.625
69.32000 22113.781
69.36000 20595.346
69.40000 15350.810
69.44000 7944.397
69.48000 3358.519
69.52000 1777.895
69.56000 1248.314
69.60000 1017.792
69.64000 906.045
69.68000 780.109
69.72000 714.293
69.76000 641.011
69.80000 621.902
69.84000 590.489
69.88000 554.067
69.92000 536.686
69.96000 496.584
70.00000 476.751