File: XRD/XRD/08-10-2025 Dep 7/XY Data/BTO_Mapping_Theta2Theta_08-10-2025_001_15_6-180_19-021.xy
20.00000 491.961
20.04000 463.728
20.08000 458.058
20.12000 456.652
20.16000 465.015
20.20000 461.546
20.24000 464.124
20.28000 466.548
20.32000 489.013
20.36000 472.458
20.40000 478.006
20.44000 481.986
20.48000 471.025
20.52000 452.790
20.56000 465.539
20.60000 465.960
20.64000 461.803
20.68000 469.693
20.72000 453.404
20.76000 458.968
20.80000 465.721
20.84000 447.386
20.88000 464.958
20.92000 470.008
20.96000 460.674
21.00000 462.504
21.04000 470.479
21.08000 468.414
21.12000 459.094
21.16000 470.181
21.20000 466.358
21.24000 482.874
21.28000 475.037
21.32000 447.709
21.36000 454.599
21.40000 486.585
21.44000 464.605
21.48000 464.806
21.52000 460.688
21.56000 457.961
21.60000 488.382
21.64000 469.982
21.68000 484.464
21.72000 476.348
21.76000 482.271
21.80000 479.542
21.84000 474.853
21.88000 472.183
21.92000 488.401
21.96000 512.781
22.00000 499.729
22.04000 480.673
22.08000 526.653
22.12000 503.006
22.16000 501.446
22.20000 524.353
22.24000 489.427
22.28000 496.937
22.32000 481.979
22.36000 468.198
22.40000 473.327
22.44000 449.121
22.48000 445.952
22.52000 440.702
22.56000 441.433
22.60000 453.974
22.64000 463.344
22.68000 459.324
22.72000 443.627
22.76000 435.036
22.80000 442.087
22.84000 448.008
22.88000 449.967
22.92000 440.227
22.96000 438.370
23.00000 440.967
23.04000 435.353
23.08000 435.635
23.12000 470.976
23.16000 451.217
23.20000 446.678
23.24000 435.549
23.28000 442.867
23.32000 422.601
23.36000 442.118
23.40000 441.794
23.44000 432.699
23.48000 461.685
23.52000 445.014
23.56000 445.671
23.60000 458.037
23.64000 446.716
23.68000 440.098
23.72000 458.057
23.76000 483.313
23.80000 480.981
23.84000 504.259
23.88000 511.335
23.92000 512.281
23.96000 533.397
24.00000 531.351
24.04000 516.981
24.08000 517.803
24.12000 513.296
24.16000 495.956
24.20000 490.198
24.24000 474.854
24.28000 450.603
24.32000 449.782
24.36000 453.162
24.40000 438.284
24.44000 433.802
24.48000 437.481
24.52000 418.920
24.56000 412.692
24.60000 422.802
24.64000 414.418
24.68000 421.091
24.72000 414.357
24.76000 416.409
24.80000 416.174
24.84000 424.023
24.88000 399.818
24.92000 415.756
24.96000 404.858
25.00000 417.453
25.04000 418.496
25.08000 401.297
25.12000 402.292
25.16000 398.971
25.20000 406.804
25.24000 403.691
25.28000 393.961
25.32000 382.104
25.36000 402.751
25.40000 399.403
25.44000 391.797
25.48000 406.736
25.52000 404.507
25.56000 391.589
25.60000 388.749
25.64000 396.125
25.68000 394.822
25.72000 398.007
25.76000 394.233
25.80000 390.120
25.84000 398.129
25.88000 386.957
25.92000 381.300
25.96000 378.178
26.00000 394.690
26.04000 393.303
26.08000 379.336
26.12000 408.595
26.16000 408.583
26.20000 398.778
26.24000 370.268
26.28000 385.923
26.32000 392.455
26.36000 391.179
26.40000 394.231
26.44000 394.770
26.48000 382.044
26.52000 393.942
26.56000 379.151
26.60000 377.310
26.64000 387.822
26.68000 387.249
26.72000 407.564
26.76000 383.999
26.80000 384.033
26.84000 358.900
26.88000 373.693
26.92000 386.664
26.96000 381.418
27.00000 377.255
27.04000 363.477
27.08000 374.167
27.12000 367.935
27.16000 380.045
27.20000 369.229
27.24000 376.705
27.28000 372.976
27.32000 370.249
27.36000 376.563
27.40000 388.669
27.44000 386.574
27.48000 374.093
27.52000 372.560
27.56000 379.870
27.60000 352.329
27.64000 374.857
27.68000 367.778
27.72000 370.265
27.76000 364.692
27.80000 376.138
27.84000 365.935
27.88000 370.261
27.92000 370.841
27.96000 364.429
28.00000 377.344
28.04000 363.962
28.08000 349.824
28.12000 389.321
28.16000 361.129
28.20000 353.747
28.24000 378.940
28.28000 372.534
28.32000 353.714
28.36000 360.066
28.40000 366.965
28.44000 351.289
28.48000 368.518
28.52000 369.351
28.56000 359.162
28.60000 378.205
28.64000 340.177
28.68000 354.703
28.72000 352.153
28.76000 362.310
28.80000 355.035
28.84000 341.725
28.88000 344.834
28.92000 345.147
28.96000 351.623
29.00000 350.556
29.04000 363.905
29.08000 378.664
29.12000 354.847
29.16000 370.525
29.20000 354.688
29.24000 359.448
29.28000 359.521
29.32000 348.126
29.36000 345.651
29.40000 349.140
29.44000 347.004
29.48000 352.696
29.52000 347.543
29.56000 371.407
29.60000 360.156
29.64000 364.665
29.68000 363.367
29.72000 366.976
29.76000 354.870
29.80000 358.159
29.84000 380.693
29.88000 380.352
29.92000 374.642
29.96000 386.130
30.00000 399.469
30.04000 385.411
30.08000 384.164
30.12000 381.699
30.16000 371.478
30.20000 380.309
30.24000 375.124
30.28000 395.945
30.32000 362.431
30.36000 379.274
30.40000 381.426
30.44000 374.594
30.48000 364.163
30.52000 369.753
30.56000 368.110
30.60000 380.551
30.64000 382.728
30.68000 385.373
30.72000 393.915
30.76000 384.857
30.80000 373.281
30.84000 403.583
30.88000 412.894
30.92000 420.292
30.96000 436.773
31.00000 469.913
31.04000 510.343
31.08000 525.803
31.12000 594.487
31.16000 705.762
31.20000 819.750
31.24000 905.138
31.28000 1048.957
31.32000 1139.232
31.36000 1210.678
31.40000 1223.140
31.44000 1227.473
31.48000 1119.100
31.52000 1012.080
31.56000 833.309
31.60000 753.118
31.64000 636.442
31.68000 559.798
31.72000 491.149
31.76000 471.288
31.80000 427.175
31.84000 420.443
31.88000 368.053
31.92000 361.016
31.96000 358.192
32.00000 355.275
32.04000 358.989
32.08000 366.436
32.12000 365.866
32.16000 335.585
32.20000 356.532
32.24000 353.722
32.28000 319.423
32.32000 346.268
32.36000 341.209
32.40000 322.668
32.44000 325.767
32.48000 342.501
32.52000 328.227
32.56000 326.960
32.60000 322.263
32.64000 335.403
32.68000 338.692
32.72000 331.170
32.76000 315.409
32.80000 304.395
32.84000 314.528
32.88000 320.211
32.92000 322.362
32.96000 320.470
33.00000 309.836
33.04000 317.578
33.08000 298.840
33.12000 310.586
33.16000 310.827
33.20000 308.956
33.24000 313.223
33.28000 314.141
33.32000 293.630
33.36000 294.556
33.40000 295.795
33.44000 306.932
33.48000 313.130
33.52000 310.873
33.56000 292.919
33.60000 288.009
33.64000 310.445
33.68000 307.508
33.72000 299.501
33.76000 301.298
33.80000 301.105
33.84000 308.992
33.88000 325.226
33.92000 323.183
33.96000 298.800
34.00000 314.221
34.04000 332.784
34.08000 327.708
34.12000 327.675
34.16000 322.119
34.20000 333.267
34.24000 330.123
34.28000 338.371
34.32000 362.862
34.36000 339.870
34.40000 344.989
34.44000 349.837
34.48000 341.968
34.52000 347.433
34.56000 344.065
34.60000 323.518
34.64000 315.320
34.68000 300.938
34.72000 301.200
34.76000 299.905
34.80000 285.038
34.84000 289.191
34.88000 282.788
34.92000 291.059
34.96000 266.907
35.00000 291.986
35.04000 280.473
35.08000 274.344
35.12000 268.278
35.16000 273.516
35.20000 272.345
35.24000 267.744
35.28000 272.926
35.32000 261.790
35.36000 261.783
35.40000 278.461
35.44000 271.006
35.48000 261.339
35.52000 274.942
35.56000 262.226
35.60000 248.321
35.64000 259.666
35.68000 258.919
35.72000 254.815
35.76000 259.713
35.80000 260.177
35.84000 264.550
35.88000 252.144
35.92000 264.445
35.96000 262.792
36.00000 257.305
36.04000 260.554
36.08000 265.219
36.12000 274.377
36.16000 252.268
36.20000 258.241
36.24000 264.840
36.28000 255.426
36.32000 254.397
36.36000 264.117
36.40000 264.293
36.44000 251.509
36.48000 257.547
36.52000 260.383
36.56000 250.213
36.60000 266.027
36.64000 254.822
36.68000 259.175
36.72000 257.675
36.76000 259.625
36.80000 256.911
36.84000 275.576
36.88000 259.782
36.92000 275.679
36.96000 277.306
37.00000 276.194
37.04000 284.257
37.08000 290.009
37.12000 271.926
37.16000 272.016
37.20000 269.561
37.24000 267.121
37.28000 257.134
37.32000 259.091
37.36000 261.995
37.40000 252.120
37.44000 267.525
37.48000 245.407
37.52000 258.277
37.56000 250.849
37.60000 238.355
37.64000 255.081
37.68000 237.882
37.72000 245.713
37.76000 243.422
37.80000 261.066
37.84000 250.836
37.88000 253.635
37.92000 249.973
37.96000 250.801
38.00000 260.834
38.04000 259.000
38.08000 267.194
38.12000 251.990
38.16000 260.496
38.20000 261.580
38.24000 274.172
38.28000 279.421
38.32000 276.846
38.36000 300.788
38.40000 331.425
38.44000 371.852
38.48000 418.583
38.52000 511.707
38.56000 596.265
38.60000 717.976
38.64000 801.174
38.68000 905.171
38.72000 910.887
38.76000 877.029
38.80000 835.291
38.84000 749.328
38.88000 631.829
38.92000 499.122
38.96000 418.607
39.00000 373.802
39.04000 322.182
39.08000 280.313
39.12000 256.372
39.16000 262.559
39.20000 245.785
39.24000 254.055
39.28000 234.579
39.32000 233.598
39.36000 248.120
39.40000 245.926
39.44000 254.642
39.48000 236.148
39.52000 243.441
39.56000 229.686
39.60000 221.552
39.64000 216.256
39.68000 227.560
39.72000 230.463
39.76000 231.640
39.80000 237.985
39.84000 222.746
39.88000 236.066
39.92000 232.484
39.96000 231.780
40.00000 225.134
40.04000 229.741
40.08000 238.794
40.12000 231.040
40.16000 229.246
40.20000 229.723
40.24000 234.439
40.28000 224.612
40.32000 219.993
40.36000 214.676
40.40000 220.774
40.44000 212.933
40.48000 213.851
40.52000 220.121
40.56000 221.402
40.60000 221.510
40.64000 222.168
40.68000 196.339
40.72000 214.575
40.76000 217.086
40.80000 223.647
40.84000 211.568
40.88000 214.630
40.92000 209.163
40.96000 220.830
41.00000 216.118
41.04000 218.365
41.08000 192.260
41.12000 209.851
41.16000 211.824
41.20000 218.365
41.24000 199.471
41.28000 196.275
41.32000 192.384
41.36000 207.314
41.40000 213.406
41.44000 207.470
41.48000 219.555
41.52000 215.583
41.56000 209.082
41.60000 217.660
41.64000 198.057
41.68000 206.683
41.72000 212.199
41.76000 220.052
41.80000 218.064
41.84000 223.514
41.88000 197.352
41.92000 217.062
41.96000 217.495
42.00000 221.805
42.04000 212.624
42.08000 220.275
42.12000 217.847
42.16000 218.427
42.20000 219.106
42.24000 234.309
42.28000 213.952
42.32000 217.434
42.36000 210.543
42.40000 216.396
42.44000 215.195
42.48000 213.569
42.52000 215.178
42.56000 201.868
42.60000 207.622
42.64000 217.842
42.68000 219.791
42.72000 210.749
42.76000 206.864
42.80000 196.656
42.84000 202.582
42.88000 202.438
42.92000 205.035
42.96000 208.147
43.00000 207.501
43.04000 202.106
43.08000 207.406
43.12000 194.738
43.16000 201.419
43.20000 186.133
43.24000 201.241
43.28000 201.846
43.32000 190.565
43.36000 203.756
43.40000 189.598
43.44000 187.591
43.48000 200.656
43.52000 192.570
43.56000 191.980
43.60000 180.975
43.64000 181.127
43.68000 202.513
43.72000 189.380
43.76000 196.105
43.80000 191.954
43.84000 185.125
43.88000 189.899
43.92000 196.505
43.96000 187.275
44.00000 199.619
44.04000 194.808
44.08000 186.548
44.12000 189.180
44.16000 193.415
44.20000 199.819
44.24000 196.300
44.28000 188.450
44.32000 196.357
44.36000 204.397
44.40000 203.132
44.44000 206.478
44.48000 209.855
44.52000 206.836
44.56000 195.794
44.60000 219.110
44.64000 218.563
44.68000 217.200
44.72000 223.002
44.76000 220.072
44.80000 228.788
44.84000 227.237
44.88000 231.688
44.92000 233.860
44.96000 240.433
45.00000 232.828
45.04000 235.906
45.08000 241.062
45.12000 232.703
45.16000 231.453
45.20000 234.900
45.24000 225.614
45.28000 219.512
45.32000 217.183
45.36000 234.226
45.40000 219.915
45.44000 224.586
45.48000 213.059
45.52000 202.521
45.56000 215.556
45.60000 199.680
45.64000 205.558
45.68000 204.457
45.72000 192.454
45.76000 196.576
45.80000 190.976
45.84000 186.009
45.88000 173.688
45.92000 186.731
45.96000 167.932
46.00000 172.863
46.04000 174.611
46.08000 183.273
46.12000 185.468
46.16000 179.220
46.20000 179.791
46.24000 177.433
46.28000 178.523
46.32000 170.719
46.36000 176.850
46.40000 176.342
46.44000 169.061
46.48000 182.994
46.52000 165.843
46.56000 177.719
46.60000 171.472
46.64000 164.278
46.68000 175.132
46.72000 179.381
46.76000 181.009
46.80000 181.401
46.84000 185.092
46.88000 176.982
46.92000 171.717
46.96000 170.772
47.00000 176.487
47.04000 163.486
47.08000 167.585
47.12000 162.494
47.16000 178.028
47.20000 167.016
47.24000 155.783
47.28000 164.002
47.32000 166.424
47.36000 171.715
47.40000 176.318
47.44000 156.005
47.48000 160.003
47.52000 163.171
47.56000 173.122
47.60000 168.180
47.64000 152.472
47.68000 162.028
47.72000 153.389
47.76000 163.478
47.80000 158.966
47.84000 160.978
47.88000 161.519
47.92000 156.354
47.96000 164.280
48.00000 160.854
48.04000 159.747
48.08000 168.308
48.12000 157.548
48.16000 152.827
48.20000 156.743
48.24000 155.213
48.28000 164.268
48.32000 168.065
48.36000 163.937
48.40000 168.146
48.44000 170.422
48.48000 159.810
48.52000 157.487
48.56000 152.776
48.60000 147.574
48.64000 156.580
48.68000 155.355
48.72000 165.484
48.76000 155.989
48.80000 158.860
48.84000 153.203
48.88000 155.397
48.92000 149.926
48.96000 160.240
49.00000 150.607
49.04000 153.018
49.08000 149.298
49.12000 149.096
49.16000 152.256
49.20000 162.129
49.24000 151.749
49.28000 150.322
49.32000 165.981
49.36000 160.615
49.40000 164.753
49.44000 158.179
49.48000 149.460
49.52000 151.666
49.56000 160.358
49.60000 151.897
49.64000 137.873
49.68000 153.045
49.72000 142.912
49.76000 149.713
49.80000 147.270
49.84000 161.376
49.88000 153.606
49.92000 152.582
49.96000 153.694
50.00000 153.530
50.04000 148.316
50.08000 151.659
50.12000 160.787
50.16000 166.627
50.20000 150.852
50.24000 153.924
50.28000 161.180
50.32000 156.616
50.36000 155.804
50.40000 142.711
50.44000 157.938
50.48000 155.794
50.52000 149.012
50.56000 165.677
50.60000 162.908
50.64000 162.112
50.68000 161.336
50.72000 158.571
50.76000 152.045
50.80000 160.649
50.84000 152.642
50.88000 154.675
50.92000 150.066
50.96000 156.489
51.00000 153.542
51.04000 156.985
51.08000 154.615
51.12000 149.417
51.16000 145.030
51.20000 135.869
51.24000 143.127
51.28000 155.757
51.32000 146.816
51.36000 144.147
51.40000 158.452
51.44000 143.635
51.48000 137.369
51.52000 151.656
51.56000 136.767
51.60000 145.785
51.64000 141.834
51.68000 143.725
51.72000 134.699
51.76000 138.680
51.80000 142.143
51.84000 143.794
51.88000 135.872
51.92000 148.834
51.96000 138.999
52.00000 147.192
52.04000 145.589
52.08000 138.680
52.12000 146.082
52.16000 130.363
52.20000 144.451
52.24000 139.649
52.28000 148.439
52.32000 142.157
52.36000 142.207
52.40000 147.117
52.44000 142.505
52.48000 140.876
52.52000 149.133
52.56000 147.051
52.60000 145.216
52.64000 132.702
52.68000 135.445
52.72000 151.116
52.76000 140.351
52.80000 142.255
52.84000 146.493
52.88000 144.125
52.92000 146.569
52.96000 144.593
53.00000 141.366
53.04000 143.799
53.08000 139.626
53.12000 150.413
53.16000 140.522
53.20000 147.053
53.24000 146.492
53.28000 144.430
53.32000 149.702
53.36000 142.139
53.40000 151.471
53.44000 152.774
53.48000 152.715
53.52000 149.086
53.56000 151.126
53.60000 153.288
53.64000 145.211
53.68000 145.375
53.72000 147.418
53.76000 142.233
53.80000 141.199
53.84000 142.794
53.88000 139.122
53.92000 144.889
53.96000 140.801
54.00000 151.031
54.04000 139.345
54.08000 145.450
54.12000 135.590
54.16000 137.407
54.20000 145.215
54.24000 140.409
54.28000 140.876
54.32000 142.492
54.36000 137.340
54.40000 148.663
54.44000 141.645
54.48000 149.516
54.52000 146.336
54.56000 129.002
54.60000 134.186
54.64000 145.120
54.68000 142.632
54.72000 147.714
54.76000 141.585
54.80000 155.498
54.84000 134.992
54.88000 133.113
54.92000 144.287
54.96000 145.433
55.00000 152.368
55.04000 149.509
55.08000 141.090
55.12000 140.475
55.16000 154.752
55.20000 159.123
55.24000 146.194
55.28000 154.468
55.32000 156.952
55.36000 167.431
55.40000 177.086
55.44000 174.501
55.48000 180.492
55.52000 203.170
55.56000 214.004
55.60000 240.656
55.64000 266.610
55.68000 307.437
55.72000 325.641
55.76000 358.357
55.80000 421.260
55.84000 441.126
55.88000 495.446
55.92000 516.833
55.96000 492.084
56.00000 525.818
56.04000 479.561
56.08000 452.315
56.12000 417.004
56.16000 378.225
56.20000 321.209
56.24000 274.310
56.28000 256.581
56.32000 221.342
56.36000 193.049
56.40000 198.458
56.44000 183.910
56.48000 163.241
56.52000 156.760
56.56000 152.585
56.60000 139.010
56.64000 145.905
56.68000 143.179
56.72000 136.211
56.76000 131.832
56.80000 131.061
56.84000 138.212
56.88000 139.725
56.92000 127.578
56.96000 130.666
57.00000 141.412
57.04000 137.934
57.08000 135.219
57.12000 131.782
57.16000 131.418
57.20000 133.735
57.24000 130.387
57.28000 136.445
57.32000 134.401
57.36000 126.293
57.40000 124.956
57.44000 133.964
57.48000 135.698
57.52000 123.941
57.56000 132.243
57.60000 135.380
57.64000 122.841
57.68000 120.374
57.72000 124.227
57.76000 137.220
57.80000 117.830
57.84000 129.302
57.88000 122.190
57.92000 125.035
57.96000 126.053
58.00000 119.656
58.04000 120.050
58.08000 138.371
58.12000 121.357
58.16000 129.596
58.20000 125.870
58.24000 118.648
58.28000 125.347
58.32000 121.176
58.36000 122.356
58.40000 119.782
58.44000 119.740
58.48000 114.823
58.52000 124.793
58.56000 114.305
58.60000 118.063
58.64000 121.138
58.68000 128.842
58.72000 117.878
58.76000 105.913
58.80000 119.438
58.84000 122.245
58.88000 125.942
58.92000 122.920
58.96000 126.890
59.00000 117.097
59.04000 110.816
59.08000 109.331
59.12000 123.343
59.16000 119.071
59.20000 117.315
59.24000 115.649
59.28000 123.247
59.32000 123.456
59.36000 118.427
59.40000 111.219
59.44000 108.533
59.48000 109.856
59.52000 127.878
59.56000 120.597
59.60000 130.937
59.64000 118.792
59.68000 119.691
59.72000 130.317
59.76000 124.606
59.80000 108.673
59.84000 120.692
59.88000 120.335
59.92000 115.444
59.96000 116.225
60.00000 121.011
60.04000 114.174
60.08000 119.993
60.12000 132.707
60.16000 119.208
60.20000 117.982
60.24000 114.627
60.28000 114.548
60.32000 123.666
60.36000 110.398
60.40000 110.316
60.44000 114.023
60.48000 116.029
60.52000 121.936
60.56000 121.150
60.60000 119.025
60.64000 116.304
60.68000 121.487
60.72000 122.808
60.76000 121.060
60.80000 112.098
60.84000 113.847
60.88000 124.740
60.92000 115.070
60.96000 126.834
61.00000 115.622
61.04000 118.332
61.08000 126.284
61.12000 127.266
61.16000 123.386
61.20000 125.600
61.24000 121.030
61.28000 127.602
61.32000 130.645
61.36000 122.276
61.40000 126.406
61.44000 128.236
61.48000 139.496
61.52000 159.801
61.56000 184.654
61.60000 238.569
61.64000 269.104
61.68000 306.624
61.72000 300.024
61.76000 279.087
61.80000 220.448
61.84000 181.736
61.88000 147.352
61.92000 135.677
61.96000 142.521
62.00000 137.052
62.04000 127.994
62.08000 137.788
62.12000 129.009
62.16000 126.084
62.20000 127.835
62.24000 133.139
62.28000 133.420
62.32000 131.977
62.36000 125.486
62.40000 130.261
62.44000 131.688
62.48000 138.644
62.52000 114.449
62.56000 138.380
62.60000 135.096
62.64000 138.310
62.68000 131.492
62.72000 136.034
62.76000 131.123
62.80000 132.109
62.84000 134.396
62.88000 118.443
62.92000 128.235
62.96000 135.727
63.00000 128.337
63.04000 132.700
63.08000 135.799
63.12000 133.309
63.16000 140.492
63.20000 138.802
63.24000 144.255
63.28000 134.904
63.32000 133.812
63.36000 128.909
63.40000 134.756
63.44000 128.157
63.48000 133.826
63.52000 128.515
63.56000 133.177
63.60000 136.859
63.64000 151.060
63.68000 146.001
63.72000 139.553
63.76000 144.730
63.80000 136.724
63.84000 136.294
63.88000 140.746
63.92000 140.627
63.96000 141.096
64.00000 145.407
64.04000 148.365
64.08000 159.263
64.12000 148.344
64.16000 151.941
64.20000 150.675
64.24000 144.346
64.28000 142.751
64.32000 150.620
64.36000 156.282
64.40000 153.239
64.44000 160.679
64.48000 155.953
64.52000 157.417
64.56000 159.350
64.60000 161.213
64.64000 166.314
64.68000 168.598
64.72000 168.038
64.76000 168.128
64.80000 175.514
64.84000 176.906
64.88000 184.565
64.92000 171.998
64.96000 187.414
65.00000 192.753
65.04000 197.565
65.08000 200.258
65.12000 203.420
65.16000 202.664
65.20000 213.088
65.24000 221.829
65.28000 229.089
65.32000 240.776
65.36000 250.421
65.40000 253.991
65.44000 272.775
65.48000 296.140
65.52000 298.390
65.56000 321.722
65.60000 355.335
65.64000 385.741
65.68000 559.448
65.72000 829.391
65.76000 1298.911
65.80000 1678.498
65.84000 1864.230
65.88000 1926.632
65.92000 1857.797
65.96000 1540.536
66.00000 1051.735
66.04000 635.057
66.08000 471.720
66.12000 399.793
66.16000 367.483
66.20000 369.395
66.24000 362.501
66.28000 440.445
66.32000 514.208
66.36000 585.946
66.40000 589.826
66.44000 609.526
66.48000 588.884
66.52000 532.202
66.56000 446.538
66.60000 380.802
66.64000 376.735
66.68000 337.183
66.72000 344.136
66.76000 346.583
66.80000 341.485
66.84000 346.020
66.88000 368.958
66.92000 344.476
66.96000 361.882
67.00000 374.859
67.04000 368.985
67.08000 367.368
67.12000 376.279
67.16000 396.461
67.20000 378.844
67.24000 382.686
67.28000 404.291
67.32000 391.601
67.36000 403.743
67.40000 414.451
67.44000 395.294
67.48000 395.491
67.52000 411.070
67.56000 416.408
67.60000 435.621
67.64000 430.678
67.68000 438.158
67.72000 471.954
67.76000 439.150
67.80000 425.743
67.84000 452.228
67.88000 462.941
67.92000 482.544
67.96000 485.287
68.00000 480.013
68.04000 501.264
68.08000 507.006
68.12000 513.640
68.16000 539.927
68.20000 522.589
68.24000 532.631
68.28000 555.082
68.32000 567.081
68.36000 599.875
68.40000 623.920
68.44000 636.151
68.48000 657.631
68.52000 704.760
68.56000 753.053
68.60000 813.536
68.64000 927.522
68.68000 1088.453
68.72000 1257.297
68.76000 1407.242
68.80000 1594.250
68.84000 1784.105
68.88000 2174.122
68.92000 3321.451
68.96000 7880.438
69.00000 19157.955
69.04000 32100.988
69.08000 39332.875
69.12000 41926.898
69.16000 44954.551
69.20000 44966.824
69.24000 36845.512
69.28000 27138.053
69.32000 22083.035
69.36000 20423.918
69.40000 17468.133
69.44000 10894.831
69.48000 5056.548
69.52000 2272.624
69.56000 1349.926
69.60000 1076.052
69.64000 927.574
69.68000 776.153
69.72000 749.398
69.76000 670.766
69.80000 631.450
69.84000 593.926
69.88000 577.314
69.92000 530.152
69.96000 503.802
70.00000 497.385