File: XRD/XRD/08-10-2025 Dep 7/XY Data/BTO_Mapping_Theta2Theta_08-10-2025_001_08_27-406_12-202.xy
20.00000 488.278
20.04000 473.991
20.08000 486.192
20.12000 480.205
20.16000 479.836
20.20000 499.289
20.24000 486.026
20.28000 482.190
20.32000 484.033
20.36000 466.262
20.40000 463.549
20.44000 472.558
20.48000 459.606
20.52000 475.796
20.56000 465.661
20.60000 466.335
20.64000 475.197
20.68000 470.697
20.72000 482.849
20.76000 480.324
20.80000 457.698
20.84000 458.488
20.88000 473.207
20.92000 454.740
20.96000 462.587
21.00000 459.586
21.04000 459.717
21.08000 466.738
21.12000 472.544
21.16000 448.106
21.20000 455.169
21.24000 472.986
21.28000 450.480
21.32000 467.866
21.36000 476.140
21.40000 466.933
21.44000 484.374
21.48000 465.757
21.52000 464.904
21.56000 476.895
21.60000 459.244
21.64000 484.039
21.68000 472.007
21.72000 477.354
21.76000 495.423
21.80000 477.650
21.84000 496.033
21.88000 491.368
21.92000 501.589
21.96000 504.616
22.00000 503.557
22.04000 506.673
22.08000 510.335
22.12000 495.476
22.16000 506.082
22.20000 478.676
22.24000 491.647
22.28000 491.415
22.32000 476.959
22.36000 469.730
22.40000 475.094
22.44000 469.347
22.48000 463.998
22.52000 451.406
22.56000 448.965
22.60000 468.808
22.64000 454.002
22.68000 450.061
22.72000 443.999
22.76000 448.371
22.80000 433.500
22.84000 452.171
22.88000 426.455
22.92000 445.593
22.96000 448.341
23.00000 456.500
23.04000 431.769
23.08000 449.906
23.12000 462.354
23.16000 446.349
23.20000 443.408
23.24000 442.268
23.28000 442.401
23.32000 466.839
23.36000 446.302
23.40000 447.002
23.44000 464.469
23.48000 443.658
23.52000 444.532
23.56000 456.140
23.60000 464.393
23.64000 462.984
23.68000 467.316
23.72000 464.729
23.76000 503.884
23.80000 503.672
23.84000 538.567
23.88000 531.269
23.92000 531.745
23.96000 541.823
24.00000 560.905
24.04000 541.089
24.08000 519.702
24.12000 523.652
24.16000 517.182
24.20000 484.278
24.24000 477.269
24.28000 477.039
24.32000 460.121
24.36000 445.444
24.40000 455.966
24.44000 435.164
24.48000 438.748
24.52000 424.661
24.56000 435.136
24.60000 424.248
24.64000 425.035
24.68000 429.892
24.72000 432.684
24.76000 414.245
24.80000 429.661
24.84000 417.541
24.88000 430.853
24.92000 401.379
24.96000 422.529
25.00000 411.619
25.04000 404.334
25.08000 397.266
25.12000 400.008
25.16000 404.019
25.20000 410.754
25.24000 393.617
25.28000 401.866
25.32000 409.430
25.36000 402.613
25.40000 399.329
25.44000 406.812
25.48000 412.448
25.52000 409.326
25.56000 399.367
25.60000 422.926
25.64000 390.762
25.68000 395.936
25.72000 396.720
25.76000 393.311
25.80000 382.987
25.84000 394.101
25.88000 390.628
25.92000 400.089
25.96000 397.098
26.00000 396.223
26.04000 376.306
26.08000 388.164
26.12000 406.917
26.16000 388.445
26.20000 391.207
26.24000 396.406
26.28000 392.891
26.32000 389.615
26.36000 381.938
26.40000 393.880
26.44000 401.267
26.48000 395.693
26.52000 391.018
26.56000 388.738
26.60000 374.922
26.64000 397.529
26.68000 390.980
26.72000 388.553
26.76000 366.932
26.80000 369.333
26.84000 370.716
26.88000 369.285
26.92000 380.921
26.96000 390.413
27.00000 374.188
27.04000 372.783
27.08000 384.476
27.12000 386.049
27.16000 377.221
27.20000 374.664
27.24000 391.540
27.28000 374.328
27.32000 367.987
27.36000 386.475
27.40000 386.174
27.44000 374.193
27.48000 368.592
27.52000 381.016
27.56000 376.190
27.60000 364.734
27.64000 368.440
27.68000 363.365
27.72000 374.248
27.76000 384.178
27.80000 363.315
27.84000 372.883
27.88000 374.002
27.92000 393.326
27.96000 380.600
28.00000 377.411
28.04000 370.619
28.08000 377.439
28.12000 369.805
28.16000 372.934
28.20000 370.790
28.24000 376.318
28.28000 362.973
28.32000 359.500
28.36000 359.322
28.40000 380.456
28.44000 357.183
28.48000 367.766
28.52000 339.490
28.56000 376.184
28.60000 376.244
28.64000 358.648
28.68000 362.536
28.72000 362.617
28.76000 375.149
28.80000 366.841
28.84000 370.091
28.88000 358.593
28.92000 358.452
28.96000 362.191
29.00000 378.445
29.04000 363.839
29.08000 361.633
29.12000 364.489
29.16000 363.123
29.20000 358.081
29.24000 365.152
29.28000 360.414
29.32000 356.426
29.36000 382.832
29.40000 370.583
29.44000 377.273
29.48000 372.497
29.52000 361.757
29.56000 379.325
29.60000 355.066
29.64000 356.560
29.68000 363.903
29.72000 372.343
29.76000 375.725
29.80000 367.832
29.84000 376.496
29.88000 380.565
29.92000 371.567
29.96000 375.452
30.00000 373.245
30.04000 390.867
30.08000 389.594
30.12000 392.725
30.16000 382.671
30.20000 371.787
30.24000 378.290
30.28000 380.121
30.32000 375.996
30.36000 376.494
30.40000 380.711
30.44000 373.440
30.48000 367.548
30.52000 371.514
30.56000 386.757
30.60000 389.677
30.64000 379.944
30.68000 385.578
30.72000 383.687
30.76000 400.759
30.80000 404.745
30.84000 417.548
30.88000 401.417
30.92000 428.321
30.96000 449.850
31.00000 486.875
31.04000 528.491
31.08000 569.581
31.12000 613.519
31.16000 687.460
31.20000 790.316
31.24000 851.377
31.28000 926.350
31.32000 972.557
31.36000 1007.951
31.40000 991.905
31.44000 909.702
31.48000 869.647
31.52000 798.507
31.56000 731.144
31.60000 651.237
31.64000 574.979
31.68000 504.269
31.72000 482.869
31.76000 451.686
31.80000 423.981
31.84000 405.620
31.88000 385.245
31.92000 387.459
31.96000 367.181
32.00000 368.375
32.04000 366.746
32.08000 364.640
32.12000 359.145
32.16000 369.243
32.20000 351.184
32.24000 353.518
32.28000 322.876
32.32000 330.993
32.36000 349.973
32.40000 345.530
32.44000 346.462
32.48000 328.262
32.52000 334.435
32.56000 336.019
32.60000 343.379
32.64000 336.050
32.68000 324.944
32.72000 328.109
32.76000 323.455
32.80000 329.108
32.84000 317.087
32.88000 316.315
32.92000 340.770
32.96000 317.953
33.00000 331.468
33.04000 310.144
33.08000 305.600
33.12000 308.689
33.16000 316.220
33.20000 304.718
33.24000 300.257
33.28000 295.755
33.32000 306.699
33.36000 305.177
33.40000 299.157
33.44000 303.947
33.48000 302.625
33.52000 304.738
33.56000 291.307
33.60000 290.568
33.64000 305.255
33.68000 307.131
33.72000 298.841
33.76000 303.059
33.80000 283.269
33.84000 303.469
33.88000 303.664
33.92000 314.758
33.96000 309.664
34.00000 302.687
34.04000 317.535
34.08000 327.339
34.12000 302.625
34.16000 317.508
34.20000 326.218
34.24000 322.875
34.28000 329.780
34.32000 333.565
34.36000 341.348
34.40000 329.258
34.44000 306.398
34.48000 309.224
34.52000 309.820
34.56000 316.545
34.60000 300.231
34.64000 287.139
34.68000 296.578
34.72000 294.635
34.76000 298.832
34.80000 285.477
34.84000 276.683
34.88000 272.764
34.92000 288.161
34.96000 281.023
35.00000 276.603
35.04000 272.600
35.08000 288.919
35.12000 277.906
35.16000 252.897
35.20000 267.730
35.24000 278.918
35.28000 260.832
35.32000 268.770
35.36000 257.835
35.40000 269.955
35.44000 264.626
35.48000 268.188
35.52000 266.582
35.56000 255.174
35.60000 272.070
35.64000 276.850
35.68000 276.739
35.72000 256.379
35.76000 251.827
35.80000 276.088
35.84000 268.057
35.88000 261.994
35.92000 261.726
35.96000 279.268
36.00000 256.118
36.04000 268.543
36.08000 264.761
36.12000 251.540
36.16000 258.544
36.20000 260.383
36.24000 246.871
36.28000 251.074
36.32000 255.724
36.36000 259.305
36.40000 256.342
36.44000 261.374
36.48000 253.283
36.52000 256.203
36.56000 252.945
36.60000 259.020
36.64000 274.506
36.68000 262.769
36.72000 261.351
36.76000 273.403
36.80000 267.129
36.84000 265.607
36.88000 261.645
36.92000 259.779
36.96000 267.635
37.00000 270.020
37.04000 256.840
37.08000 263.608
37.12000 260.698
37.16000 258.473
37.20000 269.339
37.24000 270.562
37.28000 265.793
37.32000 263.973
37.36000 267.810
37.40000 250.387
37.44000 256.880
37.48000 255.975
37.52000 244.250
37.56000 261.430
37.60000 250.241
37.64000 245.600
37.68000 248.580
37.72000 258.842
37.76000 249.537
37.80000 240.270
37.84000 232.518
37.88000 243.246
37.92000 251.783
37.96000 256.409
38.00000 254.963
38.04000 255.085
38.08000 286.824
38.12000 261.728
38.16000 264.746
38.20000 257.316
38.24000 272.539
38.28000 279.170
38.32000 291.906
38.36000 307.270
38.40000 351.019
38.44000 370.006
38.48000 453.034
38.52000 472.016
38.56000 555.411
38.60000 577.596
38.64000 664.885
38.68000 704.725
38.72000 673.006
38.76000 647.199
38.80000 593.081
38.84000 514.705
38.88000 460.430
38.92000 394.646
38.96000 333.906
39.00000 313.359
39.04000 282.144
39.08000 262.045
39.12000 266.931
39.16000 249.018
39.20000 236.785
39.24000 241.879
39.28000 239.827
39.32000 255.656
39.36000 254.321
39.40000 239.859
39.44000 233.098
39.48000 240.073
39.52000 235.670
39.56000 239.491
39.60000 235.227
39.64000 228.290
39.68000 234.445
39.72000 230.173
39.76000 233.850
39.80000 231.749
39.84000 225.180
39.88000 228.795
39.92000 231.984
39.96000 244.347
40.00000 235.712
40.04000 229.633
40.08000 215.218
40.12000 231.622
40.16000 231.063
40.20000 229.927
40.24000 235.521
40.28000 212.569
40.32000 225.866
40.36000 213.066
40.40000 227.560
40.44000 228.392
40.48000 209.169
40.52000 221.551
40.56000 220.376
40.60000 229.353
40.64000 216.322
40.68000 221.956
40.72000 222.838
40.76000 217.140
40.80000 221.680
40.84000 223.300
40.88000 206.045
40.92000 205.994
40.96000 212.323
41.00000 218.812
41.04000 212.833
41.08000 199.359
41.12000 220.760
41.16000 214.648
41.20000 207.517
41.24000 205.658
41.28000 215.520
41.32000 218.723
41.36000 216.749
41.40000 212.896
41.44000 220.653
41.48000 217.664
41.52000 217.684
41.56000 216.372
41.60000 222.943
41.64000 199.839
41.68000 222.544
41.72000 228.979
41.76000 208.107
41.80000 205.193
41.84000 203.748
41.88000 217.896
41.92000 226.332
41.96000 214.354
42.00000 219.309
42.04000 235.735
42.08000 232.663
42.12000 215.938
42.16000 229.761
42.20000 223.630
42.24000 236.288
42.28000 225.090
42.32000 212.588
42.36000 233.654
42.40000 219.211
42.44000 211.609
42.48000 215.239
42.52000 214.989
42.56000 209.398
42.60000 213.972
42.64000 215.270
42.68000 218.293
42.72000 214.650
42.76000 218.568
42.80000 211.452
42.84000 216.000
42.88000 204.002
42.92000 208.316
42.96000 210.743
43.00000 198.327
43.04000 219.227
43.08000 206.745
43.12000 207.856
43.16000 203.431
43.20000 199.976
43.24000 197.714
43.28000 208.804
43.32000 202.996
43.36000 189.155
43.40000 203.198
43.44000 197.495
43.48000 200.904
43.52000 207.551
43.56000 189.264
43.60000 189.883
43.64000 200.280
43.68000 192.236
43.72000 182.252
43.76000 190.016
43.80000 192.362
43.84000 206.006
43.88000 196.396
43.92000 193.879
43.96000 187.506
44.00000 199.088
44.04000 190.156
44.08000 191.983
44.12000 180.612
44.16000 203.751
44.20000 188.653
44.24000 203.142
44.28000 198.940
44.32000 193.287
44.36000 201.855
44.40000 208.841
44.44000 206.844
44.48000 213.386
44.52000 212.309
44.56000 209.156
44.60000 219.010
44.64000 228.037
44.68000 224.809
44.72000 221.508
44.76000 232.387
44.80000 227.229
44.84000 218.410
44.88000 232.763
44.92000 237.277
44.96000 230.513
45.00000 239.450
45.04000 240.896
45.08000 231.128
45.12000 230.909
45.16000 241.082
45.20000 240.867
45.24000 226.416
45.28000 219.049
45.32000 224.460
45.36000 214.601
45.40000 211.261
45.44000 207.285
45.48000 207.310
45.52000 200.879
45.56000 189.867
45.60000 192.679
45.64000 202.487
45.68000 180.109
45.72000 191.010
45.76000 190.269
45.80000 184.442
45.84000 177.968
45.88000 189.560
45.92000 178.957
45.96000 178.788
46.00000 187.702
46.04000 179.444
46.08000 179.430
46.12000 190.243
46.16000 188.813
46.20000 185.251
46.24000 173.776
46.28000 173.142
46.32000 184.439
46.36000 170.744
46.40000 171.535
46.44000 179.849
46.48000 181.683
46.52000 176.895
46.56000 187.082
46.60000 182.920
46.64000 158.126
46.68000 172.658
46.72000 158.199
46.76000 177.661
46.80000 190.328
46.84000 172.558
46.88000 169.639
46.92000 163.223
46.96000 163.706
47.00000 173.769
47.04000 179.015
47.08000 174.964
47.12000 180.823
47.16000 175.902
47.20000 168.478
47.24000 169.408
47.28000 178.158
47.32000 165.959
47.36000 168.529
47.40000 165.740
47.44000 156.841
47.48000 167.911
47.52000 162.767
47.56000 164.501
47.60000 159.068
47.64000 168.223
47.68000 160.699
47.72000 177.810
47.76000 166.045
47.80000 166.095
47.84000 153.357
47.88000 159.159
47.92000 159.031
47.96000 162.519
48.00000 160.486
48.04000 159.277
48.08000 175.146
48.12000 165.613
48.16000 175.279
48.20000 161.052
48.24000 158.912
48.28000 156.897
48.32000 155.756
48.36000 168.189
48.40000 158.019
48.44000 163.304
48.48000 168.544
48.52000 167.960
48.56000 163.403
48.60000 145.708
48.64000 157.899
48.68000 167.773
48.72000 167.667
48.76000 154.682
48.80000 154.956
48.84000 154.577
48.88000 155.474
48.92000 154.635
48.96000 161.801
49.00000 149.076
49.04000 150.307
49.08000 168.491
49.12000 158.358
49.16000 154.249
49.20000 152.036
49.24000 152.362
49.28000 159.429
49.32000 154.315
49.36000 164.381
49.40000 155.286
49.44000 154.016
49.48000 160.441
49.52000 148.558
49.56000 152.529
49.60000 158.326
49.64000 155.550
49.68000 152.974
49.72000 150.380
49.76000 152.381
49.80000 146.135
49.84000 164.381
49.88000 162.131
49.92000 161.196
49.96000 155.067
50.00000 159.689
50.04000 159.270
50.08000 161.008
50.12000 154.053
50.16000 168.870
50.20000 174.530
50.24000 159.120
50.28000 157.245
50.32000 157.082
50.36000 170.722
50.40000 161.677
50.44000 167.757
50.48000 157.403
50.52000 167.451
50.56000 164.734
50.60000 158.773
50.64000 166.294
50.68000 172.283
50.72000 171.717
50.76000 163.192
50.80000 168.707
50.84000 171.205
50.88000 169.372
50.92000 155.933
50.96000 160.257
51.00000 154.469
51.04000 152.835
51.08000 161.197
51.12000 158.577
51.16000 152.135
51.20000 134.938
51.24000 144.402
51.28000 149.604
51.32000 140.776
51.36000 149.276
51.40000 133.632
51.44000 151.769
51.48000 136.381
51.52000 138.751
51.56000 142.402
51.60000 137.277
51.64000 131.086
51.68000 137.850
51.72000 139.107
51.76000 153.340
51.80000 144.956
51.84000 133.457
51.88000 140.942
51.92000 141.767
51.96000 142.924
52.00000 147.012
52.04000 138.367
52.08000 129.950
52.12000 143.691
52.16000 151.160
52.20000 143.318
52.24000 142.735
52.28000 144.319
52.32000 144.691
52.36000 144.378
52.40000 142.035
52.44000 149.096
52.48000 137.319
52.52000 135.918
52.56000 137.215
52.60000 137.036
52.64000 145.335
52.68000 146.455
52.72000 151.843
52.76000 150.345
52.80000 140.794
52.84000 143.634
52.88000 143.077
52.92000 133.190
52.96000 145.655
53.00000 145.395
53.04000 147.539
53.08000 147.261
53.12000 138.288
53.16000 146.960
53.20000 147.542
53.24000 143.144
53.28000 138.953
53.32000 146.096
53.36000 142.574
53.40000 147.039
53.44000 149.657
53.48000 144.903
53.52000 140.660
53.56000 137.537
53.60000 141.475
53.64000 147.651
53.68000 152.835
53.72000 135.149
53.76000 135.913
53.80000 146.152
53.84000 144.250
53.88000 142.252
53.92000 157.981
53.96000 133.402
54.00000 139.546
54.04000 138.600
54.08000 145.508
54.12000 135.246
54.16000 150.154
54.20000 127.936
54.24000 128.663
54.28000 134.977
54.32000 145.754
54.36000 138.503
54.40000 142.292
54.44000 145.439
54.48000 139.409
54.52000 142.828
54.56000 132.745
54.60000 150.924
54.64000 149.937
54.68000 142.592
54.72000 141.933
54.76000 143.785
54.80000 144.038
54.84000 137.643
54.88000 139.937
54.92000 147.349
54.96000 146.497
55.00000 145.673
55.04000 147.166
55.08000 153.463
55.12000 154.845
55.16000 146.477
55.20000 146.694
55.24000 153.913
55.28000 153.761
55.32000 160.067
55.36000 167.683
55.40000 167.768
55.44000 173.835
55.48000 199.143
55.52000 204.535
55.56000 212.270
55.60000 229.669
55.64000 242.645
55.68000 237.001
55.72000 267.370
55.76000 274.033
55.80000 290.592
55.84000 308.081
55.88000 300.397
55.92000 324.876
55.96000 311.687
56.00000 307.589
56.04000 292.389
56.08000 280.367
56.12000 246.903
56.16000 247.867
56.20000 237.189
56.24000 222.095
56.28000 214.420
56.32000 195.896
56.36000 182.182
56.40000 173.201
56.44000 167.196
56.48000 157.152
56.52000 153.332
56.56000 152.623
56.60000 142.403
56.64000 134.310
56.68000 139.372
56.72000 146.938
56.76000 139.191
56.80000 142.075
56.84000 131.370
56.88000 140.882
56.92000 131.109
56.96000 135.732
57.00000 149.343
57.04000 134.563
57.08000 136.591
57.12000 140.959
57.16000 132.021
57.20000 131.278
57.24000 117.947
57.28000 122.248
57.32000 125.474
57.36000 131.015
57.40000 136.512
57.44000 124.821
57.48000 129.568
57.52000 130.679
57.56000 134.883
57.60000 128.824
57.64000 127.308
57.68000 123.669
57.72000 131.417
57.76000 123.364
57.80000 129.856
57.84000 124.930
57.88000 126.250
57.92000 118.857
57.96000 130.974
58.00000 127.033
58.04000 127.269
58.08000 132.292
58.12000 121.444
58.16000 123.117
58.20000 121.946
58.24000 116.546
58.28000 128.700
58.32000 125.399
58.36000 114.637
58.40000 125.095
58.44000 113.276
58.48000 129.905
58.52000 130.939
58.56000 117.595
58.60000 117.726
58.64000 110.527
58.68000 115.291
58.72000 125.924
58.76000 124.676
58.80000 116.534
58.84000 111.809
58.88000 115.874
58.92000 121.857
58.96000 109.658
59.00000 117.929
59.04000 120.936
59.08000 130.471
59.12000 124.297
59.16000 124.508
59.20000 118.550
59.24000 115.643
59.28000 113.930
59.32000 127.101
59.36000 119.741
59.40000 118.344
59.44000 121.300
59.48000 124.020
59.52000 127.125
59.56000 130.313
59.60000 112.246
59.64000 122.367
59.68000 116.775
59.72000 115.908
59.76000 121.756
59.80000 124.248
59.84000 116.766
59.88000 119.311
59.92000 119.719
59.96000 119.940
60.00000 120.162
60.04000 122.632
60.08000 127.013
60.12000 113.286
60.16000 114.195
60.20000 114.445
60.24000 120.328
60.28000 121.439
60.32000 109.607
60.36000 119.599
60.40000 122.661
60.44000 123.275
60.48000 121.805
60.52000 109.164
60.56000 120.207
60.60000 120.004
60.64000 114.620
60.68000 123.177
60.72000 116.086
60.76000 121.569
60.80000 122.567
60.84000 132.519
60.88000 120.348
60.92000 126.250
60.96000 121.723
61.00000 118.714
61.04000 128.396
61.08000 123.304
61.12000 130.483
61.16000 125.245
61.20000 131.532
61.24000 128.757
61.28000 119.065
61.32000 127.033
61.36000 132.370
61.40000 126.286
61.44000 128.941
61.48000 137.983
61.52000 176.154
61.56000 214.268
61.60000 255.707
61.64000 273.276
61.68000 316.313
61.72000 308.965
61.76000 272.053
61.80000 201.001
61.84000 164.003
61.88000 124.421
61.92000 137.710
61.96000 137.858
62.00000 129.419
62.04000 131.500
62.08000 130.954
62.12000 125.413
62.16000 132.746
62.20000 131.771
62.24000 129.941
62.28000 127.606
62.32000 130.906
62.36000 137.539
62.40000 139.572
62.44000 132.287
62.48000 135.311
62.52000 124.715
62.56000 130.325
62.60000 132.478
62.64000 135.934
62.68000 128.426
62.72000 134.004
62.76000 135.965
62.80000 127.629
62.84000 136.982
62.88000 137.601
62.92000 133.474
62.96000 129.900
63.00000 137.008
63.04000 125.589
63.08000 143.075
63.12000 145.000
63.16000 134.272
63.20000 130.990
63.24000 145.588
63.28000 135.258
63.32000 135.950
63.36000 136.638
63.40000 141.360
63.44000 141.926
63.48000 127.796
63.52000 141.322
63.56000 143.987
63.60000 131.454
63.64000 140.471
63.68000 142.028
63.72000 144.660
63.76000 143.721
63.80000 144.128
63.84000 146.267
63.88000 151.379
63.92000 150.484
63.96000 142.562
64.00000 152.601
64.04000 135.705
64.08000 147.727
64.12000 143.203
64.16000 162.533
64.20000 154.751
64.24000 153.419
64.28000 171.875
64.32000 160.059
64.36000 159.131
64.40000 160.301
64.44000 164.239
64.48000 165.769
64.52000 170.590
64.56000 170.425
64.60000 173.822
64.64000 162.414
64.68000 174.957
64.72000 166.049
64.76000 176.095
64.80000 178.234
64.84000 192.876
64.88000 184.576
64.92000 187.690
64.96000 201.987
65.00000 200.883
65.04000 196.535
65.08000 200.704
65.12000 205.713
65.16000 209.769
65.20000 218.637
65.24000 224.085
65.28000 229.851
65.32000 220.847
65.36000 233.743
65.40000 261.756
65.44000 267.599
65.48000 280.754
65.52000 310.042
65.56000 335.208
65.60000 367.685
65.64000 438.965
65.68000 607.645
65.72000 967.394
65.76000 1457.955
65.80000 1842.014
65.84000 1962.943
65.88000 1950.869
65.92000 1806.988
65.96000 1449.990
66.00000 936.928
66.04000 566.150
66.08000 444.116
66.12000 385.700
66.16000 382.305
66.20000 360.493
66.24000 412.590
66.28000 467.811
66.32000 534.278
66.36000 623.014
66.40000 644.534
66.44000 662.048
66.48000 603.409
66.52000 526.412
66.56000 426.018
66.60000 389.470
66.64000 362.082
66.68000 361.215
66.72000 362.803
66.76000 361.782
66.80000 360.816
66.84000 368.831
66.88000 378.285
66.92000 363.624
66.96000 372.392
67.00000 378.861
67.04000 396.042
67.08000 373.639
67.12000 393.542
67.16000 402.995
67.20000 409.819
67.24000 389.597
67.28000 387.926
67.32000 417.682
67.36000 424.218
67.40000 410.937
67.44000 415.709
67.48000 441.514
67.52000 440.536
67.56000 449.630
67.60000 427.580
67.64000 449.937
67.68000 462.392
67.72000 445.548
67.76000 466.640
67.80000 463.755
67.84000 499.074
67.88000 476.466
67.92000 494.673
67.96000 488.716
68.00000 507.705
68.04000 511.307
68.08000 525.623
68.12000 526.792
68.16000 567.807
68.20000 554.962
68.24000 572.031
68.28000 589.658
68.32000 594.118
68.36000 618.669
68.40000 640.696
68.44000 654.752
68.48000 690.480
68.52000 718.457
68.56000 784.981
68.60000 879.301
68.64000 1016.565
68.68000 1197.605
68.72000 1362.059
68.76000 1514.117
68.80000 1720.810
68.84000 1999.726
68.88000 2529.888
68.92000 4413.193
68.96000 11323.433
69.00000 24360.174
69.04000 36400.719
69.08000 42080.926
69.12000 44742.238
69.16000 47688.711
69.20000 45226.324
69.24000 34488.348
69.28000 25713.988
69.32000 22152.363
69.36000 20766.102
69.40000 16468.865
69.44000 9082.367
69.48000 3973.582
69.52000 1921.473
69.56000 1294.757
69.60000 1044.876
69.64000 900.679
69.68000 801.248
69.72000 738.775
69.76000 673.974
69.80000 631.796
69.84000 577.215
69.88000 534.619
69.92000 517.662
69.96000 505.096
70.00000 508.719