File: XRD/XRD/08-10-2025 Dep 7/XY Data/BTO_Mapping_Theta2Theta_08-10-2025_001_58_9-135_-4-067.xy
20.00000 492.237
20.04000 483.904
20.08000 472.683
20.12000 503.696
20.16000 488.971
20.20000 475.601
20.24000 493.093
20.28000 493.156
20.32000 456.099
20.36000 475.087
20.40000 477.446
20.44000 480.183
20.48000 478.788
20.52000 477.522
20.56000 462.521
20.60000 474.812
20.64000 466.763
20.68000 470.408
20.72000 459.672
20.76000 472.833
20.80000 468.972
20.84000 453.303
20.88000 467.856
20.92000 458.682
20.96000 486.836
21.00000 484.199
21.04000 468.741
21.08000 471.050
21.12000 472.839
21.16000 478.080
21.20000 464.304
21.24000 496.604
21.28000 470.794
21.32000 457.402
21.36000 477.782
21.40000 448.944
21.44000 435.338
21.48000 472.685
21.52000 482.552
21.56000 470.140
21.60000 472.806
21.64000 474.737
21.68000 467.267
21.72000 492.322
21.76000 453.741
21.80000 487.704
21.84000 496.960
21.88000 516.747
21.92000 490.969
21.96000 507.670
22.00000 518.498
22.04000 538.352
22.08000 525.512
22.12000 526.712
22.16000 518.147
22.20000 502.983
22.24000 488.548
22.28000 486.614
22.32000 476.391
22.36000 479.781
22.40000 475.736
22.44000 481.439
22.48000 486.464
22.52000 441.729
22.56000 449.418
22.60000 456.759
22.64000 431.723
22.68000 441.688
22.72000 441.756
22.76000 449.022
22.80000 454.830
22.84000 456.653
22.88000 448.990
22.92000 417.327
22.96000 446.020
23.00000 450.529
23.04000 449.655
23.08000 452.470
23.12000 452.582
23.16000 443.214
23.20000 439.880
23.24000 442.703
23.28000 443.855
23.32000 450.901
23.36000 440.861
23.40000 433.349
23.44000 431.646
23.48000 444.162
23.52000 455.537
23.56000 455.164
23.60000 444.812
23.64000 438.811
23.68000 464.384
23.72000 464.684
23.76000 467.069
23.80000 497.249
23.84000 493.215
23.88000 514.837
23.92000 513.916
23.96000 537.391
24.00000 523.212
24.04000 539.900
24.08000 518.334
24.12000 495.703
24.16000 495.186
24.20000 469.833
24.24000 481.360
24.28000 447.966
24.32000 441.932
24.36000 440.973
24.40000 439.080
24.44000 438.129
24.48000 422.222
24.52000 416.652
24.56000 424.563
24.60000 426.569
24.64000 413.421
24.68000 428.609
24.72000 396.559
24.76000 394.710
24.80000 404.993
24.84000 404.566
24.88000 417.160
24.92000 402.594
24.96000 404.919
25.00000 419.405
25.04000 405.235
25.08000 389.685
25.12000 401.556
25.16000 404.171
25.20000 405.248
25.24000 407.365
25.28000 400.576
25.32000 408.250
25.36000 412.084
25.40000 409.242
25.44000 397.699
25.48000 396.618
25.52000 416.318
25.56000 401.338
25.60000 382.935
25.64000 393.591
25.68000 398.032
25.72000 401.936
25.76000 379.983
25.80000 411.043
25.84000 400.605
25.88000 405.249
25.92000 382.374
25.96000 398.063
26.00000 413.229
26.04000 387.804
26.08000 396.706
26.12000 377.737
26.16000 390.424
26.20000 377.806
26.24000 383.527
26.28000 384.689
26.32000 380.753
26.36000 397.743
26.40000 396.372
26.44000 378.703
26.48000 388.950
26.52000 387.049
26.56000 387.888
26.60000 370.176
26.64000 384.438
26.68000 390.714
26.72000 374.398
26.76000 386.750
26.80000 382.241
26.84000 374.061
26.88000 379.770
26.92000 380.973
26.96000 383.946
27.00000 387.044
27.04000 374.314
27.08000 383.152
27.12000 363.837
27.16000 378.593
27.20000 393.803
27.24000 371.201
27.28000 365.477
27.32000 360.022
27.36000 385.520
27.40000 374.159
27.44000 386.810
27.48000 382.096
27.52000 369.670
27.56000 373.707
27.60000 374.217
27.64000 374.984
27.68000 367.757
27.72000 353.757
27.76000 370.091
27.80000 353.648
27.84000 371.132
27.88000 367.034
27.92000 376.669
27.96000 371.568
28.00000 408.125
28.04000 376.610
28.08000 366.520
28.12000 334.570
28.16000 367.899
28.20000 362.806
28.24000 370.406
28.28000 358.129
28.32000 355.104
28.36000 367.847
28.40000 349.751
28.44000 374.021
28.48000 373.355
28.52000 354.543
28.56000 345.263
28.60000 359.383
28.64000 364.374
28.68000 350.668
28.72000 374.142
28.76000 360.884
28.80000 361.013
28.84000 355.100
28.88000 358.882
28.92000 360.972
28.96000 357.650
29.00000 360.727
29.04000 347.368
29.08000 352.759
29.12000 347.460
29.16000 361.431
29.20000 359.771
29.24000 352.163
29.28000 361.318
29.32000 344.709
29.36000 351.229
29.40000 355.192
29.44000 354.132
29.48000 349.738
29.52000 362.516
29.56000 356.886
29.60000 353.685
29.64000 358.828
29.68000 366.529
29.72000 360.961
29.76000 370.375
29.80000 373.635
29.84000 379.658
29.88000 397.402
29.92000 374.027
29.96000 367.616
30.00000 400.902
30.04000 390.863
30.08000 383.114
30.12000 376.175
30.16000 390.870
30.20000 398.187
30.24000 387.968
30.28000 387.881
30.32000 363.952
30.36000 389.822
30.40000 361.552
30.44000 357.279
30.48000 357.053
30.52000 371.920
30.56000 373.243
30.60000 373.328
30.64000 374.812
30.68000 387.642
30.72000 372.193
30.76000 391.327
30.80000 395.486
30.84000 407.647
30.88000 409.064
30.92000 437.314
30.96000 444.399
31.00000 455.985
31.04000 512.592
31.08000 552.048
31.12000 618.656
31.16000 706.104
31.20000 850.065
31.24000 917.000
31.28000 1061.849
31.32000 1146.384
31.36000 1225.525
31.40000 1228.942
31.44000 1201.177
31.48000 1099.644
31.52000 960.444
31.56000 846.690
31.60000 713.570
31.64000 602.424
31.68000 551.401
31.72000 480.364
31.76000 447.897
31.80000 411.839
31.84000 389.210
31.88000 374.471
31.92000 374.179
31.96000 365.151
32.00000 371.807
32.04000 351.987
32.08000 348.685
32.12000 339.081
32.16000 350.815
32.20000 346.373
32.24000 351.301
32.28000 327.467
32.32000 342.999
32.36000 340.609
32.40000 335.857
32.44000 338.583
32.48000 327.729
32.52000 316.967
32.56000 314.933
32.60000 326.034
32.64000 327.276
32.68000 309.789
32.72000 312.640
32.76000 306.462
32.80000 309.977
32.84000 317.447
32.88000 310.267
32.92000 325.136
32.96000 323.553
33.00000 322.218
33.04000 321.257
33.08000 315.350
33.12000 307.021
33.16000 323.259
33.20000 314.209
33.24000 310.192
33.28000 310.298
33.32000 310.305
33.36000 300.313
33.40000 312.388
33.44000 297.213
33.48000 287.027
33.52000 290.770
33.56000 296.382
33.60000 325.770
33.64000 301.646
33.68000 307.746
33.72000 296.448
33.76000 301.491
33.80000 323.422
33.84000 313.739
33.88000 320.702
33.92000 321.689
33.96000 314.519
34.00000 319.611
34.04000 310.288
34.08000 334.140
34.12000 336.271
34.16000 336.992
34.20000 341.298
34.24000 334.418
34.28000 348.442
34.32000 354.580
34.36000 336.244
34.40000 352.065
34.44000 355.600
34.48000 353.299
34.52000 346.657
34.56000 332.124
34.60000 337.177
34.64000 328.240
34.68000 326.287
34.72000 313.060
34.76000 303.659
34.80000 318.387
34.84000 293.183
34.88000 275.421
34.92000 283.152
34.96000 268.837
35.00000 288.513
35.04000 276.316
35.08000 270.059
35.12000 262.712
35.16000 289.209
35.20000 281.129
35.24000 287.414
35.28000 268.027
35.32000 273.594
35.36000 266.580
35.40000 270.214
35.44000 260.410
35.48000 257.446
35.52000 271.295
35.56000 277.577
35.60000 268.643
35.64000 267.126
35.68000 252.352
35.72000 261.172
35.76000 262.868
35.80000 259.251
35.84000 255.518
35.88000 242.140
35.92000 250.222
35.96000 259.488
36.00000 277.355
36.04000 251.785
36.08000 253.312
36.12000 265.058
36.16000 255.757
36.20000 257.130
36.24000 248.111
36.28000 265.392
36.32000 252.204
36.36000 262.065
36.40000 257.267
36.44000 255.653
36.48000 260.475
36.52000 261.906
36.56000 257.078
36.60000 253.231
36.64000 260.893
36.68000 265.353
36.72000 267.146
36.76000 267.593
36.80000 252.143
36.84000 263.735
36.88000 284.657
36.92000 280.377
36.96000 267.407
37.00000 278.612
37.04000 273.047
37.08000 280.438
37.12000 276.156
37.16000 272.113
37.20000 271.361
37.24000 283.674
37.28000 256.536
37.32000 256.506
37.36000 244.275
37.40000 269.653
37.44000 250.070
37.48000 260.448
37.52000 266.339
37.56000 249.879
37.60000 264.463
37.64000 250.660
37.68000 253.579
37.72000 252.959
37.76000 239.384
37.80000 248.381
37.84000 250.455
37.88000 261.514
37.92000 252.544
37.96000 259.582
38.00000 255.141
38.04000 274.726
38.08000 260.648
38.12000 264.433
38.16000 276.483
38.20000 264.510
38.24000 266.697
38.28000 282.944
38.32000 310.697
38.36000 322.255
38.40000 345.679
38.44000 401.325
38.48000 487.819
38.52000 588.181
38.56000 704.665
38.60000 845.391
38.64000 940.910
38.68000 1023.189
38.72000 1068.779
38.76000 1026.117
38.80000 952.588
38.84000 887.212
38.88000 732.250
38.92000 572.461
38.96000 480.848
39.00000 382.742
39.04000 325.880
39.08000 287.272
39.12000 283.629
39.16000 258.169
39.20000 240.683
39.24000 256.544
39.28000 244.750
39.32000 256.997
39.36000 242.301
39.40000 242.289
39.44000 243.456
39.48000 242.556
39.52000 243.197
39.56000 224.240
39.60000 233.932
39.64000 234.092
39.68000 224.855
39.72000 240.367
39.76000 245.994
39.80000 243.283
39.84000 239.925
39.88000 221.933
39.92000 235.263
39.96000 233.703
40.00000 246.449
40.04000 233.002
40.08000 226.991
40.12000 225.537
40.16000 223.415
40.20000 236.719
40.24000 231.908
40.28000 215.268
40.32000 220.802
40.36000 212.508
40.40000 230.319
40.44000 207.377
40.48000 232.416
40.52000 222.029
40.56000 202.108
40.60000 214.986
40.64000 219.024
40.68000 207.856
40.72000 204.236
40.76000 202.660
40.80000 230.734
40.84000 217.026
40.88000 205.590
40.92000 211.746
40.96000 216.049
41.00000 222.311
41.04000 215.330
41.08000 220.510
41.12000 208.531
41.16000 206.542
41.20000 222.556
41.24000 219.358
41.28000 207.199
41.32000 214.294
41.36000 208.467
41.40000 208.129
41.44000 200.667
41.48000 199.289
41.52000 225.945
41.56000 209.089
41.60000 196.184
41.64000 207.874
41.68000 203.253
41.72000 197.477
41.76000 208.466
41.80000 209.000
41.84000 233.712
41.88000 226.682
41.92000 214.295
41.96000 197.631
42.00000 210.358
42.04000 214.542
42.08000 211.962
42.12000 220.936
42.16000 227.073
42.20000 221.872
42.24000 214.814
42.28000 200.126
42.32000 231.410
42.36000 224.142
42.40000 218.610
42.44000 207.177
42.48000 229.089
42.52000 215.308
42.56000 208.114
42.60000 221.931
42.64000 206.820
42.68000 200.630
42.72000 207.118
42.76000 209.354
42.80000 203.104
42.84000 207.058
42.88000 205.046
42.92000 218.871
42.96000 202.475
43.00000 206.739
43.04000 200.939
43.08000 192.792
43.12000 215.356
43.16000 215.184
43.20000 201.216
43.24000 201.113
43.28000 189.542
43.32000 199.232
43.36000 195.661
43.40000 198.622
43.44000 197.277
43.48000 189.063
43.52000 198.397
43.56000 192.666
43.60000 205.234
43.64000 180.639
43.68000 191.515
43.72000 192.067
43.76000 192.470
43.80000 193.805
43.84000 185.033
43.88000 188.584
43.92000 193.951
43.96000 193.900
44.00000 188.013
44.04000 199.921
44.08000 192.274
44.12000 195.343
44.16000 200.112
44.20000 182.561
44.24000 193.091
44.28000 196.769
44.32000 200.216
44.36000 203.470
44.40000 207.918
44.44000 209.187
44.48000 209.596
44.52000 209.880
44.56000 215.835
44.60000 215.660
44.64000 227.032
44.68000 229.290
44.72000 231.266
44.76000 236.005
44.80000 233.371
44.84000 241.033
44.88000 249.615
44.92000 255.497
44.96000 243.287
45.00000 243.151
45.04000 260.395
45.08000 240.863
45.12000 255.144
45.16000 236.764
45.20000 225.962
45.24000 238.125
45.28000 247.199
45.32000 231.447
45.36000 205.236
45.40000 215.079
45.44000 219.271
45.48000 214.973
45.52000 210.910
45.56000 207.875
45.60000 208.846
45.64000 195.850
45.68000 196.671
45.72000 188.498
45.76000 198.259
45.80000 190.968
45.84000 190.582
45.88000 192.730
45.92000 190.482
45.96000 186.504
46.00000 176.524
46.04000 172.908
46.08000 183.717
46.12000 173.338
46.16000 184.453
46.20000 168.893
46.24000 175.582
46.28000 172.204
46.32000 186.549
46.36000 180.968
46.40000 169.806
46.44000 180.279
46.48000 177.763
46.52000 162.597
46.56000 171.561
46.60000 179.727
46.64000 175.903
46.68000 177.589
46.72000 170.927
46.76000 180.072
46.80000 173.842
46.84000 175.279
46.88000 172.057
46.92000 169.976
46.96000 167.385
47.00000 173.262
47.04000 169.960
47.08000 167.891
47.12000 171.690
47.16000 166.915
47.20000 173.162
47.24000 166.935
47.28000 163.075
47.32000 160.741
47.36000 164.355
47.40000 165.857
47.44000 164.944
47.48000 156.352
47.52000 163.534
47.56000 166.027
47.60000 166.310
47.64000 155.547
47.68000 158.011
47.72000 158.255
47.76000 170.149
47.80000 164.286
47.84000 157.393
47.88000 165.035
47.92000 165.368
47.96000 166.021
48.00000 166.680
48.04000 154.716
48.08000 163.545
48.12000 170.959
48.16000 141.655
48.20000 150.766
48.24000 153.267
48.28000 150.436
48.32000 161.715
48.36000 162.842
48.40000 160.873
48.44000 160.973
48.48000 156.608
48.52000 154.810
48.56000 156.615
48.60000 156.985
48.64000 152.681
48.68000 157.033
48.72000 159.251
48.76000 157.184
48.80000 158.982
48.84000 156.372
48.88000 164.548
48.92000 154.526
48.96000 164.456
49.00000 157.213
49.04000 158.113
49.08000 156.082
49.12000 159.945
49.16000 159.550
49.20000 162.196
49.24000 155.303
49.28000 153.820
49.32000 142.411
49.36000 151.756
49.40000 156.835
49.44000 156.991
49.48000 157.924
49.52000 148.657
49.56000 157.581
49.60000 156.891
49.64000 155.117
49.68000 144.084
49.72000 144.214
49.76000 152.258
49.80000 145.110
49.84000 151.117
49.88000 148.189
49.92000 157.208
49.96000 155.277
50.00000 160.092
50.04000 145.364
50.08000 147.391
50.12000 152.718
50.16000 159.854
50.20000 147.926
50.24000 152.478
50.28000 152.721
50.32000 155.761
50.36000 148.185
50.40000 158.870
50.44000 150.268
50.48000 153.547
50.52000 150.210
50.56000 150.226
50.60000 160.767
50.64000 159.431
50.68000 175.107
50.72000 171.285
50.76000 163.662
50.80000 155.510
50.84000 161.673
50.88000 160.576
50.92000 154.880
50.96000 156.931
51.00000 156.833
51.04000 146.096
51.08000 154.501
51.12000 151.716
51.16000 138.939
51.20000 155.299
51.24000 157.157
51.28000 161.679
51.32000 144.572
51.36000 148.334
51.40000 139.579
51.44000 138.736
51.48000 139.613
51.52000 137.964
51.56000 147.691
51.60000 146.453
51.64000 150.566
51.68000 144.537
51.72000 145.533
51.76000 144.488
51.80000 148.365
51.84000 140.626
51.88000 146.986
51.92000 139.638
51.96000 139.348
52.00000 143.825
52.04000 135.432
52.08000 145.605
52.12000 145.538
52.16000 143.964
52.20000 142.262
52.24000 136.954
52.28000 148.213
52.32000 140.416
52.36000 141.684
52.40000 136.046
52.44000 151.334
52.48000 138.224
52.52000 150.314
52.56000 139.325
52.60000 141.137
52.64000 148.876
52.68000 143.669
52.72000 145.826
52.76000 145.079
52.80000 138.202
52.84000 132.211
52.88000 143.913
52.92000 139.056
52.96000 144.318
53.00000 134.452
53.04000 137.246
53.08000 136.479
53.12000 144.828
53.16000 143.302
53.20000 150.335
53.24000 159.635
53.28000 149.972
53.32000 156.841
53.36000 174.506
53.40000 164.140
53.44000 153.509
53.48000 152.396
53.52000 150.808
53.56000 163.217
53.60000 151.173
53.64000 145.230
53.68000 148.625
53.72000 142.753
53.76000 160.473
53.80000 150.209
53.84000 141.036
53.88000 140.944
53.92000 141.914
53.96000 140.504
54.00000 138.621
54.04000 141.684
54.08000 132.436
54.12000 138.884
54.16000 142.792
54.20000 141.921
54.24000 146.261
54.28000 135.276
54.32000 141.713
54.36000 138.146
54.40000 137.263
54.44000 150.557
54.48000 142.147
54.52000 135.921
54.56000 145.337
54.60000 150.252
54.64000 147.960
54.68000 139.184
54.72000 136.126
54.76000 145.201
54.80000 153.106
54.84000 131.851
54.88000 142.993
54.92000 144.729
54.96000 140.377
55.00000 148.522
55.04000 143.471
55.08000 153.884
55.12000 164.759
55.16000 157.117
55.20000 152.017
55.24000 152.525
55.28000 157.023
55.32000 165.057
55.36000 176.680
55.40000 184.301
55.44000 192.487
55.48000 212.464
55.52000 226.862
55.56000 239.990
55.60000 281.792
55.64000 312.857
55.68000 340.882
55.72000 400.250
55.76000 449.397
55.80000 479.584
55.84000 521.366
55.88000 577.753
55.92000 585.593
55.96000 605.666
56.00000 572.479
56.04000 561.985
56.08000 501.336
56.12000 448.161
56.16000 389.143
56.20000 351.780
56.24000 304.434
56.28000 251.320
56.32000 231.334
56.36000 209.660
56.40000 193.693
56.44000 180.285
56.48000 176.056
56.52000 156.025
56.56000 152.388
56.60000 159.117
56.64000 138.464
56.68000 138.555
56.72000 143.268
56.76000 138.764
56.80000 132.979
56.84000 145.769
56.88000 129.375
56.92000 131.973
56.96000 136.827
57.00000 138.957
57.04000 138.880
57.08000 137.072
57.12000 128.981
57.16000 136.544
57.20000 135.519
57.24000 131.528
57.28000 126.658
57.32000 122.656
57.36000 135.062
57.40000 131.929
57.44000 122.479
57.48000 119.212
57.52000 132.995
57.56000 123.356
57.60000 128.917
57.64000 124.847
57.68000 126.140
57.72000 133.984
57.76000 133.575
57.80000 130.689
57.84000 123.266
57.88000 125.675
57.92000 126.930
57.96000 131.541
58.00000 127.473
58.04000 126.706
58.08000 125.253
58.12000 125.589
58.16000 114.264
58.20000 118.238
58.24000 124.633
58.28000 124.437
58.32000 115.871
58.36000 122.384
58.40000 128.832
58.44000 117.238
58.48000 127.309
58.52000 125.390
58.56000 128.776
58.60000 114.441
58.64000 118.033
58.68000 110.559
58.72000 119.207
58.76000 116.776
58.80000 122.641
58.84000 116.882
58.88000 126.304
58.92000 118.044
58.96000 113.339
59.00000 115.777
59.04000 121.970
59.08000 118.423
59.12000 126.290
59.16000 124.810
59.20000 116.327
59.24000 118.833
59.28000 128.423
59.32000 116.165
59.36000 129.348
59.40000 103.477
59.44000 116.643
59.48000 107.908
59.52000 122.121
59.56000 117.746
59.60000 120.059
59.64000 119.165
59.68000 122.642
59.72000 116.634
59.76000 121.866
59.80000 118.679
59.84000 114.348
59.88000 120.984
59.92000 121.937
59.96000 113.803
60.00000 132.029
60.04000 110.035
60.08000 116.452
60.12000 117.775
60.16000 124.350
60.20000 117.968
60.24000 118.171
60.28000 116.641
60.32000 120.772
60.36000 119.560
60.40000 121.133
60.44000 118.493
60.48000 123.166
60.52000 112.745
60.56000 119.892
60.60000 126.305
60.64000 104.435
60.68000 117.720
60.72000 122.183
60.76000 120.286
60.80000 123.288
60.84000 119.475
60.88000 113.481
60.92000 120.484
60.96000 122.358
61.00000 119.246
61.04000 119.776
61.08000 128.672
61.12000 127.614
61.16000 114.602
61.20000 125.478
61.24000 133.601
61.28000 130.044
61.32000 129.402
61.36000 125.754
61.40000 123.955
61.44000 134.598
61.48000 141.076
61.52000 157.991
61.56000 209.832
61.60000 248.721
61.64000 272.682
61.68000 285.179
61.72000 281.965
61.76000 275.538
61.80000 231.099
61.84000 170.713
61.88000 147.068
61.92000 137.400
61.96000 133.252
62.00000 118.431
62.04000 127.048
62.08000 125.177
62.12000 120.732
62.16000 131.547
62.20000 134.999
62.24000 130.894
62.28000 118.153
62.32000 122.307
62.36000 121.899
62.40000 129.612
62.44000 133.961
62.48000 126.069
62.52000 133.521
62.56000 125.957
62.60000 133.721
62.64000 121.183
62.68000 134.449
62.72000 132.865
62.76000 131.551
62.80000 128.870
62.84000 146.743
62.88000 134.604
62.92000 136.446
62.96000 131.401
63.00000 127.866
63.04000 121.156
63.08000 130.786
63.12000 133.610
63.16000 131.370
63.20000 137.232
63.24000 132.449
63.28000 137.978
63.32000 138.876
63.36000 134.610
63.40000 139.829
63.44000 133.793
63.48000 133.316
63.52000 133.519
63.56000 129.269
63.60000 128.226
63.64000 131.938
63.68000 133.809
63.72000 142.962
63.76000 141.358
63.80000 144.508
63.84000 142.558
63.88000 138.497
63.92000 148.822
63.96000 140.698
64.00000 143.871
64.04000 148.818
64.08000 148.592
64.12000 149.066
64.16000 142.697
64.20000 155.990
64.24000 157.293
64.28000 149.227
64.32000 155.144
64.36000 159.441
64.40000 148.695
64.44000 156.720
64.48000 153.937
64.52000 157.564
64.56000 156.484
64.60000 158.542
64.64000 159.854
64.68000 164.560
64.72000 163.697
64.76000 178.752
64.80000 180.002
64.84000 169.732
64.88000 175.981
64.92000 175.331
64.96000 183.969
65.00000 180.836
65.04000 191.741
65.08000 187.210
65.12000 198.796
65.16000 210.955
65.20000 207.595
65.24000 213.860
65.28000 232.062
65.32000 226.794
65.36000 244.676
65.40000 256.756
65.44000 263.237
65.48000 286.277
65.52000 297.140
65.56000 330.744
65.60000 374.287
65.64000 416.966
65.68000 572.495
65.72000 874.031
65.76000 1313.228
65.80000 1677.122
65.84000 1859.867
65.88000 1892.928
65.92000 1794.831
65.96000 1466.412
66.00000 982.892
66.04000 593.647
66.08000 451.475
66.12000 387.948
66.16000 374.634
66.20000 338.941
66.24000 387.659
66.28000 435.905
66.32000 510.698
66.36000 593.149
66.40000 614.763
66.44000 607.328
66.48000 586.270
66.52000 500.044
66.56000 436.404
66.60000 392.302
66.64000 377.770
66.68000 343.084
66.72000 336.446
66.76000 342.969
66.80000 332.241
66.84000 352.574
66.88000 348.451
66.92000 346.511
66.96000 338.948
67.00000 360.707
67.04000 370.950
67.08000 368.239
67.12000 370.177
67.16000 374.577
67.20000 379.675
67.24000 375.192
67.28000 378.988
67.32000 384.225
67.36000 398.435
67.40000 427.375
67.44000 393.761
67.48000 420.715
67.52000 405.186
67.56000 434.355
67.60000 423.795
67.64000 422.303
67.68000 429.091
67.72000 423.797
67.76000 448.964
67.80000 442.517
67.84000 460.338
67.88000 450.384
67.92000 481.957
67.96000 486.070
68.00000 488.811
68.04000 486.732
68.08000 483.007
68.12000 526.748
68.16000 517.055
68.20000 531.810
68.24000 530.648
68.28000 572.509
68.32000 571.467
68.36000 579.487
68.40000 634.517
68.44000 605.127
68.48000 652.127
68.52000 691.822
68.56000 732.629
68.60000 823.694
68.64000 912.810
68.68000 1075.176
68.72000 1241.954
68.76000 1431.708
68.80000 1606.256
68.84000 1819.911
68.88000 2265.774
68.92000 3585.363
68.96000 8863.783
69.00000 20590.619
69.04000 32801.293
69.08000 38958.250
69.12000 41529.203
69.16000 44588.285
69.20000 43715.570
69.24000 34724.969
69.28000 25436.063
69.32000 21223.748
69.36000 19985.070
69.40000 16593.910
69.44000 9985.604
69.48000 4415.196
69.52000 2064.647
69.56000 1274.284
69.60000 1036.083
69.64000 877.512
69.68000 778.228
69.72000 707.638
69.76000 678.725
69.80000 630.183
69.84000 567.504
69.88000 567.365
69.92000 531.610
69.96000 513.857
70.00000 496.848