File: XRD/XRD/08-10-2025 Dep 7/XY Data/BTO_Mapping_Theta2Theta_08-10-2025_001_37_-39-126_-8-316.xy
20.00000 479.034
20.04000 482.393
20.08000 494.113
20.12000 469.114
20.16000 468.535
20.20000 483.317
20.24000 466.725
20.28000 469.523
20.32000 469.375
20.36000 462.091
20.40000 481.712
20.44000 461.349
20.48000 477.454
20.52000 483.811
20.56000 473.460
20.60000 480.408
20.64000 486.080
20.68000 472.900
20.72000 467.635
20.76000 473.438
20.80000 472.162
20.84000 462.443
20.88000 474.054
20.92000 487.399
20.96000 496.080
21.00000 486.392
21.04000 473.794
21.08000 484.304
21.12000 498.516
21.16000 484.799
21.20000 483.396
21.24000 471.129
21.28000 475.220
21.32000 474.356
21.36000 477.896
21.40000 464.207
21.44000 479.458
21.48000 451.141
21.52000 484.819
21.56000 481.236
21.60000 500.369
21.64000 494.184
21.68000 538.897
21.72000 558.766
21.76000 607.740
21.80000 622.931
21.84000 693.814
21.88000 753.592
21.92000 784.479
21.96000 813.395
22.00000 816.614
22.04000 806.238
22.08000 782.096
22.12000 732.006
22.16000 675.751
22.20000 610.842
22.24000 569.709
22.28000 567.828
22.32000 529.016
22.36000 509.167
22.40000 494.389
22.44000 476.407
22.48000 461.709
22.52000 470.784
22.56000 444.537
22.60000 422.063
22.64000 446.007
22.68000 445.337
22.72000 444.172
22.76000 469.223
22.80000 447.112
22.84000 445.993
22.88000 438.739
22.92000 454.328
22.96000 445.968
23.00000 430.667
23.04000 437.490
23.08000 420.388
23.12000 452.822
23.16000 442.907
23.20000 445.194
23.24000 425.217
23.28000 459.386
23.32000 440.298
23.36000 417.851
23.40000 426.837
23.44000 419.411
23.48000 442.050
23.52000 418.413
23.56000 416.537
23.60000 431.229
23.64000 428.142
23.68000 434.975
23.72000 419.552
23.76000 404.070
23.80000 429.174
23.84000 423.914
23.88000 429.233
23.92000 418.960
23.96000 429.234
24.00000 412.024
24.04000 429.751
24.08000 430.889
24.12000 430.746
24.16000 421.823
24.20000 405.124
24.24000 404.559
24.28000 435.709
24.32000 431.926
24.36000 407.158
24.40000 413.196
24.44000 412.664
24.48000 416.906
24.52000 411.781
24.56000 411.316
24.60000 415.792
24.64000 411.525
24.68000 424.765
24.72000 407.005
24.76000 399.308
24.80000 415.294
24.84000 424.893
24.88000 400.981
24.92000 418.712
24.96000 416.780
25.00000 392.122
25.04000 397.338
25.08000 408.859
25.12000 399.101
25.16000 395.263
25.20000 404.619
25.24000 402.258
25.28000 396.011
25.32000 412.305
25.36000 404.293
25.40000 408.615
25.44000 395.557
25.48000 389.763
25.52000 400.699
25.56000 402.906
25.60000 398.477
25.64000 391.013
25.68000 388.569
25.72000 391.425
25.76000 383.680
25.80000 383.768
25.84000 390.756
25.88000 392.763
25.92000 413.644
25.96000 383.772
26.00000 389.973
26.04000 388.740
26.08000 380.084
26.12000 391.288
26.16000 386.146
26.20000 396.409
26.24000 379.558
26.28000 382.738
26.32000 378.097
26.36000 392.054
26.40000 388.006
26.44000 396.313
26.48000 394.958
26.52000 402.361
26.56000 389.183
26.60000 375.959
26.64000 389.559
26.68000 395.685
26.72000 374.219
26.76000 396.505
26.80000 400.016
26.84000 384.487
26.88000 385.633
26.92000 375.693
26.96000 397.141
27.00000 388.810
27.04000 382.627
27.08000 388.302
27.12000 375.380
27.16000 382.717
27.20000 394.457
27.24000 373.761
27.28000 386.741
27.32000 383.445
27.36000 386.188
27.40000 366.374
27.44000 370.635
27.48000 377.807
27.52000 365.799
27.56000 379.761
27.60000 362.933
27.64000 375.519
27.68000 360.255
27.72000 378.117
27.76000 350.198
27.80000 368.905
27.84000 367.639
27.88000 369.148
27.92000 375.335
27.96000 370.058
28.00000 378.908
28.04000 379.825
28.08000 382.305
28.12000 374.967
28.16000 372.768
28.20000 375.563
28.24000 386.745
28.28000 375.098
28.32000 377.090
28.36000 368.108
28.40000 391.683
28.44000 369.400
28.48000 381.123
28.52000 362.401
28.56000 359.217
28.60000 361.236
28.64000 356.986
28.68000 367.122
28.72000 358.952
28.76000 355.093
28.80000 368.012
28.84000 380.576
28.88000 346.408
28.92000 352.505
28.96000 368.374
29.00000 369.662
29.04000 376.793
29.08000 362.003
29.12000 358.883
29.16000 354.066
29.20000 352.505
29.24000 346.496
29.28000 356.783
29.32000 343.460
29.36000 361.793
29.40000 363.163
29.44000 357.631
29.48000 338.901
29.52000 364.724
29.56000 359.821
29.60000 382.052
29.64000 377.967
29.68000 395.723
29.72000 420.913
29.76000 402.557
29.80000 448.506
29.84000 458.803
29.88000 477.041
29.92000 490.499
29.96000 499.074
30.00000 493.347
30.04000 498.648
30.08000 474.463
30.12000 472.052
30.16000 455.929
30.20000 443.761
30.24000 450.943
30.28000 394.534
30.32000 416.468
30.36000 424.575
30.40000 400.681
30.44000 417.896
30.48000 405.102
30.52000 425.830
30.56000 425.430
30.60000 401.068
30.64000 413.977
30.68000 434.915
30.72000 438.445
30.76000 444.388
30.80000 450.394
30.84000 477.945
30.88000 544.049
30.92000 607.152
30.96000 721.955
31.00000 901.311
31.04000 1153.790
31.08000 1534.202
31.12000 2041.261
31.16000 2648.482
31.20000 3218.586
31.24000 3697.790
31.28000 4173.899
31.32000 4335.944
31.36000 4136.097
31.40000 3719.330
31.44000 3180.028
31.48000 2655.321
31.52000 2054.280
31.56000 1595.913
31.60000 1251.180
31.64000 964.173
31.68000 793.498
31.72000 659.490
31.76000 538.247
31.80000 500.090
31.84000 445.211
31.88000 416.410
31.92000 379.353
31.96000 366.071
32.00000 371.479
32.04000 346.670
32.08000 351.598
32.12000 343.094
32.16000 355.606
32.20000 330.067
32.24000 332.609
32.28000 314.123
32.32000 345.373
32.36000 335.203
32.40000 331.497
32.44000 324.279
32.48000 329.108
32.52000 319.306
32.56000 332.138
32.60000 320.288
32.64000 336.424
32.68000 319.252
32.72000 306.079
32.76000 315.249
32.80000 316.210
32.84000 327.101
32.88000 330.533
32.92000 331.468
32.96000 336.724
33.00000 338.977
33.04000 323.846
33.08000 317.822
33.12000 326.624
33.16000 313.595
33.20000 305.467
33.24000 304.882
33.28000 288.620
33.32000 304.025
33.36000 304.908
33.40000 284.002
33.44000 292.345
33.48000 284.094
33.52000 282.478
33.56000 308.138
33.60000 286.126
33.64000 302.701
33.68000 293.857
33.72000 297.379
33.76000 295.317
33.80000 281.458
33.84000 300.089
33.88000 299.904
33.92000 277.160
33.96000 283.192
34.00000 300.066
34.04000 286.999
34.08000 287.300
34.12000 279.169
34.16000 286.237
34.20000 284.755
34.24000 285.774
34.28000 283.314
34.32000 297.054
34.36000 279.594
34.40000 288.415
34.44000 283.072
34.48000 276.474
34.52000 271.324
34.56000 279.358
34.60000 278.994
34.64000 276.932
34.68000 268.508
34.72000 282.817
34.76000 277.402
34.80000 272.353
34.84000 283.749
34.88000 281.052
34.92000 299.830
34.96000 270.212
35.00000 288.300
35.04000 273.382
35.08000 269.086
35.12000 278.548
35.16000 262.879
35.20000 279.147
35.24000 270.919
35.28000 257.203
35.32000 269.836
35.36000 272.841
35.40000 264.609
35.44000 261.056
35.48000 268.404
35.52000 271.051
35.56000 280.050
35.60000 272.778
35.64000 267.694
35.68000 261.366
35.72000 255.476
35.76000 257.873
35.80000 247.623
35.84000 274.550
35.88000 263.610
35.92000 251.041
35.96000 254.677
36.00000 249.414
36.04000 257.451
36.08000 257.740
36.12000 273.557
36.16000 267.350
36.20000 270.699
36.24000 262.665
36.28000 265.614
36.32000 269.448
36.36000 266.579
36.40000 264.421
36.44000 254.859
36.48000 247.162
36.52000 267.460
36.56000 251.818
36.60000 242.988
36.64000 266.559
36.68000 257.149
36.72000 257.597
36.76000 268.716
36.80000 257.332
36.84000 262.600
36.88000 258.422
36.92000 260.455
36.96000 260.814
37.00000 258.766
37.04000 263.684
37.08000 260.234
37.12000 262.239
37.16000 244.908
37.20000 256.747
37.24000 254.972
37.28000 259.870
37.32000 245.980
37.36000 243.280
37.40000 247.281
37.44000 239.041
37.48000 253.275
37.52000 251.197
37.56000 243.362
37.60000 249.188
37.64000 243.167
37.68000 245.547
37.72000 241.071
37.76000 258.552
37.80000 251.995
37.84000 251.934
37.88000 238.436
37.92000 250.932
37.96000 246.204
38.00000 251.090
38.04000 246.584
38.08000 262.797
38.12000 260.306
38.16000 257.415
38.20000 262.209
38.24000 276.666
38.28000 298.278
38.32000 296.151
38.36000 322.497
38.40000 344.013
38.44000 368.291
38.48000 399.675
38.52000 438.425
38.56000 450.041
38.60000 483.922
38.64000 471.392
38.68000 488.324
38.72000 431.456
38.76000 417.033
38.80000 380.965
38.84000 344.850
38.88000 332.741
38.92000 314.037
38.96000 284.465
39.00000 270.923
39.04000 263.000
39.08000 256.453
39.12000 254.593
39.16000 235.243
39.20000 238.261
39.24000 232.315
39.28000 234.320
39.32000 212.896
39.36000 230.591
39.40000 224.472
39.44000 238.877
39.48000 227.270
39.52000 224.377
39.56000 219.695
39.60000 231.233
39.64000 225.200
39.68000 227.596
39.72000 225.725
39.76000 218.125
39.80000 233.594
39.84000 235.911
39.88000 239.978
39.92000 220.765
39.96000 235.476
40.00000 221.990
40.04000 216.785
40.08000 220.446
40.12000 221.688
40.16000 229.817
40.20000 226.823
40.24000 228.951
40.28000 243.703
40.32000 229.904
40.36000 213.844
40.40000 219.797
40.44000 213.916
40.48000 218.853
40.52000 219.158
40.56000 215.486
40.60000 217.901
40.64000 219.891
40.68000 231.955
40.72000 215.661
40.76000 218.522
40.80000 223.643
40.84000 203.988
40.88000 209.786
40.92000 209.506
40.96000 212.229
41.00000 232.312
41.04000 207.414
41.08000 204.270
41.12000 210.230
41.16000 218.208
41.20000 218.099
41.24000 220.590
41.28000 201.835
41.32000 207.106
41.36000 209.769
41.40000 211.477
41.44000 204.002
41.48000 204.102
41.52000 222.328
41.56000 209.177
41.60000 221.130
41.64000 205.099
41.68000 198.682
41.72000 219.285
41.76000 202.118
41.80000 203.592
41.84000 203.423
41.88000 204.740
41.92000 185.434
41.96000 204.244
42.00000 190.405
42.04000 210.408
42.08000 213.697
42.12000 207.438
42.16000 198.369
42.20000 204.823
42.24000 194.688
42.28000 211.077
42.32000 213.394
42.36000 203.487
42.40000 198.745
42.44000 202.349
42.48000 205.668
42.52000 200.013
42.56000 215.947
42.60000 202.280
42.64000 197.173
42.68000 204.187
42.72000 197.856
42.76000 213.878
42.80000 207.751
42.84000 199.307
42.88000 210.515
42.92000 203.807
42.96000 205.098
43.00000 201.832
43.04000 206.142
43.08000 208.841
43.12000 219.609
43.16000 209.233
43.20000 212.945
43.24000 200.435
43.28000 207.312
43.32000 207.257
43.36000 203.500
43.40000 201.575
43.44000 203.116
43.48000 191.721
43.52000 201.403
43.56000 194.368
43.60000 192.846
43.64000 194.133
43.68000 196.241
43.72000 215.351
43.76000 198.065
43.80000 200.645
43.84000 198.698
43.88000 186.071
43.92000 196.473
43.96000 204.849
44.00000 201.833
44.04000 204.578
44.08000 203.630
44.12000 204.957
44.16000 208.925
44.20000 217.731
44.24000 216.593
44.28000 214.451
44.32000 221.401
44.36000 225.046
44.40000 239.406
44.44000 256.135
44.48000 259.414
44.52000 270.195
44.56000 301.941
44.60000 335.937
44.64000 351.492
44.68000 401.666
44.72000 427.741
44.76000 480.934
44.80000 494.854
44.84000 511.564
44.88000 517.815
44.92000 506.882
44.96000 472.818
45.00000 466.221
45.04000 459.974
45.08000 422.969
45.12000 396.755
45.16000 371.126
45.20000 345.308
45.24000 321.266
45.28000 301.696
45.32000 287.572
45.36000 269.257
45.40000 254.244
45.44000 251.718
45.48000 249.808
45.52000 235.530
45.56000 238.575
45.60000 218.445
45.64000 217.363
45.68000 224.114
45.72000 210.192
45.76000 203.720
45.80000 189.917
45.84000 203.431
45.88000 202.655
45.92000 193.530
45.96000 192.892
46.00000 197.253
46.04000 194.170
46.08000 189.044
46.12000 188.732
46.16000 181.205
46.20000 172.668
46.24000 174.675
46.28000 167.767
46.32000 169.244
46.36000 179.807
46.40000 181.325
46.44000 175.795
46.48000 177.354
46.52000 182.038
46.56000 175.476
46.60000 174.360
46.64000 169.684
46.68000 178.656
46.72000 179.150
46.76000 168.730
46.80000 170.653
46.84000 175.555
46.88000 161.728
46.92000 175.823
46.96000 164.872
47.00000 177.801
47.04000 174.249
47.08000 162.540
47.12000 170.927
47.16000 173.257
47.20000 171.432
47.24000 159.175
47.28000 162.096
47.32000 171.854
47.36000 182.852
47.40000 176.573
47.44000 177.748
47.48000 169.407
47.52000 165.908
47.56000 163.829
47.60000 170.076
47.64000 159.215
47.68000 151.211
47.72000 164.169
47.76000 150.354
47.80000 161.534
47.84000 166.108
47.88000 168.780
47.92000 174.525
47.96000 150.323
48.00000 156.772
48.04000 177.410
48.08000 152.679
48.12000 170.241
48.16000 159.771
48.20000 168.312
48.24000 168.911
48.28000 171.005
48.32000 156.036
48.36000 158.890
48.40000 166.561
48.44000 165.863
48.48000 160.815
48.52000 166.089
48.56000 161.060
48.60000 157.852
48.64000 156.049
48.68000 167.130
48.72000 154.302
48.76000 171.612
48.80000 160.485
48.84000 160.587
48.88000 161.999
48.92000 157.441
48.96000 164.849
49.00000 154.772
49.04000 157.561
49.08000 156.104
49.12000 159.190
49.16000 166.930
49.20000 159.795
49.24000 160.227
49.28000 160.874
49.32000 157.084
49.36000 148.153
49.40000 159.668
49.44000 160.130
49.48000 155.858
49.52000 140.874
49.56000 163.858
49.60000 162.555
49.64000 163.380
49.68000 172.072
49.72000 162.193
49.76000 159.620
49.80000 170.847
49.84000 154.820
49.88000 143.530
49.92000 154.600
49.96000 165.495
50.00000 166.431
50.04000 164.583
50.08000 176.772
50.12000 172.251
50.16000 180.946
50.20000 178.393
50.24000 201.972
50.28000 213.903
50.32000 217.910
50.36000 230.184
50.40000 236.616
50.44000 249.197
50.48000 252.940
50.52000 268.381
50.56000 259.992
50.60000 273.611
50.64000 252.799
50.68000 254.723
50.72000 248.260
50.76000 222.681
50.80000 222.109
50.84000 202.117
50.88000 197.286
50.92000 185.056
50.96000 183.618
51.00000 174.840
51.04000 167.847
51.08000 177.722
51.12000 169.312
51.16000 165.306
51.20000 155.044
51.24000 152.658
51.28000 157.667
51.32000 155.478
51.36000 154.556
51.40000 147.984
51.44000 153.903
51.48000 150.420
51.52000 158.131
51.56000 153.499
51.60000 145.446
51.64000 145.950
51.68000 154.165
51.72000 144.708
51.76000 142.771
51.80000 155.860
51.84000 144.863
51.88000 140.223
51.92000 138.918
51.96000 155.596
52.00000 142.815
52.04000 141.070
52.08000 143.470
52.12000 150.886
52.16000 136.746
52.20000 148.872
52.24000 143.445
52.28000 138.113
52.32000 145.510
52.36000 143.695
52.40000 145.153
52.44000 150.540
52.48000 141.789
52.52000 143.053
52.56000 136.412
52.60000 137.991
52.64000 144.151
52.68000 152.367
52.72000 141.141
52.76000 146.786
52.80000 144.280
52.84000 146.018
52.88000 140.723
52.92000 142.744
52.96000 152.156
53.00000 151.076
53.04000 146.914
53.08000 160.856
53.12000 158.729
53.16000 157.754
53.20000 157.099
53.24000 154.603
53.28000 152.037
53.32000 154.775
53.36000 165.911
53.40000 148.766
53.44000 151.250
53.48000 159.007
53.52000 144.929
53.56000 155.507
53.60000 145.173
53.64000 147.003
53.68000 133.247
53.72000 140.798
53.76000 154.660
53.80000 153.581
53.84000 141.646
53.88000 129.084
53.92000 144.206
53.96000 144.418
54.00000 155.902
54.04000 138.826
54.08000 149.274
54.12000 137.857
54.16000 132.144
54.20000 124.063
54.24000 144.879
54.28000 145.454
54.32000 150.049
54.36000 132.239
54.40000 144.528
54.44000 152.812
54.48000 149.383
54.52000 135.164
54.56000 139.970
54.60000 143.459
54.64000 142.875
54.68000 150.678
54.72000 145.498
54.76000 146.761
54.80000 138.862
54.84000 138.711
54.88000 141.031
54.92000 145.301
54.96000 147.494
55.00000 163.005
55.04000 152.528
55.08000 156.052
55.12000 162.835
55.16000 152.123
55.20000 160.295
55.24000 185.222
55.28000 190.791
55.32000 214.822
55.36000 231.854
55.40000 274.964
55.44000 298.681
55.48000 334.225
55.52000 381.851
55.56000 454.830
55.60000 476.346
55.64000 542.888
55.68000 576.879
55.72000 600.288
55.76000 604.583
55.80000 606.125
55.84000 583.523
55.88000 583.860
55.92000 563.644
55.96000 525.631
56.00000 460.249
56.04000 415.631
56.08000 378.625
56.12000 332.990
56.16000 285.021
56.20000 262.103
56.24000 236.407
56.28000 229.081
56.32000 199.583
56.36000 199.259
56.40000 175.397
56.44000 174.111
56.48000 146.894
56.52000 160.705
56.56000 145.638
56.60000 147.432
56.64000 145.058
56.68000 139.278
56.72000 147.891
56.76000 139.726
56.80000 128.865
56.84000 141.065
56.88000 128.166
56.92000 130.951
56.96000 129.231
57.00000 136.919
57.04000 133.300
57.08000 126.191
57.12000 131.069
57.16000 129.896
57.20000 131.405
57.24000 124.365
57.28000 127.031
57.32000 117.722
57.36000 127.648
57.40000 124.361
57.44000 133.101
57.48000 130.181
57.52000 124.084
57.56000 129.498
57.60000 132.943
57.64000 127.461
57.68000 127.762
57.72000 125.231
57.76000 131.560
57.80000 127.246
57.84000 135.437
57.88000 121.764
57.92000 124.244
57.96000 112.645
58.00000 127.694
58.04000 121.232
58.08000 121.311
58.12000 122.817
58.16000 125.977
58.20000 130.745
58.24000 123.371
58.28000 123.959
58.32000 123.879
58.36000 117.861
58.40000 119.621
58.44000 125.339
58.48000 120.338
58.52000 123.002
58.56000 125.555
58.60000 125.851
58.64000 124.736
58.68000 116.740
58.72000 113.749
58.76000 120.188
58.80000 123.335
58.84000 119.719
58.88000 117.957
58.92000 122.853
58.96000 124.096
59.00000 115.392
59.04000 116.165
59.08000 119.551
59.12000 116.712
59.16000 116.652
59.20000 128.420
59.24000 116.435
59.28000 123.916
59.32000 118.021
59.36000 120.141
59.40000 115.182
59.44000 118.090
59.48000 108.638
59.52000 118.059
59.56000 124.856
59.60000 110.626
59.64000 115.904
59.68000 118.557
59.72000 121.508
59.76000 119.521
59.80000 118.538
59.84000 113.761
59.88000 121.115
59.92000 118.108
59.96000 124.269
60.00000 110.123
60.04000 110.926
60.08000 114.068
60.12000 122.482
60.16000 115.519
60.20000 115.729
60.24000 117.366
60.28000 126.109
60.32000 98.225
60.36000 124.691
60.40000 116.843
60.44000 115.493
60.48000 111.388
60.52000 119.787
60.56000 119.119
60.60000 113.513
60.64000 127.814
60.68000 128.596
60.72000 120.411
60.76000 119.638
60.80000 120.847
60.84000 128.604
60.88000 114.324
60.92000 113.254
60.96000 116.516
61.00000 121.552
61.04000 125.920
61.08000 124.609
61.12000 123.130
61.16000 130.483
61.20000 124.917
61.24000 130.331
61.28000 127.412
61.32000 121.330
61.36000 122.099
61.40000 120.752
61.44000 133.708
61.48000 137.985
61.52000 159.425
61.56000 197.466
61.60000 293.205
61.64000 350.313
61.68000 386.237
61.72000 389.423
61.76000 394.401
61.80000 349.084
61.84000 267.343
61.88000 192.538
61.92000 160.786
61.96000 143.216
62.00000 132.691
62.04000 141.543
62.08000 129.483
62.12000 134.170
62.16000 143.584
62.20000 142.666
62.24000 138.592
62.28000 122.811
62.32000 143.738
62.36000 142.856
62.40000 141.468
62.44000 139.800
62.48000 138.078
62.52000 142.671
62.56000 142.405
62.60000 133.059
62.64000 140.369
62.68000 143.999
62.72000 139.759
62.76000 135.129
62.80000 134.413
62.84000 141.123
62.88000 137.881
62.92000 134.980
62.96000 141.743
63.00000 134.542
63.04000 146.937
63.08000 146.464
63.12000 152.292
63.16000 135.054
63.20000 141.572
63.24000 141.253
63.28000 146.024
63.32000 136.359
63.36000 140.692
63.40000 144.619
63.44000 146.396
63.48000 138.403
63.52000 138.043
63.56000 136.740
63.60000 150.127
63.64000 158.727
63.68000 143.330
63.72000 147.943
63.76000 148.461
63.80000 147.666
63.84000 153.477
63.88000 145.762
63.92000 146.424
63.96000 160.150
64.00000 149.090
64.04000 152.879
64.08000 159.364
64.12000 155.241
64.16000 150.926
64.20000 151.679
64.24000 148.910
64.28000 164.617
64.32000 164.969
64.36000 158.755
64.40000 158.276
64.44000 179.125
64.48000 164.075
64.52000 176.945
64.56000 176.959
64.60000 172.129
64.64000 178.238
64.68000 182.109
64.72000 190.294
64.76000 201.539
64.80000 223.885
64.84000 226.024
64.88000 237.556
64.92000 242.291
64.96000 261.118
65.00000 283.997
65.04000 292.867
65.08000 332.592
65.12000 325.956
65.16000 360.323
65.20000 395.742
65.24000 409.208
65.28000 429.373
65.32000 429.429
65.36000 464.851
65.40000 460.705
65.44000 473.569
65.48000 463.519
65.52000 494.603
65.56000 497.450
65.60000 522.923
65.64000 569.408
65.68000 723.722
65.72000 1026.883
65.76000 1632.774
65.80000 2293.387
65.84000 2844.877
65.88000 2979.708
65.92000 2975.915
65.96000 2666.031
66.00000 2017.232
66.04000 1316.301
66.08000 831.618
66.12000 598.145
66.16000 535.583
66.20000 466.408
66.24000 488.747
66.28000 533.675
66.32000 652.460
66.36000 775.056
66.40000 829.552
66.44000 864.349
66.48000 856.011
66.52000 796.357
66.56000 670.296
66.60000 543.498
66.64000 483.708
66.68000 428.627
66.72000 431.824
66.76000 413.667
66.80000 414.134
66.84000 441.958
66.88000 421.079
66.92000 438.378
66.96000 438.505
67.00000 444.181
67.04000 454.764
67.08000 446.027
67.12000 462.046
67.16000 476.812
67.20000 462.062
67.24000 459.637
67.28000 444.805
67.32000 470.669
67.36000 480.391
67.40000 477.449
67.44000 494.418
67.48000 493.065
67.52000 520.870
67.56000 507.440
67.60000 517.283
67.64000 516.360
67.68000 526.235
67.72000 527.608
67.76000 544.966
67.80000 543.513
67.84000 554.173
67.88000 567.321
67.92000 576.104
67.96000 573.362
68.00000 595.943
68.04000 602.570
68.08000 609.190
68.12000 608.582
68.16000 620.987
68.20000 634.142
68.24000 661.181
68.28000 673.725
68.32000 692.591
68.36000 697.085
68.40000 733.629
68.44000 735.937
68.48000 787.951
68.52000 809.971
68.56000 890.462
68.60000 983.140
68.64000 1108.109
68.68000 1354.629
68.72000 1567.595
68.76000 1920.267
68.80000 2193.454
68.84000 2606.933
68.88000 3301.735
68.92000 4862.909
68.96000 9112.125
69.00000 21335.588
69.04000 40481.195
69.08000 57031.137
69.12000 65018.750
69.16000 69625.148
69.20000 71999.867
69.24000 66444.203
69.28000 52761.438
69.32000 40163.574
69.36000 34355.605
69.40000 30517.033
69.44000 22995.777
69.48000 13444.719
69.52000 6279.592
69.56000 2842.315
69.60000 1741.663
69.64000 1307.927
69.68000 1098.634
69.72000 960.400
69.76000 829.761
69.80000 784.064
69.84000 725.086
69.88000 668.678
69.92000 610.213
69.96000 590.191
70.00000 578.502