File: XRD/XRD/08-10-2025 Dep 7/XY Data/BTO_Mapping_Theta2Theta_08-10-2025_001_02_10-000_0-000.xy
20.00000 480.218
20.04000 467.625
20.08000 473.493
20.12000 487.292
20.16000 470.854
20.20000 479.149
20.24000 481.652
20.28000 475.856
20.32000 476.353
20.36000 474.692
20.40000 452.728
20.44000 467.202
20.48000 462.314
20.52000 466.671
20.56000 468.911
20.60000 474.086
20.64000 474.423
20.68000 463.519
20.72000 470.218
20.76000 482.126
20.80000 460.428
20.84000 445.540
20.88000 472.318
20.92000 457.477
20.96000 457.221
21.00000 459.741
21.04000 454.208
21.08000 465.097
21.12000 472.444
21.16000 464.870
21.20000 470.300
21.24000 465.578
21.28000 473.386
21.32000 456.244
21.36000 472.428
21.40000 465.325
21.44000 450.945
21.48000 470.590
21.52000 453.134
21.56000 444.418
21.60000 467.448
21.64000 472.080
21.68000 462.901
21.72000 484.023
21.76000 471.789
21.80000 490.437
21.84000 486.742
21.88000 491.202
21.92000 505.086
21.96000 528.010
22.00000 528.161
22.04000 509.455
22.08000 514.684
22.12000 511.710
22.16000 500.900
22.20000 512.381
22.24000 509.874
22.28000 473.274
22.32000 482.594
22.36000 502.754
22.40000 476.207
22.44000 469.257
22.48000 456.546
22.52000 437.162
22.56000 447.869
22.60000 454.980
22.64000 460.227
22.68000 450.680
22.72000 447.062
22.76000 456.574
22.80000 456.884
22.84000 445.587
22.88000 445.749
22.92000 437.963
22.96000 445.574
23.00000 441.714
23.04000 446.991
23.08000 446.844
23.12000 449.247
23.16000 424.836
23.20000 443.959
23.24000 442.800
23.28000 430.819
23.32000 425.824
23.36000 429.899
23.40000 453.688
23.44000 469.247
23.48000 439.626
23.52000 457.645
23.56000 451.007
23.60000 467.498
23.64000 447.662
23.68000 472.012
23.72000 465.831
23.76000 482.682
23.80000 494.965
23.84000 526.725
23.88000 509.916
23.92000 528.456
23.96000 549.983
24.00000 543.557
24.04000 542.009
24.08000 550.676
24.12000 514.479
24.16000 486.510
24.20000 469.624
24.24000 469.822
24.28000 447.672
24.32000 448.327
24.36000 422.269
24.40000 449.049
24.44000 434.958
24.48000 422.530
24.52000 425.922
24.56000 418.689
24.60000 412.842
24.64000 412.052
24.68000 409.301
24.72000 421.671
24.76000 427.171
24.80000 424.929
24.84000 411.205
24.88000 402.708
24.92000 412.660
24.96000 405.189
25.00000 421.029
25.04000 409.619
25.08000 420.152
25.12000 402.349
25.16000 409.230
25.20000 411.564
25.24000 405.456
25.28000 409.452
25.32000 400.918
25.36000 415.434
25.40000 394.574
25.44000 381.429
25.48000 399.718
25.52000 383.445
25.56000 399.172
25.60000 397.158
25.64000 386.433
25.68000 390.276
25.72000 397.734
25.76000 408.800
25.80000 384.953
25.84000 392.747
25.88000 392.057
25.92000 373.351
25.96000 392.401
26.00000 394.884
26.04000 398.908
26.08000 389.226
26.12000 382.306
26.16000 397.189
26.20000 395.000
26.24000 377.677
26.28000 389.570
26.32000 385.669
26.36000 380.233
26.40000 369.148
26.44000 381.655
26.48000 392.551
26.52000 380.180
26.56000 402.780
26.60000 390.080
26.64000 363.534
26.68000 385.415
26.72000 382.736
26.76000 391.336
26.80000 387.058
26.84000 387.387
26.88000 373.917
26.92000 389.408
26.96000 397.788
27.00000 370.138
27.04000 389.850
27.08000 365.361
27.12000 366.921
27.16000 380.615
27.20000 379.402
27.24000 375.856
27.28000 366.745
27.32000 376.031
27.36000 366.987
27.40000 363.181
27.44000 372.880
27.48000 390.662
27.52000 361.733
27.56000 376.990
27.60000 382.806
27.64000 372.273
27.68000 358.712
27.72000 369.602
27.76000 375.620
27.80000 368.265
27.84000 360.654
27.88000 360.283
27.92000 371.316
27.96000 382.082
28.00000 369.613
28.04000 369.091
28.08000 368.333
28.12000 376.277
28.16000 360.549
28.20000 378.544
28.24000 363.697
28.28000 372.914
28.32000 359.111
28.36000 367.224
28.40000 373.022
28.44000 358.350
28.48000 351.050
28.52000 354.147
28.56000 385.225
28.60000 352.780
28.64000 354.393
28.68000 360.739
28.72000 349.674
28.76000 356.551
28.80000 361.242
28.84000 349.088
28.88000 355.084
28.92000 370.529
28.96000 345.608
29.00000 364.801
29.04000 350.207
29.08000 352.584
29.12000 342.583
29.16000 355.206
29.20000 346.641
29.24000 343.797
29.28000 346.255
29.32000 360.112
29.36000 350.876
29.40000 355.548
29.44000 361.777
29.48000 351.518
29.52000 360.819
29.56000 349.788
29.60000 354.910
29.64000 370.258
29.68000 371.601
29.72000 366.515
29.76000 365.602
29.80000 355.452
29.84000 371.259
29.88000 386.508
29.92000 370.626
29.96000 380.296
30.00000 368.179
30.04000 384.215
30.08000 397.824
30.12000 381.066
30.16000 375.349
30.20000 377.004
30.24000 377.839
30.28000 376.701
30.32000 364.920
30.36000 362.274
30.40000 356.713
30.44000 368.532
30.48000 364.867
30.52000 377.186
30.56000 366.217
30.60000 379.203
30.64000 380.951
30.68000 373.181
30.72000 369.219
30.76000 380.015
30.80000 382.268
30.84000 405.470
30.88000 405.771
30.92000 415.590
30.96000 434.726
31.00000 481.358
31.04000 503.689
31.08000 563.894
31.12000 658.514
31.16000 734.248
31.20000 853.696
31.24000 930.145
31.28000 1090.026
31.32000 1166.605
31.36000 1225.140
31.40000 1237.416
31.44000 1214.324
31.48000 1064.075
31.52000 937.186
31.56000 831.187
31.60000 716.915
31.64000 610.113
31.68000 542.668
31.72000 510.765
31.76000 443.357
31.80000 396.888
31.84000 404.716
31.88000 375.934
31.92000 381.277
31.96000 367.283
32.00000 366.022
32.04000 354.663
32.08000 352.661
32.12000 338.884
32.16000 350.492
32.20000 340.380
32.24000 341.298
32.28000 328.870
32.32000 327.585
32.36000 340.577
32.40000 331.697
32.44000 319.837
32.48000 327.663
32.52000 335.100
32.56000 324.476
32.60000 328.087
32.64000 334.044
32.68000 314.677
32.72000 317.681
32.76000 306.872
32.80000 319.561
32.84000 334.297
32.88000 341.012
32.92000 329.476
32.96000 316.146
33.00000 318.962
33.04000 311.172
33.08000 307.353
33.12000 311.299
33.16000 292.628
33.20000 304.216
33.24000 298.672
33.28000 317.949
33.32000 310.394
33.36000 307.791
33.40000 295.492
33.44000 302.715
33.48000 287.495
33.52000 283.197
33.56000 297.166
33.60000 303.574
33.64000 308.979
33.68000 308.301
33.72000 286.941
33.76000 307.918
33.80000 309.710
33.84000 300.796
33.88000 296.712
33.92000 310.011
33.96000 317.599
34.00000 329.360
34.04000 340.623
34.08000 323.963
34.12000 350.455
34.16000 338.942
34.20000 329.089
34.24000 336.262
34.28000 335.302
34.32000 357.008
34.36000 355.195
34.40000 342.417
34.44000 343.399
34.48000 353.960
34.52000 353.524
34.56000 350.138
34.60000 330.103
34.64000 311.033
34.68000 307.659
34.72000 299.906
34.76000 301.723
34.80000 289.076
34.84000 291.773
34.88000 278.519
34.92000 294.485
34.96000 287.435
35.00000 270.820
35.04000 285.258
35.08000 269.573
35.12000 279.527
35.16000 287.292
35.20000 266.489
35.24000 269.794
35.28000 261.207
35.32000 270.266
35.36000 278.148
35.40000 269.321
35.44000 268.265
35.48000 273.941
35.52000 270.334
35.56000 276.300
35.60000 260.956
35.64000 264.709
35.68000 262.950
35.72000 268.893
35.76000 264.103
35.80000 291.282
35.84000 260.446
35.88000 262.030
35.92000 261.043
35.96000 267.523
36.00000 257.158
36.04000 263.867
36.08000 254.177
36.12000 260.902
36.16000 265.270
36.20000 278.448
36.24000 258.150
36.28000 265.284
36.32000 263.306
36.36000 254.462
36.40000 258.005
36.44000 244.015
36.48000 257.546
36.52000 248.330
36.56000 259.844
36.60000 257.844
36.64000 259.331
36.68000 255.268
36.72000 246.507
36.76000 254.698
36.80000 265.213
36.84000 266.406
36.88000 261.441
36.92000 272.680
36.96000 276.191
37.00000 291.009
37.04000 276.974
37.08000 294.196
37.12000 274.795
37.16000 275.405
37.20000 280.045
37.24000 267.165
37.28000 258.536
37.32000 267.344
37.36000 250.158
37.40000 256.190
37.44000 255.617
37.48000 263.044
37.52000 261.561
37.56000 246.964
37.60000 260.234
37.64000 252.162
37.68000 255.351
37.72000 263.810
37.76000 250.620
37.80000 264.611
37.84000 258.958
37.88000 262.814
37.92000 256.477
37.96000 252.129
38.00000 248.571
38.04000 255.635
38.08000 251.549
38.12000 267.835
38.16000 256.011
38.20000 262.718
38.24000 275.324
38.28000 284.036
38.32000 296.491
38.36000 329.188
38.40000 359.750
38.44000 428.635
38.48000 493.481
38.52000 572.697
38.56000 703.421
38.60000 801.935
38.64000 923.053
38.68000 986.756
38.72000 970.857
38.76000 964.577
38.80000 912.915
38.84000 766.499
38.88000 655.492
38.92000 554.946
38.96000 436.895
39.00000 381.908
39.04000 306.570
39.08000 283.333
39.12000 254.503
39.16000 247.308
39.20000 248.882
39.24000 242.677
39.28000 244.461
39.32000 226.518
39.36000 237.342
39.40000 235.505
39.44000 242.408
39.48000 245.869
39.52000 249.542
39.56000 241.935
39.60000 232.822
39.64000 241.288
39.68000 241.805
39.72000 248.812
39.76000 232.355
39.80000 231.005
39.84000 238.955
39.88000 217.908
39.92000 241.143
39.96000 223.110
40.00000 244.280
40.04000 230.645
40.08000 216.523
40.12000 231.881
40.16000 237.588
40.20000 217.931
40.24000 220.202
40.28000 220.639
40.32000 213.934
40.36000 227.054
40.40000 205.027
40.44000 219.958
40.48000 214.757
40.52000 220.549
40.56000 208.608
40.60000 228.582
40.64000 227.028
40.68000 226.578
40.72000 216.254
40.76000 209.410
40.80000 218.084
40.84000 213.711
40.88000 204.374
40.92000 221.238
40.96000 216.734
41.00000 209.084
41.04000 220.361
41.08000 212.173
41.12000 227.044
41.16000 208.468
41.20000 201.246
41.24000 214.085
41.28000 230.175
41.32000 214.239
41.36000 207.068
41.40000 215.474
41.44000 193.884
41.48000 214.962
41.52000 223.538
41.56000 214.480
41.60000 208.941
41.64000 208.505
41.68000 211.693
41.72000 208.463
41.76000 214.551
41.80000 204.943
41.84000 201.051
41.88000 222.927
41.92000 221.087
41.96000 204.582
42.00000 217.661
42.04000 216.819
42.08000 218.078
42.12000 208.636
42.16000 220.063
42.20000 219.497
42.24000 208.425
42.28000 215.869
42.32000 212.917
42.36000 233.249
42.40000 218.443
42.44000 213.410
42.48000 225.223
42.52000 214.024
42.56000 206.778
42.60000 224.367
42.64000 213.692
42.68000 214.772
42.72000 212.999
42.76000 202.841
42.80000 204.704
42.84000 212.311
42.88000 210.070
42.92000 198.929
42.96000 192.176
43.00000 182.962
43.04000 206.193
43.08000 206.375
43.12000 189.402
43.16000 186.611
43.20000 195.636
43.24000 201.391
43.28000 191.631
43.32000 204.240
43.36000 203.614
43.40000 210.316
43.44000 196.329
43.48000 186.262
43.52000 196.063
43.56000 192.385
43.60000 209.096
43.64000 195.170
43.68000 193.814
43.72000 196.527
43.76000 188.959
43.80000 186.906
43.84000 193.489
43.88000 190.737
43.92000 196.383
43.96000 186.454
44.00000 194.762
44.04000 192.991
44.08000 188.545
44.12000 195.628
44.16000 198.452
44.20000 194.471
44.24000 186.201
44.28000 195.319
44.32000 190.743
44.36000 196.804
44.40000 205.618
44.44000 215.878
44.48000 215.255
44.52000 212.930
44.56000 212.346
44.60000 221.876
44.64000 219.143
44.68000 234.706
44.72000 229.961
44.76000 233.855
44.80000 226.661
44.84000 227.837
44.88000 239.725
44.92000 246.294
44.96000 254.067
45.00000 245.766
45.04000 242.368
45.08000 233.462
45.12000 241.774
45.16000 235.664
45.20000 238.612
45.24000 233.079
45.28000 235.007
45.32000 240.186
45.36000 208.001
45.40000 213.980
45.44000 206.428
45.48000 204.897
45.52000 205.909
45.56000 206.761
45.60000 195.430
45.64000 190.694
45.68000 201.519
45.72000 192.736
45.76000 198.701
45.80000 188.683
45.84000 177.435
45.88000 187.492
45.92000 186.296
45.96000 182.462
46.00000 178.370
46.04000 186.473
46.08000 179.773
46.12000 180.946
46.16000 193.681
46.20000 175.759
46.24000 181.365
46.28000 170.796
46.32000 182.028
46.36000 175.167
46.40000 169.637
46.44000 178.554
46.48000 185.150
46.52000 180.549
46.56000 179.346
46.60000 180.129
46.64000 169.486
46.68000 173.793
46.72000 178.054
46.76000 183.745
46.80000 176.744
46.84000 179.966
46.88000 178.232
46.92000 183.676
46.96000 172.072
47.00000 168.826
47.04000 170.289
47.08000 171.589
47.12000 171.215
47.16000 180.092
47.20000 177.081
47.24000 166.026
47.28000 167.151
47.32000 173.715
47.36000 161.735
47.40000 160.311
47.44000 158.364
47.48000 172.543
47.52000 160.944
47.56000 167.949
47.60000 169.426
47.64000 167.124
47.68000 174.141
47.72000 165.877
47.76000 158.194
47.80000 152.417
47.84000 160.634
47.88000 164.669
47.92000 159.971
47.96000 165.282
48.00000 161.774
48.04000 154.877
48.08000 165.243
48.12000 157.867
48.16000 160.185
48.20000 157.518
48.24000 155.256
48.28000 143.680
48.32000 154.425
48.36000 151.795
48.40000 149.746
48.44000 148.832
48.48000 147.993
48.52000 158.537
48.56000 158.648
48.60000 157.020
48.64000 157.074
48.68000 153.882
48.72000 153.605
48.76000 151.624
48.80000 155.387
48.84000 155.477
48.88000 157.683
48.92000 151.810
48.96000 161.639
49.00000 164.132
49.04000 148.722
49.08000 154.416
49.12000 152.619
49.16000 150.437
49.20000 150.356
49.24000 161.242
49.28000 158.190
49.32000 158.813
49.36000 153.982
49.40000 153.460
49.44000 150.449
49.48000 160.228
49.52000 150.611
49.56000 151.538
49.60000 155.918
49.64000 164.484
49.68000 150.290
49.72000 152.464
49.76000 154.108
49.80000 149.804
49.84000 159.588
49.88000 153.629
49.92000 141.245
49.96000 141.597
50.00000 142.351
50.04000 157.779
50.08000 161.509
50.12000 152.760
50.16000 158.978
50.20000 165.827
50.24000 159.091
50.28000 149.395
50.32000 156.847
50.36000 161.224
50.40000 160.743
50.44000 155.684
50.48000 165.962
50.52000 154.463
50.56000 149.604
50.60000 165.413
50.64000 165.238
50.68000 157.725
50.72000 167.623
50.76000 166.332
50.80000 161.938
50.84000 162.267
50.88000 160.104
50.92000 159.099
50.96000 146.511
51.00000 146.865
51.04000 158.011
51.08000 150.370
51.12000 152.903
51.16000 168.214
51.20000 149.978
51.24000 148.175
51.28000 143.815
51.32000 140.229
51.36000 148.974
51.40000 145.789
51.44000 151.965
51.48000 142.778
51.52000 142.076
51.56000 149.611
51.60000 141.248
51.64000 140.467
51.68000 150.706
51.72000 151.378
51.76000 141.304
51.80000 135.910
51.84000 139.725
51.88000 132.687
51.92000 154.643
51.96000 145.914
52.00000 140.416
52.04000 134.440
52.08000 132.551
52.12000 129.402
52.16000 139.434
52.20000 138.344
52.24000 146.627
52.28000 147.987
52.32000 135.224
52.36000 144.590
52.40000 152.162
52.44000 146.395
52.48000 138.373
52.52000 138.270
52.56000 146.503
52.60000 139.890
52.64000 160.042
52.68000 143.982
52.72000 138.341
52.76000 137.751
52.80000 136.699
52.84000 154.919
52.88000 132.452
52.92000 143.673
52.96000 147.594
53.00000 145.556
53.04000 149.184
53.08000 153.466
53.12000 147.460
53.16000 160.389
53.20000 148.904
53.24000 152.030
53.28000 143.420
53.32000 154.916
53.36000 153.724
53.40000 156.769
53.44000 160.005
53.48000 150.212
53.52000 143.543
53.56000 153.882
53.60000 162.725
53.64000 147.378
53.68000 149.167
53.72000 140.461
53.76000 134.647
53.80000 145.352
53.84000 143.676
53.88000 152.056
53.92000 157.155
53.96000 148.698
54.00000 157.554
54.04000 141.751
54.08000 142.505
54.12000 148.295
54.16000 143.704
54.20000 149.584
54.24000 146.138
54.28000 135.737
54.32000 136.077
54.36000 135.246
54.40000 140.627
54.44000 149.203
54.48000 143.620
54.52000 136.138
54.56000 146.163
54.60000 135.993
54.64000 152.032
54.68000 140.127
54.72000 125.827
54.76000 144.964
54.80000 143.844
54.84000 144.707
54.88000 143.228
54.92000 152.259
54.96000 150.376
55.00000 152.794
55.04000 154.819
55.08000 154.576
55.12000 144.679
55.16000 153.585
55.20000 155.233
55.24000 151.947
55.28000 165.230
55.32000 157.982
55.36000 174.154
55.40000 175.199
55.44000 189.263
55.48000 198.459
55.52000 218.227
55.56000 245.944
55.60000 260.920
55.64000 293.374
55.68000 346.129
55.72000 376.342
55.76000 427.531
55.80000 464.739
55.84000 517.821
55.88000 567.535
55.92000 557.850
55.96000 562.655
56.00000 545.763
56.04000 518.318
56.08000 475.729
56.12000 436.737
56.16000 372.063
56.20000 336.049
56.24000 293.318
56.28000 257.424
56.32000 225.435
56.36000 199.652
56.40000 191.638
56.44000 174.967
56.48000 173.760
56.52000 159.149
56.56000 158.073
56.60000 151.254
56.64000 153.538
56.68000 137.969
56.72000 146.685
56.76000 135.791
56.80000 126.732
56.84000 137.108
56.88000 141.289
56.92000 134.607
56.96000 131.363
57.00000 149.608
57.04000 129.340
57.08000 131.528
57.12000 121.105
57.16000 131.914
57.20000 140.211
57.24000 125.190
57.28000 126.198
57.32000 136.757
57.36000 119.817
57.40000 123.385
57.44000 126.214
57.48000 136.141
57.52000 122.693
57.56000 122.798
57.60000 123.392
57.64000 124.487
57.68000 127.685
57.72000 117.148
57.76000 129.253
57.80000 119.424
57.84000 114.969
57.88000 128.966
57.92000 132.543
57.96000 130.002
58.00000 132.878
58.04000 121.862
58.08000 129.902
58.12000 131.135
58.16000 127.290
58.20000 119.461
58.24000 130.980
58.28000 118.910
58.32000 118.224
58.36000 110.362
58.40000 119.167
58.44000 112.963
58.48000 115.794
58.52000 117.110
58.56000 112.430
58.60000 125.788
58.64000 115.429
58.68000 127.147
58.72000 119.114
58.76000 119.061
58.80000 113.604
58.84000 127.994
58.88000 105.062
58.92000 120.406
58.96000 126.847
59.00000 124.739
59.04000 120.879
59.08000 119.332
59.12000 113.149
59.16000 108.021
59.20000 115.778
59.24000 128.083
59.28000 124.422
59.32000 118.959
59.36000 124.489
59.40000 111.067
59.44000 121.452
59.48000 121.350
59.52000 124.724
59.56000 116.237
59.60000 115.596
59.64000 118.236
59.68000 124.101
59.72000 125.432
59.76000 117.513
59.80000 120.419
59.84000 115.321
59.88000 120.215
59.92000 129.201
59.96000 121.745
60.00000 110.945
60.04000 113.953
60.08000 114.933
60.12000 123.151
60.16000 119.982
60.20000 118.724
60.24000 123.860
60.28000 121.914
60.32000 122.506
60.36000 116.146
60.40000 114.064
60.44000 119.060
60.48000 114.806
60.52000 119.679
60.56000 116.933
60.60000 122.845
60.64000 116.292
60.68000 126.039
60.72000 121.792
60.76000 128.183
60.80000 120.978
60.84000 124.038
60.88000 120.615
60.92000 115.229
60.96000 121.203
61.00000 118.510
61.04000 121.016
61.08000 128.249
61.12000 130.767
61.16000 124.866
61.20000 128.058
61.24000 125.346
61.28000 132.937
61.32000 127.467
61.36000 130.250
61.40000 135.277
61.44000 139.535
61.48000 142.963
61.52000 151.670
61.56000 196.145
61.60000 253.954
61.64000 266.190
61.68000 284.791
61.72000 275.903
61.76000 276.328
61.80000 217.006
61.84000 169.721
61.88000 136.772
61.92000 139.876
61.96000 137.089
62.00000 119.023
62.04000 128.572
62.08000 128.924
62.12000 133.543
62.16000 131.719
62.20000 125.178
62.24000 130.496
62.28000 123.780
62.32000 126.638
62.36000 124.805
62.40000 118.127
62.44000 125.052
62.48000 123.623
62.52000 133.438
62.56000 134.007
62.60000 130.522
62.64000 128.952
62.68000 130.961
62.72000 126.954
62.76000 129.717
62.80000 129.158
62.84000 124.676
62.88000 131.965
62.92000 130.558
62.96000 124.934
63.00000 127.554
63.04000 124.905
63.08000 134.488
63.12000 134.523
63.16000 135.053
63.20000 145.734
63.24000 130.018
63.28000 133.074
63.32000 126.826
63.36000 137.078
63.40000 133.452
63.44000 126.703
63.48000 140.528
63.52000 135.566
63.56000 137.674
63.60000 135.736
63.64000 127.217
63.68000 142.199
63.72000 141.780
63.76000 146.876
63.80000 140.517
63.84000 127.600
63.88000 152.026
63.92000 140.323
63.96000 142.674
64.00000 146.303
64.04000 147.145
64.08000 136.668
64.12000 150.632
64.16000 157.091
64.20000 139.012
64.24000 149.732
64.28000 150.511
64.32000 162.572
64.36000 153.946
64.40000 156.635
64.44000 152.681
64.48000 154.975
64.52000 157.157
64.56000 160.089
64.60000 159.367
64.64000 165.625
64.68000 169.383
64.72000 171.578
64.76000 172.038
64.80000 162.533
64.84000 173.906
64.88000 183.817
64.92000 168.578
64.96000 184.183
65.00000 191.282
65.04000 202.904
65.08000 185.361
65.12000 186.744
65.16000 205.149
65.20000 204.852
65.24000 229.369
65.28000 229.843
65.32000 228.242
65.36000 243.674
65.40000 254.240
65.44000 277.829
65.48000 307.764
65.52000 309.155
65.56000 315.284
65.60000 343.892
65.64000 409.562
65.68000 538.456
65.72000 879.653
65.76000 1330.896
65.80000 1710.176
65.84000 1864.324
65.88000 1865.506
65.92000 1775.721
65.96000 1449.761
66.00000 962.380
66.04000 592.387
66.08000 432.327
66.12000 378.875
66.16000 357.359
66.20000 352.875
66.24000 355.069
66.28000 435.178
66.32000 511.424
66.36000 576.064
66.40000 616.657
66.44000 598.659
66.48000 593.842
66.52000 502.052
66.56000 432.764
66.60000 372.373
66.64000 355.807
66.68000 348.284
66.72000 347.476
66.76000 349.392
66.80000 346.734
66.84000 354.899
66.88000 350.558
66.92000 345.941
66.96000 343.192
67.00000 374.101
67.04000 368.900
67.08000 383.205
67.12000 379.508
67.16000 374.131
67.20000 374.407
67.24000 369.399
67.28000 358.731
67.32000 395.161
67.36000 396.710
67.40000 402.015
67.44000 423.406
67.48000 415.999
67.52000 409.692
67.56000 417.340
67.60000 429.479
67.64000 429.741
67.68000 430.157
67.72000 419.397
67.76000 446.731
67.80000 439.629
67.84000 461.241
67.88000 462.103
67.92000 485.723
67.96000 488.553
68.00000 480.730
68.04000 477.849
68.08000 486.664
68.12000 493.442
68.16000 532.083
68.20000 542.710
68.24000 545.364
68.28000 552.118
68.32000 557.564
68.36000 568.454
68.40000 603.405
68.44000 649.182
68.48000 650.494
68.52000 684.911
68.56000 771.507
68.60000 821.403
68.64000 954.139
68.68000 1084.703
68.72000 1285.974
68.76000 1424.693
68.80000 1601.092
68.84000 1854.469
68.88000 2251.680
68.92000 3630.274
68.96000 9000.220
69.00000 21034.166
69.04000 33292.902
69.08000 39342.207
69.12000 42099.805
69.16000 44788.023
69.20000 44035.660
69.24000 34773.922
69.28000 25507.365
69.32000 21315.287
69.36000 20045.607
69.40000 16563.488
69.44000 9816.755
69.48000 4375.153
69.52000 2034.250
69.56000 1264.392
69.60000 1038.352
69.64000 875.529
69.68000 794.299
69.72000 720.842
69.76000 669.081
69.80000 658.003
69.84000 579.074
69.88000 564.334
69.92000 537.422
69.96000 513.324
70.00000 489.039