File: XRD/XRD/08-10-2025 Dep 7/XY Data/BTO_Mapping_Theta2Theta_08-10-2025_001_11_13-383_14-863.xy
20.00000 479.276
20.04000 490.774
20.08000 489.372
20.12000 486.581
20.16000 462.104
20.20000 476.146
20.24000 467.321
20.28000 473.147
20.32000 477.982
20.36000 495.105
20.40000 467.797
20.44000 481.972
20.48000 484.520
20.52000 494.727
20.56000 477.004
20.60000 467.036
20.64000 466.236
20.68000 476.815
20.72000 473.783
20.76000 451.033
20.80000 474.772
20.84000 467.561
20.88000 467.613
20.92000 450.945
20.96000 450.889
21.00000 470.853
21.04000 459.096
21.08000 463.605
21.12000 485.808
21.16000 457.447
21.20000 471.204
21.24000 464.613
21.28000 483.807
21.32000 476.903
21.36000 462.549
21.40000 447.007
21.44000 459.449
21.48000 447.546
21.52000 459.256
21.56000 460.190
21.60000 479.883
21.64000 465.557
21.68000 465.722
21.72000 488.472
21.76000 488.670
21.80000 483.690
21.84000 476.793
21.88000 477.617
21.92000 491.619
21.96000 488.436
22.00000 500.894
22.04000 507.993
22.08000 516.975
22.12000 501.440
22.16000 502.952
22.20000 504.381
22.24000 491.701
22.28000 484.053
22.32000 483.152
22.36000 481.894
22.40000 450.449
22.44000 465.496
22.48000 469.902
22.52000 465.188
22.56000 463.140
22.60000 441.245
22.64000 445.006
22.68000 432.168
22.72000 441.960
22.76000 438.360
22.80000 445.354
22.84000 440.481
22.88000 425.770
22.92000 452.122
22.96000 454.400
23.00000 442.212
23.04000 423.452
23.08000 447.716
23.12000 458.791
23.16000 424.091
23.20000 431.435
23.24000 441.922
23.28000 430.155
23.32000 453.011
23.36000 437.898
23.40000 435.410
23.44000 448.035
23.48000 459.313
23.52000 449.300
23.56000 453.736
23.60000 463.793
23.64000 447.097
23.68000 480.401
23.72000 488.215
23.76000 486.105
23.80000 501.009
23.84000 525.866
23.88000 520.374
23.92000 534.033
23.96000 540.620
24.00000 544.201
24.04000 551.647
24.08000 521.055
24.12000 529.321
24.16000 542.562
24.20000 475.244
24.24000 459.794
24.28000 452.451
24.32000 444.552
24.36000 451.513
24.40000 447.733
24.44000 450.225
24.48000 430.487
24.52000 440.600
24.56000 424.615
24.60000 428.712
24.64000 410.442
24.68000 440.478
24.72000 410.354
24.76000 407.560
24.80000 424.092
24.84000 402.749
24.88000 410.655
24.92000 397.671
24.96000 418.297
25.00000 395.394
25.04000 406.186
25.08000 398.065
25.12000 403.269
25.16000 407.839
25.20000 410.686
25.24000 401.218
25.28000 407.476
25.32000 412.164
25.36000 408.403
25.40000 401.157
25.44000 401.824
25.48000 399.832
25.52000 393.551
25.56000 398.508
25.60000 412.983
25.64000 390.571
25.68000 411.937
25.72000 397.035
25.76000 384.584
25.80000 398.847
25.84000 406.510
25.88000 377.893
25.92000 391.497
25.96000 393.476
26.00000 397.465
26.04000 389.514
26.08000 397.041
26.12000 382.615
26.16000 396.074
26.20000 386.694
26.24000 401.775
26.28000 389.679
26.32000 389.424
26.36000 397.018
26.40000 410.139
26.44000 369.398
26.48000 387.544
26.52000 394.744
26.56000 400.022
26.60000 401.870
26.64000 407.865
26.68000 375.388
26.72000 382.053
26.76000 373.750
26.80000 382.400
26.84000 382.744
26.88000 374.168
26.92000 377.824
26.96000 400.010
27.00000 393.452
27.04000 374.514
27.08000 372.542
27.12000 394.236
27.16000 369.535
27.20000 369.967
27.24000 361.679
27.28000 378.232
27.32000 365.284
27.36000 373.381
27.40000 379.203
27.44000 361.421
27.48000 369.297
27.52000 380.784
27.56000 366.388
27.60000 386.787
27.64000 369.344
27.68000 364.912
27.72000 381.477
27.76000 375.732
27.80000 371.463
27.84000 366.696
27.88000 369.264
27.92000 381.452
27.96000 366.361
28.00000 368.568
28.04000 364.217
28.08000 371.148
28.12000 369.816
28.16000 375.131
28.20000 383.235
28.24000 375.469
28.28000 363.575
28.32000 350.661
28.36000 347.837
28.40000 355.946
28.44000 375.593
28.48000 370.095
28.52000 359.117
28.56000 343.563
28.60000 358.996
28.64000 339.418
28.68000 351.206
28.72000 363.482
28.76000 352.884
28.80000 359.745
28.84000 360.751
28.88000 356.367
28.92000 358.361
28.96000 348.596
29.00000 364.582
29.04000 359.250
29.08000 359.670
29.12000 357.277
29.16000 337.946
29.20000 347.399
29.24000 336.778
29.28000 350.027
29.32000 356.065
29.36000 364.370
29.40000 360.282
29.44000 344.230
29.48000 359.277
29.52000 359.696
29.56000 358.255
29.60000 350.790
29.64000 361.347
29.68000 363.614
29.72000 365.010
29.76000 363.895
29.80000 370.796
29.84000 373.874
29.88000 379.113
29.92000 386.860
29.96000 369.065
30.00000 404.079
30.04000 393.748
30.08000 373.010
30.12000 372.583
30.16000 385.169
30.20000 382.825
30.24000 364.642
30.28000 374.777
30.32000 360.713
30.36000 362.739
30.40000 362.890
30.44000 363.913
30.48000 361.864
30.52000 364.076
30.56000 371.442
30.60000 371.509
30.64000 373.606
30.68000 384.723
30.72000 390.918
30.76000 364.292
30.80000 395.447
30.84000 404.146
30.88000 404.429
30.92000 430.712
30.96000 440.272
31.00000 474.098
31.04000 489.899
31.08000 554.269
31.12000 624.510
31.16000 700.296
31.20000 778.743
31.24000 902.673
31.28000 975.365
31.32000 1045.846
31.36000 1097.255
31.40000 1095.201
31.44000 1052.893
31.48000 976.321
31.52000 895.696
31.56000 785.883
31.60000 687.171
31.64000 618.529
31.68000 530.288
31.72000 486.340
31.76000 449.614
31.80000 424.559
31.84000 409.877
31.88000 388.458
31.92000 373.535
31.96000 380.191
32.00000 358.693
32.04000 370.599
32.08000 355.720
32.12000 358.268
32.16000 348.842
32.20000 350.729
32.24000 352.751
32.28000 329.610
32.32000 351.981
32.36000 334.574
32.40000 334.368
32.44000 339.358
32.48000 335.754
32.52000 339.204
32.56000 325.298
32.60000 340.368
32.64000 318.879
32.68000 315.438
32.72000 313.795
32.76000 314.037
32.80000 341.238
32.84000 326.939
32.88000 316.015
32.92000 316.099
32.96000 318.238
33.00000 312.156
33.04000 314.613
33.08000 296.438
33.12000 306.620
33.16000 310.789
33.20000 323.426
33.24000 302.738
33.28000 302.750
33.32000 288.203
33.36000 302.328
33.40000 294.869
33.44000 298.432
33.48000 298.551
33.52000 299.953
33.56000 303.872
33.60000 302.506
33.64000 310.371
33.68000 301.039
33.72000 283.590
33.76000 312.662
33.80000 309.726
33.84000 300.746
33.88000 307.302
33.92000 310.246
33.96000 312.455
34.00000 313.215
34.04000 319.054
34.08000 325.067
34.12000 338.785
34.16000 330.031
34.20000 344.812
34.24000 339.853
34.28000 353.688
34.32000 349.018
34.36000 343.339
34.40000 340.455
34.44000 336.582
34.48000 340.030
34.52000 327.096
34.56000 315.566
34.60000 315.685
34.64000 313.570
34.68000 307.816
34.72000 303.876
34.76000 298.972
34.80000 290.889
34.84000 290.070
34.88000 286.949
34.92000 290.888
34.96000 294.530
35.00000 281.287
35.04000 273.014
35.08000 292.606
35.12000 267.243
35.16000 272.750
35.20000 273.660
35.24000 273.502
35.28000 264.054
35.32000 274.423
35.36000 272.352
35.40000 278.398
35.44000 263.221
35.48000 266.216
35.52000 273.100
35.56000 265.146
35.60000 280.302
35.64000 266.931
35.68000 269.254
35.72000 261.974
35.76000 259.059
35.80000 264.106
35.84000 258.615
35.88000 255.120
35.92000 260.487
35.96000 264.831
36.00000 251.828
36.04000 256.133
36.08000 269.426
36.12000 250.159
36.16000 258.408
36.20000 259.537
36.24000 274.628
36.28000 258.610
36.32000 260.434
36.36000 253.137
36.40000 251.076
36.44000 255.442
36.48000 254.764
36.52000 254.354
36.56000 257.407
36.60000 266.978
36.64000 262.192
36.68000 262.488
36.72000 248.032
36.76000 276.917
36.80000 258.684
36.84000 269.604
36.88000 273.560
36.92000 271.941
36.96000 262.068
37.00000 281.103
37.04000 267.000
37.08000 266.710
37.12000 280.079
37.16000 273.957
37.20000 264.995
37.24000 259.176
37.28000 254.520
37.32000 263.002
37.36000 246.428
37.40000 250.314
37.44000 245.286
37.48000 244.845
37.52000 254.696
37.56000 261.156
37.60000 267.262
37.64000 242.197
37.68000 246.549
37.72000 245.572
37.76000 258.295
37.80000 256.890
37.84000 261.499
37.88000 261.038
37.92000 255.647
37.96000 244.818
38.00000 251.727
38.04000 265.313
38.08000 255.375
38.12000 260.632
38.16000 269.299
38.20000 252.957
38.24000 272.222
38.28000 287.283
38.32000 297.746
38.36000 315.954
38.40000 344.967
38.44000 381.921
38.48000 416.067
38.52000 507.926
38.56000 591.215
38.60000 672.042
38.64000 759.811
38.68000 819.735
38.72000 849.920
38.76000 819.383
38.80000 735.120
38.84000 647.556
38.88000 574.423
38.92000 470.039
38.96000 405.825
39.00000 322.759
39.04000 309.563
39.08000 297.943
39.12000 275.023
39.16000 256.859
39.20000 247.925
39.24000 255.644
39.28000 258.033
39.32000 237.544
39.36000 235.955
39.40000 245.510
39.44000 231.371
39.48000 238.427
39.52000 235.203
39.56000 228.452
39.60000 243.215
39.64000 250.040
39.68000 234.457
39.72000 225.081
39.76000 248.924
39.80000 231.698
39.84000 227.405
39.88000 229.979
39.92000 234.727
39.96000 234.315
40.00000 232.918
40.04000 226.660
40.08000 220.378
40.12000 241.214
40.16000 230.870
40.20000 239.982
40.24000 223.168
40.28000 234.510
40.32000 223.416
40.36000 227.267
40.40000 222.714
40.44000 212.141
40.48000 201.835
40.52000 208.494
40.56000 216.897
40.60000 229.999
40.64000 223.372
40.68000 210.910
40.72000 217.726
40.76000 222.363
40.80000 208.748
40.84000 214.839
40.88000 212.636
40.92000 210.090
40.96000 220.555
41.00000 200.356
41.04000 216.122
41.08000 220.101
41.12000 205.711
41.16000 207.991
41.20000 223.317
41.24000 210.157
41.28000 205.906
41.32000 207.269
41.36000 213.147
41.40000 210.896
41.44000 207.740
41.48000 212.569
41.52000 210.445
41.56000 217.083
41.60000 200.055
41.64000 219.006
41.68000 213.444
41.72000 199.415
41.76000 207.884
41.80000 215.797
41.84000 212.963
41.88000 214.562
41.92000 223.077
41.96000 207.825
42.00000 208.702
42.04000 223.091
42.08000 224.124
42.12000 238.527
42.16000 220.247
42.20000 215.824
42.24000 240.252
42.28000 217.723
42.32000 217.676
42.36000 227.069
42.40000 226.998
42.44000 219.675
42.48000 228.973
42.52000 221.154
42.56000 214.248
42.60000 221.252
42.64000 208.753
42.68000 216.540
42.72000 206.797
42.76000 221.887
42.80000 215.176
42.84000 208.872
42.88000 202.477
42.92000 198.761
42.96000 197.201
43.00000 214.004
43.04000 210.484
43.08000 214.065
43.12000 208.091
43.16000 198.149
43.20000 209.367
43.24000 201.246
43.28000 201.365
43.32000 194.908
43.36000 202.491
43.40000 205.060
43.44000 188.765
43.48000 186.762
43.52000 203.720
43.56000 191.169
43.60000 187.129
43.64000 196.928
43.68000 191.827
43.72000 192.461
43.76000 196.992
43.80000 189.501
43.84000 196.618
43.88000 201.332
43.92000 204.623
43.96000 190.965
44.00000 195.007
44.04000 196.507
44.08000 196.575
44.12000 192.973
44.16000 195.957
44.20000 193.358
44.24000 197.700
44.28000 186.585
44.32000 207.299
44.36000 190.326
44.40000 196.931
44.44000 196.487
44.48000 208.408
44.52000 191.350
44.56000 210.797
44.60000 227.229
44.64000 204.964
44.68000 225.391
44.72000 233.449
44.76000 227.815
44.80000 227.294
44.84000 226.167
44.88000 224.726
44.92000 231.803
44.96000 239.894
45.00000 238.120
45.04000 237.375
45.08000 237.273
45.12000 235.728
45.16000 246.976
45.20000 240.157
45.24000 228.746
45.28000 220.382
45.32000 224.527
45.36000 217.751
45.40000 222.629
45.44000 207.221
45.48000 209.640
45.52000 204.754
45.56000 211.545
45.60000 200.537
45.64000 199.259
45.68000 201.233
45.72000 186.239
45.76000 189.175
45.80000 177.005
45.84000 190.781
45.88000 175.834
45.92000 181.984
45.96000 177.640
46.00000 176.791
46.04000 186.729
46.08000 177.652
46.12000 181.184
46.16000 178.337
46.20000 169.159
46.24000 175.515
46.28000 178.860
46.32000 179.027
46.36000 178.294
46.40000 166.918
46.44000 174.025
46.48000 166.709
46.52000 177.542
46.56000 180.095
46.60000 174.820
46.64000 177.881
46.68000 178.697
46.72000 176.785
46.76000 175.000
46.80000 173.939
46.84000 171.729
46.88000 178.070
46.92000 165.651
46.96000 177.364
47.00000 169.894
47.04000 170.100
47.08000 165.010
47.12000 153.067
47.16000 156.593
47.20000 165.257
47.24000 170.445
47.28000 170.568
47.32000 169.331
47.36000 161.744
47.40000 174.578
47.44000 168.660
47.48000 161.861
47.52000 162.671
47.56000 163.264
47.60000 176.154
47.64000 163.521
47.68000 164.633
47.72000 153.976
47.76000 166.420
47.80000 158.692
47.84000 157.210
47.88000 150.428
47.92000 151.135
47.96000 167.130
48.00000 162.116
48.04000 165.135
48.08000 160.072
48.12000 165.021
48.16000 143.048
48.20000 153.232
48.24000 153.579
48.28000 155.249
48.32000 163.535
48.36000 159.236
48.40000 153.455
48.44000 163.145
48.48000 161.181
48.52000 162.771
48.56000 165.940
48.60000 153.814
48.64000 163.707
48.68000 160.157
48.72000 172.005
48.76000 159.278
48.80000 159.140
48.84000 155.812
48.88000 156.579
48.92000 160.911
48.96000 154.558
49.00000 153.235
49.04000 157.424
49.08000 154.393
49.12000 158.144
49.16000 156.011
49.20000 160.136
49.24000 157.216
49.28000 161.069
49.32000 162.100
49.36000 155.874
49.40000 154.520
49.44000 142.229
49.48000 152.293
49.52000 156.808
49.56000 144.922
49.60000 149.290
49.64000 152.161
49.68000 144.093
49.72000 148.851
49.76000 154.619
49.80000 160.875
49.84000 148.476
49.88000 150.394
49.92000 161.148
49.96000 152.477
50.00000 157.573
50.04000 148.027
50.08000 152.316
50.12000 156.465
50.16000 150.110
50.20000 157.096
50.24000 151.433
50.28000 160.213
50.32000 160.718
50.36000 160.944
50.40000 166.433
50.44000 166.415
50.48000 160.149
50.52000 168.424
50.56000 164.773
50.60000 156.875
50.64000 152.728
50.68000 158.404
50.72000 151.434
50.76000 169.039
50.80000 163.975
50.84000 157.929
50.88000 161.258
50.92000 155.076
50.96000 147.829
51.00000 157.088
51.04000 152.912
51.08000 145.932
51.12000 152.918
51.16000 162.115
51.20000 140.819
51.24000 140.811
51.28000 143.755
51.32000 154.423
51.36000 151.711
51.40000 145.690
51.44000 143.525
51.48000 139.278
51.52000 151.482
51.56000 140.562
51.60000 149.921
51.64000 141.346
51.68000 148.392
51.72000 149.104
51.76000 144.631
51.80000 131.303
51.84000 142.661
51.88000 145.459
51.92000 137.340
51.96000 140.224
52.00000 136.770
52.04000 130.364
52.08000 140.258
52.12000 133.873
52.16000 137.545
52.20000 146.846
52.24000 137.942
52.28000 144.008
52.32000 134.440
52.36000 150.251
52.40000 140.369
52.44000 137.177
52.48000 134.989
52.52000 148.785
52.56000 135.430
52.60000 145.098
52.64000 146.830
52.68000 144.495
52.72000 139.627
52.76000 147.270
52.80000 133.387
52.84000 127.179
52.88000 146.540
52.92000 140.021
52.96000 136.954
53.00000 141.077
53.04000 134.269
53.08000 143.858
53.12000 150.614
53.16000 158.008
53.20000 151.061
53.24000 155.801
53.28000 156.465
53.32000 152.573
53.36000 147.012
53.40000 151.089
53.44000 154.683
53.48000 148.946
53.52000 154.353
53.56000 150.949
53.60000 155.678
53.64000 141.490
53.68000 145.206
53.72000 144.139
53.76000 150.731
53.80000 146.116
53.84000 138.512
53.88000 149.331
53.92000 137.655
53.96000 140.041
54.00000 150.144
54.04000 147.984
54.08000 137.849
54.12000 150.514
54.16000 138.246
54.20000 148.225
54.24000 135.946
54.28000 140.218
54.32000 135.931
54.36000 141.918
54.40000 136.485
54.44000 134.325
54.48000 149.554
54.52000 138.577
54.56000 136.260
54.60000 140.055
54.64000 144.811
54.68000 142.187
54.72000 148.828
54.76000 144.695
54.80000 150.853
54.84000 143.167
54.88000 143.910
54.92000 137.576
54.96000 139.922
55.00000 155.056
55.04000 149.972
55.08000 145.639
55.12000 153.391
55.16000 154.251
55.20000 157.998
55.24000 151.504
55.28000 171.033
55.32000 159.880
55.36000 162.188
55.40000 176.096
55.44000 183.191
55.48000 198.851
55.52000 201.334
55.56000 212.887
55.60000 238.146
55.64000 276.772
55.68000 283.377
55.72000 300.670
55.76000 340.078
55.80000 355.018
55.84000 404.872
55.88000 424.700
55.92000 448.281
55.96000 448.008
56.00000 424.429
56.04000 429.603
56.08000 389.335
56.12000 374.569
56.16000 315.611
56.20000 292.007
56.24000 264.290
56.28000 245.108
56.32000 213.531
56.36000 214.192
56.40000 177.460
56.44000 174.785
56.48000 166.595
56.52000 156.562
56.56000 165.040
56.60000 153.472
56.64000 145.346
56.68000 144.213
56.72000 142.559
56.76000 148.395
56.80000 131.673
56.84000 135.574
56.88000 137.038
56.92000 130.619
56.96000 132.173
57.00000 145.890
57.04000 133.357
57.08000 128.950
57.12000 130.018
57.16000 135.415
57.20000 115.702
57.24000 130.216
57.28000 138.324
57.32000 129.486
57.36000 131.536
57.40000 122.287
57.44000 126.381
57.48000 121.895
57.52000 123.382
57.56000 125.157
57.60000 130.886
57.64000 128.200
57.68000 130.286
57.72000 119.532
57.76000 117.943
57.80000 128.666
57.84000 133.885
57.88000 126.434
57.92000 113.721
57.96000 125.622
58.00000 129.098
58.04000 120.640
58.08000 116.177
58.12000 109.831
58.16000 133.532
58.20000 128.429
58.24000 119.686
58.28000 128.288
58.32000 123.562
58.36000 116.695
58.40000 118.465
58.44000 127.041
58.48000 130.241
58.52000 134.495
58.56000 117.329
58.60000 131.752
58.64000 132.001
58.68000 114.710
58.72000 125.425
58.76000 113.567
58.80000 119.078
58.84000 118.598
58.88000 127.969
58.92000 117.633
58.96000 123.173
59.00000 120.858
59.04000 116.189
59.08000 126.174
59.12000 124.168
59.16000 119.333
59.20000 118.322
59.24000 125.496
59.28000 121.613
59.32000 117.711
59.36000 117.973
59.40000 130.974
59.44000 120.215
59.48000 131.708
59.52000 115.964
59.56000 112.295
59.60000 127.155
59.64000 118.756
59.68000 121.190
59.72000 117.900
59.76000 119.303
59.80000 126.381
59.84000 124.667
59.88000 116.846
59.92000 126.807
59.96000 115.914
60.00000 115.980
60.04000 119.028
60.08000 120.169
60.12000 109.582
60.16000 114.736
60.20000 117.794
60.24000 120.216
60.28000 125.979
60.32000 114.134
60.36000 123.454
60.40000 123.369
60.44000 121.360
60.48000 124.211
60.52000 114.327
60.56000 120.701
60.60000 123.972
60.64000 125.981
60.68000 120.376
60.72000 116.201
60.76000 114.300
60.80000 122.427
60.84000 124.996
60.88000 128.807
60.92000 124.526
60.96000 122.865
61.00000 122.107
61.04000 122.355
61.08000 123.125
61.12000 126.426
61.16000 129.651
61.20000 130.296
61.24000 119.114
61.28000 123.508
61.32000 130.436
61.36000 138.460
61.40000 121.240
61.44000 133.734
61.48000 129.918
61.52000 148.429
61.56000 200.263
61.60000 246.763
61.64000 283.615
61.68000 285.876
61.72000 291.074
61.76000 271.146
61.80000 212.326
61.84000 171.556
61.88000 152.886
61.92000 141.598
61.96000 133.785
62.00000 139.876
62.04000 135.329
62.08000 124.790
62.12000 122.351
62.16000 131.339
62.20000 124.470
62.24000 127.587
62.28000 134.619
62.32000 131.767
62.36000 122.502
62.40000 131.098
62.44000 135.852
62.48000 134.671
62.52000 141.332
62.56000 129.592
62.60000 127.879
62.64000 135.833
62.68000 133.103
62.72000 127.116
62.76000 136.680
62.80000 130.553
62.84000 139.350
62.88000 131.972
62.92000 130.567
62.96000 128.260
63.00000 129.734
63.04000 136.452
63.08000 142.957
63.12000 124.144
63.16000 129.467
63.20000 130.405
63.24000 137.389
63.28000 136.613
63.32000 140.755
63.36000 132.568
63.40000 137.453
63.44000 137.441
63.48000 130.644
63.52000 132.847
63.56000 153.477
63.60000 135.988
63.64000 139.980
63.68000 139.258
63.72000 136.026
63.76000 149.201
63.80000 140.674
63.84000 143.563
63.88000 133.899
63.92000 137.412
63.96000 142.713
64.00000 151.313
64.04000 141.283
64.08000 157.892
64.12000 150.733
64.16000 154.484
64.20000 144.746
64.24000 161.635
64.28000 154.682
64.32000 154.615
64.36000 143.126
64.40000 163.040
64.44000 160.089
64.48000 160.955
64.52000 170.149
64.56000 164.019
64.60000 164.991
64.64000 162.768
64.68000 171.508
64.72000 174.230
64.76000 171.430
64.80000 169.574
64.84000 180.670
64.88000 182.705
64.92000 174.103
64.96000 189.082
65.00000 188.848
65.04000 197.901
65.08000 209.506
65.12000 200.433
65.16000 209.287
65.20000 209.160
65.24000 222.872
65.28000 224.457
65.32000 240.143
65.36000 242.968
65.40000 240.841
65.44000 256.783
65.48000 297.489
65.52000 283.453
65.56000 315.571
65.60000 352.436
65.64000 407.177
65.68000 571.464
65.72000 892.996
65.76000 1345.504
65.80000 1714.454
65.84000 1910.796
65.88000 1905.590
65.92000 1807.673
65.96000 1505.203
66.00000 976.024
66.04000 621.163
66.08000 457.343
66.12000 415.787
66.16000 346.305
66.20000 371.994
66.24000 388.466
66.28000 447.504
66.32000 542.124
66.36000 605.751
66.40000 621.744
66.44000 627.298
66.48000 600.742
66.52000 502.993
66.56000 433.429
66.60000 381.359
66.64000 360.548
66.68000 360.124
66.72000 348.181
66.76000 357.059
66.80000 354.190
66.84000 344.282
66.88000 360.298
66.92000 357.859
66.96000 378.893
67.00000 385.395
67.04000 369.369
67.08000 386.080
67.12000 383.686
67.16000 391.398
67.20000 377.229
67.24000 398.262
67.28000 401.870
67.32000 406.382
67.36000 398.655
67.40000 397.989
67.44000 421.188
67.48000 399.396
67.52000 417.106
67.56000 429.662
67.60000 437.563
67.64000 429.182
67.68000 438.174
67.72000 441.563
67.76000 459.811
67.80000 480.683
67.84000 477.869
67.88000 484.012
67.92000 477.164
67.96000 494.991
68.00000 483.917
68.04000 525.509
68.08000 517.575
68.12000 525.317
68.16000 542.662
68.20000 549.816
68.24000 565.403
68.28000 579.085
68.32000 586.581
68.36000 622.164
68.40000 626.906
68.44000 649.700
68.48000 659.335
68.52000 704.204
68.56000 741.319
68.60000 835.555
68.64000 955.189
68.68000 1112.962
68.72000 1294.407
68.76000 1471.944
68.80000 1650.675
68.84000 1864.103
68.88000 2309.526
68.92000 3725.217
68.96000 9169.495
69.00000 21303.828
69.04000 33896.379
69.08000 40539.066
69.12000 43462.820
69.16000 46139.816
69.20000 45644.422
69.24000 36027.738
69.28000 26484.428
69.32000 22028.063
69.36000 20707.381
69.40000 17378.912
69.44000 10279.863
69.48000 4602.568
69.52000 2141.658
69.56000 1319.005
69.60000 1055.930
69.64000 891.279
69.68000 815.228
69.72000 721.621
69.76000 680.640
69.80000 631.516
69.84000 596.143
69.88000 560.976
69.92000 524.873
69.96000 497.046
70.00000 487.929