File: XRD/XRD/08-10-2025 Dep 7/XY Data/BTO_Mapping_Theta2Theta_08-10-2025_001_18_-1-045_9-945.xy
20.00000 487.947
20.04000 466.922
20.08000 475.363
20.12000 485.410
20.16000 476.989
20.20000 471.594
20.24000 461.077
20.28000 471.073
20.32000 472.880
20.36000 467.650
20.40000 473.923
20.44000 464.338
20.48000 465.058
20.52000 465.456
20.56000 467.518
20.60000 464.511
20.64000 458.928
20.68000 455.077
20.72000 489.940
20.76000 454.744
20.80000 466.062
20.84000 475.751
20.88000 469.535
20.92000 452.949
20.96000 465.265
21.00000 471.437
21.04000 477.140
21.08000 462.427
21.12000 462.241
21.16000 470.936
21.20000 468.150
21.24000 453.374
21.28000 467.107
21.32000 471.214
21.36000 489.171
21.40000 480.994
21.44000 459.850
21.48000 468.544
21.52000 480.172
21.56000 482.731
21.60000 479.901
21.64000 452.351
21.68000 448.557
21.72000 467.526
21.76000 480.902
21.80000 475.658
21.84000 485.159
21.88000 509.377
21.92000 513.655
21.96000 540.621
22.00000 528.275
22.04000 534.856
22.08000 536.203
22.12000 549.803
22.16000 532.678
22.20000 517.052
22.24000 517.987
22.28000 507.140
22.32000 498.685
22.36000 489.176
22.40000 467.705
22.44000 487.261
22.48000 452.015
22.52000 464.917
22.56000 450.971
22.60000 448.870
22.64000 439.018
22.68000 443.211
22.72000 453.699
22.76000 449.054
22.80000 451.361
22.84000 442.303
22.88000 440.328
22.92000 437.880
22.96000 440.646
23.00000 423.376
23.04000 448.676
23.08000 431.823
23.12000 454.162
23.16000 418.288
23.20000 434.252
23.24000 439.982
23.28000 434.848
23.32000 430.993
23.36000 430.886
23.40000 441.017
23.44000 438.812
23.48000 427.164
23.52000 429.973
23.56000 426.752
23.60000 425.411
23.64000 444.912
23.68000 448.577
23.72000 444.614
23.76000 451.866
23.80000 469.145
23.84000 480.668
23.88000 496.806
23.92000 483.980
23.96000 493.107
24.00000 511.422
24.04000 509.179
24.08000 478.688
24.12000 484.784
24.16000 467.677
24.20000 467.660
24.24000 463.925
24.28000 434.373
24.32000 433.851
24.36000 417.628
24.40000 452.675
24.44000 412.642
24.48000 433.137
24.52000 412.018
24.56000 413.739
24.60000 418.463
24.64000 398.498
24.68000 420.309
24.72000 413.911
24.76000 409.178
24.80000 419.088
24.84000 401.784
24.88000 391.973
24.92000 397.682
24.96000 405.071
25.00000 401.128
25.04000 401.770
25.08000 398.477
25.12000 401.715
25.16000 397.191
25.20000 394.575
25.24000 403.997
25.28000 398.623
25.32000 385.266
25.36000 393.543
25.40000 397.598
25.44000 390.543
25.48000 404.956
25.52000 404.096
25.56000 386.809
25.60000 392.744
25.64000 400.219
25.68000 405.656
25.72000 401.612
25.76000 388.043
25.80000 389.457
25.84000 382.426
25.88000 391.392
25.92000 371.362
25.96000 393.790
26.00000 377.169
26.04000 384.256
26.08000 396.568
26.12000 390.693
26.16000 376.661
26.20000 400.671
26.24000 379.164
26.28000 379.029
26.32000 388.427
26.36000 378.585
26.40000 366.311
26.44000 365.247
26.48000 384.363
26.52000 387.895
26.56000 393.210
26.60000 387.325
26.64000 383.582
26.68000 371.824
26.72000 374.252
26.76000 380.392
26.80000 380.500
26.84000 377.004
26.88000 370.937
26.92000 382.639
26.96000 382.803
27.00000 382.136
27.04000 357.152
27.08000 376.432
27.12000 369.585
27.16000 361.565
27.20000 376.337
27.24000 364.958
27.28000 380.438
27.32000 376.700
27.36000 376.840
27.40000 377.091
27.44000 380.478
27.48000 369.563
27.52000 368.945
27.56000 352.091
27.60000 363.104
27.64000 383.944
27.68000 365.140
27.72000 355.924
27.76000 374.365
27.80000 361.278
27.84000 361.576
27.88000 367.541
27.92000 369.758
27.96000 355.529
28.00000 357.335
28.04000 361.053
28.08000 365.201
28.12000 367.836
28.16000 350.196
28.20000 376.296
28.24000 370.707
28.28000 360.126
28.32000 348.096
28.36000 363.658
28.40000 370.723
28.44000 360.662
28.48000 366.769
28.52000 383.877
28.56000 357.234
28.60000 351.443
28.64000 337.569
28.68000 350.188
28.72000 344.199
28.76000 353.092
28.80000 351.194
28.84000 352.731
28.88000 346.617
28.92000 318.497
28.96000 343.620
29.00000 352.587
29.04000 352.514
29.08000 353.664
29.12000 345.069
29.16000 342.127
29.20000 344.025
29.24000 370.745
29.28000 357.716
29.32000 341.844
29.36000 355.707
29.40000 363.260
29.44000 356.353
29.48000 354.981
29.52000 339.917
29.56000 359.733
29.60000 357.892
29.64000 358.483
29.68000 373.187
29.72000 343.299
29.76000 337.652
29.80000 346.021
29.84000 358.455
29.88000 375.146
29.92000 376.060
29.96000 377.084
30.00000 367.813
30.04000 384.369
30.08000 364.474
30.12000 368.124
30.16000 373.596
30.20000 371.968
30.24000 356.585
30.28000 357.336
30.32000 363.675
30.36000 362.797
30.40000 340.621
30.44000 344.243
30.48000 340.246
30.52000 356.545
30.56000 350.359
30.60000 350.430
30.64000 355.561
30.68000 365.158
30.72000 359.169
30.76000 376.156
30.80000 376.111
30.84000 376.670
30.88000 364.429
30.92000 387.663
30.96000 417.851
31.00000 429.832
31.04000 466.719
31.08000 487.838
31.12000 561.904
31.16000 635.968
31.20000 715.969
31.24000 806.344
31.28000 975.880
31.32000 1083.231
31.36000 1099.793
31.40000 1136.632
31.44000 1106.395
31.48000 1032.507
31.52000 937.047
31.56000 800.779
31.60000 655.795
31.64000 611.963
31.68000 519.341
31.72000 466.731
31.76000 431.147
31.80000 402.942
31.84000 385.789
31.88000 369.598
31.92000 358.324
31.96000 339.481
32.00000 349.510
32.04000 345.552
32.08000 349.082
32.12000 339.208
32.16000 319.553
32.20000 333.235
32.24000 348.397
32.28000 343.598
32.32000 326.111
32.36000 321.378
32.40000 331.285
32.44000 332.520
32.48000 297.474
32.52000 316.971
32.56000 310.828
32.60000 314.113
32.64000 317.530
32.68000 316.675
32.72000 334.215
32.76000 319.112
32.80000 312.166
32.84000 307.276
32.88000 316.043
32.92000 325.415
32.96000 329.922
33.00000 290.492
33.04000 312.392
33.08000 297.746
33.12000 314.532
33.16000 310.954
33.20000 303.144
33.24000 302.052
33.28000 278.448
33.32000 279.133
33.36000 303.510
33.40000 304.326
33.44000 304.960
33.48000 291.134
33.52000 297.641
33.56000 295.459
33.60000 303.604
33.64000 298.127
33.68000 294.884
33.72000 296.653
33.76000 291.207
33.80000 301.899
33.84000 301.547
33.88000 320.678
33.92000 305.584
33.96000 310.528
34.00000 317.146
34.04000 298.670
34.08000 318.094
34.12000 332.190
34.16000 321.155
34.20000 338.061
34.24000 327.802
34.28000 345.468
34.32000 338.068
34.36000 355.883
34.40000 339.441
34.44000 366.477
34.48000 337.554
34.52000 350.986
34.56000 339.727
34.60000 329.584
34.64000 330.982
34.68000 318.853
34.72000 314.165
34.76000 301.858
34.80000 295.248
34.84000 294.962
34.88000 284.367
34.92000 289.552
34.96000 279.512
35.00000 287.330
35.04000 273.065
35.08000 269.488
35.12000 277.329
35.16000 264.987
35.20000 269.978
35.24000 269.369
35.28000 277.999
35.32000 269.512
35.36000 265.474
35.40000 265.527
35.44000 273.072
35.48000 256.950
35.52000 268.574
35.56000 257.626
35.60000 275.892
35.64000 260.104
35.68000 252.109
35.72000 268.479
35.76000 255.226
35.80000 264.909
35.84000 255.192
35.88000 266.523
35.92000 261.480
35.96000 261.154
36.00000 245.456
36.04000 247.712
36.08000 262.167
36.12000 270.127
36.16000 253.456
36.20000 246.206
36.24000 259.002
36.28000 255.404
36.32000 263.444
36.36000 260.368
36.40000 255.317
36.44000 246.983
36.48000 251.967
36.52000 239.359
36.56000 244.530
36.60000 256.727
36.64000 268.737
36.68000 255.556
36.72000 261.076
36.76000 265.029
36.80000 262.426
36.84000 265.018
36.88000 264.083
36.92000 272.466
36.96000 292.110
37.00000 274.282
37.04000 281.449
37.08000 283.501
37.12000 281.450
37.16000 291.891
37.20000 271.773
37.24000 257.419
37.28000 278.788
37.32000 263.376
37.36000 241.471
37.40000 255.114
37.44000 253.968
37.48000 277.499
37.52000 256.726
37.56000 246.279
37.60000 240.390
37.64000 243.728
37.68000 238.917
37.72000 258.727
37.76000 267.783
37.80000 253.369
37.84000 253.563
37.88000 253.511
37.92000 244.921
37.96000 250.019
38.00000 252.820
38.04000 262.438
38.08000 246.675
38.12000 260.931
38.16000 247.040
38.20000 257.667
38.24000 268.208
38.28000 289.343
38.32000 311.089
38.36000 331.447
38.40000 364.304
38.44000 422.411
38.48000 500.014
38.52000 597.780
38.56000 729.584
38.60000 866.140
38.64000 985.316
38.68000 1065.554
38.72000 1151.287
38.76000 1094.370
38.80000 1019.034
38.84000 913.985
38.88000 761.188
38.92000 641.716
38.96000 517.966
39.00000 420.076
39.04000 347.334
39.08000 283.644
39.12000 260.075
39.16000 264.284
39.20000 250.138
39.24000 245.724
39.28000 234.789
39.32000 240.965
39.36000 234.282
39.40000 225.920
39.44000 229.174
39.48000 233.836
39.52000 220.405
39.56000 226.084
39.60000 234.358
39.64000 232.852
39.68000 248.176
39.72000 246.209
39.76000 233.055
39.80000 235.875
39.84000 236.561
39.88000 247.473
39.92000 234.449
39.96000 228.870
40.00000 237.831
40.04000 228.415
40.08000 236.130
40.12000 229.135
40.16000 229.106
40.20000 213.010
40.24000 221.422
40.28000 212.040
40.32000 231.421
40.36000 223.572
40.40000 221.401
40.44000 214.774
40.48000 216.320
40.52000 217.996
40.56000 215.659
40.60000 207.308
40.64000 213.821
40.68000 214.451
40.72000 216.994
40.76000 222.377
40.80000 209.451
40.84000 216.107
40.88000 214.460
40.92000 211.275
40.96000 216.462
41.00000 223.862
41.04000 220.807
41.08000 220.008
41.12000 211.023
41.16000 215.225
41.20000 213.138
41.24000 214.020
41.28000 218.230
41.32000 213.174
41.36000 223.153
41.40000 200.133
41.44000 215.831
41.48000 217.065
41.52000 210.163
41.56000 214.234
41.60000 204.682
41.64000 217.644
41.68000 204.150
41.72000 213.781
41.76000 203.258
41.80000 219.555
41.84000 212.159
41.88000 214.366
41.92000 201.504
41.96000 208.988
42.00000 210.693
42.04000 211.103
42.08000 219.333
42.12000 210.325
42.16000 210.157
42.20000 212.190
42.24000 210.634
42.28000 210.135
42.32000 226.187
42.36000 214.931
42.40000 222.342
42.44000 209.742
42.48000 216.567
42.52000 211.351
42.56000 219.639
42.60000 208.306
42.64000 209.311
42.68000 207.272
42.72000 210.802
42.76000 198.155
42.80000 203.967
42.84000 208.877
42.88000 190.909
42.92000 212.109
42.96000 208.312
43.00000 200.037
43.04000 198.610
43.08000 196.776
43.12000 202.345
43.16000 198.234
43.20000 197.956
43.24000 195.851
43.28000 198.243
43.32000 187.505
43.36000 192.574
43.40000 207.463
43.44000 206.187
43.48000 199.245
43.52000 194.901
43.56000 195.370
43.60000 189.757
43.64000 196.183
43.68000 188.289
43.72000 187.109
43.76000 196.731
43.80000 202.655
43.84000 196.382
43.88000 203.052
43.92000 188.590
43.96000 194.059
44.00000 192.794
44.04000 194.222
44.08000 186.739
44.12000 199.086
44.16000 198.197
44.20000 189.182
44.24000 197.520
44.28000 184.241
44.32000 193.530
44.36000 199.810
44.40000 200.048
44.44000 209.292
44.48000 210.432
44.52000 215.910
44.56000 211.008
44.60000 229.236
44.64000 232.079
44.68000 226.009
44.72000 218.744
44.76000 233.755
44.80000 238.143
44.84000 243.347
44.88000 244.521
44.92000 241.269
44.96000 251.037
45.00000 262.419
45.04000 263.169
45.08000 264.109
45.12000 273.771
45.16000 275.757
45.20000 260.646
45.24000 248.254
45.28000 226.277
45.32000 227.464
45.36000 237.247
45.40000 215.051
45.44000 217.772
45.48000 214.533
45.52000 223.007
45.56000 219.982
45.60000 217.653
45.64000 201.998
45.68000 196.747
45.72000 204.259
45.76000 204.227
45.80000 195.994
45.84000 188.262
45.88000 187.869
45.92000 177.886
45.96000 179.779
46.00000 172.324
46.04000 175.744
46.08000 187.419
46.12000 184.599
46.16000 188.172
46.20000 179.642
46.24000 185.820
46.28000 168.276
46.32000 185.995
46.36000 177.612
46.40000 174.939
46.44000 174.276
46.48000 177.391
46.52000 193.151
46.56000 186.925
46.60000 182.040
46.64000 169.327
46.68000 187.366
46.72000 179.419
46.76000 184.483
46.80000 185.271
46.84000 169.464
46.88000 175.287
46.92000 170.912
46.96000 162.528
47.00000 167.517
47.04000 167.657
47.08000 170.379
47.12000 166.234
47.16000 169.261
47.20000 162.197
47.24000 168.549
47.28000 174.100
47.32000 167.558
47.36000 167.536
47.40000 155.781
47.44000 160.510
47.48000 161.819
47.52000 164.965
47.56000 179.113
47.60000 166.776
47.64000 150.195
47.68000 163.018
47.72000 153.428
47.76000 152.369
47.80000 170.053
47.84000 157.520
47.88000 149.933
47.92000 161.647
47.96000 164.459
48.00000 154.251
48.04000 157.505
48.08000 157.069
48.12000 154.107
48.16000 155.694
48.20000 158.255
48.24000 162.068
48.28000 155.964
48.32000 160.319
48.36000 162.453
48.40000 145.822
48.44000 161.377
48.48000 161.879
48.52000 158.501
48.56000 161.951
48.60000 159.772
48.64000 157.491
48.68000 160.492
48.72000 156.203
48.76000 160.143
48.80000 152.222
48.84000 160.187
48.88000 154.835
48.92000 150.423
48.96000 142.054
49.00000 159.150
49.04000 165.479
49.08000 157.486
49.12000 140.194
49.16000 148.796
49.20000 144.351
49.24000 159.837
49.28000 162.234
49.32000 155.654
49.36000 149.120
49.40000 152.626
49.44000 151.817
49.48000 149.514
49.52000 138.811
49.56000 147.170
49.60000 147.961
49.64000 150.105
49.68000 148.120
49.72000 155.783
49.76000 150.689
49.80000 148.839
49.84000 158.973
49.88000 145.887
49.92000 151.236
49.96000 153.290
50.00000 149.045
50.04000 163.487
50.08000 149.806
50.12000 150.400
50.16000 157.982
50.20000 142.262
50.24000 149.278
50.28000 158.774
50.32000 164.552
50.36000 164.308
50.40000 159.188
50.44000 151.632
50.48000 163.614
50.52000 160.401
50.56000 167.152
50.60000 153.383
50.64000 170.523
50.68000 162.100
50.72000 151.956
50.76000 162.340
50.80000 171.466
50.84000 156.496
50.88000 168.075
50.92000 151.566
50.96000 150.198
51.00000 165.756
51.04000 155.827
51.08000 154.458
51.12000 155.255
51.16000 159.181
51.20000 155.367
51.24000 147.781
51.28000 154.382
51.32000 154.532
51.36000 142.660
51.40000 144.253
51.44000 146.737
51.48000 142.512
51.52000 146.687
51.56000 143.589
51.60000 146.714
51.64000 145.954
51.68000 142.685
51.72000 137.634
51.76000 138.879
51.80000 147.092
51.84000 141.832
51.88000 138.764
51.92000 140.416
51.96000 137.988
52.00000 141.520
52.04000 136.059
52.08000 136.940
52.12000 130.120
52.16000 137.281
52.20000 132.114
52.24000 137.344
52.28000 138.116
52.32000 139.426
52.36000 131.711
52.40000 150.005
52.44000 143.569
52.48000 132.063
52.52000 130.936
52.56000 137.226
52.60000 133.648
52.64000 137.348
52.68000 138.089
52.72000 134.244
52.76000 133.910
52.80000 136.503
52.84000 148.629
52.88000 148.917
52.92000 134.619
52.96000 138.509
53.00000 146.253
53.04000 148.245
53.08000 145.440
53.12000 164.623
53.16000 150.017
53.20000 148.387
53.24000 153.437
53.28000 158.342
53.32000 159.218
53.36000 149.362
53.40000 161.681
53.44000 154.558
53.48000 159.314
53.52000 150.174
53.56000 154.144
53.60000 145.155
53.64000 147.924
53.68000 141.650
53.72000 142.861
53.76000 146.537
53.80000 141.672
53.84000 138.837
53.88000 141.620
53.92000 149.794
53.96000 150.150
54.00000 147.212
54.04000 142.940
54.08000 141.402
54.12000 136.536
54.16000 133.610
54.20000 144.753
54.24000 131.238
54.28000 129.762
54.32000 143.105
54.36000 140.914
54.40000 140.789
54.44000 138.806
54.48000 138.864
54.52000 136.418
54.56000 133.849
54.60000 138.954
54.64000 149.147
54.68000 138.396
54.72000 142.575
54.76000 137.232
54.80000 146.048
54.84000 138.133
54.88000 142.956
54.92000 143.294
54.96000 144.635
55.00000 147.790
55.04000 153.095
55.08000 143.901
55.12000 148.664
55.16000 147.343
55.20000 153.103
55.24000 164.059
55.28000 164.222
55.32000 171.703
55.36000 174.958
55.40000 180.621
55.44000 183.000
55.48000 194.338
55.52000 216.029
55.56000 239.976
55.60000 277.009
55.64000 305.418
55.68000 358.124
55.72000 409.584
55.76000 442.264
55.80000 514.157
55.84000 602.308
55.88000 614.261
55.92000 655.283
55.96000 667.408
56.00000 665.613
56.04000 629.828
56.08000 567.313
56.12000 519.751
56.16000 447.633
56.20000 374.100
56.24000 334.906
56.28000 305.811
56.32000 247.888
56.36000 206.217
56.40000 196.060
56.44000 188.214
56.48000 171.229
56.52000 165.132
56.56000 153.093
56.60000 149.064
56.64000 154.041
56.68000 134.575
56.72000 135.500
56.76000 146.001
56.80000 137.850
56.84000 143.779
56.88000 138.303
56.92000 130.477
56.96000 135.250
57.00000 132.252
57.04000 137.973
57.08000 133.453
57.12000 139.146
57.16000 127.899
57.20000 125.349
57.24000 124.936
57.28000 136.982
57.32000 133.881
57.36000 124.451
57.40000 136.520
57.44000 121.374
57.48000 133.305
57.52000 125.588
57.56000 128.400
57.60000 125.765
57.64000 119.243
57.68000 127.237
57.72000 132.980
57.76000 122.837
57.80000 126.053
57.84000 118.753
57.88000 123.654
57.92000 120.781
57.96000 125.316
58.00000 119.581
58.04000 117.675
58.08000 131.913
58.12000 129.395
58.16000 126.771
58.20000 120.613
58.24000 134.955
58.28000 120.988
58.32000 120.524
58.36000 122.319
58.40000 127.406
58.44000 123.217
58.48000 117.476
58.52000 117.287
58.56000 121.425
58.60000 121.117
58.64000 119.475
58.68000 121.637
58.72000 126.730
58.76000 116.291
58.80000 117.250
58.84000 122.072
58.88000 132.195
58.92000 129.449
58.96000 115.219
59.00000 108.130
59.04000 119.987
59.08000 111.477
59.12000 120.673
59.16000 123.469
59.20000 126.321
59.24000 119.940
59.28000 118.787
59.32000 123.974
59.36000 118.968
59.40000 118.735
59.44000 116.125
59.48000 114.398
59.52000 112.252
59.56000 118.488
59.60000 123.081
59.64000 116.797
59.68000 121.801
59.72000 114.486
59.76000 110.969
59.80000 122.540
59.84000 110.396
59.88000 122.333
59.92000 120.581
59.96000 109.796
60.00000 108.596
60.04000 112.722
60.08000 118.214
60.12000 110.670
60.16000 112.091
60.20000 114.307
60.24000 113.533
60.28000 118.840
60.32000 120.042
60.36000 120.734
60.40000 115.431
60.44000 111.180
60.48000 111.959
60.52000 115.469
60.56000 112.471
60.60000 113.901
60.64000 119.267
60.68000 118.658
60.72000 115.762
60.76000 120.724
60.80000 115.756
60.84000 124.276
60.88000 123.058
60.92000 123.783
60.96000 115.798
61.00000 121.917
61.04000 126.248
61.08000 118.272
61.12000 127.987
61.16000 125.099
61.20000 122.284
61.24000 126.097
61.28000 121.697
61.32000 128.083
61.36000 115.675
61.40000 124.772
61.44000 124.807
61.48000 122.313
61.52000 148.393
61.56000 192.631
61.60000 232.542
61.64000 275.787
61.68000 281.060
61.72000 280.427
61.76000 269.597
61.80000 220.277
61.84000 174.429
61.88000 134.854
61.92000 137.986
61.96000 134.901
62.00000 139.982
62.04000 131.102
62.08000 126.203
62.12000 119.437
62.16000 130.649
62.20000 119.600
62.24000 127.785
62.28000 131.935
62.32000 132.680
62.36000 130.720
62.40000 128.674
62.44000 126.683
62.48000 124.736
62.52000 121.388
62.56000 124.124
62.60000 127.699
62.64000 125.484
62.68000 124.463
62.72000 132.138
62.76000 137.131
62.80000 132.626
62.84000 127.924
62.88000 130.968
62.92000 127.378
62.96000 132.609
63.00000 123.521
63.04000 128.160
63.08000 130.014
63.12000 126.097
63.16000 138.912
63.20000 136.270
63.24000 136.649
63.28000 134.738
63.32000 146.617
63.36000 132.023
63.40000 141.072
63.44000 142.549
63.48000 143.150
63.52000 129.682
63.56000 137.649
63.60000 140.406
63.64000 137.598
63.68000 132.491
63.72000 144.163
63.76000 142.739
63.80000 128.727
63.84000 139.773
63.88000 137.930
63.92000 144.395
63.96000 158.058
64.00000 146.144
64.04000 139.859
64.08000 143.849
64.12000 150.324
64.16000 148.530
64.20000 150.232
64.24000 155.011
64.28000 149.287
64.32000 161.278
64.36000 153.738
64.40000 165.764
64.44000 158.201
64.48000 149.834
64.52000 156.135
64.56000 165.327
64.60000 151.083
64.64000 161.805
64.68000 159.765
64.72000 160.921
64.76000 171.267
64.80000 176.342
64.84000 170.280
64.88000 169.467
64.92000 172.719
64.96000 176.068
65.00000 183.881
65.04000 179.024
65.08000 186.438
65.12000 196.776
65.16000 203.051
65.20000 200.658
65.24000 212.580
65.28000 232.686
65.32000 225.177
65.36000 247.685
65.40000 236.508
65.44000 256.768
65.48000 269.390
65.52000 288.204
65.56000 312.428
65.60000 350.012
65.64000 407.026
65.68000 519.870
65.72000 774.866
65.76000 1246.912
65.80000 1661.234
65.84000 1855.311
65.88000 1910.701
65.92000 1828.785
65.96000 1505.827
66.00000 1056.160
66.04000 664.305
66.08000 483.419
66.12000 407.489
66.16000 365.767
66.20000 356.551
66.24000 361.087
66.28000 428.305
66.32000 498.425
66.36000 560.141
66.40000 598.863
66.44000 582.354
66.48000 578.322
66.52000 513.515
66.56000 450.937
66.60000 385.700
66.64000 357.548
66.68000 347.675
66.72000 354.003
66.76000 351.721
66.80000 349.333
66.84000 338.767
66.88000 340.234
66.92000 339.595
66.96000 357.153
67.00000 354.809
67.04000 362.753
67.08000 367.445
67.12000 372.515
67.16000 379.738
67.20000 370.142
67.24000 385.124
67.28000 392.419
67.32000 393.116
67.36000 379.951
67.40000 406.248
67.44000 398.012
67.48000 410.437
67.52000 410.807
67.56000 421.627
67.60000 426.314
67.64000 427.219
67.68000 434.621
67.72000 437.126
67.76000 435.335
67.80000 441.202
67.84000 466.833
67.88000 465.650
67.92000 455.885
67.96000 466.322
68.00000 481.450
68.04000 491.507
68.08000 487.125
68.12000 513.230
68.16000 510.004
68.20000 518.315
68.24000 531.097
68.28000 541.129
68.32000 548.122
68.36000 589.140
68.40000 596.791
68.44000 638.471
68.48000 656.641
68.52000 674.504
68.56000 737.624
68.60000 799.923
68.64000 932.651
68.68000 1063.988
68.72000 1227.884
68.76000 1380.284
68.80000 1594.131
68.84000 1762.874
68.88000 2110.874
68.92000 3196.575
68.96000 7584.057
69.00000 18694.799
69.04000 31419.936
69.08000 38646.184
69.12000 41517.453
69.16000 44498.051
69.20000 44903.254
69.24000 36696.785
69.28000 26976.449
69.32000 21928.428
69.36000 20399.979
69.40000 17471.406
69.44000 11019.464
69.48000 5170.576
69.52000 2306.567
69.56000 1353.922
69.60000 1054.994
69.64000 906.880
69.68000 797.618
69.72000 731.709
69.76000 662.808
69.80000 619.752
69.84000 587.130
69.88000 572.665
69.92000 523.807
69.96000 508.051
70.00000 489.421