File: XRD/XRD/08-10-2025 Dep 7/XY Data/BTO_Mapping_Theta2Theta_08-10-2025_001_32_-29-344_6-237.xy
20.00000 470.472
20.04000 463.544
20.08000 472.272
20.12000 477.578
20.16000 491.526
20.20000 482.213
20.24000 466.021
20.28000 481.221
20.32000 487.901
20.36000 477.456
20.40000 478.096
20.44000 463.173
20.48000 465.461
20.52000 471.320
20.56000 481.952
20.60000 490.762
20.64000 475.648
20.68000 462.904
20.72000 468.373
20.76000 467.677
20.80000 473.979
20.84000 465.399
20.88000 458.737
20.92000 460.651
20.96000 479.659
21.00000 464.168
21.04000 476.746
21.08000 474.100
21.12000 477.914
21.16000 469.195
21.20000 469.702
21.24000 465.858
21.28000 462.920
21.32000 466.256
21.36000 460.907
21.40000 459.271
21.44000 470.836
21.48000 460.226
21.52000 488.540
21.56000 461.334
21.60000 484.831
21.64000 473.382
21.68000 472.039
21.72000 482.239
21.76000 524.010
21.80000 563.461
21.84000 577.491
21.88000 619.661
21.92000 629.972
21.96000 675.245
22.00000 702.042
22.04000 709.032
22.08000 707.670
22.12000 684.697
22.16000 651.597
22.20000 605.451
22.24000 581.625
22.28000 530.801
22.32000 524.225
22.36000 510.013
22.40000 509.395
22.44000 479.958
22.48000 480.547
22.52000 458.741
22.56000 473.108
22.60000 472.333
22.64000 443.980
22.68000 448.323
22.72000 429.700
22.76000 438.083
22.80000 449.492
22.84000 438.500
22.88000 427.620
22.92000 437.417
22.96000 435.857
23.00000 455.533
23.04000 442.642
23.08000 431.327
23.12000 446.946
23.16000 427.609
23.20000 436.036
23.24000 424.759
23.28000 426.814
23.32000 418.076
23.36000 434.939
23.40000 431.975
23.44000 422.577
23.48000 435.022
23.52000 419.232
23.56000 417.791
23.60000 432.621
23.64000 422.642
23.68000 441.400
23.72000 434.738
23.76000 431.671
23.80000 435.306
23.84000 415.155
23.88000 427.728
23.92000 425.148
23.96000 445.679
24.00000 440.738
24.04000 432.746
24.08000 429.187
24.12000 452.607
24.16000 439.125
24.20000 430.223
24.24000 409.042
24.28000 435.765
24.32000 454.669
24.36000 416.571
24.40000 417.776
24.44000 405.169
24.48000 431.283
24.52000 400.855
24.56000 419.041
24.60000 423.582
24.64000 418.572
24.68000 419.194
24.72000 404.241
24.76000 404.836
24.80000 405.993
24.84000 406.453
24.88000 409.331
24.92000 397.265
24.96000 410.309
25.00000 386.909
25.04000 394.085
25.08000 399.432
25.12000 421.843
25.16000 409.151
25.20000 414.687
25.24000 412.257
25.28000 404.971
25.32000 404.130
25.36000 392.240
25.40000 408.977
25.44000 403.343
25.48000 400.184
25.52000 395.423
25.56000 396.259
25.60000 386.609
25.64000 389.228
25.68000 400.982
25.72000 387.637
25.76000 384.791
25.80000 378.804
25.84000 407.723
25.88000 408.215
25.92000 392.744
25.96000 382.004
26.00000 374.723
26.04000 385.789
26.08000 382.179
26.12000 384.907
26.16000 380.646
26.20000 391.165
26.24000 390.897
26.28000 388.172
26.32000 367.761
26.36000 381.698
26.40000 378.032
26.44000 387.612
26.48000 378.408
26.52000 379.739
26.56000 369.452
26.60000 385.476
26.64000 375.682
26.68000 373.975
26.72000 382.722
26.76000 387.731
26.80000 380.441
26.84000 379.275
26.88000 380.143
26.92000 378.805
26.96000 392.942
27.00000 368.445
27.04000 393.068
27.08000 386.156
27.12000 372.920
27.16000 371.110
27.20000 374.118
27.24000 361.532
27.28000 398.187
27.32000 372.591
27.36000 367.812
27.40000 360.861
27.44000 375.730
27.48000 362.193
27.52000 381.815
27.56000 369.722
27.60000 366.996
27.64000 376.200
27.68000 369.745
27.72000 386.407
27.76000 358.140
27.80000 366.420
27.84000 366.344
27.88000 371.227
27.92000 354.552
27.96000 369.854
28.00000 366.265
28.04000 374.787
28.08000 374.594
28.12000 370.024
28.16000 382.945
28.20000 377.390
28.24000 375.362
28.28000 365.149
28.32000 371.026
28.36000 368.809
28.40000 360.034
28.44000 364.457
28.48000 371.580
28.52000 362.687
28.56000 345.566
28.60000 361.540
28.64000 354.368
28.68000 353.543
28.72000 357.241
28.76000 358.124
28.80000 363.217
28.84000 359.264
28.88000 348.274
28.92000 363.515
28.96000 345.861
29.00000 355.754
29.04000 344.827
29.08000 348.691
29.12000 358.570
29.16000 367.213
29.20000 349.712
29.24000 336.136
29.28000 355.338
29.32000 374.663
29.36000 370.829
29.40000 369.571
29.44000 365.755
29.48000 348.916
29.52000 345.528
29.56000 358.614
29.60000 361.017
29.64000 346.060
29.68000 351.376
29.72000 369.320
29.76000 383.827
29.80000 394.130
29.84000 417.752
29.88000 428.330
29.92000 438.882
29.96000 439.100
30.00000 447.182
30.04000 458.235
30.08000 425.779
30.12000 433.175
30.16000 428.976
30.20000 421.110
30.24000 395.326
30.28000 392.425
30.32000 393.837
30.36000 380.759
30.40000 381.804
30.44000 391.104
30.48000 380.020
30.52000 386.090
30.56000 374.036
30.60000 392.181
30.64000 378.590
30.68000 373.331
30.72000 387.154
30.76000 397.062
30.80000 405.480
30.84000 438.865
30.88000 439.966
30.92000 483.502
30.96000 506.152
31.00000 591.820
31.04000 745.437
31.08000 884.427
31.12000 1134.566
31.16000 1410.349
31.20000 1757.620
31.24000 2048.969
31.28000 2448.435
31.32000 2708.153
31.36000 2788.759
31.40000 2717.762
31.44000 2522.132
31.48000 2152.876
31.52000 1791.625
31.56000 1448.712
31.60000 1129.938
31.64000 854.201
31.68000 668.702
31.72000 557.629
31.76000 481.640
31.80000 446.321
31.84000 403.939
31.88000 394.512
31.92000 369.441
31.96000 386.019
32.00000 359.756
32.04000 351.182
32.08000 347.256
32.12000 340.668
32.16000 338.147
32.20000 329.118
32.24000 333.286
32.28000 328.923
32.32000 322.884
32.36000 347.263
32.40000 323.518
32.44000 328.408
32.48000 327.384
32.52000 321.067
32.56000 319.412
32.60000 306.846
32.64000 308.291
32.68000 325.630
32.72000 312.118
32.76000 320.783
32.80000 324.701
32.84000 325.931
32.88000 322.745
32.92000 321.655
32.96000 320.857
33.00000 312.225
33.04000 322.461
33.08000 299.488
33.12000 326.330
33.16000 292.707
33.20000 307.837
33.24000 295.784
33.28000 293.900
33.32000 306.318
33.36000 301.774
33.40000 287.178
33.44000 306.257
33.48000 301.762
33.52000 302.823
33.56000 293.867
33.60000 291.456
33.64000 310.916
33.68000 298.864
33.72000 295.926
33.76000 282.614
33.80000 300.496
33.84000 303.081
33.88000 297.789
33.92000 286.258
33.96000 293.323
34.00000 296.839
34.04000 285.944
34.08000 296.344
34.12000 315.395
34.16000 313.714
34.20000 316.188
34.24000 322.901
34.28000 333.232
34.32000 319.681
34.36000 326.927
34.40000 319.926
34.44000 312.161
34.48000 299.604
34.52000 307.028
34.56000 298.643
34.60000 313.400
34.64000 322.737
34.68000 305.734
34.72000 292.461
34.76000 272.116
34.80000 283.475
34.84000 277.061
34.88000 277.936
34.92000 278.593
34.96000 292.271
35.00000 288.154
35.04000 272.352
35.08000 272.027
35.12000 271.679
35.16000 268.079
35.20000 264.962
35.24000 267.047
35.28000 275.655
35.32000 271.870
35.36000 254.419
35.40000 255.860
35.44000 277.493
35.48000 253.258
35.52000 268.032
35.56000 264.262
35.60000 274.564
35.64000 252.838
35.68000 259.573
35.72000 268.858
35.76000 271.317
35.80000 281.609
35.84000 267.729
35.88000 270.754
35.92000 257.368
35.96000 267.725
36.00000 259.794
36.04000 276.209
36.08000 258.876
36.12000 262.461
36.16000 256.034
36.20000 251.392
36.24000 275.267
36.28000 264.594
36.32000 239.888
36.36000 261.535
36.40000 265.705
36.44000 270.276
36.48000 262.575
36.52000 255.437
36.56000 256.391
36.60000 252.999
36.64000 267.277
36.68000 258.159
36.72000 260.418
36.76000 275.642
36.80000 269.229
36.84000 260.581
36.88000 264.129
36.92000 273.043
36.96000 272.368
37.00000 265.715
37.04000 268.972
37.08000 270.967
37.12000 265.540
37.16000 264.631
37.20000 263.102
37.24000 260.619
37.28000 267.588
37.32000 267.478
37.36000 256.315
37.40000 251.014
37.44000 255.071
37.48000 253.629
37.52000 257.362
37.56000 241.283
37.60000 242.690
37.64000 246.012
37.68000 254.373
37.72000 252.803
37.76000 248.625
37.80000 244.679
37.84000 245.082
37.88000 265.403
37.92000 247.908
37.96000 243.209
38.00000 262.206
38.04000 255.745
38.08000 256.473
38.12000 265.361
38.16000 262.474
38.20000 276.608
38.24000 279.705
38.28000 288.215
38.32000 315.087
38.36000 327.575
38.40000 373.548
38.44000 417.491
38.48000 453.377
38.52000 531.052
38.56000 555.992
38.60000 626.859
38.64000 640.178
38.68000 671.867
38.72000 644.814
38.76000 626.403
38.80000 573.387
38.84000 535.030
38.88000 478.750
38.92000 433.563
38.96000 369.520
39.00000 329.876
39.04000 285.126
39.08000 272.276
39.12000 260.492
39.16000 242.083
39.20000 249.292
39.24000 239.469
39.28000 241.475
39.32000 238.431
39.36000 223.132
39.40000 233.469
39.44000 230.598
39.48000 241.816
39.52000 242.023
39.56000 215.917
39.60000 240.306
39.64000 216.681
39.68000 222.181
39.72000 213.127
39.76000 239.761
39.80000 229.003
39.84000 217.561
39.88000 219.596
39.92000 217.032
39.96000 217.178
40.00000 216.405
40.04000 222.348
40.08000 227.715
40.12000 223.759
40.16000 234.760
40.20000 230.275
40.24000 225.888
40.28000 235.358
40.32000 224.108
40.36000 236.482
40.40000 220.020
40.44000 219.254
40.48000 220.706
40.52000 219.911
40.56000 214.514
40.60000 217.009
40.64000 223.704
40.68000 215.607
40.72000 213.642
40.76000 222.576
40.80000 221.231
40.84000 213.575
40.88000 223.397
40.92000 209.261
40.96000 202.195
41.00000 206.237
41.04000 208.306
41.08000 215.011
41.12000 211.300
41.16000 220.421
41.20000 224.904
41.24000 217.931
41.28000 214.124
41.32000 206.325
41.36000 204.390
41.40000 190.379
41.44000 209.877
41.48000 208.757
41.52000 207.642
41.56000 217.006
41.60000 204.289
41.64000 212.219
41.68000 212.492
41.72000 222.268
41.76000 205.561
41.80000 209.436
41.84000 221.609
41.88000 209.553
41.92000 203.054
41.96000 195.096
42.00000 195.782
42.04000 205.869
42.08000 209.609
42.12000 210.820
42.16000 205.192
42.20000 203.019
42.24000 209.652
42.28000 204.224
42.32000 199.907
42.36000 202.212
42.40000 210.139
42.44000 199.995
42.48000 211.971
42.52000 214.543
42.56000 199.764
42.60000 199.990
42.64000 216.333
42.68000 209.214
42.72000 205.317
42.76000 191.261
42.80000 198.547
42.84000 219.081
42.88000 200.032
42.92000 196.679
42.96000 214.612
43.00000 196.646
43.04000 210.382
43.08000 202.302
43.12000 199.293
43.16000 194.297
43.20000 202.844
43.24000 200.800
43.28000 189.375
43.32000 207.479
43.36000 213.089
43.40000 197.355
43.44000 202.123
43.48000 203.187
43.52000 199.759
43.56000 195.135
43.60000 199.686
43.64000 193.336
43.68000 200.649
43.72000 201.392
43.76000 193.664
43.80000 202.412
43.84000 209.028
43.88000 193.742
43.92000 196.373
43.96000 191.387
44.00000 215.908
44.04000 195.945
44.08000 202.376
44.12000 196.299
44.16000 204.948
44.20000 195.032
44.24000 203.328
44.28000 205.015
44.32000 187.407
44.36000 202.184
44.40000 202.738
44.44000 218.459
44.48000 225.181
44.52000 235.007
44.56000 233.135
44.60000 241.071
44.64000 249.057
44.68000 270.465
44.72000 286.831
44.76000 321.892
44.80000 323.544
44.84000 349.754
44.88000 375.151
44.92000 385.982
44.96000 401.347
45.00000 391.134
45.04000 381.252
45.08000 395.243
45.12000 380.547
45.16000 343.007
45.20000 314.862
45.24000 300.897
45.28000 294.592
45.32000 269.631
45.36000 254.501
45.40000 251.901
45.44000 253.447
45.48000 254.288
45.52000 236.240
45.56000 235.264
45.60000 215.965
45.64000 201.871
45.68000 228.076
45.72000 216.781
45.76000 200.150
45.80000 202.819
45.84000 206.830
45.88000 201.209
45.92000 192.018
45.96000 187.387
46.00000 189.625
46.04000 184.807
46.08000 190.891
46.12000 185.741
46.16000 188.425
46.20000 182.199
46.24000 176.769
46.28000 185.767
46.32000 181.600
46.36000 180.617
46.40000 176.164
46.44000 170.216
46.48000 184.055
46.52000 181.449
46.56000 176.967
46.60000 166.140
46.64000 162.670
46.68000 161.142
46.72000 175.157
46.76000 175.280
46.80000 178.648
46.84000 179.961
46.88000 171.496
46.92000 169.652
46.96000 180.802
47.00000 174.591
47.04000 167.390
47.08000 170.424
47.12000 162.511
47.16000 167.761
47.20000 159.664
47.24000 172.030
47.28000 164.762
47.32000 172.504
47.36000 163.276
47.40000 162.370
47.44000 170.357
47.48000 160.991
47.52000 164.115
47.56000 169.184
47.60000 165.301
47.64000 174.545
47.68000 155.568
47.72000 161.130
47.76000 162.465
47.80000 166.739
47.84000 171.226
47.88000 164.986
47.92000 175.390
47.96000 153.772
48.00000 164.587
48.04000 157.240
48.08000 164.494
48.12000 162.497
48.16000 160.081
48.20000 157.250
48.24000 163.518
48.28000 165.417
48.32000 161.471
48.36000 158.223
48.40000 159.626
48.44000 161.666
48.48000 164.051
48.52000 162.286
48.56000 165.912
48.60000 164.274
48.64000 152.091
48.68000 158.341
48.72000 160.518
48.76000 164.574
48.80000 157.119
48.84000 154.306
48.88000 154.760
48.92000 158.314
48.96000 150.647
49.00000 157.557
49.04000 148.084
49.08000 158.959
49.12000 167.346
49.16000 155.832
49.20000 156.876
49.24000 148.493
49.28000 151.179
49.32000 162.079
49.36000 157.081
49.40000 162.716
49.44000 145.706
49.48000 154.750
49.52000 149.623
49.56000 157.814
49.60000 155.334
49.64000 145.960
49.68000 153.136
49.72000 164.738
49.76000 160.972
49.80000 165.841
49.84000 154.126
49.88000 163.873
49.92000 153.416
49.96000 152.456
50.00000 159.558
50.04000 177.006
50.08000 159.052
50.12000 162.266
50.16000 164.910
50.20000 164.340
50.24000 177.038
50.28000 188.721
50.32000 171.438
50.36000 201.892
50.40000 201.143
50.44000 218.745
50.48000 225.098
50.52000 239.709
50.56000 232.418
50.60000 246.525
50.64000 252.982
50.68000 246.236
50.72000 232.000
50.76000 222.659
50.80000 210.940
50.84000 201.827
50.88000 198.176
50.92000 184.587
50.96000 176.787
51.00000 181.042
51.04000 164.857
51.08000 155.382
51.12000 156.493
51.16000 144.149
51.20000 152.056
51.24000 147.206
51.28000 160.387
51.32000 146.094
51.36000 147.014
51.40000 148.390
51.44000 145.308
51.48000 136.898
51.52000 148.361
51.56000 134.171
51.60000 143.138
51.64000 139.134
51.68000 143.001
51.72000 139.020
51.76000 150.458
51.80000 139.486
51.84000 148.110
51.88000 146.994
51.92000 144.050
51.96000 143.566
52.00000 137.509
52.04000 139.106
52.08000 131.640
52.12000 131.215
52.16000 141.055
52.20000 147.078
52.24000 133.401
52.28000 143.574
52.32000 143.487
52.36000 146.247
52.40000 141.376
52.44000 149.153
52.48000 143.293
52.52000 136.956
52.56000 130.861
52.60000 137.015
52.64000 145.626
52.68000 142.071
52.72000 137.709
52.76000 146.701
52.80000 147.787
52.84000 149.027
52.88000 137.121
52.92000 147.754
52.96000 143.219
53.00000 140.732
53.04000 152.849
53.08000 153.310
53.12000 160.032
53.16000 155.810
53.20000 152.927
53.24000 152.326
53.28000 160.592
53.32000 161.360
53.36000 158.974
53.40000 152.300
53.44000 156.549
53.48000 164.968
53.52000 154.589
53.56000 137.365
53.60000 155.946
53.64000 138.216
53.68000 165.539
53.72000 148.260
53.76000 144.181
53.80000 146.775
53.84000 146.933
53.88000 140.934
53.92000 137.601
53.96000 140.514
54.00000 138.872
54.04000 143.591
54.08000 137.624
54.12000 132.633
54.16000 141.675
54.20000 152.897
54.24000 140.156
54.28000 145.170
54.32000 150.872
54.36000 145.284
54.40000 142.225
54.44000 145.903
54.48000 136.724
54.52000 148.846
54.56000 146.217
54.60000 140.390
54.64000 150.943
54.68000 136.531
54.72000 138.496
54.76000 138.432
54.80000 138.731
54.84000 140.205
54.88000 142.471
54.92000 143.391
54.96000 146.382
55.00000 146.932
55.04000 143.212
55.08000 157.721
55.12000 148.082
55.16000 158.517
55.20000 162.357
55.24000 163.609
55.28000 177.259
55.32000 187.730
55.36000 209.491
55.40000 232.426
55.44000 237.174
55.48000 286.889
55.52000 316.646
55.56000 361.904
55.60000 419.437
55.64000 475.440
55.68000 524.317
55.72000 566.784
55.76000 593.893
55.80000 619.076
55.84000 632.736
55.88000 650.746
55.92000 643.092
55.96000 591.436
56.00000 557.181
56.04000 477.555
56.08000 460.668
56.12000 395.600
56.16000 346.014
56.20000 314.128
56.24000 261.355
56.28000 250.353
56.32000 213.493
56.36000 203.667
56.40000 178.041
56.44000 172.693
56.48000 168.587
56.52000 146.037
56.56000 142.664
56.60000 150.740
56.64000 134.821
56.68000 138.347
56.72000 136.222
56.76000 127.912
56.80000 129.968
56.84000 127.015
56.88000 134.100
56.92000 139.094
56.96000 133.375
57.00000 119.524
57.04000 129.254
57.08000 125.145
57.12000 136.751
57.16000 130.846
57.20000 122.768
57.24000 130.012
57.28000 121.936
57.32000 124.484
57.36000 137.284
57.40000 134.101
57.44000 122.452
57.48000 128.747
57.52000 117.887
57.56000 129.369
57.60000 128.923
57.64000 126.268
57.68000 125.352
57.72000 122.070
57.76000 123.630
57.80000 123.056
57.84000 127.989
57.88000 120.751
57.92000 121.329
57.96000 129.473
58.00000 127.207
58.04000 126.028
58.08000 127.007
58.12000 121.156
58.16000 121.098
58.20000 124.746
58.24000 125.137
58.28000 120.307
58.32000 121.117
58.36000 108.360
58.40000 119.425
58.44000 120.370
58.48000 116.107
58.52000 115.780
58.56000 113.537
58.60000 124.936
58.64000 120.637
58.68000 120.504
58.72000 126.857
58.76000 113.917
58.80000 115.122
58.84000 118.481
58.88000 122.062
58.92000 115.088
58.96000 106.243
59.00000 127.537
59.04000 125.285
59.08000 122.436
59.12000 127.713
59.16000 123.856
59.20000 119.291
59.24000 114.871
59.28000 122.202
59.32000 116.065
59.36000 112.299
59.40000 122.041
59.44000 124.620
59.48000 119.129
59.52000 116.600
59.56000 124.884
59.60000 131.149
59.64000 115.968
59.68000 117.853
59.72000 122.005
59.76000 113.230
59.80000 122.497
59.84000 112.375
59.88000 122.146
59.92000 123.310
59.96000 112.830
60.00000 119.403
60.04000 113.411
60.08000 119.213
60.12000 113.343
60.16000 118.757
60.20000 120.249
60.24000 111.487
60.28000 119.240
60.32000 109.800
60.36000 113.684
60.40000 115.157
60.44000 116.291
60.48000 119.415
60.52000 105.016
60.56000 117.077
60.60000 124.750
60.64000 113.158
60.68000 123.016
60.72000 119.624
60.76000 121.298
60.80000 120.818
60.84000 115.791
60.88000 124.802
60.92000 120.563
60.96000 124.288
61.00000 121.037
61.04000 128.209
61.08000 107.322
61.12000 126.496
61.16000 110.854
61.20000 123.844
61.24000 121.881
61.28000 118.016
61.32000 122.981
61.36000 129.498
61.40000 123.626
61.44000 122.588
61.48000 140.710
61.52000 146.884
61.56000 179.076
61.60000 258.613
61.64000 305.944
61.68000 330.334
61.72000 340.482
61.76000 331.809
61.80000 289.287
61.84000 217.933
61.88000 165.074
61.92000 144.823
61.96000 130.694
62.00000 143.253
62.04000 137.886
62.08000 139.656
62.12000 125.954
62.16000 131.673
62.20000 129.704
62.24000 127.220
62.28000 136.870
62.32000 122.059
62.36000 123.798
62.40000 134.378
62.44000 129.916
62.48000 138.205
62.52000 121.364
62.56000 131.264
62.60000 129.054
62.64000 130.720
62.68000 137.685
62.72000 137.986
62.76000 133.784
62.80000 139.811
62.84000 128.742
62.88000 128.132
62.92000 128.302
62.96000 136.398
63.00000 137.525
63.04000 127.250
63.08000 125.892
63.12000 138.701
63.16000 137.087
63.20000 138.418
63.24000 127.682
63.28000 137.450
63.32000 136.011
63.36000 124.350
63.40000 133.696
63.44000 137.401
63.48000 133.883
63.52000 141.398
63.56000 137.350
63.60000 136.433
63.64000 144.212
63.68000 139.990
63.72000 143.719
63.76000 152.187
63.80000 142.239
63.84000 140.348
63.88000 150.857
63.92000 141.554
63.96000 143.201
64.00000 149.359
64.04000 144.789
64.08000 140.559
64.12000 146.574
64.16000 133.506
64.20000 158.699
64.24000 149.033
64.28000 153.019
64.32000 157.969
64.36000 159.320
64.40000 163.249
64.44000 155.266
64.48000 166.413
64.52000 163.853
64.56000 167.524
64.60000 178.383
64.64000 171.642
64.68000 178.534
64.72000 193.567
64.76000 187.301
64.80000 171.287
64.84000 189.034
64.88000 201.638
64.92000 210.278
64.96000 212.855
65.00000 217.508
65.04000 234.220
65.08000 254.809
65.12000 245.069
65.16000 269.797
65.20000 265.471
65.24000 290.113
65.28000 307.119
65.32000 311.112
65.36000 343.344
65.40000 359.713
65.44000 364.753
65.48000 374.814
65.52000 411.392
65.56000 424.206
65.60000 442.845
65.64000 464.586
65.68000 598.217
65.72000 839.072
65.76000 1349.737
65.80000 1865.608
65.84000 2221.812
65.88000 2379.629
65.92000 2362.059
65.96000 2107.970
66.00000 1551.293
66.04000 994.706
66.08000 641.963
66.12000 491.537
66.16000 413.317
66.20000 410.865
66.24000 418.424
66.28000 459.529
66.32000 558.580
66.36000 630.788
66.40000 715.231
66.44000 704.987
66.48000 723.026
66.52000 660.551
66.56000 553.876
66.60000 456.362
66.64000 406.404
66.68000 367.417
66.72000 367.295
66.76000 384.064
66.80000 371.723
66.84000 385.474
66.88000 376.980
66.92000 372.747
66.96000 394.387
67.00000 399.210
67.04000 388.950
67.08000 402.781
67.12000 400.746
67.16000 406.255
67.20000 407.368
67.24000 419.773
67.28000 424.218
67.32000 424.251
67.36000 430.165
67.40000 420.392
67.44000 437.238
67.48000 453.604
67.52000 454.363
67.56000 470.748
67.60000 451.047
67.64000 470.031
67.68000 488.669
67.72000 466.694
67.76000 486.917
67.80000 482.249
67.84000 496.648
67.88000 512.879
67.92000 498.591
67.96000 512.856
68.00000 505.196
68.04000 528.427
68.08000 541.791
68.12000 555.288
68.16000 534.828
68.20000 563.889
68.24000 581.967
68.28000 587.497
68.32000 609.948
68.36000 646.400
68.40000 636.692
68.44000 664.072
68.48000 688.534
68.52000 734.046
68.56000 783.807
68.60000 881.171
68.64000 969.648
68.68000 1136.248
68.72000 1346.347
68.76000 1587.436
68.80000 1786.965
68.84000 2028.705
68.88000 2497.235
68.92000 3465.375
68.96000 6801.460
69.00000 17248.965
69.04000 33096.766
69.08000 45841.250
69.12000 51635.801
69.16000 54868.164
69.20000 57019.793
69.24000 51812.750
69.28000 39547.602
69.32000 30306.057
69.36000 26363.189
69.40000 23960.834
69.44000 17619.721
69.48000 9446.720
69.52000 4248.127
69.56000 2002.313
69.60000 1368.071
69.64000 1102.543
69.68000 931.591
69.72000 834.716
69.76000 737.067
69.80000 679.481
69.84000 630.224
69.88000 606.463
69.92000 581.451
69.96000 552.264
70.00000 518.035