File: XRD/XRD/08-10-2025 Dep 7/XY Data/BTO_Mapping_Theta2Theta_08-10-2025_001_10_6-691_7-431.xy
20.00000 477.066
20.04000 481.886
20.08000 497.369
20.12000 479.107
20.16000 470.497
20.20000 480.907
20.24000 469.905
20.28000 460.381
20.32000 457.953
20.36000 465.823
20.40000 476.722
20.44000 476.114
20.48000 455.043
20.52000 444.705
20.56000 462.880
20.60000 464.631
20.64000 472.809
20.68000 465.253
20.72000 462.732
20.76000 463.354
20.80000 477.298
20.84000 455.128
20.88000 454.984
20.92000 437.008
20.96000 465.069
21.00000 484.327
21.04000 459.504
21.08000 462.067
21.12000 467.292
21.16000 468.093
21.20000 469.489
21.24000 471.994
21.28000 446.448
21.32000 455.245
21.36000 474.041
21.40000 461.177
21.44000 450.975
21.48000 467.905
21.52000 464.190
21.56000 448.557
21.60000 460.535
21.64000 488.121
21.68000 468.718
21.72000 472.157
21.76000 473.109
21.80000 471.732
21.84000 484.091
21.88000 480.166
21.92000 518.992
21.96000 496.836
22.00000 510.592
22.04000 496.004
22.08000 497.640
22.12000 513.483
22.16000 502.420
22.20000 521.518
22.24000 488.342
22.28000 474.283
22.32000 483.286
22.36000 481.276
22.40000 459.017
22.44000 467.617
22.48000 458.702
22.52000 453.824
22.56000 441.264
22.60000 463.440
22.64000 441.406
22.68000 426.425
22.72000 471.344
22.76000 452.558
22.80000 451.264
22.84000 447.518
22.88000 450.916
22.92000 439.072
22.96000 451.850
23.00000 429.373
23.04000 440.680
23.08000 446.008
23.12000 437.158
23.16000 440.377
23.20000 437.071
23.24000 438.567
23.28000 427.954
23.32000 436.452
23.36000 440.419
23.40000 451.570
23.44000 418.397
23.48000 438.111
23.52000 432.898
23.56000 441.828
23.60000 445.858
23.64000 449.452
23.68000 451.939
23.72000 459.035
23.76000 478.128
23.80000 482.841
23.84000 498.606
23.88000 505.760
23.92000 519.953
23.96000 533.516
24.00000 514.528
24.04000 518.946
24.08000 507.667
24.12000 488.365
24.16000 461.659
24.20000 480.096
24.24000 452.021
24.28000 459.728
24.32000 424.994
24.36000 423.471
24.40000 416.790
24.44000 441.884
24.48000 436.387
24.52000 427.121
24.56000 393.019
24.60000 406.367
24.64000 415.451
24.68000 410.997
24.72000 409.248
24.76000 405.182
24.80000 393.073
24.84000 415.778
24.88000 403.623
24.92000 402.303
24.96000 402.661
25.00000 417.246
25.04000 409.818
25.08000 403.476
25.12000 399.557
25.16000 405.160
25.20000 409.228
25.24000 395.434
25.28000 396.157
25.32000 398.442
25.36000 398.739
25.40000 389.143
25.44000 402.092
25.48000 389.102
25.52000 403.865
25.56000 401.406
25.60000 398.894
25.64000 372.493
25.68000 390.809
25.72000 391.764
25.76000 379.852
25.80000 406.340
25.84000 403.122
25.88000 398.433
25.92000 387.341
25.96000 388.238
26.00000 406.776
26.04000 420.616
26.08000 392.531
26.12000 391.404
26.16000 389.033
26.20000 401.483
26.24000 402.020
26.28000 382.062
26.32000 381.325
26.36000 390.219
26.40000 406.681
26.44000 385.700
26.48000 368.504
26.52000 377.773
26.56000 367.335
26.60000 392.658
26.64000 387.736
26.68000 386.970
26.72000 376.875
26.76000 357.786
26.80000 397.194
26.84000 378.770
26.88000 371.364
26.92000 381.221
26.96000 389.851
27.00000 379.700
27.04000 371.002
27.08000 373.834
27.12000 358.033
27.16000 368.406
27.20000 374.302
27.24000 371.277
27.28000 366.816
27.32000 376.791
27.36000 379.900
27.40000 376.636
27.44000 386.468
27.48000 354.862
27.52000 378.961
27.56000 386.707
27.60000 364.768
27.64000 358.792
27.68000 364.975
27.72000 372.247
27.76000 369.865
27.80000 365.926
27.84000 359.732
27.88000 375.638
27.92000 357.019
27.96000 373.004
28.00000 375.605
28.04000 381.977
28.08000 372.192
28.12000 363.431
28.16000 372.951
28.20000 362.518
28.24000 356.328
28.28000 373.090
28.32000 366.413
28.36000 359.265
28.40000 362.351
28.44000 368.687
28.48000 351.472
28.52000 349.804
28.56000 356.570
28.60000 361.565
28.64000 359.606
28.68000 365.313
28.72000 359.357
28.76000 346.623
28.80000 346.191
28.84000 343.512
28.88000 369.097
28.92000 342.408
28.96000 337.715
29.00000 360.848
29.04000 363.283
29.08000 361.999
29.12000 350.476
29.16000 348.397
29.20000 355.431
29.24000 362.222
29.28000 362.548
29.32000 350.900
29.36000 356.738
29.40000 347.332
29.44000 358.679
29.48000 353.409
29.52000 365.271
29.56000 362.865
29.60000 357.724
29.64000 365.797
29.68000 358.745
29.72000 363.444
29.76000 365.410
29.80000 368.860
29.84000 367.969
29.88000 361.762
29.92000 385.535
29.96000 381.353
30.00000 375.521
30.04000 376.769
30.08000 403.137
30.12000 380.718
30.16000 379.834
30.20000 382.024
30.24000 360.476
30.28000 380.384
30.32000 364.931
30.36000 371.111
30.40000 379.576
30.44000 366.597
30.48000 378.527
30.52000 381.553
30.56000 369.528
30.60000 369.057
30.64000 370.883
30.68000 375.026
30.72000 348.092
30.76000 376.153
30.80000 374.909
30.84000 390.694
30.88000 412.688
30.92000 415.316
30.96000 444.707
31.00000 461.444
31.04000 494.373
31.08000 553.796
31.12000 599.376
31.16000 704.774
31.20000 790.076
31.24000 926.630
31.28000 1075.770
31.32000 1174.078
31.36000 1234.722
31.40000 1242.005
31.44000 1259.974
31.48000 1120.381
31.52000 998.384
31.56000 833.446
31.60000 727.868
31.64000 624.521
31.68000 540.628
31.72000 464.551
31.76000 464.022
31.80000 414.999
31.84000 412.305
31.88000 388.656
31.92000 384.339
31.96000 355.017
32.00000 360.605
32.04000 364.081
32.08000 334.842
32.12000 353.094
32.16000 337.036
32.20000 335.908
32.24000 324.918
32.28000 325.784
32.32000 323.403
32.36000 321.429
32.40000 333.970
32.44000 319.081
32.48000 348.298
32.52000 319.577
32.56000 310.068
32.60000 319.141
32.64000 313.444
32.68000 316.891
32.72000 313.595
32.76000 321.715
32.80000 334.644
32.84000 325.249
32.88000 319.849
32.92000 311.196
32.96000 318.508
33.00000 326.820
33.04000 318.133
33.08000 335.248
33.12000 301.241
33.16000 303.138
33.20000 304.811
33.24000 299.838
33.28000 298.765
33.32000 316.733
33.36000 295.077
33.40000 308.728
33.44000 307.922
33.48000 300.527
33.52000 291.388
33.56000 296.189
33.60000 296.689
33.64000 304.016
33.68000 310.581
33.72000 292.333
33.76000 314.729
33.80000 298.706
33.84000 309.809
33.88000 309.967
33.92000 305.202
33.96000 310.358
34.00000 312.874
34.04000 306.996
34.08000 327.570
34.12000 337.931
34.16000 341.745
34.20000 341.999
34.24000 348.217
34.28000 363.850
34.32000 360.971
34.36000 362.152
34.40000 354.464
34.44000 356.637
34.48000 345.270
34.52000 330.816
34.56000 323.668
34.60000 328.120
34.64000 308.619
34.68000 323.727
34.72000 304.111
34.76000 300.195
34.80000 303.420
34.84000 292.117
34.88000 286.818
34.92000 289.739
34.96000 290.004
35.00000 280.015
35.04000 285.518
35.08000 277.369
35.12000 278.749
35.16000 278.012
35.20000 271.888
35.24000 261.092
35.28000 280.110
35.32000 266.914
35.36000 264.630
35.40000 261.410
35.44000 265.560
35.48000 273.021
35.52000 263.718
35.56000 246.181
35.60000 260.382
35.64000 256.890
35.68000 271.757
35.72000 253.204
35.76000 253.091
35.80000 261.431
35.84000 250.407
35.88000 260.800
35.92000 254.936
35.96000 262.446
36.00000 273.498
36.04000 261.673
36.08000 257.750
36.12000 252.848
36.16000 259.875
36.20000 252.275
36.24000 261.390
36.28000 248.956
36.32000 268.369
36.36000 261.971
36.40000 262.474
36.44000 263.341
36.48000 256.342
36.52000 254.664
36.56000 251.040
36.60000 268.282
36.64000 265.202
36.68000 260.444
36.72000 253.038
36.76000 252.530
36.80000 258.459
36.84000 256.403
36.88000 279.063
36.92000 263.553
36.96000 269.671
37.00000 281.596
37.04000 284.581
37.08000 276.158
37.12000 276.253
37.16000 274.533
37.20000 258.159
37.24000 263.208
37.28000 276.624
37.32000 264.325
37.36000 234.351
37.40000 259.413
37.44000 246.324
37.48000 251.955
37.52000 246.537
37.56000 247.360
37.60000 253.548
37.64000 254.206
37.68000 257.303
37.72000 259.600
37.76000 251.960
37.80000 248.770
37.84000 244.128
37.88000 252.220
37.92000 243.583
37.96000 250.958
38.00000 259.341
38.04000 248.652
38.08000 271.930
38.12000 241.274
38.16000 250.454
38.20000 266.035
38.24000 270.197
38.28000 286.906
38.32000 300.591
38.36000 306.812
38.40000 343.440
38.44000 397.184
38.48000 476.904
38.52000 559.065
38.56000 652.197
38.60000 801.480
38.64000 902.669
38.68000 978.568
38.72000 1037.520
38.76000 1015.977
38.80000 944.442
38.84000 801.797
38.88000 691.885
38.92000 569.966
38.96000 468.557
39.00000 384.965
39.04000 345.048
39.08000 284.515
39.12000 267.426
39.16000 251.927
39.20000 236.397
39.24000 256.793
39.28000 236.979
39.32000 245.578
39.36000 234.490
39.40000 246.591
39.44000 227.057
39.48000 236.875
39.52000 233.517
39.56000 220.931
39.60000 228.849
39.64000 241.085
39.68000 245.773
39.72000 231.568
39.76000 232.703
39.80000 229.630
39.84000 222.397
39.88000 222.437
39.92000 233.099
39.96000 231.821
40.00000 234.318
40.04000 229.390
40.08000 231.054
40.12000 231.966
40.16000 217.128
40.20000 235.144
40.24000 233.747
40.28000 241.267
40.32000 219.449
40.36000 229.875
40.40000 234.497
40.44000 225.262
40.48000 217.173
40.52000 212.775
40.56000 230.217
40.60000 224.497
40.64000 220.539
40.68000 229.809
40.72000 208.865
40.76000 209.710
40.80000 216.789
40.84000 214.199
40.88000 229.666
40.92000 214.481
40.96000 223.486
41.00000 216.320
41.04000 195.470
41.08000 211.837
41.12000 200.624
41.16000 213.017
41.20000 210.941
41.24000 208.626
41.28000 212.697
41.32000 210.168
41.36000 205.451
41.40000 206.022
41.44000 207.811
41.48000 216.865
41.52000 208.096
41.56000 215.644
41.60000 207.643
41.64000 211.776
41.68000 205.496
41.72000 205.965
41.76000 205.178
41.80000 206.274
41.84000 203.982
41.88000 206.774
41.92000 202.616
41.96000 217.553
42.00000 216.640
42.04000 206.383
42.08000 221.409
42.12000 206.764
42.16000 203.371
42.20000 219.703
42.24000 216.012
42.28000 214.977
42.32000 211.557
42.36000 222.663
42.40000 220.257
42.44000 229.854
42.48000 210.199
42.52000 217.113
42.56000 217.701
42.60000 212.540
42.64000 205.406
42.68000 196.270
42.72000 204.299
42.76000 219.404
42.80000 203.248
42.84000 200.269
42.88000 200.958
42.92000 199.052
42.96000 202.449
43.00000 196.222
43.04000 196.631
43.08000 196.404
43.12000 197.361
43.16000 189.728
43.20000 208.751
43.24000 191.410
43.28000 198.484
43.32000 189.633
43.36000 192.489
43.40000 190.948
43.44000 197.097
43.48000 196.053
43.52000 198.870
43.56000 192.660
43.60000 184.271
43.64000 189.923
43.68000 186.352
43.72000 183.875
43.76000 192.947
43.80000 197.434
43.84000 185.250
43.88000 189.809
43.92000 194.475
43.96000 191.482
44.00000 191.829
44.04000 195.077
44.08000 191.756
44.12000 193.691
44.16000 202.874
44.20000 198.152
44.24000 185.551
44.28000 197.019
44.32000 196.667
44.36000 214.378
44.40000 212.529
44.44000 221.507
44.48000 209.589
44.52000 202.135
44.56000 221.789
44.60000 216.832
44.64000 209.750
44.68000 224.760
44.72000 223.229
44.76000 231.980
44.80000 237.026
44.84000 241.693
44.88000 238.830
44.92000 240.871
44.96000 247.443
45.00000 241.008
45.04000 253.304
45.08000 249.267
45.12000 238.377
45.16000 227.068
45.20000 221.887
45.24000 248.492
45.28000 230.291
45.32000 230.011
45.36000 204.632
45.40000 207.828
45.44000 212.552
45.48000 211.720
45.52000 210.554
45.56000 214.379
45.60000 209.777
45.64000 205.293
45.68000 199.210
45.72000 202.618
45.76000 193.903
45.80000 189.215
45.84000 176.505
45.88000 184.799
45.92000 186.365
45.96000 184.163
46.00000 176.434
46.04000 178.179
46.08000 191.515
46.12000 181.637
46.16000 172.652
46.20000 182.928
46.24000 178.398
46.28000 182.783
46.32000 172.702
46.36000 182.462
46.40000 176.059
46.44000 181.220
46.48000 180.516
46.52000 176.942
46.56000 171.126
46.60000 174.601
46.64000 173.037
46.68000 159.823
46.72000 182.936
46.76000 180.900
46.80000 178.977
46.84000 177.696
46.88000 187.918
46.92000 171.621
46.96000 175.918
47.00000 161.743
47.04000 174.810
47.08000 171.302
47.12000 173.050
47.16000 167.483
47.20000 160.235
47.24000 169.622
47.28000 173.911
47.32000 171.286
47.36000 150.276
47.40000 165.195
47.44000 154.317
47.48000 165.613
47.52000 160.752
47.56000 170.479
47.60000 167.277
47.64000 159.294
47.68000 163.188
47.72000 168.885
47.76000 168.136
47.80000 156.700
47.84000 154.322
47.88000 160.700
47.92000 157.521
47.96000 165.110
48.00000 149.802
48.04000 162.280
48.08000 169.366
48.12000 163.753
48.16000 137.409
48.20000 150.113
48.24000 151.657
48.28000 148.628
48.32000 156.168
48.36000 158.294
48.40000 153.940
48.44000 159.977
48.48000 150.996
48.52000 163.111
48.56000 150.617
48.60000 147.828
48.64000 158.245
48.68000 160.126
48.72000 157.960
48.76000 146.773
48.80000 171.820
48.84000 158.308
48.88000 161.405
48.92000 154.395
48.96000 163.484
49.00000 152.564
49.04000 156.254
49.08000 165.346
49.12000 153.903
49.16000 161.317
49.20000 152.646
49.24000 152.669
49.28000 149.346
49.32000 148.877
49.36000 161.210
49.40000 158.387
49.44000 156.581
49.48000 152.345
49.52000 147.281
49.56000 159.123
49.60000 144.052
49.64000 157.462
49.68000 156.746
49.72000 146.184
49.76000 158.264
49.80000 150.327
49.84000 152.753
49.88000 149.865
49.92000 133.920
49.96000 145.334
50.00000 148.241
50.04000 159.957
50.08000 152.194
50.12000 153.916
50.16000 153.159
50.20000 158.922
50.24000 165.863
50.28000 153.843
50.32000 151.432
50.36000 156.832
50.40000 160.284
50.44000 139.218
50.48000 151.160
50.52000 147.331
50.56000 151.107
50.60000 157.098
50.64000 150.553
50.68000 161.312
50.72000 165.564
50.76000 157.230
50.80000 161.869
50.84000 158.381
50.88000 154.556
50.92000 153.477
50.96000 162.972
51.00000 155.904
51.04000 152.827
51.08000 157.994
51.12000 138.428
51.16000 146.328
51.20000 145.383
51.24000 147.064
51.28000 153.029
51.32000 139.316
51.36000 153.759
51.40000 146.162
51.44000 146.517
51.48000 141.369
51.52000 139.185
51.56000 145.101
51.60000 134.284
51.64000 137.540
51.68000 147.832
51.72000 153.915
51.76000 140.842
51.80000 144.339
51.84000 138.429
51.88000 142.978
51.92000 144.486
51.96000 139.974
52.00000 144.631
52.04000 141.662
52.08000 140.236
52.12000 137.303
52.16000 150.471
52.20000 142.041
52.24000 143.845
52.28000 137.799
52.32000 139.447
52.36000 142.415
52.40000 145.580
52.44000 140.737
52.48000 134.458
52.52000 143.614
52.56000 134.152
52.60000 142.669
52.64000 132.223
52.68000 140.567
52.72000 139.184
52.76000 135.922
52.80000 131.975
52.84000 131.132
52.88000 142.083
52.92000 141.313
52.96000 140.007
53.00000 147.652
53.04000 145.262
53.08000 146.592
53.12000 138.045
53.16000 146.959
53.20000 142.100
53.24000 153.984
53.28000 152.853
53.32000 145.995
53.36000 156.997
53.40000 154.280
53.44000 148.239
53.48000 148.251
53.52000 137.369
53.56000 153.606
53.60000 153.399
53.64000 149.875
53.68000 150.106
53.72000 145.352
53.76000 152.798
53.80000 146.631
53.84000 151.835
53.88000 139.869
53.92000 141.525
53.96000 133.571
54.00000 139.654
54.04000 142.387
54.08000 145.845
54.12000 137.619
54.16000 135.107
54.20000 138.319
54.24000 146.506
54.28000 140.540
54.32000 134.672
54.36000 134.536
54.40000 140.750
54.44000 140.280
54.48000 134.362
54.52000 138.399
54.56000 133.741
54.60000 134.747
54.64000 142.665
54.68000 135.819
54.72000 138.877
54.76000 142.995
54.80000 142.794
54.84000 147.902
54.88000 145.523
54.92000 161.552
54.96000 152.195
55.00000 147.871
55.04000 147.821
55.08000 133.009
55.12000 145.641
55.16000 155.105
55.20000 164.104
55.24000 155.518
55.28000 144.930
55.32000 157.461
55.36000 171.817
55.40000 167.467
55.44000 191.973
55.48000 198.795
55.52000 227.037
55.56000 226.817
55.60000 258.980
55.64000 297.712
55.68000 326.517
55.72000 370.064
55.76000 418.369
55.80000 481.975
55.84000 532.067
55.88000 519.449
55.92000 575.778
55.96000 567.009
56.00000 555.133
56.04000 548.274
56.08000 473.518
56.12000 459.363
56.16000 385.443
56.20000 345.118
56.24000 312.330
56.28000 275.845
56.32000 243.881
56.36000 209.746
56.40000 193.419
56.44000 176.196
56.48000 161.778
56.52000 157.689
56.56000 158.077
56.60000 161.854
56.64000 142.127
56.68000 151.353
56.72000 148.260
56.76000 139.266
56.80000 154.794
56.84000 137.885
56.88000 130.703
56.92000 136.182
56.96000 128.835
57.00000 124.385
57.04000 121.030
57.08000 132.422
57.12000 128.087
57.16000 126.541
57.20000 126.470
57.24000 134.577
57.28000 126.274
57.32000 133.514
57.36000 126.576
57.40000 113.051
57.44000 114.916
57.48000 124.932
57.52000 140.318
57.56000 129.926
57.60000 138.437
57.64000 134.011
57.68000 132.423
57.72000 125.703
57.76000 121.437
57.80000 119.006
57.84000 124.465
57.88000 131.206
57.92000 118.583
57.96000 119.079
58.00000 125.861
58.04000 134.448
58.08000 116.823
58.12000 118.856
58.16000 124.526
58.20000 126.812
58.24000 120.432
58.28000 121.243
58.32000 120.990
58.36000 117.677
58.40000 109.006
58.44000 119.356
58.48000 121.517
58.52000 127.683
58.56000 124.057
58.60000 115.907
58.64000 112.921
58.68000 124.407
58.72000 115.987
58.76000 116.324
58.80000 111.298
58.84000 113.512
58.88000 128.627
58.92000 127.873
58.96000 114.660
59.00000 122.308
59.04000 122.715
59.08000 124.234
59.12000 110.614
59.16000 116.706
59.20000 125.119
59.24000 119.627
59.28000 102.539
59.32000 118.931
59.36000 117.361
59.40000 110.362
59.44000 117.180
59.48000 120.868
59.52000 125.113
59.56000 126.937
59.60000 120.613
59.64000 122.356
59.68000 124.870
59.72000 120.631
59.76000 116.497
59.80000 112.184
59.84000 115.968
59.88000 126.798
59.92000 114.903
59.96000 123.787
60.00000 117.584
60.04000 120.469
60.08000 117.479
60.12000 117.277
60.16000 121.919
60.20000 115.611
60.24000 123.144
60.28000 114.227
60.32000 124.487
60.36000 119.013
60.40000 111.146
60.44000 110.267
60.48000 123.034
60.52000 115.754
60.56000 124.308
60.60000 122.010
60.64000 116.857
60.68000 118.328
60.72000 115.737
60.76000 128.870
60.80000 121.925
60.84000 117.427
60.88000 118.851
60.92000 124.278
60.96000 117.000
61.00000 117.168
61.04000 127.607
61.08000 124.846
61.12000 122.463
61.16000 121.295
61.20000 134.081
61.24000 129.719
61.28000 124.381
61.32000 126.060
61.36000 123.251
61.40000 127.145
61.44000 122.738
61.48000 123.558
61.52000 151.879
61.56000 196.094
61.60000 236.184
61.64000 274.936
61.68000 277.842
61.72000 292.484
61.76000 267.178
61.80000 223.354
61.84000 173.633
61.88000 148.242
61.92000 142.708
61.96000 137.891
62.00000 135.396
62.04000 128.356
62.08000 127.999
62.12000 128.292
62.16000 120.384
62.20000 126.695
62.24000 125.956
62.28000 139.099
62.32000 129.318
62.36000 132.540
62.40000 133.866
62.44000 128.297
62.48000 127.500
62.52000 121.757
62.56000 134.421
62.60000 129.281
62.64000 125.187
62.68000 128.930
62.72000 140.903
62.76000 130.612
62.80000 131.974
62.84000 148.415
62.88000 130.096
62.92000 133.676
62.96000 132.074
63.00000 139.829
63.04000 117.829
63.08000 142.621
63.12000 135.425
63.16000 144.403
63.20000 148.327
63.24000 133.235
63.28000 135.552
63.32000 138.165
63.36000 133.214
63.40000 125.293
63.44000 139.281
63.48000 137.074
63.52000 134.561
63.56000 144.771
63.60000 130.700
63.64000 134.441
63.68000 144.195
63.72000 138.670
63.76000 154.777
63.80000 137.625
63.84000 141.880
63.88000 149.914
63.92000 141.097
63.96000 160.904
64.00000 139.851
64.04000 140.656
64.08000 150.439
64.12000 151.677
64.16000 154.016
64.20000 151.876
64.24000 141.479
64.28000 146.084
64.32000 144.946
64.36000 153.213
64.40000 146.427
64.44000 158.207
64.48000 172.371
64.52000 156.798
64.56000 146.226
64.60000 152.134
64.64000 162.436
64.68000 164.065
64.72000 168.782
64.76000 170.738
64.80000 178.347
64.84000 168.969
64.88000 179.015
64.92000 191.001
64.96000 188.235
65.00000 174.243
65.04000 177.586
65.08000 202.064
65.12000 198.974
65.16000 203.210
65.20000 206.128
65.24000 222.398
65.28000 220.699
65.32000 241.769
65.36000 245.916
65.40000 252.932
65.44000 276.879
65.48000 284.381
65.52000 305.818
65.56000 320.293
65.60000 341.780
65.64000 387.143
65.68000 562.467
65.72000 840.754
65.76000 1306.983
65.80000 1685.918
65.84000 1842.376
65.88000 1849.388
65.92000 1780.209
65.96000 1483.336
66.00000 1010.596
66.04000 641.910
66.08000 454.344
66.12000 393.293
66.16000 367.731
66.20000 359.679
66.24000 369.850
66.28000 422.642
66.32000 495.574
66.36000 597.967
66.40000 600.042
66.44000 599.603
66.48000 586.290
66.52000 518.972
66.56000 438.497
66.60000 378.530
66.64000 355.184
66.68000 332.831
66.72000 353.587
66.76000 333.341
66.80000 358.486
66.84000 344.404
66.88000 341.975
66.92000 354.654
66.96000 350.866
67.00000 357.109
67.04000 375.089
67.08000 380.517
67.12000 379.113
67.16000 386.951
67.20000 354.256
67.24000 372.753
67.28000 398.200
67.32000 380.014
67.36000 390.270
67.40000 383.521
67.44000 402.528
67.48000 402.570
67.52000 403.336
67.56000 409.786
67.60000 419.360
67.64000 436.601
67.68000 446.660
67.72000 441.882
67.76000 449.604
67.80000 463.625
67.84000 459.760
67.88000 460.840
67.92000 478.339
67.96000 493.186
68.00000 487.534
68.04000 500.533
68.08000 483.378
68.12000 515.960
68.16000 521.337
68.20000 534.205
68.24000 541.124
68.28000 552.511
68.32000 573.121
68.36000 575.519
68.40000 595.638
68.44000 649.557
68.48000 664.667
68.52000 691.477
68.56000 755.766
68.60000 807.883
68.64000 934.067
68.68000 1092.581
68.72000 1250.578
68.76000 1405.446
68.80000 1578.027
68.84000 1834.310
68.88000 2217.619
68.92000 3457.321
68.96000 8276.874
69.00000 19713.059
69.04000 32173.904
69.08000 39191.113
69.12000 41760.211
69.16000 44770.531
69.20000 44297.855
69.24000 35704.750
69.28000 26258.764
69.32000 21597.281
69.36000 20297.955
69.40000 17052.035
69.44000 10404.191
69.48000 4746.698
69.52000 2132.189
69.56000 1308.172
69.60000 1066.793
69.64000 899.705
69.68000 783.216
69.72000 715.821
69.76000 676.188
69.80000 628.366
69.84000 592.879
69.88000 568.156
69.92000 524.633
69.96000 506.205
70.00000 492.340