File: XRD/XRD/08-10-2025 Dep 7/XY Data/BTO_Mapping_Theta2Theta_08-10-2025_001_49_-4-181_-39-781.xy
20.00000 485.696
20.04000 485.060
20.08000 486.210
20.12000 458.938
20.16000 473.596
20.20000 469.501
20.24000 477.225
20.28000 488.578
20.32000 474.528
20.36000 472.610
20.40000 464.671
20.44000 469.387
20.48000 469.492
20.52000 472.915
20.56000 475.366
20.60000 455.524
20.64000 464.473
20.68000 480.491
20.72000 487.738
20.76000 465.089
20.80000 450.764
20.84000 450.970
20.88000 467.647
20.92000 454.716
20.96000 465.296
21.00000 451.025
21.04000 481.933
21.08000 451.978
21.12000 466.121
21.16000 460.711
21.20000 480.453
21.24000 467.838
21.28000 458.606
21.32000 460.696
21.36000 469.986
21.40000 452.527
21.44000 441.681
21.48000 467.084
21.52000 461.892
21.56000 468.426
21.60000 472.085
21.64000 466.533
21.68000 468.626
21.72000 463.175
21.76000 493.231
21.80000 499.683
21.84000 518.344
21.88000 522.752
21.92000 542.036
21.96000 577.108
22.00000 575.421
22.04000 586.419
22.08000 572.881
22.12000 559.241
22.16000 551.431
22.20000 525.214
22.24000 528.409
22.28000 492.464
22.32000 483.554
22.36000 481.068
22.40000 490.565
22.44000 469.950
22.48000 456.582
22.52000 454.612
22.56000 462.789
22.60000 442.873
22.64000 443.025
22.68000 436.042
22.72000 438.517
22.76000 444.928
22.80000 448.688
22.84000 442.740
22.88000 448.352
22.92000 457.022
22.96000 458.509
23.00000 425.313
23.04000 421.523
23.08000 453.273
23.12000 428.072
23.16000 445.953
23.20000 446.650
23.24000 432.363
23.28000 420.978
23.32000 426.669
23.36000 440.377
23.40000 414.766
23.44000 440.869
23.48000 432.553
23.52000 422.879
23.56000 432.946
23.60000 422.581
23.64000 453.618
23.68000 449.118
23.72000 452.561
23.76000 453.867
23.80000 470.905
23.84000 471.702
23.88000 470.213
23.92000 483.010
23.96000 489.201
24.00000 491.040
24.04000 482.220
24.08000 477.581
24.12000 490.342
24.16000 461.390
24.20000 450.511
24.24000 439.977
24.28000 467.396
24.32000 443.399
24.36000 419.007
24.40000 416.794
24.44000 425.727
24.48000 441.281
24.52000 417.294
24.56000 413.700
24.60000 408.783
24.64000 408.618
24.68000 407.813
24.72000 405.576
24.76000 414.911
24.80000 417.429
24.84000 431.247
24.88000 418.957
24.92000 410.801
24.96000 414.415
25.00000 408.870
25.04000 418.883
25.08000 401.222
25.12000 387.195
25.16000 408.558
25.20000 402.747
25.24000 395.861
25.28000 397.790
25.32000 395.266
25.36000 386.869
25.40000 425.244
25.44000 396.104
25.48000 401.573
25.52000 390.508
25.56000 403.133
25.60000 400.897
25.64000 396.377
25.68000 379.096
25.72000 389.507
25.76000 397.850
25.80000 396.834
25.84000 385.400
25.88000 390.358
25.92000 373.164
25.96000 391.476
26.00000 394.372
26.04000 383.615
26.08000 375.170
26.12000 390.965
26.16000 383.476
26.20000 388.723
26.24000 384.312
26.28000 383.981
26.32000 388.426
26.36000 396.839
26.40000 387.410
26.44000 401.060
26.48000 389.761
26.52000 399.803
26.56000 384.644
26.60000 389.272
26.64000 382.094
26.68000 374.056
26.72000 383.204
26.76000 381.933
26.80000 387.748
26.84000 395.918
26.88000 377.433
26.92000 389.096
26.96000 390.843
27.00000 361.646
27.04000 384.764
27.08000 386.596
27.12000 379.274
27.16000 368.087
27.20000 370.721
27.24000 376.012
27.28000 385.483
27.32000 370.683
27.36000 367.260
27.40000 393.574
27.44000 379.557
27.48000 376.023
27.52000 383.311
27.56000 381.610
27.60000 378.705
27.64000 380.307
27.68000 400.182
27.72000 369.814
27.76000 387.159
27.80000 359.802
27.84000 381.627
27.88000 388.033
27.92000 385.360
27.96000 355.638
28.00000 351.273
28.04000 359.784
28.08000 359.600
28.12000 352.080
28.16000 356.100
28.20000 371.550
28.24000 365.045
28.28000 371.123
28.32000 358.089
28.36000 359.390
28.40000 351.591
28.44000 354.249
28.48000 365.409
28.52000 350.188
28.56000 355.098
28.60000 355.026
28.64000 352.766
28.68000 355.148
28.72000 368.683
28.76000 352.153
28.80000 348.275
28.84000 361.356
28.88000 352.196
28.92000 354.425
28.96000 366.870
29.00000 363.828
29.04000 349.400
29.08000 339.012
29.12000 358.268
29.16000 371.603
29.20000 357.670
29.24000 341.307
29.28000 365.450
29.32000 340.195
29.36000 350.924
29.40000 350.758
29.44000 360.128
29.48000 350.538
29.52000 359.259
29.56000 356.812
29.60000 337.806
29.64000 353.527
29.68000 358.721
29.72000 365.328
29.76000 361.381
29.80000 367.747
29.84000 398.527
29.88000 383.045
29.92000 380.390
29.96000 388.817
30.00000 376.328
30.04000 374.738
30.08000 375.325
30.12000 393.227
30.16000 379.374
30.20000 368.875
30.24000 365.236
30.28000 367.959
30.32000 366.534
30.36000 354.866
30.40000 347.324
30.44000 350.099
30.48000 365.531
30.52000 378.222
30.56000 362.431
30.60000 370.895
30.64000 363.122
30.68000 346.666
30.72000 360.880
30.76000 373.764
30.80000 398.608
30.84000 382.509
30.88000 403.455
30.92000 390.587
30.96000 432.429
31.00000 487.615
31.04000 522.911
31.08000 598.244
31.12000 693.400
31.16000 846.844
31.20000 978.779
31.24000 1107.094
31.28000 1268.767
31.32000 1320.584
31.36000 1380.929
31.40000 1327.112
31.44000 1171.352
31.48000 1056.910
31.52000 908.324
31.56000 755.359
31.60000 625.991
31.64000 541.506
31.68000 474.452
31.72000 420.463
31.76000 401.084
31.80000 371.598
31.84000 376.531
31.88000 362.245
31.92000 340.852
31.96000 353.327
32.00000 350.352
32.04000 340.369
32.08000 323.853
32.12000 329.361
32.16000 334.451
32.20000 339.314
32.24000 329.152
32.28000 326.715
32.32000 332.228
32.36000 346.501
32.40000 323.444
32.44000 322.278
32.48000 329.502
32.52000 326.670
32.56000 308.399
32.60000 321.479
32.64000 309.671
32.68000 312.563
32.72000 307.675
32.76000 310.981
32.80000 317.648
32.84000 326.630
32.88000 306.596
32.92000 318.882
32.96000 323.336
33.00000 295.520
33.04000 301.082
33.08000 295.711
33.12000 311.983
33.16000 301.989
33.20000 305.080
33.24000 296.549
33.28000 300.354
33.32000 308.882
33.36000 301.805
33.40000 287.450
33.44000 305.175
33.48000 286.082
33.52000 287.676
33.56000 297.918
33.60000 304.150
33.64000 303.073
33.68000 298.888
33.72000 308.387
33.76000 294.538
33.80000 290.950
33.84000 316.649
33.88000 308.788
33.92000 329.348
33.96000 308.983
34.00000 316.860
34.04000 317.708
34.08000 327.089
34.12000 315.536
34.16000 316.816
34.20000 331.988
34.24000 319.397
34.28000 347.650
34.32000 347.643
34.36000 343.985
34.40000 328.988
34.44000 339.436
34.48000 358.144
34.52000 341.508
34.56000 335.560
34.60000 315.364
34.64000 308.091
34.68000 307.967
34.72000 318.495
34.76000 295.332
34.80000 296.676
34.84000 297.841
34.88000 289.121
34.92000 293.517
34.96000 290.739
35.00000 275.948
35.04000 265.384
35.08000 280.790
35.12000 278.040
35.16000 277.378
35.20000 262.732
35.24000 268.343
35.28000 258.565
35.32000 268.872
35.36000 278.242
35.40000 261.408
35.44000 266.290
35.48000 261.146
35.52000 273.439
35.56000 275.214
35.60000 265.289
35.64000 263.418
35.68000 263.441
35.72000 260.054
35.76000 252.396
35.80000 256.243
35.84000 268.076
35.88000 255.914
35.92000 261.796
35.96000 264.810
36.00000 252.503
36.04000 268.427
36.08000 254.882
36.12000 256.389
36.16000 260.967
36.20000 247.440
36.24000 257.006
36.28000 259.593
36.32000 257.819
36.36000 252.510
36.40000 259.955
36.44000 253.432
36.48000 260.568
36.52000 256.551
36.56000 266.309
36.60000 267.024
36.64000 271.846
36.68000 266.463
36.72000 262.759
36.76000 264.343
36.80000 266.570
36.84000 282.219
36.88000 271.056
36.92000 294.001
36.96000 292.458
37.00000 295.638
37.04000 287.969
37.08000 300.237
37.12000 284.765
37.16000 268.698
37.20000 270.271
37.24000 273.557
37.28000 282.923
37.32000 267.619
37.36000 268.203
37.40000 264.691
37.44000 260.257
37.48000 256.276
37.52000 254.797
37.56000 260.104
37.60000 263.869
37.64000 265.740
37.68000 258.801
37.72000 252.642
37.76000 245.537
37.80000 268.911
37.84000 256.998
37.88000 261.576
37.92000 262.071
37.96000 262.512
38.00000 262.897
38.04000 258.154
38.08000 258.606
38.12000 271.387
38.16000 278.710
38.20000 266.734
38.24000 302.412
38.28000 323.483
38.32000 355.681
38.36000 413.452
38.40000 483.765
38.44000 564.152
38.48000 699.242
38.52000 826.786
38.56000 974.238
38.60000 1087.890
38.64000 1194.927
38.68000 1265.535
38.72000 1229.500
38.76000 1229.978
38.80000 1133.918
38.84000 956.364
38.88000 808.442
38.92000 649.883
38.96000 509.993
39.00000 421.029
39.04000 365.728
39.08000 307.853
39.12000 281.871
39.16000 265.960
39.20000 250.884
39.24000 239.276
39.28000 247.485
39.32000 250.037
39.36000 227.476
39.40000 238.744
39.44000 234.781
39.48000 239.950
39.52000 217.658
39.56000 241.004
39.60000 240.684
39.64000 230.450
39.68000 233.558
39.72000 223.354
39.76000 241.237
39.80000 232.198
39.84000 241.086
39.88000 238.814
39.92000 240.756
39.96000 231.233
40.00000 227.067
40.04000 235.816
40.08000 223.248
40.12000 228.863
40.16000 232.302
40.20000 221.442
40.24000 211.546
40.28000 214.932
40.32000 218.790
40.36000 220.255
40.40000 222.349
40.44000 216.670
40.48000 224.895
40.52000 222.646
40.56000 213.953
40.60000 208.536
40.64000 223.354
40.68000 224.387
40.72000 216.871
40.76000 211.867
40.80000 214.953
40.84000 226.998
40.88000 210.650
40.92000 215.343
40.96000 216.141
41.00000 220.586
41.04000 220.274
41.08000 200.180
41.12000 202.311
41.16000 208.783
41.20000 223.038
41.24000 206.213
41.28000 212.620
41.32000 188.474
41.36000 209.527
41.40000 188.329
41.44000 199.997
41.48000 206.697
41.52000 206.267
41.56000 221.434
41.60000 207.686
41.64000 212.684
41.68000 202.783
41.72000 209.385
41.76000 204.816
41.80000 204.722
41.84000 206.480
41.88000 208.376
41.92000 228.239
41.96000 212.628
42.00000 209.933
42.04000 211.596
42.08000 211.481
42.12000 209.250
42.16000 208.287
42.20000 214.598
42.24000 222.532
42.28000 203.503
42.32000 205.809
42.36000 213.672
42.40000 207.395
42.44000 209.409
42.48000 207.353
42.52000 212.874
42.56000 205.580
42.60000 199.467
42.64000 205.713
42.68000 203.610
42.72000 204.891
42.76000 213.029
42.80000 214.133
42.84000 213.044
42.88000 203.936
42.92000 210.147
42.96000 212.567
43.00000 204.858
43.04000 207.351
43.08000 209.366
43.12000 204.838
43.16000 208.048
43.20000 196.345
43.24000 199.796
43.28000 197.623
43.32000 192.210
43.36000 194.127
43.40000 192.855
43.44000 199.546
43.48000 190.106
43.52000 202.686
43.56000 190.378
43.60000 194.377
43.64000 186.198
43.68000 190.693
43.72000 190.365
43.76000 201.239
43.80000 196.154
43.84000 195.641
43.88000 195.633
43.92000 201.804
43.96000 192.336
44.00000 195.405
44.04000 182.466
44.08000 196.369
44.12000 191.196
44.16000 200.197
44.20000 212.441
44.24000 203.218
44.28000 201.649
44.32000 203.812
44.36000 198.179
44.40000 202.124
44.44000 215.004
44.48000 214.977
44.52000 207.490
44.56000 216.287
44.60000 217.906
44.64000 231.267
44.68000 234.433
44.72000 222.726
44.76000 240.863
44.80000 243.674
44.84000 250.449
44.88000 287.007
44.92000 283.866
44.96000 269.955
45.00000 280.702
45.04000 294.169
45.08000 286.992
45.12000 265.327
45.16000 262.684
45.20000 253.470
45.24000 261.224
45.28000 249.814
45.32000 226.274
45.36000 218.487
45.40000 223.873
45.44000 222.338
45.48000 207.052
45.52000 207.862
45.56000 194.676
45.60000 195.831
45.64000 195.448
45.68000 196.278
45.72000 190.908
45.76000 182.453
45.80000 189.735
45.84000 194.662
45.88000 183.817
45.92000 196.736
45.96000 182.582
46.00000 186.424
46.04000 173.589
46.08000 187.868
46.12000 183.420
46.16000 185.009
46.20000 155.686
46.24000 169.932
46.28000 183.053
46.32000 174.835
46.36000 173.464
46.40000 167.569
46.44000 178.869
46.48000 181.836
46.52000 172.388
46.56000 161.028
46.60000 178.830
46.64000 173.559
46.68000 172.369
46.72000 168.084
46.76000 178.920
46.80000 163.211
46.84000 175.957
46.88000 179.641
46.92000 173.852
46.96000 163.873
47.00000 168.752
47.04000 177.069
47.08000 170.068
47.12000 176.867
47.16000 163.200
47.20000 172.584
47.24000 158.864
47.28000 168.139
47.32000 147.996
47.36000 166.063
47.40000 167.246
47.44000 171.376
47.48000 160.700
47.52000 162.589
47.56000 170.131
47.60000 165.851
47.64000 155.017
47.68000 163.945
47.72000 170.230
47.76000 162.451
47.80000 156.898
47.84000 175.217
47.88000 175.550
47.92000 163.681
47.96000 158.667
48.00000 160.039
48.04000 166.497
48.08000 161.318
48.12000 157.691
48.16000 159.496
48.20000 160.147
48.24000 160.845
48.28000 159.813
48.32000 152.244
48.36000 151.351
48.40000 156.763
48.44000 161.369
48.48000 177.859
48.52000 159.194
48.56000 164.082
48.60000 155.141
48.64000 165.698
48.68000 150.314
48.72000 148.654
48.76000 158.290
48.80000 158.464
48.84000 167.184
48.88000 161.865
48.92000 159.252
48.96000 163.510
49.00000 149.061
49.04000 157.249
49.08000 153.756
49.12000 150.698
49.16000 151.173
49.20000 149.046
49.24000 151.208
49.28000 165.103
49.32000 152.790
49.36000 152.311
49.40000 159.743
49.44000 149.732
49.48000 157.140
49.52000 149.268
49.56000 150.458
49.60000 153.045
49.64000 151.521
49.68000 147.209
49.72000 153.791
49.76000 153.501
49.80000 150.733
49.84000 154.437
49.88000 145.088
49.92000 151.549
49.96000 148.686
50.00000 158.811
50.04000 164.188
50.08000 161.962
50.12000 160.562
50.16000 156.272
50.20000 165.065
50.24000 158.350
50.28000 159.608
50.32000 172.917
50.36000 159.763
50.40000 168.532
50.44000 169.482
50.48000 186.439
50.52000 188.140
50.56000 184.889
50.60000 191.662
50.64000 191.304
50.68000 191.479
50.72000 182.695
50.76000 182.659
50.80000 176.800
50.84000 181.064
50.88000 180.677
50.92000 164.052
50.96000 165.954
51.00000 163.968
51.04000 157.413
51.08000 158.011
51.12000 164.032
51.16000 158.438
51.20000 160.399
51.24000 149.603
51.28000 153.316
51.32000 160.159
51.36000 148.442
51.40000 152.839
51.44000 150.967
51.48000 145.709
51.52000 133.278
51.56000 144.655
51.60000 148.424
51.64000 143.431
51.68000 148.873
51.72000 133.606
51.76000 142.006
51.80000 144.032
51.84000 140.852
51.88000 139.658
51.92000 144.992
51.96000 132.700
52.00000 142.320
52.04000 135.033
52.08000 143.738
52.12000 130.736
52.16000 143.781
52.20000 134.159
52.24000 139.284
52.28000 145.061
52.32000 130.778
52.36000 142.774
52.40000 145.337
52.44000 140.799
52.48000 141.672
52.52000 150.711
52.56000 140.490
52.60000 145.674
52.64000 141.831
52.68000 139.527
52.72000 127.608
52.76000 132.513
52.80000 142.218
52.84000 144.407
52.88000 150.362
52.92000 148.722
52.96000 151.007
53.00000 154.766
53.04000 152.312
53.08000 145.240
53.12000 153.950
53.16000 157.177
53.20000 154.104
53.24000 155.523
53.28000 163.203
53.32000 166.691
53.36000 152.860
53.40000 154.240
53.44000 162.167
53.48000 160.485
53.52000 157.611
53.56000 145.582
53.60000 144.296
53.64000 146.081
53.68000 148.673
53.72000 154.759
53.76000 154.455
53.80000 154.041
53.84000 136.974
53.88000 144.389
53.92000 140.921
53.96000 137.449
54.00000 144.834
54.04000 147.569
54.08000 152.031
54.12000 138.721
54.16000 149.987
54.20000 128.634
54.24000 137.923
54.28000 146.848
54.32000 131.888
54.36000 145.686
54.40000 133.553
54.44000 138.859
54.48000 143.736
54.52000 142.328
54.56000 144.831
54.60000 154.416
54.64000 136.321
54.68000 135.082
54.72000 144.817
54.76000 141.338
54.80000 145.753
54.84000 135.781
54.88000 143.139
54.92000 150.951
54.96000 155.338
55.00000 146.003
55.04000 142.353
55.08000 152.550
55.12000 146.201
55.16000 160.222
55.20000 153.209
55.24000 188.373
55.28000 176.833
55.32000 175.773
55.36000 186.829
55.40000 214.197
55.44000 225.122
55.48000 259.269
55.52000 309.228
55.56000 335.883
55.60000 397.652
55.64000 458.938
55.68000 525.316
55.72000 611.223
55.76000 671.552
55.80000 703.945
55.84000 756.941
55.88000 801.780
55.92000 748.375
55.96000 719.482
56.00000 683.518
56.04000 642.596
56.08000 562.409
56.12000 479.703
56.16000 402.565
56.20000 350.086
56.24000 298.707
56.28000 274.938
56.32000 239.690
56.36000 218.193
56.40000 188.412
56.44000 179.874
56.48000 166.100
56.52000 165.906
56.56000 150.439
56.60000 159.487
56.64000 145.088
56.68000 134.133
56.72000 138.354
56.76000 136.169
56.80000 142.016
56.84000 136.727
56.88000 137.780
56.92000 130.156
56.96000 137.495
57.00000 138.496
57.04000 134.457
57.08000 132.969
57.12000 134.370
57.16000 130.469
57.20000 127.299
57.24000 130.696
57.28000 132.419
57.32000 132.064
57.36000 132.739
57.40000 130.302
57.44000 128.663
57.48000 129.029
57.52000 134.159
57.56000 123.791
57.60000 133.189
57.64000 132.988
57.68000 125.568
57.72000 130.738
57.76000 124.638
57.80000 136.568
57.84000 137.377
57.88000 118.609
57.92000 124.620
57.96000 122.028
58.00000 125.342
58.04000 129.908
58.08000 122.441
58.12000 131.984
58.16000 118.520
58.20000 121.355
58.24000 128.968
58.28000 120.172
58.32000 120.663
58.36000 116.843
58.40000 119.109
58.44000 117.428
58.48000 122.402
58.52000 116.216
58.56000 121.870
58.60000 115.562
58.64000 124.582
58.68000 125.121
58.72000 118.504
58.76000 128.543
58.80000 110.900
58.84000 121.686
58.88000 116.044
58.92000 116.615
58.96000 126.471
59.00000 117.880
59.04000 123.192
59.08000 118.968
59.12000 131.417
59.16000 118.201
59.20000 120.129
59.24000 120.925
59.28000 117.570
59.32000 119.097
59.36000 119.036
59.40000 118.868
59.44000 114.567
59.48000 124.982
59.52000 130.393
59.56000 117.763
59.60000 115.840
59.64000 122.134
59.68000 117.447
59.72000 114.234
59.76000 117.063
59.80000 112.007
59.84000 109.972
59.88000 118.587
59.92000 110.956
59.96000 119.556
60.00000 115.223
60.04000 117.218
60.08000 113.818
60.12000 113.993
60.16000 112.005
60.20000 119.586
60.24000 119.977
60.28000 116.493
60.32000 118.303
60.36000 117.055
60.40000 121.240
60.44000 120.025
60.48000 119.066
60.52000 118.917
60.56000 116.186
60.60000 117.850
60.64000 120.309
60.68000 114.836
60.72000 119.069
60.76000 118.562
60.80000 119.910
60.84000 116.371
60.88000 121.836
60.92000 118.484
60.96000 120.068
61.00000 119.394
61.04000 128.781
61.08000 128.226
61.12000 117.380
61.16000 121.713
61.20000 118.089
61.24000 118.935
61.28000 128.441
61.32000 120.687
61.36000 123.482
61.40000 125.671
61.44000 125.496
61.48000 132.224
61.52000 152.273
61.56000 199.470
61.60000 236.564
61.64000 287.610
61.68000 294.423
61.72000 291.988
61.76000 262.457
61.80000 232.744
61.84000 174.270
61.88000 143.560
61.92000 140.285
61.96000 125.885
62.00000 130.634
62.04000 128.823
62.08000 127.177
62.12000 124.021
62.16000 132.999
62.20000 128.886
62.24000 125.452
62.28000 122.785
62.32000 134.191
62.36000 131.659
62.40000 139.555
62.44000 132.874
62.48000 124.260
62.52000 130.633
62.56000 131.896
62.60000 122.812
62.64000 124.893
62.68000 126.962
62.72000 129.816
62.76000 135.458
62.80000 126.020
62.84000 129.863
62.88000 130.867
62.92000 131.624
62.96000 123.739
63.00000 126.255
63.04000 125.517
63.08000 128.991
63.12000 142.075
63.16000 133.620
63.20000 136.286
63.24000 141.371
63.28000 125.228
63.32000 131.652
63.36000 140.599
63.40000 129.810
63.44000 142.847
63.48000 140.064
63.52000 143.959
63.56000 127.221
63.60000 134.666
63.64000 136.571
63.68000 136.686
63.72000 137.850
63.76000 140.316
63.80000 138.874
63.84000 149.570
63.88000 142.679
63.92000 140.371
63.96000 143.909
64.00000 141.247
64.04000 146.855
64.08000 141.679
64.12000 143.595
64.16000 140.501
64.20000 140.456
64.24000 141.694
64.28000 140.655
64.32000 150.507
64.36000 151.061
64.40000 144.644
64.44000 156.584
64.48000 154.214
64.52000 161.933
64.56000 159.292
64.60000 168.975
64.64000 156.195
64.68000 171.132
64.72000 169.544
64.76000 168.775
64.80000 173.637
64.84000 176.015
64.88000 171.144
64.92000 185.448
64.96000 176.645
65.00000 177.323
65.04000 199.144
65.08000 199.164
65.12000 214.833
65.16000 222.919
65.20000 238.274
65.24000 230.597
65.28000 238.415
65.32000 251.935
65.36000 254.166
65.40000 282.544
65.44000 293.846
65.48000 295.043
65.52000 324.649
65.56000 327.205
65.60000 360.172
65.64000 417.936
65.68000 560.324
65.72000 890.381
65.76000 1377.906
65.80000 1797.744
65.84000 1966.134
65.88000 2000.180
65.92000 1911.428
65.96000 1561.272
66.00000 1056.728
66.04000 661.402
66.08000 475.783
66.12000 396.125
66.16000 358.085
66.20000 363.217
66.24000 381.094
66.28000 446.649
66.32000 546.673
66.36000 611.580
66.40000 636.708
66.44000 643.044
66.48000 616.137
66.52000 534.722
66.56000 439.023
66.60000 384.712
66.64000 364.905
66.68000 362.903
66.72000 366.374
66.76000 351.077
66.80000 338.387
66.84000 336.518
66.88000 353.229
66.92000 356.579
66.96000 353.986
67.00000 368.172
67.04000 360.641
67.08000 350.178
67.12000 393.772
67.16000 385.480
67.20000 389.082
67.24000 382.470
67.28000 394.173
67.32000 383.571
67.36000 384.005
67.40000 389.610
67.44000 408.157
67.48000 401.790
67.52000 412.786
67.56000 409.275
67.60000 401.216
67.64000 421.710
67.68000 436.031
67.72000 442.113
67.76000 438.040
67.80000 448.746
67.84000 453.836
67.88000 452.056
67.92000 477.081
67.96000 472.803
68.00000 465.656
68.04000 493.633
68.08000 502.405
68.12000 506.876
68.16000 517.242
68.20000 538.635
68.24000 540.656
68.28000 575.814
68.32000 577.553
68.36000 599.188
68.40000 616.716
68.44000 642.092
68.48000 656.541
68.52000 679.835
68.56000 746.661
68.60000 835.909
68.64000 944.704
68.68000 1122.444
68.72000 1302.572
68.76000 1491.311
68.80000 1649.892
68.84000 1859.508
68.88000 2252.789
68.92000 3709.466
68.96000 9031.621
69.00000 21189.043
69.04000 34649.578
69.08000 41827.691
69.12000 44687.984
69.16000 47545.828
69.20000 47015.133
69.24000 37858.313
69.28000 28023.406
69.32000 22979.674
69.36000 21665.813
69.40000 18003.520
69.44000 11047.456
69.48000 5097.531
69.52000 2269.795
69.56000 1353.799
69.60000 1055.850
69.64000 919.652
69.68000 802.329
69.72000 737.344
69.76000 684.800
69.80000 633.160
69.84000 594.223
69.88000 559.455
69.92000 541.897
69.96000 517.153
70.00000 483.147