File: XRD/XRD/08-10-2025 Dep 7/XY Data/BTO_Mapping_Theta2Theta_08-10-2025_001_45_-20-000_-34-641.xy
20.00000 479.095
20.04000 478.531
20.08000 475.268
20.12000 462.548
20.16000 490.484
20.20000 475.175
20.24000 465.324
20.28000 481.910
20.32000 457.967
20.36000 479.994
20.40000 458.825
20.44000 468.445
20.48000 461.816
20.52000 477.458
20.56000 472.085
20.60000 452.942
20.64000 476.258
20.68000 467.648
20.72000 469.816
20.76000 470.104
20.80000 475.448
20.84000 458.579
20.88000 460.080
20.92000 458.143
20.96000 475.305
21.00000 468.257
21.04000 456.179
21.08000 486.622
21.12000 465.943
21.16000 481.747
21.20000 468.487
21.24000 482.240
21.28000 474.592
21.32000 482.321
21.36000 470.718
21.40000 476.378
21.44000 452.393
21.48000 486.487
21.52000 474.306
21.56000 477.526
21.60000 476.430
21.64000 467.130
21.68000 514.887
21.72000 510.570
21.76000 534.766
21.80000 578.435
21.84000 605.712
21.88000 640.432
21.92000 673.085
21.96000 709.886
22.00000 719.360
22.04000 702.947
22.08000 675.122
22.12000 624.701
22.16000 588.816
22.20000 571.081
22.24000 544.172
22.28000 532.371
22.32000 494.392
22.36000 506.791
22.40000 474.164
22.44000 479.887
22.48000 448.741
22.52000 474.883
22.56000 462.263
22.60000 448.589
22.64000 441.216
22.68000 436.692
22.72000 459.347
22.76000 431.644
22.80000 437.680
22.84000 443.336
22.88000 431.991
22.92000 436.937
22.96000 431.780
23.00000 443.232
23.04000 437.556
23.08000 431.416
23.12000 427.220
23.16000 431.773
23.20000 434.122
23.24000 440.093
23.28000 423.157
23.32000 431.274
23.36000 421.131
23.40000 441.314
23.44000 444.541
23.48000 427.550
23.52000 433.401
23.56000 439.834
23.60000 415.026
23.64000 418.901
23.68000 440.889
23.72000 446.816
23.76000 444.209
23.80000 448.037
23.84000 439.135
23.88000 443.498
23.92000 451.520
23.96000 422.764
24.00000 441.565
24.04000 438.132
24.08000 452.718
24.12000 434.120
24.16000 445.671
24.20000 437.809
24.24000 422.246
24.28000 436.573
24.32000 423.157
24.36000 444.418
24.40000 429.157
24.44000 416.289
24.48000 407.143
24.52000 396.246
24.56000 419.806
24.60000 409.362
24.64000 399.459
24.68000 412.377
24.72000 414.950
24.76000 425.668
24.80000 413.282
24.84000 404.854
24.88000 420.852
24.92000 406.897
24.96000 406.855
25.00000 423.649
25.04000 389.138
25.08000 412.600
25.12000 391.009
25.16000 411.508
25.20000 396.637
25.24000 411.915
25.28000 409.819
25.32000 406.476
25.36000 412.746
25.40000 399.645
25.44000 403.156
25.48000 397.889
25.52000 395.194
25.56000 381.428
25.60000 371.722
25.64000 390.340
25.68000 391.993
25.72000 381.080
25.76000 387.270
25.80000 376.702
25.84000 399.158
25.88000 382.007
25.92000 404.334
25.96000 394.429
26.00000 377.895
26.04000 372.388
26.08000 396.798
26.12000 387.111
26.16000 371.812
26.20000 382.480
26.24000 379.919
26.28000 383.670
26.32000 397.522
26.36000 394.579
26.40000 376.512
26.44000 392.241
26.48000 375.387
26.52000 372.599
26.56000 366.457
26.60000 386.051
26.64000 371.829
26.68000 380.586
26.72000 384.832
26.76000 359.133
26.80000 389.685
26.84000 375.751
26.88000 374.055
26.92000 389.007
26.96000 382.478
27.00000 392.931
27.04000 368.130
27.08000 377.937
27.12000 368.393
27.16000 360.296
27.20000 370.001
27.24000 370.457
27.28000 383.377
27.32000 389.369
27.36000 378.207
27.40000 371.572
27.44000 374.629
27.48000 363.375
27.52000 375.054
27.56000 366.045
27.60000 375.367
27.64000 375.613
27.68000 367.051
27.72000 381.482
27.76000 370.407
27.80000 370.247
27.84000 379.992
27.88000 378.595
27.92000 375.418
27.96000 385.541
28.00000 369.889
28.04000 369.140
28.08000 362.402
28.12000 358.711
28.16000 380.211
28.20000 354.890
28.24000 366.526
28.28000 365.493
28.32000 367.364
28.36000 367.432
28.40000 357.649
28.44000 376.743
28.48000 360.291
28.52000 358.739
28.56000 367.823
28.60000 371.316
28.64000 353.294
28.68000 370.518
28.72000 365.738
28.76000 357.203
28.80000 356.063
28.84000 369.240
28.88000 367.095
28.92000 354.590
28.96000 365.721
29.00000 349.228
29.04000 352.146
29.08000 367.971
29.12000 343.296
29.16000 370.417
29.20000 352.154
29.24000 342.986
29.28000 349.345
29.32000 357.360
29.36000 363.618
29.40000 350.593
29.44000 360.199
29.48000 360.188
29.52000 365.324
29.56000 364.342
29.60000 362.598
29.64000 389.825
29.68000 360.125
29.72000 387.855
29.76000 392.813
29.80000 399.913
29.84000 418.945
29.88000 412.768
29.92000 431.981
29.96000 429.024
30.00000 438.755
30.04000 448.088
30.08000 425.817
30.12000 433.568
30.16000 432.499
30.20000 395.191
30.24000 389.933
30.28000 402.203
30.32000 400.420
30.36000 401.849
30.40000 371.502
30.44000 383.833
30.48000 358.304
30.52000 408.828
30.56000 386.376
30.60000 365.172
30.64000 392.086
30.68000 386.368
30.72000 394.995
30.76000 399.796
30.80000 409.326
30.84000 439.733
30.88000 481.790
30.92000 508.036
30.96000 563.644
31.00000 682.417
31.04000 856.476
31.08000 1084.296
31.12000 1331.711
31.16000 1648.043
31.20000 2001.120
31.24000 2243.901
31.28000 2569.130
31.32000 2678.933
31.36000 2670.874
31.40000 2535.817
31.44000 2233.104
31.48000 1879.127
31.52000 1533.149
31.56000 1190.296
31.60000 925.185
31.64000 727.886
31.68000 610.585
31.72000 514.572
31.76000 450.206
31.80000 425.013
31.84000 396.059
31.88000 384.181
31.92000 358.111
31.96000 359.483
32.00000 355.393
32.04000 345.592
32.08000 352.620
32.12000 359.239
32.16000 333.465
32.20000 328.629
32.24000 336.989
32.28000 322.513
32.32000 323.013
32.36000 336.531
32.40000 331.798
32.44000 334.353
32.48000 306.035
32.52000 309.452
32.56000 335.298
32.60000 319.263
32.64000 321.597
32.68000 308.080
32.72000 306.929
32.76000 309.270
32.80000 332.459
32.84000 321.923
32.88000 335.382
32.92000 343.543
32.96000 329.965
33.00000 319.380
33.04000 329.317
33.08000 311.425
33.12000 309.220
33.16000 295.771
33.20000 290.860
33.24000 294.711
33.28000 301.378
33.32000 297.453
33.36000 302.569
33.40000 299.237
33.44000 294.204
33.48000 302.080
33.52000 312.627
33.56000 299.207
33.60000 296.506
33.64000 290.473
33.68000 303.485
33.72000 303.800
33.76000 289.489
33.80000 294.458
33.84000 300.516
33.88000 303.542
33.92000 304.666
33.96000 291.844
34.00000 299.466
34.04000 305.183
34.08000 304.103
34.12000 288.330
34.16000 306.487
34.20000 322.263
34.24000 304.754
34.28000 316.335
34.32000 306.191
34.36000 302.156
34.40000 315.934
34.44000 315.769
34.48000 305.214
34.52000 312.497
34.56000 310.037
34.60000 313.021
34.64000 312.230
34.68000 291.376
34.72000 290.726
34.76000 292.006
34.80000 290.098
34.84000 301.260
34.88000 285.522
34.92000 276.960
34.96000 274.143
35.00000 272.923
35.04000 274.846
35.08000 264.212
35.12000 269.092
35.16000 289.435
35.20000 262.586
35.24000 259.507
35.28000 269.633
35.32000 272.299
35.36000 256.354
35.40000 263.204
35.44000 257.357
35.48000 256.571
35.52000 272.301
35.56000 277.094
35.60000 276.644
35.64000 263.498
35.68000 253.044
35.72000 278.782
35.76000 273.391
35.80000 247.286
35.84000 250.146
35.88000 255.337
35.92000 258.401
35.96000 259.529
36.00000 264.921
36.04000 263.450
36.08000 268.396
36.12000 247.337
36.16000 247.590
36.20000 262.914
36.24000 263.242
36.28000 258.638
36.32000 275.956
36.36000 266.477
36.40000 245.922
36.44000 259.406
36.48000 258.379
36.52000 274.843
36.56000 262.858
36.60000 273.373
36.64000 261.483
36.68000 256.861
36.72000 264.765
36.76000 267.579
36.80000 254.313
36.84000 254.472
36.88000 268.106
36.92000 269.572
36.96000 270.500
37.00000 257.613
37.04000 268.095
37.08000 288.814
37.12000 266.558
37.16000 256.768
37.20000 254.194
37.24000 265.361
37.28000 244.207
37.32000 254.542
37.36000 253.642
37.40000 250.495
37.44000 260.365
37.48000 252.134
37.52000 246.556
37.56000 253.006
37.60000 249.873
37.64000 256.996
37.68000 250.693
37.72000 249.351
37.76000 252.757
37.80000 258.586
37.84000 263.118
37.88000 248.243
37.92000 250.951
37.96000 249.979
38.00000 262.919
38.04000 273.989
38.08000 261.650
38.12000 264.218
38.16000 265.491
38.20000 270.888
38.24000 288.157
38.28000 314.870
38.32000 342.263
38.36000 360.022
38.40000 412.328
38.44000 464.157
38.48000 520.740
38.52000 553.674
38.56000 624.883
38.60000 663.154
38.64000 705.666
38.68000 709.486
38.72000 669.790
38.76000 629.948
38.80000 571.590
38.84000 520.217
38.88000 441.663
38.92000 393.338
38.96000 360.091
39.00000 323.858
39.04000 284.723
39.08000 259.360
39.12000 254.043
39.16000 262.869
39.20000 249.966
39.24000 244.495
39.28000 238.102
39.32000 229.122
39.36000 227.217
39.40000 229.104
39.44000 233.109
39.48000 227.043
39.52000 239.973
39.56000 231.818
39.60000 246.611
39.64000 235.489
39.68000 235.349
39.72000 224.432
39.76000 215.660
39.80000 229.213
39.84000 237.612
39.88000 237.312
39.92000 224.549
39.96000 222.075
40.00000 219.991
40.04000 221.632
40.08000 223.885
40.12000 227.909
40.16000 219.825
40.20000 223.708
40.24000 235.596
40.28000 220.936
40.32000 221.063
40.36000 226.093
40.40000 217.634
40.44000 221.671
40.48000 223.412
40.52000 226.881
40.56000 225.896
40.60000 223.620
40.64000 217.619
40.68000 214.796
40.72000 217.515
40.76000 220.730
40.80000 221.018
40.84000 209.438
40.88000 214.203
40.92000 207.398
40.96000 214.756
41.00000 219.377
41.04000 211.440
41.08000 217.631
41.12000 218.257
41.16000 213.506
41.20000 206.875
41.24000 205.636
41.28000 215.225
41.32000 219.675
41.36000 216.947
41.40000 206.228
41.44000 202.763
41.48000 217.455
41.52000 210.091
41.56000 210.197
41.60000 207.470
41.64000 207.077
41.68000 204.980
41.72000 211.559
41.76000 210.391
41.80000 214.377
41.84000 208.801
41.88000 201.593
41.92000 210.004
41.96000 204.482
42.00000 204.158
42.04000 207.433
42.08000 208.850
42.12000 201.799
42.16000 198.576
42.20000 204.122
42.24000 201.639
42.28000 207.678
42.32000 201.592
42.36000 204.370
42.40000 191.095
42.44000 204.265
42.48000 206.494
42.52000 216.252
42.56000 207.685
42.60000 199.039
42.64000 206.347
42.68000 201.708
42.72000 195.100
42.76000 207.148
42.80000 207.995
42.84000 210.931
42.88000 199.078
42.92000 208.718
42.96000 202.272
43.00000 205.809
43.04000 213.745
43.08000 194.350
43.12000 204.879
43.16000 210.620
43.20000 196.861
43.24000 201.168
43.28000 202.664
43.32000 199.782
43.36000 200.815
43.40000 196.463
43.44000 196.392
43.48000 206.150
43.52000 202.612
43.56000 205.392
43.60000 182.676
43.64000 195.418
43.68000 209.969
43.72000 200.867
43.76000 200.444
43.80000 198.884
43.84000 192.955
43.88000 198.501
43.92000 194.572
43.96000 197.857
44.00000 205.009
44.04000 199.488
44.08000 184.988
44.12000 197.160
44.16000 199.730
44.20000 198.771
44.24000 197.625
44.28000 212.441
44.32000 215.779
44.36000 205.807
44.40000 210.919
44.44000 220.708
44.48000 239.122
44.52000 234.364
44.56000 246.380
44.60000 272.158
44.64000 275.168
44.68000 288.105
44.72000 307.549
44.76000 339.713
44.80000 375.988
44.84000 401.120
44.88000 405.271
44.92000 422.502
44.96000 404.478
45.00000 402.675
45.04000 379.486
45.08000 358.500
45.12000 329.009
45.16000 329.861
45.20000 302.766
45.24000 283.173
45.28000 278.044
45.32000 269.293
45.36000 245.034
45.40000 241.301
45.44000 229.368
45.48000 233.981
45.52000 207.349
45.56000 217.286
45.60000 227.052
45.64000 211.978
45.68000 209.578
45.72000 211.904
45.76000 194.538
45.80000 195.744
45.84000 189.648
45.88000 190.627
45.92000 189.851
45.96000 194.011
46.00000 185.566
46.04000 190.669
46.08000 180.789
46.12000 190.364
46.16000 182.618
46.20000 191.762
46.24000 187.259
46.28000 177.032
46.32000 172.329
46.36000 171.344
46.40000 191.846
46.44000 178.766
46.48000 184.025
46.52000 173.427
46.56000 176.692
46.60000 175.886
46.64000 174.381
46.68000 167.469
46.72000 176.996
46.76000 172.106
46.80000 171.535
46.84000 174.060
46.88000 173.702
46.92000 176.431
46.96000 168.652
47.00000 161.040
47.04000 178.426
47.08000 170.876
47.12000 165.162
47.16000 167.959
47.20000 165.376
47.24000 158.623
47.28000 173.628
47.32000 148.678
47.36000 181.183
47.40000 168.919
47.44000 188.198
47.48000 174.338
47.52000 156.609
47.56000 152.834
47.60000 171.401
47.64000 166.219
47.68000 171.038
47.72000 157.311
47.76000 162.064
47.80000 156.510
47.84000 161.894
47.88000 164.628
47.92000 173.153
47.96000 177.977
48.00000 162.895
48.04000 163.394
48.08000 169.694
48.12000 167.327
48.16000 154.812
48.20000 157.100
48.24000 169.623
48.28000 168.806
48.32000 171.440
48.36000 163.013
48.40000 162.159
48.44000 149.373
48.48000 140.140
48.52000 168.143
48.56000 163.806
48.60000 158.806
48.64000 164.546
48.68000 160.047
48.72000 160.179
48.76000 160.546
48.80000 144.460
48.84000 160.843
48.88000 165.038
48.92000 154.598
48.96000 158.268
49.00000 156.767
49.04000 157.633
49.08000 150.940
49.12000 152.127
49.16000 147.461
49.20000 151.405
49.24000 155.092
49.28000 159.437
49.32000 158.139
49.36000 157.982
49.40000 157.684
49.44000 160.953
49.48000 155.537
49.52000 162.557
49.56000 165.065
49.60000 159.692
49.64000 160.841
49.68000 157.253
49.72000 158.295
49.76000 152.258
49.80000 161.242
49.84000 153.299
49.88000 161.991
49.92000 163.162
49.96000 152.126
50.00000 166.858
50.04000 167.545
50.08000 170.332
50.12000 176.973
50.16000 175.622
50.20000 171.476
50.24000 202.108
50.28000 192.235
50.32000 197.654
50.36000 225.533
50.40000 217.200
50.44000 231.364
50.48000 253.500
50.52000 247.979
50.56000 250.776
50.60000 245.564
50.64000 251.251
50.68000 246.611
50.72000 240.480
50.76000 214.287
50.80000 218.030
50.84000 198.544
50.88000 198.867
50.92000 188.670
50.96000 175.964
51.00000 174.851
51.04000 167.314
51.08000 160.528
51.12000 158.553
51.16000 153.105
51.20000 156.874
51.24000 148.167
51.28000 161.016
51.32000 150.903
51.36000 142.381
51.40000 161.222
51.44000 158.045
51.48000 148.522
51.52000 142.836
51.56000 150.244
51.60000 137.022
51.64000 146.048
51.68000 137.269
51.72000 145.861
51.76000 141.232
51.80000 137.261
51.84000 146.428
51.88000 143.902
51.92000 140.939
51.96000 154.033
52.00000 150.404
52.04000 144.799
52.08000 147.305
52.12000 141.104
52.16000 140.033
52.20000 139.389
52.24000 137.352
52.28000 137.339
52.32000 138.494
52.36000 140.984
52.40000 130.914
52.44000 145.737
52.48000 144.212
52.52000 145.913
52.56000 148.514
52.60000 146.345
52.64000 136.857
52.68000 145.525
52.72000 140.744
52.76000 150.011
52.80000 141.137
52.84000 145.834
52.88000 152.417
52.92000 141.275
52.96000 148.136
53.00000 149.611
53.04000 162.931
53.08000 153.226
53.12000 153.834
53.16000 149.443
53.20000 156.609
53.24000 165.313
53.28000 162.499
53.32000 160.494
53.36000 151.208
53.40000 159.967
53.44000 150.775
53.48000 155.198
53.52000 148.175
53.56000 147.303
53.60000 149.268
53.64000 153.076
53.68000 144.104
53.72000 148.254
53.76000 151.566
53.80000 149.491
53.84000 152.852
53.88000 145.895
53.92000 152.354
53.96000 144.030
54.00000 149.419
54.04000 149.933
54.08000 136.803
54.12000 144.045
54.16000 142.656
54.20000 132.294
54.24000 139.008
54.28000 141.644
54.32000 142.994
54.36000 141.987
54.40000 134.286
54.44000 143.107
54.48000 142.101
54.52000 144.755
54.56000 145.315
54.60000 148.761
54.64000 143.243
54.68000 140.167
54.72000 151.317
54.76000 149.257
54.80000 143.023
54.84000 149.498
54.88000 147.608
54.92000 154.046
54.96000 145.452
55.00000 160.848
55.04000 159.019
55.08000 167.083
55.12000 158.530
55.16000 163.522
55.20000 168.656
55.24000 176.968
55.28000 194.983
55.32000 219.410
55.36000 245.255
55.40000 261.210
55.44000 289.658
55.48000 365.562
55.52000 388.000
55.56000 455.406
55.60000 501.524
55.64000 544.552
55.68000 599.498
55.72000 640.355
55.76000 675.755
55.80000 672.447
55.84000 684.807
55.88000 664.877
55.92000 630.776
55.96000 583.985
56.00000 541.142
56.04000 486.999
56.08000 436.136
56.12000 377.962
56.16000 314.744
56.20000 301.583
56.24000 255.096
56.28000 227.490
56.32000 216.083
56.36000 193.262
56.40000 188.008
56.44000 176.761
56.48000 163.820
56.52000 158.515
56.56000 146.080
56.60000 137.212
56.64000 139.248
56.68000 140.457
56.72000 141.278
56.76000 142.760
56.80000 140.921
56.84000 136.832
56.88000 133.528
56.92000 134.281
56.96000 132.904
57.00000 128.573
57.04000 123.545
57.08000 122.279
57.12000 141.057
57.16000 132.627
57.20000 133.234
57.24000 135.093
57.28000 132.795
57.32000 132.735
57.36000 133.842
57.40000 129.595
57.44000 126.637
57.48000 122.980
57.52000 125.873
57.56000 123.720
57.60000 121.863
57.64000 125.242
57.68000 126.250
57.72000 125.171
57.76000 125.427
57.80000 127.913
57.84000 128.027
57.88000 125.238
57.92000 121.876
57.96000 121.192
58.00000 123.975
58.04000 126.850
58.08000 133.249
58.12000 121.707
58.16000 125.323
58.20000 118.084
58.24000 127.083
58.28000 116.038
58.32000 123.823
58.36000 117.556
58.40000 118.296
58.44000 136.743
58.48000 131.157
58.52000 125.206
58.56000 123.963
58.60000 118.088
58.64000 126.562
58.68000 118.016
58.72000 114.922
58.76000 120.661
58.80000 120.610
58.84000 129.615
58.88000 118.480
58.92000 115.113
58.96000 121.223
59.00000 124.795
59.04000 113.174
59.08000 123.175
59.12000 129.431
59.16000 124.682
59.20000 114.806
59.24000 119.265
59.28000 114.985
59.32000 118.819
59.36000 125.478
59.40000 119.971
59.44000 122.723
59.48000 115.046
59.52000 113.938
59.56000 122.291
59.60000 119.982
59.64000 131.210
59.68000 117.145
59.72000 114.190
59.76000 114.746
59.80000 120.240
59.84000 123.600
59.88000 118.270
59.92000 113.915
59.96000 120.309
60.00000 119.945
60.04000 115.701
60.08000 120.006
60.12000 127.260
60.16000 116.320
60.20000 115.211
60.24000 116.452
60.28000 120.050
60.32000 114.313
60.36000 115.439
60.40000 124.710
60.44000 113.880
60.48000 117.286
60.52000 115.745
60.56000 115.943
60.60000 118.356
60.64000 123.319
60.68000 108.842
60.72000 119.756
60.76000 124.203
60.80000 121.521
60.84000 115.436
60.88000 123.585
60.92000 124.314
60.96000 114.236
61.00000 120.047
61.04000 122.681
61.08000 119.783
61.12000 122.400
61.16000 129.297
61.20000 126.468
61.24000 120.711
61.28000 122.591
61.32000 121.892
61.36000 124.356
61.40000 125.427
61.44000 127.680
61.48000 125.389
61.52000 150.370
61.56000 205.599
61.60000 254.760
61.64000 314.167
61.68000 335.593
61.72000 345.184
61.76000 315.471
61.80000 280.976
61.84000 203.501
61.88000 153.534
61.92000 152.117
61.96000 142.962
62.00000 140.963
62.04000 135.485
62.08000 133.300
62.12000 130.382
62.16000 127.006
62.20000 130.082
62.24000 135.407
62.28000 134.502
62.32000 136.443
62.36000 131.578
62.40000 136.374
62.44000 135.282
62.48000 123.718
62.52000 129.025
62.56000 133.039
62.60000 139.300
62.64000 132.557
62.68000 134.700
62.72000 145.057
62.76000 135.258
62.80000 131.050
62.84000 131.665
62.88000 136.545
62.92000 121.445
62.96000 132.421
63.00000 132.529
63.04000 138.404
63.08000 142.423
63.12000 143.951
63.16000 144.171
63.20000 128.491
63.24000 130.553
63.28000 133.943
63.32000 138.619
63.36000 126.363
63.40000 138.061
63.44000 134.456
63.48000 134.872
63.52000 146.048
63.56000 147.782
63.60000 138.655
63.64000 132.123
63.68000 138.983
63.72000 139.777
63.76000 131.896
63.80000 146.441
63.84000 150.852
63.88000 143.522
63.92000 146.664
63.96000 146.228
64.00000 134.090
64.04000 149.057
64.08000 147.918
64.12000 153.926
64.16000 149.494
64.20000 151.015
64.24000 145.010
64.28000 156.517
64.32000 160.130
64.36000 165.275
64.40000 161.229
64.44000 163.221
64.48000 155.626
64.52000 174.814
64.56000 161.872
64.60000 166.574
64.64000 164.649
64.68000 171.888
64.72000 173.036
64.76000 193.768
64.80000 188.579
64.84000 194.918
64.88000 202.857
64.92000 196.824
64.96000 207.686
65.00000 227.671
65.04000 236.184
65.08000 255.494
65.12000 263.270
65.16000 274.533
65.20000 285.038
65.24000 295.352
65.28000 317.650
65.32000 343.386
65.36000 350.150
65.40000 363.173
65.44000 356.209
65.48000 388.241
65.52000 390.712
65.56000 414.294
65.60000 441.038
65.64000 505.342
65.68000 632.182
65.72000 968.930
65.76000 1488.422
65.80000 2060.559
65.84000 2308.196
65.88000 2375.614
65.92000 2297.983
65.96000 1941.415
66.00000 1378.645
66.04000 879.460
66.08000 573.017
66.12000 451.624
66.16000 387.914
66.20000 395.689
66.24000 419.425
66.28000 474.796
66.32000 559.730
66.36000 676.427
66.40000 717.415
66.44000 719.981
66.48000 671.901
66.52000 618.273
66.56000 546.103
66.60000 447.024
66.64000 407.601
66.68000 388.625
66.72000 382.826
66.76000 360.865
66.80000 370.841
66.84000 384.415
66.88000 389.613
66.92000 376.804
66.96000 380.769
67.00000 392.581
67.04000 400.360
67.08000 383.263
67.12000 404.183
67.16000 405.575
67.20000 424.343
67.24000 409.282
67.28000 413.067
67.32000 410.987
67.36000 417.294
67.40000 429.246
67.44000 434.585
67.48000 441.149
67.52000 459.828
67.56000 452.169
67.60000 464.743
67.64000 467.327
67.68000 463.086
67.72000 452.159
67.76000 475.795
67.80000 475.662
67.84000 493.800
67.88000 490.631
67.92000 488.009
67.96000 518.980
68.00000 525.003
68.04000 515.394
68.08000 547.848
68.12000 548.712
68.16000 549.498
68.20000 546.471
68.24000 557.550
68.28000 592.109
68.32000 613.249
68.36000 620.203
68.40000 634.726
68.44000 696.642
68.48000 715.849
68.52000 734.728
68.56000 796.826
68.60000 845.290
68.64000 968.879
68.68000 1203.495
68.72000 1435.008
68.76000 1613.633
68.80000 1829.370
68.84000 2101.729
68.88000 2609.309
68.92000 3978.696
68.96000 8952.081
69.00000 21595.732
69.04000 37842.027
69.08000 48335.402
69.12000 52663.746
69.16000 56074.504
69.20000 56773.500
69.24000 48604.176
69.28000 36535.262
69.32000 28675.107
69.36000 25873.352
69.40000 22557.205
69.44000 15231.562
69.48000 7559.627
69.52000 3330.899
69.56000 1800.822
69.60000 1257.857
69.64000 1055.889
69.68000 936.804
69.72000 821.827
69.76000 743.909
69.80000 697.538
69.84000 630.429
69.88000 582.190
69.92000 571.886
69.96000 539.308
70.00000 538.132