File: XRD/XRD/08-10-2025 Dep 7/XY Data/BTO_Mapping_Theta2Theta_08-10-2025_001_03_20-000_0-000.xy
20.00000 481.449
20.04000 476.521
20.08000 487.148
20.12000 490.158
20.16000 504.600
20.20000 495.586
20.24000 480.989
20.28000 483.691
20.32000 472.093
20.36000 461.048
20.40000 493.491
20.44000 483.025
20.48000 466.928
20.52000 473.862
20.56000 467.014
20.60000 462.894
20.64000 485.281
20.68000 476.490
20.72000 449.419
20.76000 473.408
20.80000 471.553
20.84000 448.678
20.88000 477.930
20.92000 489.387
20.96000 469.264
21.00000 472.207
21.04000 500.575
21.08000 480.961
21.12000 466.582
21.16000 473.414
21.20000 461.391
21.24000 476.995
21.28000 463.302
21.32000 467.359
21.36000 457.931
21.40000 459.872
21.44000 474.483
21.48000 470.402
21.52000 456.773
21.56000 469.303
21.60000 467.997
21.64000 454.547
21.68000 480.890
21.72000 463.300
21.76000 482.226
21.80000 496.374
21.84000 512.289
21.88000 480.025
21.92000 516.309
21.96000 518.077
22.00000 515.172
22.04000 506.205
22.08000 521.999
22.12000 494.545
22.16000 494.117
22.20000 517.747
22.24000 509.622
22.28000 494.547
22.32000 490.264
22.36000 485.705
22.40000 464.944
22.44000 470.934
22.48000 461.581
22.52000 462.327
22.56000 448.598
22.60000 461.959
22.64000 458.458
22.68000 462.193
22.72000 427.653
22.76000 455.553
22.80000 449.112
22.84000 457.364
22.88000 458.188
22.92000 460.651
22.96000 448.465
23.00000 433.683
23.04000 456.020
23.08000 457.703
23.12000 440.813
23.16000 431.241
23.20000 434.510
23.24000 445.117
23.28000 450.940
23.32000 455.396
23.36000 451.122
23.40000 454.957
23.44000 475.343
23.48000 443.304
23.52000 445.937
23.56000 455.283
23.60000 465.326
23.64000 477.446
23.68000 481.467
23.72000 489.993
23.76000 512.321
23.80000 524.425
23.84000 523.254
23.88000 556.746
23.92000 539.703
23.96000 560.172
24.00000 570.549
24.04000 555.436
24.08000 541.922
24.12000 535.471
24.16000 515.006
24.20000 497.239
24.24000 488.535
24.28000 449.732
24.32000 457.214
24.36000 462.079
24.40000 449.885
24.44000 435.153
24.48000 443.572
24.52000 423.836
24.56000 441.132
24.60000 428.512
24.64000 429.861
24.68000 422.480
24.72000 425.154
24.76000 415.746
24.80000 414.315
24.84000 409.317
24.88000 414.622
24.92000 408.776
24.96000 417.218
25.00000 411.609
25.04000 407.809
25.08000 402.234
25.12000 405.805
25.16000 408.286
25.20000 413.129
25.24000 406.143
25.28000 395.803
25.32000 404.726
25.36000 407.632
25.40000 417.995
25.44000 399.753
25.48000 410.593
25.52000 410.236
25.56000 411.746
25.60000 417.885
25.64000 392.918
25.68000 395.950
25.72000 375.459
25.76000 406.528
25.80000 409.718
25.84000 402.654
25.88000 393.422
25.92000 396.895
25.96000 390.893
26.00000 389.481
26.04000 415.265
26.08000 392.747
26.12000 402.253
26.16000 389.251
26.20000 383.180
26.24000 394.778
26.28000 388.823
26.32000 383.259
26.36000 409.436
26.40000 387.532
26.44000 376.315
26.48000 390.096
26.52000 392.961
26.56000 403.076
26.60000 375.043
26.64000 398.246
26.68000 391.429
26.72000 380.420
26.76000 389.954
26.80000 393.532
26.84000 386.490
26.88000 393.710
26.92000 383.845
26.96000 386.115
27.00000 361.157
27.04000 380.840
27.08000 390.810
27.12000 367.583
27.16000 378.243
27.20000 376.369
27.24000 377.929
27.28000 387.625
27.32000 372.914
27.36000 376.244
27.40000 375.215
27.44000 367.963
27.48000 360.946
27.52000 365.426
27.56000 379.003
27.60000 376.739
27.64000 378.958
27.68000 370.730
27.72000 357.354
27.76000 378.292
27.80000 361.193
27.84000 375.449
27.88000 385.003
27.92000 375.788
27.96000 383.394
28.00000 352.915
28.04000 374.226
28.08000 354.266
28.12000 360.553
28.16000 370.199
28.20000 371.885
28.24000 367.563
28.28000 367.892
28.32000 369.323
28.36000 367.357
28.40000 350.238
28.44000 376.669
28.48000 373.674
28.52000 370.069
28.56000 371.085
28.60000 366.305
28.64000 376.085
28.68000 366.996
28.72000 371.966
28.76000 360.829
28.80000 361.392
28.84000 370.149
28.88000 370.049
28.92000 365.312
28.96000 365.182
29.00000 366.602
29.04000 366.950
29.08000 357.030
29.12000 351.062
29.16000 349.035
29.20000 361.428
29.24000 362.573
29.28000 349.734
29.32000 358.179
29.36000 338.429
29.40000 350.159
29.44000 344.440
29.48000 366.044
29.52000 355.606
29.56000 357.193
29.60000 360.133
29.64000 372.979
29.68000 350.166
29.72000 361.112
29.76000 359.497
29.80000 364.367
29.84000 355.777
29.88000 372.839
29.92000 375.458
29.96000 383.172
30.00000 397.642
30.04000 392.897
30.08000 375.582
30.12000 374.565
30.16000 372.496
30.20000 392.078
30.24000 379.257
30.28000 396.268
30.32000 374.060
30.36000 368.614
30.40000 359.223
30.44000 373.800
30.48000 351.122
30.52000 372.964
30.56000 374.802
30.60000 381.883
30.64000 372.072
30.68000 373.628
30.72000 375.946
30.76000 386.128
30.80000 387.225
30.84000 402.151
30.88000 413.650
30.92000 433.032
30.96000 450.987
31.00000 493.848
31.04000 512.797
31.08000 571.810
31.12000 604.346
31.16000 728.126
31.20000 821.460
31.24000 887.252
31.28000 945.251
31.32000 1002.032
31.36000 1054.222
31.40000 1023.550
31.44000 993.902
31.48000 897.510
31.52000 836.508
31.56000 736.361
31.60000 648.138
31.64000 558.034
31.68000 502.023
31.72000 457.691
31.76000 448.671
31.80000 425.563
31.84000 391.651
31.88000 389.713
31.92000 394.512
31.96000 360.996
32.00000 363.007
32.04000 355.001
32.08000 365.294
32.12000 352.541
32.16000 345.024
32.20000 358.344
32.24000 331.762
32.28000 353.899
32.32000 349.579
32.36000 358.694
32.40000 341.935
32.44000 329.947
32.48000 315.137
32.52000 337.671
32.56000 332.778
32.60000 313.662
32.64000 323.653
32.68000 322.563
32.72000 323.003
32.76000 316.315
32.80000 321.148
32.84000 314.830
32.88000 349.036
32.92000 309.623
32.96000 316.510
33.00000 314.826
33.04000 299.770
33.08000 310.189
33.12000 308.557
33.16000 311.163
33.20000 315.436
33.24000 312.854
33.28000 303.540
33.32000 289.820
33.36000 302.716
33.40000 292.676
33.44000 306.989
33.48000 302.800
33.52000 309.348
33.56000 298.756
33.60000 300.583
33.64000 317.449
33.68000 295.758
33.72000 305.557
33.76000 309.319
33.80000 301.686
33.84000 323.449
33.88000 311.828
33.92000 310.419
33.96000 311.788
34.00000 309.002
34.04000 323.256
34.08000 331.179
34.12000 332.665
34.16000 336.345
34.20000 331.501
34.24000 345.241
34.28000 341.990
34.32000 335.648
34.36000 338.110
34.40000 336.158
34.44000 332.059
34.48000 328.286
34.52000 323.329
34.56000 330.785
34.60000 314.818
34.64000 326.853
34.68000 315.819
34.72000 305.297
34.76000 287.889
34.80000 285.189
34.84000 279.831
34.88000 269.089
34.92000 280.583
34.96000 279.987
35.00000 288.070
35.04000 282.773
35.08000 273.080
35.12000 270.760
35.16000 271.253
35.20000 273.454
35.24000 271.487
35.28000 260.726
35.32000 262.422
35.36000 256.779
35.40000 258.694
35.44000 266.320
35.48000 279.177
35.52000 277.343
35.56000 255.958
35.60000 271.225
35.64000 272.825
35.68000 248.634
35.72000 260.852
35.76000 252.774
35.80000 256.958
35.84000 266.135
35.88000 259.279
35.92000 258.790
35.96000 267.784
36.00000 270.829
36.04000 274.459
36.08000 252.264
36.12000 271.305
36.16000 261.159
36.20000 259.330
36.24000 264.776
36.28000 252.313
36.32000 270.822
36.36000 261.467
36.40000 255.390
36.44000 242.260
36.48000 243.833
36.52000 267.979
36.56000 258.840
36.60000 251.843
36.64000 260.834
36.68000 264.292
36.72000 261.546
36.76000 249.807
36.80000 268.305
36.84000 269.358
36.88000 275.593
36.92000 282.002
36.96000 262.551
37.00000 284.446
37.04000 280.994
37.08000 282.457
37.12000 276.705
37.16000 266.280
37.20000 266.418
37.24000 256.521
37.28000 249.889
37.32000 250.813
37.36000 247.162
37.40000 249.012
37.44000 256.956
37.48000 256.463
37.52000 248.572
37.56000 268.986
37.60000 252.799
37.64000 251.666
37.68000 265.994
37.72000 263.242
37.76000 248.729
37.80000 257.603
37.84000 261.157
37.88000 242.304
37.92000 265.210
37.96000 273.201
38.00000 261.012
38.04000 260.764
38.08000 259.543
38.12000 256.857
38.16000 264.361
38.20000 281.261
38.24000 285.060
38.28000 278.266
38.32000 295.359
38.36000 331.642
38.40000 364.605
38.44000 401.874
38.48000 469.892
38.52000 548.036
38.56000 644.014
38.60000 737.426
38.64000 801.748
38.68000 839.541
38.72000 830.851
38.76000 809.732
38.80000 715.962
38.84000 638.638
38.88000 541.213
38.92000 448.692
38.96000 393.434
39.00000 348.954
39.04000 283.370
39.08000 274.496
39.12000 284.870
39.16000 256.307
39.20000 261.057
39.24000 253.366
39.28000 246.068
39.32000 246.672
39.36000 248.352
39.40000 251.027
39.44000 230.810
39.48000 246.279
39.52000 242.910
39.56000 238.149
39.60000 240.635
39.64000 229.690
39.68000 236.211
39.72000 238.131
39.76000 236.939
39.80000 231.094
39.84000 230.599
39.88000 226.743
39.92000 233.144
39.96000 236.622
40.00000 226.283
40.04000 229.507
40.08000 247.492
40.12000 236.825
40.16000 235.652
40.20000 221.647
40.24000 223.267
40.28000 218.264
40.32000 230.306
40.36000 211.861
40.40000 215.087
40.44000 213.227
40.48000 232.171
40.52000 231.977
40.56000 224.961
40.60000 217.253
40.64000 225.471
40.68000 209.885
40.72000 223.466
40.76000 227.884
40.80000 216.150
40.84000 218.917
40.88000 224.301
40.92000 220.268
40.96000 210.018
41.00000 216.489
41.04000 219.190
41.08000 221.806
41.12000 202.742
41.16000 227.666
41.20000 212.711
41.24000 216.843
41.28000 206.358
41.32000 210.536
41.36000 209.746
41.40000 208.455
41.44000 192.163
41.48000 223.753
41.52000 226.791
41.56000 223.697
41.60000 213.724
41.64000 212.209
41.68000 213.488
41.72000 210.491
41.76000 215.376
41.80000 214.975
41.84000 209.738
41.88000 216.098
41.92000 223.141
41.96000 213.773
42.00000 224.822
42.04000 216.188
42.08000 223.814
42.12000 225.989
42.16000 224.120
42.20000 229.574
42.24000 236.511
42.28000 222.400
42.32000 227.596
42.36000 228.237
42.40000 224.232
42.44000 210.082
42.48000 211.649
42.52000 217.897
42.56000 216.927
42.60000 210.078
42.64000 202.540
42.68000 224.491
42.72000 208.059
42.76000 208.540
42.80000 210.449
42.84000 211.649
42.88000 206.739
42.92000 215.371
42.96000 200.160
43.00000 206.948
43.04000 205.668
43.08000 202.016
43.12000 194.225
43.16000 212.213
43.20000 197.393
43.24000 192.116
43.28000 184.716
43.32000 197.157
43.36000 201.507
43.40000 208.276
43.44000 195.154
43.48000 188.304
43.52000 200.203
43.56000 193.398
43.60000 208.262
43.64000 188.806
43.68000 204.093
43.72000 193.562
43.76000 196.625
43.80000 184.142
43.84000 199.233
43.88000 197.032
43.92000 198.873
43.96000 197.095
44.00000 186.850
44.04000 200.137
44.08000 200.197
44.12000 190.217
44.16000 212.925
44.20000 206.642
44.24000 200.140
44.28000 198.177
44.32000 210.754
44.36000 214.687
44.40000 207.109
44.44000 199.052
44.48000 206.456
44.52000 218.000
44.56000 218.196
44.60000 223.386
44.64000 222.904
44.68000 225.192
44.72000 231.562
44.76000 231.070
44.80000 233.499
44.84000 256.392
44.88000 238.690
44.92000 248.961
44.96000 240.592
45.00000 239.544
45.04000 229.801
45.08000 239.169
45.12000 238.854
45.16000 226.973
45.20000 232.112
45.24000 221.003
45.28000 216.429
45.32000 225.683
45.36000 228.082
45.40000 220.088
45.44000 226.435
45.48000 230.786
45.52000 197.856
45.56000 205.498
45.60000 196.785
45.64000 188.466
45.68000 202.760
45.72000 193.614
45.76000 181.621
45.80000 182.849
45.84000 178.430
45.88000 180.626
45.92000 185.990
45.96000 187.683
46.00000 179.324
46.04000 188.813
46.08000 174.790
46.12000 178.363
46.16000 176.471
46.20000 174.897
46.24000 178.328
46.28000 175.126
46.32000 174.058
46.36000 180.838
46.40000 191.769
46.44000 173.699
46.48000 172.100
46.52000 183.893
46.56000 184.608
46.60000 183.176
46.64000 176.864
46.68000 184.665
46.72000 173.854
46.76000 181.840
46.80000 168.845
46.84000 177.155
46.88000 177.638
46.92000 171.066
46.96000 167.803
47.00000 174.859
47.04000 170.232
47.08000 172.208
47.12000 161.777
47.16000 164.991
47.20000 156.689
47.24000 175.628
47.28000 162.148
47.32000 171.687
47.36000 168.333
47.40000 170.733
47.44000 164.785
47.48000 155.169
47.52000 169.300
47.56000 163.962
47.60000 164.383
47.64000 161.743
47.68000 160.003
47.72000 167.888
47.76000 157.820
47.80000 166.365
47.84000 160.230
47.88000 171.873
47.92000 160.382
47.96000 166.151
48.00000 164.387
48.04000 164.990
48.08000 155.080
48.12000 166.816
48.16000 156.712
48.20000 166.477
48.24000 169.238
48.28000 155.377
48.32000 163.725
48.36000 164.212
48.40000 162.169
48.44000 164.590
48.48000 167.466
48.52000 164.572
48.56000 157.112
48.60000 160.257
48.64000 162.620
48.68000 167.805
48.72000 165.429
48.76000 174.893
48.80000 159.129
48.84000 163.189
48.88000 163.097
48.92000 161.936
48.96000 168.046
49.00000 160.133
49.04000 167.609
49.08000 158.164
49.12000 167.598
49.16000 156.282
49.20000 157.881
49.24000 167.483
49.28000 166.755
49.32000 161.936
49.36000 163.799
49.40000 160.318
49.44000 152.790
49.48000 160.817
49.52000 150.681
49.56000 153.293
49.60000 159.775
49.64000 154.396
49.68000 151.469
49.72000 156.873
49.76000 163.667
49.80000 154.267
49.84000 148.810
49.88000 146.088
49.92000 166.531
49.96000 158.315
50.00000 150.108
50.04000 158.270
50.08000 154.434
50.12000 152.579
50.16000 164.444
50.20000 164.248
50.24000 152.710
50.28000 157.817
50.32000 157.135
50.36000 159.818
50.40000 159.575
50.44000 156.457
50.48000 171.160
50.52000 171.422
50.56000 157.766
50.60000 164.708
50.64000 168.741
50.68000 163.064
50.72000 161.223
50.76000 176.682
50.80000 169.570
50.84000 171.346
50.88000 157.757
50.92000 149.261
50.96000 158.246
51.00000 150.143
51.04000 141.052
51.08000 142.310
51.12000 156.425
51.16000 148.391
51.20000 152.948
51.24000 144.852
51.28000 136.782
51.32000 146.562
51.36000 145.854
51.40000 154.277
51.44000 153.602
51.48000 139.582
51.52000 154.279
51.56000 136.865
51.60000 152.402
51.64000 132.087
51.68000 140.572
51.72000 135.654
51.76000 138.082
51.80000 144.581
51.84000 143.613
51.88000 144.626
51.92000 146.502
51.96000 139.877
52.00000 153.120
52.04000 145.732
52.08000 140.123
52.12000 141.986
52.16000 140.013
52.20000 145.207
52.24000 143.442
52.28000 156.018
52.32000 144.192
52.36000 139.948
52.40000 146.995
52.44000 146.762
52.48000 147.861
52.52000 144.000
52.56000 139.128
52.60000 143.008
52.64000 136.374
52.68000 135.591
52.72000 141.373
52.76000 141.359
52.80000 140.000
52.84000 150.797
52.88000 143.091
52.92000 140.733
52.96000 146.506
53.00000 139.717
53.04000 148.758
53.08000 150.462
53.12000 143.848
53.16000 159.713
53.20000 145.483
53.24000 157.683
53.28000 149.802
53.32000 148.882
53.36000 163.010
53.40000 147.695
53.44000 156.528
53.48000 156.509
53.52000 146.621
53.56000 155.936
53.60000 146.882
53.64000 150.082
53.68000 151.973
53.72000 148.651
53.76000 145.266
53.80000 147.695
53.84000 144.490
53.88000 145.743
53.92000 140.244
53.96000 134.795
54.00000 145.369
54.04000 142.153
54.08000 146.004
54.12000 139.577
54.16000 131.272
54.20000 136.364
54.24000 138.348
54.28000 139.188
54.32000 140.717
54.36000 138.251
54.40000 144.735
54.44000 139.458
54.48000 141.435
54.52000 142.579
54.56000 144.916
54.60000 138.879
54.64000 150.449
54.68000 139.514
54.72000 135.442
54.76000 146.006
54.80000 151.653
54.84000 145.706
54.88000 141.639
54.92000 143.324
54.96000 155.322
55.00000 154.534
55.04000 152.842
55.08000 148.752
55.12000 152.146
55.16000 151.861
55.20000 157.447
55.24000 158.580
55.28000 174.671
55.32000 169.841
55.36000 170.883
55.40000 185.559
55.44000 194.982
55.48000 191.921
55.52000 207.066
55.56000 225.262
55.60000 247.059
55.64000 268.108
55.68000 291.111
55.72000 317.368
55.76000 358.690
55.80000 367.250
55.84000 392.050
55.88000 412.639
55.92000 419.311
55.96000 430.928
56.00000 391.714
56.04000 387.516
56.08000 382.973
56.12000 335.746
56.16000 322.328
56.20000 272.153
56.24000 255.360
56.28000 228.482
56.32000 218.801
56.36000 201.543
56.40000 183.445
56.44000 171.238
56.48000 170.926
56.52000 150.070
56.56000 151.649
56.60000 152.992
56.64000 141.033
56.68000 146.991
56.72000 149.385
56.76000 136.791
56.80000 137.920
56.84000 138.171
56.88000 150.592
56.92000 142.175
56.96000 140.207
57.00000 139.981
57.04000 140.406
57.08000 133.467
57.12000 137.414
57.16000 133.646
57.20000 125.653
57.24000 129.166
57.28000 130.754
57.32000 132.503
57.36000 128.556
57.40000 131.731
57.44000 121.147
57.48000 122.659
57.52000 128.623
57.56000 123.912
57.60000 133.170
57.64000 129.571
57.68000 124.383
57.72000 126.197
57.76000 121.855
57.80000 123.924
57.84000 121.400
57.88000 115.846
57.92000 117.201
57.96000 121.729
58.00000 127.340
58.04000 120.720
58.08000 119.133
58.12000 124.212
58.16000 119.619
58.20000 122.554
58.24000 121.944
58.28000 121.435
58.32000 123.436
58.36000 123.345
58.40000 132.304
58.44000 121.923
58.48000 122.141
58.52000 115.471
58.56000 119.582
58.60000 129.793
58.64000 118.920
58.68000 116.467
58.72000 117.848
58.76000 123.298
58.80000 117.271
58.84000 123.865
58.88000 123.850
58.92000 115.200
58.96000 133.401
59.00000 120.510
59.04000 121.245
59.08000 120.251
59.12000 126.595
59.16000 121.166
59.20000 126.414
59.24000 122.477
59.28000 109.356
59.32000 126.257
59.36000 118.227
59.40000 122.862
59.44000 115.720
59.48000 114.218
59.52000 124.206
59.56000 128.114
59.60000 125.203
59.64000 123.544
59.68000 113.639
59.72000 113.290
59.76000 113.987
59.80000 119.815
59.84000 116.751
59.88000 123.599
59.92000 124.150
59.96000 116.726
60.00000 123.796
60.04000 123.903
60.08000 112.039
60.12000 112.139
60.16000 117.934
60.20000 121.328
60.24000 110.154
60.28000 123.076
60.32000 110.822
60.36000 120.299
60.40000 127.220
60.44000 121.742
60.48000 119.443
60.52000 113.956
60.56000 127.793
60.60000 113.992
60.64000 118.617
60.68000 126.247
60.72000 121.552
60.76000 124.559
60.80000 119.848
60.84000 125.938
60.88000 121.543
60.92000 120.342
60.96000 136.859
61.00000 123.950
61.04000 108.338
61.08000 114.947
61.12000 123.754
61.16000 123.895
61.20000 129.329
61.24000 127.963
61.28000 129.815
61.32000 132.248
61.36000 124.237
61.40000 136.596
61.44000 136.634
61.48000 129.643
61.52000 173.016
61.56000 210.711
61.60000 258.422
61.64000 282.672
61.68000 295.812
61.72000 295.866
61.76000 261.895
61.80000 215.381
61.84000 169.111
61.88000 155.502
61.92000 141.280
61.96000 130.094
62.00000 137.463
62.04000 131.824
62.08000 126.878
62.12000 134.692
62.16000 129.252
62.20000 132.887
62.24000 135.927
62.28000 132.723
62.32000 132.161
62.36000 136.858
62.40000 133.538
62.44000 131.708
62.48000 117.150
62.52000 129.293
62.56000 142.505
62.60000 129.946
62.64000 127.792
62.68000 134.508
62.72000 126.933
62.76000 121.047
62.80000 134.667
62.84000 132.217
62.88000 135.485
62.92000 141.229
62.96000 137.551
63.00000 132.561
63.04000 130.172
63.08000 133.301
63.12000 136.333
63.16000 136.796
63.20000 143.933
63.24000 136.390
63.28000 142.951
63.32000 138.374
63.36000 135.061
63.40000 130.038
63.44000 140.741
63.48000 129.420
63.52000 126.417
63.56000 142.635
63.60000 128.580
63.64000 139.851
63.68000 144.442
63.72000 145.592
63.76000 131.984
63.80000 152.214
63.84000 137.210
63.88000 149.249
63.92000 144.833
63.96000 148.291
64.00000 151.659
64.04000 142.850
64.08000 151.148
64.12000 144.330
64.16000 134.942
64.20000 150.122
64.24000 152.896
64.28000 155.922
64.32000 151.575
64.36000 150.925
64.40000 163.077
64.44000 156.947
64.48000 163.454
64.52000 164.461
64.56000 162.504
64.60000 171.298
64.64000 160.600
64.68000 164.874
64.72000 168.055
64.76000 168.443
64.80000 155.147
64.84000 162.875
64.88000 174.076
64.92000 186.083
64.96000 187.489
65.00000 182.692
65.04000 193.570
65.08000 180.626
65.12000 207.718
65.16000 200.832
65.20000 216.287
65.24000 228.901
65.28000 218.670
65.32000 228.734
65.36000 254.327
65.40000 257.004
65.44000 268.532
65.48000 279.386
65.52000 283.521
65.56000 316.286
65.60000 364.662
65.64000 418.342
65.68000 610.391
65.72000 960.042
65.76000 1437.479
65.80000 1745.982
65.84000 1946.879
65.88000 1920.885
65.92000 1772.798
65.96000 1390.106
66.00000 932.781
66.04000 575.248
66.08000 451.828
66.12000 389.610
66.16000 378.288
66.20000 371.004
66.24000 391.252
66.28000 466.886
66.32000 545.020
66.36000 618.856
66.40000 643.388
66.44000 610.766
66.48000 573.169
66.52000 521.070
66.56000 412.620
66.60000 373.877
66.64000 353.642
66.68000 325.446
66.72000 352.427
66.76000 339.152
66.80000 353.309
66.84000 351.868
66.88000 353.057
66.92000 363.482
66.96000 373.875
67.00000 373.707
67.04000 385.494
67.08000 372.646
67.12000 385.322
67.16000 389.038
67.20000 399.122
67.24000 391.788
67.28000 392.671
67.32000 392.176
67.36000 401.502
67.40000 404.378
67.44000 405.459
67.48000 412.816
67.52000 422.879
67.56000 429.860
67.60000 443.601
67.64000 440.375
67.68000 435.920
67.72000 458.230
67.76000 455.478
67.80000 458.642
67.84000 469.219
67.88000 494.871
67.92000 488.312
67.96000 481.434
68.00000 504.479
68.04000 499.021
68.08000 529.533
68.12000 515.372
68.16000 530.664
68.20000 550.952
68.24000 552.038
68.28000 576.649
68.32000 569.520
68.36000 606.840
68.40000 629.612
68.44000 654.116
68.48000 680.833
68.52000 720.705
68.56000 757.467
68.60000 849.582
68.64000 986.289
68.68000 1145.704
68.72000 1345.740
68.76000 1513.791
68.80000 1693.548
68.84000 1922.167
68.88000 2493.538
68.92000 4280.810
68.96000 10717.531
69.00000 23618.518
69.04000 35716.801
69.08000 41282.371
69.12000 43697.012
69.16000 46552.977
69.20000 44466.926
69.24000 34237.180
69.28000 25565.617
69.32000 21750.182
69.36000 20502.105
69.40000 16223.958
69.44000 9095.276
69.48000 3969.423
69.52000 1927.123
69.56000 1306.158
69.60000 1046.271
69.64000 902.672
69.68000 807.377
69.72000 719.466
69.76000 667.998
69.80000 629.476
69.84000 576.413
69.88000 582.544
69.92000 532.536
69.96000 515.089
70.00000 504.223