File: XRD/XRD/08-10-2025 Dep 7/XY Data/BTO_Mapping_Theta2Theta_08-10-2025_001_12_20-074_22-294.xy
20.00000 480.811
20.04000 484.506
20.08000 481.434
20.12000 481.752
20.16000 478.139
20.20000 461.333
20.24000 468.827
20.28000 469.516
20.32000 448.122
20.36000 466.848
20.40000 451.312
20.44000 483.460
20.48000 459.819
20.52000 462.814
20.56000 470.761
20.60000 468.956
20.64000 477.602
20.68000 469.767
20.72000 488.786
20.76000 475.674
20.80000 472.116
20.84000 435.148
20.88000 480.621
20.92000 457.319
20.96000 464.825
21.00000 470.933
21.04000 469.756
21.08000 455.055
21.12000 447.852
21.16000 463.256
21.20000 462.099
21.24000 469.307
21.28000 464.901
21.32000 462.782
21.36000 478.851
21.40000 460.625
21.44000 454.069
21.48000 478.152
21.52000 450.017
21.56000 475.829
21.60000 471.639
21.64000 473.330
21.68000 472.651
21.72000 461.716
21.76000 487.058
21.80000 491.379
21.84000 469.099
21.88000 487.382
21.92000 508.278
21.96000 508.555
22.00000 511.699
22.04000 506.565
22.08000 509.897
22.12000 514.436
22.16000 506.226
22.20000 508.068
22.24000 496.663
22.28000 487.137
22.32000 484.588
22.36000 478.544
22.40000 478.581
22.44000 466.883
22.48000 473.103
22.52000 457.899
22.56000 455.244
22.60000 457.935
22.64000 461.170
22.68000 477.323
22.72000 457.249
22.76000 458.452
22.80000 438.892
22.84000 433.622
22.88000 454.273
22.92000 441.309
22.96000 436.661
23.00000 448.339
23.04000 451.604
23.08000 434.202
23.12000 437.144
23.16000 434.315
23.20000 441.234
23.24000 463.129
23.28000 435.937
23.32000 453.078
23.36000 438.921
23.40000 437.653
23.44000 438.980
23.48000 438.584
23.52000 451.461
23.56000 424.476
23.60000 453.268
23.64000 476.631
23.68000 474.420
23.72000 477.703
23.76000 481.727
23.80000 500.025
23.84000 499.341
23.88000 529.485
23.92000 542.403
23.96000 545.483
24.00000 552.709
24.04000 539.326
24.08000 522.975
24.12000 514.100
24.16000 509.603
24.20000 487.552
24.24000 500.521
24.28000 451.968
24.32000 443.218
24.36000 429.009
24.40000 431.130
24.44000 425.216
24.48000 451.867
24.52000 435.037
24.56000 439.957
24.60000 439.718
24.64000 429.024
24.68000 408.439
24.72000 406.108
24.76000 411.398
24.80000 425.293
24.84000 392.573
24.88000 403.860
24.92000 409.297
24.96000 414.020
25.00000 410.429
25.04000 401.457
25.08000 401.270
25.12000 419.877
25.16000 414.520
25.20000 399.984
25.24000 397.072
25.28000 406.504
25.32000 412.403
25.36000 403.442
25.40000 410.237
25.44000 401.696
25.48000 426.301
25.52000 404.067
25.56000 402.615
25.60000 407.768
25.64000 389.542
25.68000 406.786
25.72000 399.513
25.76000 410.057
25.80000 385.609
25.84000 394.097
25.88000 386.977
25.92000 381.837
25.96000 397.203
26.00000 393.982
26.04000 395.391
26.08000 393.666
26.12000 393.934
26.16000 406.153
26.20000 397.260
26.24000 397.720
26.28000 389.021
26.32000 393.992
26.36000 380.250
26.40000 374.935
26.44000 402.673
26.48000 376.463
26.52000 375.142
26.56000 372.081
26.60000 395.341
26.64000 377.961
26.68000 368.705
26.72000 373.741
26.76000 388.070
26.80000 378.336
26.84000 388.453
26.88000 380.388
26.92000 379.596
26.96000 382.300
27.00000 384.823
27.04000 376.791
27.08000 376.146
27.12000 372.428
27.16000 398.007
27.20000 367.916
27.24000 384.438
27.28000 381.787
27.32000 376.212
27.36000 374.252
27.40000 369.272
27.44000 363.423
27.48000 381.866
27.52000 378.420
27.56000 368.107
27.60000 357.063
27.64000 379.558
27.68000 384.102
27.72000 382.761
27.76000 388.516
27.80000 368.836
27.84000 376.655
27.88000 370.380
27.92000 369.165
27.96000 362.709
28.00000 357.677
28.04000 378.272
28.08000 382.590
28.12000 354.663
28.16000 367.775
28.20000 380.678
28.24000 365.913
28.28000 370.746
28.32000 345.569
28.36000 372.450
28.40000 370.716
28.44000 374.102
28.48000 358.625
28.52000 364.370
28.56000 388.158
28.60000 362.806
28.64000 355.849
28.68000 359.049
28.72000 362.100
28.76000 366.136
28.80000 362.726
28.84000 367.356
28.88000 366.501
28.92000 356.906
28.96000 365.499
29.00000 366.845
29.04000 351.123
29.08000 370.000
29.12000 354.966
29.16000 362.957
29.20000 361.349
29.24000 383.430
29.28000 362.460
29.32000 358.008
29.36000 363.205
29.40000 358.906
29.44000 358.660
29.48000 356.643
29.52000 373.304
29.56000 347.171
29.60000 380.796
29.64000 364.232
29.68000 367.836
29.72000 346.552
29.76000 372.446
29.80000 373.978
29.84000 394.793
29.88000 376.695
29.92000 362.292
29.96000 369.829
30.00000 375.701
30.04000 393.583
30.08000 384.971
30.12000 391.021
30.16000 389.856
30.20000 363.856
30.24000 363.730
30.28000 368.948
30.32000 379.699
30.36000 366.185
30.40000 379.846
30.44000 372.837
30.48000 369.300
30.52000 367.285
30.56000 372.590
30.60000 369.327
30.64000 375.812
30.68000 382.950
30.72000 389.491
30.76000 396.607
30.80000 393.441
30.84000 402.981
30.88000 417.653
30.92000 412.464
30.96000 422.707
31.00000 465.288
31.04000 482.082
31.08000 529.216
31.12000 612.845
31.16000 698.604
31.20000 748.370
31.24000 854.720
31.28000 944.238
31.32000 992.730
31.36000 1050.910
31.40000 1017.729
31.44000 979.659
31.48000 911.726
31.52000 829.961
31.56000 740.569
31.60000 672.711
31.64000 578.900
31.68000 516.178
31.72000 489.165
31.76000 437.302
31.80000 434.057
31.84000 408.258
31.88000 386.943
31.92000 387.056
31.96000 364.328
32.00000 367.419
32.04000 353.836
32.08000 352.020
32.12000 342.826
32.16000 352.217
32.20000 354.430
32.24000 370.473
32.28000 353.895
32.32000 340.492
32.36000 343.863
32.40000 330.549
32.44000 335.544
32.48000 329.763
32.52000 340.390
32.56000 326.534
32.60000 345.649
32.64000 329.894
32.68000 331.153
32.72000 328.889
32.76000 316.936
32.80000 340.381
32.84000 333.570
32.88000 321.447
32.92000 327.661
32.96000 314.642
33.00000 314.709
33.04000 314.888
33.08000 310.375
33.12000 298.558
33.16000 311.845
33.20000 320.057
33.24000 296.768
33.28000 308.468
33.32000 294.236
33.36000 304.818
33.40000 299.293
33.44000 308.113
33.48000 308.261
33.52000 306.750
33.56000 304.474
33.60000 291.322
33.64000 313.471
33.68000 302.708
33.72000 294.220
33.76000 305.751
33.80000 310.519
33.84000 300.269
33.88000 318.047
33.92000 303.998
33.96000 302.943
34.00000 312.424
34.04000 323.045
34.08000 320.100
34.12000 341.431
34.16000 325.215
34.20000 342.778
34.24000 332.118
34.28000 331.657
34.32000 323.463
34.36000 322.578
34.40000 331.939
34.44000 334.972
34.48000 334.702
34.52000 338.846
34.56000 317.573
34.60000 309.881
34.64000 298.587
34.68000 296.277
34.72000 289.203
34.76000 289.873
34.80000 274.651
34.84000 284.459
34.88000 292.198
34.92000 280.148
34.96000 297.846
35.00000 279.966
35.04000 303.604
35.08000 279.536
35.12000 280.842
35.16000 276.050
35.20000 272.306
35.24000 263.426
35.28000 262.204
35.32000 273.317
35.36000 260.056
35.40000 275.782
35.44000 270.453
35.48000 270.422
35.52000 262.391
35.56000 256.885
35.60000 261.728
35.64000 267.289
35.68000 256.348
35.72000 249.649
35.76000 262.333
35.80000 280.640
35.84000 263.504
35.88000 258.944
35.92000 268.667
35.96000 258.390
36.00000 264.614
36.04000 248.073
36.08000 268.079
36.12000 255.915
36.16000 259.903
36.20000 270.796
36.24000 245.957
36.28000 249.492
36.32000 252.095
36.36000 265.995
36.40000 269.328
36.44000 266.134
36.48000 263.059
36.52000 261.964
36.56000 255.611
36.60000 269.117
36.64000 274.129
36.68000 258.682
36.72000 248.095
36.76000 255.064
36.80000 267.323
36.84000 267.480
36.88000 262.458
36.92000 259.463
36.96000 265.969
37.00000 269.096
37.04000 267.735
37.08000 282.787
37.12000 273.218
37.16000 248.795
37.20000 252.118
37.24000 269.809
37.28000 265.192
37.32000 262.377
37.36000 247.380
37.40000 255.753
37.44000 254.200
37.48000 248.404
37.52000 264.984
37.56000 256.328
37.60000 242.597
37.64000 246.061
37.68000 248.217
37.72000 244.084
37.76000 241.750
37.80000 247.208
37.84000 251.182
37.88000 263.176
37.92000 257.208
37.96000 261.392
38.00000 260.090
38.04000 255.728
38.08000 244.390
38.12000 261.298
38.16000 274.707
38.20000 274.088
38.24000 288.055
38.28000 273.048
38.32000 291.971
38.36000 310.001
38.40000 335.638
38.44000 370.954
38.48000 406.893
38.52000 472.424
38.56000 539.676
38.60000 611.225
38.64000 652.538
38.68000 711.953
38.72000 733.800
38.76000 681.167
38.80000 648.641
38.84000 538.626
38.88000 475.846
38.92000 405.827
38.96000 354.666
39.00000 328.071
39.04000 300.414
39.08000 273.833
39.12000 262.215
39.16000 258.447
39.20000 251.598
39.24000 251.426
39.28000 241.867
39.32000 252.863
39.36000 244.589
39.40000 246.704
39.44000 237.677
39.48000 247.770
39.52000 233.297
39.56000 227.413
39.60000 234.122
39.64000 228.397
39.68000 234.246
39.72000 243.857
39.76000 246.860
39.80000 235.332
39.84000 236.323
39.88000 226.991
39.92000 237.504
39.96000 249.128
40.00000 236.396
40.04000 227.213
40.08000 229.148
40.12000 223.744
40.16000 236.559
40.20000 222.598
40.24000 227.916
40.28000 225.539
40.32000 227.877
40.36000 222.674
40.40000 224.640
40.44000 227.343
40.48000 216.483
40.52000 218.636
40.56000 214.622
40.60000 223.595
40.64000 216.671
40.68000 224.999
40.72000 208.028
40.76000 209.169
40.80000 214.917
40.84000 222.832
40.88000 215.326
40.92000 204.128
40.96000 214.203
41.00000 208.226
41.04000 213.608
41.08000 200.639
41.12000 200.284
41.16000 209.445
41.20000 209.332
41.24000 217.583
41.28000 203.584
41.32000 207.314
41.36000 208.008
41.40000 205.936
41.44000 218.342
41.48000 209.172
41.52000 220.489
41.56000 218.038
41.60000 221.154
41.64000 208.430
41.68000 206.852
41.72000 214.652
41.76000 214.023
41.80000 211.076
41.84000 222.869
41.88000 219.480
41.92000 220.880
41.96000 212.666
42.00000 227.572
42.04000 223.261
42.08000 219.245
42.12000 224.794
42.16000 223.124
42.20000 214.788
42.24000 218.489
42.28000 228.385
42.32000 213.514
42.36000 230.951
42.40000 224.696
42.44000 216.678
42.48000 201.375
42.52000 216.046
42.56000 215.044
42.60000 213.381
42.64000 206.659
42.68000 208.913
42.72000 222.676
42.76000 203.568
42.80000 209.858
42.84000 205.130
42.88000 200.485
42.92000 208.911
42.96000 196.948
43.00000 198.546
43.04000 216.006
43.08000 196.946
43.12000 204.338
43.16000 195.378
43.20000 194.368
43.24000 203.902
43.28000 196.680
43.32000 188.080
43.36000 214.116
43.40000 213.166
43.44000 198.421
43.48000 200.950
43.52000 194.505
43.56000 194.392
43.60000 197.832
43.64000 184.732
43.68000 184.326
43.72000 194.858
43.76000 206.296
43.80000 191.887
43.84000 184.862
43.88000 192.112
43.92000 213.244
43.96000 199.284
44.00000 202.151
44.04000 201.479
44.08000 202.234
44.12000 202.292
44.16000 198.194
44.20000 197.008
44.24000 205.545
44.28000 202.041
44.32000 212.775
44.36000 204.689
44.40000 216.648
44.44000 198.465
44.48000 209.066
44.52000 214.722
44.56000 208.757
44.60000 225.135
44.64000 208.277
44.68000 217.874
44.72000 223.390
44.76000 219.903
44.80000 224.032
44.84000 223.537
44.88000 228.947
44.92000 228.674
44.96000 224.166
45.00000 230.856
45.04000 239.594
45.08000 238.664
45.12000 226.855
45.16000 240.074
45.20000 225.606
45.24000 230.743
45.28000 223.793
45.32000 219.669
45.36000 204.918
45.40000 214.720
45.44000 212.727
45.48000 194.648
45.52000 199.147
45.56000 208.480
45.60000 201.529
45.64000 202.436
45.68000 207.431
45.72000 191.528
45.76000 187.860
45.80000 193.126
45.84000 192.321
45.88000 173.206
45.92000 182.119
45.96000 173.523
46.00000 172.317
46.04000 177.293
46.08000 183.794
46.12000 173.342
46.16000 185.619
46.20000 186.310
46.24000 183.204
46.28000 177.095
46.32000 179.256
46.36000 179.887
46.40000 185.858
46.44000 177.187
46.48000 173.831
46.52000 166.098
46.56000 185.141
46.60000 166.296
46.64000 186.764
46.68000 183.677
46.72000 180.890
46.76000 175.617
46.80000 169.615
46.84000 174.421
46.88000 171.599
46.92000 178.278
46.96000 168.128
47.00000 179.976
47.04000 170.853
47.08000 174.652
47.12000 170.679
47.16000 170.070
47.20000 167.103
47.24000 162.782
47.28000 161.207
47.32000 160.816
47.36000 160.973
47.40000 153.656
47.44000 170.248
47.48000 167.765
47.52000 170.988
47.56000 172.575
47.60000 152.255
47.64000 168.687
47.68000 170.046
47.72000 159.681
47.76000 153.473
47.80000 168.794
47.84000 169.293
47.88000 152.293
47.92000 162.837
47.96000 173.315
48.00000 160.398
48.04000 164.560
48.08000 159.018
48.12000 158.999
48.16000 163.124
48.20000 161.230
48.24000 166.640
48.28000 160.499
48.32000 161.308
48.36000 153.158
48.40000 165.486
48.44000 160.947
48.48000 154.859
48.52000 162.526
48.56000 164.390
48.60000 161.217
48.64000 163.498
48.68000 153.001
48.72000 157.816
48.76000 160.404
48.80000 161.730
48.84000 148.667
48.88000 172.202
48.92000 151.137
48.96000 159.778
49.00000 156.222
49.04000 156.711
49.08000 161.377
49.12000 163.570
49.16000 171.488
49.20000 153.304
49.24000 152.344
49.28000 160.935
49.32000 146.662
49.36000 150.108
49.40000 152.773
49.44000 158.447
49.48000 159.843
49.52000 161.000
49.56000 154.090
49.60000 145.061
49.64000 146.522
49.68000 148.319
49.72000 148.376
49.76000 155.563
49.80000 162.388
49.84000 140.953
49.88000 157.041
49.92000 160.493
49.96000 150.845
50.00000 150.417
50.04000 152.120
50.08000 150.716
50.12000 152.598
50.16000 151.151
50.20000 158.454
50.24000 162.639
50.28000 159.730
50.32000 167.999
50.36000 166.686
50.40000 155.015
50.44000 168.837
50.48000 171.347
50.52000 174.840
50.56000 175.560
50.60000 164.983
50.64000 159.722
50.68000 169.686
50.72000 171.527
50.76000 177.184
50.80000 165.399
50.84000 164.858
50.88000 170.105
50.92000 154.974
50.96000 147.142
51.00000 147.880
51.04000 148.794
51.08000 152.290
51.12000 150.436
51.16000 156.511
51.20000 144.920
51.24000 148.726
51.28000 140.841
51.32000 144.375
51.36000 145.553
51.40000 151.448
51.44000 149.906
51.48000 133.766
51.52000 154.512
51.56000 146.604
51.60000 139.158
51.64000 135.611
51.68000 153.133
51.72000 143.923
51.76000 145.798
51.80000 144.440
51.84000 149.773
51.88000 150.652
51.92000 142.033
51.96000 143.285
52.00000 139.948
52.04000 139.164
52.08000 141.074
52.12000 148.502
52.16000 142.556
52.20000 148.631
52.24000 133.903
52.28000 143.480
52.32000 139.674
52.36000 130.883
52.40000 139.578
52.44000 133.637
52.48000 135.899
52.52000 139.993
52.56000 136.885
52.60000 131.477
52.64000 145.130
52.68000 143.748
52.72000 139.631
52.76000 136.072
52.80000 137.990
52.84000 139.129
52.88000 145.802
52.92000 147.749
52.96000 137.775
53.00000 129.267
53.04000 139.034
53.08000 146.797
53.12000 148.922
53.16000 142.886
53.20000 147.463
53.24000 145.845
53.28000 147.129
53.32000 148.788
53.36000 144.263
53.40000 144.703
53.44000 149.533
53.48000 143.756
53.52000 146.275
53.56000 155.968
53.60000 137.963
53.64000 139.473
53.68000 151.083
53.72000 143.936
53.76000 134.999
53.80000 146.891
53.84000 144.335
53.88000 144.635
53.92000 140.188
53.96000 143.883
54.00000 143.211
54.04000 138.195
54.08000 139.163
54.12000 136.777
54.16000 134.467
54.20000 136.128
54.24000 148.277
54.28000 142.136
54.32000 151.001
54.36000 146.910
54.40000 142.503
54.44000 134.244
54.48000 129.612
54.52000 140.813
54.56000 127.602
54.60000 138.614
54.64000 134.795
54.68000 130.748
54.72000 139.184
54.76000 135.272
54.80000 150.419
54.84000 132.541
54.88000 154.072
54.92000 143.129
54.96000 143.004
55.00000 142.878
55.04000 151.395
55.08000 158.075
55.12000 155.119
55.16000 151.438
55.20000 143.431
55.24000 163.073
55.28000 162.341
55.32000 159.026
55.36000 160.422
55.40000 172.408
55.44000 168.839
55.48000 186.885
55.52000 201.877
55.56000 210.330
55.60000 219.943
55.64000 231.702
55.68000 254.770
55.72000 260.446
55.76000 303.153
55.80000 309.842
55.84000 325.958
55.88000 351.249
55.92000 348.848
55.96000 363.784
56.00000 340.895
56.04000 344.233
56.08000 295.340
56.12000 287.224
56.16000 295.229
56.20000 243.663
56.24000 223.324
56.28000 216.454
56.32000 201.022
56.36000 192.146
56.40000 168.845
56.44000 161.964
56.48000 155.250
56.52000 163.429
56.56000 153.946
56.60000 142.388
56.64000 139.344
56.68000 144.435
56.72000 149.144
56.76000 143.556
56.80000 144.577
56.84000 132.695
56.88000 131.930
56.92000 134.822
56.96000 129.244
57.00000 130.623
57.04000 128.808
57.08000 132.497
57.12000 128.925
57.16000 134.371
57.20000 126.608
57.24000 133.319
57.28000 131.855
57.32000 125.538
57.36000 133.199
57.40000 130.870
57.44000 129.933
57.48000 124.738
57.52000 133.118
57.56000 124.163
57.60000 136.709
57.64000 117.264
57.68000 134.394
57.72000 121.490
57.76000 124.506
57.80000 130.532
57.84000 134.012
57.88000 122.505
57.92000 129.025
57.96000 124.540
58.00000 123.425
58.04000 127.620
58.08000 119.926
58.12000 122.174
58.16000 120.840
58.20000 122.166
58.24000 119.756
58.28000 119.860
58.32000 123.892
58.36000 129.768
58.40000 119.232
58.44000 125.845
58.48000 117.254
58.52000 112.938
58.56000 116.874
58.60000 116.610
58.64000 123.622
58.68000 113.022
58.72000 126.700
58.76000 129.856
58.80000 111.211
58.84000 118.685
58.88000 110.994
58.92000 112.449
58.96000 121.480
59.00000 119.516
59.04000 122.661
59.08000 115.945
59.12000 120.568
59.16000 116.098
59.20000 124.537
59.24000 122.464
59.28000 117.805
59.32000 117.539
59.36000 121.067
59.40000 118.466
59.44000 122.353
59.48000 111.009
59.52000 117.172
59.56000 120.804
59.60000 119.847
59.64000 126.111
59.68000 122.387
59.72000 118.813
59.76000 120.393
59.80000 118.812
59.84000 125.408
59.88000 126.306
59.92000 115.844
59.96000 110.015
60.00000 117.954
60.04000 114.421
60.08000 116.091
60.12000 119.383
60.16000 119.770
60.20000 112.792
60.24000 121.872
60.28000 117.478
60.32000 113.938
60.36000 116.759
60.40000 119.726
60.44000 120.384
60.48000 116.877
60.52000 122.631
60.56000 113.433
60.60000 123.338
60.64000 126.478
60.68000 116.170
60.72000 127.207
60.76000 110.346
60.80000 123.118
60.84000 116.837
60.88000 123.241
60.92000 115.276
60.96000 123.147
61.00000 118.775
61.04000 113.951
61.08000 127.351
61.12000 122.464
61.16000 121.122
61.20000 131.116
61.24000 130.842
61.28000 129.672
61.32000 132.036
61.36000 118.819
61.40000 128.767
61.44000 121.113
61.48000 139.077
61.52000 167.121
61.56000 202.474
61.60000 252.818
61.64000 284.654
61.68000 283.367
61.72000 301.572
61.76000 278.619
61.80000 216.293
61.84000 170.096
61.88000 150.710
61.92000 129.499
61.96000 135.644
62.00000 127.830
62.04000 132.693
62.08000 138.718
62.12000 127.582
62.16000 135.546
62.20000 135.857
62.24000 131.258
62.28000 132.759
62.32000 125.167
62.36000 129.761
62.40000 127.294
62.44000 136.763
62.48000 119.187
62.52000 129.755
62.56000 131.765
62.60000 125.747
62.64000 136.177
62.68000 137.920
62.72000 132.184
62.76000 129.574
62.80000 116.089
62.84000 129.563
62.88000 129.979
62.92000 139.611
62.96000 137.134
63.00000 126.920
63.04000 141.831
63.08000 140.470
63.12000 139.496
63.16000 139.105
63.20000 152.622
63.24000 136.727
63.28000 131.252
63.32000 135.906
63.36000 131.787
63.40000 143.377
63.44000 139.405
63.48000 130.099
63.52000 139.133
63.56000 135.027
63.60000 128.801
63.64000 132.499
63.68000 139.575
63.72000 138.064
63.76000 141.101
63.80000 142.870
63.84000 135.878
63.88000 149.161
63.92000 147.009
63.96000 138.473
64.00000 149.378
64.04000 141.357
64.08000 156.507
64.12000 151.417
64.16000 145.259
64.20000 150.004
64.24000 158.352
64.28000 146.785
64.32000 163.433
64.36000 160.246
64.40000 158.013
64.44000 165.719
64.48000 157.494
64.52000 156.182
64.56000 157.312
64.60000 155.620
64.64000 175.670
64.68000 162.879
64.72000 170.821
64.76000 171.660
64.80000 173.631
64.84000 172.844
64.88000 174.741
64.92000 183.557
64.96000 180.616
65.00000 192.957
65.04000 209.169
65.08000 208.289
65.12000 203.686
65.16000 209.006
65.20000 205.674
65.24000 226.350
65.28000 223.893
65.32000 244.634
65.36000 239.148
65.40000 257.880
65.44000 282.503
65.48000 280.013
65.52000 307.511
65.56000 317.983
65.60000 366.276
65.64000 432.475
65.68000 592.846
65.72000 926.259
65.76000 1427.534
65.80000 1780.209
65.84000 1916.748
65.88000 1934.922
65.92000 1856.469
65.96000 1449.037
66.00000 974.665
66.04000 616.725
66.08000 449.107
66.12000 399.870
66.16000 365.333
66.20000 375.245
66.24000 384.090
66.28000 470.510
66.32000 538.337
66.36000 624.433
66.40000 618.451
66.44000 623.742
66.48000 604.222
66.52000 539.065
66.56000 423.308
66.60000 397.582
66.64000 357.978
66.68000 344.791
66.72000 348.001
66.76000 358.374
66.80000 366.238
66.84000 355.172
66.88000 353.467
66.92000 347.155
66.96000 372.810
67.00000 361.669
67.04000 371.256
67.08000 371.261
67.12000 373.887
67.16000 390.558
67.20000 379.473
67.24000 409.038
67.28000 398.467
67.32000 379.609
67.36000 419.674
67.40000 412.546
67.44000 414.460
67.48000 440.133
67.52000 439.117
67.56000 433.494
67.60000 436.361
67.64000 445.512
67.68000 433.963
67.72000 473.502
67.76000 443.729
67.80000 478.475
67.84000 481.046
67.88000 470.963
67.92000 502.889
67.96000 507.119
68.00000 516.953
68.04000 508.250
68.08000 515.266
68.12000 540.582
68.16000 534.066
68.20000 559.026
68.24000 556.094
68.28000 586.464
68.32000 583.151
68.36000 610.574
68.40000 621.327
68.44000 660.286
68.48000 695.473
68.52000 699.401
68.56000 803.741
68.60000 851.198
68.64000 984.996
68.68000 1150.927
68.72000 1328.004
68.76000 1488.261
68.80000 1704.605
68.84000 1943.221
68.88000 2428.364
68.92000 4048.686
68.96000 9943.278
69.00000 22506.486
69.04000 35068.020
69.08000 41611.438
69.12000 43985.781
69.16000 47079.250
69.20000 45812.617
69.24000 35805.535
69.28000 26444.539
69.32000 22282.680
69.36000 20971.715
69.40000 17099.584
69.44000 9925.554
69.48000 4387.175
69.52000 2084.508
69.56000 1299.918
69.60000 1046.918
69.64000 914.279
69.68000 833.822
69.72000 749.492
69.76000 668.868
69.80000 628.851
69.84000 579.431
69.88000 566.119
69.92000 522.293
69.96000 498.112
70.00000 490.742