File: XRD/XRD/08-10-2025 Dep 7/XY Data/BTO_Mapping_Theta2Theta_08-10-2025_001_55_13-383_-14-863.xy
20.00000 478.301
20.04000 472.643
20.08000 468.629
20.12000 467.788
20.16000 470.161
20.20000 478.420
20.24000 469.958
20.28000 463.766
20.32000 469.996
20.36000 463.624
20.40000 487.906
20.44000 466.134
20.48000 477.050
20.52000 474.234
20.56000 462.020
20.60000 462.618
20.64000 464.498
20.68000 471.287
20.72000 462.851
20.76000 490.057
20.80000 479.823
20.84000 466.685
20.88000 460.845
20.92000 458.091
20.96000 459.868
21.00000 467.998
21.04000 464.616
21.08000 467.426
21.12000 458.627
21.16000 465.125
21.20000 466.867
21.24000 489.165
21.28000 485.751
21.32000 470.352
21.36000 482.240
21.40000 446.489
21.44000 450.747
21.48000 463.465
21.52000 454.227
21.56000 469.616
21.60000 485.037
21.64000 471.887
21.68000 443.818
21.72000 473.928
21.76000 478.170
21.80000 490.651
21.84000 500.800
21.88000 509.995
21.92000 519.660
21.96000 520.672
22.00000 498.277
22.04000 515.963
22.08000 513.650
22.12000 527.947
22.16000 516.250
22.20000 503.267
22.24000 505.721
22.28000 485.460
22.32000 488.133
22.36000 466.540
22.40000 488.838
22.44000 466.475
22.48000 472.016
22.52000 449.816
22.56000 447.138
22.60000 468.140
22.64000 454.553
22.68000 449.871
22.72000 460.305
22.76000 463.633
22.80000 439.706
22.84000 458.052
22.88000 447.152
22.92000 458.630
22.96000 452.148
23.00000 446.803
23.04000 442.804
23.08000 450.663
23.12000 457.102
23.16000 427.170
23.20000 447.765
23.24000 451.372
23.28000 456.364
23.32000 415.439
23.36000 454.495
23.40000 446.634
23.44000 444.972
23.48000 442.272
23.52000 447.476
23.56000 461.068
23.60000 442.013
23.64000 470.387
23.68000 466.149
23.72000 478.299
23.76000 502.028
23.80000 504.003
23.84000 515.721
23.88000 531.566
23.92000 539.590
23.96000 537.140
24.00000 528.885
24.04000 536.533
24.08000 541.505
24.12000 523.340
24.16000 509.536
24.20000 487.107
24.24000 479.516
24.28000 447.606
24.32000 447.497
24.36000 427.447
24.40000 427.379
24.44000 419.333
24.48000 425.671
24.52000 424.175
24.56000 412.633
24.60000 421.413
24.64000 422.218
24.68000 417.338
24.72000 410.178
24.76000 429.464
24.80000 406.689
24.84000 390.364
24.88000 415.451
24.92000 398.850
24.96000 423.367
25.00000 419.007
25.04000 416.352
25.08000 407.997
25.12000 410.542
25.16000 412.059
25.20000 405.942
25.24000 392.559
25.28000 405.408
25.32000 398.238
25.36000 387.865
25.40000 395.988
25.44000 417.454
25.48000 420.703
25.52000 395.273
25.56000 397.360
25.60000 382.564
25.64000 383.141
25.68000 401.538
25.72000 402.200
25.76000 391.954
25.80000 405.321
25.84000 385.236
25.88000 389.640
25.92000 394.911
25.96000 375.287
26.00000 390.118
26.04000 400.804
26.08000 388.206
26.12000 378.779
26.16000 402.280
26.20000 379.801
26.24000 374.846
26.28000 394.442
26.32000 405.732
26.36000 386.459
26.40000 391.558
26.44000 386.463
26.48000 385.529
26.52000 382.837
26.56000 412.390
26.60000 375.564
26.64000 387.892
26.68000 369.542
26.72000 378.108
26.76000 385.139
26.80000 378.575
26.84000 387.532
26.88000 381.969
26.92000 383.799
26.96000 374.545
27.00000 383.114
27.04000 381.998
27.08000 402.892
27.12000 382.538
27.16000 368.737
27.20000 379.452
27.24000 374.715
27.28000 377.357
27.32000 375.065
27.36000 379.421
27.40000 387.519
27.44000 393.364
27.48000 366.077
27.52000 371.553
27.56000 368.629
27.60000 391.142
27.64000 367.483
27.68000 361.643
27.72000 379.063
27.76000 377.700
27.80000 389.333
27.84000 363.181
27.88000 370.494
27.92000 366.988
27.96000 374.280
28.00000 346.761
28.04000 362.088
28.08000 351.862
28.12000 365.991
28.16000 374.081
28.20000 372.450
28.24000 358.468
28.28000 367.132
28.32000 363.770
28.36000 357.657
28.40000 353.868
28.44000 370.155
28.48000 377.036
28.52000 365.148
28.56000 357.561
28.60000 367.395
28.64000 343.335
28.68000 370.495
28.72000 362.191
28.76000 343.532
28.80000 360.364
28.84000 348.372
28.88000 356.951
28.92000 363.713
28.96000 365.281
29.00000 359.591
29.04000 351.546
29.08000 372.598
29.12000 359.753
29.16000 351.104
29.20000 360.872
29.24000 359.024
29.28000 376.490
29.32000 363.229
29.36000 356.451
29.40000 366.973
29.44000 364.536
29.48000 342.228
29.52000 342.133
29.56000 356.654
29.60000 356.981
29.64000 356.019
29.68000 366.577
29.72000 363.845
29.76000 368.096
29.80000 363.878
29.84000 381.133
29.88000 395.672
29.92000 380.533
29.96000 391.270
30.00000 390.629
30.04000 383.899
30.08000 380.913
30.12000 375.338
30.16000 367.578
30.20000 386.197
30.24000 389.678
30.28000 349.351
30.32000 375.348
30.36000 366.201
30.40000 362.451
30.44000 373.652
30.48000 372.166
30.52000 376.212
30.56000 373.114
30.60000 355.280
30.64000 386.829
30.68000 369.818
30.72000 375.661
30.76000 394.862
30.80000 371.647
30.84000 406.571
30.88000 406.545
30.92000 421.799
30.96000 452.459
31.00000 471.058
31.04000 517.058
31.08000 586.158
31.12000 653.397
31.16000 737.642
31.20000 872.042
31.24000 967.171
31.28000 1110.281
31.32000 1172.796
31.36000 1243.829
31.40000 1211.766
31.44000 1166.614
31.48000 1068.041
31.52000 933.700
31.56000 821.026
31.60000 699.201
31.64000 606.835
31.68000 528.878
31.72000 469.524
31.76000 446.657
31.80000 412.311
31.84000 410.912
31.88000 388.431
31.92000 378.476
31.96000 380.164
32.00000 378.814
32.04000 352.180
32.08000 360.571
32.12000 374.478
32.16000 356.408
32.20000 342.881
32.24000 337.763
32.28000 328.994
32.32000 329.417
32.36000 336.013
32.40000 329.564
32.44000 335.101
32.48000 337.809
32.52000 328.229
32.56000 328.773
32.60000 325.286
32.64000 325.322
32.68000 309.994
32.72000 319.049
32.76000 326.807
32.80000 317.881
32.84000 330.164
32.88000 330.570
32.92000 316.915
32.96000 308.316
33.00000 289.512
33.04000 310.040
33.08000 303.204
33.12000 298.414
33.16000 302.571
33.20000 307.229
33.24000 303.876
33.28000 286.419
33.32000 291.918
33.36000 310.054
33.40000 310.254
33.44000 300.549
33.48000 298.431
33.52000 291.044
33.56000 298.742
33.60000 303.950
33.64000 303.910
33.68000 294.642
33.72000 305.525
33.76000 311.301
33.80000 316.144
33.84000 303.968
33.88000 319.004
33.92000 301.295
33.96000 329.610
34.00000 326.833
34.04000 322.121
34.08000 333.402
34.12000 345.622
34.16000 352.484
34.20000 352.309
34.24000 356.758
34.28000 358.017
34.32000 365.267
34.36000 356.196
34.40000 357.071
34.44000 352.904
34.48000 340.074
34.52000 353.492
34.56000 341.075
34.60000 324.955
34.64000 316.163
34.68000 313.420
34.72000 312.211
34.76000 299.014
34.80000 294.276
34.84000 279.791
34.88000 278.254
34.92000 293.893
34.96000 279.074
35.00000 267.939
35.04000 284.010
35.08000 267.064
35.12000 280.962
35.16000 272.749
35.20000 265.908
35.24000 275.909
35.28000 273.198
35.32000 266.647
35.36000 263.427
35.40000 269.559
35.44000 270.900
35.48000 275.054
35.52000 262.832
35.56000 255.270
35.60000 270.797
35.64000 273.425
35.68000 278.021
35.72000 264.270
35.76000 264.250
35.80000 259.899
35.84000 262.733
35.88000 276.580
35.92000 260.464
35.96000 265.099
36.00000 257.077
36.04000 258.956
36.08000 260.821
36.12000 247.976
36.16000 240.607
36.20000 255.457
36.24000 260.500
36.28000 261.812
36.32000 265.776
36.36000 270.567
36.40000 269.440
36.44000 262.854
36.48000 270.283
36.52000 266.881
36.56000 253.483
36.60000 249.874
36.64000 261.476
36.68000 248.306
36.72000 277.479
36.76000 276.155
36.80000 266.584
36.84000 268.218
36.88000 268.469
36.92000 283.048
36.96000 276.954
37.00000 273.263
37.04000 281.261
37.08000 273.058
37.12000 283.673
37.16000 273.991
37.20000 261.296
37.24000 262.024
37.28000 259.356
37.32000 246.042
37.36000 266.450
37.40000 255.441
37.44000 252.817
37.48000 252.568
37.52000 262.876
37.56000 242.689
37.60000 249.492
37.64000 249.279
37.68000 265.372
37.72000 248.064
37.76000 259.385
37.80000 261.673
37.84000 259.221
37.88000 246.429
37.92000 259.649
37.96000 253.560
38.00000 257.186
38.04000 257.214
38.08000 259.295
38.12000 257.150
38.16000 262.587
38.20000 275.935
38.24000 276.949
38.28000 277.246
38.32000 308.467
38.36000 337.244
38.40000 373.828
38.44000 411.668
38.48000 514.389
38.52000 628.729
38.56000 718.554
38.60000 850.437
38.64000 958.832
38.68000 974.863
38.72000 1035.034
38.76000 971.018
38.80000 889.959
38.84000 764.623
38.88000 646.751
38.92000 530.073
38.96000 454.491
39.00000 360.573
39.04000 312.645
39.08000 282.139
39.12000 276.618
39.16000 260.487
39.20000 246.794
39.24000 249.734
39.28000 250.011
39.32000 251.874
39.36000 248.055
39.40000 242.178
39.44000 237.956
39.48000 238.624
39.52000 245.942
39.56000 241.485
39.60000 237.838
39.64000 220.183
39.68000 224.932
39.72000 238.948
39.76000 245.672
39.80000 235.749
39.84000 240.902
39.88000 239.174
39.92000 236.145
39.96000 228.584
40.00000 228.545
40.04000 239.951
40.08000 234.903
40.12000 230.797
40.16000 234.035
40.20000 229.926
40.24000 221.823
40.28000 224.819
40.32000 229.323
40.36000 216.778
40.40000 224.330
40.44000 225.478
40.48000 227.826
40.52000 229.365
40.56000 222.777
40.60000 218.445
40.64000 213.338
40.68000 235.367
40.72000 221.488
40.76000 215.283
40.80000 216.661
40.84000 217.382
40.88000 207.514
40.92000 227.831
40.96000 224.043
41.00000 200.469
41.04000 216.997
41.08000 205.311
41.12000 211.013
41.16000 211.348
41.20000 205.657
41.24000 210.737
41.28000 213.976
41.32000 214.310
41.36000 216.024
41.40000 218.068
41.44000 212.161
41.48000 198.684
41.52000 222.285
41.56000 204.786
41.60000 217.352
41.64000 203.635
41.68000 212.927
41.72000 225.212
41.76000 212.340
41.80000 222.090
41.84000 214.370
41.88000 214.938
41.92000 217.018
41.96000 210.360
42.00000 223.340
42.04000 211.877
42.08000 219.936
42.12000 223.438
42.16000 222.486
42.20000 214.394
42.24000 209.757
42.28000 226.963
42.32000 237.321
42.36000 204.308
42.40000 218.706
42.44000 215.298
42.48000 211.977
42.52000 221.696
42.56000 211.190
42.60000 218.113
42.64000 206.785
42.68000 212.053
42.72000 217.497
42.76000 210.357
42.80000 200.685
42.84000 206.599
42.88000 219.823
42.92000 202.927
42.96000 215.025
43.00000 209.002
43.04000 219.754
43.08000 179.847
43.12000 191.771
43.16000 202.867
43.20000 202.832
43.24000 199.961
43.28000 205.215
43.32000 199.628
43.36000 191.027
43.40000 198.141
43.44000 185.933
43.48000 193.407
43.52000 204.619
43.56000 205.039
43.60000 204.257
43.64000 199.868
43.68000 192.202
43.72000 194.906
43.76000 198.960
43.80000 189.412
43.84000 187.782
43.88000 197.151
43.92000 203.072
43.96000 190.554
44.00000 189.279
44.04000 206.332
44.08000 195.956
44.12000 210.579
44.16000 188.037
44.20000 195.270
44.24000 208.736
44.28000 205.458
44.32000 207.047
44.36000 214.634
44.40000 196.107
44.44000 216.101
44.48000 214.483
44.52000 214.822
44.56000 208.960
44.60000 227.097
44.64000 219.199
44.68000 225.947
44.72000 240.679
44.76000 227.502
44.80000 234.877
44.84000 218.633
44.88000 255.158
44.92000 235.941
44.96000 239.922
45.00000 240.188
45.04000 241.999
45.08000 243.901
45.12000 254.981
45.16000 244.022
45.20000 249.425
45.24000 227.806
45.28000 223.336
45.32000 216.421
45.36000 205.927
45.40000 209.295
45.44000 218.998
45.48000 212.127
45.52000 207.482
45.56000 202.617
45.60000 197.290
45.64000 205.559
45.68000 190.522
45.72000 185.839
45.76000 187.420
45.80000 183.801
45.84000 183.707
45.88000 175.850
45.92000 180.101
45.96000 181.816
46.00000 182.179
46.04000 178.379
46.08000 173.375
46.12000 188.415
46.16000 181.991
46.20000 176.008
46.24000 184.225
46.28000 182.302
46.32000 177.600
46.36000 185.677
46.40000 179.343
46.44000 166.929
46.48000 171.756
46.52000 169.788
46.56000 171.704
46.60000 179.061
46.64000 170.041
46.68000 167.069
46.72000 189.441
46.76000 176.341
46.80000 163.791
46.84000 167.160
46.88000 164.709
46.92000 169.759
46.96000 176.506
47.00000 164.607
47.04000 174.236
47.08000 164.070
47.12000 172.384
47.16000 171.029
47.20000 159.001
47.24000 184.266
47.28000 160.882
47.32000 162.655
47.36000 165.055
47.40000 164.368
47.44000 146.854
47.48000 168.922
47.52000 169.124
47.56000 157.831
47.60000 162.922
47.64000 163.087
47.68000 166.076
47.72000 167.694
47.76000 165.883
47.80000 162.217
47.84000 174.174
47.88000 160.846
47.92000 166.541
47.96000 181.126
48.00000 167.596
48.04000 167.505
48.08000 156.300
48.12000 156.120
48.16000 166.992
48.20000 164.369
48.24000 172.700
48.28000 153.032
48.32000 161.035
48.36000 160.444
48.40000 154.243
48.44000 162.246
48.48000 159.569
48.52000 166.444
48.56000 156.918
48.60000 160.649
48.64000 163.287
48.68000 154.310
48.72000 154.002
48.76000 163.352
48.80000 162.326
48.84000 159.287
48.88000 161.694
48.92000 155.359
48.96000 154.081
49.00000 162.208
49.04000 160.548
49.08000 163.217
49.12000 172.035
49.16000 155.035
49.20000 151.392
49.24000 157.849
49.28000 157.909
49.32000 162.670
49.36000 155.973
49.40000 157.315
49.44000 153.187
49.48000 156.386
49.52000 150.140
49.56000 153.449
49.60000 145.265
49.64000 157.275
49.68000 147.892
49.72000 153.813
49.76000 154.742
49.80000 157.162
49.84000 153.051
49.88000 161.151
49.92000 145.307
49.96000 160.999
50.00000 164.076
50.04000 162.203
50.08000 157.274
50.12000 159.207
50.16000 155.216
50.20000 156.349
50.24000 156.121
50.28000 154.268
50.32000 147.501
50.36000 160.123
50.40000 154.260
50.44000 160.974
50.48000 160.610
50.52000 157.682
50.56000 152.761
50.60000 163.255
50.64000 163.148
50.68000 168.040
50.72000 168.445
50.76000 172.925
50.80000 166.901
50.84000 164.166
50.88000 151.749
50.92000 158.750
50.96000 150.518
51.00000 156.491
51.04000 156.991
51.08000 142.981
51.12000 139.158
51.16000 148.192
51.20000 146.933
51.24000 156.826
51.28000 158.221
51.32000 143.429
51.36000 151.374
51.40000 153.565
51.44000 146.605
51.48000 148.222
51.52000 147.812
51.56000 136.495
51.60000 141.597
51.64000 150.367
51.68000 142.451
51.72000 135.691
51.76000 147.186
51.80000 144.954
51.84000 143.253
51.88000 145.653
51.92000 145.317
51.96000 143.060
52.00000 154.375
52.04000 141.249
52.08000 131.916
52.12000 125.364
52.16000 151.152
52.20000 143.641
52.24000 139.384
52.28000 138.058
52.32000 147.364
52.36000 136.773
52.40000 141.541
52.44000 136.374
52.48000 146.348
52.52000 147.107
52.56000 142.675
52.60000 148.152
52.64000 135.584
52.68000 138.856
52.72000 139.786
52.76000 149.104
52.80000 143.566
52.84000 146.706
52.88000 140.512
52.92000 137.575
52.96000 134.718
53.00000 147.533
53.04000 140.381
53.08000 153.355
53.12000 142.414
53.16000 158.776
53.20000 160.197
53.24000 156.646
53.28000 147.543
53.32000 159.157
53.36000 140.820
53.40000 156.491
53.44000 158.039
53.48000 155.769
53.52000 152.561
53.56000 169.696
53.60000 141.751
53.64000 153.787
53.68000 149.792
53.72000 143.763
53.76000 150.023
53.80000 143.017
53.84000 140.758
53.88000 154.068
53.92000 150.914
53.96000 140.762
54.00000 146.781
54.04000 143.547
54.08000 139.800
54.12000 142.735
54.16000 148.313
54.20000 128.150
54.24000 140.175
54.28000 136.145
54.32000 138.445
54.36000 129.536
54.40000 138.871
54.44000 136.584
54.48000 135.216
54.52000 134.891
54.56000 146.675
54.60000 144.043
54.64000 144.848
54.68000 136.124
54.72000 142.348
54.76000 139.643
54.80000 147.907
54.84000 150.826
54.88000 148.967
54.92000 151.964
54.96000 144.141
55.00000 146.166
55.04000 136.340
55.08000 140.929
55.12000 156.152
55.16000 161.082
55.20000 166.399
55.24000 163.994
55.28000 167.931
55.32000 170.853
55.36000 169.962
55.40000 190.505
55.44000 216.854
55.48000 210.156
55.52000 232.380
55.56000 236.569
55.60000 263.380
55.64000 298.371
55.68000 343.467
55.72000 388.505
55.76000 428.602
55.80000 477.232
55.84000 525.540
55.88000 569.007
55.92000 566.998
55.96000 568.034
56.00000 544.041
56.04000 518.069
56.08000 471.495
56.12000 432.372
56.16000 365.147
56.20000 325.498
56.24000 301.999
56.28000 260.546
56.32000 224.407
56.36000 209.486
56.40000 185.343
56.44000 177.558
56.48000 157.219
56.52000 160.119
56.56000 154.501
56.60000 147.100
56.64000 147.739
56.68000 137.658
56.72000 131.845
56.76000 134.857
56.80000 140.046
56.84000 132.674
56.88000 139.378
56.92000 142.557
56.96000 138.356
57.00000 136.392
57.04000 129.189
57.08000 135.518
57.12000 139.993
57.16000 137.983
57.20000 126.588
57.24000 125.946
57.28000 129.560
57.32000 124.515
57.36000 127.429
57.40000 117.127
57.44000 121.051
57.48000 133.712
57.52000 120.861
57.56000 122.828
57.60000 128.698
57.64000 131.821
57.68000 127.145
57.72000 120.557
57.76000 128.658
57.80000 128.594
57.84000 136.696
57.88000 124.976
57.92000 122.251
57.96000 128.307
58.00000 127.171
58.04000 125.996
58.08000 126.698
58.12000 122.102
58.16000 124.817
58.20000 122.671
58.24000 120.803
58.28000 124.563
58.32000 123.453
58.36000 126.366
58.40000 117.515
58.44000 117.728
58.48000 129.351
58.52000 116.219
58.56000 112.774
58.60000 118.402
58.64000 114.137
58.68000 128.229
58.72000 124.206
58.76000 124.359
58.80000 116.019
58.84000 123.320
58.88000 125.737
58.92000 125.178
58.96000 115.981
59.00000 118.421
59.04000 117.482
59.08000 112.437
59.12000 121.439
59.16000 122.657
59.20000 121.078
59.24000 122.467
59.28000 108.711
59.32000 118.836
59.36000 121.077
59.40000 106.890
59.44000 127.083
59.48000 117.137
59.52000 121.397
59.56000 116.999
59.60000 110.030
59.64000 112.411
59.68000 112.714
59.72000 118.623
59.76000 123.908
59.80000 119.784
59.84000 115.146
59.88000 120.090
59.92000 125.359
59.96000 113.420
60.00000 119.938
60.04000 124.165
60.08000 112.601
60.12000 116.321
60.16000 118.305
60.20000 117.805
60.24000 115.477
60.28000 117.856
60.32000 124.009
60.36000 114.456
60.40000 117.883
60.44000 123.037
60.48000 109.577
60.52000 122.108
60.56000 130.810
60.60000 126.562
60.64000 125.809
60.68000 131.888
60.72000 117.993
60.76000 124.849
60.80000 120.445
60.84000 124.935
60.88000 124.034
60.92000 110.725
60.96000 131.656
61.00000 129.154
61.04000 123.234
61.08000 124.700
61.12000 121.334
61.16000 123.391
61.20000 128.883
61.24000 124.911
61.28000 128.562
61.32000 120.319
61.36000 119.101
61.40000 131.624
61.44000 137.208
61.48000 143.431
61.52000 152.029
61.56000 208.686
61.60000 246.839
61.64000 276.438
61.68000 283.583
61.72000 276.007
61.76000 273.023
61.80000 217.636
61.84000 165.358
61.88000 132.668
61.92000 138.202
61.96000 138.684
62.00000 141.486
62.04000 137.335
62.08000 125.003
62.12000 118.900
62.16000 131.139
62.20000 123.581
62.24000 129.298
62.28000 140.469
62.32000 129.050
62.36000 131.884
62.40000 128.541
62.44000 129.093
62.48000 128.699
62.52000 135.257
62.56000 124.473
62.60000 119.964
62.64000 124.542
62.68000 126.766
62.72000 130.965
62.76000 139.545
62.80000 124.612
62.84000 133.561
62.88000 125.934
62.92000 123.820
62.96000 141.041
63.00000 118.961
63.04000 125.925
63.08000 137.960
63.12000 125.621
63.16000 128.288
63.20000 129.034
63.24000 129.455
63.28000 130.192
63.32000 130.523
63.36000 132.956
63.40000 139.970
63.44000 125.999
63.48000 136.265
63.52000 139.085
63.56000 146.066
63.60000 140.103
63.64000 145.715
63.68000 147.579
63.72000 146.655
63.76000 143.357
63.80000 139.192
63.84000 137.310
63.88000 141.536
63.92000 141.436
63.96000 140.720
64.00000 142.595
64.04000 150.085
64.08000 143.026
64.12000 144.916
64.16000 147.710
64.20000 158.109
64.24000 143.774
64.28000 149.760
64.32000 146.592
64.36000 154.178
64.40000 156.797
64.44000 156.016
64.48000 156.423
64.52000 158.961
64.56000 168.899
64.60000 159.603
64.64000 162.719
64.68000 167.052
64.72000 166.355
64.76000 172.678
64.80000 169.543
64.84000 177.749
64.88000 191.053
64.92000 181.214
64.96000 180.202
65.00000 192.758
65.04000 204.865
65.08000 212.059
65.12000 196.496
65.16000 215.427
65.20000 200.602
65.24000 221.366
65.28000 226.527
65.32000 245.844
65.36000 246.069
65.40000 249.569
65.44000 268.777
65.48000 287.649
65.52000 301.890
65.56000 339.143
65.60000 368.944
65.64000 415.330
65.68000 603.588
65.72000 935.258
65.76000 1388.279
65.80000 1726.379
65.84000 1840.185
65.88000 1872.945
65.92000 1751.113
65.96000 1390.373
66.00000 913.308
66.04000 580.244
66.08000 436.849
66.12000 365.241
66.16000 355.108
66.20000 363.484
66.24000 370.794
66.28000 451.901
66.32000 535.958
66.36000 576.873
66.40000 613.366
66.44000 602.857
66.48000 558.116
66.52000 501.583
66.56000 430.227
66.60000 371.485
66.64000 342.421
66.68000 351.582
66.72000 344.395
66.76000 332.337
66.80000 355.415
66.84000 341.382
66.88000 340.338
66.92000 351.165
66.96000 347.555
67.00000 360.304
67.04000 379.424
67.08000 365.225
67.12000 382.396
67.16000 377.304
67.20000 395.037
67.24000 387.379
67.28000 382.057
67.32000 383.484
67.36000 387.617
67.40000 414.278
67.44000 401.271
67.48000 413.877
67.52000 421.923
67.56000 420.485
67.60000 413.206
67.64000 434.040
67.68000 462.652
67.72000 447.453
67.76000 446.179
67.80000 456.679
67.84000 479.909
67.88000 460.651
67.92000 460.319
67.96000 485.240
68.00000 472.431
68.04000 489.341
68.08000 504.774
68.12000 508.593
68.16000 508.011
68.20000 547.106
68.24000 557.680
68.28000 546.366
68.32000 573.206
68.36000 611.290
68.40000 591.822
68.44000 631.000
68.48000 655.658
68.52000 704.564
68.56000 720.012
68.60000 813.499
68.64000 950.990
68.68000 1124.893
68.72000 1270.512
68.76000 1431.941
68.80000 1608.903
68.84000 1811.017
68.88000 2347.536
68.92000 4059.549
68.96000 10129.612
69.00000 22423.523
69.04000 34131.559
69.08000 39641.789
69.12000 42019.633
69.16000 44686.426
69.20000 43050.078
69.24000 33082.215
69.28000 24628.402
69.32000 21072.693
69.36000 19670.662
69.40000 15730.523
69.44000 8959.571
69.48000 3922.710
69.52000 1861.941
69.56000 1225.198
69.60000 1008.004
69.64000 857.535
69.68000 743.459
69.72000 711.706
69.76000 646.197
69.80000 592.688
69.84000 564.657
69.88000 544.604
69.92000 541.833
69.96000 499.250
70.00000 490.271