File: XRD/XRD/08-10-2025 Dep 7/XY Data/BTO_Mapping_Theta2Theta_08-10-2025_001_33_-39-126_8-316.xy
20.00000 481.063
20.04000 481.108
20.08000 471.037
20.12000 468.134
20.16000 464.583
20.20000 486.494
20.24000 476.153
20.28000 465.275
20.32000 487.606
20.36000 463.146
20.40000 478.430
20.44000 471.423
20.48000 459.481
20.52000 472.365
20.56000 460.394
20.60000 445.107
20.64000 463.798
20.68000 478.126
20.72000 474.659
20.76000 464.456
20.80000 479.412
20.84000 476.559
20.88000 466.031
20.92000 463.543
20.96000 465.007
21.00000 470.001
21.04000 457.443
21.08000 480.731
21.12000 476.505
21.16000 484.737
21.20000 480.323
21.24000 478.426
21.28000 485.796
21.32000 481.596
21.36000 478.317
21.40000 454.924
21.44000 467.256
21.48000 482.913
21.52000 472.551
21.56000 477.920
21.60000 471.217
21.64000 473.279
21.68000 513.977
21.72000 524.976
21.76000 566.943
21.80000 584.134
21.84000 620.183
21.88000 670.762
21.92000 723.564
21.96000 785.988
22.00000 804.274
22.04000 821.674
22.08000 810.719
22.12000 758.888
22.16000 702.434
22.20000 647.981
22.24000 595.295
22.28000 554.948
22.32000 536.207
22.36000 507.711
22.40000 493.379
22.44000 486.326
22.48000 478.949
22.52000 480.717
22.56000 469.828
22.60000 455.564
22.64000 462.629
22.68000 449.637
22.72000 448.341
22.76000 438.285
22.80000 431.425
22.84000 432.275
22.88000 448.421
22.92000 421.521
22.96000 448.684
23.00000 425.026
23.04000 427.431
23.08000 438.207
23.12000 428.252
23.16000 446.063
23.20000 420.552
23.24000 437.722
23.28000 424.741
23.32000 412.761
23.36000 425.488
23.40000 424.236
23.44000 421.236
23.48000 421.321
23.52000 421.804
23.56000 430.127
23.60000 430.070
23.64000 429.507
23.68000 419.494
23.72000 427.322
23.76000 421.682
23.80000 418.120
23.84000 405.804
23.88000 390.620
23.92000 420.610
23.96000 407.077
24.00000 421.680
24.04000 434.419
24.08000 412.946
24.12000 407.074
24.16000 408.197
24.20000 406.772
24.24000 416.257
24.28000 422.972
24.32000 419.474
24.36000 421.909
24.40000 400.726
24.44000 417.826
24.48000 408.113
24.52000 411.112
24.56000 425.185
24.60000 416.161
24.64000 411.832
24.68000 413.802
24.72000 404.017
24.76000 402.812
24.80000 402.881
24.84000 402.443
24.88000 391.428
24.92000 404.037
24.96000 408.967
25.00000 392.563
25.04000 406.831
25.08000 417.026
25.12000 397.222
25.16000 398.594
25.20000 379.811
25.24000 393.096
25.28000 398.181
25.32000 388.858
25.36000 403.548
25.40000 407.428
25.44000 388.270
25.48000 392.745
25.52000 404.904
25.56000 388.811
25.60000 405.074
25.64000 404.393
25.68000 392.199
25.72000 400.944
25.76000 395.585
25.80000 388.605
25.84000 392.543
25.88000 384.655
25.92000 400.875
25.96000 387.433
26.00000 386.652
26.04000 389.241
26.08000 397.680
26.12000 405.394
26.16000 395.169
26.20000 395.233
26.24000 402.656
26.28000 375.702
26.32000 374.618
26.36000 381.815
26.40000 368.823
26.44000 376.928
26.48000 373.213
26.52000 385.807
26.56000 393.018
26.60000 382.180
26.64000 392.654
26.68000 394.769
26.72000 373.420
26.76000 386.623
26.80000 383.075
26.84000 387.939
26.88000 377.296
26.92000 378.202
26.96000 388.463
27.00000 384.868
27.04000 379.634
27.08000 380.218
27.12000 392.078
27.16000 377.826
27.20000 384.829
27.24000 360.674
27.28000 371.709
27.32000 371.016
27.36000 370.437
27.40000 378.154
27.44000 379.511
27.48000 368.767
27.52000 360.266
27.56000 370.960
27.60000 399.353
27.64000 373.747
27.68000 372.029
27.72000 364.005
27.76000 372.238
27.80000 356.871
27.84000 365.468
27.88000 368.299
27.92000 370.823
27.96000 366.166
28.00000 372.180
28.04000 374.592
28.08000 355.810
28.12000 373.985
28.16000 374.692
28.20000 377.843
28.24000 381.641
28.28000 385.340
28.32000 369.318
28.36000 375.620
28.40000 363.502
28.44000 354.171
28.48000 365.156
28.52000 370.869
28.56000 359.716
28.60000 374.716
28.64000 374.369
28.68000 361.115
28.72000 362.084
28.76000 356.515
28.80000 365.110
28.84000 362.719
28.88000 364.220
28.92000 343.735
28.96000 332.784
29.00000 365.417
29.04000 347.531
29.08000 355.627
29.12000 352.857
29.16000 364.047
29.20000 341.598
29.24000 356.727
29.28000 356.145
29.32000 361.103
29.36000 344.941
29.40000 345.802
29.44000 355.307
29.48000 341.204
29.52000 361.928
29.56000 380.989
29.60000 362.797
29.64000 367.327
29.68000 366.609
29.72000 377.622
29.76000 380.975
29.80000 418.064
29.84000 407.385
29.88000 431.528
29.92000 451.267
29.96000 473.991
30.00000 467.692
30.04000 466.639
30.08000 474.068
30.12000 470.333
30.16000 443.039
30.20000 443.520
30.24000 425.953
30.28000 414.810
30.32000 411.905
30.36000 381.287
30.40000 388.911
30.44000 397.737
30.48000 394.477
30.52000 390.713
30.56000 395.359
30.60000 392.728
30.64000 405.954
30.68000 399.886
30.72000 398.179
30.76000 427.223
30.80000 428.543
30.84000 442.756
30.88000 463.254
30.92000 507.651
30.96000 556.636
31.00000 649.295
31.04000 777.113
31.08000 1032.746
31.12000 1312.371
31.16000 1655.720
31.20000 2071.382
31.24000 2404.508
31.28000 2887.002
31.32000 3200.604
31.36000 3245.871
31.40000 3175.201
31.44000 2963.273
31.48000 2560.839
31.52000 2155.771
31.56000 1692.564
31.60000 1312.630
31.64000 1029.314
31.68000 821.343
31.72000 653.375
31.76000 563.542
31.80000 512.378
31.84000 466.597
31.88000 415.944
31.92000 399.988
31.96000 358.295
32.00000 354.116
32.04000 332.971
32.08000 357.889
32.12000 355.192
32.16000 327.622
32.20000 339.558
32.24000 338.273
32.28000 330.419
32.32000 346.595
32.36000 337.265
32.40000 341.981
32.44000 330.433
32.48000 313.874
32.52000 330.180
32.56000 337.669
32.60000 315.422
32.64000 331.975
32.68000 313.681
32.72000 333.640
32.76000 303.025
32.80000 319.875
32.84000 325.277
32.88000 322.567
32.92000 320.285
32.96000 326.383
33.00000 330.843
33.04000 321.066
33.08000 317.991
33.12000 304.939
33.16000 312.725
33.20000 306.100
33.24000 300.213
33.28000 285.931
33.32000 315.434
33.36000 292.722
33.40000 296.845
33.44000 293.882
33.48000 284.239
33.52000 299.016
33.56000 303.700
33.60000 289.466
33.64000 285.164
33.68000 284.374
33.72000 308.530
33.76000 293.212
33.80000 281.140
33.84000 288.088
33.88000 274.938
33.92000 281.662
33.96000 287.158
34.00000 279.924
34.04000 283.434
34.08000 285.794
34.12000 279.213
34.16000 287.793
34.20000 291.884
34.24000 272.181
34.28000 278.046
34.32000 267.641
34.36000 285.110
34.40000 289.741
34.44000 309.723
34.48000 281.919
34.52000 283.982
34.56000 270.828
34.60000 273.236
34.64000 266.400
34.68000 280.529
34.72000 276.353
34.76000 272.906
34.80000 282.290
34.84000 277.770
34.88000 287.039
34.92000 279.575
34.96000 272.157
35.00000 279.229
35.04000 269.910
35.08000 268.252
35.12000 285.061
35.16000 274.075
35.20000 285.310
35.24000 277.145
35.28000 273.701
35.32000 273.346
35.36000 275.756
35.40000 265.322
35.44000 269.106
35.48000 245.337
35.52000 260.476
35.56000 276.030
35.60000 266.474
35.64000 268.080
35.68000 274.679
35.72000 265.660
35.76000 256.417
35.80000 254.150
35.84000 260.985
35.88000 279.511
35.92000 260.574
35.96000 264.720
36.00000 272.538
36.04000 257.161
36.08000 253.972
36.12000 260.931
36.16000 269.161
36.20000 254.509
36.24000 257.943
36.28000 253.372
36.32000 262.322
36.36000 257.740
36.40000 250.839
36.44000 271.226
36.48000 254.992
36.52000 251.867
36.56000 255.148
36.60000 255.797
36.64000 256.315
36.68000 265.458
36.72000 261.830
36.76000 259.224
36.80000 252.782
36.84000 255.523
36.88000 270.227
36.92000 257.591
36.96000 270.711
37.00000 258.053
37.04000 259.650
37.08000 260.489
37.12000 259.684
37.16000 264.262
37.20000 267.068
37.24000 258.580
37.28000 259.768
37.32000 253.967
37.36000 257.673
37.40000 246.709
37.44000 248.189
37.48000 237.408
37.52000 241.276
37.56000 252.238
37.60000 243.424
37.64000 240.287
37.68000 259.388
37.72000 259.650
37.76000 237.883
37.80000 241.847
37.84000 253.920
37.88000 252.246
37.92000 249.545
37.96000 261.475
38.00000 256.137
38.04000 250.344
38.08000 258.685
38.12000 266.907
38.16000 259.386
38.20000 261.409
38.24000 262.329
38.28000 280.911
38.32000 298.929
38.36000 313.968
38.40000 339.135
38.44000 345.242
38.48000 408.823
38.52000 429.749
38.56000 462.098
38.60000 472.742
38.64000 499.999
38.68000 506.932
38.72000 518.208
38.76000 504.661
38.80000 455.433
38.84000 417.664
38.88000 388.040
38.92000 373.690
38.96000 328.970
39.00000 308.974
39.04000 278.471
39.08000 257.868
39.12000 252.476
39.16000 243.657
39.20000 231.196
39.24000 232.372
39.28000 241.485
39.32000 225.555
39.36000 227.304
39.40000 232.234
39.44000 239.953
39.48000 230.900
39.52000 227.498
39.56000 228.896
39.60000 226.709
39.64000 233.906
39.68000 227.014
39.72000 235.264
39.76000 217.527
39.80000 230.723
39.84000 212.087
39.88000 235.670
39.92000 235.227
39.96000 238.221
40.00000 224.795
40.04000 229.873
40.08000 238.994
40.12000 231.677
40.16000 228.227
40.20000 209.888
40.24000 215.779
40.28000 228.144
40.32000 222.176
40.36000 215.582
40.40000 214.396
40.44000 213.297
40.48000 210.045
40.52000 223.460
40.56000 218.202
40.60000 210.980
40.64000 212.135
40.68000 210.808
40.72000 223.689
40.76000 224.667
40.80000 212.120
40.84000 218.604
40.88000 216.911
40.92000 209.887
40.96000 212.555
41.00000 229.302
41.04000 213.436
41.08000 213.397
41.12000 201.654
41.16000 215.013
41.20000 198.039
41.24000 204.054
41.28000 206.968
41.32000 215.016
41.36000 217.357
41.40000 210.298
41.44000 220.179
41.48000 212.064
41.52000 211.453
41.56000 209.626
41.60000 209.807
41.64000 200.543
41.68000 211.814
41.72000 200.363
41.76000 208.911
41.80000 214.205
41.84000 219.637
41.88000 207.501
41.92000 215.927
41.96000 206.724
42.00000 204.302
42.04000 191.358
42.08000 204.350
42.12000 206.573
42.16000 206.959
42.20000 207.543
42.24000 207.479
42.28000 209.402
42.32000 193.369
42.36000 202.488
42.40000 197.715
42.44000 195.708
42.48000 208.000
42.52000 208.586
42.56000 199.986
42.60000 196.645
42.64000 204.931
42.68000 208.121
42.72000 199.885
42.76000 216.628
42.80000 195.432
42.84000 200.290
42.88000 205.915
42.92000 208.562
42.96000 217.140
43.00000 237.606
43.04000 206.235
43.08000 220.178
43.12000 221.301
43.16000 210.733
43.20000 206.607
43.24000 206.091
43.28000 199.338
43.32000 198.127
43.36000 207.753
43.40000 186.119
43.44000 195.269
43.48000 192.991
43.52000 211.845
43.56000 198.849
43.60000 182.364
43.64000 193.204
43.68000 217.433
43.72000 198.456
43.76000 207.651
43.80000 190.737
43.84000 203.325
43.88000 193.040
43.92000 200.165
43.96000 192.761
44.00000 203.932
44.04000 202.331
44.08000 196.266
44.12000 209.313
44.16000 194.156
44.20000 210.349
44.24000 202.625
44.28000 201.207
44.32000 198.887
44.36000 202.344
44.40000 208.651
44.44000 230.498
44.48000 223.393
44.52000 239.806
44.56000 233.837
44.60000 255.241
44.64000 292.174
44.68000 318.869
44.72000 339.934
44.76000 402.256
44.80000 413.935
44.84000 455.022
44.88000 491.171
44.92000 484.506
44.96000 480.956
45.00000 477.054
45.04000 469.398
45.08000 454.880
45.12000 420.263
45.16000 392.650
45.20000 361.143
45.24000 352.362
45.28000 313.939
45.32000 294.452
45.36000 286.573
45.40000 287.154
45.44000 286.939
45.48000 257.208
45.52000 241.389
45.56000 237.553
45.60000 214.146
45.64000 224.709
45.68000 215.278
45.72000 203.989
45.76000 201.247
45.80000 194.322
45.84000 202.511
45.88000 199.111
45.92000 204.451
45.96000 194.462
46.00000 188.258
46.04000 186.743
46.08000 196.025
46.12000 195.714
46.16000 186.348
46.20000 177.744
46.24000 177.229
46.28000 180.365
46.32000 185.907
46.36000 178.881
46.40000 176.637
46.44000 179.937
46.48000 187.815
46.52000 183.290
46.56000 169.584
46.60000 176.796
46.64000 174.788
46.68000 178.308
46.72000 179.334
46.76000 167.892
46.80000 174.083
46.84000 180.766
46.88000 161.497
46.92000 173.733
46.96000 166.432
47.00000 164.812
47.04000 176.970
47.08000 165.953
47.12000 162.865
47.16000 163.555
47.20000 171.404
47.24000 171.178
47.28000 168.066
47.32000 169.149
47.36000 171.446
47.40000 174.200
47.44000 153.978
47.48000 157.555
47.52000 159.994
47.56000 167.828
47.60000 166.909
47.64000 164.946
47.68000 175.226
47.72000 166.298
47.76000 173.163
47.80000 162.168
47.84000 155.223
47.88000 163.589
47.92000 164.493
47.96000 159.706
48.00000 169.411
48.04000 160.619
48.08000 164.071
48.12000 165.892
48.16000 168.155
48.20000 161.302
48.24000 153.968
48.28000 163.863
48.32000 164.010
48.36000 156.636
48.40000 172.125
48.44000 161.377
48.48000 165.891
48.52000 167.640
48.56000 157.279
48.60000 150.928
48.64000 157.429
48.68000 148.815
48.72000 154.774
48.76000 159.636
48.80000 165.291
48.84000 158.568
48.88000 151.547
48.92000 152.529
48.96000 156.268
49.00000 159.628
49.04000 155.177
49.08000 147.688
49.12000 149.451
49.16000 156.736
49.20000 162.747
49.24000 146.767
49.28000 150.332
49.32000 151.831
49.36000 155.914
49.40000 165.022
49.44000 150.711
49.48000 151.965
49.52000 139.124
49.56000 151.929
49.60000 158.715
49.64000 153.735
49.68000 155.230
49.72000 164.748
49.76000 144.102
49.80000 150.265
49.84000 142.692
49.88000 159.578
49.92000 156.095
49.96000 156.836
50.00000 166.401
50.04000 151.167
50.08000 156.191
50.12000 165.437
50.16000 175.483
50.20000 187.884
50.24000 194.663
50.28000 185.640
50.32000 194.337
50.36000 210.764
50.40000 217.514
50.44000 238.998
50.48000 237.451
50.52000 237.152
50.56000 239.270
50.60000 258.624
50.64000 263.949
50.68000 269.880
50.72000 247.065
50.76000 237.817
50.80000 226.210
50.84000 218.333
50.88000 192.275
50.92000 192.853
50.96000 176.317
51.00000 184.326
51.04000 178.130
51.08000 170.702
51.12000 161.213
51.16000 177.454
51.20000 164.891
51.24000 151.717
51.28000 162.390
51.32000 153.749
51.36000 148.236
51.40000 150.799
51.44000 145.067
51.48000 151.578
51.52000 149.781
51.56000 140.094
51.60000 135.936
51.64000 142.316
51.68000 148.265
51.72000 135.459
51.76000 143.116
51.80000 143.680
51.84000 141.725
51.88000 138.426
51.92000 137.398
51.96000 145.321
52.00000 138.428
52.04000 141.817
52.08000 143.358
52.12000 134.175
52.16000 140.442
52.20000 140.038
52.24000 141.500
52.28000 137.198
52.32000 143.304
52.36000 146.152
52.40000 137.915
52.44000 141.059
52.48000 145.882
52.52000 135.036
52.56000 134.461
52.60000 129.621
52.64000 137.481
52.68000 138.365
52.72000 140.713
52.76000 136.984
52.80000 141.824
52.84000 156.172
52.88000 137.207
52.92000 146.925
52.96000 144.868
53.00000 148.783
53.04000 158.277
53.08000 149.292
53.12000 150.062
53.16000 154.215
53.20000 150.796
53.24000 160.695
53.28000 157.717
53.32000 157.084
53.36000 157.180
53.40000 152.244
53.44000 164.219
53.48000 141.638
53.52000 156.519
53.56000 149.485
53.60000 150.965
53.64000 141.648
53.68000 139.755
53.72000 146.204
53.76000 141.592
53.80000 138.058
53.84000 132.583
53.88000 128.547
53.92000 147.009
53.96000 139.023
54.00000 136.927
54.04000 132.842
54.08000 137.266
54.12000 130.155
54.16000 145.715
54.20000 128.572
54.24000 145.840
54.28000 142.818
54.32000 141.610
54.36000 137.490
54.40000 144.540
54.44000 137.898
54.48000 137.508
54.52000 138.452
54.56000 138.178
54.60000 146.990
54.64000 147.066
54.68000 144.335
54.72000 148.570
54.76000 148.697
54.80000 139.170
54.84000 137.032
54.88000 139.961
54.92000 146.186
54.96000 142.444
55.00000 157.521
55.04000 139.569
55.08000 155.832
55.12000 146.524
55.16000 158.427
55.20000 160.229
55.24000 184.447
55.28000 171.710
55.32000 198.398
55.36000 208.003
55.40000 226.054
55.44000 247.609
55.48000 287.829
55.52000 325.150
55.56000 347.021
55.60000 404.902
55.64000 466.883
55.68000 492.698
55.72000 531.064
55.76000 581.734
55.80000 581.159
55.84000 590.288
55.88000 595.905
55.92000 564.253
55.96000 543.511
56.00000 525.427
56.04000 467.448
56.08000 420.715
56.12000 387.575
56.16000 352.362
56.20000 304.838
56.24000 271.496
56.28000 244.083
56.32000 221.554
56.36000 205.152
56.40000 187.659
56.44000 172.496
56.48000 160.976
56.52000 156.065
56.56000 163.739
56.60000 147.596
56.64000 143.273
56.68000 136.752
56.72000 146.049
56.76000 134.125
56.80000 133.235
56.84000 141.412
56.88000 139.283
56.92000 142.397
56.96000 131.360
57.00000 123.201
57.04000 130.094
57.08000 126.640
57.12000 122.239
57.16000 126.045
57.20000 137.066
57.24000 131.479
57.28000 129.356
57.32000 135.061
57.36000 126.376
57.40000 132.027
57.44000 135.285
57.48000 127.029
57.52000 129.745
57.56000 128.438
57.60000 117.095
57.64000 126.135
57.68000 128.011
57.72000 128.009
57.76000 119.247
57.80000 127.936
57.84000 131.912
57.88000 124.814
57.92000 124.737
57.96000 130.531
58.00000 127.853
58.04000 121.908
58.08000 121.078
58.12000 125.848
58.16000 126.040
58.20000 116.182
58.24000 126.654
58.28000 133.501
58.32000 123.697
58.36000 123.539
58.40000 137.055
58.44000 128.917
58.48000 129.526
58.52000 123.143
58.56000 128.671
58.60000 126.818
58.64000 125.794
58.68000 115.254
58.72000 127.185
58.76000 120.350
58.80000 125.483
58.84000 127.423
58.88000 116.133
58.92000 108.418
58.96000 117.762
59.00000 110.953
59.04000 108.962
59.08000 122.686
59.12000 115.047
59.16000 121.628
59.20000 123.502
59.24000 128.149
59.28000 121.543
59.32000 110.666
59.36000 108.817
59.40000 111.921
59.44000 110.875
59.48000 118.936
59.52000 119.117
59.56000 113.229
59.60000 112.554
59.64000 124.786
59.68000 113.200
59.72000 121.729
59.76000 112.673
59.80000 118.820
59.84000 122.058
59.88000 124.855
59.92000 112.585
59.96000 114.975
60.00000 128.258
60.04000 113.894
60.08000 120.143
60.12000 116.701
60.16000 118.683
60.20000 119.137
60.24000 115.018
60.28000 113.093
60.32000 113.434
60.36000 115.055
60.40000 125.366
60.44000 119.440
60.48000 115.272
60.52000 107.148
60.56000 109.819
60.60000 121.563
60.64000 113.968
60.68000 113.840
60.72000 115.639
60.76000 124.004
60.80000 125.506
60.84000 118.372
60.88000 118.279
60.92000 105.125
60.96000 127.589
61.00000 114.060
61.04000 117.426
61.08000 127.588
61.12000 114.361
61.16000 112.859
61.20000 123.078
61.24000 120.484
61.28000 123.521
61.32000 119.940
61.36000 125.093
61.40000 123.587
61.44000 124.043
61.48000 119.986
61.52000 149.060
61.56000 181.911
61.60000 258.307
61.64000 314.957
61.68000 354.700
61.72000 353.904
61.76000 359.497
61.80000 322.632
61.84000 243.176
61.88000 182.598
61.92000 145.890
61.96000 148.282
62.00000 139.424
62.04000 128.288
62.08000 137.590
62.12000 124.745
62.16000 126.129
62.20000 131.987
62.24000 128.943
62.28000 133.737
62.32000 137.653
62.36000 137.492
62.40000 139.511
62.44000 131.032
62.48000 123.632
62.52000 133.321
62.56000 133.046
62.60000 140.089
62.64000 129.939
62.68000 138.010
62.72000 134.528
62.76000 136.425
62.80000 132.879
62.84000 122.393
62.88000 125.956
62.92000 131.042
62.96000 140.112
63.00000 137.636
63.04000 135.074
63.08000 139.806
63.12000 133.610
63.16000 135.948
63.20000 130.743
63.24000 136.353
63.28000 133.227
63.32000 134.328
63.36000 127.839
63.40000 134.880
63.44000 130.558
63.48000 128.703
63.52000 130.586
63.56000 133.371
63.60000 137.838
63.64000 144.085
63.68000 145.010
63.72000 145.700
63.76000 150.027
63.80000 152.750
63.84000 144.969
63.88000 145.738
63.92000 147.450
63.96000 147.375
64.00000 145.963
64.04000 150.552
64.08000 148.856
64.12000 140.757
64.16000 151.417
64.20000 149.125
64.24000 150.250
64.28000 158.068
64.32000 157.315
64.36000 168.999
64.40000 157.956
64.44000 166.337
64.48000 166.562
64.52000 176.353
64.56000 173.958
64.60000 180.476
64.64000 173.652
64.68000 172.162
64.72000 184.434
64.76000 181.007
64.80000 190.388
64.84000 198.172
64.88000 196.688
64.92000 209.283
64.96000 230.071
65.00000 236.851
65.04000 246.508
65.08000 271.996
65.12000 277.399
65.16000 294.308
65.20000 299.199
65.24000 321.995
65.28000 328.297
65.32000 369.173
65.36000 374.854
65.40000 388.943
65.44000 396.442
65.48000 421.978
65.52000 428.249
65.56000 474.871
65.60000 481.194
65.64000 522.484
65.68000 647.989
65.72000 884.419
65.76000 1421.295
65.80000 2001.098
65.84000 2505.870
65.88000 2637.208
65.92000 2693.321
65.96000 2449.344
66.00000 1873.619
66.04000 1234.987
66.08000 768.266
66.12000 558.751
66.16000 477.967
66.20000 446.792
66.24000 431.314
66.28000 493.470
66.32000 574.969
66.36000 672.525
66.40000 767.189
66.44000 771.663
66.48000 765.159
66.52000 736.589
66.56000 601.625
66.60000 517.242
66.64000 426.718
66.68000 392.442
66.72000 400.414
66.76000 412.941
66.80000 408.260
66.84000 410.798
66.88000 390.100
66.92000 400.287
66.96000 413.893
67.00000 413.020
67.04000 420.715
67.08000 408.021
67.12000 431.023
67.16000 426.258
67.20000 441.049
67.24000 440.192
67.28000 456.679
67.32000 449.003
67.36000 458.087
67.40000 449.855
67.44000 459.637
67.48000 471.573
67.52000 451.105
67.56000 484.207
67.60000 487.251
67.64000 479.210
67.68000 500.812
67.72000 513.444
67.76000 512.024
67.80000 532.433
67.84000 522.505
67.88000 521.580
67.92000 533.980
67.96000 531.848
68.00000 535.629
68.04000 545.843
68.08000 573.299
68.12000 592.076
68.16000 593.114
68.20000 605.448
68.24000 604.910
68.28000 633.161
68.32000 636.345
68.36000 667.953
68.40000 702.691
68.44000 712.996
68.48000 716.692
68.52000 770.860
68.56000 819.988
68.60000 911.795
68.64000 1054.942
68.68000 1236.773
68.72000 1464.252
68.76000 1701.999
68.80000 1955.868
68.84000 2263.969
68.88000 2825.652
68.92000 3945.428
68.96000 7339.679
69.00000 17554.531
69.04000 34644.105
69.08000 49810.805
69.12000 57380.793
69.16000 61447.402
69.20000 64285.645
69.24000 59947.500
69.28000 47434.895
69.32000 36104.988
69.36000 30361.271
69.40000 27544.029
69.44000 21204.104
69.48000 12205.096
69.52000 5684.724
69.56000 2586.311
69.60000 1623.419
69.64000 1248.678
69.68000 1023.348
69.72000 909.173
69.76000 823.209
69.80000 746.454
69.84000 689.911
69.88000 638.918
69.92000 615.470
69.96000 577.963
70.00000 547.335