File: XRD/XRD/08-10-2025 Dep 7/XY Data/BTO_Mapping_Theta2Theta_08-10-2025_001_25_-20-000_34-641.xy
20.00000 477.933
20.04000 467.154
20.08000 483.441
20.12000 467.349
20.16000 489.142
20.20000 477.510
20.24000 465.952
20.28000 467.355
20.32000 490.844
20.36000 454.590
20.40000 459.297
20.44000 473.704
20.48000 460.701
20.52000 472.813
20.56000 471.017
20.60000 472.488
20.64000 471.920
20.68000 481.079
20.72000 455.451
20.76000 450.101
20.80000 475.995
20.84000 473.817
20.88000 454.075
20.92000 454.569
20.96000 466.154
21.00000 457.486
21.04000 460.910
21.08000 472.335
21.12000 450.428
21.16000 448.150
21.20000 462.639
21.24000 465.505
21.28000 465.545
21.32000 459.081
21.36000 472.765
21.40000 472.463
21.44000 462.020
21.48000 474.492
21.52000 461.583
21.56000 454.343
21.60000 476.519
21.64000 460.579
21.68000 471.107
21.72000 463.580
21.76000 474.221
21.80000 475.175
21.84000 475.687
21.88000 485.555
21.92000 491.974
21.96000 529.663
22.00000 562.481
22.04000 544.628
22.08000 566.862
22.12000 583.022
22.16000 570.911
22.20000 541.369
22.24000 544.917
22.28000 516.930
22.32000 515.836
22.36000 517.787
22.40000 489.011
22.44000 472.284
22.48000 485.889
22.52000 468.538
22.56000 446.747
22.60000 450.684
22.64000 452.148
22.68000 434.388
22.72000 451.530
22.76000 446.409
22.80000 449.046
22.84000 433.485
22.88000 449.874
22.92000 454.472
22.96000 449.644
23.00000 451.215
23.04000 449.879
23.08000 430.583
23.12000 457.423
23.16000 438.763
23.20000 419.657
23.24000 417.471
23.28000 435.060
23.32000 425.947
23.36000 455.215
23.40000 423.322
23.44000 428.951
23.48000 425.409
23.52000 420.734
23.56000 421.648
23.60000 423.443
23.64000 423.494
23.68000 429.011
23.72000 426.580
23.76000 444.230
23.80000 464.980
23.84000 447.272
23.88000 479.111
23.92000 477.760
23.96000 478.624
24.00000 484.215
24.04000 487.990
24.08000 492.410
24.12000 481.313
24.16000 479.378
24.20000 453.060
24.24000 442.914
24.28000 447.350
24.32000 445.943
24.36000 413.197
24.40000 419.341
24.44000 417.975
24.48000 395.347
24.52000 414.553
24.56000 426.015
24.60000 403.972
24.64000 389.736
24.68000 422.527
24.72000 413.980
24.76000 410.485
24.80000 394.563
24.84000 400.841
24.88000 408.338
24.92000 422.322
24.96000 400.842
25.00000 402.982
25.04000 409.044
25.08000 411.375
25.12000 389.316
25.16000 397.080
25.20000 406.908
25.24000 401.327
25.28000 394.294
25.32000 385.029
25.36000 390.092
25.40000 404.684
25.44000 410.154
25.48000 403.395
25.52000 386.240
25.56000 395.869
25.60000 380.573
25.64000 392.883
25.68000 394.972
25.72000 383.988
25.76000 386.565
25.80000 394.499
25.84000 386.303
25.88000 393.096
25.92000 389.185
25.96000 387.938
26.00000 377.695
26.04000 393.278
26.08000 394.270
26.12000 390.927
26.16000 376.847
26.20000 381.238
26.24000 360.602
26.28000 395.874
26.32000 381.644
26.36000 372.641
26.40000 380.491
26.44000 392.567
26.48000 387.330
26.52000 381.747
26.56000 384.806
26.60000 377.675
26.64000 375.958
26.68000 400.699
26.72000 379.109
26.76000 370.103
26.80000 373.017
26.84000 392.811
26.88000 366.792
26.92000 379.250
26.96000 365.588
27.00000 384.425
27.04000 373.339
27.08000 378.877
27.12000 380.962
27.16000 372.539
27.20000 362.977
27.24000 373.011
27.28000 340.503
27.32000 370.287
27.36000 360.941
27.40000 381.342
27.44000 376.326
27.48000 372.371
27.52000 372.701
27.56000 379.999
27.60000 403.750
27.64000 363.681
27.68000 375.274
27.72000 367.100
27.76000 366.966
27.80000 372.588
27.84000 365.122
27.88000 366.138
27.92000 390.800
27.96000 383.374
28.00000 360.232
28.04000 358.464
28.08000 380.981
28.12000 370.883
28.16000 354.919
28.20000 358.936
28.24000 358.774
28.28000 365.222
28.32000 333.035
28.36000 356.940
28.40000 363.733
28.44000 356.372
28.48000 365.646
28.52000 350.976
28.56000 353.537
28.60000 346.698
28.64000 345.501
28.68000 361.764
28.72000 361.575
28.76000 362.200
28.80000 349.956
28.84000 359.922
28.88000 359.606
28.92000 348.600
28.96000 347.543
29.00000 359.798
29.04000 360.358
29.08000 345.580
29.12000 364.575
29.16000 340.033
29.20000 350.456
29.24000 356.299
29.28000 347.810
29.32000 340.646
29.36000 347.506
29.40000 351.781
29.44000 347.878
29.48000 360.867
29.52000 354.999
29.56000 342.548
29.60000 358.146
29.64000 349.871
29.68000 347.016
29.72000 355.277
29.76000 361.422
29.80000 348.203
29.84000 357.264
29.88000 353.992
29.92000 369.232
29.96000 368.843
30.00000 378.900
30.04000 368.385
30.08000 365.405
30.12000 370.124
30.16000 371.503
30.20000 371.915
30.24000 356.749
30.28000 372.127
30.32000 370.324
30.36000 370.577
30.40000 361.317
30.44000 354.310
30.48000 344.758
30.52000 348.502
30.56000 349.414
30.60000 357.285
30.64000 335.489
30.68000 348.270
30.72000 344.205
30.76000 369.404
30.80000 366.743
30.84000 363.445
30.88000 357.508
30.92000 385.025
30.96000 383.580
31.00000 406.444
31.04000 426.122
31.08000 443.300
31.12000 498.459
31.16000 560.332
31.20000 646.430
31.24000 734.496
31.28000 871.558
31.32000 1019.731
31.36000 1049.341
31.40000 1096.037
31.44000 1116.081
31.48000 1062.251
31.52000 992.119
31.56000 883.563
31.60000 749.521
31.64000 654.186
31.68000 559.614
31.72000 488.816
31.76000 465.928
31.80000 427.984
31.84000 383.854
31.88000 369.339
31.92000 365.225
31.96000 340.022
32.00000 351.903
32.04000 334.682
32.08000 343.233
32.12000 337.506
32.16000 330.761
32.20000 347.555
32.24000 315.913
32.28000 315.888
32.32000 329.000
32.36000 314.948
32.40000 344.064
32.44000 342.627
32.48000 316.234
32.52000 316.808
32.56000 308.128
32.60000 321.880
32.64000 317.749
32.68000 299.639
32.72000 301.333
32.76000 321.271
32.80000 324.934
32.84000 305.598
32.88000 325.985
32.92000 305.293
32.96000 306.996
33.00000 292.334
33.04000 319.378
33.08000 313.382
33.12000 307.513
33.16000 304.815
33.20000 304.937
33.24000 297.883
33.28000 297.848
33.32000 299.662
33.36000 293.862
33.40000 299.929
33.44000 297.757
33.48000 294.705
33.52000 285.942
33.56000 301.185
33.60000 267.053
33.64000 289.754
33.68000 292.291
33.72000 300.740
33.76000 298.602
33.80000 282.535
33.84000 292.172
33.88000 298.289
33.92000 291.268
33.96000 310.157
34.00000 302.772
34.04000 313.365
34.08000 314.273
34.12000 300.233
34.16000 313.176
34.20000 314.261
34.24000 314.246
34.28000 321.345
34.32000 344.164
34.36000 322.105
34.40000 332.643
34.44000 351.766
34.48000 327.301
34.52000 333.084
34.56000 341.122
34.60000 322.171
34.64000 324.269
34.68000 320.047
34.72000 296.981
34.76000 276.645
34.80000 295.500
34.84000 308.313
34.88000 282.078
34.92000 284.677
34.96000 269.758
35.00000 279.421
35.04000 268.283
35.08000 282.195
35.12000 281.558
35.16000 271.423
35.20000 280.322
35.24000 262.140
35.28000 268.802
35.32000 267.321
35.36000 270.147
35.40000 266.160
35.44000 265.442
35.48000 267.771
35.52000 265.234
35.56000 255.707
35.60000 250.339
35.64000 260.160
35.68000 275.393
35.72000 270.646
35.76000 262.587
35.80000 262.738
35.84000 269.155
35.88000 268.883
35.92000 264.614
35.96000 250.973
36.00000 267.283
36.04000 269.443
36.08000 259.236
36.12000 255.102
36.16000 251.076
36.20000 243.104
36.24000 253.198
36.28000 271.458
36.32000 266.352
36.36000 266.217
36.40000 266.516
36.44000 251.696
36.48000 262.765
36.52000 265.991
36.56000 251.316
36.60000 253.076
36.64000 261.177
36.68000 258.649
36.72000 264.685
36.76000 260.610
36.80000 266.505
36.84000 258.628
36.88000 255.218
36.92000 277.351
36.96000 283.189
37.00000 289.491
37.04000 290.295
37.08000 285.049
37.12000 284.833
37.16000 283.589
37.20000 261.527
37.24000 267.468
37.28000 273.651
37.32000 261.161
37.36000 256.996
37.40000 259.255
37.44000 240.037
37.48000 249.941
37.52000 258.184
37.56000 253.999
37.60000 246.931
37.64000 249.980
37.68000 248.314
37.72000 254.192
37.76000 256.092
37.80000 264.266
37.84000 256.672
37.88000 250.973
37.92000 247.677
37.96000 241.977
38.00000 250.461
38.04000 267.849
38.08000 272.398
38.12000 249.747
38.16000 253.594
38.20000 257.768
38.24000 258.048
38.28000 274.118
38.32000 272.325
38.36000 288.284
38.40000 308.807
38.44000 373.144
38.48000 453.897
38.52000 527.174
38.56000 630.869
38.60000 771.393
38.64000 870.321
38.68000 979.187
38.72000 1072.421
38.76000 1108.542
38.80000 1034.541
38.84000 970.075
38.88000 848.935
38.92000 681.633
38.96000 581.146
39.00000 465.812
39.04000 381.928
39.08000 321.145
39.12000 277.209
39.16000 256.172
39.20000 250.466
39.24000 252.615
39.28000 248.461
39.32000 238.961
39.36000 241.741
39.40000 231.507
39.44000 229.070
39.48000 242.359
39.52000 246.122
39.56000 221.316
39.60000 230.439
39.64000 230.538
39.68000 229.696
39.72000 225.428
39.76000 217.161
39.80000 233.456
39.84000 232.610
39.88000 221.048
39.92000 221.571
39.96000 217.100
40.00000 228.400
40.04000 232.197
40.08000 224.209
40.12000 226.817
40.16000 224.157
40.20000 225.581
40.24000 227.140
40.28000 225.670
40.32000 222.947
40.36000 220.659
40.40000 222.225
40.44000 227.653
40.48000 210.565
40.52000 224.351
40.56000 221.365
40.60000 220.068
40.64000 222.154
40.68000 216.385
40.72000 215.836
40.76000 215.048
40.80000 225.200
40.84000 227.629
40.88000 214.058
40.92000 214.757
40.96000 217.080
41.00000 205.057
41.04000 214.722
41.08000 209.348
41.12000 208.000
41.16000 213.670
41.20000 212.881
41.24000 205.700
41.28000 210.474
41.32000 208.711
41.36000 212.985
41.40000 201.195
41.44000 207.540
41.48000 205.601
41.52000 203.103
41.56000 206.048
41.60000 196.859
41.64000 213.357
41.68000 205.591
41.72000 214.627
41.76000 217.933
41.80000 224.983
41.84000 224.165
41.88000 205.921
41.92000 209.059
41.96000 219.849
42.00000 208.805
42.04000 225.194
42.08000 202.050
42.12000 218.494
42.16000 212.831
42.20000 208.930
42.24000 229.259
42.28000 223.277
42.32000 217.459
42.36000 202.232
42.40000 219.602
42.44000 217.802
42.48000 213.394
42.52000 211.914
42.56000 207.944
42.60000 212.040
42.64000 219.928
42.68000 203.743
42.72000 204.784
42.76000 198.218
42.80000 203.139
42.84000 202.806
42.88000 203.139
42.92000 205.710
42.96000 196.658
43.00000 207.607
43.04000 198.555
43.08000 194.931
43.12000 197.241
43.16000 200.559
43.20000 201.426
43.24000 204.973
43.28000 192.636
43.32000 186.678
43.36000 195.732
43.40000 188.976
43.44000 202.574
43.48000 195.077
43.52000 201.145
43.56000 190.612
43.60000 193.864
43.64000 194.273
43.68000 199.828
43.72000 183.078
43.76000 197.172
43.80000 201.560
43.84000 193.180
43.88000 188.123
43.92000 200.040
43.96000 199.512
44.00000 181.801
44.04000 196.611
44.08000 199.270
44.12000 204.046
44.16000 188.773
44.20000 190.501
44.24000 191.071
44.28000 202.562
44.32000 189.658
44.36000 191.596
44.40000 191.584
44.44000 206.179
44.48000 196.670
44.52000 212.598
44.56000 195.800
44.60000 201.107
44.64000 204.341
44.68000 213.947
44.72000 223.005
44.76000 220.469
44.80000 229.832
44.84000 237.626
44.88000 252.155
44.92000 255.712
44.96000 266.919
45.00000 277.401
45.04000 280.694
45.08000 277.757
45.12000 297.401
45.16000 284.559
45.20000 284.283
45.24000 256.048
45.28000 261.984
45.32000 248.101
45.36000 246.299
45.40000 230.641
45.44000 217.824
45.48000 218.109
45.52000 211.793
45.56000 201.109
45.60000 206.759
45.64000 212.971
45.68000 201.208
45.72000 191.093
45.76000 199.055
45.80000 193.548
45.84000 186.646
45.88000 196.931
45.92000 195.268
45.96000 188.524
46.00000 180.193
46.04000 186.409
46.08000 183.594
46.12000 169.394
46.16000 172.761
46.20000 181.685
46.24000 193.231
46.28000 193.176
46.32000 169.338
46.36000 171.474
46.40000 165.911
46.44000 178.741
46.48000 173.156
46.52000 175.460
46.56000 182.497
46.60000 186.233
46.64000 174.976
46.68000 168.527
46.72000 162.066
46.76000 164.577
46.80000 179.120
46.84000 190.455
46.88000 171.048
46.92000 179.551
46.96000 180.720
47.00000 181.009
47.04000 158.634
47.08000 179.240
47.12000 183.393
47.16000 169.234
47.20000 159.588
47.24000 172.484
47.28000 160.757
47.32000 161.219
47.36000 170.605
47.40000 163.127
47.44000 162.552
47.48000 154.572
47.52000 154.575
47.56000 159.423
47.60000 150.620
47.64000 165.939
47.68000 161.559
47.72000 157.506
47.76000 150.005
47.80000 159.240
47.84000 170.047
47.88000 153.828
47.92000 163.064
47.96000 166.468
48.00000 156.036
48.04000 161.315
48.08000 173.188
48.12000 155.053
48.16000 155.125
48.20000 163.026
48.24000 157.898
48.28000 153.923
48.32000 155.135
48.36000 148.896
48.40000 161.931
48.44000 160.622
48.48000 152.283
48.52000 157.402
48.56000 161.300
48.60000 153.873
48.64000 153.246
48.68000 163.152
48.72000 156.454
48.76000 151.654
48.80000 154.149
48.84000 154.099
48.88000 174.097
48.92000 157.519
48.96000 159.682
49.00000 169.126
49.04000 160.418
49.08000 160.522
49.12000 162.728
49.16000 163.679
49.20000 140.815
49.24000 147.655
49.28000 144.113
49.32000 148.904
49.36000 151.550
49.40000 153.048
49.44000 143.151
49.48000 140.871
49.52000 145.703
49.56000 149.825
49.60000 159.147
49.64000 151.556
49.68000 150.378
49.72000 159.875
49.76000 158.270
49.80000 152.677
49.84000 150.143
49.88000 157.943
49.92000 153.868
49.96000 158.646
50.00000 147.756
50.04000 155.693
50.08000 146.997
50.12000 152.109
50.16000 155.635
50.20000 159.532
50.24000 155.045
50.28000 157.987
50.32000 153.563
50.36000 155.766
50.40000 161.206
50.44000 156.326
50.48000 153.356
50.52000 148.199
50.56000 156.666
50.60000 164.672
50.64000 168.133
50.68000 164.172
50.72000 169.050
50.76000 180.590
50.80000 165.508
50.84000 159.475
50.88000 163.304
50.92000 169.028
50.96000 157.222
51.00000 162.283
51.04000 156.427
51.08000 138.793
51.12000 143.091
51.16000 147.494
51.20000 148.670
51.24000 144.029
51.28000 153.511
51.32000 146.387
51.36000 151.265
51.40000 146.168
51.44000 148.165
51.48000 146.653
51.52000 143.822
51.56000 145.393
51.60000 155.866
51.64000 144.991
51.68000 132.048
51.72000 137.804
51.76000 140.743
51.80000 135.408
51.84000 156.074
51.88000 145.463
51.92000 146.914
51.96000 145.810
52.00000 140.950
52.04000 143.006
52.08000 134.749
52.12000 137.993
52.16000 150.940
52.20000 150.417
52.24000 143.424
52.28000 135.366
52.32000 142.358
52.36000 135.515
52.40000 130.319
52.44000 133.607
52.48000 139.027
52.52000 141.849
52.56000 137.501
52.60000 136.143
52.64000 142.763
52.68000 131.376
52.72000 140.941
52.76000 132.127
52.80000 136.225
52.84000 138.524
52.88000 143.096
52.92000 148.500
52.96000 132.192
53.00000 138.215
53.04000 139.514
53.08000 146.127
53.12000 148.727
53.16000 141.267
53.20000 146.282
53.24000 141.192
53.28000 154.253
53.32000 155.378
53.36000 165.620
53.40000 160.450
53.44000 172.257
53.48000 153.744
53.52000 144.394
53.56000 156.553
53.60000 155.788
53.64000 146.608
53.68000 138.654
53.72000 153.941
53.76000 141.860
53.80000 150.613
53.84000 145.175
53.88000 146.368
53.92000 143.617
53.96000 151.840
54.00000 148.824
54.04000 132.735
54.08000 139.142
54.12000 129.827
54.16000 139.603
54.20000 144.040
54.24000 133.778
54.28000 146.277
54.32000 143.203
54.36000 136.659
54.40000 138.840
54.44000 148.398
54.48000 140.057
54.52000 147.172
54.56000 139.419
54.60000 138.389
54.64000 138.595
54.68000 142.118
54.72000 140.715
54.76000 141.820
54.80000 139.705
54.84000 131.210
54.88000 145.632
54.92000 139.099
54.96000 147.034
55.00000 142.616
55.04000 149.496
55.08000 149.096
55.12000 151.995
55.16000 151.790
55.20000 160.330
55.24000 147.427
55.28000 148.300
55.32000 161.709
55.36000 167.446
55.40000 165.759
55.44000 175.377
55.48000 187.401
55.52000 185.248
55.56000 211.083
55.60000 240.952
55.64000 263.953
55.68000 316.009
55.72000 383.324
55.76000 422.126
55.80000 472.617
55.84000 557.090
55.88000 627.548
55.92000 641.847
55.96000 675.133
56.00000 687.737
56.04000 653.714
56.08000 621.541
56.12000 560.090
56.16000 498.354
56.20000 435.046
56.24000 387.153
56.28000 308.054
56.32000 264.987
56.36000 215.422
56.40000 214.018
56.44000 190.045
56.48000 186.162
56.52000 173.932
56.56000 156.400
56.60000 136.576
56.64000 141.558
56.68000 160.126
56.72000 139.982
56.76000 130.851
56.80000 134.055
56.84000 133.715
56.88000 134.870
56.92000 134.879
56.96000 128.872
57.00000 129.265
57.04000 128.413
57.08000 124.012
57.12000 130.194
57.16000 136.106
57.20000 120.028
57.24000 129.693
57.28000 124.226
57.32000 134.768
57.36000 129.867
57.40000 133.617
57.44000 123.554
57.48000 123.991
57.52000 128.993
57.56000 135.359
57.60000 123.886
57.64000 120.830
57.68000 118.932
57.72000 137.191
57.76000 127.461
57.80000 136.007
57.84000 118.069
57.88000 124.975
57.92000 118.023
57.96000 129.380
58.00000 127.150
58.04000 118.350
58.08000 123.492
58.12000 117.778
58.16000 111.666
58.20000 115.251
58.24000 136.564
58.28000 118.732
58.32000 115.739
58.36000 107.517
58.40000 122.349
58.44000 132.435
58.48000 123.878
58.52000 125.584
58.56000 123.729
58.60000 117.964
58.64000 115.640
58.68000 128.975
58.72000 118.089
58.76000 123.351
58.80000 123.459
58.84000 121.411
58.88000 132.178
58.92000 125.561
58.96000 113.011
59.00000 116.101
59.04000 115.377
59.08000 118.759
59.12000 111.749
59.16000 122.198
59.20000 119.686
59.24000 117.499
59.28000 113.751
59.32000 116.421
59.36000 117.044
59.40000 123.880
59.44000 115.268
59.48000 114.738
59.52000 112.027
59.56000 119.798
59.60000 120.165
59.64000 121.350
59.68000 124.647
59.72000 112.318
59.76000 112.668
59.80000 125.633
59.84000 119.178
59.88000 119.840
59.92000 115.864
59.96000 112.793
60.00000 120.848
60.04000 121.350
60.08000 117.560
60.12000 107.942
60.16000 118.924
60.20000 124.994
60.24000 122.291
60.28000 108.911
60.32000 109.222
60.36000 117.129
60.40000 116.649
60.44000 112.163
60.48000 122.615
60.52000 124.907
60.56000 116.178
60.60000 115.965
60.64000 106.087
60.68000 114.887
60.72000 127.590
60.76000 113.718
60.80000 119.648
60.84000 118.607
60.88000 119.863
60.92000 115.231
60.96000 117.634
61.00000 123.076
61.04000 131.180
61.08000 121.698
61.12000 123.182
61.16000 126.727
61.20000 127.403
61.24000 120.524
61.28000 121.985
61.32000 117.473
61.36000 117.306
61.40000 125.310
61.44000 124.148
61.48000 126.917
61.52000 139.938
61.56000 160.686
61.60000 206.848
61.64000 254.211
61.68000 284.248
61.72000 291.640
61.76000 285.059
61.80000 256.109
61.84000 192.703
61.88000 156.245
61.92000 142.182
61.96000 130.756
62.00000 126.560
62.04000 138.760
62.08000 122.361
62.12000 132.054
62.16000 121.187
62.20000 120.609
62.24000 130.650
62.28000 116.805
62.32000 125.264
62.36000 131.424
62.40000 129.520
62.44000 125.644
62.48000 121.267
62.52000 123.064
62.56000 135.951
62.60000 133.031
62.64000 138.782
62.68000 122.939
62.72000 126.175
62.76000 128.478
62.80000 118.633
62.84000 125.640
62.88000 129.470
62.92000 123.995
62.96000 129.861
63.00000 127.751
63.04000 116.303
63.08000 133.382
63.12000 122.258
63.16000 137.575
63.20000 133.229
63.24000 133.223
63.28000 130.546
63.32000 143.085
63.36000 126.277
63.40000 133.238
63.44000 136.398
63.48000 131.256
63.52000 132.326
63.56000 135.857
63.60000 137.288
63.64000 132.112
63.68000 130.135
63.72000 134.715
63.76000 138.520
63.80000 130.364
63.84000 135.462
63.88000 134.850
63.92000 142.205
63.96000 136.732
64.00000 145.082
64.04000 136.882
64.08000 150.768
64.12000 144.548
64.16000 153.584
64.20000 148.961
64.24000 139.358
64.28000 162.989
64.32000 149.429
64.36000 150.213
64.40000 146.979
64.44000 146.660
64.48000 159.784
64.52000 154.778
64.56000 162.604
64.60000 179.783
64.64000 169.725
64.68000 165.805
64.72000 172.377
64.76000 163.465
64.80000 163.094
64.84000 166.022
64.88000 162.053
64.92000 190.614
64.96000 192.266
65.00000 179.814
65.04000 181.995
65.08000 179.645
65.12000 206.824
65.16000 201.962
65.20000 199.365
65.24000 218.603
65.28000 214.642
65.32000 226.878
65.36000 234.262
65.40000 251.440
65.44000 256.424
65.48000 275.149
65.52000 287.501
65.56000 299.415
65.60000 331.966
65.64000 360.764
65.68000 472.898
65.72000 673.117
65.76000 1076.101
65.80000 1533.346
65.84000 1877.484
65.88000 1952.612
65.92000 1952.302
65.96000 1732.765
66.00000 1323.371
66.04000 819.529
66.08000 540.824
66.12000 409.545
66.16000 378.430
66.20000 359.838
66.24000 369.398
66.28000 407.589
66.32000 494.419
66.36000 573.304
66.40000 614.331
66.44000 621.934
66.48000 619.616
66.52000 569.334
66.56000 468.053
66.60000 407.350
66.64000 360.120
66.68000 341.373
66.72000 349.796
66.76000 335.240
66.80000 358.583
66.84000 335.981
66.88000 345.397
66.92000 351.562
66.96000 356.291
67.00000 354.514
67.04000 368.498
67.08000 366.162
67.12000 377.048
67.16000 389.613
67.20000 371.969
67.24000 381.605
67.28000 360.314
67.32000 388.511
67.36000 378.430
67.40000 408.903
67.44000 397.734
67.48000 399.852
67.52000 419.494
67.56000 426.597
67.60000 435.812
67.64000 449.441
67.68000 446.065
67.72000 432.552
67.76000 439.319
67.80000 472.776
67.84000 458.902
67.88000 461.404
67.92000 465.574
67.96000 481.123
68.00000 480.698
68.04000 498.345
68.08000 495.472
68.12000 512.495
68.16000 517.108
68.20000 539.605
68.24000 556.495
68.28000 575.261
68.32000 570.441
68.36000 578.176
68.40000 602.171
68.44000 616.623
68.48000 662.851
68.52000 665.649
68.56000 714.487
68.60000 793.297
68.64000 887.459
68.68000 1012.809
68.72000 1176.241
68.76000 1396.826
68.80000 1537.023
68.84000 1750.691
68.88000 2017.177
68.92000 2706.225
68.96000 5242.424
69.00000 13789.531
69.04000 27014.377
69.08000 37589.863
69.12000 41936.770
69.16000 44758.758
69.20000 46949.621
69.24000 42571.063
69.28000 31846.301
69.32000 24462.014
69.36000 21586.182
69.40000 19756.314
69.44000 14512.750
69.48000 7571.831
69.52000 3355.797
69.56000 1665.206
69.60000 1206.544
69.64000 987.763
69.68000 874.987
69.72000 793.881
69.76000 721.995
69.80000 640.096
69.84000 611.547
69.88000 560.897
69.92000 545.293
69.96000 527.045
70.00000 507.593