File: XRD/XRD/08-10-2025 Dep 7/XY Data/BTO_Mapping_Theta2Theta_08-10-2025_001_41_-32-361_-23-511.xy
20.00000 464.588
20.04000 458.660
20.08000 492.438
20.12000 482.578
20.16000 470.835
20.20000 455.922
20.24000 471.366
20.28000 480.790
20.32000 470.760
20.36000 466.787
20.40000 456.788
20.44000 471.116
20.48000 479.410
20.52000 453.297
20.56000 468.839
20.60000 481.404
20.64000 463.618
20.68000 478.497
20.72000 489.462
20.76000 457.326
20.80000 474.071
20.84000 461.770
20.88000 476.490
20.92000 473.508
20.96000 473.830
21.00000 475.210
21.04000 507.704
21.08000 479.210
21.12000 469.416
21.16000 491.907
21.20000 464.982
21.24000 463.820
21.28000 459.757
21.32000 469.229
21.36000 461.890
21.40000 491.265
21.44000 484.670
21.48000 487.764
21.52000 480.337
21.56000 484.373
21.60000 503.520
21.64000 516.907
21.68000 519.465
21.72000 559.949
21.76000 574.424
21.80000 661.250
21.84000 717.372
21.88000 759.486
21.92000 803.264
21.96000 811.694
22.00000 827.521
22.04000 829.232
22.08000 762.334
22.12000 726.712
22.16000 664.911
22.20000 610.824
22.24000 565.280
22.28000 557.775
22.32000 527.884
22.36000 494.530
22.40000 498.511
22.44000 462.521
22.48000 467.906
22.52000 447.288
22.56000 455.268
22.60000 442.228
22.64000 453.750
22.68000 436.847
22.72000 446.902
22.76000 437.503
22.80000 435.011
22.84000 424.019
22.88000 442.125
22.92000 442.619
22.96000 432.241
23.00000 448.031
23.04000 443.448
23.08000 438.765
23.12000 447.807
23.16000 445.424
23.20000 436.441
23.24000 424.578
23.28000 441.288
23.32000 449.780
23.36000 419.069
23.40000 407.761
23.44000 433.714
23.48000 417.975
23.52000 434.039
23.56000 417.355
23.60000 429.426
23.64000 432.186
23.68000 416.427
23.72000 405.309
23.76000 449.934
23.80000 419.565
23.84000 412.622
23.88000 420.243
23.92000 417.867
23.96000 428.165
24.00000 405.776
24.04000 424.869
24.08000 417.439
24.12000 406.807
24.16000 423.059
24.20000 410.117
24.24000 414.872
24.28000 415.645
24.32000 411.597
24.36000 388.920
24.40000 412.035
24.44000 412.146
24.48000 442.918
24.52000 410.758
24.56000 427.738
24.60000 396.829
24.64000 403.284
24.68000 400.273
24.72000 409.653
24.76000 414.294
24.80000 414.515
24.84000 401.884
24.88000 398.811
24.92000 421.739
24.96000 401.747
25.00000 405.364
25.04000 394.001
25.08000 403.991
25.12000 392.306
25.16000 414.260
25.20000 395.890
25.24000 396.170
25.28000 389.706
25.32000 396.170
25.36000 397.555
25.40000 403.747
25.44000 393.497
25.48000 395.697
25.52000 389.795
25.56000 390.995
25.60000 389.968
25.64000 399.542
25.68000 390.259
25.72000 392.604
25.76000 389.924
25.80000 394.084
25.84000 375.693
25.88000 396.663
25.92000 381.497
25.96000 375.731
26.00000 384.733
26.04000 397.086
26.08000 393.801
26.12000 405.326
26.16000 375.622
26.20000 387.993
26.24000 383.854
26.28000 374.034
26.32000 384.100
26.36000 402.908
26.40000 385.785
26.44000 387.901
26.48000 389.351
26.52000 389.853
26.56000 368.637
26.60000 383.559
26.64000 381.747
26.68000 375.832
26.72000 380.129
26.76000 394.404
26.80000 372.545
26.84000 382.439
26.88000 383.304
26.92000 386.867
26.96000 380.422
27.00000 398.745
27.04000 365.729
27.08000 402.854
27.12000 371.758
27.16000 370.163
27.20000 379.199
27.24000 380.430
27.28000 382.800
27.32000 382.623
27.36000 373.663
27.40000 362.130
27.44000 371.720
27.48000 390.745
27.52000 374.076
27.56000 373.820
27.60000 356.799
27.64000 362.537
27.68000 376.396
27.72000 364.829
27.76000 378.885
27.80000 378.209
27.84000 374.030
27.88000 376.116
27.92000 346.614
27.96000 359.948
28.00000 391.659
28.04000 373.104
28.08000 390.472
28.12000 380.751
28.16000 378.700
28.20000 370.416
28.24000 359.751
28.28000 373.207
28.32000 361.065
28.36000 354.048
28.40000 384.130
28.44000 356.376
28.48000 375.694
28.52000 367.538
28.56000 358.897
28.60000 368.077
28.64000 360.491
28.68000 363.154
28.72000 382.159
28.76000 376.753
28.80000 360.366
28.84000 378.905
28.88000 374.048
28.92000 371.161
28.96000 355.722
29.00000 346.038
29.04000 349.057
29.08000 353.300
29.12000 359.435
29.16000 354.261
29.20000 362.196
29.24000 333.797
29.28000 363.794
29.32000 347.567
29.36000 362.712
29.40000 362.679
29.44000 360.697
29.48000 364.734
29.52000 366.114
29.56000 365.086
29.60000 361.101
29.64000 386.162
29.68000 389.278
29.72000 387.784
29.76000 426.948
29.80000 428.369
29.84000 458.227
29.88000 478.952
29.92000 500.138
29.96000 503.137
30.00000 518.330
30.04000 489.664
30.08000 492.187
30.12000 467.626
30.16000 440.858
30.20000 438.701
30.24000 419.238
30.28000 401.699
30.32000 391.446
30.36000 389.887
30.40000 410.001
30.44000 412.469
30.48000 410.472
30.52000 400.841
30.56000 398.267
30.60000 397.114
30.64000 415.394
30.68000 420.232
30.72000 435.159
30.76000 444.452
30.80000 456.734
30.84000 489.777
30.88000 525.327
30.92000 581.678
30.96000 716.109
31.00000 870.843
31.04000 1117.668
31.08000 1459.366
31.12000 1867.388
31.16000 2425.071
31.20000 2943.718
31.24000 3383.839
31.28000 3688.757
31.32000 3880.843
31.36000 3650.423
31.40000 3355.269
31.44000 2894.584
31.48000 2417.657
31.52000 1918.334
31.56000 1483.802
31.60000 1165.849
31.64000 925.178
31.68000 741.976
31.72000 617.891
31.76000 558.992
31.80000 473.414
31.84000 411.209
31.88000 386.440
31.92000 369.991
31.96000 363.448
32.00000 363.474
32.04000 379.824
32.08000 331.733
32.12000 340.213
32.16000 341.558
32.20000 328.800
32.24000 344.107
32.28000 347.266
32.32000 324.809
32.36000 342.041
32.40000 335.986
32.44000 341.457
32.48000 334.998
32.52000 334.255
32.56000 336.747
32.60000 333.915
32.64000 329.262
32.68000 316.356
32.72000 317.501
32.76000 311.007
32.80000 319.840
32.84000 320.340
32.88000 333.165
32.92000 334.678
32.96000 323.187
33.00000 322.453
33.04000 320.052
33.08000 316.067
33.12000 314.731
33.16000 312.830
33.20000 311.542
33.24000 296.736
33.28000 320.085
33.32000 284.312
33.36000 299.426
33.40000 292.293
33.44000 303.127
33.48000 296.016
33.52000 283.944
33.56000 289.047
33.60000 286.693
33.64000 296.329
33.68000 283.759
33.72000 285.664
33.76000 295.582
33.80000 286.072
33.84000 288.909
33.88000 288.781
33.92000 295.265
33.96000 287.989
34.00000 289.663
34.04000 307.802
34.08000 288.259
34.12000 291.869
34.16000 292.404
34.20000 278.133
34.24000 284.849
34.28000 283.920
34.32000 283.381
34.36000 277.062
34.40000 280.065
34.44000 287.582
34.48000 277.408
34.52000 286.507
34.56000 278.380
34.60000 273.638
34.64000 277.141
34.68000 282.481
34.72000 274.130
34.76000 286.956
34.80000 266.957
34.84000 279.751
34.88000 277.494
34.92000 278.709
34.96000 274.203
35.00000 265.230
35.04000 268.363
35.08000 283.062
35.12000 267.830
35.16000 259.447
35.20000 273.620
35.24000 280.341
35.28000 267.357
35.32000 259.933
35.36000 263.692
35.40000 254.842
35.44000 284.009
35.48000 271.383
35.52000 259.329
35.56000 269.983
35.60000 282.623
35.64000 269.797
35.68000 271.840
35.72000 285.480
35.76000 272.612
35.80000 266.686
35.84000 272.737
35.88000 261.338
35.92000 259.212
35.96000 257.663
36.00000 257.838
36.04000 267.232
36.08000 256.364
36.12000 251.722
36.16000 254.808
36.20000 263.608
36.24000 275.829
36.28000 254.326
36.32000 263.757
36.36000 260.161
36.40000 259.584
36.44000 269.078
36.48000 265.421
36.52000 271.669
36.56000 259.397
36.60000 250.275
36.64000 261.388
36.68000 259.166
36.72000 260.355
36.76000 264.047
36.80000 258.302
36.84000 251.482
36.88000 260.430
36.92000 253.540
36.96000 256.520
37.00000 262.449
37.04000 274.401
37.08000 267.202
37.12000 258.811
37.16000 248.390
37.20000 260.956
37.24000 254.569
37.28000 243.736
37.32000 240.109
37.36000 236.007
37.40000 247.034
37.44000 240.833
37.48000 250.767
37.52000 256.712
37.56000 244.054
37.60000 246.919
37.64000 252.784
37.68000 249.928
37.72000 252.425
37.76000 242.137
37.80000 245.219
37.84000 250.496
37.88000 256.384
37.92000 251.166
37.96000 255.117
38.00000 257.343
38.04000 253.812
38.08000 246.238
38.12000 259.112
38.16000 268.042
38.20000 266.335
38.24000 277.483
38.28000 283.613
38.32000 292.152
38.36000 314.645
38.40000 344.320
38.44000 380.760
38.48000 417.395
38.52000 432.678
38.56000 454.785
38.60000 471.914
38.64000 485.899
38.68000 473.925
38.72000 440.313
38.76000 423.068
38.80000 379.112
38.84000 354.613
38.88000 324.954
38.92000 307.846
38.96000 285.032
39.00000 275.225
39.04000 267.309
39.08000 259.161
39.12000 256.693
39.16000 241.451
39.20000 225.089
39.24000 235.323
39.28000 241.296
39.32000 243.560
39.36000 242.435
39.40000 231.257
39.44000 232.901
39.48000 219.793
39.52000 224.624
39.56000 246.764
39.60000 218.923
39.64000 230.533
39.68000 219.018
39.72000 222.313
39.76000 229.387
39.80000 222.631
39.84000 219.106
39.88000 220.374
39.92000 221.712
39.96000 226.462
40.00000 233.197
40.04000 216.634
40.08000 223.182
40.12000 224.311
40.16000 221.487
40.20000 216.634
40.24000 236.083
40.28000 211.223
40.32000 211.504
40.36000 222.962
40.40000 231.203
40.44000 223.485
40.48000 222.035
40.52000 222.938
40.56000 226.490
40.60000 209.819
40.64000 205.784
40.68000 211.091
40.72000 209.600
40.76000 218.827
40.80000 212.540
40.84000 207.037
40.88000 224.535
40.92000 212.795
40.96000 217.657
41.00000 221.340
41.04000 204.173
41.08000 225.260
41.12000 209.134
41.16000 218.580
41.20000 217.364
41.24000 210.582
41.28000 217.436
41.32000 203.162
41.36000 198.250
41.40000 220.851
41.44000 209.000
41.48000 211.010
41.52000 212.638
41.56000 210.820
41.60000 208.406
41.64000 215.625
41.68000 204.740
41.72000 195.135
41.76000 220.421
41.80000 213.109
41.84000 214.962
41.88000 212.439
41.92000 203.568
41.96000 196.943
42.00000 205.864
42.04000 186.686
42.08000 201.697
42.12000 199.308
42.16000 205.017
42.20000 202.361
42.24000 211.089
42.28000 209.013
42.32000 197.931
42.36000 197.431
42.40000 204.385
42.44000 203.370
42.48000 206.847
42.52000 196.105
42.56000 218.443
42.60000 200.909
42.64000 207.692
42.68000 205.680
42.72000 210.027
42.76000 217.906
42.80000 218.083
42.84000 202.800
42.88000 217.862
42.92000 217.365
42.96000 213.390
43.00000 207.666
43.04000 202.746
43.08000 196.358
43.12000 201.706
43.16000 199.874
43.20000 204.792
43.24000 205.797
43.28000 201.699
43.32000 207.161
43.36000 197.416
43.40000 210.554
43.44000 206.938
43.48000 202.497
43.52000 200.118
43.56000 200.957
43.60000 207.644
43.64000 201.415
43.68000 210.109
43.72000 205.365
43.76000 209.894
43.80000 197.082
43.84000 211.497
43.88000 200.620
43.92000 203.945
43.96000 206.466
44.00000 211.974
44.04000 203.807
44.08000 191.910
44.12000 196.121
44.16000 210.011
44.20000 215.503
44.24000 207.650
44.28000 215.274
44.32000 211.895
44.36000 223.514
44.40000 230.618
44.44000 243.043
44.48000 268.180
44.52000 268.280
44.56000 308.112
44.60000 333.398
44.64000 381.799
44.68000 381.195
44.72000 445.367
44.76000 451.502
44.80000 475.931
44.84000 505.246
44.88000 526.390
44.92000 523.682
44.96000 509.595
45.00000 462.850
45.04000 446.571
45.08000 414.533
45.12000 385.615
45.16000 364.256
45.20000 345.058
45.24000 329.057
45.28000 298.330
45.32000 271.536
45.36000 272.728
45.40000 260.587
45.44000 265.179
45.48000 240.043
45.52000 243.292
45.56000 222.557
45.60000 220.062
45.64000 218.911
45.68000 214.659
45.72000 215.135
45.76000 206.478
45.80000 194.450
45.84000 197.932
45.88000 192.487
45.92000 202.308
45.96000 206.731
46.00000 184.081
46.04000 195.897
46.08000 190.852
46.12000 189.335
46.16000 176.576
46.20000 187.298
46.24000 181.511
46.28000 173.641
46.32000 182.718
46.36000 177.736
46.40000 187.844
46.44000 180.460
46.48000 169.537
46.52000 170.802
46.56000 165.226
46.60000 166.445
46.64000 175.377
46.68000 172.325
46.72000 178.364
46.76000 169.794
46.80000 168.669
46.84000 171.147
46.88000 175.935
46.92000 178.568
46.96000 176.474
47.00000 190.452
47.04000 170.545
47.08000 173.949
47.12000 182.046
47.16000 163.629
47.20000 167.371
47.24000 167.128
47.28000 176.659
47.32000 171.464
47.36000 166.943
47.40000 169.397
47.44000 167.424
47.48000 163.746
47.52000 172.449
47.56000 166.620
47.60000 167.547
47.64000 163.697
47.68000 161.102
47.72000 171.980
47.76000 167.831
47.80000 162.359
47.84000 162.635
47.88000 159.973
47.92000 170.516
47.96000 169.761
48.00000 164.650
48.04000 169.692
48.08000 175.975
48.12000 164.337
48.16000 174.216
48.20000 161.830
48.24000 154.682
48.28000 157.381
48.32000 170.271
48.36000 154.390
48.40000 163.412
48.44000 162.035
48.48000 160.933
48.52000 164.620
48.56000 161.031
48.60000 150.974
48.64000 161.209
48.68000 159.860
48.72000 154.360
48.76000 153.729
48.80000 150.737
48.84000 162.075
48.88000 161.328
48.92000 152.614
48.96000 155.319
49.00000 154.483
49.04000 155.810
49.08000 163.057
49.12000 156.278
49.16000 163.823
49.20000 156.218
49.24000 159.809
49.28000 146.392
49.32000 164.885
49.36000 150.522
49.40000 147.040
49.44000 159.674
49.48000 146.185
49.52000 151.015
49.56000 157.966
49.60000 165.791
49.64000 148.315
49.68000 153.264
49.72000 166.576
49.76000 161.033
49.80000 165.902
49.84000 151.918
49.88000 156.843
49.92000 154.009
49.96000 166.916
50.00000 169.579
50.04000 163.702
50.08000 168.411
50.12000 176.805
50.16000 192.870
50.20000 198.890
50.24000 178.499
50.28000 213.271
50.32000 228.849
50.36000 231.215
50.40000 250.350
50.44000 251.802
50.48000 268.572
50.52000 285.585
50.56000 279.417
50.60000 274.565
50.64000 265.324
50.68000 252.738
50.72000 240.354
50.76000 227.638
50.80000 223.235
50.84000 215.105
50.88000 211.600
50.92000 185.687
50.96000 176.950
51.00000 178.511
51.04000 174.417
51.08000 164.517
51.12000 159.230
51.16000 159.860
51.20000 169.183
51.24000 157.883
51.28000 159.673
51.32000 158.088
51.36000 153.600
51.40000 140.398
51.44000 149.904
51.48000 152.088
51.52000 150.840
51.56000 153.226
51.60000 146.706
51.64000 151.599
51.68000 137.774
51.72000 146.658
51.76000 148.404
51.80000 141.615
51.84000 139.926
51.88000 141.114
51.92000 153.798
51.96000 138.902
52.00000 144.832
52.04000 144.801
52.08000 133.637
52.12000 143.945
52.16000 143.463
52.20000 135.605
52.24000 130.280
52.28000 133.623
52.32000 142.624
52.36000 143.695
52.40000 137.610
52.44000 142.439
52.48000 146.120
52.52000 140.911
52.56000 143.071
52.60000 146.107
52.64000 137.661
52.68000 148.298
52.72000 137.593
52.76000 140.506
52.80000 149.520
52.84000 149.520
52.88000 155.116
52.92000 148.240
52.96000 149.071
53.00000 151.072
53.04000 144.342
53.08000 145.333
53.12000 150.947
53.16000 150.735
53.20000 152.143
53.24000 172.230
53.28000 165.566
53.32000 152.715
53.36000 153.331
53.40000 153.204
53.44000 153.338
53.48000 149.940
53.52000 156.937
53.56000 144.696
53.60000 142.605
53.64000 139.639
53.68000 137.594
53.72000 147.267
53.76000 157.973
53.80000 149.979
53.84000 138.816
53.88000 147.628
53.92000 146.942
53.96000 139.855
54.00000 138.037
54.04000 141.112
54.08000 133.298
54.12000 144.824
54.16000 151.452
54.20000 137.685
54.24000 131.715
54.28000 138.203
54.32000 140.832
54.36000 146.179
54.40000 140.027
54.44000 141.698
54.48000 147.486
54.52000 142.893
54.56000 144.017
54.60000 145.355
54.64000 145.104
54.68000 148.429
54.72000 143.153
54.76000 148.240
54.80000 151.644
54.84000 144.340
54.88000 142.437
54.92000 150.641
54.96000 157.609
55.00000 158.610
55.04000 141.735
55.08000 153.100
55.12000 162.661
55.16000 164.129
55.20000 180.642
55.24000 178.518
55.28000 199.251
55.32000 226.477
55.36000 244.663
55.40000 268.055
55.44000 317.261
55.48000 369.817
55.52000 421.094
55.56000 466.456
55.60000 503.346
55.64000 548.178
55.68000 589.777
55.72000 623.593
55.76000 646.688
55.80000 632.631
55.84000 583.201
55.88000 584.584
55.92000 559.288
55.96000 545.725
56.00000 486.409
56.04000 435.519
56.08000 377.824
56.12000 335.902
56.16000 301.716
56.20000 274.516
56.24000 249.421
56.28000 206.269
56.32000 195.593
56.36000 191.800
56.40000 176.011
56.44000 162.359
56.48000 153.825
56.52000 152.289
56.56000 162.439
56.60000 145.023
56.64000 149.891
56.68000 155.775
56.72000 138.459
56.76000 139.803
56.80000 136.585
56.84000 143.941
56.88000 142.764
56.92000 136.319
56.96000 142.961
57.00000 121.985
57.04000 125.674
57.08000 122.245
57.12000 119.227
57.16000 125.393
57.20000 117.743
57.24000 130.824
57.28000 122.121
57.32000 124.242
57.36000 128.202
57.40000 128.441
57.44000 139.322
57.48000 125.750
57.52000 125.419
57.56000 119.597
57.60000 125.099
57.64000 123.720
57.68000 128.844
57.72000 119.310
57.76000 125.430
57.80000 119.377
57.84000 128.511
57.88000 132.634
57.92000 128.988
57.96000 127.765
58.00000 124.956
58.04000 127.878
58.08000 137.344
58.12000 129.699
58.16000 129.798
58.20000 132.266
58.24000 133.534
58.28000 123.125
58.32000 133.260
58.36000 124.749
58.40000 124.563
58.44000 126.316
58.48000 122.821
58.52000 120.890
58.56000 118.329
58.60000 131.887
58.64000 120.176
58.68000 121.878
58.72000 119.618
58.76000 112.018
58.80000 120.466
58.84000 130.949
58.88000 119.707
58.92000 118.552
58.96000 117.756
59.00000 121.176
59.04000 133.957
59.08000 118.433
59.12000 118.935
59.16000 114.959
59.20000 115.254
59.24000 111.749
59.28000 109.308
59.32000 116.857
59.36000 117.849
59.40000 117.382
59.44000 118.734
59.48000 117.769
59.52000 114.589
59.56000 114.270
59.60000 109.850
59.64000 124.771
59.68000 121.911
59.72000 112.834
59.76000 114.951
59.80000 116.103
59.84000 113.654
59.88000 119.729
59.92000 116.942
59.96000 117.757
60.00000 116.394
60.04000 115.333
60.08000 118.037
60.12000 113.878
60.16000 115.515
60.20000 115.823
60.24000 110.434
60.28000 113.593
60.32000 122.508
60.36000 116.874
60.40000 118.786
60.44000 115.400
60.48000 119.501
60.52000 116.819
60.56000 119.701
60.60000 122.329
60.64000 118.516
60.68000 121.251
60.72000 117.974
60.76000 114.210
60.80000 116.132
60.84000 118.808
60.88000 121.209
60.92000 111.835
60.96000 108.625
61.00000 119.142
61.04000 126.394
61.08000 121.082
61.12000 120.629
61.16000 124.932
61.20000 125.484
61.24000 116.186
61.28000 121.605
61.32000 130.322
61.36000 126.005
61.40000 125.338
61.44000 127.342
61.48000 129.232
61.52000 159.042
61.56000 200.970
61.60000 282.142
61.64000 349.011
61.68000 368.538
61.72000 399.028
61.76000 394.502
61.80000 336.154
61.84000 256.710
61.88000 181.414
61.92000 143.993
61.96000 139.271
62.00000 146.682
62.04000 141.411
62.08000 148.599
62.12000 134.965
62.16000 135.589
62.20000 142.288
62.24000 130.040
62.28000 143.781
62.32000 137.394
62.36000 143.678
62.40000 141.255
62.44000 134.037
62.48000 129.703
62.52000 127.564
62.56000 138.790
62.60000 132.978
62.64000 132.134
62.68000 131.631
62.72000 129.205
62.76000 140.878
62.80000 147.261
62.84000 139.866
62.88000 137.073
62.92000 138.652
62.96000 145.329
63.00000 136.108
63.04000 129.997
63.08000 142.869
63.12000 141.608
63.16000 141.882
63.20000 143.665
63.24000 143.851
63.28000 142.637
63.32000 131.867
63.36000 130.153
63.40000 142.299
63.44000 141.050
63.48000 136.719
63.52000 138.227
63.56000 139.509
63.60000 135.226
63.64000 135.925
63.68000 144.524
63.72000 147.796
63.76000 144.510
63.80000 145.950
63.84000 143.032
63.88000 149.405
63.92000 144.630
63.96000 150.497
64.00000 152.062
64.04000 150.850
64.08000 158.804
64.12000 157.699
64.16000 157.823
64.20000 149.997
64.24000 161.541
64.28000 157.295
64.32000 158.500
64.36000 169.984
64.40000 157.111
64.44000 157.318
64.48000 167.548
64.52000 176.890
64.56000 172.682
64.60000 188.544
64.64000 191.505
64.68000 193.723
64.72000 201.083
64.76000 192.723
64.80000 211.422
64.84000 216.828
64.88000 220.279
64.92000 223.914
64.96000 251.490
65.00000 281.921
65.04000 282.961
65.08000 308.294
65.12000 323.902
65.16000 352.224
65.20000 374.745
65.24000 380.360
65.28000 403.782
65.32000 396.056
65.36000 422.798
65.40000 432.868
65.44000 444.003
65.48000 461.433
65.52000 473.508
65.56000 484.223
65.60000 506.146
65.64000 582.504
65.68000 726.920
65.72000 1044.910
65.76000 1665.678
65.80000 2340.707
65.84000 2741.170
65.88000 2890.074
65.92000 2832.984
65.96000 2543.720
66.00000 1853.567
66.04000 1180.380
66.08000 761.700
66.12000 568.911
66.16000 480.507
66.20000 475.813
66.24000 476.881
66.28000 519.691
66.32000 645.077
66.36000 737.349
66.40000 824.540
66.44000 850.985
66.48000 827.794
66.52000 766.432
66.56000 628.037
66.60000 503.547
66.64000 464.697
66.68000 441.480
66.72000 416.304
66.76000 409.957
66.80000 445.359
66.84000 423.227
66.88000 438.762
66.92000 415.784
66.96000 405.030
67.00000 421.168
67.04000 455.605
67.08000 438.635
67.12000 442.674
67.16000 445.988
67.20000 464.933
67.24000 457.582
67.28000 447.738
67.32000 461.330
67.36000 467.860
67.40000 485.982
67.44000 486.825
67.48000 501.888
67.52000 480.837
67.56000 494.471
67.60000 491.354
67.64000 509.299
67.68000 523.460
67.72000 521.078
67.76000 533.431
67.80000 519.901
67.84000 543.167
67.88000 560.275
67.92000 572.135
67.96000 578.376
68.00000 588.498
68.04000 591.150
68.08000 588.952
68.12000 603.667
68.16000 597.023
68.20000 626.817
68.24000 647.918
68.28000 633.466
68.32000 675.890
68.36000 675.590
68.40000 714.121
68.44000 744.250
68.48000 762.550
68.52000 805.873
68.56000 890.628
68.60000 973.955
68.64000 1136.171
68.68000 1332.943
68.72000 1583.319
68.76000 1865.020
68.80000 2157.380
68.84000 2587.627
68.88000 3357.105
68.92000 4956.262
68.96000 9751.467
69.00000 23022.387
69.04000 41646.766
69.08000 56680.258
69.12000 63346.430
69.16000 67667.289
69.20000 69731.758
69.24000 62289.352
69.28000 48572.652
69.32000 37375.473
69.36000 32506.314
69.40000 28665.471
69.44000 20875.092
69.48000 11500.648
69.52000 5264.913
69.56000 2484.183
69.60000 1609.369
69.64000 1244.431
69.68000 1037.806
69.72000 931.122
69.76000 814.926
69.80000 770.177
69.84000 708.772
69.88000 645.836
69.92000 614.238
69.96000 576.220
70.00000 531.279