File: XRD/XRD/08-10-2025 Dep 7/XY Data/BTO_Mapping_Theta2Theta_08-10-2025_001_23_-10-000_17-321.xy
20.00000 500.496
20.04000 473.043
20.08000 457.834
20.12000 486.542
20.16000 459.294
20.20000 456.587
20.24000 465.737
20.28000 464.911
20.32000 471.740
20.36000 481.166
20.40000 461.246
20.44000 476.490
20.48000 469.571
20.52000 456.292
20.56000 487.676
20.60000 475.759
20.64000 474.523
20.68000 447.651
20.72000 440.679
20.76000 461.214
20.80000 472.109
20.84000 484.157
20.88000 474.164
20.92000 486.187
20.96000 488.073
21.00000 450.039
21.04000 455.101
21.08000 476.005
21.12000 446.982
21.16000 461.088
21.20000 463.981
21.24000 463.178
21.28000 466.144
21.32000 459.395
21.36000 464.887
21.40000 451.658
21.44000 443.759
21.48000 466.827
21.52000 457.049
21.56000 454.585
21.60000 476.175
21.64000 439.099
21.68000 460.726
21.72000 486.625
21.76000 463.096
21.80000 483.657
21.84000 489.865
21.88000 484.293
21.92000 507.705
21.96000 518.873
22.00000 537.318
22.04000 545.699
22.08000 567.060
22.12000 550.464
22.16000 516.019
22.20000 548.545
22.24000 514.794
22.28000 491.419
22.32000 491.332
22.36000 474.688
22.40000 475.764
22.44000 477.112
22.48000 455.436
22.52000 456.090
22.56000 453.257
22.60000 431.187
22.64000 430.560
22.68000 442.336
22.72000 448.004
22.76000 450.446
22.80000 442.214
22.84000 434.233
22.88000 445.308
22.92000 427.050
22.96000 443.600
23.00000 426.847
23.04000 451.300
23.08000 431.886
23.12000 426.284
23.16000 433.568
23.20000 443.219
23.24000 432.970
23.28000 442.893
23.32000 438.255
23.36000 437.646
23.40000 441.148
23.44000 437.694
23.48000 429.390
23.52000 405.624
23.56000 421.320
23.60000 437.624
23.64000 445.597
23.68000 427.792
23.72000 430.388
23.76000 444.135
23.80000 446.951
23.84000 468.644
23.88000 475.644
23.92000 495.888
23.96000 485.988
24.00000 480.739
24.04000 483.304
24.08000 484.259
24.12000 462.688
24.16000 465.349
24.20000 464.461
24.24000 456.483
24.28000 449.692
24.32000 435.951
24.36000 444.332
24.40000 440.271
24.44000 427.051
24.48000 418.108
24.52000 405.461
24.56000 416.510
24.60000 412.685
24.64000 404.366
24.68000 412.203
24.72000 396.928
24.76000 409.826
24.80000 418.606
24.84000 418.225
24.88000 419.350
24.92000 392.859
24.96000 412.206
25.00000 382.267
25.04000 389.514
25.08000 403.785
25.12000 389.128
25.16000 387.702
25.20000 400.204
25.24000 401.342
25.28000 405.112
25.32000 386.693
25.36000 386.872
25.40000 401.478
25.44000 380.125
25.48000 371.144
25.52000 391.641
25.56000 390.508
25.60000 372.307
25.64000 389.007
25.68000 395.999
25.72000 390.227
25.76000 383.093
25.80000 407.145
25.84000 394.410
25.88000 394.311
25.92000 379.985
25.96000 403.513
26.00000 395.072
26.04000 368.708
26.08000 380.645
26.12000 376.462
26.16000 391.186
26.20000 399.122
26.24000 388.561
26.28000 395.905
26.32000 386.937
26.36000 388.590
26.40000 373.785
26.44000 386.118
26.48000 383.745
26.52000 377.990
26.56000 382.669
26.60000 378.487
26.64000 373.601
26.68000 381.682
26.72000 375.683
26.76000 370.146
26.80000 356.597
26.84000 378.909
26.88000 375.477
26.92000 391.147
26.96000 394.249
27.00000 373.539
27.04000 381.328
27.08000 381.651
27.12000 382.207
27.16000 369.953
27.20000 375.269
27.24000 386.147
27.28000 377.781
27.32000 370.347
27.36000 371.694
27.40000 370.665
27.44000 384.133
27.48000 363.587
27.52000 369.416
27.56000 379.720
27.60000 361.049
27.64000 385.353
27.68000 378.213
27.72000 363.933
27.76000 375.872
27.80000 377.526
27.84000 372.959
27.88000 355.652
27.92000 365.362
27.96000 363.445
28.00000 351.251
28.04000 379.532
28.08000 361.238
28.12000 359.654
28.16000 361.709
28.20000 378.714
28.24000 360.403
28.28000 364.546
28.32000 353.685
28.36000 370.720
28.40000 369.589
28.44000 348.998
28.48000 349.468
28.52000 361.135
28.56000 346.683
28.60000 336.640
28.64000 372.791
28.68000 359.708
28.72000 346.507
28.76000 368.236
28.80000 337.856
28.84000 346.100
28.88000 354.868
28.92000 364.804
28.96000 355.859
29.00000 353.063
29.04000 356.381
29.08000 354.459
29.12000 357.466
29.16000 345.931
29.20000 353.441
29.24000 331.213
29.28000 347.299
29.32000 345.457
29.36000 352.376
29.40000 351.320
29.44000 340.716
29.48000 346.471
29.52000 346.037
29.56000 354.934
29.60000 347.120
29.64000 358.604
29.68000 357.996
29.72000 347.844
29.76000 350.636
29.80000 361.008
29.84000 360.740
29.88000 361.616
29.92000 379.466
29.96000 370.903
30.00000 377.695
30.04000 379.613
30.08000 375.749
30.12000 356.591
30.16000 359.253
30.20000 359.255
30.24000 354.437
30.28000 347.491
30.32000 346.629
30.36000 368.835
30.40000 342.127
30.44000 342.377
30.48000 359.521
30.52000 354.699
30.56000 352.227
30.60000 359.317
30.64000 357.932
30.68000 353.941
30.72000 336.120
30.76000 356.598
30.80000 345.090
30.84000 368.569
30.88000 375.824
30.92000 378.411
30.96000 399.485
31.00000 425.538
31.04000 430.645
31.08000 483.885
31.12000 540.006
31.16000 608.643
31.20000 689.200
31.24000 807.011
31.28000 919.902
31.32000 996.955
31.36000 1054.319
31.40000 1079.167
31.44000 1078.103
31.48000 992.842
31.52000 868.586
31.56000 796.992
31.60000 661.351
31.64000 582.394
31.68000 507.093
31.72000 445.129
31.76000 421.631
31.80000 405.560
31.84000 371.029
31.88000 381.597
31.92000 372.460
31.96000 361.742
32.00000 349.652
32.04000 352.198
32.08000 334.378
32.12000 327.202
32.16000 336.781
32.20000 325.010
32.24000 313.568
32.28000 338.288
32.32000 326.177
32.36000 323.388
32.40000 318.312
32.44000 324.432
32.48000 315.668
32.52000 317.337
32.56000 318.895
32.60000 314.539
32.64000 311.777
32.68000 297.837
32.72000 310.626
32.76000 315.738
32.80000 310.070
32.84000 316.988
32.88000 313.998
32.92000 300.024
32.96000 316.178
33.00000 337.063
33.04000 313.893
33.08000 294.612
33.12000 309.897
33.16000 301.436
33.20000 287.586
33.24000 298.306
33.28000 286.066
33.32000 288.620
33.36000 301.773
33.40000 285.454
33.44000 280.319
33.48000 294.346
33.52000 290.230
33.56000 302.641
33.60000 274.688
33.64000 299.800
33.68000 298.211
33.72000 290.302
33.76000 297.215
33.80000 310.346
33.84000 311.494
33.88000 301.158
33.92000 299.753
33.96000 308.124
34.00000 317.395
34.04000 313.224
34.08000 322.394
34.12000 314.677
34.16000 328.685
34.20000 320.627
34.24000 336.157
34.28000 352.757
34.32000 344.024
34.36000 358.052
34.40000 332.971
34.44000 334.567
34.48000 327.622
34.52000 335.859
34.56000 339.181
34.60000 327.020
34.64000 325.798
34.68000 288.875
34.72000 296.373
34.76000 283.339
34.80000 300.414
34.84000 293.203
34.88000 287.586
34.92000 290.092
34.96000 285.880
35.00000 283.656
35.04000 276.923
35.08000 262.322
35.12000 270.397
35.16000 261.763
35.20000 279.275
35.24000 269.673
35.28000 285.174
35.32000 265.420
35.36000 256.297
35.40000 288.206
35.44000 265.735
35.48000 263.051
35.52000 266.929
35.56000 259.187
35.60000 250.771
35.64000 269.657
35.68000 276.308
35.72000 256.557
35.76000 255.764
35.80000 260.537
35.84000 264.471
35.88000 253.629
35.92000 264.328
35.96000 266.813
36.00000 264.900
36.04000 257.460
36.08000 261.985
36.12000 241.584
36.16000 248.335
36.20000 254.938
36.24000 255.791
36.28000 261.778
36.32000 264.279
36.36000 244.340
36.40000 246.559
36.44000 252.562
36.48000 260.670
36.52000 260.130
36.56000 260.655
36.60000 256.426
36.64000 262.713
36.68000 259.544
36.72000 259.074
36.76000 262.007
36.80000 271.576
36.84000 279.621
36.88000 274.686
36.92000 277.736
36.96000 277.246
37.00000 291.279
37.04000 283.042
37.08000 277.957
37.12000 293.898
37.16000 283.775
37.20000 262.639
37.24000 257.955
37.28000 259.880
37.32000 260.692
37.36000 255.919
37.40000 262.982
37.44000 256.514
37.48000 261.370
37.52000 247.966
37.56000 257.216
37.60000 258.739
37.64000 252.997
37.68000 249.946
37.72000 255.752
37.76000 256.249
37.80000 257.155
37.84000 257.402
37.88000 246.909
37.92000 265.863
37.96000 246.968
38.00000 264.829
38.04000 257.455
38.08000 261.640
38.12000 253.886
38.16000 266.838
38.20000 262.997
38.24000 269.790
38.28000 277.966
38.32000 296.231
38.36000 331.731
38.40000 362.736
38.44000 424.988
38.48000 499.374
38.52000 614.643
38.56000 739.868
38.60000 894.931
38.64000 976.686
38.68000 1086.316
38.72000 1140.018
38.76000 1116.003
38.80000 1087.118
38.84000 975.409
38.88000 819.757
38.92000 687.971
38.96000 559.665
39.00000 431.776
39.04000 367.489
39.08000 320.258
39.12000 278.766
39.16000 262.894
39.20000 249.119
39.24000 237.353
39.28000 242.090
39.32000 237.659
39.36000 242.739
39.40000 234.084
39.44000 229.443
39.48000 235.340
39.52000 246.620
39.56000 240.925
39.60000 237.897
39.64000 243.842
39.68000 233.929
39.72000 229.084
39.76000 222.841
39.80000 230.467
39.84000 233.098
39.88000 238.850
39.92000 226.886
39.96000 221.225
40.00000 223.551
40.04000 224.447
40.08000 233.482
40.12000 217.550
40.16000 234.321
40.20000 223.474
40.24000 235.391
40.28000 223.834
40.32000 225.375
40.36000 215.080
40.40000 216.305
40.44000 217.260
40.48000 221.768
40.52000 221.799
40.56000 211.158
40.60000 223.240
40.64000 219.101
40.68000 191.137
40.72000 221.925
40.76000 213.664
40.80000 220.664
40.84000 212.382
40.88000 217.844
40.92000 201.657
40.96000 216.621
41.00000 213.392
41.04000 212.535
41.08000 216.557
41.12000 202.970
41.16000 208.941
41.20000 198.516
41.24000 214.327
41.28000 213.969
41.32000 215.266
41.36000 202.743
41.40000 194.554
41.44000 202.235
41.48000 208.820
41.52000 213.700
41.56000 209.554
41.60000 199.410
41.64000 212.682
41.68000 202.891
41.72000 199.880
41.76000 214.131
41.80000 206.638
41.84000 211.823
41.88000 201.487
41.92000 216.055
41.96000 215.156
42.00000 202.933
42.04000 212.040
42.08000 214.268
42.12000 201.234
42.16000 210.679
42.20000 219.191
42.24000 205.738
42.28000 208.416
42.32000 212.714
42.36000 207.533
42.40000 202.491
42.44000 206.708
42.48000 203.062
42.52000 205.087
42.56000 224.733
42.60000 211.824
42.64000 211.901
42.68000 196.256
42.72000 204.343
42.76000 180.815
42.80000 204.654
42.84000 195.236
42.88000 198.611
42.92000 207.102
42.96000 206.835
43.00000 211.753
43.04000 190.552
43.08000 198.551
43.12000 196.485
43.16000 204.127
43.20000 204.635
43.24000 197.164
43.28000 193.192
43.32000 207.704
43.36000 195.546
43.40000 194.141
43.44000 188.910
43.48000 178.586
43.52000 194.827
43.56000 190.942
43.60000 193.230
43.64000 189.443
43.68000 189.176
43.72000 195.170
43.76000 188.856
43.80000 186.031
43.84000 185.296
43.88000 191.497
43.92000 209.130
43.96000 192.529
44.00000 183.442
44.04000 199.000
44.08000 183.595
44.12000 172.037
44.16000 193.953
44.20000 200.066
44.24000 200.506
44.28000 204.450
44.32000 200.476
44.36000 189.234
44.40000 201.869
44.44000 200.097
44.48000 210.384
44.52000 198.178
44.56000 216.825
44.60000 205.786
44.64000 232.629
44.68000 230.214
44.72000 223.513
44.76000 224.545
44.80000 232.911
44.84000 232.656
44.88000 235.436
44.92000 237.884
44.96000 252.285
45.00000 260.484
45.04000 255.969
45.08000 252.310
45.12000 250.521
45.16000 242.703
45.20000 240.703
45.24000 246.105
45.28000 250.115
45.32000 235.294
45.36000 236.482
45.40000 224.007
45.44000 221.653
45.48000 214.180
45.52000 212.531
45.56000 212.859
45.60000 200.213
45.64000 211.423
45.68000 215.302
45.72000 208.022
45.76000 198.774
45.80000 200.625
45.84000 209.815
45.88000 194.289
45.92000 191.145
45.96000 180.067
46.00000 183.224
46.04000 170.473
46.08000 168.461
46.12000 178.700
46.16000 186.314
46.20000 170.572
46.24000 176.481
46.28000 170.708
46.32000 186.081
46.36000 168.198
46.40000 184.841
46.44000 173.397
46.48000 172.527
46.52000 191.366
46.56000 176.368
46.60000 174.352
46.64000 179.103
46.68000 184.733
46.72000 180.920
46.76000 172.954
46.80000 167.057
46.84000 163.419
46.88000 169.881
46.92000 181.973
46.96000 165.910
47.00000 174.548
47.04000 170.426
47.08000 162.931
47.12000 166.020
47.16000 151.720
47.20000 160.908
47.24000 164.881
47.28000 163.427
47.32000 159.255
47.36000 157.187
47.40000 165.821
47.44000 164.938
47.48000 167.129
47.52000 166.831
47.56000 159.051
47.60000 159.308
47.64000 165.077
47.68000 156.224
47.72000 160.577
47.76000 163.554
47.80000 158.333
47.84000 171.142
47.88000 155.365
47.92000 158.987
47.96000 163.103
48.00000 162.949
48.04000 163.706
48.08000 157.379
48.12000 160.763
48.16000 162.980
48.20000 160.320
48.24000 159.658
48.28000 151.054
48.32000 162.063
48.36000 158.360
48.40000 161.750
48.44000 150.404
48.48000 158.612
48.52000 165.101
48.56000 158.028
48.60000 160.094
48.64000 158.738
48.68000 156.912
48.72000 151.074
48.76000 167.319
48.80000 159.685
48.84000 154.643
48.88000 164.569
48.92000 159.479
48.96000 163.343
49.00000 147.413
49.04000 157.262
49.08000 153.429
49.12000 149.871
49.16000 147.744
49.20000 144.771
49.24000 155.393
49.28000 156.253
49.32000 152.310
49.36000 155.336
49.40000 148.634
49.44000 155.566
49.48000 154.519
49.52000 153.569
49.56000 148.852
49.60000 146.257
49.64000 148.097
49.68000 154.523
49.72000 155.021
49.76000 155.141
49.80000 154.201
49.84000 150.904
49.88000 147.040
49.92000 146.896
49.96000 151.032
50.00000 154.102
50.04000 145.608
50.08000 151.135
50.12000 148.873
50.16000 150.472
50.20000 158.631
50.24000 152.163
50.28000 151.419
50.32000 154.118
50.36000 150.639
50.40000 163.474
50.44000 168.225
50.48000 169.188
50.52000 171.507
50.56000 165.388
50.60000 165.239
50.64000 154.469
50.68000 172.013
50.72000 175.303
50.76000 170.436
50.80000 172.838
50.84000 166.560
50.88000 172.178
50.92000 171.607
50.96000 169.117
51.00000 143.365
51.04000 153.484
51.08000 149.377
51.12000 149.614
51.16000 148.386
51.20000 152.286
51.24000 146.936
51.28000 144.207
51.32000 140.362
51.36000 135.567
51.40000 137.290
51.44000 145.279
51.48000 145.615
51.52000 143.616
51.56000 143.887
51.60000 133.221
51.64000 139.610
51.68000 135.480
51.72000 148.612
51.76000 142.940
51.80000 144.150
51.84000 145.718
51.88000 135.588
51.92000 144.846
51.96000 139.983
52.00000 141.738
52.04000 134.483
52.08000 135.871
52.12000 125.107
52.16000 143.260
52.20000 132.741
52.24000 130.746
52.28000 142.382
52.32000 134.226
52.36000 139.187
52.40000 140.000
52.44000 131.849
52.48000 133.863
52.52000 138.120
52.56000 135.471
52.60000 126.809
52.64000 140.533
52.68000 142.240
52.72000 137.716
52.76000 125.782
52.80000 143.730
52.84000 138.593
52.88000 141.393
52.92000 140.886
52.96000 148.398
53.00000 139.204
53.04000 147.757
53.08000 138.125
53.12000 145.750
53.16000 153.186
53.20000 144.033
53.24000 145.698
53.28000 162.382
53.32000 166.400
53.36000 155.910
53.40000 156.402
53.44000 160.564
53.48000 161.898
53.52000 152.371
53.56000 141.374
53.60000 143.966
53.64000 149.332
53.68000 144.750
53.72000 154.849
53.76000 149.697
53.80000 140.535
53.84000 148.148
53.88000 150.846
53.92000 151.161
53.96000 138.819
54.00000 134.361
54.04000 141.751
54.08000 136.734
54.12000 142.858
54.16000 141.270
54.20000 141.618
54.24000 137.953
54.28000 141.676
54.32000 140.564
54.36000 132.522
54.40000 133.545
54.44000 141.202
54.48000 132.715
54.52000 139.702
54.56000 141.250
54.60000 141.907
54.64000 142.342
54.68000 153.207
54.72000 149.785
54.76000 144.736
54.80000 148.550
54.84000 152.415
54.88000 136.515
54.92000 145.007
54.96000 143.820
55.00000 150.834
55.04000 151.734
55.08000 150.761
55.12000 145.872
55.16000 147.728
55.20000 148.471
55.24000 150.167
55.28000 154.716
55.32000 156.693
55.36000 172.566
55.40000 170.258
55.44000 176.425
55.48000 198.959
55.52000 223.010
55.56000 230.954
55.60000 280.876
55.64000 309.477
55.68000 372.386
55.72000 408.839
55.76000 464.304
55.80000 544.002
55.84000 610.975
55.88000 640.658
55.92000 682.378
55.96000 674.689
56.00000 685.650
56.04000 629.619
56.08000 589.038
56.12000 528.374
56.16000 458.798
56.20000 413.143
56.24000 347.257
56.28000 319.893
56.32000 260.805
56.36000 225.050
56.40000 207.123
56.44000 182.562
56.48000 166.286
56.52000 158.073
56.56000 148.776
56.60000 150.534
56.64000 148.356
56.68000 141.661
56.72000 136.583
56.76000 133.723
56.80000 135.290
56.84000 133.972
56.88000 132.353
56.92000 133.241
56.96000 136.370
57.00000 123.930
57.04000 123.907
57.08000 127.417
57.12000 135.511
57.16000 130.223
57.20000 130.517
57.24000 129.453
57.28000 125.566
57.32000 126.470
57.36000 125.498
57.40000 124.854
57.44000 129.871
57.48000 129.350
57.52000 130.660
57.56000 129.675
57.60000 114.501
57.64000 123.630
57.68000 122.007
57.72000 128.219
57.76000 127.381
57.80000 121.777
57.84000 123.917
57.88000 119.501
57.92000 133.073
57.96000 126.521
58.00000 127.166
58.04000 121.088
58.08000 130.597
58.12000 121.207
58.16000 125.793
58.20000 124.114
58.24000 122.026
58.28000 118.403
58.32000 120.462
58.36000 130.650
58.40000 115.223
58.44000 113.157
58.48000 122.436
58.52000 126.417
58.56000 126.753
58.60000 117.613
58.64000 128.380
58.68000 120.121
58.72000 121.740
58.76000 115.588
58.80000 124.088
58.84000 118.195
58.88000 122.184
58.92000 126.098
58.96000 123.887
59.00000 121.684
59.04000 126.552
59.08000 115.095
59.12000 116.867
59.16000 121.503
59.20000 124.105
59.24000 106.887
59.28000 115.307
59.32000 120.279
59.36000 122.998
59.40000 120.834
59.44000 113.191
59.48000 109.905
59.52000 122.532
59.56000 120.013
59.60000 127.717
59.64000 121.988
59.68000 118.305
59.72000 115.917
59.76000 108.919
59.80000 117.653
59.84000 121.369
59.88000 117.621
59.92000 115.120
59.96000 115.021
60.00000 107.208
60.04000 114.558
60.08000 116.527
60.12000 111.515
60.16000 120.140
60.20000 117.433
60.24000 117.071
60.28000 112.796
60.32000 103.745
60.36000 119.649
60.40000 110.271
60.44000 120.709
60.48000 117.067
60.52000 118.001
60.56000 111.841
60.60000 118.664
60.64000 126.220
60.68000 120.139
60.72000 114.971
60.76000 112.218
60.80000 113.110
60.84000 116.021
60.88000 111.386
60.92000 113.503
60.96000 115.522
61.00000 116.449
61.04000 111.598
61.08000 123.264
61.12000 125.442
61.16000 120.379
61.20000 120.018
61.24000 118.895
61.28000 125.605
61.32000 118.230
61.36000 123.542
61.40000 138.304
61.44000 134.920
61.48000 128.586
61.52000 144.993
61.56000 192.885
61.60000 236.825
61.64000 285.428
61.68000 284.198
61.72000 304.731
61.76000 288.493
61.80000 250.699
61.84000 183.674
61.88000 151.168
61.92000 140.062
61.96000 133.411
62.00000 128.351
62.04000 132.545
62.08000 123.940
62.12000 126.091
62.16000 129.577
62.20000 128.540
62.24000 118.648
62.28000 122.589
62.32000 125.141
62.36000 126.004
62.40000 128.770
62.44000 138.501
62.48000 131.209
62.52000 119.990
62.56000 136.481
62.60000 124.907
62.64000 118.649
62.68000 123.786
62.72000 123.897
62.76000 135.621
62.80000 124.224
62.84000 128.189
62.88000 129.634
62.92000 123.615
62.96000 125.866
63.00000 134.100
63.04000 138.442
63.08000 133.859
63.12000 134.002
63.16000 127.117
63.20000 138.424
63.24000 136.083
63.28000 132.888
63.32000 127.917
63.36000 125.899
63.40000 138.311
63.44000 130.116
63.48000 133.926
63.52000 127.772
63.56000 127.793
63.60000 134.141
63.64000 136.890
63.68000 128.759
63.72000 140.406
63.76000 136.145
63.80000 136.535
63.84000 138.308
63.88000 125.604
63.92000 136.404
63.96000 146.868
64.00000 147.773
64.04000 144.875
64.08000 148.745
64.12000 148.230
64.16000 136.813
64.20000 154.366
64.24000 148.352
64.28000 155.077
64.32000 151.329
64.36000 137.363
64.40000 148.921
64.44000 148.563
64.48000 150.508
64.52000 153.732
64.56000 149.444
64.60000 160.648
64.64000 160.740
64.68000 153.953
64.72000 166.847
64.76000 155.883
64.80000 172.034
64.84000 174.518
64.88000 179.974
64.92000 174.428
64.96000 180.239
65.00000 178.991
65.04000 181.894
65.08000 190.591
65.12000 204.262
65.16000 205.121
65.20000 205.704
65.24000 212.881
65.28000 234.209
65.32000 226.449
65.36000 242.024
65.40000 253.137
65.44000 247.845
65.48000 269.223
65.52000 289.144
65.56000 303.057
65.60000 333.972
65.64000 366.273
65.68000 500.012
65.72000 766.547
65.76000 1231.198
65.80000 1676.205
65.84000 1897.734
65.88000 1951.927
65.92000 1927.737
65.96000 1643.738
66.00000 1191.860
66.04000 716.740
66.08000 506.658
66.12000 416.253
66.16000 362.272
66.20000 351.786
66.24000 354.873
66.28000 409.456
66.32000 500.444
66.36000 575.479
66.40000 609.753
66.44000 621.838
66.48000 579.763
66.52000 545.270
66.56000 454.853
66.60000 400.915
66.64000 352.470
66.68000 355.837
66.72000 354.877
66.76000 360.740
66.80000 351.937
66.84000 360.827
66.88000 360.572
66.92000 366.404
66.96000 363.099
67.00000 369.172
67.04000 369.404
67.08000 377.486
67.12000 369.104
67.16000 385.263
67.20000 399.496
67.24000 381.102
67.28000 388.916
67.32000 405.594
67.36000 415.706
67.40000 411.394
67.44000 409.845
67.48000 404.383
67.52000 418.961
67.56000 438.699
67.60000 431.990
67.64000 455.867
67.68000 436.331
67.72000 434.357
67.76000 447.297
67.80000 440.741
67.84000 463.150
67.88000 449.547
67.92000 483.220
67.96000 472.626
68.00000 474.979
68.04000 493.340
68.08000 513.296
68.12000 518.317
68.16000 519.823
68.20000 513.315
68.24000 544.561
68.28000 563.425
68.32000 554.401
68.36000 599.765
68.40000 605.300
68.44000 627.248
68.48000 645.332
68.52000 676.334
68.56000 730.204
68.60000 793.641
68.64000 931.163
68.68000 1037.603
68.72000 1224.212
68.76000 1408.846
68.80000 1571.312
68.84000 1782.148
68.88000 2104.560
68.92000 3044.444
68.96000 6657.496
69.00000 16889.852
69.04000 30664.424
69.08000 39477.965
69.12000 42967.426
69.16000 45870.207
69.20000 47064.617
69.24000 40360.887
69.28000 29801.471
69.32000 23615.566
69.36000 21665.275
69.40000 19008.076
69.44000 12895.534
69.48000 6358.334
69.52000 2778.099
69.56000 1501.213
69.60000 1113.626
69.64000 956.536
69.68000 838.833
69.72000 745.783
69.76000 657.703
69.80000 646.596
69.84000 599.138
69.88000 563.783
69.92000 549.466
69.96000 523.945
70.00000 507.215