File: XRD/XRD/08-10-2025 Dep 7/XY Data/BTO_Mapping_Theta2Theta_08-10-2025_001_22_-5-000_8-660.xy
20.00000 472.661
20.04000 498.741
20.08000 480.552
20.12000 454.489
20.16000 463.150
20.20000 467.187
20.24000 483.710
20.28000 460.446
20.32000 495.449
20.36000 483.918
20.40000 466.296
20.44000 462.462
20.48000 461.726
20.52000 460.193
20.56000 463.313
20.60000 474.805
20.64000 460.876
20.68000 458.933
20.72000 477.251
20.76000 456.081
20.80000 469.372
20.84000 474.250
20.88000 463.073
20.92000 462.341
20.96000 463.871
21.00000 468.699
21.04000 458.190
21.08000 475.948
21.12000 461.279
21.16000 471.974
21.20000 476.896
21.24000 469.114
21.28000 462.832
21.32000 469.271
21.36000 476.577
21.40000 479.382
21.44000 449.597
21.48000 454.120
21.52000 470.878
21.56000 456.060
21.60000 470.385
21.64000 455.355
21.68000 467.412
21.72000 471.056
21.76000 477.288
21.80000 466.735
21.84000 483.911
21.88000 491.567
21.92000 519.213
21.96000 506.737
22.00000 517.448
22.04000 535.880
22.08000 542.638
22.12000 541.820
22.16000 521.143
22.20000 530.067
22.24000 515.460
22.28000 492.613
22.32000 492.850
22.36000 480.929
22.40000 468.160
22.44000 472.142
22.48000 463.632
22.52000 443.285
22.56000 451.607
22.60000 462.512
22.64000 462.016
22.68000 433.883
22.72000 437.446
22.76000 445.687
22.80000 445.319
22.84000 431.324
22.88000 435.635
22.92000 443.694
22.96000 424.688
23.00000 437.681
23.04000 439.029
23.08000 442.887
23.12000 449.287
23.16000 438.653
23.20000 423.758
23.24000 437.468
23.28000 418.056
23.32000 437.551
23.36000 449.278
23.40000 433.672
23.44000 451.513
23.48000 439.470
23.52000 448.307
23.56000 436.046
23.60000 441.606
23.64000 428.881
23.68000 430.284
23.72000 443.866
23.76000 451.750
23.80000 458.456
23.84000 472.331
23.88000 473.574
23.92000 490.612
23.96000 471.202
24.00000 504.715
24.04000 480.495
24.08000 489.439
24.12000 465.718
24.16000 484.874
24.20000 459.660
24.24000 457.543
24.28000 453.750
24.32000 452.044
24.36000 431.177
24.40000 426.516
24.44000 420.332
24.48000 424.916
24.52000 425.652
24.56000 425.593
24.60000 407.903
24.64000 407.483
24.68000 402.312
24.72000 410.053
24.76000 405.466
24.80000 422.973
24.84000 394.326
24.88000 395.827
24.92000 402.779
24.96000 412.440
25.00000 379.749
25.04000 404.095
25.08000 423.818
25.12000 397.242
25.16000 397.520
25.20000 405.462
25.24000 404.766
25.28000 405.268
25.32000 409.551
25.36000 407.492
25.40000 386.657
25.44000 388.957
25.48000 399.826
25.52000 383.430
25.56000 388.149
25.60000 366.972
25.64000 386.641
25.68000 392.597
25.72000 396.081
25.76000 382.394
25.80000 381.548
25.84000 400.133
25.88000 390.181
25.92000 394.845
25.96000 390.044
26.00000 393.992
26.04000 387.747
26.08000 394.139
26.12000 397.868
26.16000 385.949
26.20000 388.092
26.24000 398.117
26.28000 376.267
26.32000 377.505
26.36000 387.434
26.40000 386.094
26.44000 377.188
26.48000 388.482
26.52000 374.191
26.56000 382.402
26.60000 384.532
26.64000 371.087
26.68000 369.880
26.72000 380.723
26.76000 380.553
26.80000 373.153
26.84000 378.919
26.88000 387.359
26.92000 378.073
26.96000 352.306
27.00000 373.638
27.04000 382.474
27.08000 385.136
27.12000 385.699
27.16000 388.030
27.20000 359.737
27.24000 375.716
27.28000 356.179
27.32000 371.967
27.36000 383.353
27.40000 366.121
27.44000 370.539
27.48000 367.401
27.52000 380.893
27.56000 373.046
27.60000 353.061
27.64000 371.193
27.68000 376.910
27.72000 376.180
27.76000 377.169
27.80000 369.547
27.84000 365.290
27.88000 359.917
27.92000 362.209
27.96000 354.345
28.00000 345.298
28.04000 351.285
28.08000 357.586
28.12000 358.212
28.16000 362.073
28.20000 347.659
28.24000 367.389
28.28000 367.468
28.32000 343.882
28.36000 364.402
28.40000 371.873
28.44000 351.919
28.48000 360.973
28.52000 362.874
28.56000 364.614
28.60000 359.745
28.64000 367.968
28.68000 358.282
28.72000 353.050
28.76000 339.824
28.80000 342.537
28.84000 386.606
28.88000 350.397
28.92000 347.328
28.96000 347.442
29.00000 342.824
29.04000 353.568
29.08000 344.182
29.12000 337.384
29.16000 343.014
29.20000 347.855
29.24000 361.868
29.28000 352.354
29.32000 354.011
29.36000 344.947
29.40000 333.892
29.44000 347.044
29.48000 334.214
29.52000 345.080
29.56000 352.265
29.60000 334.740
29.64000 334.739
29.68000 360.049
29.72000 341.003
29.76000 336.591
29.80000 354.603
29.84000 353.060
29.88000 372.180
29.92000 369.958
29.96000 365.260
30.00000 366.949
30.04000 378.814
30.08000 364.460
30.12000 369.366
30.16000 367.044
30.20000 363.553
30.24000 357.639
30.28000 362.190
30.32000 357.668
30.36000 358.559
30.40000 334.353
30.44000 351.527
30.48000 350.930
30.52000 358.495
30.56000 343.236
30.60000 347.602
30.64000 345.840
30.68000 361.427
30.72000 350.680
30.76000 363.195
30.80000 384.714
30.84000 362.371
30.88000 376.087
30.92000 361.419
30.96000 402.302
31.00000 421.684
31.04000 429.724
31.08000 490.893
31.12000 537.163
31.16000 628.563
31.20000 717.207
31.24000 824.493
31.28000 910.734
31.32000 1042.720
31.36000 1102.807
31.40000 1085.908
31.44000 1091.109
31.48000 984.890
31.52000 855.054
31.56000 735.517
31.60000 650.216
31.64000 589.947
31.68000 501.464
31.72000 459.485
31.76000 452.125
31.80000 398.360
31.84000 366.155
31.88000 373.150
31.92000 361.456
31.96000 349.811
32.00000 335.956
32.04000 333.880
32.08000 348.383
32.12000 335.806
32.16000 331.285
32.20000 336.907
32.24000 324.924
32.28000 317.793
32.32000 330.409
32.36000 345.277
32.40000 332.087
32.44000 303.690
32.48000 314.859
32.52000 325.259
32.56000 319.877
32.60000 310.729
32.64000 323.635
32.68000 315.702
32.72000 317.650
32.76000 328.742
32.80000 310.903
32.84000 313.970
32.88000 322.654
32.92000 311.000
32.96000 308.362
33.00000 324.498
33.04000 315.016
33.08000 311.713
33.12000 309.521
33.16000 310.794
33.20000 299.245
33.24000 296.548
33.28000 302.760
33.32000 288.995
33.36000 293.563
33.40000 287.095
33.44000 280.417
33.48000 304.112
33.52000 290.626
33.56000 302.562
33.60000 288.309
33.64000 288.768
33.68000 300.847
33.72000 301.350
33.76000 293.216
33.80000 300.736
33.84000 289.929
33.88000 293.025
33.92000 301.248
33.96000 310.854
34.00000 316.500
34.04000 313.948
34.08000 317.547
34.12000 320.808
34.16000 328.628
34.20000 325.749
34.24000 313.279
34.28000 329.628
34.32000 341.632
34.36000 346.743
34.40000 345.682
34.44000 353.371
34.48000 340.867
34.52000 337.032
34.56000 316.763
34.60000 331.256
34.64000 309.343
34.68000 307.964
34.72000 295.669
34.76000 320.521
34.80000 297.597
34.84000 308.267
34.88000 286.812
34.92000 290.913
34.96000 298.128
35.00000 274.384
35.04000 263.619
35.08000 281.021
35.12000 278.622
35.16000 271.724
35.20000 271.740
35.24000 270.875
35.28000 277.430
35.32000 265.007
35.36000 279.498
35.40000 279.523
35.44000 271.297
35.48000 275.832
35.52000 264.088
35.56000 270.191
35.60000 247.898
35.64000 260.154
35.68000 256.592
35.72000 256.722
35.76000 259.526
35.80000 262.907
35.84000 264.188
35.88000 261.887
35.92000 248.150
35.96000 259.738
36.00000 264.781
36.04000 250.772
36.08000 266.159
36.12000 251.424
36.16000 266.075
36.20000 258.734
36.24000 253.780
36.28000 258.771
36.32000 263.201
36.36000 259.741
36.40000 262.577
36.44000 256.918
36.48000 256.716
36.52000 252.671
36.56000 249.628
36.60000 252.847
36.64000 258.025
36.68000 265.900
36.72000 256.768
36.76000 251.625
36.80000 262.019
36.84000 261.126
36.88000 276.526
36.92000 273.747
36.96000 272.935
37.00000 284.763
37.04000 294.988
37.08000 289.824
37.12000 285.638
37.16000 268.026
37.20000 272.998
37.24000 264.764
37.28000 274.566
37.32000 271.722
37.36000 269.730
37.40000 254.917
37.44000 255.694
37.48000 257.614
37.52000 263.461
37.56000 232.818
37.60000 262.714
37.64000 262.740
37.68000 272.722
37.72000 261.104
37.76000 266.567
37.80000 250.947
37.84000 254.945
37.88000 240.346
37.92000 246.793
37.96000 246.151
38.00000 253.171
38.04000 257.420
38.08000 261.193
38.12000 259.247
38.16000 272.493
38.20000 266.013
38.24000 289.164
38.28000 281.178
38.32000 317.018
38.36000 340.846
38.40000 383.060
38.44000 450.248
38.48000 521.734
38.52000 623.444
38.56000 761.053
38.60000 905.916
38.64000 1054.232
38.68000 1134.644
38.72000 1153.179
38.76000 1162.917
38.80000 1097.595
38.84000 956.460
38.88000 828.168
38.92000 686.903
38.96000 544.315
39.00000 425.189
39.04000 357.750
39.08000 313.922
39.12000 294.277
39.16000 271.301
39.20000 255.650
39.24000 236.956
39.28000 242.258
39.32000 241.362
39.36000 227.661
39.40000 242.921
39.44000 229.154
39.48000 232.345
39.52000 233.065
39.56000 242.328
39.60000 240.060
39.64000 237.241
39.68000 226.824
39.72000 236.671
39.76000 215.308
39.80000 235.712
39.84000 236.821
39.88000 227.654
39.92000 220.429
39.96000 221.229
40.00000 228.453
40.04000 215.224
40.08000 231.117
40.12000 233.424
40.16000 217.860
40.20000 224.322
40.24000 226.833
40.28000 219.417
40.32000 232.716
40.36000 213.551
40.40000 207.812
40.44000 218.930
40.48000 221.949
40.52000 220.023
40.56000 226.136
40.60000 219.453
40.64000 210.471
40.68000 223.363
40.72000 218.891
40.76000 222.485
40.80000 207.085
40.84000 209.389
40.88000 206.999
40.92000 206.941
40.96000 214.442
41.00000 223.702
41.04000 220.747
41.08000 220.124
41.12000 205.194
41.16000 210.273
41.20000 202.090
41.24000 210.302
41.28000 210.019
41.32000 211.847
41.36000 205.680
41.40000 201.847
41.44000 202.709
41.48000 208.227
41.52000 221.482
41.56000 200.386
41.60000 207.939
41.64000 199.563
41.68000 210.434
41.72000 213.414
41.76000 206.595
41.80000 213.398
41.84000 204.757
41.88000 197.317
41.92000 203.937
41.96000 212.366
42.00000 217.823
42.04000 204.933
42.08000 211.760
42.12000 229.344
42.16000 208.745
42.20000 208.932
42.24000 208.380
42.28000 219.741
42.32000 227.193
42.36000 219.539
42.40000 204.423
42.44000 211.376
42.48000 217.343
42.52000 205.351
42.56000 211.369
42.60000 207.197
42.64000 214.551
42.68000 202.860
42.72000 200.219
42.76000 200.333
42.80000 208.145
42.84000 207.077
42.88000 182.611
42.92000 200.813
42.96000 203.088
43.00000 208.686
43.04000 203.824
43.08000 204.554
43.12000 209.260
43.16000 203.340
43.20000 193.333
43.24000 193.131
43.28000 197.960
43.32000 195.613
43.36000 194.354
43.40000 196.938
43.44000 197.378
43.48000 191.277
43.52000 192.802
43.56000 196.203
43.60000 195.547
43.64000 189.385
43.68000 196.928
43.72000 190.837
43.76000 192.989
43.80000 205.351
43.84000 199.799
43.88000 189.500
43.92000 191.631
43.96000 195.339
44.00000 205.070
44.04000 188.288
44.08000 185.390
44.12000 188.959
44.16000 201.596
44.20000 200.566
44.24000 203.094
44.28000 193.666
44.32000 208.304
44.36000 194.144
44.40000 193.587
44.44000 204.554
44.48000 204.551
44.52000 210.806
44.56000 211.255
44.60000 210.978
44.64000 220.404
44.68000 216.261
44.72000 229.346
44.76000 229.319
44.80000 224.348
44.84000 233.243
44.88000 243.345
44.92000 238.056
44.96000 247.155
45.00000 242.928
45.04000 262.355
45.08000 265.934
45.12000 251.180
45.16000 247.154
45.20000 252.795
45.24000 227.769
45.28000 222.596
45.32000 240.407
45.36000 240.672
45.40000 217.474
45.44000 216.072
45.48000 209.683
45.52000 210.284
45.56000 202.525
45.60000 211.072
45.64000 203.836
45.68000 204.323
45.72000 200.161
45.76000 215.148
45.80000 196.036
45.84000 185.586
45.88000 193.109
45.92000 191.330
45.96000 182.030
46.00000 187.932
46.04000 182.482
46.08000 178.872
46.12000 183.986
46.16000 180.349
46.20000 171.686
46.24000 176.470
46.28000 179.338
46.32000 180.189
46.36000 171.858
46.40000 177.576
46.44000 184.398
46.48000 178.514
46.52000 168.634
46.56000 172.230
46.60000 176.744
46.64000 172.305
46.68000 177.086
46.72000 170.419
46.76000 182.332
46.80000 171.167
46.84000 181.965
46.88000 171.051
46.92000 172.767
46.96000 162.764
47.00000 174.414
47.04000 178.270
47.08000 163.880
47.12000 173.732
47.16000 160.281
47.20000 176.970
47.24000 165.252
47.28000 164.327
47.32000 166.681
47.36000 154.982
47.40000 164.597
47.44000 174.339
47.48000 168.521
47.52000 155.013
47.56000 161.088
47.60000 162.680
47.64000 165.883
47.68000 161.679
47.72000 163.822
47.76000 155.369
47.80000 172.405
47.84000 156.847
47.88000 159.109
47.92000 167.747
47.96000 154.204
48.00000 153.970
48.04000 157.918
48.08000 154.568
48.12000 156.234
48.16000 150.838
48.20000 142.671
48.24000 142.536
48.28000 150.141
48.32000 160.478
48.36000 160.256
48.40000 153.766
48.44000 164.775
48.48000 167.873
48.52000 155.740
48.56000 165.373
48.60000 158.671
48.64000 151.703
48.68000 154.911
48.72000 152.585
48.76000 150.035
48.80000 154.842
48.84000 159.286
48.88000 154.440
48.92000 150.828
48.96000 162.561
49.00000 143.634
49.04000 152.942
49.08000 149.888
49.12000 150.347
49.16000 155.179
49.20000 158.864
49.24000 153.462
49.28000 138.922
49.32000 161.295
49.36000 157.348
49.40000 157.084
49.44000 148.162
49.48000 150.502
49.52000 155.927
49.56000 152.580
49.60000 150.986
49.64000 145.853
49.68000 154.726
49.72000 139.529
49.76000 146.015
49.80000 153.360
49.84000 149.641
49.88000 153.425
49.92000 150.392
49.96000 141.054
50.00000 147.646
50.04000 156.697
50.08000 147.483
50.12000 154.095
50.16000 152.338
50.20000 148.869
50.24000 145.757
50.28000 157.152
50.32000 159.834
50.36000 152.018
50.40000 156.512
50.44000 155.870
50.48000 167.507
50.52000 156.703
50.56000 156.963
50.60000 165.869
50.64000 174.169
50.68000 164.493
50.72000 154.463
50.76000 172.815
50.80000 153.999
50.84000 155.254
50.88000 160.234
50.92000 151.833
50.96000 145.298
51.00000 171.196
51.04000 158.231
51.08000 163.080
51.12000 154.550
51.16000 152.243
51.20000 145.647
51.24000 148.062
51.28000 147.594
51.32000 154.888
51.36000 151.799
51.40000 145.262
51.44000 146.574
51.48000 141.012
51.52000 147.549
51.56000 131.859
51.60000 136.677
51.64000 140.288
51.68000 138.159
51.72000 148.181
51.76000 150.240
51.80000 144.812
51.84000 135.421
51.88000 143.110
51.92000 141.258
51.96000 142.891
52.00000 131.425
52.04000 133.236
52.08000 140.977
52.12000 149.571
52.16000 133.077
52.20000 140.651
52.24000 137.978
52.28000 141.415
52.32000 129.606
52.36000 143.460
52.40000 144.173
52.44000 137.155
52.48000 152.303
52.52000 136.756
52.56000 142.824
52.60000 126.537
52.64000 136.574
52.68000 152.889
52.72000 152.267
52.76000 139.724
52.80000 142.663
52.84000 135.451
52.88000 144.771
52.92000 144.738
52.96000 140.265
53.00000 134.234
53.04000 135.393
53.08000 142.929
53.12000 148.940
53.16000 137.205
53.20000 154.304
53.24000 158.354
53.28000 161.453
53.32000 158.122
53.36000 164.377
53.40000 158.859
53.44000 162.819
53.48000 154.208
53.52000 151.720
53.56000 157.177
53.60000 149.300
53.64000 146.805
53.68000 144.441
53.72000 134.239
53.76000 132.958
53.80000 151.679
53.84000 147.395
53.88000 140.552
53.92000 143.380
53.96000 140.804
54.00000 137.436
54.04000 140.840
54.08000 131.789
54.12000 146.971
54.16000 144.159
54.20000 138.973
54.24000 137.512
54.28000 137.348
54.32000 141.337
54.36000 145.289
54.40000 140.484
54.44000 130.211
54.48000 141.965
54.52000 133.435
54.56000 137.203
54.60000 137.674
54.64000 143.627
54.68000 139.971
54.72000 137.982
54.76000 143.983
54.80000 144.034
54.84000 138.401
54.88000 139.378
54.92000 145.162
54.96000 138.151
55.00000 147.391
55.04000 145.432
55.08000 145.176
55.12000 152.659
55.16000 150.268
55.20000 153.319
55.24000 163.048
55.28000 167.515
55.32000 164.141
55.36000 171.211
55.40000 174.132
55.44000 181.386
55.48000 195.696
55.52000 227.952
55.56000 254.811
55.60000 281.373
55.64000 335.679
55.68000 370.391
55.72000 441.185
55.76000 514.207
55.80000 566.989
55.84000 603.750
55.88000 671.386
55.92000 700.026
55.96000 722.922
56.00000 680.731
56.04000 646.457
56.08000 579.585
56.12000 513.463
56.16000 444.952
56.20000 395.204
56.24000 331.359
56.28000 302.451
56.32000 252.954
56.36000 231.765
56.40000 200.128
56.44000 179.034
56.48000 166.406
56.52000 152.063
56.56000 150.933
56.60000 149.315
56.64000 141.520
56.68000 135.643
56.72000 137.191
56.76000 124.565
56.80000 137.837
56.84000 127.423
56.88000 127.215
56.92000 134.697
56.96000 135.673
57.00000 146.523
57.04000 129.007
57.08000 131.773
57.12000 136.361
57.16000 136.444
57.20000 132.231
57.24000 130.182
57.28000 127.770
57.32000 114.489
57.36000 128.684
57.40000 134.164
57.44000 120.156
57.48000 133.486
57.52000 129.786
57.56000 136.500
57.60000 132.300
57.64000 121.799
57.68000 126.118
57.72000 125.415
57.76000 126.951
57.80000 121.961
57.84000 131.046
57.88000 119.614
57.92000 126.873
57.96000 123.180
58.00000 122.481
58.04000 128.149
58.08000 121.191
58.12000 110.975
58.16000 125.155
58.20000 123.519
58.24000 120.577
58.28000 126.712
58.32000 132.859
58.36000 124.540
58.40000 117.022
58.44000 113.732
58.48000 126.063
58.52000 115.626
58.56000 117.867
58.60000 119.540
58.64000 112.944
58.68000 117.873
58.72000 119.892
58.76000 117.904
58.80000 112.389
58.84000 117.605
58.88000 119.003
58.92000 108.764
58.96000 111.739
59.00000 117.861
59.04000 113.873
59.08000 124.817
59.12000 121.196
59.16000 127.521
59.20000 116.268
59.24000 113.199
59.28000 117.596
59.32000 115.834
59.36000 119.201
59.40000 122.650
59.44000 115.798
59.48000 114.890
59.52000 120.208
59.56000 115.543
59.60000 124.486
59.64000 119.690
59.68000 111.201
59.72000 128.449
59.76000 116.315
59.80000 116.782
59.84000 117.254
59.88000 117.069
59.92000 113.379
59.96000 117.689
60.00000 116.463
60.04000 113.063
60.08000 119.020
60.12000 133.079
60.16000 119.931
60.20000 108.944
60.24000 123.996
60.28000 121.644
60.32000 117.997
60.36000 113.928
60.40000 123.791
60.44000 105.929
60.48000 111.381
60.52000 113.235
60.56000 118.571
60.60000 132.083
60.64000 116.774
60.68000 116.227
60.72000 112.551
60.76000 123.110
60.80000 122.458
60.84000 106.933
60.88000 123.222
60.92000 109.111
60.96000 120.106
61.00000 110.256
61.04000 121.228
61.08000 121.903
61.12000 129.533
61.16000 125.352
61.20000 124.736
61.24000 127.203
61.28000 122.178
61.32000 125.208
61.36000 122.293
61.40000 127.189
61.44000 128.163
61.48000 120.234
61.52000 150.290
61.56000 183.109
61.60000 237.508
61.64000 289.115
61.68000 286.173
61.72000 297.796
61.76000 280.918
61.80000 241.993
61.84000 182.057
61.88000 142.951
61.92000 136.906
61.96000 124.812
62.00000 123.200
62.04000 127.132
62.08000 125.557
62.12000 122.532
62.16000 124.937
62.20000 115.940
62.24000 123.289
62.28000 123.457
62.32000 122.900
62.36000 122.421
62.40000 134.756
62.44000 134.330
62.48000 134.776
62.52000 127.983
62.56000 128.067
62.60000 130.886
62.64000 120.602
62.68000 122.433
62.72000 130.354
62.76000 123.705
62.80000 133.768
62.84000 128.260
62.88000 122.616
62.92000 139.375
62.96000 130.421
63.00000 130.540
63.04000 129.847
63.08000 130.383
63.12000 130.066
63.16000 132.977
63.20000 136.159
63.24000 126.575
63.28000 134.112
63.32000 133.419
63.36000 130.697
63.40000 127.236
63.44000 130.164
63.48000 128.449
63.52000 134.396
63.56000 129.734
63.60000 129.554
63.64000 140.723
63.68000 137.179
63.72000 153.484
63.76000 138.845
63.80000 143.015
63.84000 133.846
63.88000 137.876
63.92000 138.961
63.96000 140.864
64.00000 138.720
64.04000 152.187
64.08000 135.193
64.12000 141.320
64.16000 144.516
64.20000 148.038
64.24000 155.653
64.28000 154.341
64.32000 150.550
64.36000 145.882
64.40000 147.353
64.44000 162.705
64.48000 149.215
64.52000 167.601
64.56000 154.431
64.60000 160.249
64.64000 158.722
64.68000 159.251
64.72000 161.241
64.76000 169.139
64.80000 165.878
64.84000 169.618
64.88000 175.414
64.92000 175.337
64.96000 183.319
65.00000 191.091
65.04000 180.975
65.08000 190.367
65.12000 204.278
65.16000 193.593
65.20000 200.187
65.24000 219.049
65.28000 234.143
65.32000 233.144
65.36000 235.267
65.40000 260.823
65.44000 246.399
65.48000 272.574
65.52000 299.558
65.56000 316.686
65.60000 352.451
65.64000 389.691
65.68000 533.857
65.72000 791.307
65.76000 1264.593
65.80000 1641.378
65.84000 1934.085
65.88000 1930.445
65.92000 1877.700
65.96000 1603.161
66.00000 1090.341
66.04000 692.027
66.08000 489.744
66.12000 371.552
66.16000 361.593
66.20000 365.801
66.24000 387.443
66.28000 427.898
66.32000 517.557
66.36000 575.693
66.40000 622.002
66.44000 633.762
66.48000 587.384
66.52000 533.733
66.56000 468.349
66.60000 404.990
66.64000 352.016
66.68000 349.133
66.72000 344.233
66.76000 357.376
66.80000 342.027
66.84000 336.260
66.88000 335.767
66.92000 348.859
66.96000 358.223
67.00000 357.878
67.04000 368.796
67.08000 348.127
67.12000 369.954
67.16000 353.031
67.20000 376.342
67.24000 376.340
67.28000 388.596
67.32000 391.655
67.36000 409.981
67.40000 377.899
67.44000 406.213
67.48000 410.761
67.52000 415.222
67.56000 404.342
67.60000 428.246
67.64000 441.134
67.68000 453.068
67.72000 445.997
67.76000 454.510
67.80000 434.529
67.84000 474.477
67.88000 471.631
67.92000 478.907
67.96000 478.866
68.00000 471.420
68.04000 494.617
68.08000 513.247
68.12000 520.378
68.16000 523.062
68.20000 530.879
68.24000 546.878
68.28000 561.628
68.32000 580.551
68.36000 593.155
68.40000 609.324
68.44000 620.728
68.48000 640.188
68.52000 682.159
68.56000 728.999
68.60000 822.979
68.64000 949.778
68.68000 1063.336
68.72000 1225.209
68.76000 1391.801
68.80000 1589.707
68.84000 1808.727
68.88000 2189.624
68.92000 3252.757
68.96000 7497.869
69.00000 18560.404
69.04000 31639.125
69.08000 39798.281
69.12000 42969.926
69.16000 45674.055
69.20000 46187.039
69.24000 38754.977
69.28000 28595.613
69.32000 22835.174
69.36000 21020.793
69.40000 18223.139
69.44000 11791.423
69.48000 5546.335
69.52000 2484.123
69.56000 1415.041
69.60000 1075.400
69.64000 919.116
69.68000 796.919
69.72000 741.860
69.76000 664.037
69.80000 618.306
69.84000 593.036
69.88000 569.833
69.92000 547.410
69.96000 508.794
70.00000 505.323