File: XRD/XRD/08-10-2025 Dep 7/XY Data/BTO_Mapping_Theta2Theta_08-10-2025_001_54_6-691_-7-431.xy
20.00000 472.277
20.04000 477.230
20.08000 479.317
20.12000 465.428
20.16000 471.796
20.20000 478.169
20.24000 471.144
20.28000 463.127
20.32000 475.368
20.36000 473.329
20.40000 474.252
20.44000 464.040
20.48000 468.926
20.52000 477.486
20.56000 477.688
20.60000 466.356
20.64000 475.619
20.68000 473.403
20.72000 444.507
20.76000 459.382
20.80000 462.997
20.84000 462.948
20.88000 475.664
20.92000 460.911
20.96000 480.162
21.00000 482.652
21.04000 468.841
21.08000 461.721
21.12000 464.258
21.16000 446.450
21.20000 475.067
21.24000 465.533
21.28000 459.598
21.32000 471.023
21.36000 459.995
21.40000 472.188
21.44000 468.281
21.48000 469.582
21.52000 474.084
21.56000 474.095
21.60000 472.041
21.64000 454.950
21.68000 492.330
21.72000 466.799
21.76000 475.823
21.80000 502.803
21.84000 498.864
21.88000 499.801
21.92000 530.307
21.96000 545.522
22.00000 535.976
22.04000 541.000
22.08000 524.474
22.12000 503.297
22.16000 522.302
22.20000 530.273
22.24000 504.913
22.28000 508.115
22.32000 489.982
22.36000 467.850
22.40000 471.315
22.44000 472.029
22.48000 465.096
22.52000 462.706
22.56000 465.652
22.60000 448.232
22.64000 460.702
22.68000 452.215
22.72000 430.309
22.76000 446.720
22.80000 425.884
22.84000 440.540
22.88000 433.226
22.92000 429.928
22.96000 448.401
23.00000 440.301
23.04000 446.223
23.08000 446.586
23.12000 468.919
23.16000 448.148
23.20000 445.246
23.24000 452.792
23.28000 441.879
23.32000 447.527
23.36000 441.387
23.40000 437.096
23.44000 423.480
23.48000 442.293
23.52000 439.279
23.56000 442.428
23.60000 439.806
23.64000 463.507
23.68000 449.753
23.72000 465.792
23.76000 465.705
23.80000 487.631
23.84000 501.398
23.88000 510.369
23.92000 518.123
23.96000 517.462
24.00000 505.052
24.04000 500.530
24.08000 496.622
24.12000 501.794
24.16000 485.519
24.20000 453.559
24.24000 439.654
24.28000 443.908
24.32000 457.428
24.36000 454.489
24.40000 439.417
24.44000 427.332
24.48000 422.558
24.52000 427.567
24.56000 434.608
24.60000 431.397
24.64000 424.885
24.68000 411.562
24.72000 421.636
24.76000 400.743
24.80000 399.957
24.84000 403.219
24.88000 398.226
24.92000 407.462
24.96000 417.102
25.00000 411.710
25.04000 405.122
25.08000 392.560
25.12000 400.322
25.16000 403.370
25.20000 422.717
25.24000 397.413
25.28000 394.333
25.32000 401.497
25.36000 401.558
25.40000 400.471
25.44000 389.785
25.48000 387.161
25.52000 395.078
25.56000 399.664
25.60000 416.827
25.64000 408.969
25.68000 392.653
25.72000 389.732
25.76000 381.793
25.80000 386.305
25.84000 389.425
25.88000 403.385
25.92000 412.084
25.96000 400.651
26.00000 404.510
26.04000 395.208
26.08000 385.753
26.12000 398.377
26.16000 390.398
26.20000 403.783
26.24000 382.087
26.28000 393.829
26.32000 384.405
26.36000 389.106
26.40000 401.638
26.44000 385.045
26.48000 387.478
26.52000 397.268
26.56000 392.616
26.60000 375.806
26.64000 392.523
26.68000 375.835
26.72000 390.744
26.76000 369.050
26.80000 370.831
26.84000 375.087
26.88000 368.230
26.92000 366.037
26.96000 359.769
27.00000 378.958
27.04000 379.724
27.08000 395.878
27.12000 393.254
27.16000 377.429
27.20000 379.479
27.24000 375.508
27.28000 374.044
27.32000 378.456
27.36000 372.590
27.40000 371.536
27.44000 382.863
27.48000 378.192
27.52000 379.230
27.56000 369.270
27.60000 365.422
27.64000 357.549
27.68000 385.735
27.72000 363.564
27.76000 372.176
27.80000 362.540
27.84000 379.131
27.88000 367.935
27.92000 376.112
27.96000 369.545
28.00000 355.936
28.04000 379.768
28.08000 359.941
28.12000 371.151
28.16000 358.321
28.20000 375.089
28.24000 350.172
28.28000 376.583
28.32000 387.516
28.36000 362.198
28.40000 366.656
28.44000 358.351
28.48000 371.845
28.52000 377.286
28.56000 358.408
28.60000 362.964
28.64000 376.439
28.68000 372.061
28.72000 348.540
28.76000 348.938
28.80000 348.812
28.84000 344.880
28.88000 355.746
28.92000 365.549
28.96000 348.107
29.00000 367.639
29.04000 358.084
29.08000 348.056
29.12000 343.675
29.16000 362.110
29.20000 340.555
29.24000 340.609
29.28000 352.107
29.32000 346.949
29.36000 334.088
29.40000 359.751
29.44000 351.369
29.48000 354.683
29.52000 346.580
29.56000 355.937
29.60000 352.629
29.64000 358.876
29.68000 369.865
29.72000 356.997
29.76000 357.070
29.80000 372.113
29.84000 374.229
29.88000 377.357
29.92000 389.134
29.96000 380.056
30.00000 371.638
30.04000 365.263
30.08000 384.634
30.12000 371.961
30.16000 366.538
30.20000 385.089
30.24000 359.984
30.28000 348.486
30.32000 363.763
30.36000 357.513
30.40000 356.053
30.44000 363.310
30.48000 363.498
30.52000 359.440
30.56000 351.318
30.60000 378.962
30.64000 371.465
30.68000 364.837
30.72000 376.328
30.76000 375.031
30.80000 380.050
30.84000 380.655
30.88000 386.254
30.92000 394.392
30.96000 425.346
31.00000 451.268
31.04000 486.647
31.08000 544.258
31.12000 617.145
31.16000 692.072
31.20000 801.615
31.24000 915.915
31.28000 1050.648
31.32000 1132.323
31.36000 1202.987
31.40000 1178.941
31.44000 1150.042
31.48000 1066.516
31.52000 949.717
31.56000 811.197
31.60000 694.726
31.64000 605.754
31.68000 525.491
31.72000 466.706
31.76000 419.380
31.80000 403.247
31.84000 401.123
31.88000 378.814
31.92000 371.313
31.96000 363.364
32.00000 349.768
32.04000 347.487
32.08000 318.830
32.12000 352.784
32.16000 350.995
32.20000 329.708
32.24000 347.244
32.28000 335.985
32.32000 338.812
32.36000 338.878
32.40000 328.884
32.44000 324.118
32.48000 334.193
32.52000 324.410
32.56000 324.791
32.60000 324.762
32.64000 318.120
32.68000 317.633
32.72000 330.259
32.76000 321.883
32.80000 308.609
32.84000 311.458
32.88000 319.477
32.92000 328.980
32.96000 311.404
33.00000 323.913
33.04000 304.846
33.08000 307.173
33.12000 313.435
33.16000 303.436
33.20000 305.648
33.24000 307.503
33.28000 292.399
33.32000 315.116
33.36000 311.713
33.40000 312.166
33.44000 302.106
33.48000 300.325
33.52000 289.397
33.56000 293.657
33.60000 276.727
33.64000 315.559
33.68000 317.076
33.72000 299.840
33.76000 308.183
33.80000 298.283
33.84000 303.469
33.88000 308.047
33.92000 317.203
33.96000 318.146
34.00000 309.583
34.04000 319.144
34.08000 324.091
34.12000 332.120
34.16000 318.931
34.20000 343.420
34.24000 347.166
34.28000 358.237
34.32000 360.553
34.36000 349.121
34.40000 362.266
34.44000 364.532
34.48000 356.409
34.52000 341.791
34.56000 343.763
34.60000 350.979
34.64000 326.616
34.68000 327.867
34.72000 306.907
34.76000 309.336
34.80000 297.075
34.84000 305.528
34.88000 292.825
34.92000 285.242
34.96000 285.587
35.00000 276.512
35.04000 275.052
35.08000 277.606
35.12000 272.796
35.16000 252.183
35.20000 288.336
35.24000 282.999
35.28000 283.570
35.32000 280.456
35.36000 281.525
35.40000 278.801
35.44000 276.534
35.48000 276.384
35.52000 284.895
35.56000 275.059
35.60000 276.972
35.64000 265.405
35.68000 249.767
35.72000 268.680
35.76000 273.558
35.80000 260.115
35.84000 273.227
35.88000 257.102
35.92000 261.374
35.96000 269.382
36.00000 246.349
36.04000 253.333
36.08000 251.916
36.12000 262.113
36.16000 265.080
36.20000 262.056
36.24000 246.605
36.28000 262.714
36.32000 268.712
36.36000 267.303
36.40000 254.608
36.44000 255.749
36.48000 264.791
36.52000 236.651
36.56000 256.246
36.60000 266.923
36.64000 268.063
36.68000 263.169
36.72000 256.542
36.76000 256.762
36.80000 257.743
36.84000 266.853
36.88000 265.532
36.92000 273.950
36.96000 275.833
37.00000 277.428
37.04000 297.428
37.08000 285.605
37.12000 282.684
37.16000 259.898
37.20000 269.490
37.24000 272.458
37.28000 261.884
37.32000 258.618
37.36000 263.328
37.40000 250.833
37.44000 255.715
37.48000 259.052
37.52000 260.005
37.56000 260.621
37.60000 256.220
37.64000 252.755
37.68000 257.762
37.72000 259.990
37.76000 268.095
37.80000 258.379
37.84000 253.612
37.88000 251.641
37.92000 252.584
37.96000 261.095
38.00000 256.719
38.04000 246.380
38.08000 261.505
38.12000 253.021
38.16000 262.819
38.20000 275.792
38.24000 272.770
38.28000 269.282
38.32000 302.377
38.36000 329.908
38.40000 381.446
38.44000 445.036
38.48000 529.886
38.52000 633.841
38.56000 758.908
38.60000 881.396
38.64000 1007.298
38.68000 1082.682
38.72000 1140.271
38.76000 1097.549
38.80000 1018.878
38.84000 887.122
38.88000 754.700
38.92000 600.549
38.96000 490.049
39.00000 389.872
39.04000 342.057
39.08000 298.669
39.12000 263.943
39.16000 264.402
39.20000 248.905
39.24000 255.358
39.28000 240.515
39.32000 244.804
39.36000 240.264
39.40000 246.666
39.44000 239.743
39.48000 238.861
39.52000 246.594
39.56000 246.086
39.60000 237.588
39.64000 245.293
39.68000 239.796
39.72000 239.182
39.76000 236.266
39.80000 243.721
39.84000 248.009
39.88000 241.217
39.92000 232.265
39.96000 230.953
40.00000 233.356
40.04000 236.144
40.08000 221.757
40.12000 220.572
40.16000 224.846
40.20000 221.840
40.24000 222.780
40.28000 217.489
40.32000 225.499
40.36000 218.591
40.40000 224.733
40.44000 219.815
40.48000 225.378
40.52000 224.525
40.56000 219.662
40.60000 222.143
40.64000 228.410
40.68000 236.129
40.72000 223.867
40.76000 224.505
40.80000 216.971
40.84000 217.245
40.88000 203.283
40.92000 212.949
40.96000 220.512
41.00000 214.747
41.04000 220.641
41.08000 208.691
41.12000 214.273
41.16000 214.894
41.20000 201.393
41.24000 208.903
41.28000 208.060
41.32000 211.008
41.36000 216.233
41.40000 212.883
41.44000 216.972
41.48000 206.446
41.52000 218.035
41.56000 214.056
41.60000 210.705
41.64000 201.928
41.68000 211.324
41.72000 203.465
41.76000 210.144
41.80000 208.892
41.84000 212.676
41.88000 199.688
41.92000 215.419
41.96000 220.840
42.00000 220.675
42.04000 230.472
42.08000 229.513
42.12000 213.244
42.16000 213.615
42.20000 216.096
42.24000 204.625
42.28000 218.038
42.32000 217.852
42.36000 203.332
42.40000 219.471
42.44000 197.457
42.48000 214.842
42.52000 209.939
42.56000 208.505
42.60000 210.056
42.64000 206.283
42.68000 209.077
42.72000 207.603
42.76000 202.540
42.80000 202.328
42.84000 201.301
42.88000 201.447
42.92000 205.576
42.96000 213.575
43.00000 207.907
43.04000 203.263
43.08000 208.499
43.12000 198.119
43.16000 188.108
43.20000 209.815
43.24000 200.845
43.28000 198.362
43.32000 189.154
43.36000 177.281
43.40000 198.075
43.44000 203.332
43.48000 198.637
43.52000 202.148
43.56000 190.568
43.60000 194.648
43.64000 184.807
43.68000 192.476
43.72000 194.911
43.76000 187.777
43.80000 189.997
43.84000 198.474
43.88000 199.689
43.92000 203.145
43.96000 195.919
44.00000 194.155
44.04000 192.242
44.08000 198.111
44.12000 180.970
44.16000 192.718
44.20000 191.006
44.24000 192.346
44.28000 213.748
44.32000 208.428
44.36000 206.060
44.40000 209.477
44.44000 202.964
44.48000 204.696
44.52000 213.671
44.56000 207.085
44.60000 225.647
44.64000 224.339
44.68000 223.821
44.72000 219.954
44.76000 218.118
44.80000 234.033
44.84000 252.789
44.88000 244.717
44.92000 243.925
44.96000 243.447
45.00000 258.410
45.04000 258.925
45.08000 265.303
45.12000 250.761
45.16000 251.425
45.20000 248.020
45.24000 250.264
45.28000 245.562
45.32000 226.120
45.36000 226.943
45.40000 216.655
45.44000 225.546
45.48000 202.692
45.52000 203.544
45.56000 214.466
45.60000 205.527
45.64000 206.451
45.68000 204.759
45.72000 200.498
45.76000 194.026
45.80000 181.627
45.84000 195.314
45.88000 182.958
45.92000 181.391
45.96000 178.816
46.00000 187.223
46.04000 188.090
46.08000 182.391
46.12000 180.470
46.16000 177.243
46.20000 181.433
46.24000 192.285
46.28000 177.447
46.32000 170.649
46.36000 169.462
46.40000 176.434
46.44000 179.750
46.48000 183.114
46.52000 185.640
46.56000 186.724
46.60000 183.009
46.64000 179.057
46.68000 171.606
46.72000 187.296
46.76000 172.078
46.80000 165.549
46.84000 180.828
46.88000 175.809
46.92000 178.093
46.96000 182.828
47.00000 167.333
47.04000 180.174
47.08000 163.064
47.12000 173.763
47.16000 159.035
47.20000 171.543
47.24000 170.606
47.28000 171.754
47.32000 171.807
47.36000 162.431
47.40000 161.379
47.44000 160.606
47.48000 165.933
47.52000 159.445
47.56000 178.011
47.60000 157.677
47.64000 164.297
47.68000 170.007
47.72000 169.388
47.76000 168.468
47.80000 165.038
47.84000 163.001
47.88000 153.838
47.92000 165.333
47.96000 158.787
48.00000 172.805
48.04000 159.128
48.08000 165.810
48.12000 161.658
48.16000 161.097
48.20000 155.687
48.24000 165.316
48.28000 157.419
48.32000 156.732
48.36000 154.390
48.40000 159.748
48.44000 159.746
48.48000 149.643
48.52000 158.389
48.56000 161.354
48.60000 158.236
48.64000 158.065
48.68000 170.606
48.72000 155.837
48.76000 156.706
48.80000 157.723
48.84000 152.495
48.88000 169.173
48.92000 162.135
48.96000 152.698
49.00000 158.891
49.04000 156.920
49.08000 148.243
49.12000 146.957
49.16000 153.035
49.20000 157.741
49.24000 159.725
49.28000 161.868
49.32000 154.200
49.36000 151.313
49.40000 157.631
49.44000 165.213
49.48000 157.255
49.52000 155.239
49.56000 155.149
49.60000 154.233
49.64000 137.978
49.68000 146.506
49.72000 148.084
49.76000 147.953
49.80000 152.638
49.84000 151.371
49.88000 150.176
49.92000 150.315
49.96000 154.410
50.00000 153.347
50.04000 160.519
50.08000 148.365
50.12000 156.855
50.16000 145.783
50.20000 150.204
50.24000 151.009
50.28000 147.627
50.32000 151.959
50.36000 157.746
50.40000 161.010
50.44000 154.029
50.48000 159.238
50.52000 163.221
50.56000 160.884
50.60000 154.247
50.64000 161.877
50.68000 160.269
50.72000 156.609
50.76000 160.684
50.80000 164.469
50.84000 162.375
50.88000 150.858
50.92000 160.975
50.96000 155.624
51.00000 157.477
51.04000 150.553
51.08000 160.462
51.12000 150.866
51.16000 148.950
51.20000 144.862
51.24000 145.034
51.28000 138.827
51.32000 139.961
51.36000 140.293
51.40000 152.495
51.44000 143.827
51.48000 149.874
51.52000 137.973
51.56000 134.663
51.60000 135.488
51.64000 151.606
51.68000 147.527
51.72000 136.398
51.76000 150.278
51.80000 141.819
51.84000 143.545
51.88000 138.812
51.92000 140.305
51.96000 137.372
52.00000 149.602
52.04000 148.229
52.08000 144.551
52.12000 142.412
52.16000 145.141
52.20000 143.405
52.24000 141.002
52.28000 140.339
52.32000 140.344
52.36000 134.398
52.40000 144.126
52.44000 139.839
52.48000 139.538
52.52000 138.980
52.56000 143.165
52.60000 140.871
52.64000 132.127
52.68000 150.119
52.72000 140.554
52.76000 132.006
52.80000 137.472
52.84000 135.267
52.88000 139.118
52.92000 133.075
52.96000 131.969
53.00000 141.037
53.04000 140.735
53.08000 143.499
53.12000 147.878
53.16000 147.612
53.20000 153.708
53.24000 159.261
53.28000 147.677
53.32000 159.020
53.36000 162.211
53.40000 156.995
53.44000 155.512
53.48000 156.264
53.52000 160.886
53.56000 154.361
53.60000 138.711
53.64000 155.077
53.68000 147.409
53.72000 145.166
53.76000 138.628
53.80000 136.662
53.84000 133.097
53.88000 143.267
53.92000 144.786
53.96000 147.223
54.00000 140.729
54.04000 136.121
54.08000 138.247
54.12000 135.657
54.16000 139.427
54.20000 137.773
54.24000 154.265
54.28000 144.312
54.32000 141.815
54.36000 151.131
54.40000 148.334
54.44000 135.330
54.48000 137.145
54.52000 137.117
54.56000 144.112
54.60000 136.479
54.64000 144.531
54.68000 137.437
54.72000 137.680
54.76000 144.165
54.80000 138.413
54.84000 144.437
54.88000 144.293
54.92000 142.666
54.96000 149.872
55.00000 145.583
55.04000 159.545
55.08000 154.891
55.12000 152.896
55.16000 145.730
55.20000 164.239
55.24000 161.012
55.28000 153.195
55.32000 157.279
55.36000 175.232
55.40000 180.885
55.44000 188.380
55.48000 205.616
55.52000 227.341
55.56000 251.116
55.60000 289.166
55.64000 326.722
55.68000 372.162
55.72000 412.322
55.76000 459.719
55.80000 504.313
55.84000 569.172
55.88000 627.035
55.92000 634.881
55.96000 627.559
56.00000 637.981
56.04000 583.193
56.08000 527.775
56.12000 488.175
56.16000 422.074
56.20000 359.231
56.24000 314.129
56.28000 282.875
56.32000 231.906
56.36000 209.702
56.40000 190.551
56.44000 177.514
56.48000 170.459
56.52000 162.493
56.56000 154.914
56.60000 151.917
56.64000 135.436
56.68000 153.032
56.72000 137.417
56.76000 138.733
56.80000 130.296
56.84000 132.616
56.88000 120.084
56.92000 135.536
56.96000 133.650
57.00000 128.419
57.04000 131.060
57.08000 131.433
57.12000 131.625
57.16000 128.639
57.20000 119.134
57.24000 132.386
57.28000 123.823
57.32000 130.805
57.36000 133.635
57.40000 135.899
57.44000 132.971
57.48000 134.027
57.52000 128.952
57.56000 126.983
57.60000 118.157
57.64000 134.977
57.68000 120.277
57.72000 132.063
57.76000 135.219
57.80000 134.752
57.84000 122.354
57.88000 122.481
57.92000 127.880
57.96000 130.501
58.00000 121.797
58.04000 130.068
58.08000 118.326
58.12000 118.410
58.16000 115.737
58.20000 119.147
58.24000 117.520
58.28000 119.526
58.32000 119.148
58.36000 131.839
58.40000 111.292
58.44000 120.887
58.48000 115.556
58.52000 118.943
58.56000 120.154
58.60000 122.059
58.64000 123.266
58.68000 118.643
58.72000 128.021
58.76000 110.883
58.80000 119.973
58.84000 123.281
58.88000 126.717
58.92000 121.676
58.96000 116.173
59.00000 117.752
59.04000 119.717
59.08000 113.587
59.12000 109.499
59.16000 119.155
59.20000 123.812
59.24000 122.818
59.28000 130.347
59.32000 120.199
59.36000 122.717
59.40000 119.879
59.44000 116.273
59.48000 110.475
59.52000 122.721
59.56000 119.549
59.60000 123.678
59.64000 126.626
59.68000 119.927
59.72000 124.069
59.76000 127.474
59.80000 117.499
59.84000 114.196
59.88000 116.300
59.92000 118.028
59.96000 121.941
60.00000 127.162
60.04000 117.150
60.08000 115.187
60.12000 119.157
60.16000 122.082
60.20000 120.178
60.24000 116.034
60.28000 108.369
60.32000 117.094
60.36000 108.577
60.40000 114.367
60.44000 115.233
60.48000 118.856
60.52000 112.941
60.56000 115.515
60.60000 120.215
60.64000 133.858
60.68000 115.238
60.72000 121.705
60.76000 132.270
60.80000 122.494
60.84000 125.378
60.88000 115.268
60.92000 111.160
60.96000 126.746
61.00000 126.595
61.04000 119.717
61.08000 114.524
61.12000 119.095
61.16000 115.744
61.20000 117.131
61.24000 123.475
61.28000 118.534
61.32000 130.264
61.36000 121.532
61.40000 123.364
61.44000 125.653
61.48000 134.592
61.52000 157.787
61.56000 198.189
61.60000 238.626
61.64000 269.456
61.68000 287.144
61.72000 288.576
61.76000 253.485
61.80000 215.290
61.84000 168.802
61.88000 148.882
61.92000 138.432
61.96000 134.102
62.00000 128.360
62.04000 140.774
62.08000 133.734
62.12000 122.995
62.16000 126.758
62.20000 127.740
62.24000 130.875
62.28000 137.248
62.32000 126.264
62.36000 123.589
62.40000 127.168
62.44000 123.868
62.48000 123.286
62.52000 120.829
62.56000 133.420
62.60000 140.469
62.64000 137.183
62.68000 131.533
62.72000 118.695
62.76000 130.221
62.80000 143.096
62.84000 129.735
62.88000 135.502
62.92000 127.550
62.96000 129.815
63.00000 126.384
63.04000 129.468
63.08000 134.619
63.12000 140.443
63.16000 129.193
63.20000 127.597
63.24000 135.986
63.28000 133.025
63.32000 134.647
63.36000 134.891
63.40000 118.564
63.44000 132.731
63.48000 137.044
63.52000 129.191
63.56000 143.874
63.60000 130.666
63.64000 141.309
63.68000 135.455
63.72000 144.375
63.76000 137.747
63.80000 140.607
63.84000 138.844
63.88000 143.761
63.92000 141.201
63.96000 144.499
64.00000 144.360
64.04000 145.387
64.08000 146.558
64.12000 146.666
64.16000 144.867
64.20000 141.898
64.24000 150.085
64.28000 151.826
64.32000 148.568
64.36000 156.037
64.40000 159.280
64.44000 150.902
64.48000 155.657
64.52000 162.573
64.56000 162.169
64.60000 164.773
64.64000 154.915
64.68000 174.327
64.72000 162.761
64.76000 160.373
64.80000 168.507
64.84000 177.321
64.88000 186.280
64.92000 176.884
64.96000 178.843
65.00000 187.348
65.04000 189.975
65.08000 193.943
65.12000 204.199
65.16000 198.757
65.20000 214.826
65.24000 207.551
65.28000 230.204
65.32000 227.154
65.36000 248.303
65.40000 239.760
65.44000 278.115
65.48000 274.672
65.52000 290.122
65.56000 324.661
65.60000 343.365
65.64000 394.513
65.68000 556.603
65.72000 853.800
65.76000 1325.123
65.80000 1709.525
65.84000 1862.848
65.88000 1860.986
65.92000 1829.970
65.96000 1420.847
66.00000 955.051
66.04000 633.028
66.08000 454.685
66.12000 386.061
66.16000 357.074
66.20000 349.270
66.24000 382.082
66.28000 427.241
66.32000 497.511
66.36000 567.453
66.40000 593.929
66.44000 578.338
66.48000 563.656
66.52000 506.005
66.56000 405.148
66.60000 367.828
66.64000 347.837
66.68000 336.636
66.72000 343.710
66.76000 340.630
66.80000 353.288
66.84000 348.320
66.88000 334.505
66.92000 353.339
66.96000 370.332
67.00000 354.906
67.04000 366.927
67.08000 356.304
67.12000 371.762
67.16000 396.213
67.20000 370.541
67.24000 375.087
67.28000 372.323
67.32000 371.272
67.36000 378.377
67.40000 379.818
67.44000 386.344
67.48000 413.596
67.52000 417.608
67.56000 414.430
67.60000 433.357
67.64000 426.307
67.68000 428.372
67.72000 429.951
67.76000 465.689
67.80000 452.642
67.84000 463.965
67.88000 459.637
67.92000 466.313
67.96000 474.289
68.00000 473.663
68.04000 497.698
68.08000 515.740
68.12000 496.339
68.16000 524.247
68.20000 512.961
68.24000 525.083
68.28000 563.902
68.32000 541.474
68.36000 599.521
68.40000 589.946
68.44000 601.181
68.48000 629.444
68.52000 671.402
68.56000 731.789
68.60000 811.080
68.64000 896.504
68.68000 1113.340
68.72000 1253.757
68.76000 1378.398
68.80000 1596.326
68.84000 1816.380
68.88000 2192.209
68.92000 3565.272
68.96000 8715.184
69.00000 20296.098
69.04000 32568.865
69.08000 39055.234
69.12000 41510.875
69.16000 44241.059
69.20000 43594.445
69.24000 34507.066
69.28000 25514.539
69.32000 21220.980
69.36000 19901.928
69.40000 16524.139
69.44000 9843.935
69.48000 4435.008
69.52000 2049.744
69.56000 1296.159
69.60000 1018.332
69.64000 853.436
69.68000 775.202
69.72000 707.491
69.76000 655.987
69.80000 610.125
69.84000 564.079
69.88000 546.755
69.92000 543.990
69.96000 508.035
70.00000 505.832