File: XRD/XRD/08-10-2025 Dep 7/XY Data/BTO_Mapping_Theta2Theta_08-10-2025_001_29_-32-361_23-511.xy
20.00000 479.872
20.04000 481.872
20.08000 475.175
20.12000 473.068
20.16000 473.577
20.20000 456.477
20.24000 454.873
20.28000 460.732
20.32000 461.407
20.36000 468.751
20.40000 458.671
20.44000 475.092
20.48000 491.367
20.52000 471.382
20.56000 470.101
20.60000 462.511
20.64000 480.652
20.68000 483.399
20.72000 476.322
20.76000 465.870
20.80000 449.153
20.84000 480.782
20.88000 465.069
20.92000 467.594
20.96000 456.193
21.00000 460.473
21.04000 479.750
21.08000 456.999
21.12000 449.837
21.16000 466.233
21.20000 467.407
21.24000 444.313
21.28000 455.489
21.32000 467.441
21.36000 477.506
21.40000 478.497
21.44000 457.723
21.48000 481.058
21.52000 455.431
21.56000 471.501
21.60000 467.151
21.64000 481.999
21.68000 437.534
21.72000 473.380
21.76000 493.220
21.80000 484.485
21.84000 501.123
21.88000 521.490
21.92000 554.689
21.96000 550.006
22.00000 578.749
22.04000 584.511
22.08000 602.882
22.12000 594.243
22.16000 585.591
22.20000 568.598
22.24000 537.679
22.28000 548.298
22.32000 510.298
22.36000 514.277
22.40000 481.277
22.44000 489.158
22.48000 480.758
22.52000 474.142
22.56000 462.813
22.60000 438.572
22.64000 450.561
22.68000 457.157
22.72000 436.573
22.76000 446.405
22.80000 447.746
22.84000 435.997
22.88000 436.461
22.92000 420.770
22.96000 439.592
23.00000 430.605
23.04000 413.051
23.08000 438.392
23.12000 418.756
23.16000 439.255
23.20000 433.698
23.24000 418.457
23.28000 435.565
23.32000 425.649
23.36000 426.332
23.40000 426.345
23.44000 441.881
23.48000 442.003
23.52000 429.796
23.56000 425.963
23.60000 441.385
23.64000 437.609
23.68000 419.227
23.72000 424.609
23.76000 431.522
23.80000 430.555
23.84000 426.031
23.88000 455.288
23.92000 449.124
23.96000 449.891
24.00000 429.297
24.04000 429.987
24.08000 447.357
24.12000 443.965
24.16000 429.447
24.20000 436.368
24.24000 426.690
24.28000 415.791
24.32000 402.773
24.36000 402.101
24.40000 410.141
24.44000 405.830
24.48000 427.999
24.52000 421.006
24.56000 405.339
24.60000 411.607
24.64000 418.480
24.68000 417.991
24.72000 406.314
24.76000 400.150
24.80000 385.618
24.84000 409.426
24.88000 414.275
24.92000 410.205
24.96000 409.243
25.00000 379.524
25.04000 383.214
25.08000 416.992
25.12000 407.678
25.16000 407.079
25.20000 416.144
25.24000 408.452
25.28000 402.192
25.32000 395.018
25.36000 408.504
25.40000 402.222
25.44000 405.415
25.48000 387.656
25.52000 396.211
25.56000 408.394
25.60000 403.358
25.64000 381.742
25.68000 399.640
25.72000 384.543
25.76000 389.364
25.80000 380.831
25.84000 382.343
25.88000 385.018
25.92000 401.818
25.96000 388.412
26.00000 383.388
26.04000 406.535
26.08000 393.661
26.12000 385.482
26.16000 377.631
26.20000 376.848
26.24000 372.273
26.28000 387.021
26.32000 388.985
26.36000 365.519
26.40000 368.338
26.44000 367.233
26.48000 377.565
26.52000 402.054
26.56000 386.990
26.60000 384.345
26.64000 381.501
26.68000 370.608
26.72000 373.883
26.76000 366.841
26.80000 365.534
26.84000 391.683
26.88000 373.368
26.92000 376.595
26.96000 375.038
27.00000 371.612
27.04000 363.031
27.08000 377.913
27.12000 377.562
27.16000 377.190
27.20000 370.974
27.24000 372.650
27.28000 370.095
27.32000 373.440
27.36000 378.360
27.40000 376.743
27.44000 368.057
27.48000 391.089
27.52000 367.877
27.56000 385.931
27.60000 371.787
27.64000 384.916
27.68000 384.167
27.72000 376.956
27.76000 367.605
27.80000 375.491
27.84000 369.256
27.88000 370.773
27.92000 377.235
27.96000 367.358
28.00000 372.556
28.04000 360.883
28.08000 355.899
28.12000 383.366
28.16000 357.494
28.20000 366.763
28.24000 375.093
28.28000 361.737
28.32000 354.142
28.36000 357.533
28.40000 362.547
28.44000 377.855
28.48000 354.872
28.52000 369.330
28.56000 363.523
28.60000 351.860
28.64000 377.317
28.68000 353.834
28.72000 347.742
28.76000 361.283
28.80000 354.732
28.84000 347.299
28.88000 361.538
28.92000 346.307
28.96000 345.541
29.00000 353.847
29.04000 367.087
29.08000 344.710
29.12000 352.912
29.16000 361.483
29.20000 361.770
29.24000 345.994
29.28000 361.337
29.32000 353.114
29.36000 351.378
29.40000 361.379
29.44000 367.583
29.48000 346.832
29.52000 353.013
29.56000 363.767
29.60000 355.427
29.64000 365.594
29.68000 365.083
29.72000 351.782
29.76000 368.928
29.80000 363.794
29.84000 388.719
29.88000 391.104
29.92000 388.556
29.96000 387.284
30.00000 412.324
30.04000 412.417
30.08000 416.043
30.12000 408.175
30.16000 408.151
30.20000 398.155
30.24000 383.213
30.28000 382.431
30.32000 359.342
30.36000 372.130
30.40000 369.235
30.44000 370.292
30.48000 359.213
30.52000 370.507
30.56000 366.251
30.60000 384.490
30.64000 374.950
30.68000 387.658
30.72000 359.590
30.76000 374.692
30.80000 365.762
30.84000 399.104
30.88000 414.524
30.92000 429.685
30.96000 453.674
31.00000 463.763
31.04000 535.787
31.08000 643.687
31.12000 778.477
31.16000 975.610
31.20000 1204.858
31.24000 1405.802
31.28000 1710.740
31.32000 1929.359
31.36000 2065.818
31.40000 2071.659
31.44000 1968.723
31.48000 1779.636
31.52000 1514.633
31.56000 1254.327
31.60000 1009.391
31.64000 795.305
31.68000 634.446
31.72000 516.876
31.76000 475.986
31.80000 435.167
31.84000 394.781
31.88000 376.367
31.92000 372.595
31.96000 344.657
32.00000 345.911
32.04000 338.161
32.08000 339.036
32.12000 328.297
32.16000 329.309
32.20000 336.811
32.24000 317.136
32.28000 307.930
32.32000 329.465
32.36000 317.819
32.40000 322.746
32.44000 318.096
32.48000 311.569
32.52000 326.559
32.56000 320.442
32.60000 321.353
32.64000 314.938
32.68000 335.902
32.72000 310.263
32.76000 311.845
32.80000 315.027
32.84000 309.480
32.88000 325.423
32.92000 327.979
32.96000 324.332
33.00000 309.183
33.04000 321.778
33.08000 298.848
33.12000 311.461
33.16000 305.430
33.20000 301.940
33.24000 299.143
33.28000 303.802
33.32000 310.858
33.36000 298.094
33.40000 295.169
33.44000 297.071
33.48000 298.729
33.52000 292.546
33.56000 300.131
33.60000 301.804
33.64000 286.549
33.68000 292.054
33.72000 298.341
33.76000 294.736
33.80000 294.286
33.84000 277.233
33.88000 297.823
33.92000 318.205
33.96000 302.065
34.00000 301.531
34.04000 320.520
34.08000 298.065
34.12000 312.544
34.16000 306.075
34.20000 334.939
34.24000 335.141
34.28000 323.001
34.32000 329.348
34.36000 318.556
34.40000 328.699
34.44000 325.986
34.48000 332.962
34.52000 330.476
34.56000 325.418
34.60000 334.518
34.64000 312.546
34.68000 291.984
34.72000 307.373
34.76000 289.815
34.80000 294.898
34.84000 274.874
34.88000 290.898
34.92000 285.768
34.96000 284.444
35.00000 276.031
35.04000 276.355
35.08000 276.073
35.12000 272.239
35.16000 278.698
35.20000 276.925
35.24000 272.225
35.28000 258.147
35.32000 259.838
35.36000 274.413
35.40000 273.783
35.44000 281.427
35.48000 269.734
35.52000 262.862
35.56000 265.152
35.60000 254.244
35.64000 264.828
35.68000 258.112
35.72000 277.701
35.76000 263.910
35.80000 268.999
35.84000 261.123
35.88000 265.169
35.92000 276.197
35.96000 260.474
36.00000 254.153
36.04000 249.505
36.08000 261.161
36.12000 266.132
36.16000 263.185
36.20000 267.065
36.24000 250.407
36.28000 257.993
36.32000 243.751
36.36000 258.147
36.40000 252.529
36.44000 271.308
36.48000 267.001
36.52000 246.800
36.56000 259.272
36.60000 255.841
36.64000 257.350
36.68000 261.729
36.72000 251.282
36.76000 240.212
36.80000 264.569
36.84000 243.690
36.88000 269.444
36.92000 269.099
36.96000 259.114
37.00000 266.387
37.04000 293.253
37.08000 274.887
37.12000 276.941
37.16000 271.735
37.20000 272.260
37.24000 253.649
37.28000 244.646
37.32000 249.985
37.36000 260.038
37.40000 254.396
37.44000 249.728
37.48000 242.718
37.52000 242.613
37.56000 243.104
37.60000 259.631
37.64000 247.251
37.68000 248.393
37.72000 250.080
37.76000 242.206
37.80000 245.773
37.84000 247.261
37.88000 259.361
37.92000 248.224
37.96000 247.582
38.00000 254.886
38.04000 264.527
38.08000 263.000
38.12000 254.900
38.16000 262.849
38.20000 265.142
38.24000 277.097
38.28000 291.021
38.32000 293.599
38.36000 316.450
38.40000 368.510
38.44000 429.227
38.48000 499.186
38.52000 566.581
38.56000 667.464
38.60000 752.868
38.64000 829.432
38.68000 896.723
38.72000 911.608
38.76000 871.112
38.80000 829.200
38.84000 798.069
38.88000 670.076
38.92000 581.416
38.96000 489.738
39.00000 407.818
39.04000 343.229
39.08000 305.146
39.12000 276.595
39.16000 261.500
39.20000 237.143
39.24000 230.429
39.28000 246.089
39.32000 234.664
39.36000 228.083
39.40000 238.254
39.44000 234.178
39.48000 239.133
39.52000 229.916
39.56000 244.679
39.60000 242.772
39.64000 224.765
39.68000 226.351
39.72000 214.853
39.76000 218.169
39.80000 222.135
39.84000 222.288
39.88000 232.514
39.92000 219.922
39.96000 217.538
40.00000 221.522
40.04000 220.097
40.08000 218.869
40.12000 226.612
40.16000 214.302
40.20000 228.962
40.24000 216.913
40.28000 212.196
40.32000 222.235
40.36000 223.964
40.40000 212.098
40.44000 207.518
40.48000 211.176
40.52000 222.151
40.56000 221.925
40.60000 212.397
40.64000 217.759
40.68000 209.479
40.72000 219.881
40.76000 210.722
40.80000 200.313
40.84000 213.421
40.88000 208.562
40.92000 206.761
40.96000 213.556
41.00000 206.588
41.04000 208.681
41.08000 211.181
41.12000 219.891
41.16000 219.511
41.20000 208.642
41.24000 209.596
41.28000 220.479
41.32000 198.875
41.36000 197.263
41.40000 213.942
41.44000 203.627
41.48000 218.353
41.52000 214.546
41.56000 206.539
41.60000 185.269
41.64000 208.938
41.68000 197.835
41.72000 198.176
41.76000 201.316
41.80000 210.440
41.84000 194.591
41.88000 202.804
41.92000 199.909
41.96000 198.182
42.00000 205.516
42.04000 205.858
42.08000 203.974
42.12000 209.344
42.16000 203.774
42.20000 212.065
42.24000 198.599
42.28000 201.591
42.32000 204.829
42.36000 204.060
42.40000 199.929
42.44000 194.565
42.48000 195.853
42.52000 206.568
42.56000 209.360
42.60000 197.251
42.64000 192.599
42.68000 207.945
42.72000 193.983
42.76000 192.350
42.80000 200.020
42.84000 202.072
42.88000 200.594
42.92000 202.694
42.96000 208.209
43.00000 205.079
43.04000 208.991
43.08000 202.589
43.12000 199.559
43.16000 201.766
43.20000 190.286
43.24000 193.572
43.28000 177.897
43.32000 197.958
43.36000 198.887
43.40000 192.764
43.44000 193.114
43.48000 199.495
43.52000 192.924
43.56000 200.833
43.60000 192.641
43.64000 194.261
43.68000 186.038
43.72000 199.048
43.76000 188.964
43.80000 181.140
43.84000 187.576
43.88000 193.274
43.92000 212.005
43.96000 196.778
44.00000 181.902
44.04000 194.836
44.08000 205.336
44.12000 193.848
44.16000 193.736
44.20000 175.508
44.24000 191.960
44.28000 183.361
44.32000 194.447
44.36000 195.004
44.40000 182.462
44.44000 204.428
44.48000 202.595
44.52000 201.244
44.56000 201.669
44.60000 221.348
44.64000 224.049
44.68000 228.479
44.72000 233.231
44.76000 239.540
44.80000 262.853
44.84000 251.837
44.88000 261.812
44.92000 292.570
44.96000 293.719
45.00000 306.622
45.04000 300.392
45.08000 306.394
45.12000 304.371
45.16000 280.499
45.20000 276.890
45.24000 270.751
45.28000 262.578
45.32000 261.044
45.36000 254.773
45.40000 239.158
45.44000 243.171
45.48000 241.638
45.52000 229.383
45.56000 211.659
45.60000 217.838
45.64000 208.842
45.68000 206.873
45.72000 207.892
45.76000 187.121
45.80000 201.778
45.84000 217.901
45.88000 188.917
45.92000 185.900
45.96000 187.517
46.00000 190.356
46.04000 189.692
46.08000 183.669
46.12000 181.747
46.16000 186.178
46.20000 175.593
46.24000 175.507
46.28000 176.708
46.32000 168.820
46.36000 184.237
46.40000 166.442
46.44000 176.783
46.48000 177.610
46.52000 176.289
46.56000 170.806
46.60000 179.727
46.64000 168.996
46.68000 178.804
46.72000 182.444
46.76000 163.477
46.80000 164.163
46.84000 167.034
46.88000 173.747
46.92000 180.250
46.96000 168.467
47.00000 180.086
47.04000 163.095
47.08000 165.172
47.12000 176.597
47.16000 158.084
47.20000 168.570
47.24000 167.609
47.28000 165.945
47.32000 166.896
47.36000 166.401
47.40000 163.119
47.44000 159.761
47.48000 150.308
47.52000 160.318
47.56000 176.573
47.60000 166.409
47.64000 174.325
47.68000 167.611
47.72000 156.052
47.76000 179.901
47.80000 160.471
47.84000 162.558
47.88000 149.370
47.92000 156.049
47.96000 167.381
48.00000 164.704
48.04000 157.412
48.08000 168.154
48.12000 162.976
48.16000 150.769
48.20000 163.362
48.24000 167.312
48.28000 174.690
48.32000 156.070
48.36000 163.024
48.40000 151.384
48.44000 160.288
48.48000 161.625
48.52000 156.640
48.56000 165.471
48.60000 159.218
48.64000 156.621
48.68000 150.866
48.72000 152.683
48.76000 165.454
48.80000 152.568
48.84000 153.595
48.88000 164.317
48.92000 155.588
48.96000 161.902
49.00000 162.039
49.04000 150.456
49.08000 158.719
49.12000 163.982
49.16000 151.754
49.20000 161.913
49.24000 153.038
49.28000 157.260
49.32000 154.630
49.36000 155.222
49.40000 141.268
49.44000 158.686
49.48000 158.025
49.52000 149.399
49.56000 144.735
49.60000 151.314
49.64000 148.440
49.68000 153.462
49.72000 139.657
49.76000 145.116
49.80000 142.397
49.84000 156.939
49.88000 154.233
49.92000 160.196
49.96000 157.397
50.00000 152.068
50.04000 153.673
50.08000 168.776
50.12000 167.679
50.16000 158.484
50.20000 154.519
50.24000 157.695
50.28000 167.413
50.32000 175.103
50.36000 170.039
50.40000 190.854
50.44000 179.084
50.48000 198.109
50.52000 194.293
50.56000 214.776
50.60000 212.124
50.64000 226.740
50.68000 208.160
50.72000 221.725
50.76000 204.180
50.80000 200.434
50.84000 186.376
50.88000 184.882
50.92000 174.438
50.96000 170.517
51.00000 172.842
51.04000 166.627
51.08000 153.287
51.12000 164.367
51.16000 157.907
51.20000 154.268
51.24000 156.485
51.28000 149.539
51.32000 151.962
51.36000 141.979
51.40000 145.440
51.44000 152.032
51.48000 143.603
51.52000 147.153
51.56000 141.421
51.60000 133.715
51.64000 149.098
51.68000 143.212
51.72000 129.533
51.76000 142.527
51.80000 130.196
51.84000 138.434
51.88000 146.318
51.92000 133.231
51.96000 147.288
52.00000 145.218
52.04000 138.155
52.08000 141.917
52.12000 141.340
52.16000 145.464
52.20000 136.596
52.24000 134.988
52.28000 139.340
52.32000 131.557
52.36000 131.977
52.40000 138.802
52.44000 134.309
52.48000 136.936
52.52000 141.584
52.56000 147.143
52.60000 148.804
52.64000 142.959
52.68000 146.509
52.72000 147.995
52.76000 143.400
52.80000 130.709
52.84000 140.794
52.88000 140.782
52.92000 131.630
52.96000 148.498
53.00000 135.044
53.04000 138.812
53.08000 141.710
53.12000 145.357
53.16000 154.457
53.20000 141.623
53.24000 155.533
53.28000 152.794
53.32000 160.405
53.36000 144.873
53.40000 147.353
53.44000 145.637
53.48000 165.550
53.52000 153.911
53.56000 145.056
53.60000 147.743
53.64000 150.775
53.68000 164.662
53.72000 139.041
53.76000 139.637
53.80000 140.748
53.84000 146.708
53.88000 135.409
53.92000 131.135
53.96000 133.354
54.00000 142.607
54.04000 145.797
54.08000 136.623
54.12000 138.949
54.16000 135.928
54.20000 140.009
54.24000 146.778
54.28000 146.793
54.32000 141.835
54.36000 142.592
54.40000 141.475
54.44000 145.208
54.48000 137.526
54.52000 154.187
54.56000 138.323
54.60000 142.377
54.64000 144.956
54.68000 142.476
54.72000 152.534
54.76000 138.640
54.80000 146.262
54.84000 143.187
54.88000 143.718
54.92000 140.078
54.96000 147.210
55.00000 148.982
55.04000 146.989
55.08000 149.311
55.12000 143.658
55.16000 170.425
55.20000 166.765
55.24000 165.789
55.28000 160.908
55.32000 175.766
55.36000 178.876
55.40000 187.771
55.44000 203.736
55.48000 227.105
55.52000 255.970
55.56000 295.005
55.60000 339.784
55.64000 400.618
55.68000 461.117
55.72000 512.248
55.76000 592.193
55.80000 598.037
55.84000 640.964
55.88000 677.345
55.92000 687.884
55.96000 667.905
56.00000 613.193
56.04000 578.304
56.08000 513.057
56.12000 468.543
56.16000 400.606
56.20000 357.275
56.24000 305.076
56.28000 266.904
56.32000 239.575
56.36000 216.651
56.40000 190.956
56.44000 181.568
56.48000 170.950
56.52000 161.662
56.56000 164.019
56.60000 153.566
56.64000 155.858
56.68000 145.106
56.72000 146.147
56.76000 142.936
56.80000 136.382
56.84000 138.665
56.88000 137.215
56.92000 124.496
56.96000 133.950
57.00000 133.835
57.04000 130.963
57.08000 120.065
57.12000 123.777
57.16000 122.747
57.20000 135.296
57.24000 133.790
57.28000 124.870
57.32000 121.615
57.36000 125.899
57.40000 122.988
57.44000 119.417
57.48000 125.136
57.52000 132.888
57.56000 125.523
57.60000 124.211
57.64000 125.303
57.68000 131.638
57.72000 124.258
57.76000 122.892
57.80000 125.478
57.84000 141.281
57.88000 124.764
57.92000 116.919
57.96000 125.230
58.00000 136.754
58.04000 120.588
58.08000 128.732
58.12000 131.874
58.16000 124.491
58.20000 131.170
58.24000 127.544
58.28000 124.317
58.32000 124.941
58.36000 123.830
58.40000 121.238
58.44000 130.080
58.48000 119.863
58.52000 120.963
58.56000 114.663
58.60000 120.937
58.64000 114.734
58.68000 122.583
58.72000 117.447
58.76000 109.096
58.80000 126.195
58.84000 118.211
58.88000 125.064
58.92000 127.444
58.96000 121.706
59.00000 122.211
59.04000 124.498
59.08000 111.731
59.12000 112.898
59.16000 105.046
59.20000 115.248
59.24000 114.333
59.28000 124.443
59.32000 121.626
59.36000 110.938
59.40000 127.739
59.44000 112.503
59.48000 114.884
59.52000 116.430
59.56000 112.737
59.60000 123.212
59.64000 127.111
59.68000 122.274
59.72000 118.653
59.76000 118.016
59.80000 123.941
59.84000 113.141
59.88000 117.281
59.92000 116.352
59.96000 122.510
60.00000 117.619
60.04000 120.511
60.08000 120.564
60.12000 123.582
60.16000 122.612
60.20000 122.128
60.24000 113.808
60.28000 110.565
60.32000 117.082
60.36000 115.694
60.40000 119.629
60.44000 121.856
60.48000 113.943
60.52000 114.126
60.56000 118.959
60.60000 112.458
60.64000 116.711
60.68000 125.379
60.72000 114.339
60.76000 124.052
60.80000 121.761
60.84000 108.141
60.88000 118.785
60.92000 117.065
60.96000 106.207
61.00000 118.320
61.04000 116.386
61.08000 115.339
61.12000 122.674
61.16000 119.168
61.20000 118.997
61.24000 126.773
61.28000 129.827
61.32000 132.124
61.36000 127.475
61.40000 114.836
61.44000 117.567
61.48000 124.835
61.52000 144.853
61.56000 165.530
61.60000 216.185
61.64000 264.063
61.68000 304.207
61.72000 321.553
61.76000 305.363
61.80000 269.313
61.84000 224.719
61.88000 165.965
61.92000 152.404
61.96000 134.896
62.00000 131.168
62.04000 129.680
62.08000 124.167
62.12000 135.873
62.16000 127.607
62.20000 131.886
62.24000 128.746
62.28000 136.313
62.32000 128.171
62.36000 130.862
62.40000 125.421
62.44000 123.246
62.48000 133.425
62.52000 128.228
62.56000 130.687
62.60000 134.336
62.64000 120.025
62.68000 128.126
62.72000 121.801
62.76000 124.420
62.80000 124.319
62.84000 131.448
62.88000 131.480
62.92000 138.753
62.96000 132.920
63.00000 128.498
63.04000 116.445
63.08000 128.934
63.12000 133.472
63.16000 125.760
63.20000 130.777
63.24000 127.828
63.28000 139.925
63.32000 131.881
63.36000 146.028
63.40000 140.180
63.44000 140.113
63.48000 136.167
63.52000 124.573
63.56000 142.902
63.60000 138.268
63.64000 130.835
63.68000 139.816
63.72000 131.558
63.76000 139.854
63.80000 139.055
63.84000 135.686
63.88000 145.774
63.92000 138.124
63.96000 141.540
64.00000 142.303
64.04000 150.356
64.08000 153.326
64.12000 149.807
64.16000 149.981
64.20000 139.186
64.24000 142.116
64.28000 140.283
64.32000 147.313
64.36000 147.884
64.40000 155.803
64.44000 152.897
64.48000 165.969
64.52000 162.294
64.56000 147.408
64.60000 158.586
64.64000 162.901
64.68000 163.000
64.72000 163.678
64.76000 169.542
64.80000 171.748
64.84000 183.143
64.88000 176.052
64.92000 180.770
64.96000 187.775
65.00000 203.763
65.04000 204.266
65.08000 223.170
65.12000 219.263
65.16000 215.643
65.20000 228.450
65.24000 248.896
65.28000 272.555
65.32000 281.254
65.36000 294.447
65.40000 313.800
65.44000 300.562
65.48000 324.280
65.52000 344.298
65.56000 364.521
65.60000 411.595
65.64000 434.518
65.68000 544.018
65.72000 751.475
65.76000 1169.099
65.80000 1709.844
65.84000 2069.122
65.88000 2209.318
65.92000 2175.604
65.96000 1980.702
66.00000 1527.044
66.04000 973.704
66.08000 612.921
66.12000 472.938
66.16000 420.931
66.20000 401.756
66.24000 381.749
66.28000 443.630
66.32000 530.592
66.36000 613.437
66.40000 655.830
66.44000 650.879
66.48000 652.182
66.52000 622.858
66.56000 537.195
66.60000 432.014
66.64000 399.374
66.68000 358.695
66.72000 353.902
66.76000 369.174
66.80000 356.686
66.84000 351.232
66.88000 367.600
66.92000 369.890
66.96000 380.903
67.00000 353.688
67.04000 377.690
67.08000 390.744
67.12000 395.578
67.16000 379.896
67.20000 409.247
67.24000 417.760
67.28000 400.327
67.32000 393.540
67.36000 421.891
67.40000 424.620
67.44000 420.183
67.48000 422.709
67.52000 425.817
67.56000 441.838
67.60000 424.934
67.64000 447.936
67.68000 448.856
67.72000 446.660
67.76000 452.687
67.80000 464.556
67.84000 476.095
67.88000 477.570
67.92000 512.268
67.96000 492.240
68.00000 495.645
68.04000 497.247
68.08000 526.434
68.12000 545.897
68.16000 537.893
68.20000 540.273
68.24000 562.959
68.28000 568.061
68.32000 607.868
68.36000 594.256
68.40000 618.830
68.44000 640.585
68.48000 678.716
68.52000 712.236
68.56000 725.097
68.60000 786.157
68.64000 902.334
68.68000 1051.504
68.72000 1273.444
68.76000 1450.501
68.80000 1635.048
68.84000 1873.997
68.88000 2261.680
68.92000 2946.310
68.96000 5456.232
69.00000 14413.203
69.04000 28826.309
69.08000 41345.234
69.12000 46942.816
69.16000 50133.387
69.20000 52693.887
69.24000 48798.781
69.28000 37529.777
69.32000 28343.340
69.36000 24497.787
69.40000 22421.234
69.44000 16953.104
69.48000 9439.420
69.52000 4254.255
69.56000 1990.900
69.60000 1322.840
69.64000 1096.123
69.68000 915.659
69.72000 821.409
69.76000 756.930
69.80000 682.820
69.84000 627.097
69.88000 590.175
69.92000 553.772
69.96000 527.371
70.00000 510.277