File: XRD/XRD/08-10-2025 Dep 7/XY Data/BTO_Mapping_Theta2Theta_08-10-2025_001_07_18-271_8-135.xy
20.00000 500.913
20.04000 465.838
20.08000 473.301
20.12000 480.808
20.16000 472.478
20.20000 452.347
20.24000 466.110
20.28000 474.350
20.32000 477.899
20.36000 467.572
20.40000 467.096
20.44000 481.340
20.48000 484.259
20.52000 468.248
20.56000 463.639
20.60000 457.020
20.64000 455.965
20.68000 463.722
20.72000 482.678
20.76000 481.974
20.80000 469.344
20.84000 464.074
20.88000 469.780
20.92000 460.742
20.96000 473.447
21.00000 487.922
21.04000 465.703
21.08000 466.970
21.12000 484.375
21.16000 464.259
21.20000 470.249
21.24000 476.025
21.28000 467.842
21.32000 474.458
21.36000 457.497
21.40000 468.171
21.44000 487.478
21.48000 482.483
21.52000 460.409
21.56000 481.445
21.60000 460.854
21.64000 471.042
21.68000 479.107
21.72000 486.395
21.76000 472.326
21.80000 481.353
21.84000 494.629
21.88000 498.739
21.92000 509.609
21.96000 520.607
22.00000 504.292
22.04000 504.685
22.08000 517.645
22.12000 509.056
22.16000 497.744
22.20000 494.693
22.24000 497.057
22.28000 492.034
22.32000 473.148
22.36000 468.249
22.40000 459.754
22.44000 460.059
22.48000 447.692
22.52000 447.540
22.56000 439.528
22.60000 455.801
22.64000 438.637
22.68000 462.747
22.72000 439.097
22.76000 445.742
22.80000 449.650
22.84000 448.488
22.88000 459.905
22.92000 440.297
22.96000 435.597
23.00000 424.625
23.04000 436.611
23.08000 433.009
23.12000 433.771
23.16000 439.632
23.20000 446.104
23.24000 452.404
23.28000 448.535
23.32000 454.519
23.36000 444.414
23.40000 436.317
23.44000 441.848
23.48000 455.269
23.52000 444.969
23.56000 460.133
23.60000 477.901
23.64000 474.677
23.68000 468.129
23.72000 488.364
23.76000 484.204
23.80000 501.552
23.84000 517.202
23.88000 512.267
23.92000 543.620
23.96000 555.367
24.00000 567.307
24.04000 547.678
24.08000 528.536
24.12000 515.780
24.16000 494.924
24.20000 489.743
24.24000 476.199
24.28000 453.247
24.32000 463.860
24.36000 462.564
24.40000 442.799
24.44000 445.924
24.48000 418.240
24.52000 425.092
24.56000 427.513
24.60000 426.626
24.64000 429.076
24.68000 404.754
24.72000 421.511
24.76000 421.273
24.80000 422.312
24.84000 417.171
24.88000 396.915
24.92000 409.519
24.96000 425.653
25.00000 420.671
25.04000 422.517
25.08000 401.995
25.12000 399.028
25.16000 414.556
25.20000 403.446
25.24000 397.280
25.28000 402.715
25.32000 403.320
25.36000 409.061
25.40000 386.272
25.44000 410.544
25.48000 400.402
25.52000 416.450
25.56000 398.324
25.60000 398.713
25.64000 383.979
25.68000 389.292
25.72000 362.095
25.76000 376.010
25.80000 386.369
25.84000 395.379
25.88000 393.987
25.92000 389.589
25.96000 386.949
26.00000 406.460
26.04000 419.763
26.08000 383.773
26.12000 395.510
26.16000 391.525
26.20000 399.924
26.24000 397.105
26.28000 386.734
26.32000 381.320
26.36000 382.968
26.40000 381.405
26.44000 377.742
26.48000 397.796
26.52000 364.540
26.56000 380.458
26.60000 398.588
26.64000 384.574
26.68000 380.432
26.72000 363.031
26.76000 389.489
26.80000 405.199
26.84000 369.166
26.88000 378.716
26.92000 382.670
26.96000 377.085
27.00000 374.588
27.04000 372.989
27.08000 364.275
27.12000 388.056
27.16000 379.988
27.20000 375.439
27.24000 378.596
27.28000 360.661
27.32000 377.376
27.36000 385.954
27.40000 367.990
27.44000 377.860
27.48000 353.411
27.52000 373.949
27.56000 376.058
27.60000 370.736
27.64000 378.466
27.68000 388.234
27.72000 366.998
27.76000 358.904
27.80000 361.071
27.84000 364.570
27.88000 376.445
27.92000 347.125
27.96000 386.488
28.00000 362.876
28.04000 357.070
28.08000 371.569
28.12000 372.551
28.16000 378.563
28.20000 371.251
28.24000 376.553
28.28000 376.394
28.32000 359.937
28.36000 360.693
28.40000 359.081
28.44000 359.632
28.48000 374.557
28.52000 377.892
28.56000 368.738
28.60000 362.632
28.64000 370.923
28.68000 356.801
28.72000 349.370
28.76000 353.178
28.80000 355.736
28.84000 353.409
28.88000 354.744
28.92000 361.648
28.96000 355.537
29.00000 356.070
29.04000 371.261
29.08000 358.695
29.12000 363.626
29.16000 371.794
29.20000 359.936
29.24000 347.984
29.28000 368.181
29.32000 360.970
29.36000 350.779
29.40000 360.539
29.44000 339.349
29.48000 346.840
29.52000 364.831
29.56000 352.334
29.60000 359.742
29.64000 363.858
29.68000 359.079
29.72000 362.195
29.76000 369.487
29.80000 387.357
29.84000 389.527
29.88000 379.775
29.92000 389.687
29.96000 367.834
30.00000 381.475
30.04000 386.254
30.08000 396.035
30.12000 361.771
30.16000 373.716
30.20000 388.438
30.24000 359.277
30.28000 381.442
30.32000 367.496
30.36000 364.379
30.40000 372.951
30.44000 360.275
30.48000 366.779
30.52000 369.407
30.56000 364.703
30.60000 347.474
30.64000 370.933
30.68000 382.382
30.72000 390.850
30.76000 368.742
30.80000 408.793
30.84000 399.698
30.88000 404.223
30.92000 453.917
30.96000 449.874
31.00000 481.758
31.04000 501.768
31.08000 545.230
31.12000 612.264
31.16000 707.442
31.20000 781.788
31.24000 875.591
31.28000 959.850
31.32000 1022.856
31.36000 1064.975
31.40000 1053.899
31.44000 988.815
31.48000 932.286
31.52000 834.885
31.56000 731.692
31.60000 627.979
31.64000 564.530
31.68000 502.689
31.72000 469.307
31.76000 427.872
31.80000 415.947
31.84000 410.011
31.88000 402.073
31.92000 382.735
31.96000 370.926
32.00000 383.901
32.04000 352.248
32.08000 359.149
32.12000 372.465
32.16000 355.555
32.20000 358.145
32.24000 347.968
32.28000 353.352
32.32000 341.904
32.36000 347.563
32.40000 344.066
32.44000 332.426
32.48000 307.885
32.52000 326.794
32.56000 327.026
32.60000 328.562
32.64000 318.747
32.68000 323.897
32.72000 315.969
32.76000 334.232
32.80000 340.664
32.84000 319.297
32.88000 319.705
32.92000 328.188
32.96000 332.821
33.00000 314.255
33.04000 307.021
33.08000 302.055
33.12000 319.210
33.16000 307.223
33.20000 293.435
33.24000 306.277
33.28000 300.009
33.32000 302.173
33.36000 296.901
33.40000 283.747
33.44000 303.767
33.48000 304.781
33.52000 281.411
33.56000 296.216
33.60000 285.897
33.64000 290.005
33.68000 298.404
33.72000 297.243
33.76000 299.726
33.80000 301.355
33.84000 319.456
33.88000 320.969
33.92000 323.420
33.96000 321.824
34.00000 325.799
34.04000 314.061
34.08000 327.141
34.12000 328.380
34.16000 329.614
34.20000 342.170
34.24000 341.692
34.28000 348.671
34.32000 347.888
34.36000 347.910
34.40000 337.744
34.44000 325.867
34.48000 327.323
34.52000 324.291
34.56000 322.865
34.60000 310.068
34.64000 319.198
34.68000 292.224
34.72000 295.914
34.76000 289.261
34.80000 294.599
34.84000 284.991
34.88000 287.498
34.92000 269.257
34.96000 286.575
35.00000 275.297
35.04000 275.079
35.08000 287.876
35.12000 284.932
35.16000 267.775
35.20000 267.360
35.24000 266.509
35.28000 283.382
35.32000 273.353
35.36000 267.275
35.40000 268.930
35.44000 275.280
35.48000 256.388
35.52000 272.260
35.56000 264.125
35.60000 264.986
35.64000 258.332
35.68000 268.604
35.72000 254.913
35.76000 256.694
35.80000 265.858
35.84000 260.899
35.88000 275.483
35.92000 254.858
35.96000 259.756
36.00000 254.157
36.04000 269.658
36.08000 254.215
36.12000 264.966
36.16000 267.811
36.20000 253.681
36.24000 262.037
36.28000 260.911
36.32000 270.921
36.36000 255.554
36.40000 252.680
36.44000 254.951
36.48000 263.707
36.52000 262.241
36.56000 253.113
36.60000 252.686
36.64000 243.351
36.68000 255.210
36.72000 273.183
36.76000 254.673
36.80000 257.333
36.84000 274.389
36.88000 275.503
36.92000 269.889
36.96000 276.856
37.00000 273.059
37.04000 261.376
37.08000 270.021
37.12000 259.368
37.16000 247.371
37.20000 260.925
37.24000 263.635
37.28000 260.305
37.32000 250.922
37.36000 253.258
37.40000 255.232
37.44000 252.003
37.48000 256.408
37.52000 247.678
37.56000 244.967
37.60000 255.395
37.64000 253.689
37.68000 243.800
37.72000 250.686
37.76000 267.354
37.80000 256.237
37.84000 263.025
37.88000 252.223
37.92000 250.149
37.96000 251.873
38.00000 240.280
38.04000 249.801
38.08000 255.479
38.12000 258.911
38.16000 264.106
38.20000 263.472
38.24000 265.760
38.28000 283.286
38.32000 288.219
38.36000 307.126
38.40000 345.249
38.44000 382.953
38.48000 448.687
38.52000 518.842
38.56000 622.754
38.60000 700.524
38.64000 776.060
38.68000 822.647
38.72000 831.861
38.76000 786.398
38.80000 708.159
38.84000 624.091
38.88000 544.123
38.92000 443.211
38.96000 376.888
39.00000 334.442
39.04000 295.729
39.08000 286.215
39.12000 253.893
39.16000 265.015
39.20000 250.833
39.24000 251.397
39.28000 239.537
39.32000 260.747
39.36000 236.258
39.40000 252.830
39.44000 240.062
39.48000 239.883
39.52000 247.115
39.56000 237.824
39.60000 238.522
39.64000 247.872
39.68000 237.853
39.72000 239.724
39.76000 235.896
39.80000 227.080
39.84000 227.673
39.88000 234.491
39.92000 235.697
39.96000 234.812
40.00000 235.791
40.04000 222.064
40.08000 233.909
40.12000 228.797
40.16000 222.266
40.20000 230.964
40.24000 234.003
40.28000 231.428
40.32000 217.998
40.36000 246.365
40.40000 227.824
40.44000 215.147
40.48000 207.556
40.52000 216.842
40.56000 219.547
40.60000 225.980
40.64000 212.424
40.68000 221.484
40.72000 226.202
40.76000 222.268
40.80000 211.265
40.84000 217.055
40.88000 207.311
40.92000 217.906
40.96000 217.249
41.00000 212.526
41.04000 217.490
41.08000 204.527
41.12000 213.294
41.16000 214.614
41.20000 211.149
41.24000 217.663
41.28000 211.883
41.32000 214.758
41.36000 205.997
41.40000 209.728
41.44000 221.368
41.48000 213.855
41.52000 218.022
41.56000 206.749
41.60000 202.151
41.64000 204.140
41.68000 212.064
41.72000 210.206
41.76000 213.611
41.80000 217.036
41.84000 215.250
41.88000 225.484
41.92000 219.706
41.96000 214.559
42.00000 214.139
42.04000 209.579
42.08000 223.552
42.12000 229.372
42.16000 224.740
42.20000 222.506
42.24000 225.688
42.28000 221.805
42.32000 229.649
42.36000 221.847
42.40000 212.533
42.44000 209.245
42.48000 216.185
42.52000 223.184
42.56000 225.555
42.60000 217.058
42.64000 216.721
42.68000 210.086
42.72000 218.752
42.76000 212.930
42.80000 202.616
42.84000 206.703
42.88000 217.548
42.92000 216.335
42.96000 205.672
43.00000 210.418
43.04000 209.011
43.08000 208.127
43.12000 203.260
43.16000 199.358
43.20000 213.091
43.24000 214.141
43.28000 195.116
43.32000 206.577
43.36000 206.840
43.40000 197.146
43.44000 190.675
43.48000 186.039
43.52000 200.925
43.56000 197.000
43.60000 190.954
43.64000 197.274
43.68000 190.091
43.72000 185.577
43.76000 194.689
43.80000 194.375
43.84000 203.236
43.88000 196.904
43.92000 197.987
43.96000 199.402
44.00000 201.113
44.04000 196.373
44.08000 192.908
44.12000 197.861
44.16000 191.582
44.20000 204.814
44.24000 194.508
44.28000 200.602
44.32000 191.088
44.36000 207.042
44.40000 206.149
44.44000 212.953
44.48000 205.013
44.52000 208.001
44.56000 222.976
44.60000 219.122
44.64000 223.775
44.68000 241.241
44.72000 233.039
44.76000 221.861
44.80000 225.849
44.84000 230.971
44.88000 238.610
44.92000 234.177
44.96000 226.142
45.00000 226.808
45.04000 235.554
45.08000 230.122
45.12000 231.510
45.16000 225.763
45.20000 229.982
45.24000 221.373
45.28000 216.655
45.32000 220.249
45.36000 225.833
45.40000 231.606
45.44000 217.147
45.48000 215.967
45.52000 205.055
45.56000 188.129
45.60000 197.225
45.64000 193.398
45.68000 196.298
45.72000 184.779
45.76000 189.449
45.80000 188.097
45.84000 188.353
45.88000 198.615
45.92000 181.399
45.96000 181.839
46.00000 168.191
46.04000 185.469
46.08000 188.099
46.12000 179.955
46.16000 185.628
46.20000 183.730
46.24000 178.952
46.28000 177.195
46.32000 171.318
46.36000 176.120
46.40000 166.432
46.44000 183.702
46.48000 178.221
46.52000 177.986
46.56000 173.565
46.60000 187.934
46.64000 165.304
46.68000 168.494
46.72000 181.463
46.76000 179.218
46.80000 183.474
46.84000 185.038
46.88000 176.436
46.92000 179.623
46.96000 171.237
47.00000 166.226
47.04000 167.571
47.08000 177.990
47.12000 170.338
47.16000 164.023
47.20000 169.613
47.24000 172.235
47.28000 174.782
47.32000 174.112
47.36000 157.170
47.40000 161.103
47.44000 161.740
47.48000 168.660
47.52000 175.238
47.56000 163.999
47.60000 161.510
47.64000 157.060
47.68000 156.880
47.72000 150.533
47.76000 172.552
47.80000 169.686
47.84000 165.971
47.88000 176.643
47.92000 162.628
47.96000 163.858
48.00000 160.541
48.04000 161.742
48.08000 157.391
48.12000 151.071
48.16000 177.976
48.20000 170.833
48.24000 165.076
48.28000 158.611
48.32000 163.882
48.36000 155.103
48.40000 165.273
48.44000 160.266
48.48000 151.039
48.52000 165.049
48.56000 162.128
48.60000 148.476
48.64000 160.887
48.68000 156.528
48.72000 159.440
48.76000 161.241
48.80000 149.555
48.84000 159.259
48.88000 158.045
48.92000 157.908
48.96000 154.651
49.00000 162.048
49.04000 161.332
49.08000 166.165
49.12000 157.699
49.16000 150.497
49.20000 162.822
49.24000 160.364
49.28000 151.934
49.32000 173.129
49.36000 155.376
49.40000 163.926
49.44000 156.001
49.48000 148.796
49.52000 152.324
49.56000 153.572
49.60000 153.142
49.64000 155.792
49.68000 151.998
49.72000 155.448
49.76000 157.238
49.80000 153.683
49.84000 141.921
49.88000 142.212
49.92000 152.295
49.96000 140.101
50.00000 155.005
50.04000 163.773
50.08000 160.507
50.12000 143.850
50.16000 156.524
50.20000 160.382
50.24000 152.303
50.28000 164.028
50.32000 149.910
50.36000 156.151
50.40000 167.262
50.44000 161.345
50.48000 165.632
50.52000 159.398
50.56000 179.930
50.60000 153.253
50.64000 174.918
50.68000 166.656
50.72000 161.236
50.76000 165.274
50.80000 169.272
50.84000 164.122
50.88000 171.270
50.92000 163.871
50.96000 152.604
51.00000 143.900
51.04000 151.586
51.08000 154.494
51.12000 146.429
51.16000 152.396
51.20000 149.918
51.24000 155.943
51.28000 150.418
51.32000 139.734
51.36000 135.379
51.40000 140.202
51.44000 136.007
51.48000 142.734
51.52000 136.930
51.56000 142.512
51.60000 135.102
51.64000 140.001
51.68000 144.691
51.72000 139.573
51.76000 144.486
51.80000 146.824
51.84000 139.905
51.88000 140.933
51.92000 135.516
51.96000 146.325
52.00000 141.295
52.04000 144.660
52.08000 136.342
52.12000 142.947
52.16000 145.497
52.20000 144.382
52.24000 142.544
52.28000 137.833
52.32000 139.734
52.36000 139.599
52.40000 135.204
52.44000 130.212
52.48000 135.369
52.52000 139.148
52.56000 140.046
52.60000 142.265
52.64000 145.553
52.68000 139.160
52.72000 151.364
52.76000 151.019
52.80000 148.067
52.84000 143.869
52.88000 132.936
52.92000 142.237
52.96000 144.828
53.00000 144.813
53.04000 134.759
53.08000 140.879
53.12000 148.701
53.16000 136.496
53.20000 150.001
53.24000 141.781
53.28000 147.212
53.32000 156.111
53.36000 151.912
53.40000 156.535
53.44000 138.550
53.48000 141.198
53.52000 144.816
53.56000 155.513
53.60000 151.854
53.64000 144.020
53.68000 133.040
53.72000 141.203
53.76000 146.790
53.80000 134.479
53.84000 139.593
53.88000 152.610
53.92000 141.698
53.96000 146.860
54.00000 154.002
54.04000 141.622
54.08000 129.519
54.12000 142.617
54.16000 145.714
54.20000 130.413
54.24000 136.234
54.28000 129.467
54.32000 141.561
54.36000 144.345
54.40000 136.130
54.44000 139.057
54.48000 141.367
54.52000 151.332
54.56000 139.115
54.60000 139.539
54.64000 124.887
54.68000 142.049
54.72000 136.303
54.76000 147.178
54.80000 134.801
54.84000 149.273
54.88000 148.350
54.92000 143.916
54.96000 144.373
55.00000 147.221
55.04000 140.392
55.08000 150.978
55.12000 156.162
55.16000 147.024
55.20000 151.188
55.24000 152.437
55.28000 160.280
55.32000 163.740
55.36000 177.778
55.40000 186.357
55.44000 178.408
55.48000 184.938
55.52000 191.540
55.56000 227.961
55.60000 240.037
55.64000 266.607
55.68000 286.660
55.72000 315.533
55.76000 351.060
55.80000 372.862
55.84000 380.410
55.88000 399.085
55.92000 420.750
55.96000 446.884
56.00000 416.792
56.04000 391.080
56.08000 372.143
56.12000 328.764
56.16000 319.155
56.20000 284.674
56.24000 260.005
56.28000 218.972
56.32000 215.456
56.36000 197.309
56.40000 180.220
56.44000 174.538
56.48000 160.383
56.52000 169.591
56.56000 165.368
56.60000 138.772
56.64000 145.636
56.68000 155.727
56.72000 141.183
56.76000 141.074
56.80000 144.858
56.84000 134.691
56.88000 137.967
56.92000 131.538
56.96000 139.429
57.00000 132.951
57.04000 142.607
57.08000 142.830
57.12000 134.254
57.16000 125.782
57.20000 123.903
57.24000 140.991
57.28000 123.907
57.32000 129.184
57.36000 126.957
57.40000 114.662
57.44000 129.958
57.48000 124.147
57.52000 133.304
57.56000 122.999
57.60000 120.719
57.64000 123.072
57.68000 133.708
57.72000 128.548
57.76000 134.741
57.80000 128.751
57.84000 125.737
57.88000 125.103
57.92000 131.924
57.96000 124.571
58.00000 118.924
58.04000 125.990
58.08000 125.238
58.12000 133.777
58.16000 133.837
58.20000 127.375
58.24000 121.246
58.28000 125.775
58.32000 116.928
58.36000 126.378
58.40000 120.857
58.44000 116.899
58.48000 113.574
58.52000 121.322
58.56000 118.418
58.60000 123.396
58.64000 122.994
58.68000 135.275
58.72000 124.001
58.76000 122.779
58.80000 117.401
58.84000 127.502
58.88000 118.087
58.92000 119.274
58.96000 124.871
59.00000 113.978
59.04000 130.705
59.08000 113.002
59.12000 126.444
59.16000 118.652
59.20000 110.107
59.24000 118.929
59.28000 127.018
59.32000 121.854
59.36000 120.528
59.40000 127.461
59.44000 116.930
59.48000 114.951
59.52000 120.125
59.56000 122.186
59.60000 123.093
59.64000 123.319
59.68000 123.475
59.72000 127.710
59.76000 118.058
59.80000 120.821
59.84000 118.756
59.88000 122.545
59.92000 119.477
59.96000 116.915
60.00000 114.859
60.04000 125.777
60.08000 119.055
60.12000 114.284
60.16000 115.162
60.20000 119.998
60.24000 119.084
60.28000 121.176
60.32000 120.921
60.36000 121.644
60.40000 115.540
60.44000 116.454
60.48000 120.798
60.52000 127.650
60.56000 119.461
60.60000 122.294
60.64000 112.939
60.68000 110.646
60.72000 132.147
60.76000 132.535
60.80000 121.133
60.84000 137.362
60.88000 127.583
60.92000 120.783
60.96000 116.380
61.00000 123.613
61.04000 117.195
61.08000 126.407
61.12000 132.878
61.16000 121.802
61.20000 125.817
61.24000 130.781
61.28000 127.532
61.32000 125.813
61.36000 122.831
61.40000 142.381
61.44000 130.899
61.48000 138.310
61.52000 162.564
61.56000 208.710
61.60000 241.445
61.64000 274.359
61.68000 289.527
61.72000 295.566
61.76000 271.186
61.80000 218.606
61.84000 170.766
61.88000 148.917
61.92000 134.643
61.96000 129.086
62.00000 132.942
62.04000 129.193
62.08000 132.305
62.12000 121.240
62.16000 130.147
62.20000 131.381
62.24000 121.551
62.28000 118.172
62.32000 132.023
62.36000 136.104
62.40000 131.129
62.44000 124.556
62.48000 130.076
62.52000 124.804
62.56000 133.386
62.60000 131.888
62.64000 122.506
62.68000 132.901
62.72000 138.214
62.76000 134.820
62.80000 132.371
62.84000 134.807
62.88000 124.825
62.92000 139.036
62.96000 131.286
63.00000 134.185
63.04000 133.864
63.08000 130.806
63.12000 131.442
63.16000 136.837
63.20000 131.361
63.24000 131.680
63.28000 137.036
63.32000 131.550
63.36000 139.362
63.40000 139.544
63.44000 131.432
63.48000 137.667
63.52000 138.527
63.56000 133.261
63.60000 130.079
63.64000 137.499
63.68000 128.601
63.72000 141.026
63.76000 143.016
63.80000 145.594
63.84000 144.874
63.88000 143.137
63.92000 139.622
63.96000 138.045
64.00000 140.234
64.04000 139.960
64.08000 146.876
64.12000 149.120
64.16000 131.744
64.20000 144.092
64.24000 145.186
64.28000 151.881
64.32000 154.815
64.36000 163.030
64.40000 154.568
64.44000 151.950
64.48000 157.989
64.52000 148.643
64.56000 164.322
64.60000 162.563
64.64000 170.686
64.68000 171.532
64.72000 181.846
64.76000 171.602
64.80000 184.314
64.84000 176.330
64.88000 192.567
64.92000 181.527
64.96000 186.575
65.00000 200.522
65.04000 204.788
65.08000 206.410
65.12000 197.353
65.16000 219.291
65.20000 219.998
65.24000 218.643
65.28000 215.049
65.32000 219.942
65.36000 247.333
65.40000 239.109
65.44000 268.545
65.48000 282.312
65.52000 284.963
65.56000 318.972
65.60000 356.988
65.64000 405.083
65.68000 598.588
65.72000 946.587
65.76000 1405.083
65.80000 1769.073
65.84000 1912.184
65.88000 1938.924
65.92000 1785.976
65.96000 1442.906
66.00000 947.167
66.04000 581.004
66.08000 455.009
66.12000 386.113
66.16000 355.626
66.20000 355.996
66.24000 375.428
66.28000 460.392
66.32000 546.078
66.36000 596.453
66.40000 621.214
66.44000 598.685
66.48000 577.173
66.52000 502.748
66.56000 425.602
66.60000 386.467
66.64000 348.632
66.68000 361.689
66.72000 341.010
66.76000 357.003
66.80000 347.890
66.84000 360.064
66.88000 365.915
66.92000 353.037
66.96000 376.198
67.00000 379.271
67.04000 367.106
67.08000 372.904
67.12000 382.977
67.16000 375.493
67.20000 389.741
67.24000 389.483
67.28000 386.160
67.32000 400.841
67.36000 397.484
67.40000 423.427
67.44000 419.609
67.48000 414.685
67.52000 412.464
67.56000 439.380
67.60000 428.356
67.64000 441.919
67.68000 446.809
67.72000 443.607
67.76000 452.662
67.80000 478.569
67.84000 454.359
67.88000 486.322
67.92000 485.494
67.96000 481.216
68.00000 502.392
68.04000 523.805
68.08000 523.674
68.12000 512.940
68.16000 531.918
68.20000 542.691
68.24000 579.677
68.28000 588.089
68.32000 588.666
68.36000 609.334
68.40000 625.720
68.44000 638.173
68.48000 685.569
68.52000 728.733
68.56000 772.174
68.60000 855.783
68.64000 963.927
68.68000 1123.540
68.72000 1316.692
68.76000 1503.924
68.80000 1666.369
68.84000 1915.501
68.88000 2394.000
68.92000 4009.352
68.96000 10085.533
69.00000 22610.139
69.04000 34985.867
69.08000 40870.477
69.12000 43525.055
69.16000 46303.441
69.20000 44739.992
69.24000 34860.098
69.28000 25822.527
69.32000 21805.523
69.36000 20702.148
69.40000 16619.072
69.44000 9577.178
69.48000 4185.763
69.52000 1972.754
69.56000 1284.253
69.60000 1040.517
69.64000 897.108
69.68000 775.524
69.72000 710.738
69.76000 658.249
69.80000 596.238
69.84000 598.422
69.88000 551.335
69.92000 538.308
69.96000 513.835
70.00000 490.073