File: XRD/XRD/08-10-2025 Dep 7/XY Data/BTO_Mapping_Theta2Theta_08-10-2025_001_38_-8-090_-5-878.xy
20.00000 468.178
20.04000 480.252
20.08000 467.356
20.12000 463.003
20.16000 460.288
20.20000 480.056
20.24000 490.759
20.28000 470.214
20.32000 482.257
20.36000 461.464
20.40000 455.268
20.44000 469.525
20.48000 465.799
20.52000 473.051
20.56000 475.848
20.60000 460.726
20.64000 483.910
20.68000 468.169
20.72000 454.935
20.76000 472.499
20.80000 470.158
20.84000 489.495
20.88000 460.521
20.92000 475.208
20.96000 456.666
21.00000 455.392
21.04000 483.491
21.08000 464.209
21.12000 481.940
21.16000 470.818
21.20000 454.210
21.24000 473.750
21.28000 465.130
21.32000 458.004
21.36000 463.613
21.40000 460.217
21.44000 464.781
21.48000 456.987
21.52000 467.661
21.56000 453.673
21.60000 444.950
21.64000 454.474
21.68000 481.976
21.72000 470.410
21.76000 459.002
21.80000 492.546
21.84000 493.621
21.88000 498.010
21.92000 518.047
21.96000 517.339
22.00000 533.237
22.04000 532.689
22.08000 520.707
22.12000 530.722
22.16000 518.864
22.20000 545.866
22.24000 520.010
22.28000 505.257
22.32000 483.937
22.36000 484.307
22.40000 489.263
22.44000 463.375
22.48000 464.903
22.52000 464.622
22.56000 454.908
22.60000 437.891
22.64000 448.832
22.68000 444.872
22.72000 430.101
22.76000 430.953
22.80000 441.470
22.84000 454.192
22.88000 444.949
22.92000 440.942
22.96000 421.316
23.00000 441.315
23.04000 436.537
23.08000 441.532
23.12000 460.607
23.16000 446.907
23.20000 414.903
23.24000 423.064
23.28000 439.795
23.32000 429.700
23.36000 432.378
23.40000 427.397
23.44000 432.814
23.48000 440.172
23.52000 445.047
23.56000 446.861
23.60000 447.614
23.64000 437.313
23.68000 421.535
23.72000 432.843
23.76000 447.837
23.80000 441.751
23.84000 448.480
23.88000 465.438
23.92000 471.522
23.96000 479.492
24.00000 471.566
24.04000 486.114
24.08000 474.426
24.12000 448.339
24.16000 440.077
24.20000 427.713
24.24000 429.115
24.28000 446.254
24.32000 424.643
24.36000 432.896
24.40000 426.794
24.44000 420.201
24.48000 424.296
24.52000 406.255
24.56000 411.661
24.60000 407.668
24.64000 430.360
24.68000 416.852
24.72000 425.891
24.76000 415.315
24.80000 403.300
24.84000 407.838
24.88000 418.819
24.92000 403.922
24.96000 414.076
25.00000 401.569
25.04000 388.913
25.08000 409.383
25.12000 404.341
25.16000 415.035
25.20000 398.341
25.24000 411.520
25.28000 385.940
25.32000 414.419
25.36000 408.631
25.40000 404.829
25.44000 409.284
25.48000 405.815
25.52000 389.299
25.56000 410.063
25.60000 412.277
25.64000 405.128
25.68000 389.305
25.72000 400.588
25.76000 383.623
25.80000 395.693
25.84000 389.542
25.88000 387.442
25.92000 387.595
25.96000 398.471
26.00000 400.590
26.04000 407.382
26.08000 379.607
26.12000 395.276
26.16000 396.093
26.20000 388.528
26.24000 418.498
26.28000 384.467
26.32000 389.440
26.36000 386.359
26.40000 395.920
26.44000 363.781
26.48000 377.709
26.52000 381.521
26.56000 377.933
26.60000 374.575
26.64000 400.882
26.68000 375.515
26.72000 378.671
26.76000 388.239
26.80000 380.073
26.84000 385.552
26.88000 374.993
26.92000 379.233
26.96000 370.323
27.00000 365.944
27.04000 399.476
27.08000 382.510
27.12000 369.113
27.16000 383.433
27.20000 377.886
27.24000 386.434
27.28000 382.310
27.32000 371.494
27.36000 374.252
27.40000 385.502
27.44000 371.861
27.48000 378.973
27.52000 382.841
27.56000 396.941
27.60000 367.770
27.64000 356.104
27.68000 372.737
27.72000 363.921
27.76000 362.925
27.80000 364.355
27.84000 366.938
27.88000 376.890
27.92000 372.571
27.96000 373.773
28.00000 364.639
28.04000 366.955
28.08000 376.107
28.12000 370.413
28.16000 363.633
28.20000 367.110
28.24000 364.655
28.28000 355.123
28.32000 374.018
28.36000 358.996
28.40000 364.729
28.44000 368.353
28.48000 368.418
28.52000 357.393
28.56000 342.318
28.60000 358.551
28.64000 364.554
28.68000 358.058
28.72000 342.449
28.76000 354.659
28.80000 343.049
28.84000 345.974
28.88000 352.209
28.92000 336.641
28.96000 337.972
29.00000 338.864
29.04000 356.533
29.08000 345.628
29.12000 347.056
29.16000 345.962
29.20000 361.306
29.24000 340.086
29.28000 345.081
29.32000 353.302
29.36000 353.573
29.40000 342.269
29.44000 328.713
29.48000 349.041
29.52000 356.511
29.56000 333.111
29.60000 339.375
29.64000 356.706
29.68000 347.788
29.72000 360.368
29.76000 354.663
29.80000 363.116
29.84000 380.873
29.88000 376.792
29.92000 394.038
29.96000 385.680
30.00000 395.669
30.04000 396.211
30.08000 385.749
30.12000 378.685
30.16000 365.904
30.20000 382.999
30.24000 357.492
30.28000 385.618
30.32000 350.623
30.36000 361.192
30.40000 352.595
30.44000 364.307
30.48000 357.771
30.52000 379.844
30.56000 363.864
30.60000 360.276
30.64000 353.713
30.68000 353.037
30.72000 367.643
30.76000 379.125
30.80000 370.261
30.84000 385.798
30.88000 419.626
30.92000 416.137
30.96000 431.969
31.00000 474.053
31.04000 532.201
31.08000 605.889
31.12000 697.815
31.16000 829.686
31.20000 978.260
31.24000 1141.600
31.28000 1279.038
31.32000 1357.328
31.36000 1410.432
31.40000 1357.881
31.44000 1289.962
31.48000 1132.996
31.52000 980.833
31.56000 794.922
31.60000 669.961
31.64000 550.491
31.68000 494.958
31.72000 432.554
31.76000 433.811
31.80000 397.369
31.84000 399.976
31.88000 369.819
31.92000 364.177
31.96000 337.370
32.00000 360.184
32.04000 350.500
32.08000 347.907
32.12000 330.390
32.16000 339.367
32.20000 327.987
32.24000 326.482
32.28000 331.861
32.32000 332.428
32.36000 336.171
32.40000 325.043
32.44000 317.338
32.48000 321.353
32.52000 315.702
32.56000 306.086
32.60000 320.088
32.64000 317.547
32.68000 296.125
32.72000 316.733
32.76000 307.969
32.80000 312.628
32.84000 327.290
32.88000 323.680
32.92000 329.510
32.96000 314.267
33.00000 306.427
33.04000 315.451
33.08000 309.841
33.12000 310.384
33.16000 301.285
33.20000 303.805
33.24000 310.684
33.28000 305.938
33.32000 298.224
33.36000 307.493
33.40000 292.608
33.44000 302.418
33.48000 295.757
33.52000 301.557
33.56000 295.680
33.60000 303.763
33.64000 301.322
33.68000 292.521
33.72000 297.527
33.76000 292.814
33.80000 304.327
33.84000 290.703
33.88000 294.206
33.92000 323.568
33.96000 306.792
34.00000 316.129
34.04000 338.571
34.08000 315.858
34.12000 324.582
34.16000 326.670
34.20000 338.339
34.24000 349.684
34.28000 339.304
34.32000 334.657
34.36000 346.040
34.40000 344.233
34.44000 337.740
34.48000 343.319
34.52000 339.647
34.56000 354.849
34.60000 326.728
34.64000 308.463
34.68000 297.689
34.72000 304.057
34.76000 305.775
34.80000 292.173
34.84000 295.163
34.88000 296.744
34.92000 296.795
34.96000 270.519
35.00000 279.914
35.04000 288.289
35.08000 281.169
35.12000 263.243
35.16000 270.788
35.20000 263.108
35.24000 279.524
35.28000 277.621
35.32000 275.674
35.36000 266.373
35.40000 261.907
35.44000 272.338
35.48000 257.503
35.52000 271.434
35.56000 272.736
35.60000 265.066
35.64000 265.753
35.68000 272.373
35.72000 269.705
35.76000 268.572
35.80000 266.865
35.84000 268.960
35.88000 258.486
35.92000 260.717
35.96000 255.706
36.00000 250.776
36.04000 263.433
36.08000 265.747
36.12000 255.759
36.16000 255.902
36.20000 248.849
36.24000 263.433
36.28000 259.324
36.32000 260.522
36.36000 265.027
36.40000 266.803
36.44000 250.820
36.48000 252.785
36.52000 235.726
36.56000 248.586
36.60000 255.496
36.64000 252.137
36.68000 262.543
36.72000 263.861
36.76000 266.920
36.80000 278.539
36.84000 274.637
36.88000 283.518
36.92000 284.366
36.96000 290.479
37.00000 294.457
37.04000 282.260
37.08000 286.817
37.12000 289.789
37.16000 284.644
37.20000 287.174
37.24000 267.573
37.28000 265.490
37.32000 270.999
37.36000 274.937
37.40000 272.064
37.44000 265.142
37.48000 252.068
37.52000 252.205
37.56000 268.192
37.60000 253.885
37.64000 253.791
37.68000 253.201
37.72000 258.707
37.76000 257.995
37.80000 269.125
37.84000 257.713
37.88000 248.761
37.92000 257.382
37.96000 255.146
38.00000 260.832
38.04000 257.528
38.08000 260.646
38.12000 281.862
38.16000 271.896
38.20000 277.114
38.24000 287.595
38.28000 309.883
38.32000 322.852
38.36000 380.216
38.40000 430.913
38.44000 532.316
38.48000 613.815
38.52000 747.105
38.56000 911.393
38.60000 1003.575
38.64000 1137.347
38.68000 1215.324
38.72000 1205.693
38.76000 1141.069
38.80000 1082.338
38.84000 948.945
38.88000 788.292
38.92000 647.785
38.96000 519.030
39.00000 420.184
39.04000 358.180
39.08000 301.874
39.12000 276.120
39.16000 272.379
39.20000 251.833
39.24000 259.644
39.28000 238.188
39.32000 236.637
39.36000 231.158
39.40000 229.359
39.44000 226.023
39.48000 231.736
39.52000 230.325
39.56000 223.469
39.60000 231.033
39.64000 234.923
39.68000 229.794
39.72000 229.206
39.76000 227.606
39.80000 228.958
39.84000 222.928
39.88000 218.328
39.92000 241.577
39.96000 230.391
40.00000 223.307
40.04000 237.666
40.08000 218.947
40.12000 222.342
40.16000 247.056
40.20000 225.161
40.24000 214.426
40.28000 226.888
40.32000 216.293
40.36000 224.198
40.40000 226.237
40.44000 218.383
40.48000 211.367
40.52000 210.807
40.56000 220.020
40.60000 226.541
40.64000 227.848
40.68000 220.879
40.72000 219.373
40.76000 219.244
40.80000 209.648
40.84000 207.864
40.88000 224.829
40.92000 203.872
40.96000 207.900
41.00000 218.797
41.04000 203.180
41.08000 222.196
41.12000 212.284
41.16000 212.589
41.20000 209.758
41.24000 205.170
41.28000 214.484
41.32000 217.042
41.36000 210.526
41.40000 212.130
41.44000 215.741
41.48000 206.230
41.52000 212.783
41.56000 208.843
41.60000 195.280
41.64000 221.981
41.68000 201.394
41.72000 209.977
41.76000 196.752
41.80000 207.814
41.84000 221.858
41.88000 204.113
41.92000 220.676
41.96000 217.172
42.00000 215.697
42.04000 219.039
42.08000 200.850
42.12000 203.971
42.16000 205.280
42.20000 208.716
42.24000 199.620
42.28000 202.595
42.32000 209.324
42.36000 217.845
42.40000 205.383
42.44000 204.043
42.48000 210.518
42.52000 200.214
42.56000 207.920
42.60000 203.469
42.64000 203.142
42.68000 205.017
42.72000 205.667
42.76000 202.534
42.80000 206.124
42.84000 205.744
42.88000 212.319
42.92000 216.839
42.96000 209.149
43.00000 188.476
43.04000 194.891
43.08000 189.831
43.12000 210.684
43.16000 203.941
43.20000 196.911
43.24000 198.146
43.28000 188.738
43.32000 194.951
43.36000 187.381
43.40000 200.012
43.44000 195.900
43.48000 204.946
43.52000 198.665
43.56000 190.659
43.60000 187.781
43.64000 199.319
43.68000 198.155
43.72000 194.159
43.76000 195.545
43.80000 202.331
43.84000 199.619
43.88000 176.928
43.92000 177.881
43.96000 199.408
44.00000 206.783
44.04000 196.171
44.08000 195.676
44.12000 195.519
44.16000 190.928
44.20000 195.431
44.24000 189.363
44.28000 197.495
44.32000 193.714
44.36000 204.566
44.40000 205.016
44.44000 208.408
44.48000 203.063
44.52000 210.491
44.56000 221.986
44.60000 216.341
44.64000 213.294
44.68000 219.164
44.72000 217.883
44.76000 226.661
44.80000 243.178
44.84000 224.063
44.88000 257.285
44.92000 263.380
44.96000 263.687
45.00000 266.776
45.04000 262.129
45.08000 271.909
45.12000 266.990
45.16000 259.805
45.20000 244.367
45.24000 248.655
45.28000 244.335
45.32000 237.991
45.36000 229.223
45.40000 238.912
45.44000 226.734
45.48000 212.907
45.52000 199.690
45.56000 200.717
45.60000 205.550
45.64000 200.749
45.68000 204.707
45.72000 205.731
45.76000 206.067
45.80000 207.573
45.84000 202.660
45.88000 181.941
45.92000 181.766
45.96000 177.491
46.00000 194.018
46.04000 186.719
46.08000 174.432
46.12000 174.655
46.16000 185.752
46.20000 172.078
46.24000 175.253
46.28000 170.923
46.32000 174.867
46.36000 171.490
46.40000 175.426
46.44000 172.795
46.48000 177.739
46.52000 174.458
46.56000 181.612
46.60000 194.567
46.64000 174.164
46.68000 172.951
46.72000 168.916
46.76000 178.695
46.80000 158.841
46.84000 179.276
46.88000 180.379
46.92000 173.495
46.96000 170.613
47.00000 178.460
47.04000 171.559
47.08000 158.962
47.12000 177.906
47.16000 172.705
47.20000 158.465
47.24000 171.061
47.28000 158.478
47.32000 171.157
47.36000 165.230
47.40000 159.821
47.44000 162.644
47.48000 158.922
47.52000 151.916
47.56000 164.703
47.60000 158.979
47.64000 162.379
47.68000 170.985
47.72000 166.478
47.76000 158.619
47.80000 166.463
47.84000 160.766
47.88000 166.515
47.92000 172.656
47.96000 164.792
48.00000 158.300
48.04000 156.012
48.08000 165.430
48.12000 155.508
48.16000 163.956
48.20000 164.416
48.24000 162.216
48.28000 168.782
48.32000 163.511
48.36000 165.601
48.40000 161.201
48.44000 160.216
48.48000 158.576
48.52000 157.547
48.56000 164.390
48.60000 151.651
48.64000 160.706
48.68000 151.740
48.72000 162.748
48.76000 152.496
48.80000 155.061
48.84000 161.881
48.88000 151.755
48.92000 150.606
48.96000 156.784
49.00000 155.437
49.04000 146.799
49.08000 157.112
49.12000 161.437
49.16000 163.788
49.20000 159.262
49.24000 150.502
49.28000 148.810
49.32000 161.051
49.36000 155.360
49.40000 149.428
49.44000 151.139
49.48000 162.552
49.52000 161.293
49.56000 156.790
49.60000 161.795
49.64000 158.917
49.68000 150.613
49.72000 147.633
49.76000 158.631
49.80000 149.940
49.84000 163.020
49.88000 155.674
49.92000 144.952
49.96000 148.648
50.00000 150.427
50.04000 158.405
50.08000 155.064
50.12000 153.953
50.16000 158.477
50.20000 160.829
50.24000 143.246
50.28000 159.629
50.32000 168.741
50.36000 158.834
50.40000 165.782
50.44000 169.950
50.48000 184.776
50.52000 182.789
50.56000 176.016
50.60000 188.502
50.64000 193.807
50.68000 181.500
50.72000 185.594
50.76000 168.685
50.80000 175.152
50.84000 174.510
50.88000 179.325
50.92000 167.150
50.96000 167.651
51.00000 157.680
51.04000 162.739
51.08000 155.109
51.12000 150.629
51.16000 146.738
51.20000 151.129
51.24000 155.263
51.28000 151.456
51.32000 147.252
51.36000 158.311
51.40000 149.433
51.44000 145.594
51.48000 148.834
51.52000 144.092
51.56000 135.640
51.60000 147.096
51.64000 145.919
51.68000 148.367
51.72000 138.495
51.76000 145.155
51.80000 143.898
51.84000 130.644
51.88000 143.027
51.92000 127.760
51.96000 142.864
52.00000 148.775
52.04000 149.116
52.08000 143.755
52.12000 131.148
52.16000 139.872
52.20000 135.627
52.24000 149.962
52.28000 144.366
52.32000 140.675
52.36000 149.255
52.40000 144.191
52.44000 143.398
52.48000 141.358
52.52000 136.687
52.56000 141.510
52.60000 145.470
52.64000 144.818
52.68000 138.646
52.72000 139.028
52.76000 133.755
52.80000 148.622
52.84000 141.288
52.88000 141.715
52.92000 140.177
52.96000 138.388
53.00000 144.982
53.04000 139.828
53.08000 141.008
53.12000 146.552
53.16000 150.338
53.20000 157.356
53.24000 155.097
53.28000 150.641
53.32000 157.844
53.36000 159.485
53.40000 161.994
53.44000 159.099
53.48000 149.676
53.52000 154.738
53.56000 160.424
53.60000 156.607
53.64000 140.269
53.68000 167.239
53.72000 146.033
53.76000 152.382
53.80000 146.307
53.84000 145.986
53.88000 136.943
53.92000 144.362
53.96000 145.187
54.00000 146.266
54.04000 142.288
54.08000 151.897
54.12000 142.740
54.16000 137.626
54.20000 141.834
54.24000 140.391
54.28000 143.841
54.32000 164.583
54.36000 143.634
54.40000 136.260
54.44000 132.334
54.48000 139.769
54.52000 144.152
54.56000 142.515
54.60000 152.986
54.64000 151.173
54.68000 149.536
54.72000 134.281
54.76000 139.396
54.80000 141.736
54.84000 140.556
54.88000 147.710
54.92000 147.937
54.96000 147.257
55.00000 144.386
55.04000 147.720
55.08000 146.313
55.12000 144.749
55.16000 151.126
55.20000 156.692
55.24000 161.335
55.28000 155.734
55.32000 176.243
55.36000 175.214
55.40000 198.451
55.44000 206.943
55.48000 238.798
55.52000 274.961
55.56000 293.877
55.60000 340.421
55.64000 379.275
55.68000 469.265
55.72000 546.011
55.76000 574.415
55.80000 638.487
55.84000 701.335
55.88000 707.606
55.92000 720.880
55.96000 713.332
56.00000 640.938
56.04000 604.968
56.08000 544.890
56.12000 495.770
56.16000 435.511
56.20000 358.616
56.24000 308.161
56.28000 258.719
56.32000 240.353
56.36000 201.354
56.40000 190.936
56.44000 181.887
56.48000 161.107
56.52000 169.645
56.56000 144.477
56.60000 147.050
56.64000 141.449
56.68000 133.530
56.72000 141.103
56.76000 142.185
56.80000 137.689
56.84000 140.532
56.88000 138.380
56.92000 128.733
56.96000 141.106
57.00000 134.829
57.04000 132.652
57.08000 131.977
57.12000 132.533
57.16000 127.492
57.20000 122.197
57.24000 119.611
57.28000 131.692
57.32000 126.033
57.36000 129.149
57.40000 128.331
57.44000 127.028
57.48000 123.286
57.52000 128.757
57.56000 129.627
57.60000 124.568
57.64000 124.761
57.68000 128.261
57.72000 131.574
57.76000 128.549
57.80000 126.336
57.84000 123.956
57.88000 115.787
57.92000 126.593
57.96000 110.604
58.00000 125.224
58.04000 115.165
58.08000 125.848
58.12000 113.195
58.16000 119.529
58.20000 129.363
58.24000 119.984
58.28000 120.089
58.32000 121.189
58.36000 123.706
58.40000 116.381
58.44000 124.900
58.48000 122.899
58.52000 119.276
58.56000 120.514
58.60000 125.360
58.64000 130.890
58.68000 121.543
58.72000 119.043
58.76000 122.609
58.80000 126.483
58.84000 122.019
58.88000 128.670
58.92000 125.783
58.96000 113.675
59.00000 117.085
59.04000 119.740
59.08000 123.530
59.12000 121.761
59.16000 121.235
59.20000 126.256
59.24000 119.951
59.28000 109.904
59.32000 119.121
59.36000 112.292
59.40000 124.490
59.44000 114.672
59.48000 117.662
59.52000 116.100
59.56000 113.641
59.60000 119.274
59.64000 116.181
59.68000 125.251
59.72000 116.370
59.76000 119.291
59.80000 113.908
59.84000 122.754
59.88000 117.374
59.92000 110.559
59.96000 109.038
60.00000 105.976
60.04000 116.303
60.08000 117.615
60.12000 108.077
60.16000 118.236
60.20000 115.340
60.24000 119.907
60.28000 114.606
60.32000 111.281
60.36000 131.487
60.40000 116.453
60.44000 118.250
60.48000 120.481
60.52000 118.098
60.56000 113.957
60.60000 116.237
60.64000 111.954
60.68000 115.051
60.72000 129.370
60.76000 120.268
60.80000 121.441
60.84000 131.030
60.88000 117.111
60.92000 121.791
60.96000 126.517
61.00000 124.406
61.04000 128.710
61.08000 122.831
61.12000 126.291
61.16000 122.248
61.20000 124.003
61.24000 119.939
61.28000 128.099
61.32000 125.188
61.36000 123.899
61.40000 120.261
61.44000 128.389
61.48000 124.975
61.52000 151.118
61.56000 193.280
61.60000 244.463
61.64000 276.778
61.68000 290.452
61.72000 300.369
61.76000 285.924
61.80000 248.261
61.84000 186.980
61.88000 155.943
61.92000 140.957
61.96000 142.576
62.00000 121.245
62.04000 132.138
62.08000 130.099
62.12000 128.813
62.16000 128.627
62.20000 136.816
62.24000 133.527
62.28000 130.819
62.32000 125.471
62.36000 128.603
62.40000 125.886
62.44000 126.158
62.48000 123.449
62.52000 125.074
62.56000 131.613
62.60000 139.642
62.64000 133.761
62.68000 121.438
62.72000 129.531
62.76000 132.145
62.80000 134.015
62.84000 134.419
62.88000 127.022
62.92000 140.123
62.96000 129.946
63.00000 135.513
63.04000 116.669
63.08000 136.332
63.12000 137.280
63.16000 132.046
63.20000 130.181
63.24000 138.078
63.28000 135.525
63.32000 126.907
63.36000 134.951
63.40000 138.198
63.44000 133.214
63.48000 133.973
63.52000 142.761
63.56000 137.033
63.60000 128.469
63.64000 146.801
63.68000 128.596
63.72000 138.046
63.76000 140.419
63.80000 139.854
63.84000 135.117
63.88000 143.570
63.92000 136.379
63.96000 144.252
64.00000 144.413
64.04000 144.430
64.08000 137.747
64.12000 146.519
64.16000 152.143
64.20000 150.735
64.24000 151.981
64.28000 149.470
64.32000 155.413
64.36000 153.975
64.40000 162.590
64.44000 167.159
64.48000 162.070
64.52000 151.668
64.56000 159.461
64.60000 174.397
64.64000 163.929
64.68000 154.622
64.72000 157.137
64.76000 166.183
64.80000 178.973
64.84000 182.924
64.88000 175.511
64.92000 177.098
64.96000 184.523
65.00000 192.758
65.04000 191.818
65.08000 203.451
65.12000 206.202
65.16000 217.038
65.20000 215.239
65.24000 227.810
65.28000 239.663
65.32000 255.320
65.36000 249.287
65.40000 274.952
65.44000 284.148
65.48000 305.396
65.52000 304.118
65.56000 344.620
65.60000 365.777
65.64000 403.885
65.68000 552.643
65.72000 851.247
65.76000 1313.530
65.80000 1770.494
65.84000 1982.881
65.88000 2044.048
65.92000 1951.620
65.96000 1649.194
66.00000 1165.935
66.04000 716.080
66.08000 512.600
66.12000 404.003
66.16000 378.835
66.20000 364.481
66.24000 388.889
66.28000 444.910
66.32000 520.682
66.36000 623.999
66.40000 622.042
66.44000 646.018
66.48000 627.268
66.52000 554.148
66.56000 454.922
66.60000 398.331
66.64000 381.596
66.68000 376.578
66.72000 350.311
66.76000 360.885
66.80000 346.278
66.84000 349.185
66.88000 353.720
66.92000 351.447
66.96000 356.088
67.00000 359.395
67.04000 352.724
67.08000 376.632
67.12000 378.900
67.16000 380.914
67.20000 392.669
67.24000 395.500
67.28000 405.010
67.32000 399.954
67.36000 395.050
67.40000 382.068
67.44000 392.352
67.48000 413.274
67.52000 419.166
67.56000 442.852
67.60000 436.485
67.64000 437.889
67.68000 436.847
67.72000 455.086
67.76000 444.598
67.80000 463.831
67.84000 463.108
67.88000 460.920
67.92000 488.957
67.96000 488.661
68.00000 483.578
68.04000 502.695
68.08000 522.526
68.12000 523.971
68.16000 520.205
68.20000 526.240
68.24000 546.147
68.28000 581.944
68.32000 576.851
68.36000 578.638
68.40000 625.355
68.44000 631.564
68.48000 650.387
68.52000 714.338
68.56000 718.813
68.60000 832.031
68.64000 921.249
68.68000 1111.940
68.72000 1316.284
68.76000 1441.651
68.80000 1648.091
68.84000 1854.199
68.88000 2247.113
68.92000 3398.901
68.96000 8003.236
69.00000 19660.139
69.04000 33703.148
69.08000 42205.145
69.12000 45343.289
69.16000 48269.988
69.20000 48690.973
69.24000 40565.785
69.28000 30008.141
69.32000 24047.303
69.36000 22231.301
69.40000 19120.959
69.44000 12369.319
69.48000 5833.155
69.52000 2639.092
69.56000 1500.796
69.60000 1108.564
69.64000 949.008
69.68000 846.638
69.72000 755.509
69.76000 713.758
69.80000 637.838
69.84000 628.667
69.88000 576.572
69.92000 558.091
69.96000 526.646
70.00000 500.799