File: XRD/XRD/08-10-2025 Dep 7/XY Data/BTO_Mapping_Theta2Theta_08-10-2025_001_56_20-074_-22-294.xy
20.00000 484.593
20.04000 477.459
20.08000 479.969
20.12000 496.962
20.16000 479.760
20.20000 488.289
20.24000 482.299
20.28000 474.257
20.32000 466.898
20.36000 471.886
20.40000 486.368
20.44000 471.256
20.48000 480.629
20.52000 479.575
20.56000 477.248
20.60000 467.740
20.64000 466.691
20.68000 460.103
20.72000 462.036
20.76000 470.238
20.80000 466.801
20.84000 472.475
20.88000 469.292
20.92000 475.979
20.96000 470.551
21.00000 489.557
21.04000 478.070
21.08000 455.109
21.12000 479.436
21.16000 470.864
21.20000 452.579
21.24000 489.732
21.28000 473.284
21.32000 478.513
21.36000 457.270
21.40000 466.637
21.44000 497.459
21.48000 480.262
21.52000 480.738
21.56000 477.453
21.60000 474.219
21.64000 471.079
21.68000 476.770
21.72000 481.709
21.76000 501.280
21.80000 470.352
21.84000 495.530
21.88000 496.928
21.92000 507.095
21.96000 514.886
22.00000 509.224
22.04000 519.672
22.08000 506.835
22.12000 523.350
22.16000 493.751
22.20000 510.006
22.24000 506.760
22.28000 502.042
22.32000 488.893
22.36000 483.844
22.40000 493.629
22.44000 488.973
22.48000 465.075
22.52000 454.495
22.56000 459.299
22.60000 460.330
22.64000 452.032
22.68000 436.243
22.72000 450.922
22.76000 457.743
22.80000 443.298
22.84000 446.240
22.88000 439.528
22.92000 463.945
22.96000 439.329
23.00000 439.723
23.04000 446.113
23.08000 445.901
23.12000 439.973
23.16000 439.162
23.20000 439.783
23.24000 457.379
23.28000 459.839
23.32000 463.110
23.36000 438.862
23.40000 456.178
23.44000 436.796
23.48000 447.631
23.52000 462.110
23.56000 452.084
23.60000 463.316
23.64000 475.285
23.68000 493.190
23.72000 473.984
23.76000 518.571
23.80000 524.775
23.84000 525.763
23.88000 547.854
23.92000 559.214
23.96000 546.657
24.00000 549.605
24.04000 567.768
24.08000 561.376
24.12000 536.384
24.16000 504.627
24.20000 494.135
24.24000 476.562
24.28000 472.535
24.32000 451.909
24.36000 445.867
24.40000 438.325
24.44000 434.080
24.48000 434.316
24.52000 425.944
24.56000 411.362
24.60000 429.913
24.64000 419.321
24.68000 420.250
24.72000 399.546
24.76000 411.709
24.80000 423.529
24.84000 410.104
24.88000 433.800
24.92000 408.995
24.96000 409.386
25.00000 424.536
25.04000 412.594
25.08000 413.109
25.12000 404.639
25.16000 413.730
25.20000 434.255
25.24000 399.987
25.28000 409.038
25.32000 386.742
25.36000 412.387
25.40000 403.825
25.44000 402.639
25.48000 419.680
25.52000 398.713
25.56000 395.210
25.60000 380.656
25.64000 412.795
25.68000 395.361
25.72000 389.601
25.76000 407.953
25.80000 420.916
25.84000 400.959
25.88000 396.502
25.92000 394.962
25.96000 415.472
26.00000 398.158
26.04000 403.503
26.08000 411.549
26.12000 400.216
26.16000 392.901
26.20000 395.806
26.24000 397.283
26.28000 389.616
26.32000 412.563
26.36000 389.768
26.40000 391.611
26.44000 379.068
26.48000 390.341
26.52000 391.040
26.56000 384.405
26.60000 383.938
26.64000 398.519
26.68000 394.686
26.72000 394.238
26.76000 380.939
26.80000 389.825
26.84000 385.263
26.88000 363.659
26.92000 381.663
26.96000 395.385
27.00000 391.547
27.04000 390.022
27.08000 390.010
27.12000 382.164
27.16000 378.865
27.20000 373.009
27.24000 382.612
27.28000 371.279
27.32000 391.831
27.36000 372.674
27.40000 374.155
27.44000 363.622
27.48000 384.029
27.52000 363.642
27.56000 365.651
27.60000 366.686
27.64000 379.525
27.68000 376.498
27.72000 372.699
27.76000 357.779
27.80000 354.691
27.84000 380.628
27.88000 359.489
27.92000 371.895
27.96000 361.149
28.00000 365.101
28.04000 377.381
28.08000 365.434
28.12000 373.053
28.16000 365.810
28.20000 360.886
28.24000 370.431
28.28000 375.535
28.32000 354.501
28.36000 371.386
28.40000 366.283
28.44000 358.799
28.48000 380.119
28.52000 371.889
28.56000 366.174
28.60000 359.028
28.64000 351.803
28.68000 369.000
28.72000 362.059
28.76000 357.001
28.80000 374.370
28.84000 356.392
28.88000 370.045
28.92000 353.645
28.96000 373.301
29.00000 368.622
29.04000 361.738
29.08000 359.182
29.12000 364.305
29.16000 353.721
29.20000 363.690
29.24000 361.446
29.28000 360.502
29.32000 363.357
29.36000 347.356
29.40000 356.210
29.44000 358.702
29.48000 359.322
29.52000 366.291
29.56000 364.768
29.60000 367.238
29.64000 349.919
29.68000 364.563
29.72000 367.791
29.76000 378.863
29.80000 376.070
29.84000 378.026
29.88000 381.916
29.92000 382.566
29.96000 398.957
30.00000 377.635
30.04000 384.837
30.08000 389.369
30.12000 374.328
30.16000 368.009
30.20000 392.506
30.24000 382.974
30.28000 381.880
30.32000 372.200
30.36000 363.516
30.40000 358.896
30.44000 371.424
30.48000 377.293
30.52000 374.635
30.56000 380.286
30.60000 350.176
30.64000 370.042
30.68000 382.661
30.72000 393.129
30.76000 406.144
30.80000 399.033
30.84000 399.886
30.88000 404.001
30.92000 453.006
30.96000 453.094
31.00000 494.791
31.04000 531.776
31.08000 604.777
31.12000 668.377
31.16000 756.309
31.20000 841.219
31.24000 941.619
31.28000 1061.200
31.32000 1099.473
31.36000 1146.867
31.40000 1121.959
31.44000 1106.876
31.48000 958.442
31.52000 876.479
31.56000 753.340
31.60000 655.538
31.64000 582.861
31.68000 509.558
31.72000 460.429
31.76000 421.866
31.80000 420.876
31.84000 410.305
31.88000 384.733
31.92000 360.749
31.96000 352.781
32.00000 350.210
32.04000 356.818
32.08000 340.287
32.12000 351.136
32.16000 359.864
32.20000 344.046
32.24000 352.993
32.28000 326.636
32.32000 335.774
32.36000 335.089
32.40000 334.741
32.44000 326.908
32.48000 340.352
32.52000 324.865
32.56000 341.053
32.60000 335.251
32.64000 322.825
32.68000 335.694
32.72000 329.938
32.76000 339.059
32.80000 342.930
32.84000 323.582
32.88000 327.278
32.92000 319.547
32.96000 320.496
33.00000 319.053
33.04000 316.425
33.08000 300.186
33.12000 304.939
33.16000 310.437
33.20000 302.916
33.24000 299.742
33.28000 299.900
33.32000 296.638
33.36000 304.481
33.40000 300.945
33.44000 293.184
33.48000 303.662
33.52000 300.412
33.56000 293.067
33.60000 314.690
33.64000 293.238
33.68000 315.097
33.72000 304.595
33.76000 314.645
33.80000 298.859
33.84000 316.245
33.88000 308.066
33.92000 325.729
33.96000 313.781
34.00000 340.886
34.04000 314.111
34.08000 331.215
34.12000 317.718
34.16000 329.402
34.20000 349.410
34.24000 330.497
34.28000 343.134
34.32000 351.651
34.36000 329.571
34.40000 340.654
34.44000 342.520
34.48000 340.295
34.52000 334.755
34.56000 321.106
34.60000 337.011
34.64000 322.615
34.68000 309.546
34.72000 300.298
34.76000 299.384
34.80000 294.163
34.84000 285.455
34.88000 297.662
34.92000 274.654
34.96000 283.831
35.00000 284.625
35.04000 277.852
35.08000 274.780
35.12000 270.647
35.16000 277.187
35.20000 279.113
35.24000 273.746
35.28000 258.563
35.32000 271.120
35.36000 278.817
35.40000 271.196
35.44000 276.257
35.48000 274.154
35.52000 275.813
35.56000 265.132
35.60000 275.039
35.64000 270.799
35.68000 276.616
35.72000 269.227
35.76000 252.960
35.80000 280.993
35.84000 271.368
35.88000 268.227
35.92000 266.698
35.96000 265.572
36.00000 260.400
36.04000 261.253
36.08000 267.166
36.12000 269.079
36.16000 261.948
36.20000 260.509
36.24000 273.154
36.28000 265.479
36.32000 264.462
36.36000 256.628
36.40000 250.351
36.44000 252.826
36.48000 261.251
36.52000 245.848
36.56000 265.363
36.60000 267.679
36.64000 249.502
36.68000 260.452
36.72000 277.337
36.76000 269.819
36.80000 280.942
36.84000 273.086
36.88000 273.848
36.92000 283.997
36.96000 259.959
37.00000 278.051
37.04000 276.724
37.08000 273.892
37.12000 274.667
37.16000 271.969
37.20000 277.622
37.24000 257.542
37.28000 255.183
37.32000 249.312
37.36000 247.776
37.40000 240.929
37.44000 245.381
37.48000 240.653
37.52000 244.956
37.56000 254.654
37.60000 254.139
37.64000 271.240
37.68000 245.246
37.72000 271.455
37.76000 256.478
37.80000 271.263
37.84000 257.048
37.88000 267.728
37.92000 253.761
37.96000 266.719
38.00000 251.287
38.04000 271.519
38.08000 272.951
38.12000 266.202
38.16000 267.052
38.20000 272.370
38.24000 272.532
38.28000 282.082
38.32000 301.170
38.36000 329.248
38.40000 352.853
38.44000 425.155
38.48000 525.473
38.52000 582.385
38.56000 690.859
38.60000 791.044
38.64000 889.137
38.68000 925.943
38.72000 921.260
38.76000 877.674
38.80000 819.440
38.84000 688.175
38.88000 584.323
38.92000 483.241
38.96000 423.093
39.00000 360.767
39.04000 306.905
39.08000 288.116
39.12000 268.740
39.16000 255.026
39.20000 269.101
39.24000 259.997
39.28000 248.793
39.32000 247.085
39.36000 253.816
39.40000 233.903
39.44000 237.036
39.48000 243.677
39.52000 231.268
39.56000 232.997
39.60000 246.110
39.64000 257.352
39.68000 243.650
39.72000 232.815
39.76000 236.966
39.80000 242.295
39.84000 234.833
39.88000 246.587
39.92000 249.909
39.96000 232.812
40.00000 238.245
40.04000 245.647
40.08000 218.536
40.12000 236.584
40.16000 225.535
40.20000 225.288
40.24000 216.606
40.28000 224.708
40.32000 221.436
40.36000 218.629
40.40000 228.272
40.44000 226.725
40.48000 215.429
40.52000 221.212
40.56000 220.574
40.60000 213.778
40.64000 221.390
40.68000 218.396
40.72000 212.043
40.76000 217.018
40.80000 211.982
40.84000 224.590
40.88000 216.556
40.92000 211.903
40.96000 212.077
41.00000 214.975
41.04000 220.448
41.08000 226.589
41.12000 214.513
41.16000 216.048
41.20000 216.054
41.24000 213.663
41.28000 218.641
41.32000 211.209
41.36000 212.534
41.40000 213.051
41.44000 208.412
41.48000 210.777
41.52000 219.210
41.56000 225.017
41.60000 208.176
41.64000 210.654
41.68000 220.723
41.72000 210.903
41.76000 213.254
41.80000 216.967
41.84000 215.776
41.88000 214.988
41.92000 217.150
41.96000 220.981
42.00000 227.753
42.04000 222.851
42.08000 227.942
42.12000 224.525
42.16000 226.477
42.20000 227.588
42.24000 218.381
42.28000 234.672
42.32000 214.577
42.36000 226.432
42.40000 213.218
42.44000 237.894
42.48000 227.010
42.52000 219.379
42.56000 225.713
42.60000 221.573
42.64000 214.679
42.68000 215.181
42.72000 210.873
42.76000 207.107
42.80000 209.290
42.84000 228.697
42.88000 218.401
42.92000 216.645
42.96000 207.192
43.00000 201.166
43.04000 195.238
43.08000 209.886
43.12000 198.257
43.16000 198.225
43.20000 193.056
43.24000 208.188
43.28000 215.551
43.32000 203.241
43.36000 207.620
43.40000 197.922
43.44000 198.649
43.48000 195.957
43.52000 204.163
43.56000 199.545
43.60000 204.832
43.64000 196.586
43.68000 203.539
43.72000 202.844
43.76000 201.651
43.80000 206.176
43.84000 200.422
43.88000 193.999
43.92000 195.632
43.96000 200.718
44.00000 199.967
44.04000 201.069
44.08000 203.401
44.12000 201.403
44.16000 202.250
44.20000 204.795
44.24000 210.468
44.28000 194.060
44.32000 208.281
44.36000 206.251
44.40000 210.525
44.44000 206.756
44.48000 209.464
44.52000 219.671
44.56000 227.799
44.60000 223.874
44.64000 215.665
44.68000 234.212
44.72000 224.843
44.76000 238.899
44.80000 237.218
44.84000 261.326
44.88000 236.873
44.92000 232.874
44.96000 235.953
45.00000 241.622
45.04000 235.945
45.08000 237.593
45.12000 225.416
45.16000 244.742
45.20000 236.097
45.24000 222.807
45.28000 224.403
45.32000 218.866
45.36000 222.656
45.40000 220.262
45.44000 210.666
45.48000 202.855
45.52000 204.701
45.56000 208.349
45.60000 191.312
45.64000 200.563
45.68000 195.810
45.72000 189.257
45.76000 192.637
45.80000 182.442
45.84000 185.515
45.88000 174.718
45.92000 189.370
45.96000 190.209
46.00000 175.554
46.04000 176.826
46.08000 188.070
46.12000 174.668
46.16000 173.424
46.20000 178.457
46.24000 178.039
46.28000 177.273
46.32000 182.706
46.36000 177.652
46.40000 178.878
46.44000 180.015
46.48000 189.042
46.52000 190.665
46.56000 179.449
46.60000 178.913
46.64000 175.178
46.68000 173.748
46.72000 183.496
46.76000 187.476
46.80000 175.843
46.84000 163.156
46.88000 168.070
46.92000 185.138
46.96000 172.008
47.00000 175.280
47.04000 174.692
47.08000 170.208
47.12000 158.435
47.16000 169.220
47.20000 168.360
47.24000 170.067
47.28000 169.118
47.32000 164.267
47.36000 163.159
47.40000 169.066
47.44000 175.937
47.48000 174.210
47.52000 168.915
47.56000 156.669
47.60000 166.707
47.64000 166.315
47.68000 174.160
47.72000 160.984
47.76000 161.977
47.80000 164.023
47.84000 155.119
47.88000 162.788
47.92000 162.797
47.96000 162.376
48.00000 165.110
48.04000 151.055
48.08000 161.598
48.12000 156.081
48.16000 171.483
48.20000 167.386
48.24000 158.961
48.28000 170.242
48.32000 150.260
48.36000 156.079
48.40000 158.817
48.44000 157.267
48.48000 152.880
48.52000 162.272
48.56000 157.521
48.60000 152.678
48.64000 166.331
48.68000 158.692
48.72000 162.100
48.76000 166.178
48.80000 166.716
48.84000 152.751
48.88000 155.222
48.92000 163.165
48.96000 154.387
49.00000 155.268
49.04000 166.054
49.08000 165.057
49.12000 155.681
49.16000 156.370
49.20000 149.598
49.24000 155.918
49.28000 169.167
49.32000 156.663
49.36000 158.168
49.40000 160.916
49.44000 161.776
49.48000 155.804
49.52000 162.587
49.56000 158.081
49.60000 154.363
49.64000 160.754
49.68000 160.180
49.72000 157.972
49.76000 146.885
49.80000 150.049
49.84000 157.108
49.88000 160.478
49.92000 167.276
49.96000 144.463
50.00000 154.800
50.04000 155.292
50.08000 155.744
50.12000 148.191
50.16000 162.545
50.20000 150.327
50.24000 147.335
50.28000 153.937
50.32000 161.332
50.36000 169.216
50.40000 164.506
50.44000 167.149
50.48000 158.427
50.52000 157.072
50.56000 169.913
50.60000 160.181
50.64000 169.040
50.68000 152.967
50.72000 165.530
50.76000 156.986
50.80000 167.181
50.84000 162.341
50.88000 167.550
50.92000 156.165
50.96000 155.808
51.00000 163.648
51.04000 149.309
51.08000 144.155
51.12000 154.632
51.16000 144.196
51.20000 140.682
51.24000 147.284
51.28000 143.614
51.32000 144.551
51.36000 151.515
51.40000 146.002
51.44000 144.529
51.48000 146.712
51.52000 140.824
51.56000 140.996
51.60000 158.124
51.64000 149.650
51.68000 152.867
51.72000 148.895
51.76000 147.700
51.80000 150.795
51.84000 138.742
51.88000 144.462
51.92000 148.293
51.96000 142.076
52.00000 155.027
52.04000 143.800
52.08000 144.154
52.12000 143.804
52.16000 138.120
52.20000 139.614
52.24000 141.291
52.28000 144.005
52.32000 138.671
52.36000 144.226
52.40000 143.934
52.44000 148.997
52.48000 140.021
52.52000 142.010
52.56000 135.230
52.60000 138.610
52.64000 130.423
52.68000 141.837
52.72000 134.427
52.76000 140.471
52.80000 146.245
52.84000 143.301
52.88000 143.430
52.92000 140.928
52.96000 145.432
53.00000 146.138
53.04000 139.240
53.08000 151.630
53.12000 148.249
53.16000 145.539
53.20000 143.702
53.24000 153.446
53.28000 150.857
53.32000 159.919
53.36000 144.536
53.40000 143.270
53.44000 151.199
53.48000 158.786
53.52000 147.252
53.56000 151.113
53.60000 146.971
53.64000 147.692
53.68000 140.397
53.72000 148.044
53.76000 149.011
53.80000 147.717
53.84000 155.392
53.88000 145.792
53.92000 138.240
53.96000 138.226
54.00000 154.936
54.04000 140.347
54.08000 153.444
54.12000 149.732
54.16000 145.558
54.20000 150.718
54.24000 138.023
54.28000 140.755
54.32000 130.303
54.36000 138.213
54.40000 143.940
54.44000 142.251
54.48000 139.450
54.52000 147.806
54.56000 139.503
54.60000 137.637
54.64000 145.192
54.68000 152.672
54.72000 148.103
54.76000 149.046
54.80000 147.048
54.84000 149.451
54.88000 144.233
54.92000 137.117
54.96000 147.439
55.00000 151.797
55.04000 149.820
55.08000 147.190
55.12000 144.021
55.16000 149.474
55.20000 156.899
55.24000 160.649
55.28000 170.268
55.32000 173.082
55.36000 178.684
55.40000 188.811
55.44000 196.100
55.48000 202.741
55.52000 226.199
55.56000 215.254
55.60000 257.906
55.64000 308.861
55.68000 329.517
55.72000 356.696
55.76000 382.937
55.80000 405.613
55.84000 440.831
55.88000 454.359
55.92000 491.940
55.96000 485.318
56.00000 468.358
56.04000 440.332
56.08000 409.812
56.12000 384.796
56.16000 342.427
56.20000 307.254
56.24000 272.517
56.28000 244.904
56.32000 220.290
56.36000 203.378
56.40000 182.276
56.44000 176.874
56.48000 174.987
56.52000 164.136
56.56000 146.864
56.60000 161.298
56.64000 158.528
56.68000 148.783
56.72000 151.173
56.76000 145.708
56.80000 133.428
56.84000 133.726
56.88000 132.562
56.92000 146.288
56.96000 139.069
57.00000 144.757
57.04000 133.297
57.08000 129.036
57.12000 126.306
57.16000 131.419
57.20000 127.823
57.24000 130.704
57.28000 132.305
57.32000 117.892
57.36000 125.853
57.40000 115.485
57.44000 134.722
57.48000 131.762
57.52000 130.355
57.56000 126.072
57.60000 130.229
57.64000 127.962
57.68000 130.864
57.72000 134.644
57.76000 138.017
57.80000 120.579
57.84000 127.840
57.88000 124.927
57.92000 123.927
57.96000 127.559
58.00000 131.985
58.04000 134.787
58.08000 129.165
58.12000 119.657
58.16000 128.054
58.20000 122.908
58.24000 133.513
58.28000 125.087
58.32000 125.955
58.36000 119.888
58.40000 118.200
58.44000 122.242
58.48000 119.924
58.52000 122.651
58.56000 118.836
58.60000 123.822
58.64000 119.766
58.68000 120.655
58.72000 128.831
58.76000 120.015
58.80000 121.532
58.84000 124.644
58.88000 126.912
58.92000 123.489
58.96000 112.566
59.00000 118.272
59.04000 123.328
59.08000 120.505
59.12000 122.672
59.16000 127.016
59.20000 119.898
59.24000 120.840
59.28000 115.236
59.32000 118.259
59.36000 124.447
59.40000 115.001
59.44000 115.296
59.48000 113.207
59.52000 116.155
59.56000 116.719
59.60000 120.510
59.64000 123.497
59.68000 121.273
59.72000 112.311
59.76000 120.483
59.80000 118.267
59.84000 115.578
59.88000 120.064
59.92000 123.443
59.96000 120.944
60.00000 119.023
60.04000 122.973
60.08000 125.259
60.12000 120.374
60.16000 123.539
60.20000 118.524
60.24000 118.384
60.28000 118.717
60.32000 118.446
60.36000 122.938
60.40000 111.370
60.44000 119.925
60.48000 115.737
60.52000 118.938
60.56000 123.552
60.60000 121.749
60.64000 114.281
60.68000 127.598
60.72000 124.718
60.76000 121.029
60.80000 123.944
60.84000 115.332
60.88000 123.734
60.92000 114.969
60.96000 116.230
61.00000 121.267
61.04000 119.889
61.08000 131.457
61.12000 126.403
61.16000 122.258
61.20000 134.717
61.24000 131.900
61.28000 132.325
61.32000 124.762
61.36000 133.270
61.40000 134.325
61.44000 141.789
61.48000 134.756
61.52000 171.167
61.56000 208.141
61.60000 262.452
61.64000 271.445
61.68000 287.103
61.72000 287.451
61.76000 252.382
61.80000 208.529
61.84000 168.653
61.88000 144.066
61.92000 132.873
61.96000 141.364
62.00000 130.749
62.04000 128.169
62.08000 137.386
62.12000 130.414
62.16000 124.942
62.20000 116.348
62.24000 128.821
62.28000 123.440
62.32000 130.932
62.36000 129.160
62.40000 127.440
62.44000 136.123
62.48000 133.339
62.52000 134.356
62.56000 134.469
62.60000 133.477
62.64000 130.996
62.68000 128.400
62.72000 127.409
62.76000 138.291
62.80000 123.246
62.84000 119.456
62.88000 133.223
62.92000 131.768
62.96000 140.449
63.00000 142.715
63.04000 133.638
63.08000 136.789
63.12000 134.382
63.16000 133.169
63.20000 138.311
63.24000 130.908
63.28000 134.860
63.32000 140.025
63.36000 135.623
63.40000 135.998
63.44000 133.013
63.48000 140.082
63.52000 145.865
63.56000 148.145
63.60000 140.005
63.64000 134.548
63.68000 137.274
63.72000 138.103
63.76000 136.586
63.80000 142.338
63.84000 147.420
63.88000 142.923
63.92000 146.244
63.96000 152.274
64.00000 135.473
64.04000 141.396
64.08000 147.497
64.12000 146.861
64.16000 150.956
64.20000 145.986
64.24000 133.873
64.28000 149.048
64.32000 151.479
64.36000 151.419
64.40000 154.216
64.44000 164.863
64.48000 157.364
64.52000 158.786
64.56000 149.825
64.60000 161.313
64.64000 165.586
64.68000 167.691
64.72000 164.998
64.76000 176.591
64.80000 170.781
64.84000 175.695
64.88000 187.421
64.92000 188.667
64.96000 183.305
65.00000 182.175
65.04000 187.067
65.08000 195.662
65.12000 207.948
65.16000 210.662
65.20000 223.394
65.24000 221.502
65.28000 228.085
65.32000 234.012
65.36000 250.229
65.40000 256.173
65.44000 265.401
65.48000 279.885
65.52000 297.777
65.56000 325.419
65.60000 369.660
65.64000 442.484
65.68000 617.051
65.72000 974.027
65.76000 1428.420
65.80000 1736.213
65.84000 1901.645
65.88000 1881.610
65.92000 1727.342
65.96000 1353.205
66.00000 867.702
66.04000 568.899
66.08000 450.657
66.12000 386.023
66.16000 359.205
66.20000 351.163
66.24000 381.630
66.28000 451.535
66.32000 547.527
66.36000 603.896
66.40000 608.320
66.44000 605.054
66.48000 573.270
66.52000 501.183
66.56000 407.013
66.60000 367.030
66.64000 354.258
66.68000 350.958
66.72000 334.309
66.76000 335.740
66.80000 355.265
66.84000 352.458
66.88000 338.557
66.92000 365.227
66.96000 377.162
67.00000 366.392
67.04000 361.000
67.08000 360.790
67.12000 381.804
67.16000 385.195
67.20000 392.535
67.24000 382.984
67.28000 374.081
67.32000 368.539
67.36000 382.851
67.40000 404.682
67.44000 403.194
67.48000 429.472
67.52000 421.080
67.56000 413.979
67.60000 429.184
67.64000 432.067
67.68000 451.390
67.72000 443.586
67.76000 451.262
67.80000 457.394
67.84000 440.119
67.88000 466.143
67.92000 483.581
67.96000 485.302
68.00000 505.924
68.04000 486.314
68.08000 506.289
68.12000 537.453
68.16000 524.071
68.20000 532.630
68.24000 543.255
68.28000 562.136
68.32000 579.654
68.36000 596.461
68.40000 617.219
68.44000 627.817
68.48000 667.929
68.52000 693.376
68.56000 761.350
68.60000 840.012
68.64000 994.879
68.68000 1144.795
68.72000 1303.418
68.76000 1457.601
68.80000 1668.623
68.84000 1920.726
68.88000 2462.752
68.92000 4428.593
68.96000 11274.325
69.00000 24056.973
69.04000 35225.707
69.08000 40014.637
69.12000 42788.758
69.16000 45312.449
69.20000 42568.199
69.24000 32339.654
69.28000 24216.768
69.32000 21020.213
69.36000 19689.453
69.40000 15174.765
69.44000 8313.707
69.48000 3652.354
69.52000 1775.662
69.56000 1199.716
69.60000 982.229
69.64000 876.767
69.68000 742.209
69.72000 679.749
69.76000 644.152
69.80000 628.960
69.84000 553.152
69.88000 549.570
69.92000 522.784
69.96000 495.340
70.00000 498.384