File: XRD/XRD/08-10-2025 Dep 7/XY Data/BTO_Mapping_Theta2Theta_08-10-2025_001_52_9-271_-28-532.xy
20.00000 461.541
20.04000 483.163
20.08000 458.327
20.12000 477.470
20.16000 473.602
20.20000 483.139
20.24000 483.062
20.28000 489.922
20.32000 463.599
20.36000 486.400
20.40000 483.673
20.44000 463.603
20.48000 474.752
20.52000 453.820
20.56000 471.781
20.60000 469.426
20.64000 474.896
20.68000 471.592
20.72000 477.116
20.76000 466.805
20.80000 474.976
20.84000 470.168
20.88000 471.499
20.92000 461.577
20.96000 482.222
21.00000 475.647
21.04000 461.214
21.08000 437.687
21.12000 456.760
21.16000 467.498
21.20000 474.482
21.24000 488.295
21.28000 474.273
21.32000 461.208
21.36000 452.140
21.40000 469.031
21.44000 472.356
21.48000 452.845
21.52000 466.467
21.56000 451.458
21.60000 467.757
21.64000 492.122
21.68000 470.762
21.72000 484.727
21.76000 495.496
21.80000 500.742
21.84000 498.501
21.88000 510.862
21.92000 503.526
21.96000 523.707
22.00000 524.550
22.04000 543.488
22.08000 542.204
22.12000 522.415
22.16000 544.069
22.20000 536.957
22.24000 499.633
22.28000 513.974
22.32000 490.993
22.36000 468.144
22.40000 488.786
22.44000 465.120
22.48000 466.918
22.52000 466.185
22.56000 462.226
22.60000 446.215
22.64000 454.281
22.68000 457.899
22.72000 452.747
22.76000 439.324
22.80000 442.318
22.84000 451.010
22.88000 446.662
22.92000 452.931
22.96000 438.888
23.00000 447.776
23.04000 434.443
23.08000 445.593
23.12000 434.093
23.16000 436.843
23.20000 455.710
23.24000 455.939
23.28000 445.107
23.32000 434.853
23.36000 440.537
23.40000 443.030
23.44000 432.105
23.48000 435.818
23.52000 439.811
23.56000 440.645
23.60000 455.812
23.64000 426.663
23.68000 475.084
23.72000 483.000
23.76000 498.146
23.80000 476.870
23.84000 492.954
23.88000 538.177
23.92000 524.516
23.96000 544.891
24.00000 509.053
24.04000 528.859
24.08000 489.748
24.12000 496.751
24.16000 494.859
24.20000 470.676
24.24000 457.892
24.28000 456.555
24.32000 455.824
24.36000 428.653
24.40000 432.733
24.44000 444.945
24.48000 439.435
24.52000 415.204
24.56000 423.456
24.60000 433.162
24.64000 435.682
24.68000 414.740
24.72000 413.797
24.76000 403.438
24.80000 421.196
24.84000 416.014
24.88000 411.475
24.92000 391.532
24.96000 418.187
25.00000 420.362
25.04000 415.634
25.08000 412.826
25.12000 408.236
25.16000 397.620
25.20000 412.691
25.24000 419.017
25.28000 415.279
25.32000 399.055
25.36000 396.097
25.40000 390.615
25.44000 389.263
25.48000 393.056
25.52000 410.826
25.56000 398.788
25.60000 403.415
25.64000 411.929
25.68000 409.773
25.72000 408.752
25.76000 400.048
25.80000 392.688
25.84000 377.648
25.88000 408.821
25.92000 396.462
25.96000 408.504
26.00000 394.565
26.04000 395.236
26.08000 399.935
26.12000 394.782
26.16000 387.383
26.20000 385.271
26.24000 382.163
26.28000 381.505
26.32000 382.139
26.36000 400.118
26.40000 395.830
26.44000 385.813
26.48000 385.309
26.52000 390.740
26.56000 400.295
26.60000 371.274
26.64000 373.723
26.68000 387.894
26.72000 386.886
26.76000 378.984
26.80000 387.526
26.84000 371.425
26.88000 372.788
26.92000 380.877
26.96000 385.709
27.00000 372.696
27.04000 387.607
27.08000 379.981
27.12000 390.146
27.16000 386.486
27.20000 364.509
27.24000 376.429
27.28000 380.817
27.32000 379.278
27.36000 376.190
27.40000 382.920
27.44000 386.561
27.48000 370.233
27.52000 381.467
27.56000 375.126
27.60000 354.400
27.64000 371.894
27.68000 376.735
27.72000 371.370
27.76000 369.050
27.80000 351.974
27.84000 368.365
27.88000 354.191
27.92000 385.712
27.96000 387.503
28.00000 360.285
28.04000 369.477
28.08000 375.884
28.12000 336.280
28.16000 365.729
28.20000 369.278
28.24000 375.880
28.28000 362.792
28.32000 390.126
28.36000 360.715
28.40000 366.488
28.44000 361.739
28.48000 373.298
28.52000 362.937
28.56000 358.798
28.60000 340.865
28.64000 376.230
28.68000 342.914
28.72000 351.298
28.76000 334.097
28.80000 344.834
28.84000 349.004
28.88000 359.711
28.92000 353.968
28.96000 349.656
29.00000 369.132
29.04000 348.158
29.08000 352.667
29.12000 349.951
29.16000 341.587
29.20000 359.532
29.24000 356.676
29.28000 358.945
29.32000 349.491
29.36000 338.922
29.40000 350.805
29.44000 337.244
29.48000 362.124
29.52000 334.443
29.56000 359.744
29.60000 354.433
29.64000 356.627
29.68000 356.745
29.72000 358.890
29.76000 358.012
29.80000 378.867
29.84000 363.097
29.88000 384.147
29.92000 385.839
29.96000 386.640
30.00000 394.207
30.04000 390.909
30.08000 382.870
30.12000 377.697
30.16000 385.082
30.20000 364.315
30.24000 376.516
30.28000 361.898
30.32000 362.484
30.36000 356.418
30.40000 362.258
30.44000 352.266
30.48000 357.874
30.52000 367.622
30.56000 362.080
30.60000 350.670
30.64000 368.128
30.68000 381.681
30.72000 375.506
30.76000 383.763
30.80000 365.742
30.84000 383.393
30.88000 397.201
30.92000 421.178
30.96000 431.944
31.00000 466.496
31.04000 503.696
31.08000 558.582
31.12000 663.272
31.16000 737.659
31.20000 841.829
31.24000 972.621
31.28000 1092.374
31.32000 1173.600
31.36000 1217.679
31.40000 1252.135
31.44000 1194.108
31.48000 1060.255
31.52000 909.622
31.56000 800.916
31.60000 680.833
31.64000 570.321
31.68000 502.451
31.72000 480.923
31.76000 429.610
31.80000 399.525
31.84000 386.906
31.88000 363.382
31.92000 365.249
31.96000 368.383
32.00000 357.214
32.04000 357.824
32.08000 344.448
32.12000 357.309
32.16000 358.869
32.20000 338.410
32.24000 338.003
32.28000 355.198
32.32000 354.812
32.36000 327.211
32.40000 333.351
32.44000 331.665
32.48000 314.601
32.52000 321.496
32.56000 308.573
32.60000 315.931
32.64000 317.373
32.68000 327.956
32.72000 315.254
32.76000 305.842
32.80000 312.853
32.84000 327.671
32.88000 323.084
32.92000 321.260
32.96000 321.053
33.00000 326.826
33.04000 318.194
33.08000 302.809
33.12000 319.647
33.16000 298.612
33.20000 300.500
33.24000 310.446
33.28000 304.083
33.32000 312.776
33.36000 291.462
33.40000 302.787
33.44000 279.813
33.48000 295.082
33.52000 309.543
33.56000 309.361
33.60000 282.585
33.64000 319.881
33.68000 293.203
33.72000 315.169
33.76000 312.327
33.80000 303.510
33.84000 309.425
33.88000 312.597
33.92000 291.564
33.96000 305.404
34.00000 321.004
34.04000 329.017
34.08000 327.271
34.12000 320.003
34.16000 339.922
34.20000 338.399
34.24000 341.772
34.28000 361.965
34.32000 353.746
34.36000 367.194
34.40000 348.706
34.44000 346.536
34.48000 351.224
34.52000 331.432
34.56000 340.342
34.60000 324.094
34.64000 304.662
34.68000 300.019
34.72000 317.493
34.76000 286.880
34.80000 306.575
34.84000 284.737
34.88000 290.138
34.92000 285.127
34.96000 279.758
35.00000 282.004
35.04000 282.083
35.08000 278.858
35.12000 275.750
35.16000 269.674
35.20000 270.192
35.24000 281.723
35.28000 273.079
35.32000 269.212
35.36000 272.282
35.40000 267.106
35.44000 280.582
35.48000 256.789
35.52000 271.528
35.56000 274.592
35.60000 256.989
35.64000 266.234
35.68000 276.486
35.72000 264.791
35.76000 258.682
35.80000 273.912
35.84000 260.663
35.88000 273.051
35.92000 262.715
35.96000 272.120
36.00000 265.698
36.04000 269.455
36.08000 259.249
36.12000 273.922
36.16000 273.236
36.20000 267.388
36.24000 265.341
36.28000 260.405
36.32000 256.472
36.36000 248.573
36.40000 263.997
36.44000 247.155
36.48000 249.865
36.52000 258.033
36.56000 259.435
36.60000 271.408
36.64000 251.046
36.68000 264.085
36.72000 261.612
36.76000 262.777
36.80000 272.324
36.84000 279.260
36.88000 269.385
36.92000 287.301
36.96000 290.747
37.00000 278.581
37.04000 285.367
37.08000 278.440
37.12000 280.195
37.16000 289.079
37.20000 267.464
37.24000 266.206
37.28000 272.626
37.32000 273.071
37.36000 264.568
37.40000 258.185
37.44000 262.932
37.48000 260.939
37.52000 263.682
37.56000 256.669
37.60000 260.432
37.64000 269.381
37.68000 253.907
37.72000 265.723
37.76000 262.178
37.80000 250.565
37.84000 255.588
37.88000 263.964
37.92000 262.766
37.96000 253.990
38.00000 254.325
38.04000 252.883
38.08000 251.010
38.12000 262.577
38.16000 263.607
38.20000 267.497
38.24000 278.838
38.28000 288.443
38.32000 308.987
38.36000 341.057
38.40000 400.751
38.44000 458.576
38.48000 561.829
38.52000 676.940
38.56000 809.408
38.60000 933.527
38.64000 1061.687
38.68000 1097.063
38.72000 1134.072
38.76000 1112.087
38.80000 986.282
38.84000 873.115
38.88000 715.928
38.92000 580.806
38.96000 469.461
39.00000 374.292
39.04000 334.508
39.08000 298.793
39.12000 285.540
39.16000 250.195
39.20000 250.400
39.24000 252.200
39.28000 239.542
39.32000 244.796
39.36000 236.020
39.40000 244.797
39.44000 239.242
39.48000 244.864
39.52000 244.321
39.56000 226.277
39.60000 247.656
39.64000 243.370
39.68000 237.976
39.72000 240.897
39.76000 235.390
39.80000 230.631
39.84000 217.816
39.88000 232.769
39.92000 243.379
39.96000 229.963
40.00000 235.224
40.04000 236.562
40.08000 244.256
40.12000 233.172
40.16000 229.446
40.20000 231.540
40.24000 220.298
40.28000 219.965
40.32000 230.353
40.36000 224.591
40.40000 214.142
40.44000 223.045
40.48000 220.990
40.52000 221.422
40.56000 223.974
40.60000 208.294
40.64000 214.509
40.68000 202.750
40.72000 210.728
40.76000 207.241
40.80000 207.717
40.84000 216.269
40.88000 214.219
40.92000 222.448
40.96000 213.543
41.00000 209.497
41.04000 209.713
41.08000 214.416
41.12000 209.857
41.16000 204.071
41.20000 217.392
41.24000 214.316
41.28000 229.970
41.32000 217.105
41.36000 208.075
41.40000 213.686
41.44000 208.594
41.48000 203.055
41.52000 219.979
41.56000 213.326
41.60000 228.196
41.64000 210.272
41.68000 210.798
41.72000 214.786
41.76000 200.501
41.80000 197.760
41.84000 206.757
41.88000 219.998
41.92000 219.809
41.96000 194.554
42.00000 201.655
42.04000 209.589
42.08000 220.058
42.12000 221.939
42.16000 220.380
42.20000 223.863
42.24000 220.365
42.28000 218.495
42.32000 217.996
42.36000 222.295
42.40000 213.375
42.44000 211.120
42.48000 214.956
42.52000 214.624
42.56000 206.334
42.60000 209.170
42.64000 216.776
42.68000 216.417
42.72000 206.439
42.76000 199.549
42.80000 207.145
42.84000 201.466
42.88000 205.196
42.92000 211.184
42.96000 220.566
43.00000 195.535
43.04000 209.986
43.08000 201.781
43.12000 204.934
43.16000 202.463
43.20000 205.965
43.24000 203.531
43.28000 209.383
43.32000 193.044
43.36000 198.636
43.40000 203.155
43.44000 194.574
43.48000 203.296
43.52000 197.581
43.56000 197.600
43.60000 206.820
43.64000 188.497
43.68000 192.384
43.72000 199.217
43.76000 184.753
43.80000 193.200
43.84000 197.159
43.88000 192.268
43.92000 201.612
43.96000 193.731
44.00000 201.573
44.04000 185.979
44.08000 184.943
44.12000 192.254
44.16000 192.052
44.20000 205.878
44.24000 196.559
44.28000 195.132
44.32000 191.423
44.36000 196.067
44.40000 218.931
44.44000 200.855
44.48000 214.707
44.52000 211.095
44.56000 224.128
44.60000 238.514
44.64000 216.716
44.68000 226.523
44.72000 237.647
44.76000 234.548
44.80000 248.890
44.84000 239.272
44.88000 255.423
44.92000 263.702
44.96000 256.026
45.00000 278.764
45.04000 274.786
45.08000 260.979
45.12000 249.480
45.16000 249.208
45.20000 250.855
45.24000 242.175
45.28000 222.536
45.32000 224.633
45.36000 225.532
45.40000 214.334
45.44000 224.071
45.48000 202.383
45.52000 214.612
45.56000 198.266
45.60000 211.839
45.64000 205.662
45.68000 193.775
45.72000 201.970
45.76000 203.014
45.80000 198.585
45.84000 182.493
45.88000 173.562
45.92000 188.715
45.96000 194.899
46.00000 188.063
46.04000 186.374
46.08000 172.531
46.12000 177.289
46.16000 176.871
46.20000 186.645
46.24000 180.739
46.28000 181.007
46.32000 182.679
46.36000 176.498
46.40000 190.541
46.44000 166.050
46.48000 167.716
46.52000 164.398
46.56000 175.345
46.60000 180.660
46.64000 177.679
46.68000 183.064
46.72000 188.294
46.76000 175.958
46.80000 170.983
46.84000 177.556
46.88000 179.335
46.92000 178.429
46.96000 172.043
47.00000 168.545
47.04000 175.546
47.08000 172.286
47.12000 173.165
47.16000 154.313
47.20000 163.871
47.24000 166.423
47.28000 168.791
47.32000 168.666
47.36000 158.065
47.40000 171.035
47.44000 155.246
47.48000 159.567
47.52000 164.458
47.56000 163.879
47.60000 172.223
47.64000 155.105
47.68000 158.883
47.72000 155.899
47.76000 160.898
47.80000 159.383
47.84000 159.555
47.88000 166.943
47.92000 169.893
47.96000 168.734
48.00000 166.872
48.04000 169.987
48.08000 151.638
48.12000 157.073
48.16000 161.196
48.20000 161.288
48.24000 159.614
48.28000 159.707
48.32000 156.159
48.36000 156.766
48.40000 159.627
48.44000 165.670
48.48000 157.621
48.52000 164.497
48.56000 158.856
48.60000 159.831
48.64000 157.021
48.68000 171.044
48.72000 158.082
48.76000 158.478
48.80000 154.297
48.84000 159.389
48.88000 151.309
48.92000 155.104
48.96000 165.129
49.00000 153.946
49.04000 160.311
49.08000 157.430
49.12000 156.517
49.16000 165.544
49.20000 163.260
49.24000 159.584
49.28000 150.871
49.32000 149.766
49.36000 159.685
49.40000 165.746
49.44000 158.949
49.48000 154.172
49.52000 166.639
49.56000 154.271
49.60000 156.015
49.64000 153.214
49.68000 153.343
49.72000 140.424
49.76000 153.205
49.80000 154.207
49.84000 147.936
49.88000 154.090
49.92000 145.689
49.96000 159.506
50.00000 155.073
50.04000 156.970
50.08000 159.761
50.12000 162.691
50.16000 165.706
50.20000 143.208
50.24000 160.675
50.28000 154.549
50.32000 153.189
50.36000 160.866
50.40000 152.585
50.44000 158.539
50.48000 173.218
50.52000 168.987
50.56000 163.132
50.60000 168.922
50.64000 151.440
50.68000 161.517
50.72000 151.558
50.76000 171.355
50.80000 163.001
50.84000 160.262
50.88000 159.603
50.92000 155.728
50.96000 151.891
51.00000 161.795
51.04000 151.281
51.08000 142.908
51.12000 152.170
51.16000 144.827
51.20000 140.074
51.24000 140.685
51.28000 156.008
51.32000 138.411
51.36000 138.169
51.40000 141.051
51.44000 142.157
51.48000 138.888
51.52000 152.436
51.56000 150.940
51.60000 128.878
51.64000 144.235
51.68000 141.932
51.72000 148.005
51.76000 143.006
51.80000 145.545
51.84000 146.813
51.88000 140.281
51.92000 142.157
51.96000 145.241
52.00000 141.614
52.04000 145.040
52.08000 134.934
52.12000 139.791
52.16000 135.466
52.20000 147.353
52.24000 148.023
52.28000 137.018
52.32000 138.333
52.36000 143.312
52.40000 141.484
52.44000 132.987
52.48000 138.387
52.52000 146.465
52.56000 145.739
52.60000 135.801
52.64000 135.697
52.68000 131.165
52.72000 144.945
52.76000 134.514
52.80000 143.105
52.84000 134.548
52.88000 138.603
52.92000 142.661
52.96000 150.882
53.00000 137.983
53.04000 160.173
53.08000 146.792
53.12000 141.974
53.16000 166.964
53.20000 150.594
53.24000 157.000
53.28000 156.998
53.32000 169.809
53.36000 156.764
53.40000 153.238
53.44000 154.697
53.48000 161.510
53.52000 157.106
53.56000 152.955
53.60000 149.218
53.64000 139.899
53.68000 153.749
53.72000 146.935
53.76000 153.582
53.80000 149.191
53.84000 140.440
53.88000 143.741
53.92000 133.909
53.96000 144.551
54.00000 150.929
54.04000 143.284
54.08000 143.020
54.12000 138.014
54.16000 150.140
54.20000 146.557
54.24000 143.269
54.28000 141.523
54.32000 136.514
54.36000 138.993
54.40000 137.421
54.44000 149.671
54.48000 139.549
54.52000 144.703
54.56000 142.254
54.60000 143.694
54.64000 145.337
54.68000 139.978
54.72000 142.346
54.76000 146.474
54.80000 141.396
54.84000 143.639
54.88000 145.978
54.92000 140.300
54.96000 150.978
55.00000 152.168
55.04000 145.507
55.08000 155.135
55.12000 156.242
55.16000 156.417
55.20000 158.149
55.24000 153.698
55.28000 156.356
55.32000 174.583
55.36000 176.736
55.40000 188.937
55.44000 209.800
55.48000 220.907
55.52000 234.862
55.56000 263.284
55.60000 313.148
55.64000 340.231
55.68000 388.380
55.72000 446.582
55.76000 475.341
55.80000 576.053
55.84000 601.200
55.88000 641.839
55.92000 694.797
55.96000 663.774
56.00000 643.430
56.04000 618.548
56.08000 533.129
56.12000 477.093
56.16000 421.877
56.20000 358.367
56.24000 304.903
56.28000 286.656
56.32000 228.688
56.36000 206.951
56.40000 189.328
56.44000 180.759
56.48000 162.454
56.52000 161.004
56.56000 154.417
56.60000 151.449
56.64000 150.965
56.68000 149.052
56.72000 140.057
56.76000 134.945
56.80000 131.444
56.84000 132.801
56.88000 133.991
56.92000 126.057
56.96000 133.345
57.00000 134.563
57.04000 133.227
57.08000 127.552
57.12000 118.432
57.16000 130.096
57.20000 120.125
57.24000 127.095
57.28000 135.548
57.32000 117.441
57.36000 126.391
57.40000 133.030
57.44000 125.105
57.48000 128.300
57.52000 131.178
57.56000 126.925
57.60000 124.935
57.64000 131.123
57.68000 123.313
57.72000 115.690
57.76000 124.556
57.80000 132.466
57.84000 128.560
57.88000 128.039
57.92000 128.034
57.96000 123.589
58.00000 126.700
58.04000 126.649
58.08000 119.405
58.12000 129.366
58.16000 136.142
58.20000 117.593
58.24000 111.913
58.28000 126.703
58.32000 122.561
58.36000 139.398
58.40000 125.615
58.44000 127.913
58.48000 128.670
58.52000 124.325
58.56000 126.963
58.60000 123.515
58.64000 113.746
58.68000 116.021
58.72000 113.402
58.76000 124.461
58.80000 118.447
58.84000 115.973
58.88000 129.935
58.92000 114.992
58.96000 124.971
59.00000 122.813
59.04000 122.284
59.08000 117.553
59.12000 119.351
59.16000 113.589
59.20000 125.537
59.24000 124.591
59.28000 116.994
59.32000 116.292
59.36000 112.088
59.40000 112.618
59.44000 123.924
59.48000 116.143
59.52000 125.958
59.56000 108.555
59.60000 122.790
59.64000 121.590
59.68000 115.105
59.72000 114.700
59.76000 110.627
59.80000 120.382
59.84000 122.016
59.88000 117.454
59.92000 115.355
59.96000 114.787
60.00000 117.114
60.04000 113.991
60.08000 116.227
60.12000 118.692
60.16000 121.240
60.20000 114.643
60.24000 110.256
60.28000 114.891
60.32000 125.885
60.36000 122.053
60.40000 109.925
60.44000 106.846
60.48000 114.917
60.52000 116.902
60.56000 116.711
60.60000 119.683
60.64000 123.881
60.68000 124.723
60.72000 121.575
60.76000 120.505
60.80000 117.934
60.84000 103.199
60.88000 117.477
60.92000 113.958
60.96000 128.954
61.00000 120.803
61.04000 128.765
61.08000 130.526
61.12000 120.984
61.16000 120.521
61.20000 125.961
61.24000 119.577
61.28000 125.625
61.32000 121.662
61.36000 125.203
61.40000 130.353
61.44000 124.512
61.48000 143.286
61.52000 147.352
61.56000 207.642
61.60000 253.442
61.64000 266.173
61.68000 285.464
61.72000 280.322
61.76000 265.084
61.80000 210.463
61.84000 160.437
61.88000 142.222
61.92000 145.315
61.96000 129.038
62.00000 120.031
62.04000 134.818
62.08000 146.329
62.12000 126.793
62.16000 126.400
62.20000 122.983
62.24000 124.767
62.28000 123.437
62.32000 117.574
62.36000 128.998
62.40000 131.502
62.44000 132.436
62.48000 129.027
62.52000 131.104
62.56000 140.257
62.60000 126.070
62.64000 137.179
62.68000 134.695
62.72000 142.189
62.76000 132.196
62.80000 135.138
62.84000 132.046
62.88000 125.049
62.92000 134.220
62.96000 136.227
63.00000 130.639
63.04000 134.223
63.08000 126.830
63.12000 150.045
63.16000 135.389
63.20000 133.126
63.24000 129.868
63.28000 129.414
63.32000 136.808
63.36000 137.246
63.40000 140.300
63.44000 130.422
63.48000 130.853
63.52000 132.887
63.56000 133.211
63.60000 132.729
63.64000 135.894
63.68000 137.921
63.72000 129.494
63.76000 131.724
63.80000 139.706
63.84000 143.666
63.88000 138.236
63.92000 133.782
63.96000 139.303
64.00000 145.678
64.04000 142.853
64.08000 147.820
64.12000 147.731
64.16000 145.015
64.20000 149.415
64.24000 151.043
64.28000 148.624
64.32000 148.210
64.36000 158.684
64.40000 140.943
64.44000 154.974
64.48000 139.903
64.52000 150.112
64.56000 163.738
64.60000 145.285
64.64000 157.388
64.68000 168.169
64.72000 162.840
64.76000 163.189
64.80000 174.259
64.84000 174.824
64.88000 177.874
64.92000 185.164
64.96000 194.002
65.00000 201.145
65.04000 189.538
65.08000 198.871
65.12000 210.023
65.16000 216.991
65.20000 208.835
65.24000 224.526
65.28000 238.556
65.32000 223.264
65.36000 239.181
65.40000 256.633
65.44000 264.460
65.48000 277.517
65.52000 301.641
65.56000 315.069
65.60000 353.951
65.64000 405.884
65.68000 603.152
65.72000 899.168
65.76000 1356.567
65.80000 1693.526
65.84000 1833.823
65.88000 1865.313
65.92000 1734.368
65.96000 1399.458
66.00000 907.092
66.04000 569.326
66.08000 430.344
66.12000 371.205
66.16000 339.060
66.20000 350.253
66.24000 379.224
66.28000 443.130
66.32000 514.073
66.36000 571.926
66.40000 604.990
66.44000 590.427
66.48000 588.039
66.52000 499.462
66.56000 412.877
66.60000 372.816
66.64000 342.654
66.68000 324.682
66.72000 327.973
66.76000 328.975
66.80000 349.909
66.84000 352.027
66.88000 364.195
66.92000 360.279
66.96000 359.739
67.00000 375.495
67.04000 365.129
67.08000 354.709
67.12000 359.864
67.16000 361.414
67.20000 363.333
67.24000 380.783
67.28000 391.004
67.32000 382.670
67.36000 389.849
67.40000 397.838
67.44000 400.574
67.48000 408.658
67.52000 401.805
67.56000 418.082
67.60000 423.059
67.64000 423.714
67.68000 430.022
67.72000 426.566
67.76000 446.738
67.80000 451.117
67.84000 449.763
67.88000 468.336
67.92000 462.863
67.96000 465.537
68.00000 463.322
68.04000 504.806
68.08000 513.708
68.12000 507.397
68.16000 515.638
68.20000 524.259
68.24000 509.817
68.28000 555.990
68.32000 564.810
68.36000 568.346
68.40000 596.002
68.44000 614.590
68.48000 629.277
68.52000 680.225
68.56000 744.727
68.60000 802.185
68.64000 933.444
68.68000 1111.108
68.72000 1248.082
68.76000 1407.418
68.80000 1573.870
68.84000 1795.785
68.88000 2245.675
68.92000 3864.823
68.96000 9890.718
69.00000 21938.867
69.04000 33484.207
69.08000 39025.109
69.12000 41431.402
69.16000 44106.594
69.20000 42331.230
69.24000 32785.559
69.28000 24479.234
69.32000 20738.574
69.36000 19496.988
69.40000 15599.830
69.44000 8878.478
69.48000 3882.357
69.52000 1855.408
69.56000 1223.230
69.60000 946.561
69.64000 830.979
69.68000 751.864
69.72000 699.734
69.76000 640.604
69.80000 613.767
69.84000 564.993
69.88000 524.351
69.92000 511.370
69.96000 515.260
70.00000 490.521