File: XRD/XRD/08-10-2025 Dep 7/XY Data/BTO_Mapping_Theta2Theta_08-10-2025_001_31_-19-563_4-158.xy
20.00000 453.437
20.04000 478.117
20.08000 470.639
20.12000 494.619
20.16000 461.851
20.20000 480.560
20.24000 466.806
20.28000 462.588
20.32000 485.692
20.36000 462.137
20.40000 465.004
20.44000 465.595
20.48000 452.019
20.52000 485.014
20.56000 472.143
20.60000 455.850
20.64000 466.530
20.68000 468.963
20.72000 472.437
20.76000 452.897
20.80000 469.447
20.84000 459.353
20.88000 463.642
20.92000 476.857
20.96000 439.439
21.00000 464.922
21.04000 443.420
21.08000 448.895
21.12000 468.524
21.16000 471.046
21.20000 473.287
21.24000 454.573
21.28000 456.404
21.32000 482.463
21.36000 462.134
21.40000 461.007
21.44000 473.214
21.48000 466.336
21.52000 466.791
21.56000 449.707
21.60000 462.254
21.64000 468.413
21.68000 475.685
21.72000 479.663
21.76000 477.953
21.80000 492.268
21.84000 507.370
21.88000 506.661
21.92000 548.413
21.96000 566.052
22.00000 583.106
22.04000 582.885
22.08000 574.757
22.12000 590.839
22.16000 589.121
22.20000 581.647
22.24000 542.252
22.28000 498.572
22.32000 518.645
22.36000 492.813
22.40000 484.244
22.44000 469.883
22.48000 471.339
22.52000 451.754
22.56000 442.614
22.60000 468.053
22.64000 448.103
22.68000 459.940
22.72000 421.042
22.76000 428.312
22.80000 440.485
22.84000 424.245
22.88000 435.301
22.92000 452.799
22.96000 447.679
23.00000 436.932
23.04000 430.528
23.08000 419.109
23.12000 432.669
23.16000 430.177
23.20000 430.186
23.24000 442.635
23.28000 445.286
23.32000 426.098
23.36000 423.401
23.40000 435.124
23.44000 444.536
23.48000 427.768
23.52000 436.436
23.56000 439.610
23.60000 436.018
23.64000 413.481
23.68000 427.528
23.72000 420.299
23.76000 439.988
23.80000 435.542
23.84000 435.238
23.88000 442.514
23.92000 461.259
23.96000 435.616
24.00000 433.069
24.04000 439.864
24.08000 461.730
24.12000 453.463
24.16000 427.514
24.20000 431.783
24.24000 427.396
24.28000 426.204
24.32000 420.259
24.36000 408.584
24.40000 410.319
24.44000 438.006
24.48000 406.930
24.52000 416.491
24.56000 426.457
24.60000 411.863
24.64000 424.493
24.68000 422.395
24.72000 415.988
24.76000 402.503
24.80000 401.649
24.84000 414.613
24.88000 403.647
24.92000 407.944
24.96000 393.286
25.00000 420.407
25.04000 394.484
25.08000 391.410
25.12000 417.444
25.16000 412.949
25.20000 392.656
25.24000 404.153
25.28000 401.143
25.32000 381.837
25.36000 406.408
25.40000 395.003
25.44000 399.831
25.48000 408.940
25.52000 387.818
25.56000 395.705
25.60000 412.312
25.64000 392.924
25.68000 398.419
25.72000 399.301
25.76000 398.342
25.80000 358.348
25.84000 393.127
25.88000 398.227
25.92000 390.666
25.96000 399.209
26.00000 385.703
26.04000 397.878
26.08000 390.260
26.12000 375.501
26.16000 376.879
26.20000 381.415
26.24000 394.751
26.28000 387.043
26.32000 377.367
26.36000 367.443
26.40000 378.629
26.44000 386.517
26.48000 376.304
26.52000 371.099
26.56000 393.307
26.60000 379.670
26.64000 381.181
26.68000 388.220
26.72000 372.048
26.76000 396.841
26.80000 375.674
26.84000 369.733
26.88000 380.041
26.92000 368.584
26.96000 363.249
27.00000 382.777
27.04000 373.997
27.08000 372.938
27.12000 376.546
27.16000 365.410
27.20000 395.141
27.24000 384.205
27.28000 381.875
27.32000 379.387
27.36000 381.480
27.40000 369.256
27.44000 379.400
27.48000 375.926
27.52000 378.521
27.56000 372.202
27.60000 399.340
27.64000 370.518
27.68000 392.452
27.72000 376.176
27.76000 373.171
27.80000 364.505
27.84000 367.027
27.88000 383.378
27.92000 360.861
27.96000 353.155
28.00000 377.824
28.04000 367.797
28.08000 366.745
28.12000 354.731
28.16000 373.851
28.20000 366.713
28.24000 368.106
28.28000 371.691
28.32000 370.953
28.36000 366.829
28.40000 370.913
28.44000 358.477
28.48000 361.101
28.52000 355.582
28.56000 354.679
28.60000 360.687
28.64000 348.158
28.68000 370.461
28.72000 374.348
28.76000 368.339
28.80000 361.826
28.84000 342.090
28.88000 355.943
28.92000 353.067
28.96000 361.569
29.00000 354.724
29.04000 361.471
29.08000 347.292
29.12000 360.113
29.16000 361.510
29.20000 353.818
29.24000 357.866
29.28000 348.430
29.32000 352.436
29.36000 338.438
29.40000 353.561
29.44000 342.401
29.48000 346.339
29.52000 347.026
29.56000 351.276
29.60000 338.157
29.64000 361.984
29.68000 350.129
29.72000 359.768
29.76000 386.242
29.80000 376.988
29.84000 397.917
29.88000 409.000
29.92000 407.607
29.96000 411.956
30.00000 407.217
30.04000 406.164
30.08000 423.863
30.12000 415.085
30.16000 396.064
30.20000 420.241
30.24000 399.594
30.28000 385.147
30.32000 385.243
30.36000 380.484
30.40000 371.584
30.44000 376.010
30.48000 362.717
30.52000 359.615
30.56000 362.329
30.60000 381.551
30.64000 380.483
30.68000 390.165
30.72000 375.382
30.76000 386.827
30.80000 414.758
30.84000 404.636
30.88000 409.851
30.92000 413.145
30.96000 472.463
31.00000 528.462
31.04000 610.710
31.08000 741.955
31.12000 938.238
31.16000 1171.906
31.20000 1440.779
31.24000 1658.279
31.28000 1965.596
31.32000 2152.529
31.36000 2217.844
31.40000 2188.843
31.44000 2051.577
31.48000 1797.575
31.52000 1484.228
31.56000 1197.913
31.60000 944.833
31.64000 720.749
31.68000 596.099
31.72000 519.361
31.76000 464.868
31.80000 422.581
31.84000 398.467
31.88000 384.263
31.92000 369.616
31.96000 359.892
32.00000 350.033
32.04000 342.801
32.08000 339.382
32.12000 347.268
32.16000 323.634
32.20000 339.225
32.24000 345.235
32.28000 343.228
32.32000 332.074
32.36000 337.091
32.40000 310.197
32.44000 321.115
32.48000 317.371
32.52000 332.791
32.56000 328.462
32.60000 316.035
32.64000 318.798
32.68000 314.097
32.72000 309.768
32.76000 309.744
32.80000 305.802
32.84000 320.693
32.88000 312.744
32.92000 320.799
32.96000 315.293
33.00000 329.919
33.04000 311.476
33.08000 296.933
33.12000 310.486
33.16000 314.294
33.20000 308.263
33.24000 298.881
33.28000 308.053
33.32000 294.437
33.36000 292.301
33.40000 288.107
33.44000 296.475
33.48000 295.947
33.52000 284.473
33.56000 295.506
33.60000 281.040
33.64000 301.673
33.68000 300.628
33.72000 299.354
33.76000 305.759
33.80000 297.503
33.84000 279.673
33.88000 296.337
33.92000 306.870
33.96000 298.459
34.00000 305.198
34.04000 311.725
34.08000 329.046
34.12000 307.993
34.16000 323.263
34.20000 324.531
34.24000 309.357
34.28000 321.686
34.32000 335.319
34.36000 322.515
34.40000 331.707
34.44000 338.237
34.48000 327.803
34.52000 315.240
34.56000 318.074
34.60000 311.210
34.64000 333.464
34.68000 302.196
34.72000 282.021
34.76000 298.408
34.80000 292.797
34.84000 291.330
34.88000 281.816
34.92000 270.074
34.96000 280.806
35.00000 275.997
35.04000 276.808
35.08000 275.592
35.12000 262.911
35.16000 278.456
35.20000 277.212
35.24000 263.586
35.28000 272.918
35.32000 283.634
35.36000 248.964
35.40000 276.926
35.44000 264.633
35.48000 260.203
35.52000 255.035
35.56000 274.567
35.60000 261.468
35.64000 258.720
35.68000 269.800
35.72000 259.606
35.76000 262.516
35.80000 249.334
35.84000 260.185
35.88000 250.621
35.92000 261.062
35.96000 263.929
36.00000 259.400
36.04000 254.954
36.08000 260.586
36.12000 266.636
36.16000 273.046
36.20000 262.257
36.24000 257.354
36.28000 263.016
36.32000 262.622
36.36000 268.142
36.40000 254.541
36.44000 264.190
36.48000 261.742
36.52000 267.020
36.56000 255.646
36.60000 262.865
36.64000 262.144
36.68000 260.607
36.72000 255.398
36.76000 255.340
36.80000 248.933
36.84000 268.392
36.88000 278.130
36.92000 273.134
36.96000 286.447
37.00000 276.274
37.04000 272.164
37.08000 280.749
37.12000 270.213
37.16000 275.653
37.20000 261.205
37.24000 273.824
37.28000 250.780
37.32000 254.218
37.36000 245.539
37.40000 265.378
37.44000 254.669
37.48000 247.933
37.52000 255.357
37.56000 249.996
37.60000 259.728
37.64000 260.693
37.68000 250.466
37.72000 257.604
37.76000 265.782
37.80000 251.147
37.84000 256.112
37.88000 248.441
37.92000 247.453
37.96000 248.955
38.00000 271.908
38.04000 259.856
38.08000 249.287
38.12000 250.745
38.16000 257.694
38.20000 274.617
38.24000 298.106
38.28000 320.639
38.32000 339.171
38.36000 388.729
38.40000 425.574
38.44000 483.081
38.48000 598.123
38.52000 689.292
38.56000 751.584
38.60000 824.919
38.64000 923.914
38.68000 950.761
38.72000 970.826
38.76000 937.835
38.80000 885.848
38.84000 758.348
38.88000 657.267
38.92000 553.242
38.96000 457.471
39.00000 365.390
39.04000 323.518
39.08000 292.532
39.12000 284.882
39.16000 246.205
39.20000 248.568
39.24000 248.209
39.28000 244.332
39.32000 238.281
39.36000 229.114
39.40000 231.325
39.44000 245.640
39.48000 240.567
39.52000 233.893
39.56000 235.067
39.60000 229.513
39.64000 222.699
39.68000 226.919
39.72000 228.116
39.76000 220.385
39.80000 232.197
39.84000 234.079
39.88000 225.114
39.92000 237.661
39.96000 231.694
40.00000 226.462
40.04000 230.516
40.08000 231.104
40.12000 215.950
40.16000 225.879
40.20000 226.282
40.24000 224.343
40.28000 218.154
40.32000 214.850
40.36000 225.217
40.40000 222.418
40.44000 218.559
40.48000 216.450
40.52000 221.765
40.56000 206.526
40.60000 217.026
40.64000 212.294
40.68000 224.762
40.72000 216.923
40.76000 213.791
40.80000 213.970
40.84000 213.952
40.88000 214.198
40.92000 205.320
40.96000 212.040
41.00000 223.800
41.04000 203.778
41.08000 197.797
41.12000 212.264
41.16000 209.304
41.20000 212.969
41.24000 210.841
41.28000 221.761
41.32000 221.000
41.36000 212.785
41.40000 194.242
41.44000 214.076
41.48000 203.860
41.52000 209.762
41.56000 205.726
41.60000 197.667
41.64000 205.850
41.68000 207.048
41.72000 210.534
41.76000 202.316
41.80000 208.006
41.84000 202.532
41.88000 208.489
41.92000 209.347
41.96000 206.771
42.00000 209.767
42.04000 208.917
42.08000 213.506
42.12000 208.474
42.16000 212.258
42.20000 209.735
42.24000 206.804
42.28000 206.797
42.32000 196.144
42.36000 198.038
42.40000 196.856
42.44000 206.250
42.48000 204.129
42.52000 205.794
42.56000 194.946
42.60000 211.938
42.64000 198.382
42.68000 215.547
42.72000 206.800
42.76000 186.353
42.80000 196.195
42.84000 204.969
42.88000 205.972
42.92000 191.680
42.96000 213.198
43.00000 203.924
43.04000 195.351
43.08000 199.045
43.12000 203.198
43.16000 200.183
43.20000 200.954
43.24000 198.484
43.28000 200.326
43.32000 199.516
43.36000 194.507
43.40000 199.649
43.44000 186.055
43.48000 209.058
43.52000 192.957
43.56000 192.661
43.60000 199.315
43.64000 207.402
43.68000 192.435
43.72000 191.567
43.76000 192.425
43.80000 188.976
43.84000 189.566
43.88000 204.247
43.92000 195.418
43.96000 203.152
44.00000 193.781
44.04000 202.516
44.08000 196.274
44.12000 199.650
44.16000 194.475
44.20000 202.570
44.24000 200.004
44.28000 200.621
44.32000 203.623
44.36000 188.761
44.40000 198.170
44.44000 202.622
44.48000 208.253
44.52000 212.531
44.56000 210.408
44.60000 222.412
44.64000 222.055
44.68000 230.584
44.72000 228.338
44.76000 253.447
44.80000 271.407
44.84000 258.537
44.88000 282.500
44.92000 288.261
44.96000 316.101
45.00000 302.548
45.04000 312.451
45.08000 299.443
45.12000 293.239
45.16000 277.554
45.20000 267.060
45.24000 255.056
45.28000 250.277
45.32000 248.834
45.36000 252.202
45.40000 232.519
45.44000 217.401
45.48000 222.751
45.52000 226.192
45.56000 222.044
45.60000 223.749
45.64000 209.674
45.68000 203.115
45.72000 196.382
45.76000 203.576
45.80000 208.335
45.84000 193.404
45.88000 187.182
45.92000 197.954
45.96000 181.040
46.00000 188.960
46.04000 176.810
46.08000 175.189
46.12000 182.419
46.16000 181.749
46.20000 170.989
46.24000 174.103
46.28000 170.499
46.32000 175.324
46.36000 165.556
46.40000 181.766
46.44000 182.304
46.48000 170.252
46.52000 175.919
46.56000 170.757
46.60000 159.692
46.64000 174.796
46.68000 179.111
46.72000 174.995
46.76000 180.566
46.80000 173.709
46.84000 170.257
46.88000 179.202
46.92000 182.819
46.96000 170.559
47.00000 169.651
47.04000 161.210
47.08000 157.346
47.12000 155.392
47.16000 165.985
47.20000 165.375
47.24000 164.581
47.28000 168.546
47.32000 170.915
47.36000 173.705
47.40000 173.050
47.44000 168.241
47.48000 175.975
47.52000 167.229
47.56000 162.413
47.60000 163.899
47.64000 165.432
47.68000 175.873
47.72000 161.604
47.76000 160.670
47.80000 151.938
47.84000 157.661
47.88000 159.101
47.92000 163.425
47.96000 171.381
48.00000 166.270
48.04000 158.319
48.08000 167.634
48.12000 159.437
48.16000 157.559
48.20000 166.608
48.24000 167.775
48.28000 158.077
48.32000 166.766
48.36000 156.093
48.40000 161.974
48.44000 159.865
48.48000 154.005
48.52000 165.277
48.56000 150.979
48.60000 163.441
48.64000 161.780
48.68000 166.659
48.72000 162.971
48.76000 157.657
48.80000 151.528
48.84000 155.240
48.88000 151.939
48.92000 141.079
48.96000 147.811
49.00000 152.078
49.04000 141.098
49.08000 147.952
49.12000 149.910
49.16000 167.538
49.20000 151.222
49.24000 145.604
49.28000 155.403
49.32000 155.950
49.36000 152.797
49.40000 153.557
49.44000 157.670
49.48000 151.365
49.52000 171.693
49.56000 145.553
49.60000 163.363
49.64000 149.790
49.68000 149.589
49.72000 142.030
49.76000 150.055
49.80000 152.666
49.84000 148.020
49.88000 143.077
49.92000 148.740
49.96000 153.803
50.00000 152.351
50.04000 160.833
50.08000 154.742
50.12000 161.042
50.16000 161.408
50.20000 156.293
50.24000 153.339
50.28000 172.659
50.32000 179.695
50.36000 181.210
50.40000 178.370
50.44000 192.706
50.48000 195.904
50.52000 197.817
50.56000 201.585
50.60000 201.695
50.64000 213.693
50.68000 207.030
50.72000 207.144
50.76000 198.179
50.80000 205.457
50.84000 183.244
50.88000 182.903
50.92000 165.764
50.96000 164.981
51.00000 166.651
51.04000 167.352
51.08000 152.561
51.12000 156.887
51.16000 161.033
51.20000 153.841
51.24000 150.680
51.28000 156.910
51.32000 152.889
51.36000 152.797
51.40000 140.685
51.44000 138.148
51.48000 138.666
51.52000 149.041
51.56000 139.631
51.60000 142.481
51.64000 155.521
51.68000 144.616
51.72000 142.168
51.76000 132.975
51.80000 145.332
51.84000 143.215
51.88000 143.440
51.92000 138.616
51.96000 130.489
52.00000 137.282
52.04000 136.706
52.08000 134.782
52.12000 139.996
52.16000 140.865
52.20000 142.839
52.24000 137.188
52.28000 141.660
52.32000 134.889
52.36000 145.243
52.40000 144.701
52.44000 139.559
52.48000 140.106
52.52000 135.379
52.56000 130.674
52.60000 141.364
52.64000 145.152
52.68000 129.950
52.72000 128.074
52.76000 134.430
52.80000 131.515
52.84000 129.946
52.88000 144.915
52.92000 137.124
52.96000 138.631
53.00000 142.796
53.04000 152.371
53.08000 147.981
53.12000 149.965
53.16000 157.077
53.20000 158.400
53.24000 165.302
53.28000 165.527
53.32000 155.725
53.36000 163.001
53.40000 162.647
53.44000 164.830
53.48000 157.559
53.52000 159.344
53.56000 135.729
53.60000 160.844
53.64000 147.993
53.68000 143.136
53.72000 145.551
53.76000 148.949
53.80000 151.509
53.84000 142.001
53.88000 138.402
53.92000 137.454
53.96000 144.052
54.00000 134.156
54.04000 136.969
54.08000 140.137
54.12000 131.811
54.16000 143.010
54.20000 143.398
54.24000 152.291
54.28000 137.292
54.32000 142.841
54.36000 140.689
54.40000 141.936
54.44000 135.263
54.48000 131.760
54.52000 140.389
54.56000 136.571
54.60000 133.591
54.64000 141.682
54.68000 140.913
54.72000 142.278
54.76000 147.661
54.80000 147.695
54.84000 147.106
54.88000 157.602
54.92000 148.706
54.96000 153.588
55.00000 140.366
55.04000 146.696
55.08000 149.139
55.12000 151.207
55.16000 150.689
55.20000 160.165
55.24000 160.074
55.28000 176.016
55.32000 173.658
55.36000 187.996
55.40000 204.617
55.44000 234.762
55.48000 258.980
55.52000 288.937
55.56000 338.295
55.60000 386.749
55.64000 446.602
55.68000 510.606
55.72000 560.976
55.76000 581.131
55.80000 655.488
55.84000 674.804
55.88000 691.502
55.92000 683.742
55.96000 634.082
56.00000 602.114
56.04000 539.583
56.08000 482.824
56.12000 427.863
56.16000 376.296
56.20000 338.693
56.24000 282.431
56.28000 252.151
56.32000 214.884
56.36000 209.140
56.40000 183.588
56.44000 176.813
56.48000 150.172
56.52000 157.026
56.56000 142.771
56.60000 157.178
56.64000 143.046
56.68000 147.186
56.72000 142.174
56.76000 137.344
56.80000 138.240
56.84000 126.126
56.88000 132.856
56.92000 123.570
56.96000 124.619
57.00000 134.683
57.04000 134.644
57.08000 130.080
57.12000 126.530
57.16000 134.433
57.20000 129.402
57.24000 130.941
57.28000 129.725
57.32000 134.893
57.36000 120.997
57.40000 129.619
57.44000 129.493
57.48000 129.997
57.52000 132.619
57.56000 121.046
57.60000 131.447
57.64000 121.631
57.68000 125.896
57.72000 121.735
57.76000 128.500
57.80000 126.690
57.84000 129.915
57.88000 119.939
57.92000 114.010
57.96000 112.068
58.00000 125.798
58.04000 135.361
58.08000 123.047
58.12000 123.894
58.16000 121.099
58.20000 128.761
58.24000 121.411
58.28000 130.905
58.32000 121.680
58.36000 121.745
58.40000 123.205
58.44000 125.136
58.48000 117.294
58.52000 120.025
58.56000 118.129
58.60000 126.753
58.64000 122.404
58.68000 114.022
58.72000 119.678
58.76000 122.169
58.80000 122.072
58.84000 117.208
58.88000 123.596
58.92000 114.699
58.96000 113.757
59.00000 116.972
59.04000 120.139
59.08000 123.707
59.12000 120.146
59.16000 120.371
59.20000 121.572
59.24000 124.718
59.28000 119.940
59.32000 115.168
59.36000 119.075
59.40000 108.074
59.44000 111.680
59.48000 119.655
59.52000 115.972
59.56000 112.913
59.60000 115.630
59.64000 113.043
59.68000 121.246
59.72000 112.939
59.76000 119.127
59.80000 114.078
59.84000 114.785
59.88000 114.005
59.92000 111.905
59.96000 113.965
60.00000 109.602
60.04000 115.394
60.08000 119.306
60.12000 119.714
60.16000 115.044
60.20000 117.879
60.24000 125.996
60.28000 115.373
60.32000 104.622
60.36000 114.494
60.40000 110.103
60.44000 113.774
60.48000 123.381
60.52000 114.507
60.56000 113.329
60.60000 125.053
60.64000 117.631
60.68000 120.387
60.72000 122.675
60.76000 118.509
60.80000 109.668
60.84000 141.224
60.88000 118.810
60.92000 121.030
60.96000 122.329
61.00000 111.153
61.04000 114.972
61.08000 125.879
61.12000 124.635
61.16000 121.219
61.20000 131.320
61.24000 128.122
61.28000 115.422
61.32000 118.912
61.36000 120.621
61.40000 120.293
61.44000 128.439
61.48000 125.527
61.52000 158.074
61.56000 187.560
61.60000 239.333
61.64000 293.902
61.68000 302.546
61.72000 301.479
61.76000 312.728
61.80000 273.322
61.84000 193.926
61.88000 154.510
61.92000 143.401
61.96000 136.371
62.00000 134.297
62.04000 135.718
62.08000 132.455
62.12000 127.676
62.16000 132.825
62.20000 112.747
62.24000 129.045
62.28000 128.527
62.32000 120.682
62.36000 126.352
62.40000 119.442
62.44000 126.026
62.48000 127.055
62.52000 127.448
62.56000 125.451
62.60000 127.189
62.64000 124.628
62.68000 126.176
62.72000 134.632
62.76000 132.433
62.80000 128.251
62.84000 136.596
62.88000 131.854
62.92000 121.310
62.96000 123.558
63.00000 137.492
63.04000 130.898
63.08000 127.748
63.12000 124.779
63.16000 125.964
63.20000 135.656
63.24000 125.371
63.28000 136.712
63.32000 140.149
63.36000 137.413
63.40000 134.480
63.44000 129.586
63.48000 139.744
63.52000 141.778
63.56000 133.656
63.60000 135.576
63.64000 137.589
63.68000 139.843
63.72000 141.410
63.76000 138.619
63.80000 137.186
63.84000 132.445
63.88000 132.095
63.92000 143.101
63.96000 147.908
64.00000 151.214
64.04000 148.471
64.08000 146.059
64.12000 153.236
64.16000 151.297
64.20000 145.513
64.24000 154.151
64.28000 148.854
64.32000 149.884
64.36000 163.651
64.40000 153.813
64.44000 159.725
64.48000 169.531
64.52000 162.288
64.56000 181.626
64.60000 168.017
64.64000 164.977
64.68000 166.970
64.72000 173.658
64.76000 182.122
64.80000 166.630
64.84000 188.282
64.88000 197.423
64.92000 185.841
64.96000 194.723
65.00000 207.859
65.04000 210.024
65.08000 213.487
65.12000 224.794
65.16000 243.085
65.20000 237.310
65.24000 268.957
65.28000 278.047
65.32000 296.338
65.36000 304.064
65.40000 329.151
65.44000 335.392
65.48000 349.053
65.52000 370.990
65.56000 392.436
65.60000 418.194
65.64000 455.417
65.68000 585.337
65.72000 857.818
65.76000 1306.106
65.80000 1805.066
65.84000 2111.510
65.88000 2180.659
65.92000 2148.273
65.96000 1874.363
66.00000 1337.709
66.04000 883.392
66.08000 572.063
66.12000 429.775
66.16000 396.286
66.20000 373.867
66.24000 376.972
66.28000 452.821
66.32000 546.982
66.36000 595.807
66.40000 640.541
66.44000 672.526
66.48000 653.477
66.52000 582.506
66.56000 493.651
66.60000 429.336
66.64000 379.240
66.68000 358.634
66.72000 373.137
66.76000 344.657
66.80000 365.814
66.84000 356.581
66.88000 369.582
66.92000 366.867
66.96000 364.669
67.00000 369.617
67.04000 387.253
67.08000 388.415
67.12000 383.680
67.16000 376.094
67.20000 370.969
67.24000 405.580
67.28000 386.079
67.32000 401.696
67.36000 424.184
67.40000 402.630
67.44000 420.993
67.48000 416.461
67.52000 446.862
67.56000 429.707
67.60000 434.339
67.64000 461.374
67.68000 465.767
67.72000 478.790
67.76000 455.368
67.80000 447.296
67.84000 480.445
67.88000 490.883
67.92000 491.326
67.96000 511.153
68.00000 490.248
68.04000 520.777
68.08000 516.367
68.12000 524.538
68.16000 512.945
68.20000 522.263
68.24000 567.307
68.28000 569.948
68.32000 594.227
68.36000 609.155
68.40000 621.498
68.44000 655.654
68.48000 657.033
68.52000 713.713
68.56000 760.381
68.60000 830.310
68.64000 935.671
68.68000 1132.389
68.72000 1325.841
68.76000 1467.337
68.80000 1665.060
68.84000 1841.355
68.88000 2265.990
68.92000 3169.018
68.96000 6908.833
69.00000 17843.354
69.04000 32756.189
69.08000 43154.973
69.12000 47505.391
69.16000 50738.969
69.20000 52044.277
69.24000 45594.473
69.28000 33937.809
69.32000 26472.539
69.36000 23823.006
69.40000 21253.162
69.44000 14840.684
69.48000 7465.460
69.52000 3287.967
69.56000 1687.819
69.60000 1242.086
69.64000 994.183
69.68000 891.165
69.72000 791.865
69.76000 703.284
69.80000 678.226
69.84000 644.041
69.88000 591.182
69.92000 572.551
69.96000 545.593
70.00000 526.313