File: XRD/XRD/08-10-2025 Dep 7/XY Data/BTO_Mapping_Theta2Theta_08-10-2025_001_06_9-135_4-067.xy
20.00000 477.055
20.04000 479.330
20.08000 464.490
20.12000 483.345
20.16000 481.751
20.20000 475.494
20.24000 475.463
20.28000 463.026
20.32000 460.284
20.36000 471.779
20.40000 472.611
20.44000 482.136
20.48000 487.231
20.52000 468.033
20.56000 459.199
20.60000 452.169
20.64000 464.122
20.68000 457.483
20.72000 480.137
20.76000 469.438
20.80000 474.259
20.84000 458.333
20.88000 453.909
20.92000 451.559
20.96000 447.590
21.00000 460.182
21.04000 453.104
21.08000 486.559
21.12000 464.825
21.16000 449.549
21.20000 467.702
21.24000 487.163
21.28000 458.018
21.32000 470.035
21.36000 467.728
21.40000 461.923
21.44000 452.127
21.48000 446.315
21.52000 445.134
21.56000 448.915
21.60000 474.683
21.64000 466.489
21.68000 463.484
21.72000 460.519
21.76000 471.278
21.80000 471.598
21.84000 482.273
21.88000 478.199
21.92000 516.948
21.96000 530.468
22.00000 510.158
22.04000 522.233
22.08000 496.709
22.12000 524.810
22.16000 514.262
22.20000 518.585
22.24000 486.383
22.28000 483.972
22.32000 472.011
22.36000 466.289
22.40000 482.404
22.44000 458.184
22.48000 454.398
22.52000 457.901
22.56000 446.246
22.60000 444.560
22.64000 440.984
22.68000 439.474
22.72000 430.824
22.76000 447.849
22.80000 460.893
22.84000 444.644
22.88000 448.595
22.92000 447.803
22.96000 435.315
23.00000 452.817
23.04000 427.946
23.08000 436.995
23.12000 426.494
23.16000 426.579
23.20000 434.627
23.24000 425.574
23.28000 428.696
23.32000 447.720
23.36000 456.098
23.40000 459.918
23.44000 441.444
23.48000 446.478
23.52000 448.149
23.56000 434.984
23.60000 450.784
23.64000 465.827
23.68000 449.099
23.72000 450.410
23.76000 479.458
23.80000 473.999
23.84000 479.093
23.88000 502.502
23.92000 534.156
23.96000 560.897
24.00000 529.352
24.04000 504.899
24.08000 511.177
24.12000 509.716
24.16000 489.506
24.20000 476.645
24.24000 491.747
24.28000 443.478
24.32000 444.057
24.36000 431.150
24.40000 425.805
24.44000 420.735
24.48000 438.130
24.52000 417.391
24.56000 424.829
24.60000 412.754
24.64000 405.992
24.68000 402.323
24.72000 416.575
24.76000 421.942
24.80000 404.713
24.84000 407.328
24.88000 400.968
24.92000 410.299
24.96000 390.468
25.00000 417.338
25.04000 406.017
25.08000 413.273
25.12000 401.500
25.16000 403.540
25.20000 399.764
25.24000 423.925
25.28000 416.278
25.32000 405.680
25.36000 405.768
25.40000 394.023
25.44000 416.733
25.48000 402.938
25.52000 391.845
25.56000 395.943
25.60000 412.003
25.64000 377.376
25.68000 391.545
25.72000 388.940
25.76000 390.985
25.80000 373.211
25.84000 391.075
25.88000 400.238
25.92000 388.372
25.96000 380.528
26.00000 384.255
26.04000 380.156
26.08000 387.582
26.12000 396.973
26.16000 407.066
26.20000 397.967
26.24000 390.419
26.28000 392.936
26.32000 385.739
26.36000 393.374
26.40000 402.807
26.44000 384.725
26.48000 382.832
26.52000 394.493
26.56000 385.861
26.60000 388.962
26.64000 376.064
26.68000 365.369
26.72000 374.819
26.76000 395.345
26.80000 380.470
26.84000 364.103
26.88000 377.498
26.92000 381.090
26.96000 386.116
27.00000 378.464
27.04000 375.324
27.08000 380.127
27.12000 369.647
27.16000 365.296
27.20000 392.905
27.24000 370.117
27.28000 373.618
27.32000 373.569
27.36000 366.683
27.40000 363.562
27.44000 375.393
27.48000 376.984
27.52000 369.510
27.56000 375.586
27.60000 385.862
27.64000 360.820
27.68000 376.004
27.72000 356.932
27.76000 360.904
27.80000 381.512
27.84000 376.244
27.88000 368.056
27.92000 369.478
27.96000 376.857
28.00000 379.159
28.04000 381.039
28.08000 362.615
28.12000 355.527
28.16000 354.036
28.20000 351.384
28.24000 351.322
28.28000 370.525
28.32000 361.115
28.36000 354.141
28.40000 362.997
28.44000 344.312
28.48000 361.194
28.52000 357.636
28.56000 354.557
28.60000 346.454
28.64000 357.302
28.68000 356.862
28.72000 366.700
28.76000 355.780
28.80000 360.018
28.84000 354.312
28.88000 353.458
28.92000 366.729
28.96000 348.394
29.00000 360.752
29.04000 343.418
29.08000 348.601
29.12000 357.283
29.16000 359.217
29.20000 333.971
29.24000 356.187
29.28000 353.749
29.32000 361.690
29.36000 345.128
29.40000 349.498
29.44000 333.812
29.48000 353.198
29.52000 344.164
29.56000 353.338
29.60000 359.717
29.64000 359.677
29.68000 359.393
29.72000 356.477
29.76000 359.511
29.80000 364.378
29.84000 368.031
29.88000 374.364
29.92000 382.176
29.96000 384.719
30.00000 403.031
30.04000 387.994
30.08000 402.420
30.12000 385.254
30.16000 366.957
30.20000 379.431
30.24000 369.666
30.28000 363.294
30.32000 350.063
30.36000 361.662
30.40000 385.251
30.44000 365.658
30.48000 367.007
30.52000 359.114
30.56000 374.564
30.60000 351.016
30.64000 367.394
30.68000 377.155
30.72000 384.688
30.76000 385.388
30.80000 395.355
30.84000 419.563
30.88000 419.694
30.92000 410.015
30.96000 434.111
31.00000 472.065
31.04000 509.950
31.08000 557.165
31.12000 638.061
31.16000 710.612
31.20000 814.837
31.24000 930.006
31.28000 1087.547
31.32000 1176.662
31.36000 1225.057
31.40000 1246.736
31.44000 1208.986
31.48000 1109.474
31.52000 988.590
31.56000 838.401
31.60000 728.125
31.64000 604.636
31.68000 536.099
31.72000 453.896
31.76000 449.749
31.80000 419.454
31.84000 391.983
31.88000 388.432
31.92000 372.346
31.96000 362.185
32.00000 352.468
32.04000 357.870
32.08000 349.102
32.12000 342.895
32.16000 356.296
32.20000 337.151
32.24000 347.402
32.28000 340.033
32.32000 348.908
32.36000 333.315
32.40000 335.539
32.44000 330.017
32.48000 320.988
32.52000 321.695
32.56000 344.713
32.60000 327.967
32.64000 316.663
32.68000 327.976
32.72000 311.184
32.76000 329.553
32.80000 319.176
32.84000 315.006
32.88000 302.745
32.92000 324.190
32.96000 322.484
33.00000 308.668
33.04000 315.895
33.08000 302.220
33.12000 301.868
33.16000 301.705
33.20000 310.673
33.24000 301.561
33.28000 282.504
33.32000 312.846
33.36000 303.522
33.40000 305.475
33.44000 301.485
33.48000 302.882
33.52000 310.599
33.56000 290.282
33.60000 293.298
33.64000 312.157
33.68000 301.860
33.72000 302.050
33.76000 304.872
33.80000 295.605
33.84000 315.983
33.88000 310.580
33.92000 309.593
33.96000 322.812
34.00000 327.711
34.04000 316.875
34.08000 318.271
34.12000 309.228
34.16000 334.247
34.20000 332.596
34.24000 358.146
34.28000 341.601
34.32000 361.221
34.36000 358.358
34.40000 358.443
34.44000 356.868
34.48000 337.188
34.52000 344.566
34.56000 326.183
34.60000 309.692
34.64000 311.005
34.68000 318.340
34.72000 316.355
34.76000 304.470
34.80000 311.387
34.84000 310.223
34.88000 289.437
34.92000 293.555
34.96000 272.729
35.00000 272.535
35.04000 268.361
35.08000 261.122
35.12000 269.407
35.16000 281.320
35.20000 270.016
35.24000 272.592
35.28000 267.939
35.32000 268.351
35.36000 280.022
35.40000 270.466
35.44000 266.444
35.48000 272.441
35.52000 270.600
35.56000 276.579
35.60000 265.439
35.64000 265.965
35.68000 274.342
35.72000 265.601
35.76000 250.040
35.80000 255.539
35.84000 264.251
35.88000 261.462
35.92000 254.546
35.96000 259.510
36.00000 273.331
36.04000 262.471
36.08000 268.898
36.12000 257.588
36.16000 264.361
36.20000 251.383
36.24000 241.680
36.28000 249.830
36.32000 261.341
36.36000 265.834
36.40000 254.849
36.44000 266.862
36.48000 254.591
36.52000 258.508
36.56000 244.495
36.60000 251.634
36.64000 263.390
36.68000 248.606
36.72000 248.434
36.76000 263.782
36.80000 260.089
36.84000 263.493
36.88000 271.851
36.92000 269.432
36.96000 290.704
37.00000 260.106
37.04000 290.912
37.08000 276.455
37.12000 268.842
37.16000 278.200
37.20000 275.044
37.24000 264.173
37.28000 260.948
37.32000 253.098
37.36000 251.663
37.40000 256.395
37.44000 246.627
37.48000 254.559
37.52000 255.924
37.56000 260.633
37.60000 249.054
37.64000 261.573
37.68000 262.020
37.72000 249.814
37.76000 256.048
37.80000 254.643
37.84000 260.443
37.88000 250.351
37.92000 266.182
37.96000 260.824
38.00000 251.541
38.04000 268.412
38.08000 253.857
38.12000 255.715
38.16000 247.378
38.20000 250.215
38.24000 281.720
38.28000 283.704
38.32000 275.318
38.36000 323.102
38.40000 349.024
38.44000 388.606
38.48000 467.440
38.52000 576.450
38.56000 704.181
38.60000 781.402
38.64000 905.801
38.68000 973.382
38.72000 994.123
38.76000 992.546
38.80000 909.793
38.84000 792.957
38.88000 655.421
38.92000 542.935
38.96000 453.222
39.00000 374.821
39.04000 307.829
39.08000 292.721
39.12000 274.900
39.16000 262.474
39.20000 251.706
39.24000 253.939
39.28000 244.766
39.32000 250.190
39.36000 246.057
39.40000 228.473
39.44000 233.887
39.48000 243.843
39.52000 232.136
39.56000 245.482
39.60000 245.988
39.64000 243.348
39.68000 236.717
39.72000 240.895
39.76000 228.613
39.80000 227.272
39.84000 233.603
39.88000 238.143
39.92000 224.720
39.96000 216.733
40.00000 240.079
40.04000 233.421
40.08000 221.061
40.12000 236.581
40.16000 220.806
40.20000 225.938
40.24000 229.491
40.28000 230.754
40.32000 219.895
40.36000 217.157
40.40000 219.139
40.44000 214.998
40.48000 217.575
40.52000 214.586
40.56000 217.285
40.60000 227.536
40.64000 219.036
40.68000 201.822
40.72000 219.969
40.76000 224.389
40.80000 213.554
40.84000 222.466
40.88000 221.683
40.92000 213.559
40.96000 213.168
41.00000 205.416
41.04000 213.848
41.08000 213.095
41.12000 221.791
41.16000 209.895
41.20000 207.597
41.24000 218.948
41.28000 196.290
41.32000 219.774
41.36000 211.727
41.40000 203.945
41.44000 199.131
41.48000 214.777
41.52000 209.010
41.56000 197.635
41.60000 208.678
41.64000 209.865
41.68000 208.829
41.72000 215.160
41.76000 215.864
41.80000 222.739
41.84000 207.483
41.88000 211.514
41.92000 215.067
41.96000 212.598
42.00000 217.887
42.04000 219.526
42.08000 205.123
42.12000 221.029
42.16000 211.230
42.20000 224.405
42.24000 233.734
42.28000 215.005
42.32000 211.602
42.36000 216.831
42.40000 223.816
42.44000 213.480
42.48000 220.133
42.52000 212.112
42.56000 208.313
42.60000 213.740
42.64000 217.522
42.68000 213.761
42.72000 217.212
42.76000 215.311
42.80000 212.187
42.84000 194.955
42.88000 207.311
42.92000 202.585
42.96000 211.465
43.00000 202.297
43.04000 204.570
43.08000 195.715
43.12000 205.153
43.16000 199.461
43.20000 203.089
43.24000 200.486
43.28000 206.726
43.32000 194.025
43.36000 180.381
43.40000 197.451
43.44000 192.722
43.48000 193.832
43.52000 192.891
43.56000 183.067
43.60000 190.972
43.64000 196.214
43.68000 196.584
43.72000 197.652
43.76000 190.829
43.80000 200.729
43.84000 200.950
43.88000 194.591
43.92000 182.716
43.96000 195.368
44.00000 191.832
44.04000 201.465
44.08000 191.130
44.12000 192.355
44.16000 198.389
44.20000 192.612
44.24000 198.225
44.28000 192.517
44.32000 182.225
44.36000 205.526
44.40000 206.657
44.44000 194.949
44.48000 205.674
44.52000 203.579
44.56000 217.146
44.60000 213.980
44.64000 226.193
44.68000 224.816
44.72000 217.531
44.76000 224.477
44.80000 223.175
44.84000 219.384
44.88000 239.660
44.92000 227.281
44.96000 238.350
45.00000 242.054
45.04000 246.621
45.08000 232.236
45.12000 238.482
45.16000 230.949
45.20000 240.420
45.24000 224.554
45.28000 236.614
45.32000 218.677
45.36000 226.227
45.40000 222.412
45.44000 208.041
45.48000 212.079
45.52000 204.603
45.56000 202.933
45.60000 199.692
45.64000 192.722
45.68000 203.002
45.72000 195.420
45.76000 190.249
45.80000 198.577
45.84000 187.519
45.88000 178.825
45.92000 182.843
45.96000 187.628
46.00000 183.382
46.04000 176.989
46.08000 188.766
46.12000 179.256
46.16000 179.318
46.20000 182.444
46.24000 186.003
46.28000 177.769
46.32000 176.981
46.36000 174.277
46.40000 178.252
46.44000 174.958
46.48000 172.212
46.52000 181.631
46.56000 172.029
46.60000 165.573
46.64000 187.644
46.68000 185.889
46.72000 168.878
46.76000 176.468
46.80000 175.619
46.84000 172.683
46.88000 166.915
46.92000 177.317
46.96000 169.844
47.00000 172.351
47.04000 171.257
47.08000 170.731
47.12000 159.192
47.16000 178.933
47.20000 166.872
47.24000 168.012
47.28000 171.744
47.32000 147.593
47.36000 167.409
47.40000 165.654
47.44000 159.291
47.48000 163.948
47.52000 162.329
47.56000 165.016
47.60000 154.181
47.64000 168.252
47.68000 164.099
47.72000 163.627
47.76000 164.027
47.80000 162.439
47.84000 163.094
47.88000 153.645
47.92000 159.452
47.96000 167.730
48.00000 156.446
48.04000 163.156
48.08000 165.155
48.12000 159.282
48.16000 153.742
48.20000 152.510
48.24000 157.408
48.28000 160.200
48.32000 162.548
48.36000 162.866
48.40000 154.144
48.44000 156.916
48.48000 152.220
48.52000 161.355
48.56000 163.076
48.60000 158.211
48.64000 154.828
48.68000 160.293
48.72000 155.047
48.76000 149.066
48.80000 151.068
48.84000 158.190
48.88000 162.277
48.92000 146.624
48.96000 158.476
49.00000 156.203
49.04000 157.303
49.08000 153.293
49.12000 150.424
49.16000 150.966
49.20000 157.461
49.24000 158.702
49.28000 163.860
49.32000 145.330
49.36000 159.307
49.40000 147.215
49.44000 152.470
49.48000 156.087
49.52000 154.826
49.56000 162.194
49.60000 163.241
49.64000 156.709
49.68000 158.491
49.72000 149.731
49.76000 159.950
49.80000 155.931
49.84000 151.638
49.88000 160.002
49.92000 163.375
49.96000 151.519
50.00000 155.696
50.04000 142.920
50.08000 151.505
50.12000 144.604
50.16000 155.141
50.20000 149.304
50.24000 154.061
50.28000 153.168
50.32000 161.133
50.36000 159.011
50.40000 162.156
50.44000 160.512
50.48000 157.183
50.52000 160.223
50.56000 166.749
50.60000 162.753
50.64000 164.930
50.68000 159.213
50.72000 162.158
50.76000 153.504
50.80000 156.470
50.84000 153.572
50.88000 156.987
50.92000 156.408
50.96000 161.271
51.00000 152.638
51.04000 153.450
51.08000 139.020
51.12000 153.270
51.16000 152.258
51.20000 143.766
51.24000 146.490
51.28000 148.346
51.32000 146.764
51.36000 144.384
51.40000 130.619
51.44000 144.737
51.48000 132.209
51.52000 139.884
51.56000 135.827
51.60000 134.708
51.64000 147.108
51.68000 130.073
51.72000 142.809
51.76000 138.675
51.80000 139.306
51.84000 142.789
51.88000 134.855
51.92000 129.428
51.96000 140.862
52.00000 135.953
52.04000 141.969
52.08000 141.940
52.12000 134.519
52.16000 140.543
52.20000 144.579
52.24000 132.014
52.28000 130.695
52.32000 146.815
52.36000 142.646
52.40000 140.694
52.44000 130.338
52.48000 139.791
52.52000 139.337
52.56000 132.183
52.60000 135.549
52.64000 147.069
52.68000 137.093
52.72000 140.659
52.76000 142.081
52.80000 142.055
52.84000 137.569
52.88000 131.922
52.92000 139.661
52.96000 134.959
53.00000 137.909
53.04000 136.315
53.08000 139.865
53.12000 146.038
53.16000 151.149
53.20000 140.047
53.24000 155.539
53.28000 151.426
53.32000 148.302
53.36000 159.652
53.40000 146.648
53.44000 159.923
53.48000 157.493
53.52000 154.109
53.56000 140.611
53.60000 149.572
53.64000 148.796
53.68000 153.753
53.72000 149.808
53.76000 158.440
53.80000 140.968
53.84000 149.415
53.88000 147.606
53.92000 136.227
53.96000 142.490
54.00000 140.338
54.04000 135.066
54.08000 142.562
54.12000 145.093
54.16000 143.396
54.20000 145.143
54.24000 146.764
54.28000 130.850
54.32000 135.515
54.36000 139.133
54.40000 141.741
54.44000 144.959
54.48000 141.996
54.52000 137.931
54.56000 144.936
54.60000 140.842
54.64000 138.689
54.68000 138.550
54.72000 145.357
54.76000 140.646
54.80000 138.479
54.84000 145.076
54.88000 146.086
54.92000 145.158
54.96000 138.412
55.00000 143.535
55.04000 147.504
55.08000 151.253
55.12000 154.247
55.16000 157.466
55.20000 149.592
55.24000 165.499
55.28000 170.231
55.32000 170.221
55.36000 167.143
55.40000 178.409
55.44000 179.984
55.48000 202.167
55.52000 211.838
55.56000 233.387
55.60000 256.791
55.64000 296.257
55.68000 324.456
55.72000 362.714
55.76000 437.617
55.80000 466.281
55.84000 486.504
55.88000 526.123
55.92000 562.976
55.96000 576.959
56.00000 543.886
56.04000 529.934
56.08000 468.534
56.12000 435.202
56.16000 372.724
56.20000 311.833
56.24000 303.289
56.28000 242.864
56.32000 230.703
56.36000 212.907
56.40000 187.574
56.44000 173.784
56.48000 170.740
56.52000 164.030
56.56000 168.636
56.60000 155.841
56.64000 137.709
56.68000 143.255
56.72000 146.087
56.76000 132.712
56.80000 146.121
56.84000 128.364
56.88000 128.058
56.92000 136.961
56.96000 134.809
57.00000 130.314
57.04000 128.891
57.08000 126.184
57.12000 131.524
57.16000 129.146
57.20000 123.749
57.24000 129.301
57.28000 125.139
57.32000 126.620
57.36000 129.866
57.40000 127.949
57.44000 140.973
57.48000 131.238
57.52000 125.613
57.56000 131.434
57.60000 134.311
57.64000 126.049
57.68000 130.254
57.72000 131.720
57.76000 125.810
57.80000 132.539
57.84000 121.427
57.88000 128.372
57.92000 115.279
57.96000 125.925
58.00000 124.378
58.04000 119.587
58.08000 123.437
58.12000 112.211
58.16000 123.053
58.20000 126.209
58.24000 123.460
58.28000 122.284
58.32000 126.032
58.36000 123.404
58.40000 128.032
58.44000 116.148
58.48000 122.426
58.52000 120.256
58.56000 120.951
58.60000 123.419
58.64000 123.509
58.68000 116.642
58.72000 116.207
58.76000 124.305
58.80000 121.254
58.84000 116.569
58.88000 135.137
58.92000 119.554
58.96000 111.496
59.00000 118.277
59.04000 121.108
59.08000 119.108
59.12000 116.831
59.16000 127.122
59.20000 122.905
59.24000 113.344
59.28000 114.676
59.32000 127.099
59.36000 117.266
59.40000 122.245
59.44000 114.591
59.48000 119.555
59.52000 115.726
59.56000 125.568
59.60000 125.224
59.64000 126.302
59.68000 120.097
59.72000 121.882
59.76000 119.966
59.80000 113.774
59.84000 113.185
59.88000 108.439
59.92000 113.717
59.96000 128.975
60.00000 118.013
60.04000 120.566
60.08000 123.681
60.12000 116.410
60.16000 119.396
60.20000 118.512
60.24000 123.413
60.28000 122.160
60.32000 129.328
60.36000 117.433
60.40000 116.860
60.44000 115.259
60.48000 116.082
60.52000 123.137
60.56000 123.264
60.60000 119.059
60.64000 111.109
60.68000 115.070
60.72000 104.854
60.76000 114.827
60.80000 113.957
60.84000 124.612
60.88000 122.916
60.92000 124.328
60.96000 117.291
61.00000 119.468
61.04000 113.090
61.08000 132.813
61.12000 127.386
61.16000 122.498
61.20000 121.861
61.24000 127.117
61.28000 124.614
61.32000 138.439
61.36000 126.592
61.40000 132.859
61.44000 123.413
61.48000 134.145
61.52000 158.894
61.56000 202.093
61.60000 244.835
61.64000 264.566
61.68000 268.735
61.72000 281.390
61.76000 275.666
61.80000 228.880
61.84000 186.348
61.88000 153.699
61.92000 135.970
61.96000 128.942
62.00000 141.504
62.04000 127.051
62.08000 119.149
62.12000 128.042
62.16000 129.954
62.20000 123.264
62.24000 124.871
62.28000 129.346
62.32000 124.012
62.36000 120.660
62.40000 124.723
62.44000 132.756
62.48000 130.787
62.52000 122.235
62.56000 122.697
62.60000 130.072
62.64000 124.101
62.68000 133.176
62.72000 123.563
62.76000 130.885
62.80000 128.852
62.84000 131.832
62.88000 134.289
62.92000 130.044
62.96000 126.850
63.00000 126.115
63.04000 134.010
63.08000 133.023
63.12000 135.170
63.16000 139.914
63.20000 135.872
63.24000 140.122
63.28000 134.760
63.32000 133.770
63.36000 134.479
63.40000 144.584
63.44000 140.690
63.48000 134.168
63.52000 123.724
63.56000 137.516
63.60000 139.892
63.64000 139.333
63.68000 136.312
63.72000 141.357
63.76000 139.602
63.80000 140.655
63.84000 133.207
63.88000 141.716
63.92000 143.932
63.96000 135.368
64.00000 142.461
64.04000 140.810
64.08000 151.253
64.12000 145.817
64.16000 146.333
64.20000 142.289
64.24000 142.252
64.28000 142.305
64.32000 156.835
64.36000 156.254
64.40000 151.231
64.44000 163.305
64.48000 160.432
64.52000 150.534
64.56000 150.874
64.60000 159.769
64.64000 162.091
64.68000 164.058
64.72000 161.317
64.76000 165.238
64.80000 176.072
64.84000 168.613
64.88000 171.396
64.92000 189.318
64.96000 194.108
65.00000 176.728
65.04000 187.365
65.08000 196.763
65.12000 197.159
65.16000 208.164
65.20000 224.098
65.24000 216.681
65.28000 227.200
65.32000 237.765
65.36000 249.302
65.40000 257.208
65.44000 285.747
65.48000 282.278
65.52000 298.673
65.56000 315.423
65.60000 368.830
65.64000 379.740
65.68000 555.510
65.72000 886.768
65.76000 1311.729
65.80000 1675.270
65.84000 1870.632
65.88000 1868.450
65.92000 1774.009
65.96000 1475.103
66.00000 994.116
66.04000 631.870
66.08000 443.538
66.12000 405.006
66.16000 364.642
66.20000 364.822
66.24000 359.539
66.28000 425.718
66.32000 514.783
66.36000 573.586
66.40000 605.622
66.44000 601.957
66.48000 590.922
66.52000 518.798
66.56000 438.621
66.60000 380.503
66.64000 356.971
66.68000 341.950
66.72000 349.125
66.76000 346.498
66.80000 345.510
66.84000 347.917
66.88000 356.965
66.92000 343.672
66.96000 375.220
67.00000 367.431
67.04000 365.266
67.08000 363.943
67.12000 380.691
67.16000 394.285
67.20000 374.861
67.24000 385.242
67.28000 389.446
67.32000 385.510
67.36000 402.225
67.40000 408.239
67.44000 406.315
67.48000 413.125
67.52000 409.881
67.56000 422.270
67.60000 423.570
67.64000 428.944
67.68000 444.190
67.72000 462.234
67.76000 439.450
67.80000 439.537
67.84000 453.509
67.88000 470.790
67.92000 473.022
67.96000 486.713
68.00000 511.471
68.04000 499.488
68.08000 499.021
68.12000 502.628
68.16000 517.017
68.20000 516.474
68.24000 540.092
68.28000 551.461
68.32000 562.093
68.36000 586.575
68.40000 601.127
68.44000 626.360
68.48000 657.225
68.52000 682.728
68.56000 754.457
68.60000 804.859
68.64000 960.756
68.68000 1099.552
68.72000 1253.258
68.76000 1429.001
68.80000 1590.956
68.84000 1828.170
68.88000 2227.679
68.92000 3562.002
68.96000 8625.729
69.00000 20317.840
69.04000 32719.740
69.08000 39221.617
69.12000 41730.742
69.16000 44683.016
69.20000 44319.777
69.24000 35346.641
69.28000 25843.051
69.32000 21426.998
69.36000 20129.412
69.40000 16843.607
69.44000 10196.200
69.48000 4512.166
69.52000 2072.931
69.56000 1279.542
69.60000 1052.450
69.64000 891.741
69.68000 817.884
69.72000 728.566
69.76000 642.174
69.80000 609.657
69.84000 599.250
69.88000 559.089
69.92000 520.899
69.96000 512.197
70.00000 507.193