File: XRD/XRD/08-10-2025 Dep 7/XY Data/BTO_Mapping_Theta2Theta_08-10-2025_001_19_-2-091_19-890.xy
20.00000 486.251
20.04000 471.821
20.08000 482.276
20.12000 473.283
20.16000 457.094
20.20000 468.970
20.24000 493.780
20.28000 471.256
20.32000 471.217
20.36000 469.952
20.40000 454.154
20.44000 475.649
20.48000 468.097
20.52000 479.734
20.56000 470.313
20.60000 465.633
20.64000 465.416
20.68000 470.481
20.72000 454.359
20.76000 462.464
20.80000 467.899
20.84000 469.813
20.88000 449.361
20.92000 472.929
20.96000 450.177
21.00000 475.456
21.04000 455.003
21.08000 471.759
21.12000 476.608
21.16000 484.236
21.20000 465.357
21.24000 464.917
21.28000 478.613
21.32000 460.717
21.36000 461.871
21.40000 463.507
21.44000 475.702
21.48000 465.129
21.52000 461.488
21.56000 476.647
21.60000 476.176
21.64000 461.953
21.68000 459.049
21.72000 467.883
21.76000 479.827
21.80000 493.995
21.84000 491.443
21.88000 506.674
21.92000 504.638
21.96000 524.760
22.00000 520.491
22.04000 530.030
22.08000 516.333
22.12000 529.366
22.16000 529.234
22.20000 528.168
22.24000 524.254
22.28000 486.673
22.32000 479.370
22.36000 486.105
22.40000 467.441
22.44000 454.282
22.48000 440.308
22.52000 458.195
22.56000 444.295
22.60000 458.962
22.64000 444.013
22.68000 443.950
22.72000 442.312
22.76000 442.697
22.80000 456.858
22.84000 442.489
22.88000 449.112
22.92000 448.470
22.96000 433.561
23.00000 443.690
23.04000 430.949
23.08000 430.366
23.12000 436.465
23.16000 429.395
23.20000 437.804
23.24000 435.118
23.28000 438.909
23.32000 437.065
23.36000 431.411
23.40000 435.009
23.44000 417.257
23.48000 427.991
23.52000 426.982
23.56000 452.170
23.60000 445.339
23.64000 446.723
23.68000 433.567
23.72000 447.586
23.76000 468.520
23.80000 480.473
23.84000 475.245
23.88000 496.034
23.92000 494.509
23.96000 514.937
24.00000 496.362
24.04000 496.686
24.08000 479.966
24.12000 478.821
24.16000 463.342
24.20000 453.105
24.24000 462.589
24.28000 471.488
24.32000 443.806
24.36000 435.029
24.40000 423.479
24.44000 430.113
24.48000 453.763
24.52000 407.955
24.56000 440.870
24.60000 420.431
24.64000 419.193
24.68000 393.171
24.72000 403.890
24.76000 411.740
24.80000 414.363
24.84000 413.956
24.88000 407.124
24.92000 410.609
24.96000 397.665
25.00000 412.135
25.04000 403.212
25.08000 407.099
25.12000 405.203
25.16000 419.316
25.20000 401.806
25.24000 390.006
25.28000 394.619
25.32000 410.311
25.36000 385.099
25.40000 401.204
25.44000 393.757
25.48000 396.617
25.52000 397.040
25.56000 387.876
25.60000 402.803
25.64000 384.370
25.68000 389.678
25.72000 386.175
25.76000 388.588
25.80000 398.814
25.84000 391.834
25.88000 400.502
25.92000 374.573
25.96000 398.297
26.00000 373.550
26.04000 369.922
26.08000 391.093
26.12000 398.758
26.16000 395.683
26.20000 380.317
26.24000 385.131
26.28000 392.160
26.32000 393.488
26.36000 381.897
26.40000 375.346
26.44000 382.904
26.48000 373.100
26.52000 380.442
26.56000 380.760
26.60000 380.815
26.64000 383.798
26.68000 377.101
26.72000 381.364
26.76000 389.324
26.80000 375.865
26.84000 374.950
26.88000 380.756
26.92000 371.278
26.96000 370.082
27.00000 363.710
27.04000 369.306
27.08000 386.709
27.12000 381.321
27.16000 368.662
27.20000 383.916
27.24000 368.843
27.28000 370.038
27.32000 379.004
27.36000 370.802
27.40000 369.298
27.44000 358.741
27.48000 380.036
27.52000 372.600
27.56000 377.268
27.60000 392.608
27.64000 372.909
27.68000 376.544
27.72000 384.514
27.76000 362.443
27.80000 373.922
27.84000 357.955
27.88000 361.981
27.92000 370.647
27.96000 357.254
28.00000 383.302
28.04000 365.974
28.08000 359.373
28.12000 367.921
28.16000 352.648
28.20000 374.997
28.24000 354.876
28.28000 349.072
28.32000 348.795
28.36000 365.222
28.40000 355.361
28.44000 369.233
28.48000 365.058
28.52000 366.454
28.56000 355.928
28.60000 369.632
28.64000 362.299
28.68000 359.520
28.72000 343.627
28.76000 361.276
28.80000 361.110
28.84000 353.679
28.88000 360.295
28.92000 362.465
28.96000 349.388
29.00000 356.145
29.04000 352.375
29.08000 354.109
29.12000 350.055
29.16000 349.242
29.20000 341.415
29.24000 340.978
29.28000 361.201
29.32000 340.905
29.36000 359.427
29.40000 343.237
29.44000 335.969
29.48000 359.743
29.52000 345.051
29.56000 347.750
29.60000 356.916
29.64000 352.177
29.68000 366.330
29.72000 360.219
29.76000 352.309
29.80000 359.368
29.84000 363.254
29.88000 379.628
29.92000 383.921
29.96000 382.533
30.00000 383.348
30.04000 383.323
30.08000 362.031
30.12000 379.920
30.16000 378.701
30.20000 366.728
30.24000 369.662
30.28000 359.108
30.32000 358.858
30.36000 364.462
30.40000 348.835
30.44000 353.606
30.48000 355.923
30.52000 375.286
30.56000 359.938
30.60000 333.400
30.64000 342.649
30.68000 368.995
30.72000 334.152
30.76000 374.609
30.80000 385.969
30.84000 367.293
30.88000 380.484
30.92000 388.364
30.96000 420.629
31.00000 423.374
31.04000 470.429
31.08000 498.152
31.12000 558.889
31.16000 650.516
31.20000 761.840
31.24000 833.553
31.28000 1000.168
31.32000 1092.220
31.36000 1172.050
31.40000 1216.709
31.44000 1211.184
31.48000 1109.010
31.52000 1005.627
31.56000 889.816
31.60000 751.128
31.64000 628.636
31.68000 538.916
31.72000 489.717
31.76000 428.746
31.80000 422.284
31.84000 401.391
31.88000 359.169
31.92000 382.557
31.96000 361.137
32.00000 354.497
32.04000 358.529
32.08000 360.450
32.12000 344.935
32.16000 343.279
32.20000 326.706
32.24000 333.804
32.28000 334.491
32.32000 317.910
32.36000 321.226
32.40000 316.881
32.44000 320.328
32.48000 333.924
32.52000 334.156
32.56000 323.778
32.60000 319.574
32.64000 319.395
32.68000 314.502
32.72000 325.085
32.76000 320.180
32.80000 319.026
32.84000 320.771
32.88000 313.485
32.92000 317.896
32.96000 318.574
33.00000 317.922
33.04000 321.559
33.08000 314.548
33.12000 293.510
33.16000 295.755
33.20000 301.641
33.24000 302.056
33.28000 300.743
33.32000 293.532
33.36000 297.105
33.40000 295.046
33.44000 301.872
33.48000 285.673
33.52000 303.427
33.56000 311.231
33.60000 308.884
33.64000 307.209
33.68000 304.666
33.72000 298.672
33.76000 301.738
33.80000 308.025
33.84000 297.236
33.88000 307.595
33.92000 309.832
33.96000 309.589
34.00000 304.914
34.04000 315.932
34.08000 327.322
34.12000 317.799
34.16000 340.908
34.20000 339.574
34.24000 347.037
34.28000 351.650
34.32000 373.485
34.36000 357.045
34.40000 356.283
34.44000 334.184
34.48000 349.071
34.52000 331.649
34.56000 330.190
34.60000 323.038
34.64000 312.027
34.68000 319.003
34.72000 320.975
34.76000 304.931
34.80000 302.561
34.84000 300.479
34.88000 292.064
34.92000 280.432
34.96000 275.590
35.00000 283.313
35.04000 296.143
35.08000 282.020
35.12000 273.545
35.16000 263.080
35.20000 277.991
35.24000 264.288
35.28000 292.156
35.32000 272.041
35.36000 284.383
35.40000 270.378
35.44000 283.091
35.48000 271.969
35.52000 274.548
35.56000 268.618
35.60000 263.378
35.64000 264.683
35.68000 272.469
35.72000 275.139
35.76000 261.196
35.80000 266.604
35.84000 256.823
35.88000 268.056
35.92000 249.315
35.96000 260.124
36.00000 255.033
36.04000 271.300
36.08000 266.824
36.12000 279.073
36.16000 252.350
36.20000 258.356
36.24000 264.662
36.28000 262.466
36.32000 263.543
36.36000 260.459
36.40000 273.592
36.44000 263.596
36.48000 259.621
36.52000 260.556
36.56000 257.270
36.60000 249.745
36.64000 237.416
36.68000 257.772
36.72000 263.682
36.76000 266.445
36.80000 255.010
36.84000 249.476
36.88000 261.998
36.92000 281.016
36.96000 286.261
37.00000 271.061
37.04000 282.274
37.08000 285.407
37.12000 288.551
37.16000 256.431
37.20000 270.011
37.24000 276.365
37.28000 261.257
37.32000 256.645
37.36000 257.819
37.40000 262.226
37.44000 252.094
37.48000 251.443
37.52000 262.853
37.56000 256.617
37.60000 241.749
37.64000 258.417
37.68000 263.028
37.72000 253.393
37.76000 261.730
37.80000 253.018
37.84000 252.134
37.88000 241.209
37.92000 249.216
37.96000 254.353
38.00000 248.939
38.04000 252.963
38.08000 256.415
38.12000 252.564
38.16000 252.721
38.20000 267.966
38.24000 280.031
38.28000 266.966
38.32000 294.292
38.36000 300.845
38.40000 329.615
38.44000 380.200
38.48000 463.089
38.52000 520.743
38.56000 635.523
38.60000 802.919
38.64000 890.453
38.68000 998.465
38.72000 1059.135
38.76000 1049.800
38.80000 979.475
38.84000 858.076
38.88000 737.102
38.92000 639.382
38.96000 507.557
39.00000 396.728
39.04000 330.963
39.08000 302.886
39.12000 266.251
39.16000 254.160
39.20000 241.123
39.24000 237.141
39.28000 223.919
39.32000 237.895
39.36000 243.497
39.40000 249.562
39.44000 255.243
39.48000 228.898
39.52000 228.021
39.56000 241.569
39.60000 228.857
39.64000 239.322
39.68000 224.954
39.72000 224.182
39.76000 223.680
39.80000 221.642
39.84000 232.599
39.88000 224.289
39.92000 229.311
39.96000 235.344
40.00000 227.277
40.04000 234.310
40.08000 225.125
40.12000 230.226
40.16000 230.672
40.20000 216.827
40.24000 230.186
40.28000 211.839
40.32000 228.048
40.36000 221.823
40.40000 217.419
40.44000 230.530
40.48000 215.204
40.52000 216.893
40.56000 226.751
40.60000 212.423
40.64000 221.132
40.68000 214.110
40.72000 215.447
40.76000 215.699
40.80000 212.700
40.84000 210.018
40.88000 218.902
40.92000 205.616
40.96000 211.575
41.00000 219.646
41.04000 216.396
41.08000 205.839
41.12000 221.656
41.16000 207.690
41.20000 208.966
41.24000 206.305
41.28000 218.959
41.32000 218.924
41.36000 212.795
41.40000 216.947
41.44000 204.258
41.48000 205.655
41.52000 216.008
41.56000 216.000
41.60000 207.554
41.64000 211.480
41.68000 214.373
41.72000 199.043
41.76000 195.674
41.80000 206.540
41.84000 210.003
41.88000 207.681
41.92000 210.221
41.96000 207.404
42.00000 225.253
42.04000 211.304
42.08000 207.462
42.12000 206.798
42.16000 197.911
42.20000 216.001
42.24000 220.691
42.28000 220.599
42.32000 211.666
42.36000 226.120
42.40000 221.070
42.44000 208.363
42.48000 208.434
42.52000 224.533
42.56000 222.059
42.60000 211.882
42.64000 204.541
42.68000 211.410
42.72000 196.589
42.76000 204.962
42.80000 200.759
42.84000 205.845
42.88000 204.778
42.92000 204.989
42.96000 198.756
43.00000 200.853
43.04000 205.787
43.08000 205.081
43.12000 203.894
43.16000 187.171
43.20000 191.883
43.24000 200.995
43.28000 195.652
43.32000 192.074
43.36000 193.668
43.40000 200.956
43.44000 191.382
43.48000 199.359
43.52000 196.013
43.56000 190.710
43.60000 182.598
43.64000 186.239
43.68000 204.244
43.72000 195.638
43.76000 193.579
43.80000 195.321
43.84000 191.346
43.88000 192.813
43.92000 189.475
43.96000 195.909
44.00000 186.700
44.04000 190.659
44.08000 194.083
44.12000 194.366
44.16000 193.483
44.20000 205.150
44.24000 192.046
44.28000 193.010
44.32000 200.538
44.36000 199.760
44.40000 197.629
44.44000 209.003
44.48000 206.821
44.52000 209.129
44.56000 220.081
44.60000 216.688
44.64000 206.667
44.68000 214.347
44.72000 230.687
44.76000 215.629
44.80000 216.382
44.84000 214.167
44.88000 235.924
44.92000 242.702
44.96000 253.007
45.00000 243.291
45.04000 243.580
45.08000 252.128
45.12000 249.709
45.16000 242.106
45.20000 237.623
45.24000 234.484
45.28000 231.608
45.32000 233.145
45.36000 228.466
45.40000 220.445
45.44000 209.086
45.48000 206.350
45.52000 209.870
45.56000 212.638
45.60000 220.997
45.64000 203.155
45.68000 200.728
45.72000 197.588
45.76000 201.932
45.80000 186.888
45.84000 197.614
45.88000 201.513
45.92000 187.943
45.96000 181.547
46.00000 175.995
46.04000 184.011
46.08000 186.757
46.12000 172.253
46.16000 182.269
46.20000 186.943
46.24000 176.550
46.28000 170.541
46.32000 181.776
46.36000 180.155
46.40000 175.090
46.44000 171.599
46.48000 172.935
46.52000 177.406
46.56000 171.535
46.60000 174.567
46.64000 170.652
46.68000 180.170
46.72000 167.167
46.76000 166.396
46.80000 177.051
46.84000 177.622
46.88000 173.641
46.92000 180.325
46.96000 174.289
47.00000 169.178
47.04000 173.179
47.08000 173.165
47.12000 171.208
47.16000 169.295
47.20000 167.824
47.24000 166.108
47.28000 170.793
47.32000 168.298
47.36000 164.959
47.40000 156.924
47.44000 169.036
47.48000 160.939
47.52000 161.706
47.56000 163.686
47.60000 151.976
47.64000 153.993
47.68000 165.496
47.72000 170.547
47.76000 165.136
47.80000 166.090
47.84000 158.751
47.88000 167.012
47.92000 173.466
47.96000 156.910
48.00000 158.197
48.04000 159.054
48.08000 166.021
48.12000 154.546
48.16000 144.295
48.20000 151.275
48.24000 159.657
48.28000 170.433
48.32000 164.795
48.36000 163.529
48.40000 159.378
48.44000 158.537
48.48000 144.935
48.52000 157.804
48.56000 164.669
48.60000 157.799
48.64000 157.302
48.68000 150.725
48.72000 153.444
48.76000 164.771
48.80000 153.501
48.84000 164.505
48.88000 151.717
48.92000 161.281
48.96000 160.632
49.00000 152.507
49.04000 149.334
49.08000 157.513
49.12000 152.173
49.16000 149.248
49.20000 148.151
49.24000 152.384
49.28000 148.597
49.32000 155.507
49.36000 143.877
49.40000 149.148
49.44000 160.081
49.48000 154.295
49.52000 141.918
49.56000 148.193
49.60000 155.966
49.64000 154.075
49.68000 152.832
49.72000 145.699
49.76000 157.957
49.80000 146.285
49.84000 153.429
49.88000 147.137
49.92000 147.725
49.96000 154.520
50.00000 156.601
50.04000 165.406
50.08000 165.753
50.12000 154.320
50.16000 157.744
50.20000 151.059
50.24000 163.251
50.28000 153.083
50.32000 163.767
50.36000 153.103
50.40000 158.881
50.44000 155.020
50.48000 154.289
50.52000 157.223
50.56000 176.322
50.60000 167.930
50.64000 163.642
50.68000 161.596
50.72000 157.815
50.76000 168.764
50.80000 165.771
50.84000 165.365
50.88000 154.014
50.92000 162.623
50.96000 154.888
51.00000 144.399
51.04000 148.865
51.08000 156.015
51.12000 153.701
51.16000 148.856
51.20000 143.124
51.24000 143.812
51.28000 137.050
51.32000 155.173
51.36000 141.280
51.40000 150.447
51.44000 137.762
51.48000 145.326
51.52000 142.082
51.56000 140.026
51.60000 153.997
51.64000 132.613
51.68000 143.446
51.72000 135.245
51.76000 139.198
51.80000 139.651
51.84000 140.089
51.88000 139.621
51.92000 134.517
51.96000 141.623
52.00000 135.001
52.04000 138.641
52.08000 130.927
52.12000 138.384
52.16000 131.143
52.20000 131.638
52.24000 135.703
52.28000 133.198
52.32000 143.894
52.36000 129.521
52.40000 133.238
52.44000 150.706
52.48000 137.195
52.52000 141.798
52.56000 137.855
52.60000 137.437
52.64000 140.176
52.68000 135.768
52.72000 128.165
52.76000 139.935
52.80000 130.258
52.84000 145.993
52.88000 138.768
52.92000 137.692
52.96000 146.653
53.00000 147.919
53.04000 142.300
53.08000 145.988
53.12000 145.120
53.16000 156.013
53.20000 146.457
53.24000 147.048
53.28000 159.485
53.32000 151.501
53.36000 147.786
53.40000 155.694
53.44000 152.979
53.48000 155.283
53.52000 156.533
53.56000 154.459
53.60000 143.967
53.64000 145.578
53.68000 139.168
53.72000 138.829
53.76000 135.104
53.80000 153.311
53.84000 146.378
53.88000 135.433
53.92000 146.310
53.96000 147.388
54.00000 148.684
54.04000 141.537
54.08000 140.261
54.12000 145.910
54.16000 137.374
54.20000 132.209
54.24000 143.285
54.28000 138.008
54.32000 134.356
54.36000 147.959
54.40000 143.856
54.44000 129.162
54.48000 140.353
54.52000 139.598
54.56000 139.949
54.60000 144.420
54.64000 138.635
54.68000 134.996
54.72000 142.769
54.76000 147.035
54.80000 153.019
54.84000 145.868
54.88000 143.999
54.92000 142.314
54.96000 150.446
55.00000 157.279
55.04000 138.747
55.08000 145.182
55.12000 141.545
55.16000 143.112
55.20000 145.386
55.24000 140.559
55.28000 154.409
55.32000 162.667
55.36000 177.281
55.40000 174.262
55.44000 177.017
55.48000 173.067
55.52000 186.338
55.56000 224.051
55.60000 252.315
55.64000 272.567
55.68000 321.288
55.72000 366.368
55.76000 418.263
55.80000 473.648
55.84000 542.061
55.88000 582.048
55.92000 591.156
55.96000 621.670
56.00000 624.965
56.04000 595.171
56.08000 529.360
56.12000 485.575
56.16000 443.649
56.20000 370.557
56.24000 324.436
56.28000 284.412
56.32000 237.139
56.36000 212.328
56.40000 196.799
56.44000 183.077
56.48000 169.958
56.52000 160.547
56.56000 142.837
56.60000 151.253
56.64000 148.737
56.68000 139.528
56.72000 131.461
56.76000 135.641
56.80000 135.537
56.84000 133.008
56.88000 140.852
56.92000 131.543
56.96000 138.311
57.00000 129.895
57.04000 131.453
57.08000 132.093
57.12000 118.523
57.16000 134.478
57.20000 120.233
57.24000 122.244
57.28000 127.379
57.32000 135.363
57.36000 121.262
57.40000 129.524
57.44000 129.386
57.48000 123.312
57.52000 128.701
57.56000 138.048
57.60000 130.757
57.64000 119.147
57.68000 125.454
57.72000 130.780
57.76000 120.647
57.80000 128.324
57.84000 126.034
57.88000 133.023
57.92000 132.416
57.96000 126.798
58.00000 122.190
58.04000 122.176
58.08000 132.194
58.12000 117.751
58.16000 124.514
58.20000 130.122
58.24000 117.719
58.28000 121.437
58.32000 112.412
58.36000 119.247
58.40000 126.762
58.44000 117.740
58.48000 115.674
58.52000 118.234
58.56000 120.765
58.60000 113.654
58.64000 117.522
58.68000 125.574
58.72000 125.117
58.76000 129.445
58.80000 126.055
58.84000 121.439
58.88000 120.460
58.92000 121.126
58.96000 105.396
59.00000 115.261
59.04000 120.913
59.08000 113.483
59.12000 120.716
59.16000 123.460
59.20000 122.063
59.24000 122.261
59.28000 122.061
59.32000 115.688
59.36000 124.168
59.40000 126.760
59.44000 117.983
59.48000 109.929
59.52000 120.966
59.56000 115.856
59.60000 121.282
59.64000 124.038
59.68000 130.354
59.72000 120.284
59.76000 116.379
59.80000 118.684
59.84000 116.606
59.88000 112.738
59.92000 123.470
59.96000 116.322
60.00000 116.673
60.04000 123.093
60.08000 111.239
60.12000 119.143
60.16000 121.416
60.20000 128.028
60.24000 116.966
60.28000 116.731
60.32000 106.938
60.36000 124.647
60.40000 119.474
60.44000 126.802
60.48000 121.490
60.52000 114.017
60.56000 123.601
60.60000 119.312
60.64000 116.672
60.68000 123.913
60.72000 130.102
60.76000 111.444
60.80000 121.227
60.84000 117.353
60.88000 116.681
60.92000 122.571
60.96000 114.791
61.00000 108.330
61.04000 121.781
61.08000 124.819
61.12000 119.433
61.16000 127.913
61.20000 123.488
61.24000 133.821
61.28000 120.396
61.32000 117.073
61.36000 129.227
61.40000 118.552
61.44000 131.676
61.48000 123.976
61.52000 149.512
61.56000 182.068
61.60000 237.612
61.64000 270.992
61.68000 281.740
61.72000 279.713
61.76000 284.377
61.80000 235.126
61.84000 184.438
61.88000 152.757
61.92000 143.138
61.96000 145.209
62.00000 136.282
62.04000 125.033
62.08000 137.694
62.12000 124.617
62.16000 127.990
62.20000 127.453
62.24000 125.337
62.28000 130.010
62.32000 117.746
62.36000 129.826
62.40000 130.132
62.44000 131.908
62.48000 129.806
62.52000 123.240
62.56000 128.439
62.60000 129.870
62.64000 130.290
62.68000 128.990
62.72000 121.771
62.76000 124.611
62.80000 135.800
62.84000 139.611
62.88000 131.076
62.92000 125.590
62.96000 135.813
63.00000 139.349
63.04000 130.350
63.08000 132.245
63.12000 134.293
63.16000 137.619
63.20000 130.019
63.24000 142.761
63.28000 135.304
63.32000 134.789
63.36000 127.717
63.40000 134.418
63.44000 128.951
63.48000 130.515
63.52000 138.476
63.56000 129.739
63.60000 136.135
63.64000 141.986
63.68000 135.178
63.72000 142.222
63.76000 137.123
63.80000 131.672
63.84000 138.139
63.88000 141.310
63.92000 141.331
63.96000 143.051
64.00000 148.228
64.04000 141.948
64.08000 141.547
64.12000 140.061
64.16000 148.302
64.20000 146.385
64.24000 145.654
64.28000 154.938
64.32000 145.097
64.36000 150.666
64.40000 133.338
64.44000 153.673
64.48000 156.705
64.52000 159.198
64.56000 162.615
64.60000 160.259
64.64000 160.928
64.68000 166.471
64.72000 171.058
64.76000 176.280
64.80000 167.950
64.84000 174.121
64.88000 173.723
64.92000 165.954
64.96000 180.094
65.00000 183.148
65.04000 183.957
65.08000 199.706
65.12000 181.750
65.16000 200.467
65.20000 208.443
65.24000 227.333
65.28000 218.706
65.32000 241.293
65.36000 250.374
65.40000 265.964
65.44000 260.356
65.48000 278.414
65.52000 287.792
65.56000 318.549
65.60000 347.183
65.64000 391.766
65.68000 521.732
65.72000 788.791
65.76000 1244.749
65.80000 1634.363
65.84000 1854.234
65.88000 1876.891
65.92000 1831.853
65.96000 1578.074
66.00000 1096.412
66.04000 705.609
66.08000 473.033
66.12000 408.393
66.16000 372.407
66.20000 350.860
66.24000 348.087
66.28000 420.588
66.32000 491.055
66.36000 593.400
66.40000 603.120
66.44000 600.793
66.48000 580.906
66.52000 537.514
66.56000 443.372
66.60000 379.672
66.64000 356.852
66.68000 336.212
66.72000 354.883
66.76000 345.503
66.80000 349.010
66.84000 349.925
66.88000 361.942
66.92000 370.728
66.96000 375.685
67.00000 367.084
67.04000 371.649
67.08000 358.286
67.12000 374.419
67.16000 373.746
67.20000 402.388
67.24000 383.107
67.28000 386.815
67.32000 403.035
67.36000 407.253
67.40000 400.773
67.44000 408.702
67.48000 413.920
67.52000 416.219
67.56000 425.264
67.60000 439.121
67.64000 423.140
67.68000 453.174
67.72000 433.339
67.76000 433.226
67.80000 437.760
67.84000 464.334
67.88000 462.716
67.92000 449.936
67.96000 478.599
68.00000 500.124
68.04000 502.653
68.08000 506.426
68.12000 507.468
68.16000 517.222
68.20000 534.720
68.24000 537.602
68.28000 539.205
68.32000 553.438
68.36000 586.431
68.40000 599.116
68.44000 612.948
68.48000 636.329
68.52000 707.153
68.56000 748.126
68.60000 793.565
68.64000 918.528
68.68000 1064.836
68.72000 1232.953
68.76000 1389.120
68.80000 1541.273
68.84000 1748.111
68.88000 2110.047
68.92000 3120.536
68.96000 7147.942
69.00000 17610.631
69.04000 30584.340
69.08000 38422.707
69.12000 41542.613
69.16000 44272.242
69.20000 45062.023
69.24000 37663.625
69.28000 27705.406
69.32000 22232.139
69.36000 20336.020
69.40000 17948.789
69.44000 11556.843
69.48000 5454.157
69.52000 2451.470
69.56000 1376.353
69.60000 1097.129
69.64000 917.833
69.68000 833.778
69.72000 752.644
69.76000 685.443
69.80000 630.552
69.84000 598.066
69.88000 551.569
69.92000 527.949
69.96000 521.607
70.00000 501.579