File: XRD/XRD/08-10-2025 Dep 7/XY Data/BTO_Mapping_Theta2Theta_08-10-2025_001_04_30-000_0-000.xy
20.00000 466.285
20.04000 487.312
20.08000 511.220
20.12000 485.573
20.16000 477.294
20.20000 479.491
20.24000 486.511
20.28000 482.642
20.32000 499.646
20.36000 468.681
20.40000 486.772
20.44000 463.118
20.48000 477.752
20.52000 478.480
20.56000 483.314
20.60000 467.858
20.64000 479.382
20.68000 485.681
20.72000 478.568
20.76000 457.182
20.80000 475.187
20.84000 462.475
20.88000 470.436
20.92000 493.739
20.96000 462.206
21.00000 476.393
21.04000 482.348
21.08000 465.600
21.12000 451.481
21.16000 473.525
21.20000 473.664
21.24000 484.421
21.28000 475.796
21.32000 471.409
21.36000 437.071
21.40000 461.338
21.44000 472.377
21.48000 484.064
21.52000 473.219
21.56000 489.839
21.60000 469.907
21.64000 472.877
21.68000 479.160
21.72000 481.490
21.76000 490.905
21.80000 482.064
21.84000 496.507
21.88000 484.394
21.92000 505.787
21.96000 507.464
22.00000 519.355
22.04000 518.939
22.08000 510.189
22.12000 512.213
22.16000 512.636
22.20000 501.298
22.24000 480.412
22.28000 490.844
22.32000 475.439
22.36000 465.173
22.40000 462.218
22.44000 471.114
22.48000 466.670
22.52000 459.152
22.56000 460.751
22.60000 457.235
22.64000 438.748
22.68000 457.898
22.72000 456.981
22.76000 438.823
22.80000 471.231
22.84000 446.939
22.88000 454.650
22.92000 440.362
22.96000 440.468
23.00000 455.440
23.04000 450.540
23.08000 452.306
23.12000 435.624
23.16000 451.001
23.20000 464.644
23.24000 458.873
23.28000 457.038
23.32000 443.988
23.36000 453.938
23.40000 453.449
23.44000 462.648
23.48000 444.457
23.52000 458.164
23.56000 453.793
23.60000 466.035
23.64000 460.127
23.68000 479.237
23.72000 495.190
23.76000 495.340
23.80000 518.697
23.84000 527.920
23.88000 543.226
23.92000 566.292
23.96000 553.679
24.00000 569.527
24.04000 564.153
24.08000 521.827
24.12000 545.101
24.16000 495.367
24.20000 485.421
24.24000 469.308
24.28000 434.816
24.32000 454.329
24.36000 461.371
24.40000 442.060
24.44000 440.803
24.48000 424.793
24.52000 432.962
24.56000 431.262
24.60000 429.053
24.64000 432.236
24.68000 424.089
24.72000 407.325
24.76000 408.421
24.80000 420.550
24.84000 435.073
24.88000 412.278
24.92000 440.290
24.96000 423.469
25.00000 402.956
25.04000 406.853
25.08000 406.709
25.12000 403.376
25.16000 403.911
25.20000 403.623
25.24000 395.581
25.28000 415.819
25.32000 390.252
25.36000 406.840
25.40000 416.422
25.44000 409.250
25.48000 408.454
25.52000 411.885
25.56000 397.623
25.60000 404.642
25.64000 395.536
25.68000 402.428
25.72000 408.824
25.76000 386.088
25.80000 385.648
25.84000 412.105
25.88000 410.657
25.92000 400.979
25.96000 399.365
26.00000 381.700
26.04000 401.256
26.08000 388.272
26.12000 381.118
26.16000 395.785
26.20000 392.425
26.24000 403.191
26.28000 398.128
26.32000 400.654
26.36000 395.348
26.40000 398.935
26.44000 396.167
26.48000 396.343
26.52000 400.638
26.56000 409.579
26.60000 386.676
26.64000 378.970
26.68000 386.930
26.72000 407.111
26.76000 378.267
26.80000 387.536
26.84000 392.789
26.88000 392.964
26.92000 375.217
26.96000 394.253
27.00000 393.012
27.04000 388.352
27.08000 389.451
27.12000 383.013
27.16000 369.505
27.20000 353.164
27.24000 371.051
27.28000 381.537
27.32000 366.304
27.36000 387.306
27.40000 390.203
27.44000 371.340
27.48000 370.240
27.52000 374.851
27.56000 369.615
27.60000 369.881
27.64000 377.324
27.68000 353.910
27.72000 374.887
27.76000 391.783
27.80000 393.338
27.84000 358.901
27.88000 387.602
27.92000 354.379
27.96000 373.738
28.00000 382.436
28.04000 369.650
28.08000 363.650
28.12000 383.702
28.16000 358.299
28.20000 385.210
28.24000 379.223
28.28000 362.512
28.32000 401.421
28.36000 363.340
28.40000 381.047
28.44000 377.840
28.48000 352.080
28.52000 369.636
28.56000 382.147
28.60000 362.955
28.64000 365.066
28.68000 367.476
28.72000 372.305
28.76000 372.810
28.80000 378.490
28.84000 374.498
28.88000 352.194
28.92000 348.197
28.96000 367.972
29.00000 369.202
29.04000 361.543
29.08000 373.446
29.12000 341.591
29.16000 348.554
29.20000 368.046
29.24000 348.811
29.28000 349.585
29.32000 354.274
29.36000 355.560
29.40000 374.283
29.44000 371.517
29.48000 355.251
29.52000 364.258
29.56000 371.626
29.60000 362.370
29.64000 345.085
29.68000 359.254
29.72000 364.220
29.76000 387.140
29.80000 378.482
29.84000 378.599
29.88000 373.718
29.92000 383.797
29.96000 398.651
30.00000 374.276
30.04000 386.325
30.08000 376.880
30.12000 389.271
30.16000 387.457
30.20000 374.004
30.24000 386.817
30.28000 356.130
30.32000 374.785
30.36000 378.525
30.40000 371.885
30.44000 373.933
30.48000 366.031
30.52000 366.115
30.56000 388.407
30.60000 376.427
30.64000 379.244
30.68000 364.666
30.72000 377.559
30.76000 393.898
30.80000 400.756
30.84000 427.100
30.88000 445.563
30.92000 451.772
30.96000 466.523
31.00000 496.521
31.04000 525.576
31.08000 573.703
31.12000 639.658
31.16000 711.440
31.20000 795.014
31.24000 943.480
31.28000 955.237
31.32000 1006.841
31.36000 993.690
31.40000 979.965
31.44000 935.114
31.48000 864.938
31.52000 773.105
31.56000 698.177
31.60000 621.550
31.64000 561.728
31.68000 505.687
31.72000 465.398
31.76000 442.616
31.80000 422.657
31.84000 435.777
31.88000 387.916
31.92000 392.080
31.96000 382.546
32.00000 360.846
32.04000 380.795
32.08000 370.468
32.12000 358.966
32.16000 346.261
32.20000 362.254
32.24000 377.621
32.28000 342.456
32.32000 346.804
32.36000 328.235
32.40000 346.982
32.44000 335.935
32.48000 345.224
32.52000 324.836
32.56000 327.899
32.60000 330.970
32.64000 336.470
32.68000 319.345
32.72000 326.280
32.76000 320.905
32.80000 329.681
32.84000 332.987
32.88000 340.280
32.92000 322.838
32.96000 323.941
33.00000 310.341
33.04000 324.832
33.08000 312.119
33.12000 312.579
33.16000 305.697
33.20000 307.634
33.24000 316.762
33.28000 298.926
33.32000 318.730
33.36000 299.895
33.40000 298.938
33.44000 304.401
33.48000 314.518
33.52000 319.401
33.56000 307.133
33.60000 300.674
33.64000 300.109
33.68000 300.305
33.72000 291.677
33.76000 307.220
33.80000 306.067
33.84000 308.293
33.88000 301.772
33.92000 333.975
33.96000 314.874
34.00000 312.250
34.04000 311.300
34.08000 309.238
34.12000 313.308
34.16000 320.734
34.20000 323.945
34.24000 326.224
34.28000 331.961
34.32000 334.312
34.36000 335.243
34.40000 330.202
34.44000 328.583
34.48000 331.744
34.52000 316.863
34.56000 307.570
34.60000 301.270
34.64000 299.633
34.68000 297.811
34.72000 290.999
34.76000 300.458
34.80000 290.154
34.84000 283.510
34.88000 290.262
34.92000 278.277
34.96000 283.185
35.00000 272.934
35.04000 276.672
35.08000 274.656
35.12000 263.278
35.16000 281.661
35.20000 286.855
35.24000 267.437
35.28000 268.552
35.32000 265.812
35.36000 265.717
35.40000 281.849
35.44000 271.492
35.48000 251.456
35.52000 269.634
35.56000 277.761
35.60000 259.830
35.64000 258.705
35.68000 271.859
35.72000 278.239
35.76000 274.105
35.80000 257.173
35.84000 258.401
35.88000 249.716
35.92000 259.154
35.96000 258.828
36.00000 276.957
36.04000 262.272
36.08000 276.989
36.12000 256.585
36.16000 261.750
36.20000 254.382
36.24000 251.155
36.28000 246.417
36.32000 256.377
36.36000 256.469
36.40000 253.027
36.44000 250.626
36.48000 256.514
36.52000 256.978
36.56000 260.654
36.60000 260.385
36.64000 257.364
36.68000 274.326
36.72000 268.410
36.76000 268.434
36.80000 266.529
36.84000 255.603
36.88000 266.792
36.92000 262.648
36.96000 283.839
37.00000 275.560
37.04000 256.632
37.08000 268.974
37.12000 266.691
37.16000 254.626
37.20000 250.530
37.24000 254.458
37.28000 258.164
37.32000 250.067
37.36000 256.387
37.40000 251.117
37.44000 262.199
37.48000 256.565
37.52000 263.630
37.56000 242.738
37.60000 257.426
37.64000 252.220
37.68000 249.109
37.72000 253.656
37.76000 256.594
37.80000 243.825
37.84000 248.713
37.88000 259.741
37.92000 246.356
37.96000 271.008
38.00000 242.414
38.04000 256.215
38.08000 243.860
38.12000 277.737
38.16000 261.461
38.20000 272.235
38.24000 282.618
38.28000 290.590
38.32000 307.551
38.36000 321.063
38.40000 354.740
38.44000 383.390
38.48000 436.534
38.52000 502.411
38.56000 582.436
38.60000 650.051
38.64000 707.031
38.68000 725.199
38.72000 710.384
38.76000 644.795
38.80000 571.103
38.84000 502.124
38.88000 448.255
38.92000 382.898
38.96000 326.448
39.00000 312.848
39.04000 278.376
39.08000 260.234
39.12000 259.453
39.16000 264.774
39.20000 250.632
39.24000 248.239
39.28000 248.203
39.32000 250.659
39.36000 257.657
39.40000 249.277
39.44000 249.796
39.48000 253.964
39.52000 234.101
39.56000 248.015
39.60000 231.547
39.64000 233.705
39.68000 234.102
39.72000 233.323
39.76000 231.496
39.80000 238.987
39.84000 237.208
39.88000 239.316
39.92000 236.569
39.96000 242.392
40.00000 226.235
40.04000 243.499
40.08000 227.719
40.12000 243.801
40.16000 213.133
40.20000 233.697
40.24000 224.385
40.28000 228.654
40.32000 223.384
40.36000 223.932
40.40000 216.175
40.44000 211.531
40.48000 204.462
40.52000 220.945
40.56000 209.376
40.60000 222.102
40.64000 221.423
40.68000 236.997
40.72000 213.212
40.76000 217.007
40.80000 207.815
40.84000 200.974
40.88000 210.115
40.92000 214.740
40.96000 201.155
41.00000 222.233
41.04000 220.476
41.08000 212.566
41.12000 232.891
41.16000 212.131
41.20000 203.972
41.24000 217.237
41.28000 216.444
41.32000 204.224
41.36000 216.143
41.40000 214.648
41.44000 210.753
41.48000 218.273
41.52000 213.698
41.56000 217.180
41.60000 231.258
41.64000 213.596
41.68000 218.654
41.72000 220.245
41.76000 208.711
41.80000 212.593
41.84000 222.392
41.88000 218.829
41.92000 209.097
41.96000 223.442
42.00000 218.984
42.04000 218.073
42.08000 226.145
42.12000 219.865
42.16000 220.470
42.20000 222.284
42.24000 216.200
42.28000 227.759
42.32000 238.977
42.36000 232.153
42.40000 219.741
42.44000 215.334
42.48000 220.816
42.52000 224.364
42.56000 215.545
42.60000 227.052
42.64000 216.686
42.68000 204.032
42.72000 210.833
42.76000 209.104
42.80000 214.727
42.84000 222.534
42.88000 205.265
42.92000 205.168
42.96000 207.737
43.00000 204.059
43.04000 199.547
43.08000 214.601
43.12000 207.490
43.16000 199.733
43.20000 207.443
43.24000 202.342
43.28000 193.998
43.32000 205.875
43.36000 198.585
43.40000 188.913
43.44000 198.162
43.48000 191.810
43.52000 185.471
43.56000 206.561
43.60000 192.237
43.64000 185.968
43.68000 198.443
43.72000 212.803
43.76000 202.668
43.80000 193.388
43.84000 189.761
43.88000 199.498
43.92000 198.900
43.96000 191.547
44.00000 201.943
44.04000 191.979
44.08000 194.608
44.12000 201.003
44.16000 204.707
44.20000 196.719
44.24000 201.701
44.28000 190.444
44.32000 217.139
44.36000 196.769
44.40000 194.937
44.44000 207.967
44.48000 210.023
44.52000 221.638
44.56000 217.307
44.60000 223.328
44.64000 217.655
44.68000 216.163
44.72000 228.025
44.76000 236.950
44.80000 237.301
44.84000 241.148
44.88000 222.816
44.92000 241.641
44.96000 245.192
45.00000 248.369
45.04000 235.530
45.08000 226.867
45.12000 240.590
45.16000 233.236
45.20000 222.458
45.24000 222.486
45.28000 223.641
45.32000 224.098
45.36000 215.448
45.40000 212.777
45.44000 203.404
45.48000 200.895
45.52000 213.526
45.56000 189.795
45.60000 192.665
45.64000 195.078
45.68000 200.628
45.72000 183.065
45.76000 194.996
45.80000 190.413
45.84000 186.033
45.88000 176.318
45.92000 176.615
45.96000 183.427
46.00000 192.209
46.04000 192.012
46.08000 175.861
46.12000 180.209
46.16000 176.750
46.20000 180.716
46.24000 174.802
46.28000 186.052
46.32000 171.920
46.36000 185.152
46.40000 187.566
46.44000 179.495
46.48000 188.650
46.52000 190.131
46.56000 186.675
46.60000 170.842
46.64000 168.376
46.68000 162.917
46.72000 179.048
46.76000 177.726
46.80000 167.028
46.84000 175.447
46.88000 174.979
46.92000 181.863
46.96000 179.076
47.00000 176.576
47.04000 167.998
47.08000 171.341
47.12000 172.265
47.16000 172.279
47.20000 166.683
47.24000 166.906
47.28000 165.095
47.32000 157.673
47.36000 167.835
47.40000 163.647
47.44000 167.746
47.48000 166.417
47.52000 165.903
47.56000 173.317
47.60000 161.105
47.64000 167.494
47.68000 166.443
47.72000 161.096
47.76000 157.574
47.80000 165.793
47.84000 161.574
47.88000 165.330
47.92000 168.278
47.96000 172.265
48.00000 167.743
48.04000 164.832
48.08000 160.298
48.12000 158.702
48.16000 166.531
48.20000 176.265
48.24000 163.762
48.28000 150.068
48.32000 163.155
48.36000 172.053
48.40000 167.296
48.44000 156.203
48.48000 153.222
48.52000 154.975
48.56000 156.042
48.60000 157.949
48.64000 163.108
48.68000 153.771
48.72000 166.227
48.76000 161.568
48.80000 154.157
48.84000 170.300
48.88000 153.155
48.92000 157.995
48.96000 147.255
49.00000 168.058
49.04000 161.079
49.08000 156.343
49.12000 159.726
49.16000 162.737
49.20000 157.234
49.24000 158.755
49.28000 151.377
49.32000 162.976
49.36000 147.248
49.40000 161.984
49.44000 164.567
49.48000 155.333
49.52000 169.378
49.56000 156.048
49.60000 155.983
49.64000 153.371
49.68000 160.165
49.72000 157.980
49.76000 163.769
49.80000 153.653
49.84000 162.791
49.88000 151.973
49.92000 154.394
49.96000 162.717
50.00000 156.658
50.04000 152.424
50.08000 149.821
50.12000 159.205
50.16000 167.348
50.20000 164.015
50.24000 153.857
50.28000 153.940
50.32000 161.614
50.36000 168.058
50.40000 161.215
50.44000 166.134
50.48000 169.911
50.52000 164.907
50.56000 182.702
50.60000 164.920
50.64000 175.552
50.68000 167.106
50.72000 161.588
50.76000 165.020
50.80000 173.490
50.84000 165.171
50.88000 154.799
50.92000 159.806
50.96000 169.206
51.00000 146.605
51.04000 144.458
51.08000 153.252
51.12000 162.414
51.16000 162.941
51.20000 154.585
51.24000 152.238
51.28000 152.340
51.32000 150.430
51.36000 152.671
51.40000 154.495
51.44000 150.355
51.48000 155.467
51.52000 144.169
51.56000 152.585
51.60000 130.566
51.64000 149.003
51.68000 140.933
51.72000 133.657
51.76000 141.630
51.80000 131.200
51.84000 147.151
51.88000 145.326
51.92000 138.094
51.96000 143.516
52.00000 139.398
52.04000 140.965
52.08000 150.282
52.12000 142.552
52.16000 147.856
52.20000 141.824
52.24000 136.705
52.28000 147.927
52.32000 144.679
52.36000 138.231
52.40000 143.793
52.44000 149.627
52.48000 145.685
52.52000 140.118
52.56000 147.258
52.60000 143.212
52.64000 141.389
52.68000 138.159
52.72000 139.771
52.76000 140.060
52.80000 143.305
52.84000 144.137
52.88000 140.306
52.92000 153.069
52.96000 146.665
53.00000 144.472
53.04000 140.146
53.08000 139.171
53.12000 133.149
53.16000 134.123
53.20000 146.088
53.24000 144.534
53.28000 146.850
53.32000 143.756
53.36000 147.007
53.40000 141.772
53.44000 145.765
53.48000 144.579
53.52000 139.646
53.56000 133.235
53.60000 151.039
53.64000 146.501
53.68000 154.360
53.72000 140.064
53.76000 148.551
53.80000 142.836
53.84000 143.114
53.88000 140.295
53.92000 137.572
53.96000 131.581
54.00000 151.204
54.04000 145.824
54.08000 144.557
54.12000 140.592
54.16000 135.423
54.20000 140.788
54.24000 132.241
54.28000 139.253
54.32000 143.593
54.36000 149.120
54.40000 146.248
54.44000 149.672
54.48000 138.966
54.52000 137.716
54.56000 133.093
54.60000 146.293
54.64000 139.213
54.68000 143.244
54.72000 144.757
54.76000 145.900
54.80000 136.153
54.84000 142.540
54.88000 139.451
54.92000 144.243
54.96000 149.488
55.00000 156.143
55.04000 152.818
55.08000 145.743
55.12000 155.890
55.16000 147.072
55.20000 157.725
55.24000 167.467
55.28000 159.174
55.32000 159.603
55.36000 165.258
55.40000 182.023
55.44000 189.882
55.48000 199.276
55.52000 195.396
55.56000 208.921
55.60000 216.778
55.64000 239.111
55.68000 260.440
55.72000 269.356
55.76000 286.932
55.80000 307.344
55.84000 304.362
55.88000 327.017
55.92000 339.603
55.96000 338.403
56.00000 310.546
56.04000 306.605
56.08000 259.214
56.12000 268.735
56.16000 250.103
56.20000 239.773
56.24000 220.757
56.28000 195.590
56.32000 199.745
56.36000 176.500
56.40000 166.171
56.44000 169.755
56.48000 158.285
56.52000 156.978
56.56000 166.850
56.60000 147.349
56.64000 139.850
56.68000 146.234
56.72000 135.872
56.76000 138.423
56.80000 144.693
56.84000 143.375
56.88000 137.261
56.92000 135.504
56.96000 141.376
57.00000 136.434
57.04000 124.649
57.08000 132.500
57.12000 129.090
57.16000 133.875
57.20000 129.176
57.24000 135.315
57.28000 126.484
57.32000 132.660
57.36000 126.509
57.40000 125.928
57.44000 120.889
57.48000 129.755
57.52000 121.412
57.56000 121.993
57.60000 134.098
57.64000 137.144
57.68000 127.125
57.72000 124.941
57.76000 130.031
57.80000 131.549
57.84000 135.709
57.88000 123.711
57.92000 124.771
57.96000 126.426
58.00000 118.146
58.04000 124.228
58.08000 128.862
58.12000 127.478
58.16000 126.970
58.20000 127.297
58.24000 120.054
58.28000 123.268
58.32000 119.216
58.36000 117.008
58.40000 120.328
58.44000 116.093
58.48000 113.609
58.52000 123.572
58.56000 113.671
58.60000 123.008
58.64000 123.183
58.68000 125.040
58.72000 121.292
58.76000 112.977
58.80000 119.117
58.84000 120.382
58.88000 113.339
58.92000 118.549
58.96000 130.068
59.00000 126.655
59.04000 120.544
59.08000 123.822
59.12000 135.518
59.16000 125.082
59.20000 120.096
59.24000 120.436
59.28000 125.188
59.32000 123.146
59.36000 118.959
59.40000 128.080
59.44000 129.844
59.48000 123.132
59.52000 117.631
59.56000 121.462
59.60000 116.306
59.64000 119.504
59.68000 122.448
59.72000 116.610
59.76000 122.966
59.80000 121.684
59.84000 124.084
59.88000 117.424
59.92000 116.092
59.96000 119.885
60.00000 115.193
60.04000 114.645
60.08000 122.061
60.12000 126.120
60.16000 113.034
60.20000 118.779
60.24000 120.980
60.28000 125.733
60.32000 121.829
60.36000 122.487
60.40000 111.691
60.44000 121.791
60.48000 118.078
60.52000 116.753
60.56000 117.488
60.60000 122.509
60.64000 115.952
60.68000 118.769
60.72000 120.283
60.76000 116.241
60.80000 120.538
60.84000 114.832
60.88000 122.899
60.92000 118.760
60.96000 117.756
61.00000 126.483
61.04000 130.485
61.08000 128.570
61.12000 135.998
61.16000 134.969
61.20000 125.685
61.24000 136.828
61.28000 125.415
61.32000 123.250
61.36000 126.787
61.40000 143.222
61.44000 130.397
61.48000 135.562
61.52000 165.460
61.56000 206.974
61.60000 265.640
61.64000 281.272
61.68000 299.989
61.72000 288.086
61.76000 270.268
61.80000 196.371
61.84000 178.674
61.88000 149.172
61.92000 126.396
61.96000 125.892
62.00000 132.295
62.04000 139.512
62.08000 150.942
62.12000 130.233
62.16000 128.528
62.20000 127.239
62.24000 119.919
62.28000 122.062
62.32000 123.793
62.36000 138.410
62.40000 134.998
62.44000 134.803
62.48000 137.413
62.52000 135.815
62.56000 130.291
62.60000 117.633
62.64000 136.885
62.68000 135.841
62.72000 134.252
62.76000 143.375
62.80000 137.258
62.84000 136.973
62.88000 132.114
62.92000 124.703
62.96000 137.230
63.00000 144.831
63.04000 136.906
63.08000 137.598
63.12000 133.526
63.16000 132.090
63.20000 132.996
63.24000 130.704
63.28000 136.154
63.32000 132.451
63.36000 129.562
63.40000 134.870
63.44000 131.331
63.48000 133.913
63.52000 144.057
63.56000 147.678
63.60000 135.912
63.64000 141.900
63.68000 143.818
63.72000 132.504
63.76000 142.802
63.80000 144.193
63.84000 146.400
63.88000 145.324
63.92000 150.206
63.96000 145.460
64.00000 155.013
64.04000 147.371
64.08000 146.946
64.12000 142.632
64.16000 147.553
64.20000 152.874
64.24000 149.836
64.28000 144.216
64.32000 153.602
64.36000 153.044
64.40000 157.211
64.44000 159.389
64.48000 160.333
64.52000 153.954
64.56000 170.697
64.60000 169.760
64.64000 173.753
64.68000 167.569
64.72000 166.884
64.76000 166.477
64.80000 167.066
64.84000 178.319
64.88000 195.759
64.92000 194.151
64.96000 188.923
65.00000 197.328
65.04000 205.378
65.08000 219.723
65.12000 218.804
65.16000 206.341
65.20000 214.658
65.24000 224.054
65.28000 229.992
65.32000 247.347
65.36000 232.826
65.40000 260.365
65.44000 265.308
65.48000 284.730
65.52000 304.286
65.56000 325.781
65.60000 385.413
65.64000 427.201
65.68000 658.025
65.72000 1023.973
65.76000 1504.065
65.80000 1803.789
65.84000 1923.176
65.88000 1932.172
65.92000 1808.856
65.96000 1359.551
66.00000 885.479
66.04000 568.490
66.08000 420.865
66.12000 397.554
66.16000 364.083
66.20000 385.808
66.24000 389.277
66.28000 482.080
66.32000 553.962
66.36000 625.491
66.40000 617.948
66.44000 623.007
66.48000 552.756
66.52000 506.733
66.56000 431.864
66.60000 379.733
66.64000 381.334
66.68000 346.024
66.72000 353.208
66.76000 336.349
66.80000 358.617
66.84000 361.710
66.88000 364.362
66.92000 366.484
66.96000 366.654
67.00000 367.002
67.04000 367.484
67.08000 385.334
67.12000 397.199
67.16000 397.072
67.20000 393.767
67.24000 404.438
67.28000 406.193
67.32000 395.899
67.36000 419.380
67.40000 421.960
67.44000 413.439
67.48000 433.341
67.52000 458.773
67.56000 445.588
67.60000 445.555
67.64000 441.696
67.68000 466.360
67.72000 450.387
67.76000 474.058
67.80000 477.277
67.84000 471.519
67.88000 468.694
67.92000 473.426
67.96000 501.317
68.00000 519.902
68.04000 534.912
68.08000 524.107
68.12000 529.538
68.16000 547.331
68.20000 543.813
68.24000 587.203
68.28000 562.708
68.32000 602.781
68.36000 629.493
68.40000 635.490
68.44000 651.715
68.48000 690.811
68.52000 725.047
68.56000 788.652
68.60000 895.341
68.64000 1042.857
68.68000 1177.808
68.72000 1392.320
68.76000 1572.755
68.80000 1749.527
68.84000 1971.420
68.88000 2561.353
68.92000 4740.525
68.96000 12129.084
69.00000 25494.238
69.04000 36897.145
69.08000 42024.477
69.12000 44518.309
69.16000 47184.098
69.20000 44184.039
69.24000 33433.996
69.28000 25040.469
69.32000 21969.760
69.36000 20431.145
69.40000 15641.428
69.44000 8467.602
69.48000 3652.111
69.52000 1831.377
69.56000 1253.182
69.60000 1031.637
69.64000 892.141
69.68000 796.099
69.72000 726.401
69.76000 652.501
69.80000 628.151
69.84000 595.679
69.88000 570.895
69.92000 519.438
69.96000 518.017
70.00000 488.271