File: XRD/XRD/17-11-2025 Crystal Plates/XY Data/Deposition_9-3.xy
20.00000 698.569
20.04000 708.714
20.08000 714.592
20.12000 699.092
20.16000 714.052
20.20000 712.687
20.24000 674.400
20.28000 700.228
20.32000 713.839
20.36000 690.617
20.40000 701.524
20.44000 748.971
20.48000 758.560
20.52000 791.925
20.56000 769.364
20.60000 772.108
20.64000 765.897
20.68000 747.861
20.72000 708.150
20.76000 722.917
20.80000 694.039
20.84000 719.950
20.88000 720.466
20.92000 719.127
20.96000 736.754
21.00000 723.644
21.04000 704.110
21.08000 703.598
21.12000 747.167
21.16000 726.720
21.20000 713.875
21.24000 731.048
21.28000 745.023
21.32000 740.936
21.36000 744.737
21.40000 761.479
21.44000 758.207
21.48000 758.911
21.52000 787.546
21.56000 811.961
21.60000 814.388
21.64000 892.092
21.68000 1008.696
21.72000 1163.528
21.76000 1308.458
21.80000 1380.555
21.84000 1448.733
21.88000 1493.822
21.92000 1407.742
21.96000 1278.338
22.00000 1238.669
22.04000 1208.086
22.08000 1172.046
22.12000 1151.045
22.16000 1141.294
22.20000 1059.716
22.24000 1037.414
22.28000 1064.127
22.32000 1051.393
22.36000 1078.626
22.40000 1083.237
22.44000 1086.905
22.48000 1214.030
22.52000 1331.015
22.56000 1870.343
22.60000 4667.300
22.64000 13702.131
22.68000 27721.061
22.72000 38462.762
22.76000 43238.555
22.80000 42533.477
22.84000 37646.832
22.88000 27293.500
22.92000 15419.115
22.96000 6309.724
23.00000 2240.728
23.04000 1262.978
23.08000 1040.279
23.12000 968.013
23.16000 910.233
23.20000 866.963
23.24000 833.521
23.28000 808.758
23.32000 773.719
23.36000 765.173
23.40000 748.780
23.44000 718.870
23.48000 738.191
23.52000 687.664
23.56000 703.263
23.60000 708.481
23.64000 720.053
23.68000 722.500
23.72000 686.085
23.76000 697.679
23.80000 707.450
23.84000 720.539
23.88000 720.786
23.92000 735.016
23.96000 704.950
24.00000 715.235
24.04000 718.336
24.08000 694.223
24.12000 690.642
24.16000 704.344
24.20000 676.771
24.24000 657.607
24.28000 660.172
24.32000 642.169
24.36000 628.737
24.40000 629.349
24.44000 629.622
24.48000 638.712
24.52000 625.832
24.56000 618.665
24.60000 620.387
24.64000 637.726
24.68000 614.603
24.72000 619.610
24.76000 634.303
24.80000 601.727
24.84000 637.177
24.88000 626.346
24.92000 610.645
24.96000 628.489
25.00000 611.479
25.04000 622.414
25.08000 594.866
25.12000 597.488
25.16000 590.916
25.20000 597.068
25.24000 585.038
25.28000 594.796
25.32000 596.461
25.36000 596.839
25.40000 587.417
25.44000 573.386
25.48000 579.241
25.52000 593.466
25.56000 589.665
25.60000 560.396
25.64000 561.895
25.68000 548.828
25.72000 571.604
25.76000 592.271
25.80000 568.771
25.84000 572.702
25.88000 602.675
25.92000 572.396
25.96000 572.560
26.00000 586.867
26.04000 570.702
26.08000 572.804
26.12000 576.309
26.16000 570.722
26.20000 575.378
26.24000 574.156
26.28000 572.206
26.32000 561.526
26.36000 579.039
26.40000 545.850
26.44000 547.175
26.48000 557.293
26.52000 531.413
26.56000 557.069
26.60000 553.052
26.64000 540.412
26.68000 556.266
26.72000 541.483
26.76000 556.409
26.80000 572.040
26.84000 543.240
26.88000 551.617
26.92000 554.056
26.96000 576.321
27.00000 535.576
27.04000 575.688
27.08000 541.096
27.12000 530.238
27.16000 544.914
27.20000 553.236
27.24000 564.453
27.28000 550.863
27.32000 542.921
27.36000 553.221
27.40000 559.892
27.44000 560.212
27.48000 552.944
27.52000 556.862
27.56000 548.647
27.60000 565.690
27.64000 547.624
27.68000 546.510
27.72000 548.486
27.76000 559.520
27.80000 555.952
27.84000 547.402
27.88000 548.187
27.92000 550.206
27.96000 549.387
28.00000 518.443
28.04000 547.966
28.08000 542.484
28.12000 545.749
28.16000 546.230
28.20000 547.345
28.24000 522.913
28.28000 521.779
28.32000 541.837
28.36000 536.561
28.40000 542.389
28.44000 545.364
28.48000 557.217
28.52000 533.497
28.56000 547.151
28.60000 570.599
28.64000 542.897
28.68000 556.288
28.72000 569.396
28.76000 567.630
28.80000 560.151
28.84000 565.799
28.88000 538.798
28.92000 571.539
28.96000 531.933
29.00000 538.951
29.04000 535.620
29.08000 549.753
29.12000 529.489
29.16000 536.656
29.20000 511.551
29.24000 511.971
29.28000 518.813
29.32000 515.365
29.36000 515.280
29.40000 526.699
29.44000 516.248
29.48000 527.035
29.52000 519.420
29.56000 536.072
29.60000 526.742
29.64000 535.108
29.68000 523.000
29.72000 520.804
29.76000 514.123
29.80000 516.094
29.84000 513.443
29.88000 522.053
29.92000 519.018
29.96000 519.968
30.00000 510.706
30.04000 508.712
30.08000 502.704
30.12000 524.009
30.16000 509.406
30.20000 518.900
30.24000 524.081
30.28000 504.893
30.32000 510.254
30.36000 512.505
30.40000 501.713
30.44000 509.986
30.48000 518.052
30.52000 524.917
30.56000 512.019
30.60000 534.650
30.64000 545.027
30.68000 527.978
30.72000 535.700
30.76000 570.307
30.80000 585.247
30.84000 588.097
30.88000 600.403
30.92000 644.919
30.96000 660.626
31.00000 713.550
31.04000 788.649
31.08000 860.910
31.12000 930.446
31.16000 1029.586
31.20000 1106.486
31.24000 1191.972
31.28000 1263.496
31.32000 1316.581
31.36000 1293.546
31.40000 1255.113
31.44000 1153.292
31.48000 1064.812
31.52000 957.577
31.56000 882.906
31.60000 782.550
31.64000 720.493
31.68000 655.596
31.72000 635.296
31.76000 592.066
31.80000 564.941
31.84000 551.997
31.88000 520.915
31.92000 550.410
31.96000 525.045
32.00000 510.653
32.04000 498.268
32.08000 513.145
32.12000 505.201
32.16000 491.359
32.20000 471.821
32.24000 479.669
32.28000 476.418
32.32000 474.473
32.36000 472.731
32.40000 456.349
32.44000 432.064
32.48000 458.140
32.52000 448.580
32.56000 440.366
32.60000 443.492
32.64000 439.160
32.68000 441.417
32.72000 453.333
32.76000 449.858
32.80000 424.252
32.84000 410.661
32.88000 435.204
32.92000 446.241
32.96000 431.023
33.00000 437.877
33.04000 439.875
33.08000 422.328
33.12000 421.436
33.16000 429.173
33.20000 431.655
33.24000 411.588
33.28000 410.386
33.32000 428.086
33.36000 450.898
33.40000 424.214
33.44000 429.053
33.48000 432.399
33.52000 412.905
33.56000 407.390
33.60000 422.840
33.64000 439.117
33.68000 414.728
33.72000 429.449
33.76000 423.236
33.80000 421.187
33.84000 437.633
33.88000 431.468
33.92000 421.118
33.96000 437.434
34.00000 444.468
34.04000 426.737
34.08000 430.647
34.12000 440.468
34.16000 432.522
34.20000 436.558
34.24000 428.666
34.28000 412.463
34.32000 433.684
34.36000 419.483
34.40000 434.700
34.44000 398.133
34.48000 410.542
34.52000 415.622
34.56000 431.632
34.60000 423.251
34.64000 422.707
34.68000 393.166
34.72000 412.114
34.76000 395.943
34.80000 402.396
34.84000 401.721
34.88000 387.876
34.92000 410.823
34.96000 410.800
35.00000 384.990
35.04000 390.857
35.08000 391.589
35.12000 386.647
35.16000 380.790
35.20000 402.300
35.24000 375.510
35.28000 388.284
35.32000 394.320
35.36000 382.621
35.40000 388.427
35.44000 370.330
35.48000 402.236
35.52000 388.819
35.56000 377.735
35.60000 382.773
35.64000 386.078
35.68000 389.303
35.72000 381.379
35.76000 380.258
35.80000 378.937
35.84000 386.840
35.88000 375.577
35.92000 399.155
35.96000 376.401
36.00000 398.650
36.04000 398.011
36.08000 391.616
36.12000 390.251
36.16000 398.780
36.20000 390.922
36.24000 371.684
36.28000 388.108
36.32000 372.053
36.36000 382.833
36.40000 386.868
36.44000 383.382
36.48000 393.981
36.52000 387.245
36.56000 380.216
36.60000 363.895
36.64000 374.277
36.68000 364.413
36.72000 365.551
36.76000 371.690
36.80000 381.200
36.84000 380.534
36.88000 376.443
36.92000 363.306
36.96000 361.363
37.00000 357.055
37.04000 371.561
37.08000 368.379
37.12000 370.807
37.16000 369.461
37.20000 359.570
37.24000 366.937
37.28000 363.322
37.32000 363.443
37.36000 363.538
37.40000 363.888
37.44000 356.663
37.48000 376.375
37.52000 365.381
37.56000 358.450
37.60000 358.120
37.64000 352.974
37.68000 353.039
37.72000 353.976
37.76000 368.757
37.80000 394.364
37.84000 374.796
37.88000 373.477
37.92000 369.185
37.96000 367.501
38.00000 372.003
38.04000 353.463
38.08000 373.252
38.12000 380.771
38.16000 394.415
38.20000 392.896
38.24000 402.900
38.28000 401.138
38.32000 409.072
38.36000 434.332
38.40000 441.719
38.44000 462.767
38.48000 491.695
38.52000 508.298
38.56000 531.609
38.60000 584.670
38.64000 608.243
38.68000 603.832
38.72000 585.654
38.76000 567.266
38.80000 544.228
38.84000 499.512
38.88000 477.188
38.92000 445.292
38.96000 418.013
39.00000 399.674
39.04000 398.157
39.08000 379.445
39.12000 366.500
39.16000 392.540
39.20000 363.980
39.24000 385.374
39.28000 367.221
39.32000 345.910
39.36000 351.118
39.40000 347.119
39.44000 345.786
39.48000 352.384
39.52000 349.724
39.56000 361.663
39.60000 350.595
39.64000 356.025
39.68000 344.155
39.72000 344.201
39.76000 341.910
39.80000 340.790
39.84000 354.337
39.88000 332.255
39.92000 348.919
39.96000 357.110
40.00000 347.979
40.04000 353.131
40.08000 318.194
40.12000 343.712
40.16000 343.967
40.20000 323.149
40.24000 330.494
40.28000 344.714
40.32000 341.770
40.36000 338.082
40.40000 347.911
40.44000 330.255
40.48000 338.516
40.52000 345.404
40.56000 344.098
40.60000 334.486
40.64000 333.858
40.68000 342.941
40.72000 336.105
40.76000 338.278
40.80000 350.230
40.84000 339.308
40.88000 336.026
40.92000 345.651
40.96000 353.076
41.00000 353.090
41.04000 344.070
41.08000 344.503
41.12000 351.413
41.16000 335.353
41.20000 342.189
41.24000 345.774
41.28000 326.578
41.32000 369.766
41.36000 366.556
41.40000 362.073
41.44000 376.825
41.48000 380.414
41.52000 355.778
41.56000 365.212
41.60000 406.158
41.64000 495.252
41.68000 681.183
41.72000 818.720
41.76000 856.799
41.80000 880.074
41.84000 893.533
41.88000 771.770
41.92000 605.820
41.96000 454.693
42.00000 396.131
42.04000 390.288
42.08000 393.853
42.12000 394.760
42.16000 411.367
42.20000 385.936
42.24000 412.648
42.28000 407.385
42.32000 394.122
42.36000 393.950
42.40000 387.016
42.44000 389.464
42.48000 400.476
42.52000 397.315
42.56000 383.098
42.60000 394.359
42.64000 421.303
42.68000 427.599
42.72000 402.421
42.76000 395.678
42.80000 406.592
42.84000 425.624
42.88000 426.398
42.92000 414.566
42.96000 400.943
43.00000 428.398
43.04000 428.965
43.08000 422.677
43.12000 430.225
43.16000 434.164
43.20000 399.492
43.24000 413.711
43.28000 428.278
43.32000 436.260
43.36000 439.255
43.40000 451.537
43.44000 458.864
43.48000 436.659
43.52000 464.437
43.56000 468.845
43.60000 460.787
43.64000 456.862
43.68000 484.595
43.72000 482.973
43.76000 490.031
43.80000 514.878
43.84000 513.241
43.88000 520.461
43.92000 526.213
43.96000 558.287
44.00000 574.343
44.04000 579.237
44.08000 614.453
44.12000 606.591
44.16000 678.130
44.20000 756.229
44.24000 914.526
44.28000 1391.263
44.32000 2317.025
44.36000 3230.900
44.40000 3800.859
44.44000 4031.878
44.48000 4094.224
44.52000 3687.529
44.56000 2721.269
44.60000 1833.673
44.64000 1530.586
44.68000 1612.359
44.72000 1712.102
44.76000 1812.738
44.80000 1854.593
44.84000 1837.528
44.88000 1747.495
44.92000 1552.479
44.96000 1413.265
45.00000 1338.684
45.04000 1300.559
45.08000 1310.751
45.12000 1316.740
45.16000 1329.245
45.20000 1310.846
45.24000 1347.042
45.28000 1343.809
45.32000 1367.149
45.36000 1393.755
45.40000 1415.055
45.44000 1415.618
45.48000 1480.892
45.52000 1489.013
45.56000 1512.498
45.60000 1606.023
45.64000 1626.977
45.68000 1713.075
45.72000 1796.111
45.76000 1863.716
45.80000 1926.405
45.84000 2010.939
45.88000 2129.826
45.92000 2226.867
45.96000 2415.982
46.00000 2566.074
46.04000 2828.044
46.08000 3282.025
46.12000 4172.826
46.16000 5384.329
46.20000 6616.222
46.24000 9252.092
46.28000 16256.500
46.32000 53346.555
46.36000 137361.313
46.40000 222749.500
46.44000 269985.344
46.48000 305539.688
46.52000 330389.938
46.56000 303421.875
46.60000 226889.094
46.64000 153783.469
46.68000 104772.750
46.72000 61506.617
46.76000 26299.289
46.80000 9486.946
46.84000 5698.005
46.88000 4411.862
46.92000 3730.552
46.96000 3240.030
47.00000 2907.828
47.04000 2620.970
47.08000 2436.042
47.12000 2300.704
47.16000 2121.567
47.20000 1987.117
47.24000 1868.668
47.28000 1734.924
47.32000 1592.711
47.36000 1544.126
47.40000 1458.832
47.44000 1351.646
47.48000 1290.634
47.52000 1222.204
47.56000 1176.010
47.60000 1115.289
47.64000 1058.846
47.68000 997.647
47.72000 941.669
47.76000 886.808
47.80000 863.747
47.84000 839.304
47.88000 813.384
47.92000 778.670
47.96000 723.571
48.00000 700.735
48.04000 660.611
48.08000 614.909
48.12000 612.935
48.16000 585.954
48.20000 567.606
48.24000 573.497
48.28000 548.738
48.32000 517.451
48.36000 507.116
48.40000 498.668
48.44000 489.101
48.48000 475.508
48.52000 472.477
48.56000 448.594
48.60000 435.936
48.64000 430.408
48.68000 428.803
48.72000 428.040
48.76000 434.007
48.80000 404.395
48.84000 399.186
48.88000 374.938
48.92000 388.367
48.96000 379.721
49.00000 378.300
49.04000 362.559
49.08000 364.424
49.12000 354.642
49.16000 351.096
49.20000 362.909
49.24000 354.012
49.28000 345.866
49.32000 336.237
49.36000 322.294
49.40000 345.886
49.44000 339.345
49.48000 326.788
49.52000 330.796
49.56000 329.443
49.60000 330.902
49.64000 315.656
49.68000 312.342
49.72000 322.993
49.76000 312.266
49.80000 316.650
49.84000 309.903
49.88000 303.442
49.92000 290.168
49.96000 292.741
50.00000 300.208
50.04000 307.583
50.08000 303.628
50.12000 299.684
50.16000 306.152
50.20000 301.445
50.24000 291.964
50.28000 309.651
50.32000 300.426
50.36000 302.248
50.40000 297.441
50.44000 314.961
50.48000 311.049
50.52000 313.639
50.56000 319.953
50.60000 308.961
50.64000 311.818
50.68000 301.184
50.72000 306.152
50.76000 295.997
50.80000 314.305
50.84000 308.006
50.88000 318.928
50.92000 313.878
50.96000 318.651
51.00000 286.067
51.04000 276.594
51.08000 283.186
51.12000 279.945
51.16000 261.865
51.20000 257.746
51.24000 263.356
51.28000 264.432
51.32000 268.391
51.36000 256.100
51.40000 245.238
51.44000 241.250
51.48000 250.021
51.52000 248.254
51.56000 261.874
51.60000 251.978
51.64000 245.367
51.68000 234.501
51.72000 236.134
51.76000 235.465
51.80000 240.980
51.84000 240.115
51.88000 226.225
51.92000 244.617
51.96000 217.199
52.00000 246.849
52.04000 238.234
52.08000 250.857
52.12000 224.382
52.16000 237.444
52.20000 229.861
52.24000 234.296
52.28000 223.850
52.32000 225.739
52.36000 220.242
52.40000 221.974
52.44000 210.118
52.48000 227.732
52.52000 224.284
52.56000 225.416
52.60000 223.221
52.64000 203.465
52.68000 217.725
52.72000 201.838
52.76000 221.060
52.80000 216.024
52.84000 213.501
52.88000 207.388
52.92000 201.874
52.96000 221.810
53.00000 214.109
53.04000 200.001
53.08000 211.499
53.12000 222.898
53.16000 215.155
53.20000 212.255
53.24000 221.934
53.28000 205.981
53.32000 224.675
53.36000 220.844
53.40000 222.272
53.44000 229.809
53.48000 220.952
53.52000 203.165
53.56000 200.048
53.60000 204.747
53.64000 204.709
53.68000 211.787
53.72000 209.717
53.76000 204.660
53.80000 212.653
53.84000 207.758
53.88000 206.469
53.92000 207.555
53.96000 212.060
54.00000 198.358
54.04000 208.681
54.08000 212.201
54.12000 205.405
54.16000 205.456
54.20000 195.028
54.24000 211.355
54.28000 205.912
54.32000 198.921
54.36000 201.487
54.40000 205.023
54.44000 204.689
54.48000 201.175
54.52000 202.931
54.56000 207.057
54.60000 215.359
54.64000 206.614
54.68000 201.548
54.72000 201.352
54.76000 207.389
54.80000 212.782
54.84000 200.086
54.88000 214.328
54.92000 212.497
54.96000 203.331
55.00000 213.754
55.04000 210.057
55.08000 211.354
55.12000 220.142
55.16000 212.824
55.20000 231.107
55.24000 216.464
55.28000 238.132
55.32000 218.510
55.36000 229.397
55.40000 249.668
55.44000 242.790
55.48000 254.184
55.52000 251.984
55.56000 277.131
55.60000 290.765
55.64000 308.445
55.68000 317.196
55.72000 302.868
55.76000 334.201
55.80000 342.097
55.84000 340.782
55.88000 357.470
55.92000 339.035
55.96000 331.125
56.00000 336.151
56.04000 305.046
56.08000 284.321
56.12000 283.752
56.16000 272.168
56.20000 263.957
56.24000 250.497
56.28000 242.438
56.32000 248.714
56.36000 222.393
56.40000 223.377
56.44000 208.325
56.48000 206.596
56.52000 208.327
56.56000 200.235
56.60000 183.871
56.64000 198.942
56.68000 185.774
56.72000 192.110
56.76000 180.213
56.80000 192.938
56.84000 205.111
56.88000 179.316
56.92000 180.024
56.96000 194.003
57.00000 188.231
57.04000 187.888
57.08000 172.752
57.12000 178.824
57.16000 167.791
57.20000 180.402
57.24000 183.930
57.28000 159.529
57.32000 178.298
57.36000 178.159
57.40000 184.160
57.44000 183.839
57.48000 173.712
57.52000 172.285
57.56000 178.355
57.60000 176.194
57.64000 172.599
57.68000 172.505
57.72000 175.666
57.76000 171.318
57.80000 161.464
57.84000 173.656
57.88000 176.808
57.92000 175.046
57.96000 164.669
58.00000 182.507
58.04000 162.146
58.08000 165.063
58.12000 165.533
58.16000 171.672
58.20000 167.081
58.24000 162.703
58.28000 174.330
58.32000 172.800
58.36000 174.090
58.40000 166.616
58.44000 164.003
58.48000 161.627
58.52000 164.610
58.56000 167.975
58.60000 157.427
58.64000 169.555
58.68000 171.124
58.72000 160.457
58.76000 165.189
58.80000 162.518
58.84000 168.840
58.88000 168.394
58.92000 165.742
58.96000 160.641
59.00000 151.564
59.04000 155.329
59.08000 156.368
59.12000 161.963
59.16000 158.278
59.20000 151.001
59.24000 154.042
59.28000 158.385
59.32000 162.373
59.36000 159.129
59.40000 168.768
59.44000 158.688
59.48000 159.384
59.52000 174.799
59.56000 163.143
59.60000 151.021
59.64000 150.667
59.68000 163.337
59.72000 166.155
59.76000 157.926
59.80000 151.030
59.84000 169.760
59.88000 160.660
59.92000 152.561
59.96000 144.350
60.00000 150.169
60.04000 155.744
60.08000 158.645
60.12000 162.763
60.16000 160.594
60.20000 153.636
60.24000 155.909
60.28000 151.108
60.32000 155.530
60.36000 161.295
60.40000 148.965
60.44000 153.285
60.48000 145.313
60.52000 161.220
60.56000 167.509
60.60000 149.824
60.64000 134.976
60.68000 147.233
60.72000 149.486
60.76000 156.085
60.80000 158.983
60.84000 144.718
60.88000 154.896
60.92000 164.412
60.96000 156.190
61.00000 155.310
61.04000 157.612
61.08000 142.476
61.12000 152.172
61.16000 149.822
61.20000 145.635
61.24000 147.797
61.28000 147.706
61.32000 149.876
61.36000 158.774
61.40000 162.203
61.44000 153.151
61.48000 149.088
61.52000 148.019
61.56000 157.171
61.60000 152.837
61.64000 156.373
61.68000 150.820
61.72000 143.875
61.76000 149.014
61.80000 150.255
61.84000 150.421
61.88000 144.691
61.92000 158.035
61.96000 145.825
62.00000 149.373
62.04000 142.791
62.08000 155.354
62.12000 151.969
62.16000 140.554
62.20000 137.417
62.24000 146.881
62.28000 142.697
62.32000 143.346
62.36000 151.946
62.40000 145.221
62.44000 151.040
62.48000 141.814
62.52000 138.634
62.56000 141.509
62.60000 143.390
62.64000 160.337
62.68000 149.479
62.72000 144.752
62.76000 153.609
62.80000 149.515
62.84000 137.644
62.88000 131.661
62.92000 142.889
62.96000 147.467
63.00000 149.746
63.04000 137.015
63.08000 140.914
63.12000 140.268
63.16000 143.707
63.20000 150.330
63.24000 153.751
63.28000 147.631
63.32000 146.945
63.36000 135.409
63.40000 148.080
63.44000 146.775
63.48000 142.960
63.52000 142.516
63.56000 149.131
63.60000 150.147
63.64000 143.482
63.68000 136.039
63.72000 146.708
63.76000 145.078
63.80000 144.903
63.84000 152.829
63.88000 154.428
63.92000 151.814
63.96000 135.779
64.00000 144.241
64.04000 144.516
64.08000 139.498
64.12000 141.263
64.16000 137.780
64.20000 149.543
64.24000 145.217
64.28000 133.810
64.32000 145.002
64.36000 141.661
64.40000 148.964
64.44000 155.542
64.48000 152.150
64.52000 155.364
64.56000 152.856
64.60000 164.376
64.64000 167.484
64.68000 168.996
64.72000 168.086
64.76000 154.880
64.80000 155.665
64.84000 147.443
64.88000 158.596
64.92000 155.941
64.96000 154.747
65.00000 157.194
65.04000 165.350
65.08000 162.983
65.12000 167.897
65.16000 171.288
65.20000 166.785
65.24000 163.777
65.28000 172.318
65.32000 181.612
65.36000 178.152
65.40000 183.545
65.44000 170.958
65.48000 175.010
65.52000 174.086
65.56000 186.144
65.60000 177.295
65.64000 171.246
65.68000 177.328
65.72000 169.717
65.76000 180.075
65.80000 165.985
65.84000 157.703
65.88000 150.562
65.92000 155.576
65.96000 146.408
66.00000 144.908
66.04000 139.547
66.08000 150.776
66.12000 156.042
66.16000 148.552
66.20000 144.466
66.24000 140.582
66.28000 140.199
66.32000 136.918
66.36000 148.876
66.40000 135.057
66.44000 143.385
66.48000 141.901
66.52000 134.975
66.56000 139.534
66.60000 145.214
66.64000 142.529
66.68000 129.959
66.72000 135.039
66.76000 139.458
66.80000 133.676
66.84000 141.477
66.88000 126.649
66.92000 142.427
66.96000 129.035
67.00000 142.026
67.04000 139.880
67.08000 139.385
67.12000 135.618
67.16000 140.367
67.20000 137.429
67.24000 130.218
67.28000 136.145
67.32000 135.603
67.36000 126.871
67.40000 124.024
67.44000 135.440
67.48000 138.494
67.52000 130.116
67.56000 133.679
67.60000 120.150
67.64000 136.381
67.68000 129.874
67.72000 127.467
67.76000 128.400
67.80000 138.345
67.84000 136.581
67.88000 133.277
67.92000 132.111
67.96000 133.570
68.00000 121.866
68.04000 134.267
68.08000 134.022
68.12000 125.351
68.16000 136.989
68.20000 139.393
68.24000 143.334
68.28000 137.173
68.32000 133.139
68.36000 140.115
68.40000 134.314
68.44000 133.178
68.48000 137.755
68.52000 132.300
68.56000 139.909
68.60000 140.597
68.64000 148.950
68.68000 136.978
68.72000 152.445
68.76000 131.421
68.80000 144.124
68.84000 150.580
68.88000 146.933
68.92000 158.068
68.96000 191.199
69.00000 211.966
69.04000 245.110
69.08000 243.762
69.12000 254.178
69.16000 236.631
69.20000 212.177
69.24000 181.818
69.28000 175.339
69.32000 160.669
69.36000 146.543
69.40000 157.593
69.44000 149.045
69.48000 162.193
69.52000 161.428
69.56000 167.004
69.60000 168.275
69.64000 177.834
69.68000 176.310
69.72000 189.414
69.76000 184.977
69.80000 185.357
69.84000 178.335
69.88000 167.007
69.92000 171.618
69.96000 167.070
70.00000 173.916