File: XRD/XRD/17-11-2025 Crystal Plates/XY Data/Deposition_11-2.xy
20.00000 703.611
20.04000 689.035
20.08000 716.437
20.12000 711.980
20.16000 727.228
20.20000 725.015
20.24000 721.906
20.28000 719.084
20.32000 743.539
20.36000 733.388
20.40000 734.937
20.44000 768.253
20.48000 811.951
20.52000 799.857
20.56000 821.411
20.60000 815.296
20.64000 852.307
20.68000 829.337
20.72000 873.516
20.76000 941.461
20.80000 1060.303
20.84000 1177.864
20.88000 1254.473
20.92000 1265.684
20.96000 1258.332
21.00000 1192.273
21.04000 1069.302
21.08000 1035.085
21.12000 1075.049
21.16000 1079.201
21.20000 1093.524
21.24000 1116.409
21.28000 1216.464
21.32000 1327.632
21.36000 1456.736
21.40000 1636.755
21.44000 1914.149
21.48000 2360.819
21.52000 3051.065
21.56000 4273.876
21.60000 6537.089
21.64000 11017.917
21.68000 20559.590
21.72000 33407.434
21.76000 43694.430
21.80000 46796.941
21.84000 44976.121
21.88000 40185.223
21.92000 28325.979
21.96000 16180.021
22.00000 7718.172
22.04000 3848.725
22.08000 2541.272
22.12000 2003.474
22.16000 1689.049
22.20000 1551.506
22.24000 1469.546
22.28000 1374.725
22.32000 1314.481
22.36000 1251.875
22.40000 1242.646
22.44000 1272.481
22.48000 1352.929
22.52000 1540.880
22.56000 2531.736
22.60000 7076.457
22.64000 19501.447
22.68000 33825.965
22.72000 43927.145
22.76000 46375.828
22.80000 44298.512
22.84000 37837.707
22.88000 25692.066
22.92000 13098.683
22.96000 4966.454
23.00000 1849.941
23.04000 1205.116
23.08000 1098.586
23.12000 1022.071
23.16000 940.283
23.20000 920.019
23.24000 871.048
23.28000 858.097
23.32000 802.504
23.36000 774.188
23.40000 748.668
23.44000 736.062
23.48000 760.499
23.52000 714.580
23.56000 699.327
23.60000 683.222
23.64000 690.002
23.68000 696.731
23.72000 687.381
23.76000 668.463
23.80000 672.169
23.84000 660.808
23.88000 633.223
23.92000 621.533
23.96000 656.162
24.00000 645.269
24.04000 624.330
24.08000 624.938
24.12000 632.100
24.16000 626.294
24.20000 613.327
24.24000 642.623
24.28000 613.336
24.32000 618.634
24.36000 650.545
24.40000 624.325
24.44000 629.387
24.48000 613.049
24.52000 642.183
24.56000 615.522
24.60000 618.102
24.64000 605.387
24.68000 612.370
24.72000 620.888
24.76000 593.214
24.80000 609.418
24.84000 613.755
24.88000 617.021
24.92000 592.131
24.96000 600.819
25.00000 601.244
25.04000 597.775
25.08000 571.399
25.12000 581.864
25.16000 585.798
25.20000 567.878
25.24000 576.115
25.28000 568.988
25.32000 558.318
25.36000 580.591
25.40000 577.298
25.44000 569.974
25.48000 577.824
25.52000 599.649
25.56000 591.481
25.60000 563.687
25.64000 573.592
25.68000 587.297
25.72000 557.915
25.76000 556.837
25.80000 568.700
25.84000 569.724
25.88000 567.425
25.92000 558.745
25.96000 566.260
26.00000 544.704
26.04000 546.421
26.08000 540.002
26.12000 578.529
26.16000 559.951
26.20000 559.278
26.24000 543.613
26.28000 559.642
26.32000 550.786
26.36000 558.143
26.40000 565.376
26.44000 562.738
26.48000 540.836
26.52000 561.764
26.56000 528.526
26.60000 557.802
26.64000 546.312
26.68000 560.535
26.72000 568.750
26.76000 552.700
26.80000 556.118
26.84000 529.907
26.88000 539.397
26.92000 542.338
26.96000 529.920
27.00000 519.238
27.04000 520.783
27.08000 539.489
27.12000 526.959
27.16000 514.949
27.20000 533.639
27.24000 538.277
27.28000 519.959
27.32000 516.463
27.36000 532.109
27.40000 504.013
27.44000 516.285
27.48000 518.380
27.52000 536.804
27.56000 526.217
27.60000 528.203
27.64000 512.772
27.68000 528.136
27.72000 516.157
27.76000 516.199
27.80000 513.193
27.84000 518.370
27.88000 537.429
27.92000 525.377
27.96000 498.847
28.00000 494.960
28.04000 538.994
28.08000 537.657
28.12000 507.391
28.16000 502.287
28.20000 508.709
28.24000 509.833
28.28000 509.811
28.32000 509.478
28.36000 500.599
28.40000 484.158
28.44000 504.438
28.48000 487.283
28.52000 508.107
28.56000 488.343
28.60000 486.163
28.64000 498.133
28.68000 501.331
28.72000 463.349
28.76000 495.100
28.80000 490.585
28.84000 497.001
28.88000 492.168
28.92000 494.513
28.96000 499.300
29.00000 490.977
29.04000 476.705
29.08000 474.988
29.12000 499.760
29.16000 480.585
29.20000 480.666
29.24000 481.630
29.28000 471.717
29.32000 462.796
29.36000 482.400
29.40000 489.103
29.44000 472.698
29.48000 460.605
29.52000 473.163
29.56000 467.261
29.60000 457.244
29.64000 466.540
29.68000 469.341
29.72000 484.292
29.76000 468.282
29.80000 473.632
29.84000 459.679
29.88000 478.382
29.92000 475.119
29.96000 485.222
30.00000 470.295
30.04000 460.558
30.08000 463.319
30.12000 444.945
30.16000 454.009
30.20000 452.391
30.24000 467.001
30.28000 449.211
30.32000 446.251
30.36000 470.570
30.40000 454.895
30.44000 447.699
30.48000 468.227
30.52000 473.194
30.56000 467.819
30.60000 465.344
30.64000 453.687
30.68000 449.265
30.72000 452.250
30.76000 432.824
30.80000 447.572
30.84000 446.488
30.88000 485.737
30.92000 462.260
30.96000 468.491
31.00000 451.989
31.04000 451.200
31.08000 445.287
31.12000 447.169
31.16000 458.804
31.20000 445.044
31.24000 446.857
31.28000 458.127
31.32000 439.331
31.36000 436.844
31.40000 432.680
31.44000 451.128
31.48000 464.432
31.52000 435.514
31.56000 434.996
31.60000 438.057
31.64000 432.077
31.68000 437.265
31.72000 451.006
31.76000 431.065
31.80000 430.963
31.84000 434.594
31.88000 419.922
31.92000 422.599
31.96000 422.716
32.00000 438.110
32.04000 427.642
32.08000 427.999
32.12000 411.327
32.16000 427.850
32.20000 425.732
32.24000 439.553
32.28000 422.102
32.32000 450.449
32.36000 431.953
32.40000 441.010
32.44000 421.155
32.48000 417.995
32.52000 433.715
32.56000 414.890
32.60000 422.533
32.64000 437.824
32.68000 430.557
32.72000 410.113
32.76000 410.216
32.80000 423.876
32.84000 423.512
32.88000 421.732
32.92000 397.062
32.96000 413.566
33.00000 421.634
33.04000 413.573
33.08000 402.781
33.12000 405.921
33.16000 400.790
33.20000 422.340
33.24000 424.738
33.28000 405.679
33.32000 422.843
33.36000 411.832
33.40000 415.186
33.44000 404.810
33.48000 393.906
33.52000 399.879
33.56000 404.050
33.60000 396.789
33.64000 395.915
33.68000 390.074
33.72000 402.455
33.76000 410.840
33.80000 404.911
33.84000 400.190
33.88000 393.078
33.92000 393.012
33.96000 394.832
34.00000 398.931
34.04000 392.522
34.08000 383.354
34.12000 395.924
34.16000 393.754
34.20000 401.976
34.24000 382.580
34.28000 376.733
34.32000 390.818
34.36000 377.040
34.40000 391.673
34.44000 385.754
34.48000 388.821
34.52000 394.643
34.56000 389.958
34.60000 379.316
34.64000 389.341
34.68000 384.869
34.72000 392.180
34.76000 395.420
34.80000 383.105
34.84000 389.469
34.88000 369.156
34.92000 372.160
34.96000 386.262
35.00000 355.025
35.04000 388.751
35.08000 370.117
35.12000 381.235
35.16000 375.252
35.20000 362.933
35.24000 380.342
35.28000 376.616
35.32000 382.203
35.36000 379.461
35.40000 378.200
35.44000 380.478
35.48000 377.388
35.52000 372.633
35.56000 365.459
35.60000 367.338
35.64000 369.371
35.68000 356.981
35.72000 381.900
35.76000 367.045
35.80000 368.768
35.84000 365.871
35.88000 365.541
35.92000 356.990
35.96000 373.398
36.00000 391.025
36.04000 365.162
36.08000 360.634
36.12000 347.602
36.16000 371.326
36.20000 368.083
36.24000 367.973
36.28000 374.133
36.32000 366.640
36.36000 367.795
36.40000 354.961
36.44000 368.322
36.48000 360.772
36.52000 357.920
36.56000 355.386
36.60000 345.630
36.64000 352.216
36.68000 349.646
36.72000 358.313
36.76000 357.911
36.80000 356.483
36.84000 350.974
36.88000 334.177
36.92000 360.941
36.96000 359.111
37.00000 352.961
37.04000 348.525
37.08000 351.815
37.12000 363.031
37.16000 355.347
37.20000 349.680
37.24000 352.537
37.28000 341.921
37.32000 348.160
37.36000 342.248
37.40000 376.045
37.44000 346.430
37.48000 329.835
37.52000 349.632
37.56000 346.082
37.60000 348.417
37.64000 351.298
37.68000 361.148
37.72000 350.760
37.76000 333.653
37.80000 342.333
37.84000 353.331
37.88000 354.231
37.92000 355.323
37.96000 359.068
38.00000 354.899
38.04000 356.107
38.08000 343.053
38.12000 350.092
38.16000 336.793
38.20000 335.478
38.24000 358.439
38.28000 364.420
38.32000 363.600
38.36000 362.917
38.40000 346.497
38.44000 331.621
38.48000 333.620
38.52000 342.075
38.56000 341.709
38.60000 336.866
38.64000 335.124
38.68000 342.285
38.72000 335.049
38.76000 350.016
38.80000 356.744
38.84000 318.371
38.88000 349.062
38.92000 350.846
38.96000 335.066
39.00000 336.613
39.04000 338.157
39.08000 345.510
39.12000 345.319
39.16000 352.037
39.20000 343.127
39.24000 315.138
39.28000 339.951
39.32000 343.644
39.36000 348.961
39.40000 354.056
39.44000 347.830
39.48000 335.538
39.52000 356.067
39.56000 326.321
39.60000 360.243
39.64000 340.733
39.68000 357.938
39.72000 371.777
39.76000 378.280
39.80000 382.618
39.84000 408.393
39.88000 432.034
39.92000 443.440
39.96000 435.130
40.00000 455.089
40.04000 447.770
40.08000 429.982
40.12000 382.720
40.16000 381.460
40.20000 363.313
40.24000 365.907
40.28000 354.073
40.32000 354.849
40.36000 368.468
40.40000 330.095
40.44000 365.463
40.48000 353.754
40.52000 350.830
40.56000 354.743
40.60000 357.228
40.64000 343.046
40.68000 360.224
40.72000 371.187
40.76000 348.639
40.80000 377.810
40.84000 369.677
40.88000 354.556
40.92000 370.401
40.96000 358.424
41.00000 376.820
41.04000 363.133
41.08000 366.674
41.12000 379.030
41.16000 374.083
41.20000 382.948
41.24000 393.951
41.28000 383.662
41.32000 387.779
41.36000 390.372
41.40000 388.886
41.44000 425.222
41.48000 426.780
41.52000 424.024
41.56000 433.588
41.60000 467.112
41.64000 622.318
41.68000 793.480
41.72000 919.280
41.76000 951.216
41.80000 983.624
41.84000 973.082
41.88000 807.691
41.92000 655.186
41.96000 534.805
42.00000 493.549
42.04000 504.928
42.08000 512.709
42.12000 518.154
42.16000 535.560
42.20000 571.986
42.24000 614.805
42.28000 667.900
42.32000 734.531
42.36000 843.215
42.40000 958.523
42.44000 1112.666
42.48000 1198.179
42.52000 1217.257
42.56000 1209.043
42.60000 1115.416
42.64000 993.257
42.68000 855.726
42.72000 823.475
42.76000 786.066
42.80000 794.605
42.84000 815.237
42.88000 831.504
42.92000 808.606
42.96000 789.303
43.00000 800.667
43.04000 779.952
43.08000 781.747
43.12000 785.514
43.16000 847.688
43.20000 884.848
43.24000 915.890
43.28000 932.654
43.32000 961.387
43.36000 1001.466
43.40000 1045.402
43.44000 1119.116
43.48000 1203.707
43.52000 1255.662
43.56000 1320.107
43.60000 1447.845
43.64000 1566.782
43.68000 1649.208
43.72000 1834.194
43.76000 2076.055
43.80000 2241.578
43.84000 2542.920
43.88000 2926.152
43.92000 3352.048
43.96000 3982.605
44.00000 4709.043
44.04000 5730.070
44.08000 7048.390
44.12000 8737.355
44.16000 11236.945
44.20000 14428.734
44.24000 18784.969
44.28000 25917.990
44.32000 37101.305
44.36000 50893.785
44.40000 62721.922
44.44000 69338.875
44.48000 72012.336
44.52000 69449.578
44.56000 58568.961
44.60000 44123.438
44.64000 32310.697
44.68000 22034.049
44.72000 13958.237
44.76000 8733.613
44.80000 6120.766
44.84000 4691.714
44.88000 3761.698
44.92000 3090.045
44.96000 2639.855
45.00000 2381.044
45.04000 2243.653
45.08000 2120.632
45.12000 2051.325
45.16000 1967.036
45.20000 1966.329
45.24000 1929.013
45.28000 1872.505
45.32000 1900.609
45.36000 1900.891
45.40000 1923.553
45.44000 1922.265
45.48000 1930.837
45.52000 1962.938
45.56000 1998.394
45.60000 1992.087
45.64000 2042.506
45.68000 2091.549
45.72000 2179.792
45.76000 2231.120
45.80000 2282.510
45.84000 2372.216
45.88000 2507.493
45.92000 2601.233
45.96000 2798.004
46.00000 2975.317
46.04000 3288.806
46.08000 3870.853
46.12000 4751.585
46.16000 6240.163
46.20000 7625.311
46.24000 11101.071
46.28000 22686.605
46.32000 75008.883
46.36000 172112.922
46.40000 244848.016
46.44000 290019.250
46.48000 329258.188
46.52000 341193.250
46.56000 304414.594
46.60000 213462.000
46.64000 143713.078
46.68000 101241.328
46.72000 53846.883
46.76000 20668.506
46.80000 8419.538
46.84000 5717.682
46.88000 4557.752
46.92000 3840.697
46.96000 3426.258
47.00000 3107.991
47.04000 2836.778
47.08000 2634.476
47.12000 2435.220
47.16000 2261.449
47.20000 2161.282
47.24000 1992.492
47.28000 1878.766
47.32000 1755.806
47.36000 1663.392
47.40000 1575.438
47.44000 1507.282
47.48000 1417.092
47.52000 1343.097
47.56000 1267.220
47.60000 1205.562
47.64000 1133.828
47.68000 1107.582
47.72000 1036.748
47.76000 1006.092
47.80000 941.997
47.84000 907.520
47.88000 853.983
47.92000 811.140
47.96000 770.124
48.00000 727.335
48.04000 704.814
48.08000 708.738
48.12000 704.085
48.16000 650.683
48.20000 628.794
48.24000 614.830
48.28000 586.618
48.32000 585.045
48.36000 564.944
48.40000 548.669
48.44000 544.412
48.48000 517.911
48.52000 509.644
48.56000 487.361
48.60000 493.820
48.64000 474.979
48.68000 465.285
48.72000 461.409
48.76000 453.394
48.80000 435.546
48.84000 446.288
48.88000 427.550
48.92000 421.316
48.96000 408.956
49.00000 405.854
49.04000 393.359
49.08000 400.951
49.12000 384.373
49.16000 390.030
49.20000 367.317
49.24000 367.404
49.28000 365.984
49.32000 351.466
49.36000 361.017
49.40000 351.709
49.44000 346.868
49.48000 361.441
49.52000 346.124
49.56000 331.687
49.60000 329.794
49.64000 328.027
49.68000 338.458
49.72000 328.424
49.76000 317.970
49.80000 310.742
49.84000 332.527
49.88000 310.843
49.92000 327.900
49.96000 299.910
50.00000 307.909
50.04000 297.640
50.08000 296.017
50.12000 294.904
50.16000 299.336
50.20000 301.553
50.24000 287.315
50.28000 287.068
50.32000 284.030
50.36000 289.087
50.40000 285.959
50.44000 293.709
50.48000 281.532
50.52000 279.785
50.56000 284.464
50.60000 270.797
50.64000 257.804
50.68000 271.141
50.72000 271.012
50.76000 299.516
50.80000 275.552
50.84000 293.430
50.88000 289.701
50.92000 281.577
50.96000 293.985
51.00000 273.210
51.04000 273.524
51.08000 262.479
51.12000 258.987
51.16000 251.335
51.20000 249.260
51.24000 252.455
51.28000 259.402
51.32000 249.316
51.36000 247.148
51.40000 233.353
51.44000 240.908
51.48000 254.746
51.52000 246.301
51.56000 241.912
51.60000 242.887
51.64000 242.331
51.68000 218.246
51.72000 231.260
51.76000 247.097
51.80000 234.344
51.84000 224.800
51.88000 228.609
51.92000 232.511
51.96000 225.339
52.00000 225.369
52.04000 216.151
52.08000 214.707
52.12000 219.067
52.16000 227.867
52.20000 216.448
52.24000 216.745
52.28000 218.703
52.32000 204.855
52.36000 217.491
52.40000 218.681
52.44000 221.372
52.48000 213.380
52.52000 208.169
52.56000 211.980
52.60000 213.348
52.64000 218.060
52.68000 217.802
52.72000 208.418
52.76000 197.512
52.80000 216.038
52.84000 209.853
52.88000 219.303
52.92000 214.669
52.96000 209.875
53.00000 210.854
53.04000 201.803
53.08000 207.825
53.12000 203.946
53.16000 204.912
53.20000 199.832
53.24000 204.631
53.28000 203.403
53.32000 200.391
53.36000 206.009
53.40000 209.184
53.44000 197.687
53.48000 197.554
53.52000 205.209
53.56000 213.216
53.60000 205.971
53.64000 198.694
53.68000 200.145
53.72000 205.525
53.76000 189.112
53.80000 205.066
53.84000 204.376
53.88000 188.499
53.92000 198.892
53.96000 207.752
54.00000 206.405
54.04000 190.052
54.08000 201.951
54.12000 196.195
54.16000 193.520
54.20000 192.155
54.24000 183.101
54.28000 184.756
54.32000 188.855
54.36000 184.110
54.40000 187.764
54.44000 194.161
54.48000 185.758
54.52000 191.188
54.56000 183.290
54.60000 185.742
54.64000 194.853
54.68000 180.135
54.72000 184.655
54.76000 185.243
54.80000 187.805
54.84000 177.615
54.88000 192.288
54.92000 185.848
54.96000 184.604
55.00000 171.986
55.04000 174.971
55.08000 192.501
55.12000 191.613
55.16000 185.218
55.20000 181.400
55.24000 175.041
55.28000 183.208
55.32000 188.209
55.36000 184.793
55.40000 187.042
55.44000 183.711
55.48000 181.986
55.52000 177.699
55.56000 189.746
55.60000 179.177
55.64000 183.331
55.68000 181.612
55.72000 171.024
55.76000 172.150
55.80000 174.648
55.84000 174.012
55.88000 173.917
55.92000 172.742
55.96000 169.137
56.00000 176.712
56.04000 180.863
56.08000 173.069
56.12000 176.908
56.16000 173.648
56.20000 178.191
56.24000 180.440
56.28000 169.846
56.32000 161.312
56.36000 175.600
56.40000 180.915
56.44000 169.475
56.48000 170.486
56.52000 170.707
56.56000 177.179
56.60000 174.605
56.64000 184.302
56.68000 164.203
56.72000 171.274
56.76000 180.576
56.80000 167.713
56.84000 172.895
56.88000 176.144
56.92000 171.503
56.96000 169.138
57.00000 166.070
57.04000 166.054
57.08000 161.503
57.12000 168.547
57.16000 170.830
57.20000 174.268
57.24000 169.511
57.28000 169.543
57.32000 161.342
57.36000 166.025
57.40000 161.488
57.44000 159.868
57.48000 154.042
57.52000 161.689
57.56000 152.104
57.60000 170.872
57.64000 160.062
57.68000 169.004
57.72000 175.782
57.76000 163.550
57.80000 150.130
57.84000 156.280
57.88000 162.863
57.92000 160.511
57.96000 163.879
58.00000 168.038
58.04000 159.781
58.08000 158.230
58.12000 156.700
58.16000 169.573
58.20000 161.991
58.24000 155.051
58.28000 163.318
58.32000 162.915
58.36000 164.734
58.40000 160.449
58.44000 167.108
58.48000 161.050
58.52000 156.304
58.56000 165.510
58.60000 156.221
58.64000 157.915
58.68000 148.056
58.72000 151.390
58.76000 157.762
58.80000 157.533
58.84000 163.718
58.88000 152.365
58.92000 161.681
58.96000 151.406
59.00000 149.838
59.04000 149.356
59.08000 154.503
59.12000 160.506
59.16000 160.861
59.20000 152.233
59.24000 166.110
59.28000 165.725
59.32000 151.088
59.36000 154.332
59.40000 150.917
59.44000 147.473
59.48000 167.804
59.52000 157.065
59.56000 143.292
59.60000 154.687
59.64000 138.406
59.68000 154.033
59.72000 156.085
59.76000 147.026
59.80000 145.470
59.84000 143.228
59.88000 150.229
59.92000 156.554
59.96000 154.754
60.00000 153.221
60.04000 142.106
60.08000 145.579
60.12000 154.942
60.16000 144.275
60.20000 151.143
60.24000 137.039
60.28000 159.501
60.32000 147.541
60.36000 146.767
60.40000 149.296
60.44000 156.136
60.48000 147.496
60.52000 159.595
60.56000 140.872
60.60000 150.841
60.64000 146.882
60.68000 141.795
60.72000 153.913
60.76000 155.354
60.80000 155.285
60.84000 157.485
60.88000 151.292
60.92000 143.959
60.96000 140.399
61.00000 136.225
61.04000 140.210
61.08000 149.474
61.12000 152.348
61.16000 154.245
61.20000 145.476
61.24000 152.569
61.28000 144.332
61.32000 153.579
61.36000 147.164
61.40000 154.382
61.44000 143.251
61.48000 140.880
61.52000 146.416
61.56000 153.648
61.60000 151.565
61.64000 146.620
61.68000 152.451
61.72000 150.910
61.76000 145.622
61.80000 143.853
61.84000 147.930
61.88000 147.140
61.92000 142.098
61.96000 146.964
62.00000 144.603
62.04000 148.511
62.08000 139.781
62.12000 146.094
62.16000 145.729
62.20000 139.674
62.24000 142.123
62.28000 135.443
62.32000 136.666
62.36000 139.953
62.40000 148.842
62.44000 137.886
62.48000 136.490
62.52000 152.773
62.56000 142.445
62.60000 140.700
62.64000 130.531
62.68000 147.537
62.72000 140.506
62.76000 151.397
62.80000 144.094
62.84000 143.201
62.88000 142.598
62.92000 139.049
62.96000 139.880
63.00000 141.798
63.04000 131.774
63.08000 135.933
63.12000 144.286
63.16000 137.912
63.20000 143.191
63.24000 133.295
63.28000 144.360
63.32000 143.465
63.36000 152.434
63.40000 144.507
63.44000 137.898
63.48000 151.038
63.52000 137.287
63.56000 130.010
63.60000 145.186
63.64000 144.461
63.68000 137.196
63.72000 134.755
63.76000 137.892
63.80000 135.608
63.84000 139.017
63.88000 130.526
63.92000 127.522
63.96000 142.010
64.00000 121.463
64.04000 138.665
64.08000 131.815
64.12000 131.952
64.16000 135.833
64.20000 126.187
64.24000 129.410
64.28000 132.508
64.32000 129.569
64.36000 133.582
64.40000 132.658
64.44000 139.332
64.48000 139.454
64.52000 142.999
64.56000 145.428
64.60000 142.892
64.64000 153.187
64.68000 154.364
64.72000 156.624
64.76000 142.019
64.80000 143.953
64.84000 137.557
64.88000 138.149
64.92000 131.350
64.96000 137.915
65.00000 130.007
65.04000 142.091
65.08000 143.643
65.12000 152.792
65.16000 140.114
65.20000 132.541
65.24000 139.306
65.28000 133.394
65.32000 141.547
65.36000 143.448
65.40000 140.838
65.44000 129.253
65.48000 147.662
65.52000 132.523
65.56000 147.265
65.60000 141.920
65.64000 132.094
65.68000 135.315
65.72000 144.671
65.76000 146.429
65.80000 156.676
65.84000 158.469
65.88000 149.526
65.92000 145.429
65.96000 147.469
66.00000 142.143
66.04000 134.808
66.08000 136.481
66.12000 137.883
66.16000 143.402
66.20000 137.568
66.24000 129.512
66.28000 138.714
66.32000 142.092
66.36000 131.282
66.40000 140.348
66.44000 144.211
66.48000 142.284
66.52000 140.504
66.56000 131.484
66.60000 133.008
66.64000 127.523
66.68000 131.856
66.72000 134.848
66.76000 138.729
66.80000 145.474
66.84000 139.320
66.88000 138.318
66.92000 144.616
66.96000 146.856
67.00000 138.242
67.04000 143.667
67.08000 136.595
67.12000 135.143
67.16000 141.654
67.20000 142.095
67.24000 150.590
67.28000 139.916
67.32000 148.379
67.36000 144.709
67.40000 140.741
67.44000 134.488
67.48000 144.298
67.52000 151.529
67.56000 156.289
67.60000 150.589
67.64000 149.356
67.68000 154.565
67.72000 155.716
67.76000 142.233
67.80000 151.666
67.84000 149.672
67.88000 160.916
67.92000 168.603
67.96000 161.212
68.00000 172.860
68.04000 168.926
68.08000 161.225
68.12000 169.386
68.16000 171.738
68.20000 167.377
68.24000 172.854
68.28000 179.657
68.32000 184.662
68.36000 196.229
68.40000 203.345
68.44000 208.314
68.48000 237.432
68.52000 238.605
68.56000 249.684
68.60000 269.022
68.64000 295.466
68.68000 310.957
68.72000 346.423
68.76000 381.384
68.80000 422.432
68.84000 450.541
68.88000 530.461
68.92000 624.593
68.96000 785.461
69.00000 944.353
69.04000 1160.964
69.08000 1350.972
69.12000 1475.057
69.16000 1514.327
69.20000 1414.504
69.24000 1317.909
69.28000 1180.776
69.32000 1018.095
69.36000 889.171
69.40000 755.256
69.44000 626.732
69.48000 510.276
69.52000 398.557
69.56000 339.384
69.60000 285.693
69.64000 260.760
69.68000 234.137
69.72000 213.256
69.76000 213.005
69.80000 197.274
69.84000 185.752
69.88000 178.674
69.92000 173.729
69.96000 169.196
70.00000 171.448