File: XRD/XRD/17-11-2025 Crystal Plates/XY Data/Deposition_11-3.xy
20.00000 718.414
20.04000 721.406
20.08000 725.357
20.12000 721.710
20.16000 703.518
20.20000 682.004
20.24000 690.996
20.28000 704.159
20.32000 727.621
20.36000 747.846
20.40000 748.416
20.44000 770.418
20.48000 785.101
20.52000 805.718
20.56000 793.298
20.60000 827.952
20.64000 845.346
20.68000 797.076
20.72000 781.923
20.76000 799.299
20.80000 806.615
20.84000 852.857
20.88000 873.497
20.92000 903.184
20.96000 934.221
21.00000 968.074
21.04000 988.673
21.08000 1024.645
21.12000 1026.906
21.16000 1055.154
21.20000 1030.676
21.24000 1063.530
21.28000 1071.536
21.32000 1135.903
21.36000 1233.674
21.40000 1295.797
21.44000 1343.865
21.48000 1541.034
21.52000 1734.350
21.56000 2036.463
21.60000 2422.375
21.64000 3157.021
21.68000 4177.133
21.72000 5702.253
21.76000 7613.676
21.80000 10112.598
21.84000 12777.077
21.88000 15019.892
21.92000 16802.527
21.96000 17432.721
22.00000 16724.748
22.04000 14950.715
22.08000 12394.225
22.12000 9678.104
22.16000 7185.867
22.20000 5301.202
22.24000 3946.281
22.28000 2974.807
22.32000 2428.993
22.36000 2053.667
22.40000 1830.453
22.44000 1695.723
22.48000 1712.977
22.52000 1883.540
22.56000 3041.361
22.60000 8551.855
22.64000 22183.496
22.68000 37958.234
22.72000 48052.449
22.76000 50972.242
22.80000 48452.066
22.84000 41440.027
22.88000 27310.002
22.92000 13409.566
22.96000 4973.531
23.00000 1900.550
23.04000 1294.847
23.08000 1152.233
23.12000 1045.733
23.16000 990.183
23.20000 941.437
23.24000 903.813
23.28000 876.264
23.32000 832.069
23.36000 821.496
23.40000 783.261
23.44000 772.142
23.48000 753.978
23.52000 726.978
23.56000 704.443
23.60000 703.199
23.64000 700.204
23.68000 681.661
23.72000 676.361
23.76000 686.779
23.80000 654.515
23.84000 637.479
23.88000 633.337
23.92000 637.470
23.96000 640.844
24.00000 611.799
24.04000 642.688
24.08000 618.256
24.12000 626.399
24.16000 629.351
24.20000 602.891
24.24000 622.322
24.28000 634.450
24.32000 634.865
24.36000 614.645
24.40000 598.573
24.44000 588.355
24.48000 612.228
24.52000 604.168
24.56000 621.884
24.60000 583.400
24.64000 598.958
24.68000 604.578
24.72000 587.846
24.76000 575.666
24.80000 598.800
24.84000 601.777
24.88000 576.762
24.92000 581.439
24.96000 582.820
25.00000 574.683
25.04000 571.262
25.08000 589.332
25.12000 578.524
25.16000 587.476
25.20000 571.102
25.24000 594.348
25.28000 578.649
25.32000 571.263
25.36000 586.433
25.40000 560.298
25.44000 554.007
25.48000 536.263
25.52000 572.304
25.56000 552.084
25.60000 555.787
25.64000 560.541
25.68000 554.051
25.72000 559.669
25.76000 555.158
25.80000 571.301
25.84000 591.864
25.88000 567.182
25.92000 567.308
25.96000 561.203
26.00000 555.462
26.04000 566.680
26.08000 568.150
26.12000 533.605
26.16000 569.114
26.20000 549.129
26.24000 541.095
26.28000 558.885
26.32000 525.518
26.36000 541.890
26.40000 535.277
26.44000 541.425
26.48000 535.255
26.52000 544.589
26.56000 532.538
26.60000 533.813
26.64000 543.325
26.68000 541.222
26.72000 520.182
26.76000 541.080
26.80000 537.891
26.84000 533.977
26.88000 532.847
26.92000 532.933
26.96000 509.375
27.00000 525.577
27.04000 510.961
27.08000 519.678
27.12000 538.457
27.16000 528.975
27.20000 523.302
27.24000 519.277
27.28000 522.420
27.32000 530.749
27.36000 503.617
27.40000 516.584
27.44000 513.983
27.48000 523.672
27.52000 526.898
27.56000 511.449
27.60000 525.307
27.64000 515.053
27.68000 511.052
27.72000 521.899
27.76000 535.145
27.80000 521.626
27.84000 516.979
27.88000 522.369
27.92000 512.945
27.96000 536.725
28.00000 506.517
28.04000 493.873
28.08000 491.858
28.12000 513.104
28.16000 529.230
28.20000 492.240
28.24000 499.972
28.28000 517.479
28.32000 490.467
28.36000 486.250
28.40000 492.195
28.44000 476.882
28.48000 493.577
28.52000 514.073
28.56000 511.463
28.60000 491.364
28.64000 492.823
28.68000 495.866
28.72000 489.742
28.76000 493.032
28.80000 497.762
28.84000 483.642
28.88000 488.429
28.92000 485.228
28.96000 483.518
29.00000 494.194
29.04000 490.861
29.08000 479.376
29.12000 513.182
29.16000 487.783
29.20000 470.072
29.24000 479.995
29.28000 510.203
29.32000 479.199
29.36000 497.295
29.40000 476.500
29.44000 477.398
29.48000 476.793
29.52000 471.572
29.56000 481.298
29.60000 474.749
29.64000 484.304
29.68000 470.105
29.72000 452.778
29.76000 481.176
29.80000 472.663
29.84000 489.585
29.88000 480.120
29.92000 484.476
29.96000 474.660
30.00000 457.970
30.04000 466.176
30.08000 463.708
30.12000 463.345
30.16000 453.149
30.20000 461.997
30.24000 435.331
30.28000 471.232
30.32000 477.139
30.36000 451.366
30.40000 445.410
30.44000 464.252
30.48000 466.355
30.52000 458.052
30.56000 478.379
30.60000 457.627
30.64000 457.984
30.68000 453.834
30.72000 461.634
30.76000 437.017
30.80000 448.760
30.84000 435.366
30.88000 441.239
30.92000 443.731
30.96000 455.182
31.00000 456.705
31.04000 445.951
31.08000 470.066
31.12000 452.381
31.16000 440.255
31.20000 453.102
31.24000 440.634
31.28000 432.281
31.32000 442.568
31.36000 462.621
31.40000 430.372
31.44000 436.322
31.48000 455.262
31.52000 435.564
31.56000 436.336
31.60000 422.286
31.64000 441.860
31.68000 451.644
31.72000 426.801
31.76000 436.174
31.80000 427.561
31.84000 414.078
31.88000 444.992
31.92000 442.835
31.96000 419.256
32.00000 436.183
32.04000 437.494
32.08000 409.250
32.12000 432.783
32.16000 416.967
32.20000 422.938
32.24000 419.001
32.28000 425.714
32.32000 423.420
32.36000 393.646
32.40000 413.826
32.44000 426.154
32.48000 416.233
32.52000 420.454
32.56000 424.598
32.60000 427.754
32.64000 406.633
32.68000 425.931
32.72000 415.430
32.76000 407.342
32.80000 402.005
32.84000 412.051
32.88000 420.687
32.92000 412.051
32.96000 410.037
33.00000 400.177
33.04000 420.460
33.08000 420.365
33.12000 423.696
33.16000 401.699
33.20000 391.627
33.24000 386.553
33.28000 405.208
33.32000 406.805
33.36000 401.375
33.40000 409.236
33.44000 414.155
33.48000 391.797
33.52000 405.483
33.56000 409.880
33.60000 393.326
33.64000 413.622
33.68000 401.960
33.72000 400.896
33.76000 384.163
33.80000 395.960
33.84000 398.690
33.88000 401.655
33.92000 395.252
33.96000 392.721
34.00000 417.058
34.04000 388.454
34.08000 407.321
34.12000 376.149
34.16000 394.537
34.20000 387.240
34.24000 395.755
34.28000 395.157
34.32000 392.131
34.36000 376.966
34.40000 402.478
34.44000 379.142
34.48000 386.682
34.52000 389.682
34.56000 384.723
34.60000 387.170
34.64000 394.713
34.68000 382.073
34.72000 376.401
34.76000 397.378
34.80000 372.667
34.84000 386.441
34.88000 381.262
34.92000 380.278
34.96000 377.808
35.00000 395.089
35.04000 380.744
35.08000 382.661
35.12000 375.721
35.16000 368.692
35.20000 363.649
35.24000 366.543
35.28000 367.052
35.32000 362.585
35.36000 379.734
35.40000 373.468
35.44000 369.625
35.48000 356.098
35.52000 365.536
35.56000 371.691
35.60000 379.253
35.64000 360.029
35.68000 360.068
35.72000 359.659
35.76000 358.902
35.80000 364.263
35.84000 361.471
35.88000 368.794
35.92000 392.769
35.96000 365.317
36.00000 378.690
36.04000 356.203
36.08000 366.727
36.12000 354.235
36.16000 366.450
36.20000 369.835
36.24000 367.893
36.28000 363.220
36.32000 369.926
36.36000 348.320
36.40000 364.722
36.44000 350.558
36.48000 350.614
36.52000 371.575
36.56000 364.491
36.60000 363.407
36.64000 362.026
36.68000 361.820
36.72000 355.132
36.76000 365.418
36.80000 360.927
36.84000 347.546
36.88000 348.464
36.92000 352.482
36.96000 351.572
37.00000 351.807
37.04000 354.335
37.08000 347.552
37.12000 349.750
37.16000 343.641
37.20000 342.322
37.24000 344.269
37.28000 340.519
37.32000 347.648
37.36000 352.606
37.40000 351.257
37.44000 350.927
37.48000 340.746
37.52000 335.085
37.56000 347.899
37.60000 344.252
37.64000 344.705
37.68000 352.200
37.72000 344.406
37.76000 347.962
37.80000 346.598
37.84000 344.156
37.88000 346.757
37.92000 332.232
37.96000 336.600
38.00000 350.493
38.04000 331.791
38.08000 348.109
38.12000 350.968
38.16000 323.630
38.20000 340.472
38.24000 351.129
38.28000 350.282
38.32000 353.667
38.36000 346.214
38.40000 340.863
38.44000 341.623
38.48000 342.544
38.52000 335.784
38.56000 351.337
38.60000 338.217
38.64000 337.422
38.68000 330.057
38.72000 327.272
38.76000 336.521
38.80000 336.647
38.84000 352.323
38.88000 327.436
38.92000 322.224
38.96000 333.818
39.00000 340.994
39.04000 321.493
39.08000 332.405
39.12000 343.260
39.16000 338.693
39.20000 342.166
39.24000 344.799
39.28000 325.158
39.32000 336.774
39.36000 340.388
39.40000 332.570
39.44000 319.341
39.48000 328.814
39.52000 331.383
39.56000 329.800
39.60000 327.340
39.64000 342.076
39.68000 333.944
39.72000 326.843
39.76000 338.541
39.80000 337.554
39.84000 331.642
39.88000 341.501
39.92000 329.746
39.96000 346.117
40.00000 339.073
40.04000 358.511
40.08000 342.725
40.12000 355.363
40.16000 361.281
40.20000 347.008
40.24000 335.691
40.28000 361.225
40.32000 360.090
40.36000 351.005
40.40000 339.160
40.44000 351.021
40.48000 349.629
40.52000 333.964
40.56000 337.595
40.60000 335.124
40.64000 356.758
40.68000 343.971
40.72000 338.942
40.76000 335.721
40.80000 319.362
40.84000 312.742
40.88000 338.109
40.92000 331.613
40.96000 328.794
41.00000 338.042
41.04000 342.830
41.08000 336.066
41.12000 366.456
41.16000 347.465
41.20000 326.918
41.24000 356.767
41.28000 344.197
41.32000 357.583
41.36000 352.554
41.40000 355.063
41.44000 393.382
41.48000 378.143
41.52000 383.555
41.56000 405.137
41.60000 434.027
41.64000 582.983
41.68000 734.063
41.72000 868.005
41.76000 952.641
41.80000 955.860
41.84000 917.334
41.88000 750.148
41.92000 548.898
41.96000 459.770
42.00000 427.274
42.04000 423.973
42.08000 415.820
42.12000 414.727
42.16000 409.014
42.20000 421.757
42.24000 417.008
42.28000 433.483
42.32000 436.735
42.36000 461.171
42.40000 482.063
42.44000 499.472
42.48000 507.008
42.52000 533.534
42.56000 542.760
42.60000 577.596
42.64000 593.983
42.68000 609.384
42.72000 625.198
42.76000 627.448
42.80000 640.578
42.84000 661.321
42.88000 686.455
42.92000 695.001
42.96000 712.914
43.00000 680.167
43.04000 710.882
43.08000 700.404
43.12000 699.770
43.16000 703.277
43.20000 715.342
43.24000 743.948
43.28000 746.715
43.32000 761.499
43.36000 784.317
43.40000 806.919
43.44000 831.688
43.48000 850.654
43.52000 896.062
43.56000 956.135
43.60000 998.133
43.64000 1067.927
43.68000 1095.551
43.72000 1159.767
43.76000 1209.461
43.80000 1305.499
43.84000 1376.504
43.88000 1501.868
43.92000 1646.688
43.96000 1706.507
44.00000 1857.545
44.04000 2102.973
44.08000 2293.010
44.12000 2560.420
44.16000 2954.628
44.20000 3406.562
44.24000 4127.294
44.28000 5341.114
44.32000 7036.898
44.36000 8563.521
44.40000 9996.500
44.44000 11261.253
44.48000 12285.380
44.52000 12923.086
44.56000 13112.819
44.60000 13596.975
44.64000 14651.793
44.68000 16013.646
44.72000 17115.852
44.76000 18047.457
44.80000 18439.916
44.84000 18542.117
44.88000 18065.648
44.92000 17018.584
44.96000 15768.803
45.00000 14201.911
45.04000 12521.530
45.08000 10843.014
45.12000 9167.020
45.16000 7742.888
45.20000 6389.754
45.24000 5375.782
45.28000 4526.180
45.32000 4017.512
45.36000 3487.735
45.40000 3134.720
45.44000 2902.066
45.48000 2692.860
45.52000 2566.990
45.56000 2461.784
45.60000 2431.435
45.64000 2403.575
45.68000 2375.601
45.72000 2415.308
45.76000 2407.128
45.80000 2430.560
45.84000 2507.497
45.88000 2612.626
45.92000 2729.916
45.96000 2890.994
46.00000 3108.601
46.04000 3424.658
46.08000 3931.985
46.12000 4988.831
46.16000 6340.660
46.20000 7874.218
46.24000 11756.071
46.28000 24777.074
46.32000 83574.656
46.36000 175999.328
46.40000 253456.578
46.44000 302388.688
46.48000 337653.875
46.52000 351103.688
46.56000 308635.844
46.60000 213031.188
46.64000 145979.766
46.68000 101336.617
46.72000 52125.805
46.76000 19770.740
46.80000 8261.617
46.84000 5627.763
46.88000 4573.248
46.92000 3855.919
46.96000 3394.579
47.00000 3085.299
47.04000 2827.365
47.08000 2644.450
47.12000 2492.917
47.16000 2267.616
47.20000 2146.520
47.24000 2006.734
47.28000 1856.110
47.32000 1718.958
47.36000 1656.522
47.40000 1566.546
47.44000 1503.868
47.48000 1388.486
47.52000 1337.493
47.56000 1264.711
47.60000 1182.568
47.64000 1141.759
47.68000 1082.522
47.72000 1022.472
47.76000 971.240
47.80000 929.120
47.84000 890.034
47.88000 847.691
47.92000 799.018
47.96000 759.984
48.00000 735.950
48.04000 720.546
48.08000 666.920
48.12000 649.881
48.16000 636.450
48.20000 620.913
48.24000 600.333
48.28000 578.090
48.32000 548.002
48.36000 552.889
48.40000 528.993
48.44000 522.496
48.48000 505.360
48.52000 505.121
48.56000 479.174
48.60000 465.729
48.64000 455.483
48.68000 449.716
48.72000 424.648
48.76000 444.249
48.80000 418.299
48.84000 412.480
48.88000 413.673
48.92000 404.551
48.96000 401.586
49.00000 389.938
49.04000 385.611
49.08000 385.654
49.12000 367.637
49.16000 357.145
49.20000 374.580
49.24000 360.506
49.28000 350.556
49.32000 347.261
49.36000 331.812
49.40000 345.202
49.44000 336.481
49.48000 341.310
49.52000 316.222
49.56000 324.100
49.60000 339.596
49.64000 326.129
49.68000 306.185
49.72000 308.948
49.76000 315.333
49.80000 327.363
49.84000 310.112
49.88000 310.006
49.92000 301.917
49.96000 301.712
50.00000 291.844
50.04000 293.029
50.08000 288.034
50.12000 288.439
50.16000 275.657
50.20000 277.869
50.24000 270.097
50.28000 287.140
50.32000 289.735
50.36000 278.672
50.40000 271.742
50.44000 263.832
50.48000 275.118
50.52000 264.842
50.56000 278.598
50.60000 266.979
50.64000 272.696
50.68000 279.668
50.72000 283.811
50.76000 272.389
50.80000 287.593
50.84000 294.179
50.88000 285.007
50.92000 290.525
50.96000 284.900
51.00000 272.411
51.04000 263.706
51.08000 275.543
51.12000 257.977
51.16000 267.855
51.20000 263.799
51.24000 249.056
51.28000 249.684
51.32000 244.726
51.36000 235.935
51.40000 238.062
51.44000 232.411
51.48000 226.406
51.52000 233.702
51.56000 246.630
51.60000 243.701
51.64000 231.342
51.68000 246.838
51.72000 232.620
51.76000 228.086
51.80000 222.731
51.84000 233.159
51.88000 238.443
51.92000 226.570
51.96000 220.233
52.00000 229.231
52.04000 223.578
52.08000 225.936
52.12000 211.666
52.16000 230.581
52.20000 217.816
52.24000 229.323
52.28000 226.406
52.32000 224.227
52.36000 213.737
52.40000 216.293
52.44000 211.731
52.48000 219.614
52.52000 204.985
52.56000 211.082
52.60000 224.005
52.64000 228.697
52.68000 223.058
52.72000 206.264
52.76000 218.856
52.80000 203.972
52.84000 211.710
52.88000 211.687
52.92000 209.120
52.96000 208.189
53.00000 200.037
53.04000 205.733
53.08000 196.169
53.12000 205.825
53.16000 198.917
53.20000 199.025
53.24000 205.175
53.28000 213.795
53.32000 209.003
53.36000 206.227
53.40000 206.735
53.44000 213.352
53.48000 211.367
53.52000 199.961
53.56000 200.411
53.60000 208.650
53.64000 193.606
53.68000 196.213
53.72000 210.438
53.76000 193.560
53.80000 207.863
53.84000 193.744
53.88000 206.344
53.92000 190.513
53.96000 186.306
54.00000 201.283
54.04000 209.765
54.08000 197.211
54.12000 193.310
54.16000 188.123
54.20000 189.426
54.24000 219.561
54.28000 183.415
54.32000 188.964
54.36000 199.497
54.40000 189.661
54.44000 190.359
54.48000 186.312
54.52000 179.642
54.56000 205.633
54.60000 185.118
54.64000 187.726
54.68000 181.511
54.72000 184.879
54.76000 197.310
54.80000 189.446
54.84000 186.528
54.88000 173.722
54.92000 180.949
54.96000 184.343
55.00000 194.027
55.04000 189.125
55.08000 187.173
55.12000 195.295
55.16000 191.678
55.20000 188.826
55.24000 184.538
55.28000 185.699
55.32000 189.465
55.36000 186.732
55.40000 193.528
55.44000 191.303
55.48000 204.729
55.52000 186.486
55.56000 206.300
55.60000 213.521
55.64000 208.779
55.68000 222.567
55.72000 223.960
55.76000 228.581
55.80000 235.718
55.84000 235.390
55.88000 233.019
55.92000 248.345
55.96000 244.325
56.00000 247.637
56.04000 238.260
56.08000 241.288
56.12000 214.863
56.16000 207.217
56.20000 200.756
56.24000 212.957
56.28000 203.598
56.32000 191.688
56.36000 200.084
56.40000 174.862
56.44000 190.158
56.48000 185.638
56.52000 172.484
56.56000 181.136
56.60000 176.562
56.64000 175.568
56.68000 179.765
56.72000 173.524
56.76000 177.693
56.80000 176.528
56.84000 173.663
56.88000 176.870
56.92000 173.995
56.96000 167.540
57.00000 168.186
57.04000 160.520
57.08000 171.083
57.12000 166.369
57.16000 152.835
57.20000 171.589
57.24000 168.056
57.28000 174.756
57.32000 180.406
57.36000 167.656
57.40000 160.895
57.44000 171.701
57.48000 155.935
57.52000 160.778
57.56000 161.543
57.60000 163.031
57.64000 169.854
57.68000 168.277
57.72000 159.608
57.76000 174.886
57.80000 163.939
57.84000 166.270
57.88000 155.081
57.92000 164.230
57.96000 157.915
58.00000 153.660
58.04000 149.776
58.08000 166.438
58.12000 154.680
58.16000 162.345
58.20000 163.647
58.24000 163.529
58.28000 165.396
58.32000 160.355
58.36000 162.024
58.40000 152.142
58.44000 161.712
58.48000 162.456
58.52000 162.618
58.56000 157.857
58.60000 166.703
58.64000 160.408
58.68000 159.200
58.72000 155.395
58.76000 153.143
58.80000 161.550
58.84000 154.312
58.88000 148.143
58.92000 148.185
58.96000 154.382
59.00000 154.428
59.04000 158.212
59.08000 156.544
59.12000 157.584
59.16000 149.357
59.20000 155.691
59.24000 163.167
59.28000 153.663
59.32000 156.211
59.36000 156.926
59.40000 156.371
59.44000 155.636
59.48000 149.279
59.52000 157.418
59.56000 148.729
59.60000 149.344
59.64000 155.640
59.68000 155.996
59.72000 158.929
59.76000 158.041
59.80000 148.578
59.84000 148.249
59.88000 149.743
59.92000 147.768
59.96000 140.477
60.00000 153.033
60.04000 146.129
60.08000 148.689
60.12000 155.575
60.16000 149.114
60.20000 155.364
60.24000 166.967
60.28000 150.110
60.32000 156.527
60.36000 146.848
60.40000 151.170
60.44000 146.716
60.48000 132.956
60.52000 138.538
60.56000 143.117
60.60000 147.535
60.64000 157.794
60.68000 127.057
60.72000 134.816
60.76000 141.404
60.80000 134.402
60.84000 136.739
60.88000 138.383
60.92000 144.939
60.96000 142.955
61.00000 143.053
61.04000 150.151
61.08000 157.585
61.12000 140.540
61.16000 140.669
61.20000 147.526
61.24000 139.955
61.28000 143.928
61.32000 150.608
61.36000 143.792
61.40000 146.351
61.44000 144.642
61.48000 143.564
61.52000 129.964
61.56000 134.410
61.60000 153.213
61.64000 150.433
61.68000 155.976
61.72000 143.958
61.76000 155.850
61.80000 140.903
61.84000 145.790
61.88000 135.809
61.92000 133.866
61.96000 135.872
62.00000 136.287
62.04000 144.471
62.08000 143.265
62.12000 137.389
62.16000 148.109
62.20000 145.605
62.24000 135.638
62.28000 143.755
62.32000 136.715
62.36000 141.811
62.40000 147.179
62.44000 141.530
62.48000 140.261
62.52000 137.686
62.56000 135.065
62.60000 135.283
62.64000 136.939
62.68000 137.533
62.72000 143.722
62.76000 147.137
62.80000 132.329
62.84000 142.479
62.88000 140.522
62.92000 140.727
62.96000 130.278
63.00000 144.876
63.04000 139.906
63.08000 139.596
63.12000 141.721
63.16000 141.463
63.20000 128.613
63.24000 131.094
63.28000 129.337
63.32000 134.812
63.36000 130.716
63.40000 132.608
63.44000 143.220
63.48000 135.900
63.52000 132.932
63.56000 135.402
63.60000 142.545
63.64000 132.928
63.68000 144.945
63.72000 128.347
63.76000 133.535
63.80000 135.452
63.84000 133.955
63.88000 138.744
63.92000 133.852
63.96000 140.902
64.00000 135.612
64.04000 141.537
64.08000 137.381
64.12000 140.871
64.16000 132.691
64.20000 128.494
64.24000 133.450
64.28000 130.595
64.32000 136.052
64.36000 134.063
64.40000 120.979
64.44000 127.737
64.48000 134.648
64.52000 148.845
64.56000 160.793
64.60000 144.673
64.64000 154.015
64.68000 141.124
64.72000 160.066
64.76000 147.236
64.80000 139.711
64.84000 142.772
64.88000 144.772
64.92000 134.524
64.96000 138.648
65.00000 142.385
65.04000 137.444
65.08000 128.715
65.12000 133.434
65.16000 132.479
65.20000 134.670
65.24000 127.467
65.28000 132.383
65.32000 133.151
65.36000 131.969
65.40000 126.184
65.44000 131.097
65.48000 135.572
65.52000 130.975
65.56000 140.000
65.60000 139.369
65.64000 135.821
65.68000 134.917
65.72000 136.764
65.76000 133.543
65.80000 131.405
65.84000 140.223
65.88000 134.650
65.92000 136.008
65.96000 133.923
66.00000 127.242
66.04000 140.019
66.08000 134.298
66.12000 122.775
66.16000 134.483
66.20000 135.528
66.24000 133.179
66.28000 133.123
66.32000 134.320
66.36000 138.600
66.40000 124.919
66.44000 136.862
66.48000 134.167
66.52000 134.273
66.56000 132.040
66.60000 136.980
66.64000 136.385
66.68000 139.251
66.72000 127.963
66.76000 133.674
66.80000 136.104
66.84000 140.237
66.88000 138.107
66.92000 138.636
66.96000 143.125
67.00000 138.909
67.04000 138.651
67.08000 136.400
67.12000 139.629
67.16000 140.033
67.20000 129.270
67.24000 134.836
67.28000 124.037
67.32000 132.549
67.36000 126.432
67.40000 126.625
67.44000 140.978
67.48000 139.785
67.52000 135.218
67.56000 140.861
67.60000 147.203
67.64000 130.662
67.68000 148.182
67.72000 138.831
67.76000 137.403
67.80000 133.067
67.84000 138.120
67.88000 138.760
67.92000 136.614
67.96000 143.068
68.00000 142.639
68.04000 149.611
68.08000 144.615
68.12000 147.115
68.16000 149.334
68.20000 150.708
68.24000 153.486
68.28000 145.039
68.32000 155.615
68.36000 146.343
68.40000 156.061
68.44000 165.508
68.48000 160.484
68.52000 166.365
68.56000 170.684
68.60000 161.987
68.64000 183.301
68.68000 174.962
68.72000 179.299
68.76000 180.599
68.80000 186.077
68.84000 204.212
68.88000 214.981
68.92000 224.154
68.96000 251.572
69.00000 283.527
69.04000 316.478
69.08000 350.812
69.12000 350.039
69.16000 381.843
69.20000 344.906
69.24000 318.343
69.28000 307.989
69.32000 318.894
69.36000 337.085
69.40000 346.485
69.44000 366.278
69.48000 374.480
69.52000 396.733
69.56000 404.314
69.60000 423.511
69.64000 424.337
69.68000 451.403
69.72000 457.060
69.76000 456.514
69.80000 480.021
69.84000 460.203
69.88000 454.683
69.92000 445.169
69.96000 442.587
70.00000 427.130