File: XRD/XRD/17-11-2025 Crystal Plates/XY Data/Deposition_9-2.xy
20.00000 725.932
20.04000 708.122
20.08000 712.668
20.12000 704.144
20.16000 719.101
20.20000 716.413
20.24000 697.757
20.28000 717.549
20.32000 708.709
20.36000 722.270
20.40000 723.198
20.44000 744.193
20.48000 738.964
20.52000 784.458
20.56000 782.433
20.60000 757.677
20.64000 781.776
20.68000 746.353
20.72000 730.914
20.76000 740.213
20.80000 741.890
20.84000 727.903
20.88000 750.314
20.92000 784.282
20.96000 815.135
21.00000 819.323
21.04000 824.374
21.08000 858.233
21.12000 858.978
21.16000 864.417
21.20000 889.529
21.24000 876.593
21.28000 861.909
21.32000 894.471
21.36000 870.107
21.40000 919.871
21.44000 970.814
21.48000 989.364
21.52000 1086.808
21.56000 1190.367
21.60000 1305.680
21.64000 1499.983
21.68000 1844.278
21.72000 2403.976
21.76000 3116.432
21.80000 4282.863
21.84000 5799.347
21.88000 7506.109
21.92000 9263.177
21.96000 10379.685
22.00000 10615.665
22.04000 9997.623
22.08000 8828.237
22.12000 6999.953
22.16000 5344.140
22.20000 4022.153
22.24000 3068.324
22.28000 2372.748
22.32000 1980.310
22.36000 1716.640
22.40000 1568.539
22.44000 1471.622
22.48000 1418.994
22.52000 1495.978
22.56000 2172.284
22.60000 5283.322
22.64000 14074.277
22.68000 25195.521
22.72000 32340.332
22.76000 34310.926
22.80000 32980.363
22.84000 27520.537
22.88000 19277.063
22.92000 9751.879
22.96000 3990.538
23.00000 1546.690
23.04000 1094.824
23.08000 1000.535
23.12000 923.943
23.16000 882.863
23.20000 841.478
23.24000 819.540
23.28000 776.151
23.32000 776.712
23.36000 763.309
23.40000 731.346
23.44000 718.007
23.48000 713.831
23.52000 680.928
23.56000 698.582
23.60000 687.688
23.64000 680.629
23.68000 685.598
23.72000 687.130
23.76000 699.001
23.80000 721.723
23.84000 718.305
23.88000 709.083
23.92000 702.758
23.96000 745.135
24.00000 728.365
24.04000 691.609
24.08000 688.396
24.12000 675.390
24.16000 694.325
24.20000 660.315
24.24000 643.029
24.28000 642.609
24.32000 636.374
24.36000 614.744
24.40000 608.437
24.44000 602.884
24.48000 620.061
24.52000 606.568
24.56000 619.207
24.60000 596.389
24.64000 608.582
24.68000 600.894
24.72000 594.017
24.76000 602.340
24.80000 604.788
24.84000 570.622
24.88000 575.468
24.92000 612.458
24.96000 582.544
25.00000 603.516
25.04000 588.003
25.08000 587.390
25.12000 574.143
25.16000 561.053
25.20000 604.225
25.24000 581.256
25.28000 584.805
25.32000 582.325
25.36000 590.647
25.40000 563.494
25.44000 576.238
25.48000 575.848
25.52000 572.687
25.56000 575.427
25.60000 572.720
25.64000 576.331
25.68000 576.050
25.72000 572.008
25.76000 584.177
25.80000 565.801
25.84000 566.402
25.88000 594.545
25.92000 542.528
25.96000 560.010
26.00000 584.028
26.04000 569.851
26.08000 557.850
26.12000 583.580
26.16000 565.530
26.20000 562.235
26.24000 562.279
26.28000 551.819
26.32000 545.384
26.36000 554.571
26.40000 549.608
26.44000 567.752
26.48000 559.355
26.52000 547.170
26.56000 550.410
26.60000 550.403
26.64000 537.841
26.68000 534.563
26.72000 530.163
26.76000 535.179
26.80000 535.132
26.84000 530.095
26.88000 541.992
26.92000 531.507
26.96000 551.701
27.00000 541.171
27.04000 530.344
27.08000 541.107
27.12000 518.781
27.16000 542.062
27.20000 536.838
27.24000 552.257
27.28000 527.273
27.32000 533.174
27.36000 528.392
27.40000 539.969
27.44000 545.521
27.48000 531.151
27.52000 549.112
27.56000 517.840
27.60000 524.519
27.64000 528.715
27.68000 546.111
27.72000 533.663
27.76000 524.919
27.80000 512.797
27.84000 510.234
27.88000 505.193
27.92000 518.931
27.96000 524.751
28.00000 531.803
28.04000 527.309
28.08000 513.796
28.12000 504.867
28.16000 503.932
28.20000 498.382
28.24000 511.809
28.28000 531.400
28.32000 517.795
28.36000 511.191
28.40000 492.344
28.44000 508.085
28.48000 488.177
28.52000 507.716
28.56000 508.775
28.60000 497.148
28.64000 490.366
28.68000 482.859
28.72000 502.347
28.76000 501.049
28.80000 499.608
28.84000 504.141
28.88000 477.234
28.92000 513.631
28.96000 506.188
29.00000 492.948
29.04000 484.662
29.08000 482.313
29.12000 492.072
29.16000 475.348
29.20000 478.907
29.24000 475.774
29.28000 495.992
29.32000 524.198
29.36000 490.438
29.40000 499.401
29.44000 468.190
29.48000 488.153
29.52000 475.257
29.56000 487.801
29.60000 489.877
29.64000 484.684
29.68000 491.017
29.72000 484.752
29.76000 497.121
29.80000 485.323
29.84000 479.088
29.88000 482.959
29.92000 475.370
29.96000 455.395
30.00000 491.182
30.04000 472.812
30.08000 501.480
30.12000 497.607
30.16000 487.238
30.20000 475.574
30.24000 490.247
30.28000 468.214
30.32000 468.733
30.36000 487.021
30.40000 473.676
30.44000 474.061
30.48000 470.768
30.52000 470.843
30.56000 470.923
30.60000 465.334
30.64000 466.550
30.68000 463.361
30.72000 473.990
30.76000 479.730
30.80000 469.134
30.84000 461.568
30.88000 480.838
30.92000 474.300
30.96000 476.100
31.00000 499.680
31.04000 490.288
31.08000 521.208
31.12000 540.402
31.16000 547.055
31.20000 574.796
31.24000 624.563
31.28000 661.889
31.32000 672.176
31.36000 683.825
31.40000 677.483
31.44000 664.359
31.48000 630.649
31.52000 567.359
31.56000 562.343
31.60000 502.797
31.64000 495.669
31.68000 490.480
31.72000 474.757
31.76000 464.016
31.80000 464.752
31.84000 448.586
31.88000 454.093
31.92000 442.142
31.96000 446.366
32.00000 444.662
32.04000 437.947
32.08000 439.431
32.12000 428.727
32.16000 454.096
32.20000 458.089
32.24000 492.321
32.28000 532.911
32.32000 566.051
32.36000 576.473
32.40000 571.904
32.44000 545.042
32.48000 497.861
32.52000 470.510
32.56000 430.194
32.60000 422.608
32.64000 421.554
32.68000 414.750
32.72000 440.382
32.76000 421.037
32.80000 424.647
32.84000 426.107
32.88000 424.690
32.92000 420.743
32.96000 438.847
33.00000 425.644
33.04000 413.891
33.08000 418.967
33.12000 428.031
33.16000 412.617
33.20000 408.132
33.24000 426.944
33.28000 424.348
33.32000 414.548
33.36000 401.379
33.40000 415.860
33.44000 406.923
33.48000 419.659
33.52000 401.729
33.56000 418.616
33.60000 412.466
33.64000 412.151
33.68000 423.623
33.72000 423.629
33.76000 418.362
33.80000 421.583
33.84000 411.520
33.88000 413.664
33.92000 413.152
33.96000 410.056
34.00000 427.954
34.04000 420.123
34.08000 403.264
34.12000 426.323
34.16000 425.118
34.20000 433.151
34.24000 420.640
34.28000 424.291
34.32000 434.139
34.36000 419.625
34.40000 430.160
34.44000 432.981
34.48000 400.557
34.52000 396.360
34.56000 413.592
34.60000 396.563
34.64000 410.201
34.68000 402.263
34.72000 401.816
34.76000 392.773
34.80000 394.026
34.84000 388.713
34.88000 384.313
34.92000 368.359
34.96000 396.854
35.00000 384.229
35.04000 392.964
35.08000 385.943
35.12000 383.475
35.16000 374.874
35.20000 370.539
35.24000 381.758
35.28000 389.121
35.32000 381.099
35.36000 385.541
35.40000 378.756
35.44000 372.174
35.48000 374.841
35.52000 375.894
35.56000 375.498
35.60000 379.314
35.64000 376.902
35.68000 360.598
35.72000 371.917
35.76000 390.565
35.80000 370.403
35.84000 372.681
35.88000 369.948
35.92000 375.400
35.96000 379.333
36.00000 367.442
36.04000 363.662
36.08000 368.422
36.12000 369.250
36.16000 368.036
36.20000 365.658
36.24000 369.238
36.28000 364.979
36.32000 359.441
36.36000 360.494
36.40000 356.061
36.44000 361.240
36.48000 368.389
36.52000 360.652
36.56000 353.422
36.60000 366.757
36.64000 358.880
36.68000 348.181
36.72000 361.995
36.76000 368.333
36.80000 360.256
36.84000 343.509
36.88000 366.903
36.92000 358.833
36.96000 351.762
37.00000 355.834
37.04000 356.583
37.08000 342.935
37.12000 368.585
37.16000 365.216
37.20000 348.302
37.24000 355.213
37.28000 369.919
37.32000 351.270
37.36000 360.373
37.40000 353.704
37.44000 349.390
37.48000 344.603
37.52000 329.179
37.56000 347.761
37.60000 349.523
37.64000 349.924
37.68000 343.256
37.72000 357.654
37.76000 342.859
37.80000 358.281
37.84000 340.867
37.88000 349.394
37.92000 361.558
37.96000 360.347
38.00000 363.256
38.04000 347.313
38.08000 367.742
38.12000 333.078
38.16000 352.180
38.20000 351.344
38.24000 366.459
38.28000 363.610
38.32000 366.518
38.36000 384.957
38.40000 356.136
38.44000 366.203
38.48000 354.843
38.52000 385.072
38.56000 390.326
38.60000 387.713
38.64000 409.317
38.68000 418.601
38.72000 424.247
38.76000 419.920
38.80000 408.295
38.84000 405.599
38.88000 377.567
38.92000 372.845
38.96000 352.706
39.00000 365.625
39.04000 342.301
39.08000 349.556
39.12000 334.938
39.16000 346.849
39.20000 332.642
39.24000 324.491
39.28000 331.375
39.32000 329.909
39.36000 324.572
39.40000 328.276
39.44000 343.482
39.48000 332.094
39.52000 331.540
39.56000 341.004
39.60000 344.955
39.64000 339.147
39.68000 342.718
39.72000 335.078
39.76000 330.591
39.80000 334.807
39.84000 340.814
39.88000 336.641
39.92000 343.410
39.96000 327.648
40.00000 341.396
40.04000 339.203
40.08000 336.599
40.12000 363.645
40.16000 340.158
40.20000 347.734
40.24000 347.481
40.28000 367.159
40.32000 353.069
40.36000 355.438
40.40000 342.559
40.44000 328.728
40.48000 339.003
40.52000 342.134
40.56000 353.184
40.60000 336.363
40.64000 339.409
40.68000 327.044
40.72000 332.632
40.76000 317.008
40.80000 309.931
40.84000 328.615
40.88000 346.453
40.92000 331.201
40.96000 349.079
41.00000 346.027
41.04000 330.498
41.08000 318.126
41.12000 353.457
41.16000 333.313
41.20000 337.890
41.24000 339.227
41.28000 347.658
41.32000 343.858
41.36000 354.463
41.40000 353.877
41.44000 343.639
41.48000 361.530
41.52000 366.484
41.56000 373.574
41.60000 411.204
41.64000 521.452
41.68000 691.273
41.72000 797.656
41.76000 845.363
41.80000 851.759
41.84000 848.234
41.88000 705.088
41.92000 539.635
41.96000 441.062
42.00000 408.758
42.04000 411.935
42.08000 383.725
42.12000 386.964
42.16000 419.192
42.20000 416.462
42.24000 414.452
42.28000 395.917
42.32000 409.884
42.36000 440.369
42.40000 423.652
42.44000 432.021
42.48000 449.148
42.52000 445.632
42.56000 469.810
42.60000 496.430
42.64000 502.539
42.68000 529.678
42.72000 549.091
42.76000 565.717
42.80000 575.885
42.84000 597.507
42.88000 590.731
42.92000 586.588
42.96000 613.968
43.00000 610.674
43.04000 583.387
43.08000 587.562
43.12000 591.810
43.16000 598.831
43.20000 592.731
43.24000 572.840
43.28000 567.917
43.32000 606.827
43.36000 601.431
43.40000 590.716
43.44000 611.381
43.48000 644.132
43.52000 634.334
43.56000 654.781
43.60000 685.125
43.64000 700.170
43.68000 722.116
43.72000 770.032
43.76000 796.010
43.80000 819.875
43.84000 862.204
43.88000 888.657
43.92000 931.193
43.96000 997.411
44.00000 1069.607
44.04000 1163.967
44.08000 1254.379
44.12000 1343.519
44.16000 1497.560
44.20000 1717.825
44.24000 2055.288
44.28000 2762.855
44.32000 3859.065
44.36000 4981.715
44.40000 5748.567
44.44000 6462.039
44.48000 6921.269
44.52000 7323.599
44.56000 7548.583
44.60000 8104.477
44.64000 9277.200
44.68000 10912.989
44.72000 12435.229
44.76000 13532.876
44.80000 14355.828
44.84000 14927.698
44.88000 14571.313
44.92000 14043.262
44.96000 13017.166
45.00000 11725.652
45.04000 10591.899
45.08000 9207.618
45.12000 7930.918
45.16000 6697.877
45.20000 5672.333
45.24000 4849.560
45.28000 4154.214
45.32000 3617.554
45.36000 3162.698
45.40000 2864.565
45.44000 2670.011
45.48000 2499.781
45.52000 2408.713
45.56000 2334.817
45.60000 2268.826
45.64000 2239.855
45.68000 2205.486
45.72000 2232.227
45.76000 2186.744
45.80000 2223.936
45.84000 2246.017
45.88000 2287.899
45.92000 2389.051
45.96000 2495.729
46.00000 2626.411
46.04000 2893.367
46.08000 3329.615
46.12000 4182.996
46.16000 5338.976
46.20000 6631.236
46.24000 9570.995
46.28000 19381.564
46.32000 63268.523
46.36000 146513.125
46.40000 213778.484
46.44000 250046.031
46.48000 281657.375
46.52000 293595.375
46.56000 259823.719
46.60000 185851.547
46.64000 123264.234
46.68000 85547.602
46.72000 47337.730
46.76000 17901.496
46.80000 7250.747
46.84000 4887.295
46.88000 3921.014
46.92000 3327.328
46.96000 2956.974
47.00000 2617.091
47.04000 2441.680
47.08000 2213.065
47.12000 2068.868
47.16000 1914.143
47.20000 1820.342
47.24000 1683.311
47.28000 1601.800
47.32000 1523.524
47.36000 1432.911
47.40000 1325.895
47.44000 1249.108
47.48000 1200.152
47.52000 1124.246
47.56000 1109.469
47.60000 1053.493
47.64000 991.245
47.68000 951.588
47.72000 893.744
47.76000 833.390
47.80000 808.047
47.84000 754.110
47.88000 725.853
47.92000 707.911
47.96000 679.615
48.00000 673.115
48.04000 626.529
48.08000 631.026
48.12000 599.493
48.16000 534.012
48.20000 547.572
48.24000 538.084
48.28000 511.929
48.32000 517.600
48.36000 498.512
48.40000 486.309
48.44000 472.747
48.48000 458.122
48.52000 461.155
48.56000 458.802
48.60000 434.266
48.64000 410.414
48.68000 406.455
48.72000 403.677
48.76000 401.122
48.80000 379.160
48.84000 391.745
48.88000 391.879
48.92000 376.140
48.96000 373.877
49.00000 352.065
49.04000 360.191
49.08000 363.195
49.12000 343.761
49.16000 347.343
49.20000 343.625
49.24000 318.529
49.28000 343.710
49.32000 335.421
49.36000 336.882
49.40000 330.607
49.44000 328.301
49.48000 306.358
49.52000 323.473
49.56000 311.491
49.60000 317.572
49.64000 306.024
49.68000 318.012
49.72000 297.977
49.76000 285.457
49.80000 300.860
49.84000 288.169
49.88000 295.651
49.92000 295.246
49.96000 290.422
50.00000 297.829
50.04000 289.898
50.08000 274.740
50.12000 286.101
50.16000 278.263
50.20000 294.286
50.24000 285.517
50.28000 278.044
50.32000 285.003
50.36000 274.774
50.40000 291.398
50.44000 267.585
50.48000 300.290
50.52000 268.602
50.56000 284.949
50.60000 273.323
50.64000 293.369
50.68000 293.773
50.72000 306.117
50.76000 296.739
50.80000 285.613
50.84000 305.817
50.88000 302.881
50.92000 296.599
50.96000 278.290
51.00000 275.086
51.04000 259.900
51.08000 253.566
51.12000 246.904
51.16000 252.482
51.20000 253.440
51.24000 240.988
51.28000 250.060
51.32000 239.798
51.36000 234.395
51.40000 252.583
51.44000 237.334
51.48000 236.692
51.52000 238.327
51.56000 229.558
51.60000 239.781
51.64000 233.345
51.68000 217.722
51.72000 230.137
51.76000 228.517
51.80000 237.270
51.84000 227.590
51.88000 231.647
51.92000 233.292
51.96000 226.912
52.00000 224.822
52.04000 229.624
52.08000 226.363
52.12000 220.090
52.16000 218.783
52.20000 217.118
52.24000 222.223
52.28000 208.493
52.32000 207.733
52.36000 210.789
52.40000 213.845
52.44000 215.749
52.48000 208.452
52.52000 211.346
52.56000 221.225
52.60000 226.736
52.64000 210.481
52.68000 209.559
52.72000 210.402
52.76000 216.346
52.80000 205.079
52.84000 213.802
52.88000 217.138
52.92000 222.726
52.96000 225.926
53.00000 230.147
53.04000 207.693
53.08000 218.686
53.12000 209.164
53.16000 234.770
53.20000 222.998
53.24000 226.736
53.28000 224.857
53.32000 234.088
53.36000 219.103
53.40000 219.432
53.44000 230.585
53.48000 232.170
53.52000 227.824
53.56000 218.265
53.60000 209.410
53.64000 205.361
53.68000 211.856
53.72000 209.418
53.76000 214.618
53.80000 219.896
53.84000 230.531
53.88000 207.551
53.92000 208.786
53.96000 208.854
54.00000 215.840
54.04000 214.562
54.08000 209.880
54.12000 206.277
54.16000 228.996
54.20000 204.139
54.24000 212.571
54.28000 206.481
54.32000 201.901
54.36000 222.444
54.40000 207.612
54.44000 208.794
54.48000 214.245
54.52000 207.325
54.56000 201.236
54.60000 225.395
54.64000 219.399
54.68000 197.869
54.72000 206.142
54.76000 218.378
54.80000 220.001
54.84000 205.874
54.88000 215.981
54.92000 220.010
54.96000 234.371
55.00000 231.254
55.04000 235.541
55.08000 239.473
55.12000 230.796
55.16000 247.917
55.20000 253.350
55.24000 242.125
55.28000 267.372
55.32000 262.084
55.36000 270.316
55.40000 300.357
55.44000 345.402
55.48000 387.895
55.52000 424.478
55.56000 508.344
55.60000 611.716
55.64000 769.975
55.68000 901.861
55.72000 1113.628
55.76000 1336.361
55.80000 1516.284
55.84000 1635.997
55.88000 1775.368
55.92000 1806.681
55.96000 1761.693
56.00000 1648.826
56.04000 1476.269
56.08000 1357.449
56.12000 1137.760
56.16000 974.447
56.20000 814.277
56.24000 670.948
56.28000 544.891
56.32000 435.255
56.36000 395.873
56.40000 348.784
56.44000 294.368
56.48000 264.329
56.52000 257.120
56.56000 247.596
56.60000 250.159
56.64000 220.920
56.68000 227.218
56.72000 234.796
56.76000 197.483
56.80000 201.587
56.84000 216.972
56.88000 204.585
56.92000 207.095
56.96000 202.394
57.00000 198.306
57.04000 206.283
57.08000 200.196
57.12000 191.532
57.16000 184.317
57.20000 193.442
57.24000 181.143
57.28000 190.632
57.32000 188.212
57.36000 182.082
57.40000 176.255
57.44000 186.599
57.48000 184.501
57.52000 176.604
57.56000 178.354
57.60000 181.874
57.64000 188.288
57.68000 182.710
57.72000 174.334
57.76000 173.064
57.80000 176.075
57.84000 175.076
57.88000 181.217
57.92000 171.647
57.96000 186.365
58.00000 164.852
58.04000 167.747
58.08000 160.030
58.12000 152.234
58.16000 163.334
58.20000 166.550
58.24000 172.385
58.28000 180.529
58.32000 167.704
58.36000 156.033
58.40000 170.081
58.44000 173.768
58.48000 170.997
58.52000 165.906
58.56000 173.821
58.60000 165.539
58.64000 166.011
58.68000 148.822
58.72000 173.210
58.76000 164.855
58.80000 171.777
58.84000 162.662
58.88000 164.121
58.92000 159.880
58.96000 157.233
59.00000 157.924
59.04000 165.698
59.08000 167.991
59.12000 168.594
59.16000 157.812
59.20000 154.859
59.24000 161.915
59.28000 158.070
59.32000 153.260
59.36000 163.049
59.40000 157.996
59.44000 162.953
59.48000 165.647
59.52000 154.479
59.56000 160.156
59.60000 165.503
59.64000 168.722
59.68000 156.092
59.72000 153.075
59.76000 163.219
59.80000 158.507
59.84000 157.326
59.88000 145.669
59.92000 148.608
59.96000 155.709
60.00000 147.814
60.04000 159.494
60.08000 157.618
60.12000 159.127
60.16000 164.159
60.20000 168.064
60.24000 158.344
60.28000 152.945
60.32000 150.945
60.36000 160.749
60.40000 158.914
60.44000 162.013
60.48000 147.861
60.52000 151.685
60.56000 162.018
60.60000 156.324
60.64000 150.167
60.68000 157.206
60.72000 151.591
60.76000 148.745
60.80000 163.701
60.84000 155.331
60.88000 157.968
60.92000 150.614
60.96000 147.127
61.00000 149.611
61.04000 146.153
61.08000 152.966
61.12000 155.243
61.16000 148.852
61.20000 155.694
61.24000 147.617
61.28000 148.223
61.32000 150.889
61.36000 147.843
61.40000 152.771
61.44000 149.968
61.48000 148.007
61.52000 145.851
61.56000 151.788
61.60000 143.175
61.64000 146.812
61.68000 148.124
61.72000 154.967
61.76000 152.112
61.80000 147.642
61.84000 140.412
61.88000 150.284
61.92000 151.812
61.96000 148.623
62.00000 143.096
62.04000 148.577
62.08000 150.829
62.12000 157.561
62.16000 151.159
62.20000 157.611
62.24000 145.182
62.28000 151.884
62.32000 143.615
62.36000 141.510
62.40000 145.700
62.44000 144.292
62.48000 141.034
62.52000 151.071
62.56000 148.606
62.60000 139.941
62.64000 142.722
62.68000 147.657
62.72000 142.481
62.76000 150.042
62.80000 145.064
62.84000 140.659
62.88000 147.728
62.92000 143.880
62.96000 137.851
63.00000 139.679
63.04000 143.360
63.08000 146.554
63.12000 136.456
63.16000 131.754
63.20000 141.757
63.24000 139.422
63.28000 147.942
63.32000 143.367
63.36000 137.488
63.40000 139.371
63.44000 132.402
63.48000 140.447
63.52000 141.845
63.56000 141.246
63.60000 140.620
63.64000 135.840
63.68000 135.880
63.72000 137.462
63.76000 145.640
63.80000 135.388
63.84000 143.188
63.88000 149.652
63.92000 135.243
63.96000 131.671
64.00000 135.760
64.04000 140.024
64.08000 140.130
64.12000 137.024
64.16000 131.812
64.20000 125.473
64.24000 132.233
64.28000 130.227
64.32000 133.417
64.36000 146.037
64.40000 141.881
64.44000 135.600
64.48000 142.894
64.52000 146.687
64.56000 146.934
64.60000 150.109
64.64000 149.464
64.68000 152.285
64.72000 162.120
64.76000 153.181
64.80000 143.031
64.84000 136.483
64.88000 132.563
64.92000 130.718
64.96000 141.614
65.00000 144.761
65.04000 137.077
65.08000 145.050
65.12000 139.452
65.16000 150.117
65.20000 139.303
65.24000 153.737
65.28000 130.801
65.32000 141.539
65.36000 142.290
65.40000 144.380
65.44000 142.714
65.48000 137.957
65.52000 149.818
65.56000 151.729
65.60000 149.608
65.64000 166.713
65.68000 144.204
65.72000 146.225
65.76000 154.989
65.80000 139.458
65.84000 142.710
65.88000 138.044
65.92000 134.980
65.96000 139.841
66.00000 136.827
66.04000 136.814
66.08000 139.857
66.12000 144.125
66.16000 136.824
66.20000 133.685
66.24000 134.536
66.28000 129.689
66.32000 139.650
66.36000 137.873
66.40000 140.516
66.44000 156.996
66.48000 144.667
66.52000 142.196
66.56000 139.141
66.60000 130.258
66.64000 134.824
66.68000 139.054
66.72000 137.106
66.76000 133.791
66.80000 128.041
66.84000 138.190
66.88000 135.472
66.92000 139.232
66.96000 142.372
67.00000 136.699
67.04000 127.456
67.08000 132.413
67.12000 133.095
67.16000 143.466
67.20000 133.836
67.24000 127.358
67.28000 136.298
67.32000 131.227
67.36000 130.478
67.40000 134.593
67.44000 138.899
67.48000 135.706
67.52000 136.549
67.56000 130.343
67.60000 142.473
67.64000 137.696
67.68000 140.340
67.72000 147.747
67.76000 135.845
67.80000 150.970
67.84000 144.913
67.88000 144.426
67.92000 140.886
67.96000 137.018
68.00000 147.325
68.04000 146.946
68.08000 139.480
68.12000 138.783
68.16000 139.152
68.20000 140.802
68.24000 146.772
68.28000 135.709
68.32000 138.773
68.36000 146.146
68.40000 146.602
68.44000 134.878
68.48000 147.272
68.52000 146.743
68.56000 146.036
68.60000 153.127
68.64000 159.133
68.68000 155.529
68.72000 150.816
68.76000 168.002
68.80000 169.935
68.84000 169.820
68.88000 164.968
68.92000 181.931
68.96000 226.332
69.00000 257.213
69.04000 287.866
69.08000 277.450
69.12000 283.429
69.16000 300.999
69.20000 285.382
69.24000 263.249
69.28000 244.768
69.32000 252.443
69.36000 264.321
69.40000 295.288
69.44000 315.328
69.48000 332.260
69.52000 342.616
69.56000 385.734
69.60000 411.556
69.64000 436.553
69.68000 464.119
69.72000 498.970
69.76000 542.059
69.80000 554.838
69.84000 566.619
69.88000 559.482
69.92000 603.663
69.96000 619.008
70.00000 627.025