File: XRD/XRD/17-11-2025 Crystal Plates/XY Data/STO_Si_Substrate_Raw.xy
20.00000 931.044
20.04000 951.265
20.08000 945.419
20.12000 924.487
20.16000 939.991
20.20000 937.451
20.24000 930.590
20.28000 937.403
20.32000 935.459
20.36000 932.682
20.40000 922.574
20.44000 957.841
20.48000 936.889
20.52000 940.180
20.56000 893.406
20.60000 887.811
20.64000 930.256
20.68000 925.680
20.72000 893.449
20.76000 888.974
20.80000 887.130
20.84000 905.364
20.88000 902.435
20.92000 926.258
20.96000 906.808
21.00000 878.037
21.04000 907.545
21.08000 907.658
21.12000 907.558
21.16000 904.641
21.20000 875.332
21.24000 879.315
21.28000 904.275
21.32000 888.514
21.36000 908.179
21.40000 891.532
21.44000 895.415
21.48000 881.772
21.52000 888.759
21.56000 911.752
21.60000 882.957
21.64000 890.626
21.68000 907.795
21.72000 902.272
21.76000 902.804
21.80000 898.559
21.84000 878.983
21.88000 909.904
21.92000 858.279
21.96000 876.968
22.00000 861.569
22.04000 881.952
22.08000 883.967
22.12000 885.671
22.16000 879.471
22.20000 877.688
22.24000 877.095
22.28000 867.584
22.32000 869.752
22.36000 892.200
22.40000 884.852
22.44000 864.874
22.48000 843.287
22.52000 851.582
22.56000 850.978
22.60000 874.338
22.64000 881.460
22.68000 884.817
22.72000 896.829
22.76000 848.745
22.80000 840.009
22.84000 844.871
22.88000 842.399
22.92000 847.773
22.96000 841.058
23.00000 857.324
23.04000 852.063
23.08000 844.543
23.12000 844.186
23.16000 841.408
23.20000 828.497
23.24000 845.206
23.28000 832.151
23.32000 804.418
23.36000 822.802
23.40000 847.600
23.44000 843.508
23.48000 813.953
23.52000 839.711
23.56000 832.277
23.60000 837.644
23.64000 830.785
23.68000 817.416
23.72000 825.744
23.76000 835.538
23.80000 806.606
23.84000 805.647
23.88000 800.793
23.92000 807.802
23.96000 786.924
24.00000 783.618
24.04000 782.949
24.08000 805.320
24.12000 794.609
24.16000 764.760
24.20000 796.354
24.24000 779.088
24.28000 786.817
24.32000 787.808
24.36000 768.002
24.40000 765.762
24.44000 772.203
24.48000 735.394
24.52000 758.017
24.56000 763.591
24.60000 752.460
24.64000 775.076
24.68000 747.411
24.72000 771.536
24.76000 753.694
24.80000 741.412
24.84000 753.182
24.88000 772.201
24.92000 748.364
24.96000 732.724
25.00000 731.407
25.04000 741.507
25.08000 738.877
25.12000 721.184
25.16000 726.306
25.20000 737.917
25.24000 728.100
25.28000 740.910
25.32000 731.762
25.36000 740.978
25.40000 707.649
25.44000 715.891
25.48000 710.296
25.52000 696.723
25.56000 720.669
25.60000 689.404
25.64000 686.692
25.68000 709.576
25.72000 699.957
25.76000 699.331
25.80000 713.631
25.84000 700.609
25.88000 699.348
25.92000 685.129
25.96000 689.835
26.00000 703.326
26.04000 674.757
26.08000 692.407
26.12000 660.668
26.16000 681.494
26.20000 677.912
26.24000 670.383
26.28000 658.227
26.32000 641.570
26.36000 674.864
26.40000 651.955
26.44000 665.445
26.48000 667.615
26.52000 652.403
26.56000 653.509
26.60000 654.149
26.64000 656.889
26.68000 659.218
26.72000 664.682
26.76000 651.327
26.80000 645.004
26.84000 671.438
26.88000 635.085
26.92000 639.063
26.96000 642.944
27.00000 634.794
27.04000 643.092
27.08000 642.225
27.12000 642.142
27.16000 634.798
27.20000 640.394
27.24000 629.538
27.28000 627.516
27.32000 625.323
27.36000 625.822
27.40000 616.869
27.44000 604.813
27.48000 592.154
27.52000 631.668
27.56000 634.857
27.60000 611.816
27.64000 629.850
27.68000 613.248
27.72000 602.247
27.76000 598.620
27.80000 624.267
27.84000 601.401
27.88000 598.151
27.92000 607.438
27.96000 606.165
28.00000 604.620
28.04000 605.971
28.08000 584.678
28.12000 603.477
28.16000 602.558
28.20000 593.787
28.24000 591.307
28.28000 590.226
28.32000 586.318
28.36000 591.326
28.40000 582.175
28.44000 583.845
28.48000 581.367
28.52000 565.397
28.56000 579.738
28.60000 572.031
28.64000 583.923
28.68000 576.169
28.72000 579.616
28.76000 577.771
28.80000 581.755
28.84000 575.635
28.88000 578.998
28.92000 571.596
28.96000 571.327
29.00000 580.669
29.04000 556.906
29.08000 564.112
29.12000 585.646
29.16000 571.713
29.20000 560.159
29.24000 536.455
29.28000 555.814
29.32000 586.145
29.36000 553.816
29.40000 569.233
29.44000 551.189
29.48000 565.288
29.52000 512.700
29.56000 551.684
29.60000 552.681
29.64000 534.591
29.68000 551.411
29.72000 532.089
29.76000 541.545
29.80000 541.261
29.84000 516.703
29.88000 554.640
29.92000 533.219
29.96000 551.981
30.00000 521.118
30.04000 526.341
30.08000 536.382
30.12000 542.975
30.16000 535.435
30.20000 530.653
30.24000 544.728
30.28000 536.082
30.32000 531.149
30.36000 534.917
30.40000 536.249
30.44000 535.550
30.48000 514.728
30.52000 513.442
30.56000 518.033
30.60000 501.875
30.64000 515.161
30.68000 514.840
30.72000 519.089
30.76000 515.177
30.80000 536.704
30.84000 520.190
30.88000 500.692
30.92000 515.165
30.96000 502.395
31.00000 519.204
31.04000 515.980
31.08000 485.079
31.12000 514.913
31.16000 511.110
31.20000 526.962
31.24000 500.391
31.28000 489.467
31.32000 504.067
31.36000 498.889
31.40000 518.576
31.44000 501.768
31.48000 494.630
31.52000 485.216
31.56000 493.830
31.60000 491.827
31.64000 506.052
31.68000 475.723
31.72000 500.559
31.76000 483.161
31.80000 500.392
31.84000 486.858
31.88000 469.682
31.92000 500.492
31.96000 507.027
32.00000 480.736
32.04000 491.141
32.08000 493.283
32.12000 483.779
32.16000 492.296
32.20000 477.314
32.24000 492.760
32.28000 480.967
32.32000 481.670
32.36000 483.911
32.40000 478.496
32.44000 485.457
32.48000 487.693
32.52000 485.646
32.56000 480.117
32.60000 475.218
32.64000 473.457
32.68000 481.646
32.72000 450.267
32.76000 478.192
32.80000 494.657
32.84000 461.001
32.88000 459.582
32.92000 443.610
32.96000 449.149
33.00000 452.083
33.04000 445.225
33.08000 457.923
33.12000 449.659
33.16000 474.457
33.20000 464.684
33.24000 472.814
33.28000 461.326
33.32000 460.823
33.36000 449.392
33.40000 466.776
33.44000 474.700
33.48000 464.693
33.52000 455.448
33.56000 445.451
33.60000 460.698
33.64000 444.251
33.68000 461.567
33.72000 469.060
33.76000 446.121
33.80000 448.896
33.84000 452.828
33.88000 445.517
33.92000 436.467
33.96000 463.082
34.00000 458.225
34.04000 452.632
34.08000 454.686
34.12000 446.049
34.16000 462.063
34.20000 452.969
34.24000 437.277
34.28000 453.611
34.32000 448.405
34.36000 423.306
34.40000 446.696
34.44000 430.901
34.48000 445.346
34.52000 448.476
34.56000 441.054
34.60000 426.282
34.64000 451.284
34.68000 429.655
34.72000 427.548
34.76000 440.507
34.80000 423.752
34.84000 431.898
34.88000 435.059
34.92000 441.516
34.96000 426.503
35.00000 415.900
35.04000 429.840
35.08000 437.728
35.12000 410.329
35.16000 424.716
35.20000 438.423
35.24000 431.893
35.28000 431.028
35.32000 431.255
35.36000 428.648
35.40000 422.009
35.44000 425.969
35.48000 418.112
35.52000 412.556
35.56000 424.157
35.60000 409.220
35.64000 420.937
35.68000 409.892
35.72000 423.715
35.76000 415.979
35.80000 424.441
35.84000 392.231
35.88000 400.708
35.92000 421.446
35.96000 398.772
36.00000 405.132
36.04000 393.690
36.08000 407.827
36.12000 394.314
36.16000 421.767
36.20000 408.403
36.24000 406.484
36.28000 418.460
36.32000 414.479
36.36000 402.294
36.40000 404.642
36.44000 400.519
36.48000 376.166
36.52000 393.220
36.56000 397.155
36.60000 413.218
36.64000 395.127
36.68000 402.886
36.72000 403.251
36.76000 393.612
36.80000 389.535
36.84000 386.457
36.88000 403.839
36.92000 393.814
36.96000 397.767
37.00000 390.010
37.04000 375.086
37.08000 404.576
37.12000 386.046
37.16000 389.212
37.20000 391.268
37.24000 392.458
37.28000 391.057
37.32000 395.367
37.36000 395.392
37.40000 386.024
37.44000 393.728
37.48000 394.802
37.52000 370.705
37.56000 395.343
37.60000 386.074
37.64000 407.483
37.68000 389.169
37.72000 391.657
37.76000 380.763
37.80000 392.051
37.84000 380.441
37.88000 374.465
37.92000 392.962
37.96000 384.391
38.00000 375.924
38.04000 398.245
38.08000 377.759
38.12000 379.306
38.16000 381.136
38.20000 375.762
38.24000 395.596
38.28000 374.472
38.32000 388.066
38.36000 373.715
38.40000 375.280
38.44000 357.196
38.48000 364.115
38.52000 364.483
38.56000 368.719
38.60000 379.549
38.64000 366.327
38.68000 383.278
38.72000 363.424
38.76000 366.642
38.80000 368.155
38.84000 358.274
38.88000 368.661
38.92000 366.130
38.96000 367.016
39.00000 363.070
39.04000 346.188
39.08000 357.496
39.12000 359.691
39.16000 350.959
39.20000 352.371
39.24000 356.720
39.28000 351.544
39.32000 367.159
39.36000 378.244
39.40000 369.824
39.44000 362.472
39.48000 365.841
39.52000 344.528
39.56000 359.315
39.60000 336.442
39.64000 358.880
39.68000 344.673
39.72000 347.450
39.76000 335.312
39.80000 330.332
39.84000 354.189
39.88000 378.386
39.92000 369.870
39.96000 361.011
40.00000 329.043
40.04000 343.469
40.08000 367.535
40.12000 352.120
40.16000 358.829
40.20000 343.510
40.24000 356.859
40.28000 341.104
40.32000 338.127
40.36000 336.508
40.40000 314.795
40.44000 340.926
40.48000 346.176
40.52000 340.725
40.56000 347.693
40.60000 339.339
40.64000 340.529
40.68000 327.741
40.72000 348.858
40.76000 345.771
40.80000 345.777
40.84000 336.718
40.88000 339.624
40.92000 343.702
40.96000 320.804
41.00000 332.259
41.04000 331.453
41.08000 329.355
41.12000 331.855
41.16000 333.364
41.20000 324.002
41.24000 335.377
41.28000 327.453
41.32000 338.492
41.36000 317.060
41.40000 330.591
41.44000 318.914
41.48000 324.623
41.52000 341.012
41.56000 325.513
41.60000 326.092
41.64000 327.564
41.68000 330.193
41.72000 334.941
41.76000 318.065
41.80000 314.911
41.84000 330.015
41.88000 331.559
41.92000 311.294
41.96000 338.465
42.00000 316.913
42.04000 316.637
42.08000 322.149
42.12000 322.458
42.16000 319.517
42.20000 305.488
42.24000 311.456
42.28000 327.614
42.32000 312.265
42.36000 328.136
42.40000 322.337
42.44000 326.537
42.48000 314.078
42.52000 328.661
42.56000 326.705
42.60000 324.848
42.64000 323.014
42.68000 325.912
42.72000 295.436
42.76000 310.960
42.80000 312.043
42.84000 315.521
42.88000 306.066
42.92000 308.439
42.96000 323.201
43.00000 310.645
43.04000 309.510
43.08000 307.222
43.12000 302.137
43.16000 307.112
43.20000 319.437
43.24000 317.338
43.28000 295.754
43.32000 297.786
43.36000 294.947
43.40000 307.672
43.44000 292.107
43.48000 298.983
43.52000 287.415
43.56000 303.591
43.60000 302.334
43.64000 296.777
43.68000 307.249
43.72000 296.816
43.76000 302.308
43.80000 309.204
43.84000 303.325
43.88000 299.986
43.92000 293.658
43.96000 296.590
44.00000 288.332
44.04000 288.789
44.08000 302.880
44.12000 312.428
44.16000 294.477
44.20000 298.218
44.24000 306.681
44.28000 302.458
44.32000 293.114
44.36000 299.932
44.40000 284.886
44.44000 301.708
44.48000 303.427
44.52000 306.361
44.56000 296.220
44.60000 289.244
44.64000 290.661
44.68000 303.547
44.72000 309.674
44.76000 299.198
44.80000 301.152
44.84000 311.439
44.88000 315.082
44.92000 308.545
44.96000 321.024
45.00000 310.039
45.04000 302.641
45.08000 307.922
45.12000 324.944
45.16000 313.326
45.20000 330.344
45.24000 320.765
45.28000 330.371
45.32000 333.739
45.36000 336.732
45.40000 338.209
45.44000 359.154
45.48000 332.739
45.52000 335.511
45.56000 338.988
45.60000 347.711
45.64000 342.654
45.68000 351.451
45.72000 346.225
45.76000 358.084
45.80000 359.871
45.84000 353.646
45.88000 350.048
45.92000 363.282
45.96000 353.461
46.00000 356.276
46.04000 356.303
46.08000 372.130
46.12000 366.625
46.16000 368.310
46.20000 357.574
46.24000 370.874
46.28000 384.333
46.32000 364.631
46.36000 357.123
46.40000 356.275
46.44000 384.321
46.48000 362.812
46.52000 355.274
46.56000 367.531
46.60000 377.114
46.64000 370.097
46.68000 383.615
46.72000 371.782
46.76000 381.045
46.80000 360.061
46.84000 377.781
46.88000 365.906
46.92000 382.271
46.96000 372.708
47.00000 367.772
47.04000 379.285
47.08000 364.681
47.12000 368.042
47.16000 370.458
47.20000 363.052
47.24000 360.311
47.28000 360.846
47.32000 338.032
47.36000 358.008
47.40000 336.506
47.44000 352.865
47.48000 338.631
47.52000 345.632
47.56000 334.891
47.60000 342.706
47.64000 328.344
47.68000 340.550
47.72000 320.508
47.76000 313.026
47.80000 323.726
47.84000 323.435
47.88000 308.010
47.92000 309.986
47.96000 318.977
48.00000 314.326
48.04000 302.642
48.08000 293.939
48.12000 292.980
48.16000 295.169
48.20000 293.574
48.24000 297.642
48.28000 274.685
48.32000 270.952
48.36000 274.794
48.40000 288.584
48.44000 288.205
48.48000 266.271
48.52000 277.190
48.56000 266.068
48.60000 262.248
48.64000 269.471
48.68000 261.657
48.72000 251.734
48.76000 254.059
48.80000 253.234
48.84000 251.880
48.88000 267.159
48.92000 237.985
48.96000 252.726
49.00000 237.252
49.04000 248.700
49.08000 250.687
49.12000 247.117
49.16000 250.150
49.20000 252.358
49.24000 248.771
49.28000 239.132
49.32000 257.604
49.36000 230.290
49.40000 240.842
49.44000 241.933
49.48000 231.218
49.52000 246.349
49.56000 242.110
49.60000 233.224
49.64000 242.101
49.68000 234.621
49.72000 244.363
49.76000 235.448
49.80000 225.055
49.84000 234.751
49.88000 228.008
49.92000 234.069
49.96000 237.098
50.00000 233.595
50.04000 236.567
50.08000 234.694
50.12000 228.223
50.16000 238.673
50.20000 221.807
50.24000 231.424
50.28000 227.271
50.32000 238.586
50.36000 231.322
50.40000 226.322
50.44000 226.985
50.48000 217.725
50.52000 233.865
50.56000 230.968
50.60000 227.566
50.64000 225.464
50.68000 221.586
50.72000 233.744
50.76000 220.308
50.80000 227.532
50.84000 206.487
50.88000 216.918
50.92000 231.870
50.96000 219.419
51.00000 226.633
51.04000 228.947
51.08000 217.954
51.12000 225.616
51.16000 223.304
51.20000 226.646
51.24000 230.074
51.28000 218.004
51.32000 224.417
51.36000 229.834
51.40000 226.180
51.44000 231.124
51.48000 220.558
51.52000 229.481
51.56000 213.736
51.60000 223.972
51.64000 214.386
51.68000 218.486
51.72000 225.335
51.76000 227.971
51.80000 217.603
51.84000 223.307
51.88000 208.027
51.92000 211.766
51.96000 231.125
52.00000 216.578
52.04000 219.934
52.08000 212.188
52.12000 218.804
52.16000 203.946
52.20000 209.156
52.24000 203.607
52.28000 213.038
52.32000 226.333
52.36000 210.488
52.40000 211.251
52.44000 212.799
52.48000 219.543
52.52000 204.856
52.56000 209.199
52.60000 211.472
52.64000 207.090
52.68000 218.339
52.72000 208.322
52.76000 205.079
52.80000 204.990
52.84000 216.688
52.88000 226.585
52.92000 213.564
52.96000 206.959
53.00000 208.945
53.04000 204.633
53.08000 201.890
53.12000 205.930
53.16000 220.824
53.20000 213.510
53.24000 203.336
53.28000 198.537
53.32000 215.077
53.36000 207.853
53.40000 203.876
53.44000 205.336
53.48000 213.594
53.52000 203.295
53.56000 201.145
53.60000 209.122
53.64000 215.083
53.68000 200.881
53.72000 202.579
53.76000 218.341
53.80000 208.428
53.84000 206.845
53.88000 204.497
53.92000 202.579
53.96000 186.450
54.00000 195.967
54.04000 194.672
54.08000 196.646
54.12000 206.142
54.16000 195.417
54.20000 194.914
54.24000 203.355
54.28000 205.750
54.32000 199.212
54.36000 200.212
54.40000 190.113
54.44000 192.627
54.48000 198.011
54.52000 203.165
54.56000 202.818
54.60000 198.383
54.64000 196.071
54.68000 192.125
54.72000 191.263
54.76000 186.979
54.80000 195.789
54.84000 199.499
54.88000 189.381
54.92000 196.371
54.96000 205.735
55.00000 198.622
55.04000 191.470
55.08000 198.482
55.12000 192.715
55.16000 193.059
55.20000 194.808
55.24000 202.423
55.28000 186.869
55.32000 194.450
55.36000 185.634
55.40000 180.223
55.44000 194.950
55.48000 210.617
55.52000 184.171
55.56000 193.925
55.60000 189.185
55.64000 193.161
55.68000 198.563
55.72000 191.978
55.76000 178.586
55.80000 182.204
55.84000 186.995
55.88000 189.307
55.92000 182.089
55.96000 182.556
56.00000 186.365
56.04000 206.348
56.08000 188.268
56.12000 195.015
56.16000 203.358
56.20000 198.287
56.24000 184.412
56.28000 179.882
56.32000 187.582
56.36000 200.820
56.40000 197.901
56.44000 193.701
56.48000 193.404
56.52000 191.784
56.56000 187.445
56.60000 176.942
56.64000 188.835
56.68000 187.936
56.72000 190.606
56.76000 197.443
56.80000 189.970
56.84000 180.799
56.88000 182.664
56.92000 190.669
56.96000 187.068
57.00000 171.895
57.04000 179.958
57.08000 189.302
57.12000 178.790
57.16000 179.020
57.20000 174.625
57.24000 182.659
57.28000 187.073
57.32000 176.408
57.36000 198.498
57.40000 181.618
57.44000 178.488
57.48000 170.335
57.52000 180.559
57.56000 181.633
57.60000 194.744
57.64000 188.207
57.68000 182.261
57.72000 195.808
57.76000 190.060
57.80000 193.046
57.84000 173.951
57.88000 173.605
57.92000 178.869
57.96000 182.750
58.00000 181.595
58.04000 176.529
58.08000 179.900
58.12000 177.681
58.16000 178.271
58.20000 188.519
58.24000 178.006
58.28000 172.258
58.32000 174.642
58.36000 178.875
58.40000 169.747
58.44000 181.562
58.48000 181.249
58.52000 182.152
58.56000 176.646
58.60000 162.140
58.64000 174.332
58.68000 177.403
58.72000 180.377
58.76000 176.710
58.80000 172.252
58.84000 185.513
58.88000 177.668
58.92000 177.657
58.96000 173.498
59.00000 190.540
59.04000 180.578
59.08000 179.292
59.12000 181.528
59.16000 175.942
59.20000 177.285
59.24000 175.483
59.28000 174.783
59.32000 178.534
59.36000 173.845
59.40000 176.265
59.44000 170.733
59.48000 180.117
59.52000 163.380
59.56000 171.678
59.60000 177.282
59.64000 173.290
59.68000 170.619
59.72000 180.240
59.76000 192.928
59.80000 177.985
59.84000 176.056
59.88000 171.956
59.92000 183.921
59.96000 171.936
60.00000 173.142
60.04000 181.999
60.08000 169.664
60.12000 169.441
60.16000 176.592
60.20000 170.141
60.24000 185.185
60.28000 172.737
60.32000 179.853
60.36000 179.392
60.40000 185.844
60.44000 178.542
60.48000 184.935
60.52000 171.187
60.56000 174.139
60.60000 171.360
60.64000 174.423
60.68000 181.856
60.72000 172.457
60.76000 178.100
60.80000 194.276
60.84000 177.187
60.88000 174.544
60.92000 173.084
60.96000 181.930
61.00000 179.755
61.04000 170.661
61.08000 175.000
61.12000 178.170
61.16000 188.010
61.20000 179.495
61.24000 175.094
61.28000 183.505
61.32000 172.851
61.36000 186.810
61.40000 177.947
61.44000 168.278
61.48000 182.146
61.52000 178.072
61.56000 189.430
61.60000 194.072
61.64000 201.516
61.68000 245.541
61.72000 289.793
61.76000 305.061
61.80000 312.393
61.84000 326.788
61.88000 300.788
61.92000 259.590
61.96000 226.722
62.00000 198.096
62.04000 191.805
62.08000 190.284
62.12000 191.302
62.16000 186.610
62.20000 185.916
62.24000 178.344
62.28000 183.078
62.32000 178.345
62.36000 180.376
62.40000 180.463
62.44000 187.384
62.48000 191.251
62.52000 194.307
62.56000 179.527
62.60000 186.159
62.64000 182.344
62.68000 181.228
62.72000 193.560
62.76000 186.177
62.80000 181.734
62.84000 177.287
62.88000 195.927
62.92000 187.132
62.96000 184.014
63.00000 187.432
63.04000 183.155
63.08000 188.589
63.12000 181.440
63.16000 187.663
63.20000 197.646
63.24000 194.811
63.28000 199.555
63.32000 198.011
63.36000 187.347
63.40000 184.373
63.44000 198.733
63.48000 189.021
63.52000 192.888
63.56000 184.026
63.60000 194.190
63.64000 187.368
63.68000 188.455
63.72000 191.931
63.76000 187.704
63.80000 204.065
63.84000 200.163
63.88000 198.428
63.92000 190.918
63.96000 206.692
64.00000 192.831
64.04000 204.793
64.08000 191.997
64.12000 200.060
64.16000 202.273
64.20000 194.258
64.24000 215.844
64.28000 207.179
64.32000 213.344
64.36000 205.478
64.40000 199.818
64.44000 211.278
64.48000 213.940
64.52000 216.540
64.56000 208.269
64.60000 215.027
64.64000 206.827
64.68000 213.404
64.72000 216.664
64.76000 222.037
64.80000 221.461
64.84000 217.796
64.88000 217.864
64.92000 227.612
64.96000 228.646
65.00000 231.231
65.04000 223.498
65.08000 223.055
65.12000 231.448
65.16000 231.497
65.20000 230.308
65.24000 239.104
65.28000 240.014
65.32000 224.301
65.36000 253.184
65.40000 264.282
65.44000 259.231
65.48000 260.036
65.52000 273.936
65.56000 262.010
65.60000 278.823
65.64000 300.471
65.68000 289.280
65.72000 321.586
65.76000 351.013
65.80000 425.840
65.84000 585.243
65.88000 822.978
65.92000 980.637
65.96000 1070.830
66.00000 1098.088
66.04000 1051.740
66.08000 889.650
66.12000 641.735
66.16000 445.197
66.20000 383.451
66.24000 355.760
66.28000 354.502
66.32000 360.560
66.36000 372.326
66.40000 406.205
66.44000 443.228
66.48000 499.150
66.52000 489.807
66.56000 530.588
66.60000 486.280
66.64000 466.285
66.68000 409.267
66.72000 387.037
66.76000 381.271
66.80000 383.805
66.84000 383.657
66.88000 395.108
66.92000 391.886
66.96000 412.932
67.00000 404.343
67.04000 428.636
67.08000 416.913
67.12000 422.662
67.16000 427.817
67.20000 434.199
67.24000 450.647
67.28000 446.809
67.32000 436.063
67.36000 466.423
67.40000 463.039
67.44000 487.921
67.48000 489.565
67.52000 486.940
67.56000 507.514
67.60000 499.925
67.64000 522.450
67.68000 546.912
67.72000 518.304
67.76000 558.717
67.80000 559.105
67.84000 570.275
67.88000 572.714
67.92000 598.354
67.96000 603.984
68.00000 637.505
68.04000 636.378
68.08000 660.556
68.12000 656.353
68.16000 692.009
68.20000 700.726
68.24000 696.950
68.28000 725.753
68.32000 728.874
68.36000 787.542
68.40000 799.362
68.44000 806.409
68.48000 841.302
68.52000 876.515
68.56000 922.691
68.60000 938.432
68.64000 1024.907
68.68000 1071.817
68.72000 1200.151
68.76000 1407.564
68.80000 1619.437
68.84000 1856.442
68.88000 2095.160
68.92000 2341.929
68.96000 2646.705
69.00000 3659.786
69.04000 7023.543
69.08000 19574.184
69.12000 41427.145
69.16000 58931.797
69.20000 65479.199
69.24000 66241.805
69.28000 68012.125
69.32000 66543.477
69.36000 53478.137
69.40000 41068.023
69.44000 34813.488
69.48000 31333.162
69.52000 23783.516
69.56000 13010.262
69.60000 5663.483
69.64000 2876.417
69.68000 2029.841
69.72000 1731.775
69.76000 1492.803
69.80000 1345.496
69.84000 1224.324
69.88000 1123.138
69.92000 1092.027
69.96000 1011.709
70.00000 965.360