File: XRD/XRD/17-11-2025 Crystal Plates/XY Data/STO_Crystal_Raw.xy
20.00000 674.534
20.04000 681.353
20.08000 691.607
20.12000 698.532
20.16000 673.079
20.20000 656.897
20.24000 666.064
20.28000 665.676
20.32000 672.294
20.36000 668.721
20.40000 657.656
20.44000 713.967
20.48000 722.529
20.52000 759.701
20.56000 761.513
20.60000 762.595
20.64000 711.839
20.68000 684.927
20.72000 671.606
20.76000 684.407
20.80000 667.282
20.84000 688.212
20.88000 661.816
20.92000 684.101
20.96000 685.860
21.00000 664.549
21.04000 661.328
21.08000 682.321
21.12000 662.148
21.16000 666.045
21.20000 674.841
21.24000 666.090
21.28000 676.423
21.32000 657.197
21.36000 676.286
21.40000 673.927
21.44000 647.603
21.48000 684.120
21.52000 669.620
21.56000 676.329
21.60000 704.412
21.64000 732.713
21.68000 874.480
21.72000 1043.674
21.76000 1188.285
21.80000 1212.205
21.84000 1268.268
21.88000 1280.063
21.92000 1115.435
21.96000 938.512
22.00000 890.820
22.04000 886.307
22.08000 876.755
22.12000 810.594
22.16000 812.209
22.20000 863.002
22.24000 874.390
22.28000 895.017
22.32000 914.408
22.36000 935.401
22.40000 999.860
22.44000 1084.268
22.48000 1203.739
22.52000 1431.236
22.56000 2364.422
22.60000 7115.403
22.64000 21028.795
22.68000 39101.004
22.72000 53447.984
22.76000 58774.438
22.80000 56850.594
22.84000 50245.758
22.88000 35117.691
22.92000 18709.943
22.96000 7207.047
23.00000 2432.906
23.04000 1404.356
23.08000 1169.704
23.12000 1047.952
23.16000 1022.241
23.20000 943.118
23.24000 879.472
23.28000 852.754
23.32000 823.173
23.36000 775.718
23.40000 740.234
23.44000 717.597
23.48000 700.144
23.52000 693.174
23.56000 685.570
23.60000 687.179
23.64000 656.634
23.68000 649.113
23.72000 654.559
23.76000 636.380
23.80000 634.991
23.84000 634.067
23.88000 633.039
23.92000 623.387
23.96000 612.868
24.00000 628.188
24.04000 603.112
24.08000 612.890
24.12000 604.883
24.16000 626.704
24.20000 592.451
24.24000 576.466
24.28000 578.554
24.32000 582.862
24.36000 581.445
24.40000 610.322
24.44000 607.132
24.48000 570.670
24.52000 589.689
24.56000 586.718
24.60000 585.018
24.64000 573.135
24.68000 579.677
24.72000 587.505
24.76000 596.105
24.80000 587.953
24.84000 597.376
24.88000 587.604
24.92000 589.478
24.96000 574.991
25.00000 583.349
25.04000 568.327
25.08000 586.213
25.12000 559.349
25.16000 569.131
25.20000 576.490
25.24000 560.515
25.28000 535.544
25.32000 565.080
25.36000 557.609
25.40000 568.688
25.44000 560.640
25.48000 559.758
25.52000 554.310
25.56000 561.177
25.60000 579.343
25.64000 526.459
25.68000 543.976
25.72000 545.745
25.76000 540.292
25.80000 575.851
25.84000 538.833
25.88000 531.982
25.92000 549.167
25.96000 550.225
26.00000 550.330
26.04000 543.805
26.08000 538.425
26.12000 528.912
26.16000 552.347
26.20000 554.303
26.24000 510.855
26.28000 552.661
26.32000 551.739
26.36000 553.205
26.40000 540.381
26.44000 542.948
26.48000 534.120
26.52000 557.419
26.56000 543.226
26.60000 518.257
26.64000 528.547
26.68000 541.588
26.72000 541.555
26.76000 514.669
26.80000 515.450
26.84000 532.544
26.88000 517.262
26.92000 529.244
26.96000 524.921
27.00000 536.254
27.04000 520.243
27.08000 523.611
27.12000 513.868
27.16000 506.155
27.20000 522.305
27.24000 513.647
27.28000 521.609
27.32000 525.292
27.36000 520.393
27.40000 530.635
27.44000 517.904
27.48000 511.911
27.52000 520.721
27.56000 505.992
27.60000 519.786
27.64000 509.724
27.68000 492.137
27.72000 501.972
27.76000 516.478
27.80000 511.820
27.84000 506.306
27.88000 496.564
27.92000 510.932
27.96000 497.821
28.00000 517.377
28.04000 516.238
28.08000 500.372
28.12000 517.615
28.16000 487.655
28.20000 479.490
28.24000 503.741
28.28000 486.480
28.32000 494.607
28.36000 507.387
28.40000 496.779
28.44000 487.657
28.48000 496.667
28.52000 493.442
28.56000 485.367
28.60000 480.129
28.64000 490.558
28.68000 492.502
28.72000 475.363
28.76000 492.771
28.80000 510.375
28.84000 481.333
28.88000 484.248
28.92000 485.508
28.96000 473.391
29.00000 472.557
29.04000 489.975
29.08000 490.258
29.12000 457.946
29.16000 479.767
29.20000 488.253
29.24000 469.347
29.28000 478.604
29.32000 463.846
29.36000 475.891
29.40000 472.780
29.44000 467.966
29.48000 482.726
29.52000 461.440
29.56000 455.330
29.60000 465.664
29.64000 459.127
29.68000 462.860
29.72000 433.788
29.76000 454.839
29.80000 452.396
29.84000 475.617
29.88000 455.255
29.92000 463.792
29.96000 445.081
30.00000 444.140
30.04000 458.655
30.08000 443.282
30.12000 457.306
30.16000 476.324
30.20000 450.660
30.24000 456.092
30.28000 459.048
30.32000 460.768
30.36000 442.715
30.40000 457.722
30.44000 451.155
30.48000 439.006
30.52000 453.950
30.56000 452.383
30.60000 454.871
30.64000 462.993
30.68000 433.461
30.72000 461.283
30.76000 425.110
30.80000 451.695
30.84000 446.987
30.88000 443.777
30.92000 464.196
30.96000 449.184
31.00000 430.467
31.04000 445.029
31.08000 428.528
31.12000 438.078
31.16000 444.635
31.20000 447.098
31.24000 424.265
31.28000 440.451
31.32000 430.974
31.36000 439.428
31.40000 421.476
31.44000 430.740
31.48000 440.642
31.52000 444.420
31.56000 433.483
31.60000 437.048
31.64000 435.933
31.68000 409.592
31.72000 446.278
31.76000 426.062
31.80000 437.128
31.84000 445.344
31.88000 445.034
31.92000 430.203
31.96000 424.196
32.00000 398.566
32.04000 409.679
32.08000 415.126
32.12000 425.188
32.16000 413.628
32.20000 409.997
32.24000 415.943
32.28000 403.875
32.32000 434.645
32.36000 425.455
32.40000 413.359
32.44000 424.359
32.48000 421.789
32.52000 431.913
32.56000 406.552
32.60000 392.898
32.64000 416.745
32.68000 420.317
32.72000 407.266
32.76000 411.325
32.80000 404.958
32.84000 404.477
32.88000 407.586
32.92000 392.847
32.96000 413.207
33.00000 418.681
33.04000 428.329
33.08000 407.044
33.12000 396.816
33.16000 400.487
33.20000 397.541
33.24000 404.537
33.28000 395.430
33.32000 395.616
33.36000 418.268
33.40000 401.236
33.44000 420.753
33.48000 408.594
33.52000 390.627
33.56000 382.239
33.60000 383.730
33.64000 399.725
33.68000 396.947
33.72000 391.821
33.76000 391.320
33.80000 390.846
33.84000 395.489
33.88000 387.719
33.92000 386.137
33.96000 387.168
34.00000 387.753
34.04000 387.543
34.08000 379.102
34.12000 374.514
34.16000 363.626
34.20000 390.446
34.24000 403.064
34.28000 392.057
34.32000 383.768
34.36000 390.413
34.40000 383.085
34.44000 386.874
34.48000 383.548
34.52000 385.663
34.56000 385.965
34.60000 415.009
34.64000 369.279
34.68000 394.444
34.72000 378.704
34.76000 378.806
34.80000 375.907
34.84000 356.581
34.88000 379.905
34.92000 368.713
34.96000 391.309
35.00000 384.365
35.04000 371.249
35.08000 369.776
35.12000 352.785
35.16000 375.029
35.20000 366.025
35.24000 374.790
35.28000 377.876
35.32000 389.738
35.36000 365.412
35.40000 368.921
35.44000 370.902
35.48000 352.238
35.52000 368.655
35.56000 382.025
35.60000 354.612
35.64000 364.679
35.68000 376.397
35.72000 356.560
35.76000 352.663
35.80000 359.101
35.84000 360.798
35.88000 356.871
35.92000 348.505
35.96000 366.109
36.00000 362.521
36.04000 363.105
36.08000 364.560
36.12000 351.721
36.16000 364.448
36.20000 363.031
36.24000 340.500
36.28000 375.853
36.32000 369.111
36.36000 337.391
36.40000 356.665
36.44000 373.511
36.48000 335.051
36.52000 351.170
36.56000 361.899
36.60000 363.921
36.64000 355.890
36.68000 351.954
36.72000 351.639
36.76000 343.753
36.80000 341.628
36.84000 358.566
36.88000 350.489
36.92000 355.662
36.96000 347.634
37.00000 354.752
37.04000 352.540
37.08000 338.687
37.12000 350.681
37.16000 355.263
37.20000 360.601
37.24000 351.576
37.28000 346.992
37.32000 333.875
37.36000 335.367
37.40000 318.726
37.44000 354.627
37.48000 349.332
37.52000 335.093
37.56000 340.309
37.60000 352.066
37.64000 348.947
37.68000 338.372
37.72000 334.263
37.76000 324.081
37.80000 365.231
37.84000 336.318
37.88000 338.786
37.92000 331.978
37.96000 336.754
38.00000 328.106
38.04000 331.517
38.08000 325.993
38.12000 321.853
38.16000 324.734
38.20000 318.644
38.24000 339.392
38.28000 332.421
38.32000 352.510
38.36000 357.878
38.40000 342.042
38.44000 349.807
38.48000 339.892
38.52000 321.762
38.56000 332.872
38.60000 345.586
38.64000 330.692
38.68000 339.767
38.72000 334.964
38.76000 339.250
38.80000 324.685
38.84000 332.085
38.88000 320.337
38.92000 315.117
38.96000 318.720
39.00000 324.534
39.04000 328.510
39.08000 332.996
39.12000 326.220
39.16000 323.835
39.20000 323.231
39.24000 330.988
39.28000 328.869
39.32000 328.449
39.36000 315.332
39.40000 307.752
39.44000 315.255
39.48000 321.183
39.52000 324.692
39.56000 294.683
39.60000 314.332
39.64000 312.605
39.68000 317.652
39.72000 314.048
39.76000 310.852
39.80000 319.150
39.84000 323.344
39.88000 322.168
39.92000 312.058
39.96000 300.662
40.00000 318.355
40.04000 316.294
40.08000 315.489
40.12000 316.716
40.16000 322.809
40.20000 304.143
40.24000 326.653
40.28000 325.272
40.32000 328.100
40.36000 318.303
40.40000 316.014
40.44000 319.399
40.48000 310.445
40.52000 306.913
40.56000 310.097
40.60000 302.584
40.64000 318.137
40.68000 310.492
40.72000 301.632
40.76000 308.267
40.80000 315.749
40.84000 314.015
40.88000 324.875
40.92000 314.419
40.96000 290.317
41.00000 300.279
41.04000 328.472
41.08000 329.354
41.12000 310.613
41.16000 307.135
41.20000 314.250
41.24000 307.133
41.28000 298.706
41.32000 324.855
41.36000 316.307
41.40000 328.782
41.44000 349.133
41.48000 326.893
41.52000 344.350
41.56000 345.248
41.60000 384.600
41.64000 513.063
41.68000 675.858
41.72000 800.909
41.76000 892.718
41.80000 912.066
41.84000 914.297
41.88000 761.021
41.92000 555.839
41.96000 422.277
42.00000 378.213
42.04000 344.157
42.08000 341.553
42.12000 342.616
42.16000 350.699
42.20000 354.212
42.24000 348.612
42.28000 330.660
42.32000 342.808
42.36000 340.829
42.40000 350.224
42.44000 341.940
42.48000 333.207
42.52000 354.675
42.56000 358.364
42.60000 362.783
42.64000 343.900
42.68000 346.269
42.72000 360.838
42.76000 350.018
42.80000 370.601
42.84000 352.939
42.88000 364.946
42.92000 367.929
42.96000 346.098
43.00000 361.225
43.04000 359.636
43.08000 377.701
43.12000 353.869
43.16000 377.467
43.20000 381.445
43.24000 378.609
43.28000 379.363
43.32000 383.647
43.36000 389.521
43.40000 381.264
43.44000 382.759
43.48000 393.080
43.52000 385.574
43.56000 404.420
43.60000 384.274
43.64000 417.508
43.68000 395.861
43.72000 409.849
43.76000 428.728
43.80000 439.289
43.84000 429.885
43.88000 437.764
43.92000 450.019
43.96000 467.863
44.00000 484.663
44.04000 473.176
44.08000 512.376
44.12000 530.612
44.16000 572.260
44.20000 613.648
44.24000 832.809
44.28000 1366.404
44.32000 2308.980
44.36000 3326.796
44.40000 3924.539
44.44000 4108.102
44.48000 4093.105
44.52000 3586.440
44.56000 2463.429
44.60000 1475.448
44.64000 1169.759
44.68000 1275.689
44.72000 1397.628
44.76000 1463.589
44.80000 1507.756
44.84000 1508.806
44.88000 1396.644
44.92000 1153.632
44.96000 995.348
45.00000 969.794
45.04000 991.668
45.08000 987.599
45.12000 1045.531
45.16000 1071.168
45.20000 1118.457
45.24000 1145.814
45.28000 1171.443
45.32000 1200.243
45.36000 1313.914
45.40000 1321.417
45.44000 1375.667
45.48000 1426.152
45.52000 1507.861
45.56000 1549.412
45.60000 1630.637
45.64000 1706.579
45.68000 1747.698
45.72000 1842.744
45.76000 1871.308
45.80000 1991.981
45.84000 2124.948
45.88000 2265.922
45.92000 2400.001
45.96000 2574.620
46.00000 2798.778
46.04000 3063.705
46.08000 3591.170
46.12000 4571.891
46.16000 5963.119
46.20000 7552.237
46.24000 10647.795
46.28000 20146.848
46.32000 68635.492
46.36000 162501.063
46.40000 253065.781
46.44000 309305.656
46.48000 349695.906
46.52000 370963.313
46.56000 343588.156
46.60000 248677.563
46.64000 166810.141
46.68000 118104.844
46.72000 66564.656
46.76000 26657.537
46.80000 10009.032
46.84000 6298.219
46.88000 4953.318
46.92000 4108.819
46.96000 3628.860
47.00000 3268.514
47.04000 3034.847
47.08000 2729.407
47.12000 2544.690
47.16000 2387.316
47.20000 2261.564
47.24000 2082.762
47.28000 1963.599
47.32000 1815.812
47.36000 1736.217
47.40000 1649.838
47.44000 1519.314
47.48000 1449.062
47.52000 1391.085
47.56000 1294.795
47.60000 1231.640
47.64000 1168.757
47.68000 1125.590
47.72000 1059.430
47.76000 987.345
47.80000 969.464
47.84000 911.556
47.88000 876.658
47.92000 804.279
47.96000 787.341
48.00000 745.245
48.04000 740.087
48.08000 709.955
48.12000 668.582
48.16000 653.831
48.20000 642.089
48.24000 592.214
48.28000 578.052
48.32000 572.319
48.36000 563.721
48.40000 518.275
48.44000 494.852
48.48000 489.579
48.52000 491.570
48.56000 462.344
48.60000 476.930
48.64000 468.064
48.68000 459.479
48.72000 443.468
48.76000 432.804
48.80000 419.270
48.84000 416.673
48.88000 401.396
48.92000 409.213
48.96000 400.281
49.00000 393.073
49.04000 373.461
49.08000 378.458
49.12000 371.359
49.16000 364.288
49.20000 352.265
49.24000 342.457
49.28000 354.698
49.32000 351.049
49.36000 356.750
49.40000 340.044
49.44000 333.237
49.48000 326.579
49.52000 345.084
49.56000 324.825
49.60000 329.211
49.64000 320.557
49.68000 314.880
49.72000 312.708
49.76000 302.776
49.80000 308.239
49.84000 317.604
49.88000 309.669
49.92000 316.244
49.96000 301.030
50.00000 288.757
50.04000 289.770
50.08000 283.435
50.12000 289.429
50.16000 287.189
50.20000 282.425
50.24000 283.271
50.28000 275.223
50.32000 272.498
50.36000 285.395
50.40000 287.915
50.44000 293.993
50.48000 281.771
50.52000 282.908
50.56000 267.149
50.60000 266.434
50.64000 277.155
50.68000 267.467
50.72000 281.665
50.76000 269.954
50.80000 287.281
50.84000 268.276
50.88000 277.675
50.92000 283.330
50.96000 290.075
51.00000 270.171
51.04000 261.504
51.08000 266.468
51.12000 251.762
51.16000 253.417
51.20000 257.668
51.24000 246.412
51.28000 249.831
51.32000 259.103
51.36000 247.768
51.40000 235.853
51.44000 235.239
51.48000 240.393
51.52000 238.507
51.56000 248.151
51.60000 242.622
51.64000 223.991
51.68000 241.296
51.72000 231.288
51.76000 219.678
51.80000 247.997
51.84000 240.444
51.88000 231.424
51.92000 225.051
51.96000 231.885
52.00000 233.868
52.04000 227.653
52.08000 227.579
52.12000 227.464
52.16000 227.955
52.20000 206.199
52.24000 211.727
52.28000 216.022
52.32000 224.544
52.36000 213.634
52.40000 218.932
52.44000 219.633
52.48000 198.406
52.52000 220.157
52.56000 213.818
52.60000 200.277
52.64000 204.576
52.68000 201.946
52.72000 217.665
52.76000 206.713
52.80000 223.650
52.84000 228.976
52.88000 202.651
52.92000 206.760
52.96000 204.701
53.00000 212.349
53.04000 208.571
53.08000 200.700
53.12000 212.272
53.16000 207.423
53.20000 192.854
53.24000 204.207
53.28000 210.880
53.32000 201.477
53.36000 193.430
53.40000 191.648
53.44000 198.246
53.48000 200.446
53.52000 205.140
53.56000 196.598
53.60000 204.943
53.64000 200.159
53.68000 192.651
53.72000 180.213
53.76000 194.723
53.80000 189.942
53.84000 197.874
53.88000 195.617
53.92000 193.383
53.96000 185.263
54.00000 187.721
54.04000 190.188
54.08000 189.970
54.12000 187.455
54.16000 190.224
54.20000 191.808
54.24000 196.876
54.28000 189.545
54.32000 184.937
54.36000 185.236
54.40000 185.186
54.44000 191.999
54.48000 185.023
54.52000 188.412
54.56000 179.288
54.60000 181.955
54.64000 192.630
54.68000 186.997
54.72000 191.622
54.76000 193.919
54.80000 191.739
54.84000 193.621
54.88000 172.661
54.92000 182.652
54.96000 187.343
55.00000 187.120
55.04000 182.803
55.08000 174.052
55.12000 183.582
55.16000 166.948
55.20000 174.071
55.24000 180.054
55.28000 176.576
55.32000 188.367
55.36000 182.332
55.40000 174.898
55.44000 188.042
55.48000 172.041
55.52000 167.581
55.56000 175.237
55.60000 168.351
55.64000 183.820
55.68000 177.678
55.72000 169.941
55.76000 172.270
55.80000 169.537
55.84000 181.856
55.88000 190.100
55.92000 174.168
55.96000 172.534
56.00000 165.602
56.04000 165.365
56.08000 179.279
56.12000 171.601
56.16000 180.704
56.20000 174.489
56.24000 168.093
56.28000 171.249
56.32000 175.856
56.36000 166.263
56.40000 174.489
56.44000 175.240
56.48000 173.884
56.52000 166.836
56.56000 160.867
56.60000 168.004
56.64000 158.382
56.68000 171.349
56.72000 165.293
56.76000 173.091
56.80000 177.450
56.84000 160.451
56.88000 170.696
56.92000 165.787
56.96000 179.887
57.00000 159.347
57.04000 172.926
57.08000 169.519
57.12000 168.100
57.16000 160.075
57.20000 165.797
57.24000 150.413
57.28000 168.510
57.32000 165.976
57.36000 158.163
57.40000 164.942
57.44000 164.994
57.48000 176.612
57.52000 171.669
57.56000 165.623
57.60000 166.119
57.64000 161.673
57.68000 163.289
57.72000 168.131
57.76000 156.627
57.80000 167.785
57.84000 164.024
57.88000 154.071
57.92000 158.899
57.96000 159.711
58.00000 154.280
58.04000 157.551
58.08000 165.572
58.12000 165.204
58.16000 151.618
58.20000 162.436
58.24000 164.398
58.28000 169.321
58.32000 160.263
58.36000 156.601
58.40000 170.383
58.44000 152.004
58.48000 153.365
58.52000 157.902
58.56000 161.015
58.60000 152.270
58.64000 144.962
58.68000 156.140
58.72000 154.803
58.76000 151.749
58.80000 152.241
58.84000 152.190
58.88000 157.057
58.92000 171.652
58.96000 153.056
59.00000 160.546
59.04000 155.621
59.08000 155.337
59.12000 151.616
59.16000 156.082
59.20000 144.844
59.24000 158.568
59.28000 157.648
59.32000 152.826
59.36000 161.526
59.40000 152.290
59.44000 162.900
59.48000 155.226
59.52000 147.226
59.56000 147.986
59.60000 148.590
59.64000 147.058
59.68000 146.917
59.72000 156.255
59.76000 152.360
59.80000 142.624
59.84000 156.826
59.88000 157.864
59.92000 152.136
59.96000 149.777
60.00000 157.142
60.04000 153.035
60.08000 147.350
60.12000 151.486
60.16000 148.083
60.20000 143.352
60.24000 158.229
60.28000 155.519
60.32000 152.089
60.36000 141.641
60.40000 139.337
60.44000 147.214
60.48000 156.052
60.52000 144.649
60.56000 139.133
60.60000 152.493
60.64000 157.457
60.68000 150.720
60.72000 150.109
60.76000 146.823
60.80000 144.447
60.84000 148.200
60.88000 146.620
60.92000 143.951
60.96000 146.381
61.00000 145.410
61.04000 146.138
61.08000 146.198
61.12000 137.136
61.16000 148.916
61.20000 138.449
61.24000 146.933
61.28000 138.410
61.32000 150.927
61.36000 135.055
61.40000 148.669
61.44000 139.763
61.48000 141.690
61.52000 150.848
61.56000 142.586
61.60000 136.010
61.64000 136.822
61.68000 138.206
61.72000 143.303
61.76000 140.031
61.80000 135.948
61.84000 149.237
61.88000 143.146
61.92000 142.564
61.96000 146.668
62.00000 148.638
62.04000 147.013
62.08000 133.670
62.12000 132.714
62.16000 147.742
62.20000 143.053
62.24000 135.647
62.28000 140.081
62.32000 145.263
62.36000 139.133
62.40000 142.810
62.44000 127.084
62.48000 139.080
62.52000 135.399
62.56000 138.502
62.60000 141.237
62.64000 133.541
62.68000 136.036
62.72000 136.899
62.76000 131.289
62.80000 137.456
62.84000 136.569
62.88000 136.515
62.92000 132.481
62.96000 139.341
63.00000 135.220
63.04000 144.558
63.08000 142.011
63.12000 134.096
63.16000 130.719
63.20000 136.875
63.24000 141.829
63.28000 130.127
63.32000 136.653
63.36000 144.145
63.40000 137.704
63.44000 134.340
63.48000 120.660
63.52000 136.108
63.56000 145.966
63.60000 132.341
63.64000 131.945
63.68000 134.064
63.72000 137.904
63.76000 134.306
63.80000 135.881
63.84000 137.897
63.88000 142.480
63.92000 135.159
63.96000 130.745
64.00000 141.733
64.04000 141.852
64.08000 136.052
64.12000 133.242
64.16000 132.085
64.20000 140.459
64.24000 134.569
64.28000 143.930
64.32000 129.820
64.36000 131.786
64.40000 140.024
64.44000 136.225
64.48000 135.921
64.52000 141.081
64.56000 143.634
64.60000 152.985
64.64000 153.651
64.68000 157.977
64.72000 150.128
64.76000 144.772
64.80000 138.600
64.84000 135.214
64.88000 130.207
64.92000 131.686
64.96000 128.639
65.00000 139.737
65.04000 128.655
65.08000 124.061
65.12000 129.512
65.16000 137.707
65.20000 123.015
65.24000 146.615
65.28000 125.103
65.32000 130.931
65.36000 122.968
65.40000 127.037
65.44000 118.115
65.48000 127.885
65.52000 125.517
65.56000 121.297
65.60000 129.828
65.64000 122.131
65.68000 128.711
65.72000 127.158
65.76000 132.016
65.80000 131.874
65.84000 128.942
65.88000 126.133
65.92000 127.974
65.96000 116.617
66.00000 130.477
66.04000 119.906
66.08000 135.520
66.12000 127.278
66.16000 127.261
66.20000 130.455
66.24000 127.212
66.28000 125.388
66.32000 127.732
66.36000 128.884
66.40000 135.600
66.44000 120.237
66.48000 139.896
66.52000 135.370
66.56000 131.089
66.60000 120.630
66.64000 129.426
66.68000 122.356
66.72000 125.808
66.76000 134.929
66.80000 112.832
66.84000 120.278
66.88000 140.505
66.92000 122.087
66.96000 125.112
67.00000 123.430
67.04000 131.515
67.08000 128.719
67.12000 128.743
67.16000 136.578
67.20000 128.055
67.24000 130.303
67.28000 124.163
67.32000 131.107
67.36000 132.470
67.40000 128.448
67.44000 126.722
67.48000 117.496
67.52000 129.978
67.56000 124.051
67.60000 123.046
67.64000 124.551
67.68000 125.518
67.72000 117.362
67.76000 116.683
67.80000 121.208
67.84000 120.114
67.88000 122.974
67.92000 121.135
67.96000 119.629
68.00000 121.620
68.04000 118.150
68.08000 130.612
68.12000 134.330
68.16000 120.942
68.20000 127.315
68.24000 138.916
68.28000 126.152
68.32000 134.713
68.36000 133.461
68.40000 129.924
68.44000 131.394
68.48000 127.879
68.52000 125.227
68.56000 137.119
68.60000 130.844
68.64000 129.788
68.68000 119.541
68.72000 132.978
68.76000 132.358
68.80000 140.773
68.84000 133.160
68.88000 129.982
68.92000 160.833
68.96000 169.499
69.00000 207.123
69.04000 233.127
69.08000 245.194
69.12000 242.935
69.16000 244.715
69.20000 206.135
69.24000 173.522
69.28000 142.792
69.32000 135.483
69.36000 129.042
69.40000 133.627
69.44000 137.625
69.48000 129.533
69.52000 143.096
69.56000 158.992
69.60000 151.966
69.64000 155.210
69.68000 150.296
69.72000 152.264
69.76000 150.500
69.80000 141.902
69.84000 133.469
69.88000 136.399
69.92000 129.154
69.96000 129.574
70.00000 134.798