File: XRD/XRD/Grazing Incidence/XY Data/Dilan_Full_Stack_Training_3_grazing_incidience_Map_001_3_-30-000_0-000.xy
30.00000 19.502
30.02000 17.628
30.04000 26.371
30.06000 19.039
30.08000 26.677
30.10000 33.126
30.12000 22.287
30.14000 29.428
30.16000 18.695
30.18000 17.594
30.20000 28.369
30.22000 23.381
30.24000 20.895
30.26000 17.289
30.28000 7.506
30.30000 16.113
30.32000 17.032
30.34000 19.759
30.36000 14.293
30.38000 11.783
30.40000 17.932
30.42000 17.540
30.44000 26.120
30.46000 23.402
30.48000 14.373
30.50000 20.476
30.52000 22.914
30.54000 19.426
30.56000 25.963
30.58000 19.498
30.60000 25.688
30.62000 22.136
30.64000 32.207
30.66000 32.767
30.68000 28.296
30.70000 30.790
30.72000 39.702
30.74000 22.461
30.76000 29.591
30.78000 41.063
30.80000 29.511
30.82000 35.201
30.84000 40.713
30.86000 36.483
30.88000 44.638
30.90000 64.827
30.92000 60.424
30.94000 58.122
30.96000 60.228
30.98000 83.916
31.00000 89.373
31.02000 101.996
31.04000 140.484
31.06000 165.620
31.08000 189.620
31.10000 251.773
31.12000 285.330
31.14000 313.356
31.16000 389.427
31.18000 488.707
31.20000 573.789
31.22000 603.824
31.24000 720.756
31.26000 773.968
31.28000 843.846
31.30000 904.782
31.32000 938.158
31.34000 974.913
31.36000 923.729
31.38000 959.122
31.40000 863.040
31.42000 933.917
31.44000 842.819
31.46000 822.226
31.48000 673.439
31.50000 604.115
31.52000 548.318
31.54000 437.347
31.56000 407.156
31.58000 341.133
31.60000 260.295
31.62000 205.178
31.64000 169.828
31.66000 139.417
31.68000 112.032
31.70000 98.514
31.72000 69.889
31.74000 72.534
31.76000 58.150
31.78000 48.525
31.80000 44.786
31.82000 34.894
31.84000 32.742
31.86000 23.850
31.88000 29.618
31.90000 32.733
31.92000 25.375
31.94000 25.396
31.96000 27.831
31.98000 20.921
32.00000 16.520
32.02000 18.007
32.04000 20.564
32.06000 19.657
32.08000 22.059
32.10000 21.094
32.12000 12.276
32.14000 18.342
32.16000 16.245
32.18000 21.886
32.20000 16.885
32.22000 19.146
32.24000 23.794
32.26000 15.427
32.28000 11.616
32.30000 25.128
32.32000 16.035
32.34000 7.398
32.36000 17.240
32.38000 22.122
32.40000 10.268
32.42000 15.541
32.44000 14.345
32.46000 7.165
32.48000 11.559
32.50000 19.022
32.52000 10.634
32.54000 10.510
32.56000 10.224
32.58000 10.847
32.60000 8.141
32.62000 13.257
32.64000 11.178
32.66000 9.190
32.68000 13.621
32.70000 15.100
32.72000 14.518
32.74000 16.745
32.76000 14.237
32.78000 14.294
32.80000 9.502
32.82000 11.306
32.84000 12.489
32.86000 13.565
32.88000 12.545
32.90000 12.026
32.92000 10.512
32.94000 7.452
32.96000 6.446
32.98000 10.503
33.00000 6.749
33.02000 10.429
33.04000 11.019
33.06000 5.977
33.08000 5.460
33.10000 10.248
33.12000 9.543
33.14000 8.132
33.16000 14.531
33.18000 12.426
33.20000 6.235
33.22000 15.489
33.24000 5.037
33.26000 14.607
33.28000 4.406
33.30000 12.374
33.32000 15.898
33.34000 5.548
33.36000 8.060
33.38000 10.878
33.40000 9.123
33.42000 10.275
33.44000 8.127
33.46000 8.995
33.48000 11.421
33.50000 7.834
33.52000 9.519
33.54000 6.189
33.56000 8.481
33.58000 7.395
33.60000 7.350
33.62000 11.097
33.64000 5.372
33.66000 9.252
33.68000 14.606
33.70000 12.220
33.72000 15.612
33.74000 6.349
33.76000 9.774
33.78000 12.352
33.80000 3.761
33.82000 8.773
33.84000 5.446
33.86000 12.559
33.88000 7.081
33.90000 8.852
33.92000 11.949
33.94000 8.531
33.96000 11.163
33.98000 12.208
34.00000 5.132
34.02000 7.169
34.04000 8.466
34.06000 5.392
34.08000 6.111
34.10000 8.804
34.12000 4.082
34.14000 12.488
34.16000 6.069
34.18000 5.080
34.20000 13.145
34.22000 13.563
34.24000 5.046
34.26000 11.069
34.28000 12.115
34.30000 4.712
34.32000 7.403
34.34000 7.172
34.36000 5.415
34.38000 8.057
34.40000 5.381
34.42000 5.191
34.44000 4.022
34.46000 13.265
34.48000 7.101
34.50000 8.195
34.52000 10.114
34.54000 5.460
34.56000 5.457
34.58000 11.275
34.60000 8.465
34.62000 7.449
34.64000 8.170
34.66000 8.504
34.68000 1.389
34.70000 7.075
34.72000 5.430
34.74000 7.503
34.76000 9.770
34.78000 12.012
34.80000 17.312
34.82000 9.765
34.84000 6.025
34.86000 5.034
34.88000 5.954
34.90000 6.043
34.92000 6.990
34.94000 8.144
34.96000 8.143
34.98000 11.182
35.00000 1.341
35.02000 3.055
35.04000 7.133
35.06000 8.107
35.08000 5.070
35.10000 6.185
35.12000 7.426
35.14000 8.487
35.16000 5.092
35.18000 5.073
35.20000 7.414
35.22000 7.686
35.24000 6.527
35.26000 7.089
35.28000 8.034
35.30000 5.371
35.32000 9.475
35.34000 4.347
35.36000 8.077
35.38000 7.111
35.40000 4.387
35.42000 3.091
35.44000 4.197
35.46000 4.033
35.48000 10.863
35.50000 2.681
35.52000 4.690
35.54000 8.384
35.56000 4.345
35.58000 4.192
35.60000 8.080
35.62000 7.762
35.64000 5.144
35.66000 2.080
35.68000 5.391
35.70000 5.728
35.72000 10.207
35.74000 8.065
35.76000 7.358
35.78000 8.613
35.80000 7.501
35.82000 7.745
35.84000 6.339
35.86000 2.392
35.88000 2.389
35.90000 9.117
35.92000 6.548
35.94000 5.030
35.96000 10.249
35.98000 9.130
36.00000 5.491
36.02000 9.500
36.04000 7.436
36.06000 9.201
36.08000 10.820
36.10000 7.415
36.12000 10.081
36.14000 5.060
36.16000 6.370
36.18000 5.149
36.20000 4.045
36.22000 8.111
36.24000 2.050
36.26000 7.111
36.28000 1.344
36.30000 3.070
36.32000 5.129
36.34000 1.996
36.36000 10.230
36.38000 5.108
36.40000 6.433
36.42000 9.500
36.44000 7.132
36.46000 2.025
36.48000 2.029
36.50000 8.536
36.52000 7.135
36.54000 5.013
36.56000 7.490
36.58000 4.047
36.60000 7.156
36.62000 4.741
36.64000 4.989
36.66000 4.030
36.68000 7.261
36.70000 6.409
36.72000 5.029
36.74000 7.134
36.76000 7.202
36.78000 3.027
36.80000 2.427
36.82000 7.430
36.84000 3.102
36.86000 2.371
36.88000 5.466
36.90000 3.442
36.92000 7.424
36.94000 8.203
36.96000 9.475
36.98000 6.403
37.00000 4.977
37.02000 7.160
37.04000 5.461
37.06000 5.089
37.08000 9.159
37.10000 3.095
37.12000 2.051
37.14000 10.194
37.16000 4.134
37.18000 5.039
37.20000 10.756
37.22000 4.989
37.24000 3.361
37.26000 9.163
37.28000 8.724
37.30000 6.608
37.32000 8.033
37.34000 2.019
37.36000 4.421
37.38000 7.395
37.40000 2.349
37.42000 8.070
37.44000 3.058
37.46000 3.017
37.48000 2.966
37.50000 6.346
37.52000 6.150
37.54000 8.744
37.56000 1.995
37.58000 6.548
37.60000 8.460
37.62000 7.091
37.64000 2.038
37.66000 2.985
37.68000 4.329
37.70000 4.071
37.72000 7.201
37.74000 11.401
37.76000 6.545
37.78000 3.063
37.80000 7.500
37.82000 8.267
37.84000 9.791
37.86000 7.205
37.88000 4.006
37.90000 7.109
37.92000 6.430
37.94000 4.440
37.96000 5.688
37.98000 4.046
38.00000 7.374
38.02000 9.052
38.04000 11.456
38.06000 8.043
38.08000 10.619
38.10000 4.164
38.12000 9.746
38.14000 8.172
38.16000 10.245
38.18000 4.079
38.20000 8.200
38.22000 10.151
38.24000 9.219
38.26000 7.197
38.28000 8.484
38.30000 11.463
38.32000 11.553
38.34000 12.371
38.36000 7.726
38.38000 16.689
38.40000 13.606
38.42000 7.089
38.44000 14.427
38.46000 19.323
38.48000 29.229
38.50000 14.599
38.52000 27.536
38.54000 22.639
38.56000 28.838
38.58000 28.070
38.60000 48.633
38.62000 45.194
38.64000 42.888
38.66000 40.215
38.68000 34.796
38.70000 40.762
38.72000 24.129
38.74000 30.979
38.76000 30.625
38.78000 45.515
38.80000 33.483
38.82000 32.352
38.84000 32.462
38.86000 24.709
38.88000 21.204
38.90000 19.305
38.92000 21.702
38.94000 15.719
38.96000 14.886
38.98000 14.143
39.00000 8.823
39.02000 12.642
39.04000 8.845
39.06000 9.007
39.08000 8.244
39.10000 7.833
39.12000 11.264
39.14000 6.161
39.16000 6.423
39.18000 9.418
39.20000 4.402
39.22000 7.767
39.24000 4.329
39.26000 8.128
39.28000 7.122
39.30000 9.139
39.32000 3.023
39.34000 7.488
39.36000 6.357
39.38000 10.151
39.40000 7.470
39.42000 7.009
39.44000 3.013
39.46000 6.032
39.48000 6.152
39.50000 4.731
39.52000 9.532
39.54000 8.478
39.56000 5.106
39.58000 0.336
39.60000 4.128
39.62000 6.356
39.64000 6.164
39.66000 6.092
39.68000 3.061
39.70000 3.989
39.72000 4.011
39.74000 7.462
39.76000 4.054
39.78000 4.080
39.80000 3.079
39.82000 6.198
39.84000 1.370
39.86000 2.367
39.88000 5.930
39.90000 2.017
39.92000 5.451
39.94000 6.732
39.96000 11.205
39.98000 5.289
40.00000 8.173
40.02000 7.060
40.04000 2.025
40.06000 4.548
40.08000 7.105
40.10000 6.068
40.12000 0.000
40.14000 10.120
40.16000 7.108
40.18000 0.329
40.20000 6.056
40.22000 3.092
40.24000 5.445
40.26000 7.102
40.28000 3.711
40.30000 5.122
40.32000 5.417
40.34000 3.133
40.36000 6.098
40.38000 3.365
40.40000 5.462
40.42000 2.365
40.44000 8.203
40.46000 1.304
40.48000 6.468
40.50000 7.034
40.52000 4.404
40.54000 2.430
40.56000 2.053
40.58000 4.661
40.60000 3.026
40.62000 0.995
40.64000 6.154
40.66000 2.072
40.68000 4.013
40.70000 12.447
40.72000 4.419
40.74000 6.155
40.76000 7.525
40.78000 5.802
40.80000 4.988
40.82000 6.090
40.84000 4.160
40.86000 9.099
40.88000 3.410
40.90000 6.208
40.92000 6.037
40.94000 4.032
40.96000 2.008
40.98000 3.037
41.00000 3.364
41.02000 9.026
41.04000 2.721
41.06000 2.078
41.08000 5.112
41.10000 3.000
41.12000 3.088
41.14000 4.372
41.16000 4.044
41.18000 5.368
41.20000 7.242
41.22000 3.984
41.24000 3.999
41.26000 2.022
41.28000 5.218
41.30000 3.396
41.32000 6.056
41.34000 9.230
41.36000 2.022
41.38000 4.422
41.40000 2.037
41.42000 7.443
41.44000 6.442
41.46000 4.998
41.48000 0.978
41.50000 3.053
41.52000 4.100
41.54000 5.264
41.56000 3.042
41.58000 4.062
41.60000 1.062
41.62000 8.127
41.64000 4.019
41.66000 3.081
41.68000 5.478
41.70000 0.000
41.72000 5.392
41.74000 2.073
41.76000 4.070
41.78000 3.063
41.80000 2.982
41.82000 2.030
41.84000 7.055
41.86000 6.058
41.88000 6.147
41.90000 6.419
41.92000 2.033
41.94000 2.034
41.96000 2.114
41.98000 2.328
42.00000 3.083
42.02000 6.045
42.04000 2.033
42.06000 4.122
42.08000 4.034
42.10000 0.984
42.12000 3.059
42.14000 4.014
42.16000 3.012
42.18000 2.326
42.20000 4.095
42.22000 3.492
42.24000 5.040
42.26000 3.065
42.28000 2.997
42.30000 0.000
42.32000 5.013
42.34000 3.415
42.36000 7.119
42.38000 2.050
42.40000 4.028
42.42000 5.013
42.44000 2.998
42.46000 5.021
42.48000 2.998
42.50000 5.999
42.52000 5.024
42.54000 2.031
42.56000 7.037
42.58000 5.036
42.60000 3.054
42.62000 4.366
42.64000 6.118
42.66000 3.054
42.68000 3.048
42.70000 9.166
42.72000 5.037
42.74000 4.004
42.76000 3.043
42.78000 8.043
42.80000 4.037
42.82000 5.038
42.84000 4.366
42.86000 6.456
42.88000 5.395
42.90000 9.512
42.92000 12.166
42.94000 6.165
42.96000 5.405
42.98000 5.375
43.00000 3.367
43.02000 5.050
43.04000 9.240
43.06000 3.130
43.08000 5.300
43.10000 8.044
43.12000 8.160
43.14000 5.120
43.16000 8.130
43.18000 2.113
43.20000 8.202
43.22000 3.722
43.24000 9.418
43.26000 2.006
43.28000 4.424
43.30000 4.387
43.32000 5.012
43.34000 4.374
43.36000 2.041
43.38000 2.018
43.40000 2.361
43.42000 3.318
43.44000 7.111
43.46000 6.700
43.48000 5.363
43.50000 3.366
43.52000 5.138
43.54000 6.181
43.56000 6.190
43.58000 6.502
43.60000 6.442
43.62000 4.201
43.64000 8.510
43.66000 4.373
43.68000 1.989
43.70000 7.208
43.72000 5.133
43.74000 5.360
43.76000 4.036
43.78000 3.062
43.80000 1.386
43.82000 7.165
43.84000 7.409
43.86000 8.409
43.88000 6.441
43.90000 2.073
43.92000 7.176
43.94000 8.390
43.96000 4.096
43.98000 3.045
44.00000 6.168
44.02000 2.028
44.04000 9.415
44.06000 5.012
44.08000 3.331
44.10000 3.078
44.12000 11.498
44.14000 6.029
44.16000 5.345
44.18000 5.046
44.20000 3.415
44.22000 6.396
44.24000 8.150
44.26000 4.365
44.28000 9.092
44.30000 8.925
44.32000 10.169
44.34000 10.797
44.36000 5.056
44.38000 13.538
44.40000 13.568
44.42000 7.049
44.44000 6.420
44.46000 9.033
44.48000 16.507
44.50000 7.511
44.52000 8.057
44.54000 14.472
44.56000 13.378
44.58000 16.364
44.60000 16.943
44.62000 31.909
44.64000 31.639
44.66000 31.710
44.68000 38.160
44.70000 35.635
44.72000 40.176
44.74000 37.616
44.76000 57.282
44.78000 58.681
44.80000 83.973
44.82000 88.293
44.84000 97.561
44.86000 84.442
44.88000 70.263
44.90000 116.586
44.92000 111.952
44.94000 122.815
44.96000 133.335
44.98000 114.163
45.00000 128.859
45.02000 129.887
45.04000 113.419
45.06000 84.884
45.08000 103.961
45.10000 104.728
45.12000 83.775
45.14000 98.494
45.16000 82.434
45.18000 68.356
45.20000 63.132
45.22000 54.424
45.24000 48.928
45.26000 49.639
45.28000 44.125
45.30000 34.475
45.32000 35.103
45.34000 18.308
45.36000 18.233
45.38000 14.561
45.40000 22.756
45.42000 12.552
45.44000 16.694
45.46000 13.563
45.48000 11.204
45.50000 12.393
45.52000 11.333
45.54000 10.454
45.56000 6.348
45.58000 13.537
45.60000 10.182
45.62000 7.407
45.64000 8.432
45.66000 2.971
45.68000 8.187
45.70000 7.097
45.72000 2.004
45.74000 4.125
45.76000 5.132
45.78000 4.021
45.80000 5.077
45.82000 6.832
45.84000 8.032
45.86000 4.495
45.88000 6.126
45.90000 3.068
45.92000 2.991
45.94000 5.086
45.96000 7.544
45.98000 5.019
46.00000 6.766
46.02000 8.488
46.04000 9.182
46.06000 5.989
46.08000 5.981
46.10000 7.928
46.12000 2.324
46.14000 8.094
46.16000 6.087
46.18000 1.004
46.20000 2.365
46.22000 5.157
46.24000 7.133
46.26000 1.015
46.28000 6.060
46.30000 7.103
46.32000 1.720
46.34000 3.134
46.36000 2.077
46.38000 5.087
46.40000 6.467
46.42000 4.132
46.44000 6.138
46.46000 4.389
46.48000 4.089
46.50000 4.394
46.52000 6.156
46.54000 2.403
46.56000 4.044
46.58000 3.442
46.60000 1.988
46.62000 1.004
46.64000 5.016
46.66000 7.137
46.68000 4.802
46.70000 1.356
46.72000 2.379
46.74000 3.037
46.76000 3.054
46.78000 2.009
46.80000 4.381
46.82000 7.257
46.84000 1.016
46.86000 6.014
46.88000 5.367
46.90000 4.039
46.92000 7.967
46.94000 5.115
46.96000 3.012
46.98000 6.106
47.00000 5.080