File: XRD/XRD/Grazing Incidence/XY Data/Dilan_Full_Stack_Training_theta-2theta_001.xy
20.00000 43.849
20.04000 48.917
20.08000 43.157
20.12000 45.695
20.16000 38.689
20.20000 47.121
20.24000 52.080
20.28000 53.172
20.32000 43.746
20.36000 51.049
20.40000 39.624
20.44000 39.568
20.48000 49.736
20.52000 38.430
20.56000 53.961
20.60000 47.049
20.64000 39.787
20.68000 47.661
20.72000 48.988
20.76000 56.147
20.80000 31.607
20.84000 33.468
20.88000 55.004
20.92000 42.823
20.96000 51.157
21.00000 47.787
21.04000 36.928
21.08000 55.060
21.12000 59.983
21.16000 63.246
21.20000 51.039
21.24000 57.263
21.28000 53.107
21.32000 54.157
21.36000 70.317
21.40000 51.925
21.44000 66.203
21.48000 65.519
21.52000 50.934
21.56000 49.934
21.60000 64.071
21.64000 60.009
21.68000 63.469
21.72000 78.636
21.76000 89.010
21.80000 85.050
21.84000 109.193
21.88000 125.560
21.92000 156.234
21.96000 197.399
22.00000 223.441
22.04000 222.568
22.08000 228.985
22.12000 172.926
22.16000 131.482
22.20000 117.641
22.24000 88.915
22.28000 79.623
22.32000 68.451
22.36000 80.649
22.40000 48.973
22.44000 60.549
22.48000 63.116
22.52000 62.238
22.56000 63.100
22.60000 43.880
22.64000 51.878
22.68000 69.409
22.72000 52.901
22.76000 48.075
22.80000 64.327
22.84000 56.261
22.88000 45.548
22.92000 72.531
22.96000 50.410
23.00000 54.167
23.04000 46.104
23.08000 58.260
23.12000 61.133
23.16000 45.190
23.20000 43.590
23.24000 56.015
23.28000 38.622
23.32000 50.895
23.36000 52.682
23.40000 50.898
23.44000 39.914
23.48000 41.992
23.52000 42.941
23.56000 58.937
23.60000 59.262
23.64000 45.996
23.68000 46.939
23.72000 51.199
23.76000 45.948
23.80000 50.001
23.84000 55.231
23.88000 53.098
23.92000 42.781
23.96000 50.821
24.00000 55.671
24.04000 41.677
24.08000 44.850
24.12000 40.875
24.16000 54.227
24.20000 42.007
24.24000 56.994
24.28000 57.194
24.32000 48.877
24.36000 56.900
24.40000 44.985
24.44000 43.764
24.48000 49.868
24.52000 40.068
24.56000 40.848
24.60000 53.063
24.64000 37.096
24.68000 47.940
24.72000 51.157
24.76000 51.127
24.80000 51.953
24.84000 46.954
24.88000 57.480
24.92000 35.625
24.96000 49.974
25.00000 41.638
25.04000 47.963
25.08000 50.884
25.12000 51.795
25.16000 52.657
25.20000 45.891
25.24000 49.848
25.28000 42.964
25.32000 40.894
25.36000 51.905
25.40000 47.167
25.44000 49.708
25.48000 47.060
25.52000 45.736
25.56000 49.364
25.60000 54.913
25.64000 34.873
25.68000 46.135
25.72000 46.854
25.76000 55.189
25.80000 34.634
25.84000 48.969
25.88000 53.943
25.92000 37.606
25.96000 38.813
26.00000 50.845
26.04000 47.785
26.08000 56.276
26.12000 45.834
26.16000 40.182
26.20000 49.925
26.24000 46.178
26.28000 43.510
26.32000 44.892
26.36000 34.682
26.40000 58.359
26.44000 44.986
26.48000 47.097
26.52000 52.335
26.56000 37.746
26.60000 39.850
26.64000 28.665
26.68000 40.727
26.72000 53.322
26.76000 47.690
26.80000 38.784
26.84000 40.801
26.88000 30.684
26.92000 45.974
26.96000 54.282
27.00000 41.975
27.04000 48.780
27.08000 39.693
27.12000 43.775
27.16000 38.629
27.20000 51.950
27.24000 49.100
27.28000 51.540
27.32000 49.820
27.36000 33.775
27.40000 42.602
27.44000 38.790
27.48000 38.847
27.52000 44.911
27.56000 40.851
27.60000 41.840
27.64000 38.901
27.68000 38.468
27.72000 41.732
27.76000 42.948
27.80000 38.577
27.84000 30.808
27.88000 35.424
27.92000 40.041
27.96000 38.676
28.00000 32.653
28.04000 36.785
28.08000 38.058
28.12000 43.577
28.16000 47.260
28.20000 42.059
28.24000 41.573
28.28000 43.900
28.32000 37.400
28.36000 41.686
28.40000 38.632
28.44000 40.860
28.48000 38.896
28.52000 37.857
28.56000 28.459
28.60000 36.616
28.64000 43.067
28.68000 35.540
28.72000 41.665
28.76000 29.399
28.80000 33.572
28.84000 33.632
28.88000 41.853
28.92000 35.786
28.96000 34.684
29.00000 31.734
29.04000 32.583
29.08000 33.772
29.12000 33.525
29.16000 39.540
29.20000 43.903
29.24000 25.392
29.28000 29.651
29.32000 33.561
29.36000 38.630
29.40000 37.652
29.44000 36.775
29.48000 27.354
29.52000 36.869
29.56000 34.701
29.60000 36.670
29.64000 52.006
29.68000 40.976
29.72000 32.604
29.76000 49.109
29.80000 40.634
29.84000 60.337
29.88000 50.990
29.92000 57.267
29.96000 48.740
30.00000 49.904
30.04000 47.102
30.08000 42.753
30.12000 55.881
30.16000 37.903
30.20000 47.025
30.24000 61.283
30.28000 51.247
30.32000 59.154
30.36000 53.914
30.40000 55.859
30.44000 49.670
30.48000 61.105
30.52000 53.388
30.56000 52.147
30.60000 54.151
30.64000 58.143
30.68000 72.484
30.72000 62.290
30.76000 59.034
30.80000 75.380
30.84000 70.316
30.88000 82.681
30.92000 97.485
30.96000 119.927
31.00000 156.086
31.04000 190.125
31.08000 218.850
31.12000 291.684
31.16000 469.627
31.20000 618.416
31.24000 917.116
31.28000 1208.398
31.32000 1448.914
31.36000 1447.068
31.40000 1376.781
31.44000 1044.232
31.48000 747.677
31.52000 483.466
31.56000 326.993
31.60000 213.069
31.64000 180.674
31.68000 122.397
31.72000 113.828
31.76000 81.648
31.80000 75.547
31.84000 79.528
31.88000 70.278
31.92000 45.193
31.96000 53.193
32.00000 48.954
32.04000 44.908
32.08000 54.108
32.12000 34.066
32.16000 43.735
32.20000 54.099
32.24000 43.593
32.28000 37.992
32.32000 32.386
32.36000 27.417
32.40000 38.713
32.44000 33.804
32.48000 33.646
32.52000 21.362
32.56000 33.915
32.60000 35.791
32.64000 31.602
32.68000 39.825
32.72000 24.465
32.76000 26.410
32.80000 23.525
32.84000 18.354
32.88000 28.399
32.92000 30.565
32.96000 36.659
33.00000 20.532
33.04000 24.611
33.08000 35.595
33.12000 33.413
33.16000 23.409
33.20000 26.443
33.24000 31.599
33.28000 20.162
33.32000 28.514
33.36000 26.571
33.40000 26.507
33.44000 16.447
33.48000 24.485
33.52000 25.542
33.56000 21.466
33.60000 31.613
33.64000 24.619
33.68000 25.419
33.72000 19.441
33.76000 21.334
33.80000 20.399
33.84000 14.301
33.88000 22.515
33.92000 25.658
33.96000 20.298
34.00000 26.734
34.04000 29.474
34.08000 21.548
34.12000 25.585
34.16000 25.298
34.20000 19.321
34.24000 30.440
34.28000 23.560
34.32000 18.330
34.36000 26.675
34.40000 22.355
34.44000 23.374
34.48000 28.556
34.52000 22.456
34.56000 18.418
34.60000 26.392
34.64000 25.719
34.68000 27.617
34.72000 22.536
34.76000 29.637
34.80000 19.514
34.84000 16.233
34.88000 19.264
34.92000 28.576
34.96000 27.511
35.00000 19.388
35.04000 22.308
35.08000 32.824
35.12000 18.415
35.16000 15.327
35.20000 16.220
35.24000 24.573
35.28000 15.277
35.32000 17.415
35.36000 17.486
35.40000 19.421
35.44000 23.281
35.48000 13.262
35.52000 26.503
35.56000 16.418
35.60000 23.564
35.64000 21.467
35.68000 19.296
35.72000 19.144
35.76000 21.522
35.80000 12.229
35.84000 21.535
35.88000 19.413
35.92000 22.618
35.96000 24.648
36.00000 32.546
36.04000 24.520
36.08000 26.553
36.12000 21.390
36.16000 16.442
36.20000 26.733
36.24000 16.370
36.28000 15.179
36.32000 23.302
36.36000 12.207
36.40000 19.589
36.44000 21.368
36.48000 23.536
36.52000 31.628
36.56000 13.291
36.60000 25.503
36.64000 26.676
36.68000 24.249
36.72000 16.273
36.76000 27.331
36.80000 22.302
36.84000 21.531
36.88000 23.291
36.92000 15.244
36.96000 24.597
37.00000 22.356
37.04000 29.614
37.08000 20.307
37.12000 20.397
37.16000 31.796
37.20000 22.229
37.24000 13.042
37.28000 23.577
37.32000 18.451
37.36000 16.363
37.40000 17.208
37.44000 23.424
37.48000 21.279
37.52000 26.663
37.56000 21.444
37.60000 18.427
37.64000 27.446
37.68000 34.813
37.72000 26.415
37.76000 27.844
37.80000 22.608
37.84000 31.513
37.88000 25.512
37.92000 24.303
37.96000 23.366
38.00000 27.556
38.04000 30.649
38.08000 26.561
38.12000 36.586
38.16000 32.759
38.20000 36.665
38.24000 30.426
38.28000 45.946
38.32000 41.773
38.36000 59.789
38.40000 59.089
38.44000 76.663
38.48000 88.802
38.52000 125.330
38.56000 164.523
38.60000 194.005
38.64000 227.587
38.68000 219.812
38.72000 245.703
38.76000 194.289
38.80000 159.186
38.84000 112.316
38.88000 94.192
38.92000 69.427
38.96000 62.291
39.00000 51.054
39.04000 34.640
39.08000 31.653
39.12000 24.543
39.16000 19.323
39.20000 27.420
39.24000 31.657
39.28000 21.383
39.32000 33.440
39.36000 15.370
39.40000 19.449
39.44000 23.473
39.48000 27.523
39.52000 18.377
39.56000 19.455
39.60000 19.398
39.64000 15.293
39.68000 22.514
39.72000 16.159
39.76000 24.356
39.80000 13.208
39.84000 24.437
39.88000 23.444
39.92000 22.546
39.96000 18.408
40.00000 19.285
40.04000 21.510
40.08000 24.666
40.12000 15.350
40.16000 22.550
40.20000 21.225
40.24000 26.514
40.28000 26.493
40.32000 16.391
40.36000 18.424
40.40000 19.278
40.44000 19.277
40.48000 20.514
40.52000 20.309
40.56000 33.760
40.60000 21.501
40.64000 24.596
40.68000 22.420
40.72000 17.441
40.76000 20.493
40.80000 16.242
40.84000 17.399
40.88000 17.043
40.92000 22.279
40.96000 21.400
41.00000 19.384
41.04000 17.550
41.08000 26.467
41.12000 22.356
41.16000 9.205
41.20000 22.313
41.24000 20.584
41.28000 23.264
41.32000 30.675
41.36000 17.339
41.40000 22.198
41.44000 20.450
41.48000 34.789
41.52000 16.184
41.56000 30.771
41.60000 18.504
41.64000 14.204
41.68000 20.289
41.72000 31.791
41.76000 18.418
41.80000 21.499
41.84000 20.325
41.88000 18.399
41.92000 18.254
41.96000 21.351
42.00000 15.210
42.04000 17.373
42.08000 18.371
42.12000 26.363
42.16000 18.284
42.20000 20.329
42.24000 19.261
42.28000 26.653
42.32000 14.343
42.36000 18.328
42.40000 16.299
42.44000 17.375
42.48000 17.363
42.52000 19.512
42.56000 22.385
42.60000 24.483
42.64000 20.314
42.68000 18.428
42.72000 27.486
42.76000 25.346
42.80000 19.562
42.84000 22.555
42.88000 33.935
42.92000 23.397
42.96000 21.351
43.00000 23.355
43.04000 21.420
43.08000 23.728
43.12000 21.412
43.16000 12.305
43.20000 22.374
43.24000 21.327
43.28000 17.224
43.32000 24.526
43.36000 20.545
43.40000 15.182
43.44000 19.467
43.48000 24.346
43.52000 12.104
43.56000 14.234
43.60000 21.278
43.64000 24.648
43.68000 21.399
43.72000 26.402
43.76000 21.323
43.80000 27.502
43.84000 28.492
43.88000 19.423
43.92000 19.234
43.96000 20.455
44.00000 24.405
44.04000 30.508
44.08000 24.489
44.12000 17.284
44.16000 20.276
44.20000 30.568
44.24000 32.554
44.28000 25.320
44.32000 34.555
44.36000 26.510
44.40000 27.395
44.44000 36.604
44.48000 22.610
44.52000 29.621
44.56000 33.805
44.60000 43.951
44.64000 37.876
44.68000 55.010
44.72000 56.458
44.76000 76.488
44.80000 87.803
44.84000 69.364
44.88000 111.954
44.92000 131.680
44.96000 156.865
45.00000 159.159
45.04000 120.174
45.08000 132.755
45.12000 115.253
45.16000 84.753
45.20000 81.674
45.24000 70.413
45.28000 52.122
45.32000 42.610
45.36000 48.263
45.40000 32.434
45.44000 52.908
45.48000 30.631
45.52000 41.811
45.56000 22.492
45.60000 33.483
45.64000 22.497
45.68000 22.322
45.72000 23.368
45.76000 25.506
45.80000 27.555
45.84000 24.470
45.88000 32.490
45.92000 18.363
45.96000 23.514
46.00000 14.225
46.04000 22.520
46.08000 12.180
46.12000 21.422
46.16000 21.418
46.20000 23.679
46.24000 18.265
46.28000 19.418
46.32000 21.453
46.36000 18.190
46.40000 21.476
46.44000 14.213
46.48000 22.408
46.52000 14.404
46.56000 10.187
46.60000 18.470
46.64000 14.334
46.68000 20.295
46.72000 11.247
46.76000 19.231
46.80000 14.468
46.84000 17.142
46.88000 20.427
46.92000 15.157
46.96000 15.412
47.00000 10.261
47.04000 18.340
47.08000 14.200
47.12000 14.251
47.16000 22.433
47.20000 10.259
47.24000 15.399
47.28000 16.358
47.32000 13.247
47.36000 18.327
47.40000 17.118
47.44000 25.279
47.48000 16.417
47.52000 25.785
47.56000 20.321
47.60000 11.171
47.64000 12.268
47.68000 21.481
47.72000 15.334
47.76000 15.458
47.80000 26.552
47.84000 21.417
47.88000 16.328
47.92000 20.302
47.96000 16.178
48.00000 14.319
48.04000 15.296
48.08000 16.225
48.12000 13.297
48.16000 17.475
48.20000 21.388
48.24000 14.257
48.28000 12.332
48.32000 11.171
48.36000 17.282
48.40000 18.429
48.44000 18.350
48.48000 14.251
48.52000 11.138
48.56000 14.304
48.60000 16.126
48.64000 18.392
48.68000 25.466
48.72000 15.304
48.76000 15.278
48.80000 10.233
48.84000 13.288
48.88000 18.293
48.92000 10.067
48.96000 21.528
49.00000 16.352
49.04000 11.267
49.08000 10.199
49.12000 21.377
49.16000 15.158
49.20000 21.606
49.24000 16.292
49.28000 21.531
49.32000 24.411
49.36000 13.264
49.40000 9.214
49.44000 18.501
49.48000 22.243
49.52000 16.220
49.56000 20.218
49.60000 22.701
49.64000 13.301
49.68000 16.206
49.72000 19.447
49.76000 23.144
49.80000 18.399
49.84000 25.417
49.88000 15.331
49.92000 16.336
49.96000 13.326
50.00000 21.485
50.04000 19.328
50.08000 17.360
50.12000 20.282
50.16000 22.621
50.20000 27.593
50.24000 22.410
50.28000 27.553
50.32000 19.362
50.36000 27.523
50.40000 37.911
50.44000 44.018
50.48000 54.219
50.52000 66.313
50.56000 56.012
50.60000 71.371
50.64000 71.230
50.68000 64.436
50.72000 56.380
50.76000 60.295
50.80000 42.141
50.84000 42.696
50.88000 22.484
50.92000 25.432
50.96000 29.767
51.00000 22.397
51.04000 34.531
51.08000 24.402
51.12000 15.258
51.16000 26.414
51.20000 20.454
51.24000 19.311
51.28000 20.416
51.32000 20.579
51.36000 19.328
51.40000 18.570
51.44000 17.279
51.48000 9.118
51.52000 12.166
51.56000 15.221
51.60000 24.653
51.64000 20.261
51.68000 19.773
51.72000 20.469
51.76000 12.293
51.80000 15.334
51.84000 10.311
51.88000 20.472
51.92000 11.217
51.96000 17.408
52.00000 12.318
52.04000 9.213
52.08000 22.458
52.12000 20.384
52.16000 19.231
52.20000 22.243
52.24000 22.538
52.28000 14.418
52.32000 12.179
52.36000 19.368
52.40000 19.543
52.44000 13.443
52.48000 23.586
52.52000 21.441
52.56000 17.223
52.60000 18.149
52.64000 14.229
52.68000 23.440
52.72000 21.292
52.76000 14.250
52.80000 21.362
52.84000 19.336
52.88000 27.451
52.92000 17.154
52.96000 15.131
53.00000 20.426
53.04000 24.481
53.08000 13.203
53.12000 19.122
53.16000 24.411
53.20000 16.367
53.24000 24.616
53.28000 24.726
53.32000 19.347
53.36000 18.388
53.40000 19.367
53.44000 23.279
53.48000 18.364
53.52000 24.550
53.56000 22.427
53.60000 16.468
53.64000 22.337
53.68000 13.296
53.72000 20.501
53.76000 14.202
53.80000 18.280
53.84000 18.454
53.88000 12.111
53.92000 20.518
53.96000 19.304
54.00000 14.277
54.04000 24.175
54.08000 14.257
54.12000 11.178
54.16000 11.232
54.20000 21.525
54.24000 19.294
54.28000 17.204
54.32000 19.426
54.36000 11.263
54.40000 16.304
54.44000 25.562
54.48000 19.280
54.52000 23.510
54.56000 7.135
54.60000 14.228
54.64000 11.233
54.68000 18.344
54.72000 16.307
54.76000 15.486
54.80000 18.384
54.84000 28.353
54.88000 25.359
54.92000 24.432
54.96000 20.428
55.00000 25.322
55.04000 21.474
55.08000 19.368
55.12000 19.434
55.16000 21.494
55.20000 29.558
55.24000 35.710
55.28000 23.631
55.32000 28.603
55.36000 32.491
55.40000 39.766
55.44000 35.509
55.48000 47.860
55.52000 54.316
55.56000 50.918
55.60000 70.576
55.64000 78.568
55.68000 96.585
55.72000 136.157
55.76000 142.561
55.80000 173.038
55.84000 196.960
55.88000 212.635
55.92000 191.820
55.96000 170.170
56.00000 128.682
56.04000 104.562
56.08000 91.558
56.12000 95.704
56.16000 69.695
56.20000 50.984
56.24000 45.780
56.28000 31.442
56.32000 37.658
56.36000 24.384
56.40000 20.174
56.44000 25.297
56.48000 24.383
56.52000 22.424
56.56000 22.536
56.60000 22.373
56.64000 18.352
56.68000 21.449
56.72000 19.370
56.76000 19.308
56.80000 23.294
56.84000 26.606
56.88000 16.394
56.92000 14.196
56.96000 19.436
57.00000 15.168
57.04000 18.415
57.08000 22.346
57.12000 21.368
57.16000 15.333
57.20000 17.277
57.24000 22.512
57.28000 21.602
57.32000 26.441
57.36000 13.269
57.40000 20.542
57.44000 15.346
57.48000 12.269
57.52000 22.556
57.56000 17.397
57.60000 12.125
57.64000 20.239
57.68000 13.062
57.72000 19.541
57.76000 11.308
57.80000 16.338
57.84000 10.100
57.88000 11.082
57.92000 21.578
57.96000 17.487
58.00000 15.296
58.04000 11.189
58.08000 17.448
58.12000 13.286
58.16000 12.213
58.20000 19.565
58.24000 24.660
58.28000 16.464
58.32000 13.391
58.36000 12.365
58.40000 14.300
58.44000 13.294
58.48000 22.478
58.52000 18.402
58.56000 16.323
58.60000 16.266
58.64000 14.293
58.68000 17.200
58.72000 22.222
58.76000 13.216
58.80000 14.191
58.84000 19.587
58.88000 17.362
58.92000 16.224
58.96000 16.326
59.00000 20.426
59.04000 10.217
59.08000 12.202
59.12000 13.355
59.16000 13.352
59.20000 23.654
59.24000 17.140
59.28000 18.505
59.32000 22.414
59.36000 12.300
59.40000 21.228
59.44000 14.153
59.48000 18.238
59.52000 14.241
59.56000 18.511
59.60000 19.262
59.64000 13.269
59.68000 19.288
59.72000 15.274
59.76000 14.168
59.80000 16.093
59.84000 13.363
59.88000 16.420
59.92000 15.309
59.96000 20.323
60.00000 16.268
60.04000 17.364
60.08000 21.530
60.12000 24.330
60.16000 11.170
60.20000 16.196
60.24000 17.232
60.28000 13.279
60.32000 13.202
60.36000 17.390
60.40000 20.391
60.44000 21.419
60.48000 16.055
60.52000 16.492
60.56000 18.296
60.60000 28.593
60.64000 12.201
60.68000 15.361
60.72000 22.434
60.76000 18.321
60.80000 16.352
60.84000 18.577
60.88000 15.224
60.92000 13.273
60.96000 20.406
61.00000 17.459
61.04000 23.409
61.08000 16.229
61.12000 17.373
61.16000 17.418
61.20000 10.178
61.24000 12.203
61.28000 24.577
61.32000 17.348
61.36000 25.545
61.40000 18.423
61.44000 22.458
61.48000 21.458
61.52000 21.248
61.56000 17.250
61.60000 24.634
61.64000 16.304
61.68000 22.330
61.72000 27.651
61.76000 23.314
61.80000 32.636
61.84000 23.447
61.88000 18.256
61.92000 25.796
61.96000 14.371
62.00000 24.499
62.04000 22.488
62.08000 21.383
62.12000 18.321
62.16000 24.767
62.20000 18.636
62.24000 21.448
62.28000 20.414
62.32000 18.649
62.36000 21.385
62.40000 25.690
62.44000 17.302
62.48000 13.384
62.52000 18.199
62.56000 22.543
62.60000 37.934
62.64000 20.431
62.68000 19.283
62.72000 19.416
62.76000 19.487
62.80000 21.558
62.84000 24.273
62.88000 26.541
62.92000 24.623
62.96000 29.589
63.00000 12.423
63.04000 25.545
63.08000 20.226
63.12000 20.507
63.16000 26.515
63.20000 28.499
63.24000 19.351
63.28000 21.496
63.32000 25.658
63.36000 31.771
63.40000 17.435
63.44000 26.589
63.48000 28.622
63.52000 15.239
63.56000 29.414
63.60000 24.388
63.64000 21.239
63.68000 19.407
63.72000 30.718
63.76000 26.625
63.80000 16.171
63.84000 31.647
63.88000 30.465
63.92000 25.596
63.96000 35.798
64.00000 34.773
64.04000 23.380
64.08000 16.125
64.12000 25.427
64.16000 23.358
64.20000 24.221
64.24000 24.537
64.28000 30.422
64.32000 26.457
64.36000 29.415
64.40000 39.661
64.44000 30.593
64.48000 37.968
64.52000 25.317
64.56000 32.541
64.60000 22.225
64.64000 28.592
64.68000 35.696
64.72000 33.524
64.76000 38.849
64.80000 36.837
64.84000 32.660
64.88000 37.730
64.92000 49.804
64.96000 36.816
65.00000 53.931
65.04000 45.641
65.08000 57.021
65.12000 49.007
65.16000 60.698
65.20000 65.387
65.24000 84.797
65.28000 93.294
65.32000 100.973
65.36000 105.102
65.40000 114.413
65.44000 115.871
65.48000 133.131
65.52000 112.046
65.56000 94.926
65.60000 80.454
65.64000 84.654
65.68000 91.693
65.72000 88.478
65.76000 82.389
65.80000 76.381
65.84000 70.284
65.88000 66.285
65.92000 68.351
65.96000 80.628
66.00000 76.818
66.04000 63.963
66.08000 60.723
66.12000 47.835
66.16000 51.023
66.20000 71.477
66.24000 60.143
66.28000 56.188
66.32000 60.405
66.36000 43.791
66.40000 52.162
66.44000 71.134
66.48000 57.164
66.52000 70.222
66.56000 74.564
66.60000 57.260
66.64000 75.777
66.68000 67.095
66.72000 63.383
66.76000 60.110
66.80000 79.119
66.84000 72.397
66.88000 78.529
66.92000 69.111
66.96000 74.679
67.00000 75.416
67.04000 71.446
67.08000 78.896
67.12000 93.160
67.16000 95.838
67.20000 100.066
67.24000 114.681
67.28000 100.328
67.32000 101.932
67.36000 92.383
67.40000 111.370
67.44000 104.023
67.48000 129.947
67.52000 126.180
67.56000 141.704
67.60000 140.776
67.64000 105.228
67.68000 140.805
67.72000 137.967
67.76000 161.303
67.80000 156.838
67.84000 148.802
67.88000 169.886
67.92000 167.266
67.96000 167.361
68.00000 174.533
68.04000 218.594
68.08000 231.548
68.12000 212.674
68.16000 254.131
68.20000 230.509
68.24000 238.119
68.28000 281.445
68.32000 291.021
68.36000 292.493
68.40000 325.809
68.44000 360.882
68.48000 362.417
68.52000 418.012
68.56000 448.865
68.60000 490.965
68.64000 582.262
68.68000 655.756
68.72000 606.204
68.76000 658.076
68.80000 706.134
68.84000 812.331
68.88000 903.120
68.92000 869.423
68.96000 942.376
69.00000 948.563
69.04000 1021.652
69.08000 1011.456
69.12000 1092.261
69.16000 1037.260
69.20000 1082.894
69.24000 1066.784
69.28000 1032.289
69.32000 989.603
69.36000 930.609
69.40000 916.726
69.44000 881.073
69.48000 758.956
69.52000 780.019
69.56000 676.582
69.60000 653.571
69.64000 602.869
69.68000 620.849
69.72000 498.196
69.76000 496.567
69.80000 435.419
69.84000 363.561
69.88000 341.977
69.92000 375.746
69.96000 317.588
70.00000 284.633
70.04000 303.147
70.08000 290.886
70.12000 285.002
70.16000 217.449
70.20000 244.057
70.24000 228.381
70.28000 226.398
70.32000 207.171
70.36000 186.098
70.40000 190.630
70.44000 156.525
70.48000 164.671
70.52000 131.235
70.56000 152.797
70.60000 147.003
70.64000 126.763
70.68000 123.790
70.72000 124.486
70.76000 134.928
70.80000 109.631
70.84000 122.555
70.88000 102.405
70.92000 95.459
70.96000 97.855
71.00000 95.827
71.04000 88.155
71.08000 91.770
71.12000 87.909
71.16000 95.852
71.20000 66.567
71.24000 68.350
71.28000 73.459
71.32000 81.657
71.36000 67.424
71.40000 60.419
71.44000 74.577
71.48000 62.250
71.52000 70.024
71.56000 54.954
71.60000 66.402
71.64000 55.103
71.68000 57.131
71.72000 55.193
71.76000 43.869
71.80000 54.125
71.84000 57.245
71.88000 59.270
71.92000 57.022
71.96000 52.064
72.00000 55.255
72.04000 54.184
72.08000 42.738
72.12000 47.259
72.16000 33.388
72.20000 64.480
72.24000 51.110
72.28000 61.409
72.32000 49.107
72.36000 41.804
72.40000 41.111
72.44000 46.746
72.48000 37.611
72.52000 40.685
72.56000 43.620
72.60000 59.185
72.64000 31.743
72.68000 37.734
72.72000 35.722
72.76000 32.939
72.80000 33.664
72.84000 30.561
72.88000 36.667
72.92000 33.926
72.96000 29.394
73.00000 24.418
73.04000 34.391
73.08000 35.760
73.12000 38.798
73.16000 33.685
73.20000 39.929
73.24000 37.547
73.28000 24.641
73.32000 27.474
73.36000 38.634
73.40000 32.674
73.44000 28.734
73.48000 32.661
73.52000 32.433
73.56000 22.415
73.60000 32.426
73.64000 30.653
73.68000 33.876
73.72000 23.440
73.76000 24.402
73.80000 32.634
73.84000 45.038
73.88000 33.642
73.92000 36.769
73.96000 36.868
74.00000 30.601
74.04000 24.507
74.08000 39.625
74.12000 30.639
74.16000 52.151
74.20000 37.839
74.24000 39.639
74.28000 54.766
74.32000 55.955
74.36000 61.464
74.40000 50.891
74.44000 51.198
74.48000 45.102
74.52000 36.726
74.56000 53.075
74.60000 45.096
74.64000 38.714
74.68000 48.964
74.72000 39.876
74.76000 31.676
74.80000 26.737
74.84000 31.506
74.88000 28.617
74.92000 34.679
74.96000 26.325
75.00000 23.497