File: XRD/XRD/Grazing Incidence/XY Data/Dilan_test_gixrd.xy
36.00000 43.947
36.02000 56.873
36.04000 40.179
36.06000 49.173
36.08000 45.835
36.10000 51.128
36.12000 67.113
36.14000 49.930
36.16000 38.854
36.18000 32.183
36.20000 38.126
36.22000 49.006
36.24000 47.966
36.26000 47.933
36.28000 63.958
36.30000 47.823
36.32000 52.122
36.34000 45.711
36.36000 41.207
36.38000 47.992
36.40000 46.033
36.42000 44.577
36.44000 41.052
36.46000 40.863
36.48000 40.082
36.50000 59.035
36.52000 44.090
36.54000 50.926
36.56000 53.084
36.58000 50.794
36.60000 56.033
36.62000 47.813
36.64000 32.970
36.66000 43.054
36.68000 45.803
36.70000 47.133
36.72000 46.083
36.74000 40.157
36.76000 47.223
36.78000 49.778
36.80000 46.141
36.82000 49.024
36.84000 59.042
36.86000 49.112
36.88000 44.003
36.90000 38.215
36.92000 54.129
36.94000 55.906
36.96000 50.887
36.98000 49.747
37.00000 54.212
37.02000 51.122
37.04000 36.982
37.06000 54.082
37.08000 49.937
37.10000 42.831
37.12000 40.189
37.14000 51.893
37.16000 44.811
37.18000 47.296
37.20000 60.255
37.22000 47.868
37.24000 58.084
37.26000 56.231
37.28000 45.995
37.30000 47.920
37.32000 43.699
37.34000 58.842
37.36000 51.007
37.38000 44.955
37.40000 42.612
37.42000 52.893
37.44000 55.293
37.46000 45.065
37.48000 33.884
37.50000 41.226
37.52000 39.946
37.54000 58.126
37.56000 55.069
37.58000 51.807
37.60000 58.763
37.62000 54.088
37.64000 54.165
37.66000 56.833
37.68000 60.097
37.70000 49.212
37.72000 62.087
37.74000 61.847
37.76000 39.952
37.78000 53.906
37.80000 55.198
37.82000 54.940
37.84000 49.222
37.86000 61.616
37.88000 70.984
37.90000 67.582
37.92000 55.962
37.94000 62.064
37.96000 74.345
37.98000 61.688
38.00000 67.014
38.02000 79.059
38.04000 59.280
38.06000 72.770
38.08000 77.438
38.10000 89.138
38.12000 87.850
38.14000 67.251
38.16000 69.009
38.18000 61.934
38.20000 63.756
38.22000 68.945
38.24000 72.864
38.26000 70.877
38.28000 71.308
38.30000 64.890
38.32000 78.781
38.34000 85.680
38.36000 56.877
38.38000 71.511
38.40000 58.072
38.42000 64.106
38.44000 62.902
38.46000 50.037
38.48000 80.903
38.50000 59.061
38.52000 71.977
38.54000 67.931
38.56000 54.190
38.58000 65.911
38.60000 57.056
38.62000 62.848
38.64000 71.028
38.66000 61.706
38.68000 57.212
38.70000 57.229
38.72000 59.986
38.74000 55.898
38.76000 61.050
38.78000 57.130
38.80000 48.899
38.82000 62.141
38.84000 53.088
38.86000 50.035
38.88000 53.576
38.90000 60.098
38.92000 45.057
38.94000 52.079
38.96000 57.339
38.98000 55.135
39.00000 46.961
39.02000 61.123
39.04000 43.803
39.06000 59.922
39.08000 52.166
39.10000 66.015
39.12000 47.049
39.14000 62.686
39.16000 57.253
39.18000 43.893
39.20000 58.290
39.22000 46.974
39.24000 59.728
39.26000 51.820
39.28000 54.164
39.30000 57.859
39.32000 39.779
39.34000 44.413
39.36000 54.053
39.38000 64.877
39.40000 49.554
39.42000 48.986
39.44000 43.740
39.46000 50.179
39.48000 57.118
39.50000 50.027
39.52000 73.051
39.54000 48.084
39.56000 53.006
39.58000 52.102
39.60000 53.782
39.62000 51.090
39.64000 56.093
39.66000 54.897
39.68000 37.975
39.70000 37.872
39.72000 71.254
39.74000 52.029
39.76000 47.222
39.78000 48.937
39.80000 56.791
39.82000 57.048
39.84000 47.936
39.86000 63.916
39.88000 74.054
39.90000 54.027
39.92000 43.929
39.94000 51.962
39.96000 60.994
39.98000 46.812
40.00000 75.154
40.02000 56.197
40.04000 49.928
40.06000 54.900
40.08000 55.174
40.10000 62.003
40.12000 49.886
40.14000 57.812
40.16000 56.521
40.18000 55.850
40.20000 57.068
40.22000 66.106
40.24000 50.982
40.26000 49.840
40.28000 58.050
40.30000 48.789
40.32000 64.370
40.34000 57.382
40.36000 59.694
40.38000 47.200
40.40000 53.878
40.42000 56.952
40.44000 65.047
40.46000 51.956
40.48000 50.906
40.50000 45.885
40.52000 66.855
40.54000 47.174
40.56000 66.943
40.58000 44.866
40.60000 42.035
40.62000 55.430
40.64000 53.717
40.66000 47.867
40.68000 59.969
40.70000 56.051
40.72000 52.040
40.74000 71.014
40.76000 59.748
40.78000 44.545
40.80000 38.895
40.82000 58.901
40.84000 59.986
40.86000 66.060
40.88000 45.379
40.90000 42.025
40.92000 55.078
40.94000 52.879
40.96000 78.372
40.98000 57.160
41.00000 68.246
41.02000 45.595
41.04000 68.154
41.06000 55.577
41.08000 54.234
41.10000 49.946
41.12000 64.039
41.14000 63.675
41.16000 55.830
41.18000 58.206
41.20000 50.910
41.22000 53.712
41.24000 62.109
41.26000 60.865
41.28000 57.673
41.30000 64.713
41.32000 66.189
41.34000 47.993
41.36000 54.144
41.38000 47.950
41.40000 54.347
41.42000 55.177
41.44000 62.127
41.46000 50.848
41.48000 59.059
41.50000 58.847
41.52000 60.047
41.54000 58.874
41.56000 46.829
41.58000 60.052
41.60000 61.994
41.62000 66.881
41.64000 65.961
41.66000 52.094
41.68000 63.361
41.70000 55.774
41.72000 55.911
41.74000 67.927
41.76000 49.962
41.78000 54.800
41.80000 62.920
41.82000 60.908
41.84000 53.887
41.86000 67.074
41.88000 65.044
41.90000 66.874
41.92000 60.125
41.94000 69.162
41.96000 57.039
41.98000 45.891
42.00000 68.975
42.02000 45.949
42.04000 64.118
42.06000 50.897
42.08000 80.784
42.10000 50.845
42.12000 69.157
42.14000 64.850
42.16000 61.866
42.18000 48.911
42.20000 59.767
42.22000 71.022
42.24000 81.970
42.26000 62.073
42.28000 56.317
42.30000 64.179
42.32000 76.311
42.34000 73.022
42.36000 65.858
42.38000 58.771
42.40000 68.226
42.42000 78.945
42.44000 65.836
42.46000 67.661
42.48000 68.114
42.50000 85.306
42.52000 81.889
42.54000 83.128
42.56000 86.965
42.58000 105.026
42.60000 106.116
42.62000 99.178
42.64000 104.456
42.66000 112.350
42.68000 114.179
42.70000 115.441
42.72000 136.168
42.74000 155.051
42.76000 131.141
42.78000 175.939
42.80000 147.181
42.82000 187.125
42.84000 200.130
42.86000 191.951
42.88000 181.555
42.90000 181.195
42.92000 188.282
42.94000 192.103
42.96000 193.420
42.98000 173.480
43.00000 197.713
43.02000 164.696
43.04000 170.733
43.06000 160.913
43.08000 172.163
43.10000 140.061
43.12000 168.722
43.14000 136.617
43.16000 124.773
43.18000 119.104
43.20000 139.667
43.22000 112.212
43.24000 120.319
43.26000 104.043
43.28000 93.453
43.30000 102.989
43.32000 75.150
43.34000 84.138
43.36000 79.029
43.38000 56.648
43.40000 96.373
43.42000 74.105
43.44000 80.837
43.46000 75.243
43.48000 68.032
43.50000 76.984
43.52000 82.268
43.54000 60.837
43.56000 74.141
43.58000 66.973
43.60000 53.876
43.62000 56.702
43.64000 62.952
43.66000 60.282
43.68000 63.859
43.70000 74.741
43.72000 57.016
43.74000 56.844
43.76000 67.350
43.78000 58.834
43.80000 60.985
43.82000 72.191
43.84000 62.215
43.86000 76.880
43.88000 55.891
43.90000 69.609
43.92000 58.096
43.94000 67.718
43.96000 63.079
43.98000 45.896
44.00000 69.843
44.02000 56.808
44.04000 69.615
44.06000 66.880
44.08000 62.985
44.10000 54.027
44.12000 81.961
44.14000 77.814
44.16000 64.926
44.18000 75.116
44.20000 64.801
44.22000 62.754
44.24000 64.317
44.26000 84.022
44.28000 73.415
44.30000 68.993
44.32000 72.006
44.34000 69.880
44.36000 63.014
44.38000 66.789
44.40000 69.113
44.42000 73.898
44.44000 78.945
44.46000 88.359
44.48000 68.730
44.50000 75.213
44.52000 80.419
44.54000 71.202
44.56000 63.723
44.58000 62.125
44.60000 74.076
44.62000 76.126
44.64000 69.335
44.66000 84.132
44.68000 73.089
44.70000 70.888
44.72000 73.328
44.74000 80.957
44.76000 69.315
44.78000 71.934
44.80000 55.135
44.82000 70.160
44.84000 64.051
44.86000 64.243
44.88000 55.836
44.90000 60.011
44.92000 59.154
44.94000 53.084
44.96000 68.701
44.98000 54.006
45.00000 57.473
45.02000 55.777
45.04000 62.046
45.06000 52.006
45.08000 61.047
45.10000 58.974
45.12000 64.868
45.14000 59.177
45.16000 65.099
45.18000 56.062
45.20000 58.120
45.22000 73.247
45.24000 57.082
45.26000 61.275
45.28000 57.963
45.30000 71.389
45.32000 53.009
45.34000 63.015
45.36000 60.142
45.38000 42.959
45.40000 59.726
45.42000 57.981
45.44000 65.980
45.46000 47.803
45.48000 70.924
45.50000 57.276
45.52000 46.175
45.54000 49.073
45.56000 51.787
45.58000 39.009
45.60000 65.931
45.62000 58.785
45.64000 58.100
45.66000 52.898
45.68000 41.140
45.70000 61.090
45.72000 60.062
45.74000 63.904
45.76000 65.969
45.78000 48.208
45.80000 60.117
45.82000 56.083
45.84000 50.840
45.86000 41.757
45.88000 57.172
45.90000 50.995
45.92000 48.293
45.94000 38.186
45.96000 54.202
45.98000 57.814
46.00000 46.185
46.02000 49.953
46.04000 55.118
46.06000 43.839
46.08000 54.971
46.10000 43.024
46.12000 53.114
46.14000 51.120
46.16000 54.740
46.18000 40.253
46.20000 60.759
46.22000 61.975
46.24000 53.118
46.26000 56.784
46.28000 48.828
46.30000 40.999
46.32000 42.315
46.34000 60.097
46.36000 47.993
46.38000 53.968
46.40000 43.121
46.42000 59.021
46.44000 41.927
46.46000 55.207
46.48000 50.968
46.50000 44.023
46.52000 44.935
46.54000 57.247
46.56000 46.960
46.58000 52.708
46.60000 54.876
46.62000 64.713
46.64000 51.914
46.66000 50.106
46.68000 50.955
46.70000 37.069
46.72000 60.040
46.74000 42.937
46.76000 44.907
46.78000 49.955
46.80000 51.817
46.82000 47.860
46.84000 49.200
46.86000 58.993
46.88000 51.838
46.90000 53.908
46.92000 43.947
46.94000 58.948
46.96000 44.401
46.98000 54.752
47.00000 71.982
47.02000 55.931
47.04000 49.774
47.06000 45.975
47.08000 57.021
47.10000 53.016
47.12000 59.897
47.14000 55.296
47.16000 45.096
47.18000 50.796
47.20000 45.866
47.22000 34.939
47.24000 64.176
47.26000 55.172
47.28000 55.797
47.30000 50.057
47.32000 50.892
47.34000 54.875
47.36000 57.634
47.38000 54.823
47.40000 54.882
47.42000 41.348
47.44000 41.284
47.46000 50.841
47.48000 33.310
47.50000 55.863
47.52000 45.862
47.54000 40.015
47.56000 56.025
47.58000 44.124
47.60000 50.094
47.62000 43.844
47.64000 42.181
47.66000 36.981
47.68000 69.115
47.70000 49.690
47.72000 43.113
47.74000 52.936
47.76000 46.095
47.78000 42.098
47.80000 38.145
47.82000 40.090
47.84000 45.843
47.86000 48.830
47.88000 39.985
47.90000 41.754
47.92000 45.026
47.94000 50.781
47.96000 47.458
47.98000 27.901
48.00000 56.311
48.02000 35.126
48.04000 39.031
48.06000 42.742
48.08000 42.915
48.10000 53.802
48.12000 47.870
48.14000 57.930
48.16000 42.781
48.18000 61.940
48.20000 38.046
48.22000 49.180
48.24000 48.681
48.26000 47.105
48.28000 54.728
48.30000 50.739
48.32000 39.910
48.34000 48.033
48.36000 55.098
48.38000 49.005
48.40000 45.964
48.42000 46.091
48.44000 36.871
48.46000 51.928
48.48000 65.930
48.50000 53.895
48.52000 49.734
48.54000 38.079
48.56000 54.044
48.58000 45.453
48.60000 48.161
48.62000 44.950
48.64000 51.077
48.66000 53.077
48.68000 47.097
48.70000 44.529
48.72000 41.185
48.74000 65.059
48.76000 36.904
48.78000 38.871
48.80000 39.190
48.82000 43.883
48.84000 46.116
48.86000 57.900
48.88000 53.904
48.90000 63.937
48.92000 56.185
48.94000 42.957
48.96000 45.202
48.98000 39.958
49.00000 53.230
49.02000 52.135
49.04000 47.269
49.06000 54.191
49.08000 43.183
49.10000 46.030
49.12000 65.012
49.14000 39.172
49.16000 47.959
49.18000 49.005
49.20000 50.785
49.22000 47.146
49.24000 43.937
49.26000 54.811
49.28000 44.948
49.30000 54.936
49.32000 38.968
49.34000 49.084
49.36000 45.933
49.38000 50.914
49.40000 43.182
49.42000 49.888
49.44000 39.883
49.46000 55.951
49.48000 42.235
49.50000 49.787
49.52000 51.964
49.54000 41.006
49.56000 40.049
49.58000 60.949
49.60000 39.901
49.62000 44.945
49.64000 50.048
49.66000 50.869
49.68000 46.837
49.70000 47.170
49.72000 56.121
49.74000 36.902
49.76000 61.890
49.78000 44.257
49.80000 53.089
49.82000 48.918
49.84000 36.972
49.86000 36.990
49.88000 54.028
49.90000 33.695
49.92000 37.927
49.94000 50.969
49.96000 51.987
49.98000 54.668
50.00000 62.171
50.02000 43.100
50.04000 46.228
50.06000 52.189
50.08000 50.917
50.10000 61.601
50.12000 45.087
50.14000 59.027
50.16000 45.992
50.18000 45.982
50.20000 53.051
50.22000 41.077
50.24000 58.732
50.26000 50.241
50.28000 46.984
50.30000 37.078
50.32000 51.871
50.34000 50.978
50.36000 57.737
50.38000 43.632
50.40000 50.888
50.42000 36.941
50.44000 44.922
50.46000 52.894
50.48000 42.750
50.50000 50.987
50.52000 47.854
50.54000 39.970
50.56000 34.112
50.58000 47.783
50.60000 48.133
50.62000 40.311
50.64000 38.154
50.66000 56.156
50.68000 35.884
50.70000 41.333
50.72000 45.634
50.74000 42.233
50.76000 50.921
50.78000 50.946
50.80000 38.957
50.82000 45.820
50.84000 46.105
50.86000 49.028
50.88000 49.891
50.90000 36.248
50.92000 54.097
50.94000 38.844
50.96000 66.113
50.98000 40.281
51.00000 52.867
51.02000 40.110
51.04000 50.257
51.06000 49.942
51.08000 54.078
51.10000 48.820
51.12000 45.569
51.14000 42.111
51.16000 51.047
51.18000 40.041
51.20000 47.029
51.22000 47.946
51.24000 39.033
51.26000 42.882
51.28000 38.845
51.30000 39.065
51.32000 46.904
51.34000 38.077
51.36000 37.253
51.38000 38.952
51.40000 43.100
51.42000 34.977
51.44000 54.159
51.46000 52.139
51.48000 41.053
51.50000 40.989
51.52000 50.937
51.54000 41.138
51.56000 35.123
51.58000 44.620
51.60000 43.902
51.62000 38.685
51.64000 34.030
51.66000 35.995
51.68000 36.686
51.70000 48.936
51.72000 35.011
51.74000 28.280
51.76000 40.818
51.78000 29.918
51.80000 54.885
51.82000 50.121
51.84000 48.046
51.86000 51.672
51.88000 44.934
51.90000 40.131
51.92000 41.884
51.94000 39.948
51.96000 51.195
51.98000 30.995
52.00000 52.061
52.02000 45.911
52.04000 37.021
52.06000 39.992
52.08000 40.235
52.10000 31.030
52.12000 46.048
52.14000 53.104
52.16000 47.880
52.18000 47.726
52.20000 41.098
52.22000 35.193
52.24000 38.089
52.26000 54.178
52.28000 50.728
52.30000 48.045
52.32000 39.985
52.34000 38.112
52.36000 40.769
52.38000 46.783
52.40000 37.972
52.42000 32.907
52.44000 41.190
52.46000 39.854
52.48000 46.211
52.50000 42.926
52.52000 36.223
52.54000 45.902
52.56000 45.284
52.58000 47.946
52.60000 45.783
52.62000 36.059
52.64000 33.985
52.66000 42.925
52.68000 59.227
52.70000 41.929
52.72000 37.962
52.74000 43.141
52.76000 50.839
52.78000 49.043
52.80000 37.975
52.82000 35.928
52.84000 43.127
52.86000 42.283
52.88000 50.104
52.90000 41.979
52.92000 46.066
52.94000 25.799
52.96000 41.344
52.98000 38.269
53.00000 48.244
53.02000 46.000
53.04000 29.927
53.06000 29.873
53.08000 46.980
53.10000 44.066
53.12000 33.829
53.14000 26.055
53.16000 43.756
53.18000 40.935
53.20000 57.941
53.22000 35.954
53.24000 36.189
53.26000 39.987
53.28000 35.884
53.30000 41.891
53.32000 39.380
53.34000 39.072
53.36000 49.049
53.38000 48.794
53.40000 40.873
53.42000 33.901
53.44000 37.069
53.46000 36.016
53.48000 48.071
53.50000 36.950
53.52000 41.106
53.54000 47.129
53.56000 41.791
53.58000 36.110
53.60000 34.769
53.62000 27.004
53.64000 41.955
53.66000 47.950
53.68000 46.977
53.70000 40.087
53.72000 37.191
53.74000 44.208
53.76000 44.006
53.78000 37.085
53.80000 51.938
53.82000 47.090
53.84000 40.909
53.86000 57.294
53.88000 45.052
53.90000 44.176
53.92000 37.301
53.94000 29.116
53.96000 26.816
53.98000 44.982
54.00000 35.835
54.02000 55.138
54.04000 40.989
54.06000 59.146
54.08000 49.993
54.10000 37.102
54.12000 36.785
54.14000 33.156
54.16000 29.965
54.18000 32.950
54.20000 37.954
54.22000 43.955
54.24000 29.911
54.26000 30.988
54.28000 39.891
54.30000 39.849
54.32000 39.755
54.34000 31.281
54.36000 40.078
54.38000 43.212
54.40000 38.004
54.42000 40.945
54.44000 39.225
54.46000 54.109
54.48000 38.967
54.50000 48.911
54.52000 45.916
54.54000 36.115
54.56000 46.048
54.58000 28.648
54.60000 46.248
54.62000 43.102
54.64000 33.901
54.66000 50.264
54.68000 44.155
54.70000 45.040
54.72000 41.153
54.74000 42.034
54.76000 46.143
54.78000 38.031
54.80000 43.590
54.82000 35.067
54.84000 39.937
54.86000 53.150
54.88000 36.941
54.90000 32.241
54.92000 43.906
54.94000 51.083
54.96000 40.116
54.98000 48.032
55.00000 38.139
55.02000 51.348
55.04000 49.926
55.06000 54.034
55.08000 55.064
55.10000 30.977
55.12000 40.726
55.14000 38.932
55.16000 34.096
55.18000 43.056
55.20000 30.941
55.22000 46.912
55.24000 52.048
55.26000 39.960
55.28000 47.893
55.30000 55.023
55.32000 46.106
55.34000 52.868
55.36000 60.938
55.38000 46.100
55.40000 48.386
55.42000 43.040
55.44000 56.132
55.46000 57.912
55.48000 48.022
55.50000 48.119
55.52000 53.032
55.54000 41.071
55.56000 61.720
55.58000 51.151
55.60000 47.889
55.62000 45.831
55.64000 38.213
55.66000 36.903
55.68000 49.234
55.70000 46.103
55.72000 33.965
55.74000 43.070
55.76000 35.195
55.78000 43.039
55.80000 49.008
55.82000 36.014
55.84000 35.130
55.86000 46.122
55.88000 49.167
55.90000 50.996
55.92000 31.145
55.94000 41.979
55.96000 39.926
55.98000 47.201
56.00000 38.111
56.02000 37.890
56.04000 32.016
56.06000 41.719
56.08000 52.926
56.10000 30.117
56.12000 45.171
56.14000 34.030
56.16000 43.636
56.18000 39.359
56.20000 31.839
56.22000 39.038
56.24000 44.940
56.26000 38.174
56.28000 44.150
56.30000 47.288
56.32000 44.087
56.34000 45.852
56.36000 28.921
56.38000 43.945
56.40000 32.158
56.42000 32.926
56.44000 39.038
56.46000 47.175
56.48000 29.977
56.50000 49.187
56.52000 38.943
56.54000 35.130
56.56000 36.925
56.58000 22.217
56.60000 33.818
56.62000 34.071
56.64000 34.960
56.66000 36.057
56.68000 29.008
56.70000 38.970
56.72000 38.035
56.74000 40.973
56.76000 31.892
56.78000 35.310
56.80000 30.784
56.82000 37.904
56.84000 41.104
56.86000 45.049
56.88000 32.768
56.90000 53.123
56.92000 45.986
56.94000 41.853
56.96000 25.860
56.98000 34.936
57.00000 32.013
57.02000 41.238
57.04000 35.084
57.06000 39.870
57.08000 41.171
57.10000 55.031
57.12000 43.855
57.14000 33.915
57.16000 48.134
57.18000 38.100
57.20000 41.802
57.22000 42.923
57.24000 41.112
57.26000 29.021
57.28000 32.963
57.30000 45.061
57.32000 43.982
57.34000 34.067
57.36000 39.809
57.38000 42.835
57.40000 38.782
57.42000 44.115
57.44000 49.332
57.46000 29.790
57.48000 40.809
57.50000 34.256
57.52000 44.935
57.54000 38.633
57.56000 41.259
57.58000 40.071
57.60000 34.975
57.62000 36.155
57.64000 38.178
57.66000 36.110
57.68000 37.027
57.70000 34.032
57.72000 41.929
57.74000 37.943
57.76000 40.880
57.78000 28.875
57.80000 27.940
57.82000 32.100
57.84000 33.180
57.86000 26.836
57.88000 29.868
57.90000 45.864
57.92000 39.108
57.94000 29.114
57.96000 42.821
57.98000 35.796
58.00000 36.185
58.02000 28.841
58.04000 37.470
58.06000 39.038
58.08000 38.977
58.10000 35.873
58.12000 50.265
58.14000 41.950
58.16000 39.158
58.18000 31.925
58.20000 33.176
58.22000 31.842
58.24000 37.193
58.26000 38.888
58.28000 40.763
58.30000 25.109
58.32000 33.784
58.34000 34.870
58.36000 28.069
58.38000 46.009
58.40000 28.064
58.42000 45.906
58.44000 36.006
58.46000 33.912
58.48000 36.040
58.50000 53.103
58.52000 31.926
58.54000 29.166
58.56000 30.058
58.58000 41.102
58.60000 32.174
58.62000 50.785
58.64000 27.964
58.66000 31.028
58.68000 38.970
58.70000 38.617
58.72000 32.870
58.74000 29.136
58.76000 36.179
58.78000 31.797
58.80000 37.334
58.82000 36.960
58.84000 32.905
58.86000 36.008
58.88000 40.900
58.90000 38.841
58.92000 28.879
58.94000 32.744
58.96000 34.057
58.98000 34.098
59.00000 33.939
59.02000 30.025
59.04000 17.876
59.06000 41.866
59.08000 29.865
59.10000 22.862
59.12000 40.958
59.14000 32.091
59.16000 35.876
59.18000 32.894
59.20000 31.027
59.22000 34.075
59.24000 39.960
59.26000 34.953
59.28000 37.318
59.30000 37.144
59.32000 27.894
59.34000 40.138
59.36000 40.070
59.38000 42.020
59.40000 45.272
59.42000 24.837
59.44000 35.797
59.46000 31.117
59.48000 30.993
59.50000 32.128
59.52000 27.032
59.54000 36.158
59.56000 31.173
59.58000 36.695
59.60000 29.087
59.62000 35.076
59.64000 34.979
59.66000 25.051
59.68000 26.998
59.70000 30.921
59.72000 34.096
59.74000 34.982
59.76000 35.811
59.78000 45.931
59.80000 40.144
59.82000 28.698
59.84000 32.000
59.86000 35.926
59.88000 26.988
59.90000 28.876
59.92000 43.879
59.94000 28.062
59.96000 55.198
59.98000 39.171
60.00000 43.789
60.02000 40.835
60.04000 39.055
60.06000 41.085
60.08000 31.022
60.10000 29.119
60.12000 24.042
60.14000 32.102
60.16000 31.088
60.18000 24.992
60.20000 34.825
60.22000 29.098
60.24000 42.020
60.26000 30.887
60.28000 34.869
60.30000 39.854
60.32000 38.108
60.34000 38.868
60.36000 28.909
60.38000 33.031
60.40000 23.957
60.42000 33.060
60.44000 23.106
60.46000 41.877
60.48000 34.102
60.50000 28.072
60.52000 35.357
60.54000 25.951
60.56000 42.883
60.58000 41.692
60.60000 37.932
60.62000 31.813
60.64000 24.834
60.66000 36.080
60.68000 35.002
60.70000 35.143
60.72000 33.891
60.74000 25.879
60.76000 37.217
60.78000 22.984
60.80000 26.968
60.82000 24.980
60.84000 31.762
60.86000 29.975
60.88000 34.091
60.90000 34.898
60.92000 30.984
60.94000 40.221
60.96000 34.846
60.98000 44.116
61.00000 41.108
61.02000 38.822
61.04000 37.143
61.06000 21.082
61.08000 35.733
61.10000 35.001
61.12000 32.145
61.14000 31.932
61.16000 39.009
61.18000 35.773
61.20000 32.116
61.22000 46.119
61.24000 25.921
61.26000 38.387
61.28000 34.993
61.30000 43.953
61.32000 34.998
61.34000 32.993
61.36000 38.122
61.38000 33.806
61.40000 43.915
61.42000 31.239
61.44000 30.814
61.46000 41.183
61.48000 41.161
61.50000 26.854
61.52000 39.976
61.54000 37.042
61.56000 35.181
61.58000 37.066
61.60000 37.980
61.62000 42.137
61.64000 34.803
61.66000 32.112
61.68000 35.826
61.70000 43.679
61.72000 47.988
61.74000 39.855
61.76000 46.945
61.78000 47.865
61.80000 54.336
61.82000 37.904
61.84000 48.081
61.86000 37.775
61.88000 52.930
61.90000 38.004
61.92000 36.194
61.94000 36.947
61.96000 62.221
61.98000 42.929
62.00000 44.090
62.02000 61.009
62.04000 75.155
62.06000 73.320
62.08000 56.162
62.10000 63.029
62.12000 70.239
62.14000 84.807
62.16000 72.771
62.18000 85.168
62.20000 78.413
62.22000 97.531
62.24000 84.085
62.26000 87.312
62.28000 99.212
62.30000 81.886
62.32000 104.886
62.34000 102.877
62.36000 84.020
62.38000 101.151
62.40000 91.019
62.42000 99.635
62.44000 93.883
62.46000 86.288
62.48000 83.995
62.50000 84.494
62.52000 67.085
62.54000 82.683
62.56000 69.347
62.58000 70.104
62.60000 55.183
62.62000 51.130
62.64000 57.760
62.66000 62.888
62.68000 50.025
62.70000 53.183
62.72000 56.982
62.74000 50.850
62.76000 53.133
62.78000 46.370
62.80000 47.998
62.82000 50.046
62.84000 36.996
62.86000 40.384
62.88000 39.886
62.90000 40.121
62.92000 33.786
62.94000 32.899
62.96000 34.037
62.98000 39.876
63.00000 36.910
63.02000 55.065
63.04000 34.025
63.06000 45.878
63.08000 45.258
63.10000 44.870
63.12000 28.060
63.14000 38.841
63.16000 36.171
63.18000 31.993
63.20000 33.016
63.22000 38.917
63.24000 29.931
63.26000 31.095
63.28000 42.075
63.30000 37.897
63.32000 33.093
63.34000 30.759
63.36000 39.226
63.38000 31.063
63.40000 44.034
63.42000 31.130
63.44000 27.940
63.46000 23.985
63.48000 35.151
63.50000 43.014
63.52000 36.195
63.54000 22.131
63.56000 36.063
63.58000 27.324
63.60000 38.066
63.62000 40.285
63.64000 30.039
63.66000 31.980
63.68000 28.993
63.70000 34.068
63.72000 33.968
63.74000 30.884
63.76000 27.952
63.78000 31.156
63.80000 38.150
63.82000 27.087
63.84000 38.136
63.86000 33.031
63.88000 36.669
63.90000 35.247
63.92000 41.835
63.94000 19.966
63.96000 33.748
63.98000 33.065
64.00000 33.025