File: XRD/XRD/Grazing Incidence/XY Data/Dilan_Full_Stack_Training_3_grazing_incidience.xy
20.00000 193.102
20.04000 215.569
20.08000 180.641
20.12000 168.307
20.16000 196.085
20.20000 194.745
20.24000 193.142
20.28000 179.227
20.32000 157.938
20.36000 168.919
20.40000 171.250
20.44000 180.673
20.48000 163.216
20.52000 177.026
20.56000 181.182
20.60000 181.061
20.64000 208.005
20.68000 181.775
20.72000 189.826
20.76000 181.181
20.80000 155.977
20.84000 179.065
20.88000 158.000
20.92000 192.035
20.96000 168.932
21.00000 201.429
21.04000 170.602
21.08000 183.313
21.12000 173.235
21.16000 184.135
21.20000 191.763
21.24000 193.157
21.28000 197.841
21.32000 190.232
21.36000 199.409
21.40000 205.353
21.44000 179.158
21.48000 194.267
21.52000 201.097
21.56000 200.483
21.60000 202.008
21.64000 213.898
21.68000 216.659
21.72000 266.416
21.76000 298.841
21.80000 309.443
21.84000 354.563
21.88000 388.282
21.92000 533.232
21.96000 691.496
22.00000 746.575
22.04000 908.891
22.08000 1004.972
22.12000 994.012
22.16000 1083.557
22.20000 988.491
22.24000 850.794
22.28000 736.469
22.32000 631.537
22.36000 472.483
22.40000 393.770
22.44000 313.114
22.48000 256.758
22.52000 219.168
22.56000 201.994
22.60000 222.547
22.64000 181.136
22.68000 166.355
22.72000 176.769
22.76000 196.316
22.80000 172.138
22.84000 189.954
22.88000 144.521
22.92000 145.886
22.96000 179.261
23.00000 166.926
23.04000 163.255
23.08000 177.700
23.12000 174.157
23.16000 169.250
23.20000 154.189
23.24000 166.781
23.28000 131.333
23.32000 151.156
23.36000 167.135
23.40000 150.413
23.44000 152.042
23.48000 157.110
23.52000 174.212
23.56000 178.698
23.60000 136.846
23.64000 136.924
23.68000 160.580
23.72000 152.999
23.76000 166.744
23.80000 156.089
23.84000 154.075
23.88000 142.558
23.92000 154.221
23.96000 150.182
24.00000 149.235
24.04000 170.219
24.08000 144.985
24.12000 153.989
24.16000 136.342
24.20000 130.086
24.24000 157.560
24.28000 162.268
24.32000 114.119
24.36000 159.152
24.40000 168.637
24.44000 159.195
24.48000 145.014
24.52000 147.794
24.56000 140.499
24.60000 134.987
24.64000 172.805
24.68000 157.215
24.72000 150.516
24.76000 159.929
24.80000 169.815
24.84000 147.192
24.88000 131.964
24.92000 136.470
24.96000 135.029
25.00000 153.971
25.04000 133.294
25.08000 146.536
25.12000 154.746
25.16000 152.991
25.20000 150.020
25.24000 150.185
25.28000 132.031
25.32000 138.480
25.36000 167.097
25.40000 143.111
25.44000 146.952
25.48000 172.130
25.52000 159.572
25.56000 151.213
25.60000 149.594
25.64000 164.779
25.68000 147.233
25.72000 145.265
25.76000 146.646
25.80000 149.696
25.84000 160.446
25.88000 134.488
25.92000 153.470
25.96000 148.550
26.00000 145.670
26.04000 136.985
26.08000 160.531
26.12000 132.843
26.16000 146.060
26.20000 151.795
26.24000 142.706
26.28000 162.476
26.32000 154.754
26.36000 153.753
26.40000 131.958
26.44000 151.851
26.48000 143.819
26.52000 146.675
26.56000 143.727
26.60000 162.195
26.64000 131.061
26.68000 145.790
26.72000 128.077
26.76000 162.989
26.80000 143.826
26.84000 146.669
26.88000 137.963
26.92000 135.304
26.96000 152.129
27.00000 126.429
27.04000 136.663
27.08000 138.361
27.12000 115.812
27.16000 140.932
27.20000 151.127
27.24000 155.293
27.28000 143.921
27.32000 138.145
27.36000 135.468
27.40000 146.978
27.44000 158.949
27.48000 151.289
27.52000 147.063
27.56000 146.911
27.60000 172.946
27.64000 144.877
27.68000 160.214
27.72000 144.160
27.76000 147.054
27.80000 156.762
27.84000 143.116
27.88000 159.891
27.92000 139.521
27.96000 130.783
28.00000 148.514
28.04000 163.929
28.08000 147.764
28.12000 195.792
28.16000 171.969
28.20000 155.071
28.24000 188.283
28.28000 170.892
28.32000 161.109
28.36000 170.181
28.40000 154.622
28.44000 176.958
28.48000 176.917
28.52000 167.425
28.56000 155.626
28.60000 134.890
28.64000 138.722
28.68000 139.996
28.72000 147.035
28.76000 151.105
28.80000 143.883
28.84000 143.847
28.88000 144.881
28.92000 148.451
28.96000 159.818
29.00000 141.166
29.04000 187.239
29.08000 149.383
29.12000 157.817
29.16000 144.371
29.20000 140.149
29.24000 149.334
29.28000 150.273
29.32000 142.966
29.36000 178.875
29.40000 153.392
29.44000 156.240
29.48000 165.979
29.52000 172.872
29.56000 163.285
29.60000 184.368
29.64000 188.470
29.68000 210.581
29.72000 171.816
29.76000 179.140
29.80000 205.377
29.84000 222.113
29.88000 232.178
29.92000 237.484
29.96000 284.848
30.00000 295.463
30.04000 308.774
30.08000 360.838
30.12000 298.903
30.16000 328.083
30.20000 291.873
30.24000 336.227
30.28000 270.841
30.32000 288.907
30.36000 299.586
30.40000 312.974
30.44000 257.653
30.48000 282.624
30.52000 261.870
30.56000 302.497
30.60000 289.547
30.64000 298.030
30.68000 362.996
30.72000 357.751
30.76000 349.922
30.80000 394.090
30.84000 434.638
30.88000 517.178
30.92000 491.788
30.96000 614.871
31.00000 781.638
31.04000 1009.133
31.08000 1258.289
31.12000 1747.454
31.16000 2474.696
31.20000 3536.229
31.24000 5176.744
31.28000 6685.230
31.32000 9000.192
31.36000 10654.360
31.40000 12470.454
31.44000 13456.914
31.48000 13638.942
31.52000 13562.398
31.56000 12093.029
31.60000 10293.576
31.64000 8307.320
31.68000 5984.499
31.72000 4152.378
31.76000 2787.789
31.80000 1892.690
31.84000 1188.789
31.88000 799.688
31.92000 638.775
31.96000 508.861
32.00000 425.430
32.04000 410.847
32.08000 374.357
32.12000 321.810
32.16000 324.710
32.20000 261.868
32.24000 251.577
32.28000 232.617
32.32000 204.864
32.36000 203.108
32.40000 196.465
32.44000 200.408
32.48000 204.844
32.52000 194.188
32.56000 200.403
32.60000 183.208
32.64000 169.061
32.68000 176.391
32.72000 165.202
32.76000 128.236
32.80000 157.564
32.84000 132.531
32.88000 161.438
32.92000 142.047
32.96000 141.179
33.00000 145.654
33.04000 112.702
33.08000 127.033
33.12000 115.992
33.16000 127.989
33.20000 119.031
33.24000 119.797
33.28000 138.558
33.32000 127.896
33.36000 120.882
33.40000 115.912
33.44000 122.586
33.48000 128.719
33.52000 100.084
33.56000 114.710
33.60000 142.932
33.64000 131.928
33.68000 101.104
33.72000 133.578
33.76000 113.111
33.80000 131.887
33.84000 116.913
33.88000 93.299
33.92000 127.939
33.96000 102.844
34.00000 126.878
34.04000 120.947
34.08000 103.274
34.12000 120.585
34.16000 110.350
34.20000 114.680
34.24000 108.714
34.28000 112.149
34.32000 101.886
34.36000 90.757
34.40000 111.702
34.44000 105.396
34.48000 105.856
34.52000 102.105
34.56000 124.903
34.60000 94.083
34.64000 95.954
34.68000 103.996
34.72000 117.189
34.76000 99.398
34.80000 109.830
34.84000 120.849
34.88000 89.678
34.92000 96.545
34.96000 115.030
35.00000 117.112
35.04000 108.058
35.08000 102.854
35.12000 102.993
35.16000 82.777
35.20000 105.023
35.24000 101.449
35.28000 100.676
35.32000 97.050
35.36000 92.724
35.40000 87.890
35.44000 87.784
35.48000 94.990
35.52000 92.053
35.56000 97.204
35.60000 96.965
35.64000 91.995
35.68000 89.736
35.72000 74.221
35.76000 79.185
35.80000 80.219
35.84000 77.925
35.88000 108.482
35.92000 90.618
35.96000 79.064
36.00000 91.252
36.04000 82.955
36.08000 80.956
36.12000 82.297
36.16000 89.607
36.20000 104.796
36.24000 89.259
36.28000 85.663
36.32000 72.002
36.36000 90.826
36.40000 95.527
36.44000 103.743
36.48000 97.798
36.52000 100.784
36.56000 100.833
36.60000 116.790
36.64000 93.012
36.68000 107.766
36.72000 107.376
36.76000 96.553
36.80000 111.854
36.84000 75.167
36.88000 99.595
36.92000 104.897
36.96000 104.791
37.00000 120.850
37.04000 112.986
37.08000 100.718
37.12000 118.101
37.16000 105.171
37.20000 125.160
37.24000 96.735
37.28000 99.275
37.32000 123.744
37.36000 79.686
37.40000 118.549
37.44000 96.822
37.48000 115.768
37.52000 119.391
37.56000 89.031
37.60000 112.918
37.64000 91.791
37.68000 110.024
37.72000 109.242
37.76000 95.903
37.80000 124.474
37.84000 112.346
37.88000 112.902
37.92000 121.303
37.96000 104.497
38.00000 119.657
38.04000 113.422
38.08000 109.191
38.12000 119.906
38.16000 141.973
38.20000 123.012
38.24000 170.554
38.28000 146.776
38.32000 159.110
38.36000 185.562
38.40000 223.262
38.44000 251.647
38.48000 334.592
38.52000 408.256
38.56000 548.809
38.60000 704.978
38.64000 941.285
38.68000 1156.448
38.72000 1330.078
38.76000 1441.452
38.80000 1552.580
38.84000 1609.339
38.88000 1546.316
38.92000 1361.279
38.96000 1231.167
39.00000 1034.162
39.04000 765.124
39.08000 609.163
39.12000 413.925
39.16000 361.511
39.20000 257.542
39.24000 181.968
39.28000 166.794
39.32000 163.383
39.36000 157.356
39.40000 120.856
39.44000 118.048
39.48000 121.062
39.52000 113.770
39.56000 118.842
39.60000 111.804
39.64000 77.746
39.68000 108.120
39.72000 93.662
39.76000 88.980
39.80000 100.401
39.84000 90.857
39.88000 82.625
39.92000 85.152
39.96000 100.822
40.00000 96.782
40.04000 89.940
40.08000 100.117
40.12000 90.993
40.16000 78.941
40.20000 70.810
40.24000 77.843
40.28000 83.115
40.32000 72.972
40.36000 84.350
40.40000 79.777
40.44000 81.318
40.48000 78.874
40.52000 94.049
40.56000 90.276
40.60000 85.808
40.64000 87.241
40.68000 72.884
40.72000 79.727
40.76000 112.831
40.80000 81.163
40.84000 77.689
40.88000 86.008
40.92000 71.994
40.96000 67.987
41.00000 75.789
41.04000 69.377
41.08000 79.025
41.12000 90.470
41.16000 85.699
41.20000 83.898
41.24000 73.736
41.28000 76.025
41.32000 82.025
41.36000 88.801
41.40000 96.882
41.44000 77.650
41.48000 87.533
41.52000 88.660
41.56000 78.029
41.60000 70.027
41.64000 73.074
41.68000 70.072
41.72000 75.776
41.76000 74.913
41.80000 78.177
41.84000 87.989
41.88000 62.982
41.92000 75.939
41.96000 78.924
42.00000 83.220
42.04000 68.006
42.08000 78.146
42.12000 79.202
42.16000 81.886
42.20000 79.060
42.24000 64.059
42.28000 93.475
42.32000 99.614
42.36000 80.837
42.40000 61.894
42.44000 76.621
42.48000 70.660
42.52000 78.919
42.56000 89.825
42.60000 72.810
42.64000 84.651
42.68000 80.918
42.72000 92.081
42.76000 98.092
42.80000 99.851
42.84000 88.677
42.88000 100.084
42.92000 110.859
42.96000 96.030
43.00000 122.692
43.04000 118.072
43.08000 103.903
43.12000 128.539
43.16000 115.899
43.20000 113.082
43.24000 114.087
43.28000 104.423
43.32000 103.146
43.36000 123.876
43.40000 107.903
43.44000 94.640
43.48000 98.995
43.52000 115.788
43.56000 107.006
43.60000 99.946
43.64000 103.821
43.68000 109.212
43.72000 97.607
43.76000 95.793
43.80000 105.171
43.84000 120.613
43.88000 112.268
43.92000 118.444
43.96000 128.573
44.00000 115.334
44.04000 101.874
44.08000 111.929
44.12000 140.263
44.16000 132.005
44.20000 148.225
44.24000 144.897
44.28000 170.997
44.32000 193.048
44.36000 185.986
44.40000 197.942
44.44000 203.271
44.48000 242.262
44.52000 268.670
44.56000 295.561
44.60000 385.214
44.64000 424.581
44.68000 520.212
44.72000 625.977
44.76000 820.964
44.80000 1083.717
44.84000 1407.043
44.88000 1810.678
44.92000 2224.234
44.96000 2611.008
45.00000 2948.301
45.04000 3243.863
45.08000 3557.150
45.12000 3370.344
45.16000 3220.883
45.20000 2930.149
45.24000 2480.895
45.28000 2068.681
45.32000 1549.039
45.36000 1194.928
45.40000 853.964
45.44000 687.558
45.48000 523.316
45.52000 383.167
45.56000 278.721
45.60000 271.468
45.64000 203.945
45.68000 188.300
45.72000 185.128
45.76000 156.136
45.80000 145.914
45.84000 151.091
45.88000 131.142
45.92000 133.954
45.96000 122.784
46.00000 120.208
46.04000 96.419
46.08000 122.675
46.12000 104.966
46.16000 131.395
46.20000 96.662
46.24000 104.100
46.28000 78.781
46.32000 102.910
46.36000 96.899
46.40000 76.144
46.44000 97.204
46.48000 86.061
46.52000 86.010
46.56000 96.593
46.60000 97.724
46.64000 85.126
46.68000 92.890
46.72000 97.906
46.76000 107.604
46.80000 95.528
46.84000 82.929
46.88000 64.864
46.92000 77.240
46.96000 81.711
47.00000 91.880
47.04000 69.075
47.08000 90.813
47.12000 66.878
47.16000 93.786
47.20000 74.780
47.24000 82.901
47.28000 63.819
47.32000 68.870
47.36000 58.542
47.40000 81.807
47.44000 87.887
47.48000 73.961
47.52000 84.077
47.56000 78.669
47.60000 62.456
47.64000 80.022
47.68000 63.000
47.72000 84.083
47.76000 69.240
47.80000 73.631
47.84000 71.021
47.88000 81.740
47.92000 72.075
47.96000 73.618
48.00000 84.203
48.04000 92.080
48.08000 75.656
48.12000 79.787
48.16000 77.777
48.20000 70.059
48.24000 81.713
48.28000 81.464
48.32000 80.619
48.36000 85.242
48.40000 75.062
48.44000 74.118
48.48000 88.783
48.52000 96.867
48.56000 77.201
48.60000 84.894
48.64000 93.117
48.68000 88.197
48.72000 71.128
48.76000 87.956
48.80000 78.876
48.84000 80.859
48.88000 74.534
48.92000 79.158
48.96000 68.898
49.00000 96.722
49.04000 76.116
49.08000 76.879
49.12000 85.196
49.16000 70.042
49.20000 80.948
49.24000 84.704
49.28000 89.778
49.32000 74.898
49.36000 87.678
49.40000 74.915
49.44000 77.157
49.48000 81.481
49.52000 79.824
49.56000 75.615
49.60000 88.210
49.64000 93.417
49.68000 87.196
49.72000 92.145
49.76000 93.213
49.80000 98.356
49.84000 107.002
49.88000 94.807
49.92000 76.862
49.96000 86.130
50.00000 99.039
50.04000 108.895
50.08000 121.002
50.12000 136.857
50.16000 118.032
50.20000 145.354
50.24000 170.155
50.28000 190.654
50.32000 167.582
50.36000 208.135
50.40000 274.532
50.44000 345.894
50.48000 410.281
50.52000 463.921
50.56000 567.503
50.60000 750.664
50.64000 799.010
50.68000 882.074
50.72000 913.967
50.76000 966.101
50.80000 905.193
50.84000 910.755
50.88000 805.172
50.92000 733.249
50.96000 668.891
51.00000 517.514
51.04000 404.148
51.08000 341.117
51.12000 246.041
51.16000 232.648
51.20000 182.510
51.24000 177.085
51.28000 124.377
51.32000 112.779
51.36000 98.841
51.40000 94.090
51.44000 105.060
51.48000 87.834
51.52000 79.217
51.56000 85.868
51.60000 71.627
51.64000 83.023
51.68000 69.127
51.72000 78.397
51.76000 81.850
51.80000 77.555
51.84000 77.597
51.88000 82.250
51.92000 81.974
51.96000 86.928
52.00000 78.823
52.04000 83.671
52.08000 74.133
52.12000 80.726
52.16000 86.186
52.20000 72.273
52.24000 83.840
52.28000 86.832
52.32000 56.854
52.36000 68.853
52.40000 74.735
52.44000 82.835
52.48000 64.974
52.52000 66.918
52.56000 78.654
52.60000 54.122
52.64000 67.824
52.68000 58.878
52.72000 68.766
52.76000 76.759
52.80000 87.939
52.84000 80.196
52.88000 61.872
52.92000 81.929
52.96000 54.848
53.00000 76.706
53.04000 79.997
53.08000 93.217
53.12000 66.728
53.16000 90.751
53.20000 96.731
53.24000 81.013
53.28000 89.864
53.32000 89.078
53.36000 87.114
53.40000 71.266
53.44000 96.973
53.48000 84.772
53.52000 90.244
53.56000 80.214
53.60000 102.098
53.64000 88.454
53.68000 86.978
53.72000 78.579
53.76000 83.857
53.80000 87.381
53.84000 90.758
53.88000 64.170
53.92000 105.196
53.96000 74.649
54.00000 79.821
54.04000 91.838
54.08000 74.882
54.12000 54.952
54.16000 74.068
54.20000 75.763
54.24000 77.980
54.28000 93.944
54.32000 75.764
54.36000 86.620
54.40000 98.051
54.44000 88.847
54.48000 96.027
54.52000 71.078
54.56000 114.711
54.60000 77.147
54.64000 74.957
54.68000 105.151
54.72000 79.941
54.76000 97.048
54.80000 99.019
54.84000 111.079
54.88000 107.846
54.92000 91.932
54.96000 114.967
55.00000 125.201
55.04000 119.242
55.08000 118.004
55.12000 128.219
55.16000 123.872
55.20000 135.664
55.24000 133.733
55.28000 169.048
55.32000 181.679
55.36000 194.306
55.40000 218.583
55.44000 252.686
55.48000 288.400
55.52000 330.407
55.56000 394.792
55.60000 513.678
55.64000 634.804
55.68000 791.883
55.72000 1011.340
55.76000 1219.619
55.80000 1426.181
55.84000 1706.990
55.88000 1969.651
55.92000 2168.306
55.96000 2324.330
56.00000 2409.413
56.04000 2333.839
56.08000 2346.162
56.12000 2177.528
56.16000 1907.520
56.20000 1676.160
56.24000 1366.302
56.28000 1185.619
56.32000 992.140
56.36000 727.255
56.40000 611.593
56.44000 491.594
56.48000 384.164
56.52000 296.645
56.56000 255.022
56.60000 206.274
56.64000 159.013
56.68000 162.637
56.72000 131.955
56.76000 157.171
56.80000 139.696
56.84000 119.963
56.88000 129.136
56.92000 143.462
56.96000 103.061
57.00000 115.713
57.04000 103.041
57.08000 116.030
57.12000 100.891
57.16000 83.954
57.20000 81.849
57.24000 102.065
57.28000 81.629
57.32000 81.944
57.36000 98.907
57.40000 85.928
57.44000 81.926
57.48000 84.276
57.52000 89.817
57.56000 70.974
57.60000 68.632
57.64000 89.721
57.68000 73.484
57.72000 67.997
57.76000 80.002
57.80000 72.627
57.84000 58.053
57.88000 77.747
57.92000 74.826
57.96000 78.840
58.00000 73.511
58.04000 76.775
58.08000 71.001
58.12000 62.982
58.16000 88.250
58.20000 67.762
58.24000 70.189
58.28000 77.583
58.32000 74.632
58.36000 74.796
58.40000 70.654
58.44000 68.622
58.48000 66.486
58.52000 69.861
58.56000 64.809
58.60000 80.888
58.64000 53.956
58.68000 54.194
58.72000 68.209
58.76000 66.035
58.80000 60.969
58.84000 66.668
58.88000 62.813
58.92000 63.840
58.96000 68.904
59.00000 61.037
59.04000 59.722
59.08000 68.038
59.12000 79.978
59.16000 63.778
59.20000 55.005
59.24000 65.594
59.28000 72.803
59.32000 61.319
59.36000 58.078
59.40000 48.797
59.44000 70.131
59.48000 55.524
59.52000 55.033
59.56000 75.552
59.60000 55.705
59.64000 73.886
59.68000 58.126
59.72000 53.746
59.76000 56.019
59.80000 53.562
59.84000 51.725
59.88000 52.900
59.92000 58.896
59.96000 62.646
60.00000 73.819
60.04000 62.872
60.08000 49.684
60.12000 64.098
60.16000 67.063
60.20000 53.897
60.24000 49.003
60.28000 58.923
60.32000 63.893
60.36000 59.548
60.40000 54.667
60.44000 61.893
60.48000 59.809
60.52000 61.584
60.56000 81.773
60.60000 50.940
60.64000 49.649
60.68000 54.036
60.72000 69.738
60.76000 58.978
60.80000 58.742
60.84000 66.642
60.88000 49.743
60.92000 61.761
60.96000 59.872
61.00000 57.837
61.04000 64.744
61.08000 39.977
61.12000 66.888
61.16000 69.641
61.20000 64.563
61.24000 50.021
61.28000 57.836
61.32000 60.091
61.36000 62.697
61.40000 51.067
61.44000 48.129
61.48000 67.008
61.52000 57.534
61.56000 70.010
61.60000 50.171
61.64000 49.857
61.68000 42.879
61.72000 63.754
61.76000 54.717
61.80000 51.955
61.84000 70.067
61.88000 47.060
61.92000 60.857
61.96000 52.781
62.00000 59.041
62.04000 53.058
62.08000 57.035
62.12000 66.897
62.16000 63.841
62.20000 56.528
62.24000 60.539
62.28000 71.671
62.32000 55.971
62.36000 63.965
62.40000 85.547
62.44000 59.669
62.48000 88.722
62.52000 59.707
62.56000 81.583
62.60000 58.744
62.64000 61.159
62.68000 71.680
62.72000 72.091
62.76000 66.906
62.80000 72.035
62.84000 68.170
62.88000 50.819
62.92000 57.862
62.96000 56.908
63.00000 54.888
63.04000 68.113
63.08000 51.054
63.12000 54.894
63.16000 69.048
63.20000 66.097
63.24000 59.544
63.28000 54.044
63.32000 60.157
63.36000 60.731
63.40000 49.149
63.44000 59.121
63.48000 58.774
63.52000 53.742
63.56000 57.540
63.60000 73.758
63.64000 55.102
63.68000 61.791
63.72000 63.787
63.76000 69.686
63.80000 76.975
63.84000 70.912
63.88000 68.905
63.92000 67.497
63.96000 65.990
64.00000 74.681
64.04000 69.808
64.08000 67.880
64.12000 62.769
64.16000 62.751
64.20000 60.106
64.24000 64.834
64.28000 86.696
64.32000 69.988
64.36000 68.697
64.40000 64.844
64.44000 68.641
64.48000 59.695
64.52000 66.230
64.56000 66.234
64.60000 73.942
64.64000 68.700
64.68000 84.933
64.72000 78.858
64.76000 91.729
64.80000 118.643
64.84000 110.935
64.88000 95.771
64.92000 104.726
64.96000 113.809
65.00000 143.888
65.04000 160.963
65.08000 157.613
65.12000 183.061
65.16000 222.515
65.20000 260.634
65.24000 298.649
65.28000 386.378
65.32000 487.838
65.36000 573.216
65.40000 681.026
65.44000 747.669
65.48000 886.023
65.52000 1037.830
65.56000 1086.906
65.60000 1109.233
65.64000 1131.197
65.68000 1130.973
65.72000 1064.264
65.76000 962.883
65.80000 977.811
65.84000 789.716
65.88000 729.549
65.92000 604.017
65.96000 462.248
66.00000 412.975
66.04000 371.520
66.08000 296.214
66.12000 250.006
66.16000 186.169
66.20000 129.678
66.24000 115.240
66.28000 106.757
66.32000 96.799
66.36000 85.068
66.40000 110.035
66.44000 95.371
66.48000 86.501
66.52000 102.824
66.56000 75.028
66.60000 95.179
66.64000 91.780
66.68000 80.913
66.72000 86.073
66.76000 67.010
66.80000 74.138
66.84000 65.992
66.88000 83.935
66.92000 80.272
66.96000 76.778
67.00000 59.967
67.04000 61.884
67.08000 72.017
67.12000 65.747
67.16000 74.941
67.20000 63.848
67.24000 69.810
67.28000 57.569
67.32000 57.829
67.36000 69.098
67.40000 63.785
67.44000 61.700
67.48000 57.604
67.52000 64.799
67.56000 58.911
67.60000 60.049
67.64000 66.024
67.68000 73.590
67.72000 66.626
67.76000 50.860
67.80000 66.932
67.84000 48.617
67.88000 49.889
67.92000 52.732
67.96000 62.108
68.00000 64.584
68.04000 74.031
68.08000 55.634
68.12000 54.703
68.16000 53.841
68.20000 56.865
68.24000 78.009
68.28000 59.075
68.32000 59.873
68.36000 52.924
68.40000 56.695
68.44000 54.715
68.48000 70.158
68.52000 70.762
68.56000 65.084
68.60000 65.998
68.64000 55.041
68.68000 64.230
68.72000 53.222
68.76000 55.591
68.80000 57.114
68.84000 62.798
68.88000 69.286
68.92000 57.819
68.96000 64.668
69.00000 59.983
69.04000 62.278
69.08000 80.451
69.12000 79.829
69.16000 63.768
69.20000 71.492
69.24000 65.089
69.28000 80.734
69.32000 64.169
69.36000 67.649
69.40000 85.833
69.44000 77.668
69.48000 67.158
69.52000 84.867
69.56000 92.785
69.60000 101.089
69.64000 102.115
69.68000 121.483
69.72000 117.954
69.76000 136.049
69.80000 150.786
69.84000 169.407
69.88000 178.879
69.92000 211.352
69.96000 248.824
70.00000 251.606