File: XRD/XRD/11-09-2025/XY Data/01092025_BTO_omega_1_001_38_22-524_10-847.xy
20.00000 15.142
20.04000 20.193
20.08000 13.265
20.12000 11.164
20.16000 19.204
20.20000 20.308
20.24000 22.350
20.28000 27.345
20.32000 22.372
20.36000 23.284
20.40000 15.194
20.44000 22.334
20.48000 20.249
20.52000 21.115
20.56000 17.282
20.60000 16.171
20.64000 23.359
20.68000 15.186
20.72000 13.139
20.76000 19.202
20.80000 15.323
20.84000 18.277
20.88000 11.046
20.92000 17.222
20.96000 20.183
21.00000 20.262
21.04000 13.240
21.08000 19.213
21.12000 16.141
21.16000 16.397
21.20000 19.353
21.24000 32.409
21.28000 27.180
21.32000 19.412
21.36000 27.264
21.40000 18.173
21.44000 21.423
21.48000 14.241
21.52000 13.095
21.56000 17.160
21.60000 13.188
21.64000 26.527
21.68000 20.445
21.72000 16.193
21.76000 19.353
21.80000 12.067
21.84000 27.526
21.88000 18.129
21.92000 13.203
21.96000 18.063
22.00000 16.086
22.04000 20.238
22.08000 17.216
22.12000 24.309
22.16000 21.417
22.20000 17.091
22.24000 24.224
22.28000 26.312
22.32000 25.162
22.36000 33.545
22.40000 23.224
22.44000 31.582
22.48000 17.227
22.52000 23.288
22.56000 28.415
22.60000 18.300
22.64000 17.325
22.68000 22.264
22.72000 19.140
22.76000 31.361
22.80000 31.476
22.84000 25.442
22.88000 18.206
22.92000 26.353
22.96000 23.276
23.00000 36.294
23.04000 25.280
23.08000 15.346
23.12000 23.350
23.16000 26.403
23.20000 22.343
23.24000 30.357
23.28000 23.432
23.32000 31.222
23.36000 26.108
23.40000 20.502
23.44000 26.228
23.48000 32.458
23.52000 26.266
23.56000 28.304
23.60000 22.218
23.64000 18.308
23.68000 24.560
23.72000 20.353
23.76000 20.457
23.80000 23.186
23.84000 28.487
23.88000 32.335
23.92000 33.441
23.96000 44.769
24.00000 24.247
24.04000 36.515
24.08000 27.053
24.12000 29.295
24.16000 18.104
24.20000 38.638
24.24000 30.494
24.28000 28.381
24.32000 30.549
24.36000 33.509
24.40000 25.252
24.44000 29.440
24.48000 31.363
24.52000 27.096
24.56000 35.552
24.60000 26.605
24.64000 32.462
24.68000 27.316
24.72000 23.182
24.76000 33.253
24.80000 31.377
24.84000 33.594
24.88000 37.437
24.92000 34.538
24.96000 28.338
25.00000 28.560
25.04000 25.266
25.08000 32.428
25.12000 36.581
25.16000 34.684
25.20000 37.622
25.24000 24.403
25.28000 35.489
25.32000 30.501
25.36000 35.579
25.40000 36.545
25.44000 56.818
25.48000 33.545
25.52000 29.356
25.56000 42.466
25.60000 37.279
25.64000 36.513
25.68000 40.530
25.72000 44.457
25.76000 38.721
25.80000 30.090
25.84000 37.605
25.88000 40.679
25.92000 36.684
25.96000 29.364
26.00000 40.523
26.04000 34.466
26.08000 46.715
26.12000 33.399
26.16000 38.416
26.20000 41.143
26.24000 43.539
26.28000 42.688
26.32000 58.771
26.36000 40.760
26.40000 46.573
26.44000 44.548
26.48000 47.890
26.52000 46.617
26.56000 40.841
26.60000 40.625
26.64000 43.484
26.68000 50.798
26.72000 53.581
26.76000 39.645
26.80000 54.710
26.84000 50.679
26.88000 36.437
26.92000 56.802
26.96000 58.554
27.00000 50.601
27.04000 65.775
27.08000 63.704
27.12000 62.902
27.16000 47.453
27.20000 46.379
27.24000 52.829
27.28000 50.915
27.32000 38.811
27.36000 51.047
27.40000 52.732
27.44000 51.729
27.48000 58.370
27.52000 51.737
27.56000 53.598
27.60000 38.560
27.64000 44.618
27.68000 43.585
27.72000 57.905
27.76000 55.854
27.80000 49.521
27.84000 57.605
27.88000 48.277
27.92000 49.758
27.96000 48.800
28.00000 50.561
28.04000 47.799
28.08000 33.421
28.12000 35.489
28.16000 56.631
28.20000 50.011
28.24000 47.685
28.28000 53.846
28.32000 47.645
28.36000 55.869
28.40000 46.548
28.44000 49.695
28.48000 42.362
28.52000 65.862
28.56000 52.439
28.60000 48.560
28.64000 60.810
28.68000 47.557
28.72000 37.662
28.76000 42.882
28.80000 54.653
28.84000 58.587
28.88000 29.395
28.92000 43.773
28.96000 37.565
29.00000 49.978
29.04000 51.639
29.08000 53.748
29.12000 42.588
29.16000 48.638
29.20000 59.931
29.24000 48.649
29.28000 45.631
29.32000 37.512
29.36000 33.808
29.40000 35.388
29.44000 52.681
29.48000 47.774
29.52000 44.699
29.56000 37.645
29.60000 41.571
29.64000 40.589
29.68000 35.577
29.72000 30.543
29.76000 33.601
29.80000 37.528
29.84000 34.273
29.88000 37.411
29.92000 33.474
29.96000 50.789
30.00000 43.423
30.04000 31.221
30.08000 32.331
30.12000 34.543
30.16000 43.202
30.20000 36.443
30.24000 37.817
30.28000 35.398
30.32000 26.455
30.36000 31.257
30.40000 28.427
30.44000 41.564
30.48000 25.470
30.52000 39.566
30.56000 33.219
30.60000 29.407
30.64000 37.455
30.68000 32.304
30.72000 34.516
30.76000 27.473
30.80000 33.634
30.84000 33.838
30.88000 27.247
30.92000 27.574
30.96000 30.352
31.00000 29.381
31.04000 25.424
31.08000 36.382
31.12000 33.242
31.16000 40.451
31.20000 27.309
31.24000 36.522
31.28000 22.179
31.32000 27.087
31.36000 17.282
31.40000 22.291
31.44000 24.306
31.48000 26.201
31.52000 20.218
31.56000 34.303
31.60000 21.035
31.64000 34.308
31.68000 37.463
31.72000 21.507
31.76000 31.424
31.80000 22.313
31.84000 23.329
31.88000 29.716
31.92000 22.286
31.96000 23.237
32.00000 23.308
32.04000 24.459
32.08000 22.395
32.12000 29.343
32.16000 37.746
32.20000 29.525
32.24000 16.088
32.28000 28.364
32.32000 24.165
32.36000 29.322
32.40000 30.436
32.44000 27.275
32.48000 26.259
32.52000 26.269
32.56000 22.365
32.60000 24.225
32.64000 17.209
32.68000 21.591
32.72000 23.556
32.76000 20.453
32.80000 29.364
32.84000 22.364
32.88000 13.321
32.92000 27.238
32.96000 12.123
33.00000 19.357
33.04000 16.139
33.08000 15.287
33.12000 23.338
33.16000 28.423
33.20000 23.411
33.24000 23.268
33.28000 18.344
33.32000 26.229
33.36000 20.163
33.40000 19.058
33.44000 25.162
33.48000 17.128
33.52000 16.232
33.56000 18.436
33.60000 18.128
33.64000 20.229
33.68000 17.194
33.72000 23.335
33.76000 24.303
33.80000 16.254
33.84000 16.996
33.88000 13.147
33.92000 10.161
33.96000 16.292
34.00000 17.229
34.04000 21.338
34.08000 12.048
34.12000 22.470
34.16000 21.441
34.20000 16.045
34.24000 16.133
34.28000 16.113
34.32000 17.269
34.36000 13.140
34.40000 11.173
34.44000 12.159
34.48000 16.306
34.52000 15.060
34.56000 14.089
34.60000 11.005
34.64000 16.164
34.68000 23.239
34.72000 19.281
34.76000 15.422
34.80000 18.232
34.84000 18.176
34.88000 25.390
34.92000 14.242
34.96000 15.046
35.00000 18.295
35.04000 21.259
35.08000 16.353
35.12000 12.020
35.16000 17.388
35.20000 18.253
35.24000 10.228
35.28000 10.164
35.32000 20.374
35.36000 15.155
35.40000 13.993
35.44000 15.156
35.48000 16.213
35.52000 10.166
35.56000 19.097
35.60000 22.109
35.64000 17.123
35.68000 12.094
35.72000 12.103
35.76000 20.338
35.80000 14.125
35.84000 15.204
35.88000 15.141
35.92000 14.221
35.96000 11.966
36.00000 16.159
36.04000 8.049
36.08000 11.098
36.12000 17.007
36.16000 19.314
36.20000 17.219
36.24000 12.246
36.28000 14.247
36.32000 9.272
36.36000 14.176
36.40000 15.227
36.44000 17.143
36.48000 17.310
36.52000 18.087
36.56000 18.190
36.60000 19.172
36.64000 11.232
36.68000 12.187
36.72000 23.338
36.76000 12.170
36.80000 13.284
36.84000 20.388
36.88000 17.109
36.92000 18.194
36.96000 14.272
37.00000 17.236
37.04000 18.180
37.08000 12.995
37.12000 18.227
37.16000 10.186
37.20000 15.118
37.24000 14.254
37.28000 18.204
37.32000 13.140
37.36000 19.099
37.40000 20.369
37.44000 17.120
37.48000 15.238
37.52000 15.259
37.56000 14.160
37.60000 17.222
37.64000 10.125
37.68000 17.403
37.72000 19.303
37.76000 15.056
37.80000 14.268
37.84000 12.014
37.88000 21.432
37.92000 21.207
37.96000 12.238
38.00000 17.189
38.04000 17.332
38.08000 15.157
38.12000 25.229
38.16000 16.179
38.20000 16.182
38.24000 18.186
38.28000 14.112
38.32000 21.150
38.36000 16.013
38.40000 18.405
38.44000 22.179
38.48000 15.199
38.52000 17.349
38.56000 18.274
38.60000 16.274
38.64000 14.136
38.68000 14.321
38.72000 20.198
38.76000 20.394
38.80000 23.466
38.84000 16.120
38.88000 21.385
38.92000 19.282
38.96000 14.133
39.00000 21.240
39.04000 25.364
39.08000 19.348
39.12000 21.243
39.16000 14.186
39.20000 18.070
39.24000 17.292
39.28000 16.226
39.32000 16.122
39.36000 23.429
39.40000 14.164
39.44000 16.139
39.48000 16.202
39.52000 16.302
39.56000 17.221
39.60000 15.295
39.64000 13.239
39.68000 16.268
39.72000 11.166
39.76000 21.498
39.80000 18.164
39.84000 19.180
39.88000 21.252
39.92000 26.373
39.96000 12.240
40.00000 21.413
40.04000 16.126
40.08000 27.287
40.12000 15.065
40.16000 27.354
40.20000 20.276
40.24000 13.153
40.28000 19.257
40.32000 24.320
40.36000 19.246
40.40000 18.265
40.44000 19.277
40.48000 16.244
40.52000 18.263
40.56000 16.063
40.60000 16.226
40.64000 22.345
40.68000 18.278
40.72000 8.991
40.76000 27.397
40.80000 26.246
40.84000 10.213
40.88000 9.239
40.92000 24.143
40.96000 9.166
41.00000 18.212
41.04000 25.392
41.08000 16.029
41.12000 20.187
41.16000 25.383
41.20000 11.255
41.24000 17.189
41.28000 22.514
41.32000 21.300
41.36000 28.265
41.40000 21.298
41.44000 21.294
41.48000 19.142
41.52000 18.321
41.56000 23.232
41.60000 14.039
41.64000 22.342
41.68000 17.296
41.72000 18.344
41.76000 25.272
41.80000 24.169
41.84000 20.127
41.88000 16.303
41.92000 31.474
41.96000 21.364
42.00000 16.340
42.04000 24.477
42.08000 23.424
42.12000 14.235
42.16000 21.175
42.20000 28.183
42.24000 18.197
42.28000 21.264
42.32000 11.123
42.36000 22.454
42.40000 26.234
42.44000 20.246
42.48000 20.404
42.52000 19.265
42.56000 23.089
42.60000 16.284
42.64000 15.217
42.68000 21.377
42.72000 13.121
42.76000 16.265
42.80000 12.951
42.84000 16.193
42.88000 13.147
42.92000 26.287
42.96000 17.169
43.00000 24.275
43.04000 11.171
43.08000 19.131
43.12000 16.189
43.16000 28.491
43.20000 19.059
43.24000 22.301
43.28000 24.319
43.32000 20.361
43.36000 16.248
43.40000 17.410
43.44000 21.436
43.48000 23.298
43.52000 10.313
43.56000 20.064
43.60000 13.293
43.64000 14.191
43.68000 19.127
43.72000 23.397
43.76000 18.178
43.80000 15.144
43.84000 19.020
43.88000 12.015
43.92000 19.142
43.96000 30.268
44.00000 20.348
44.04000 17.344
44.08000 18.226
44.12000 18.214
44.16000 26.363
44.20000 16.324
44.24000 19.394
44.28000 18.289
44.32000 29.290
44.36000 18.386
44.40000 19.396
44.44000 12.295
44.48000 9.133
44.52000 19.138
44.56000 12.308
44.60000 16.077
44.64000 17.222
44.68000 12.926
44.72000 17.223
44.76000 22.174
44.80000 27.622
44.84000 19.195
44.88000 19.410
44.92000 19.225
44.96000 23.237
45.00000 22.304
45.04000 22.385
45.08000 23.188
45.12000 16.058
45.16000 17.451
45.20000 15.165
45.24000 19.183
45.28000 19.073
45.32000 20.241
45.36000 16.321
45.40000 15.360
45.44000 17.137
45.48000 18.286
45.52000 23.322
45.56000 16.256
45.60000 16.397
45.64000 21.246
45.68000 15.237
45.72000 21.191
45.76000 21.232
45.80000 8.070
45.84000 15.212
45.88000 21.237
45.92000 24.360
45.96000 21.339
46.00000 13.138
46.04000 16.264
46.08000 26.394
46.12000 21.168
46.16000 23.176
46.20000 23.414
46.24000 23.427
46.28000 17.196
46.32000 20.170
46.36000 20.281
46.40000 19.112
46.44000 17.278
46.48000 14.193
46.52000 22.222
46.56000 18.156
46.60000 18.186
46.64000 21.309
46.68000 21.302
46.72000 22.422
46.76000 22.353
46.80000 18.253
46.84000 14.067
46.88000 12.255
46.92000 27.350
46.96000 10.142
47.00000 16.428
47.04000 23.225
47.08000 12.269
47.12000 14.289
47.16000 14.274
47.20000 26.453
47.24000 16.080
47.28000 21.195
47.32000 23.297
47.36000 21.360
47.40000 11.227
47.44000 17.234
47.48000 11.092
47.52000 17.227
47.56000 18.218
47.60000 9.978
47.64000 18.291
47.68000 16.362
47.72000 18.278
47.76000 21.236
47.80000 18.231
47.84000 23.183
47.88000 22.383
47.92000 20.209
47.96000 18.361
48.00000 22.077
48.04000 13.969
48.08000 11.113
48.12000 14.364
48.16000 17.181
48.20000 24.318
48.24000 22.359
48.28000 21.176
48.32000 18.160
48.36000 22.519
48.40000 13.228
48.44000 18.173
48.48000 15.227
48.52000 12.242
48.56000 12.126
48.60000 16.226
48.64000 11.152
48.68000 14.112
48.72000 17.337
48.76000 13.157
48.80000 32.445
48.84000 20.360
48.88000 13.276
48.92000 17.206
48.96000 21.369
49.00000 14.335
49.04000 12.089
49.08000 17.121
49.12000 12.086
49.16000 12.173
49.20000 17.252
49.24000 12.264
49.28000 11.097
49.32000 28.489
49.36000 11.210
49.40000 18.278
49.44000 18.192
49.48000 20.337
49.52000 16.170
49.56000 19.368
49.60000 17.239
49.64000 17.241
49.68000 16.139
49.72000 23.288
49.76000 10.086
49.80000 21.235
49.84000 17.273
49.88000 12.256
49.92000 22.439
49.96000 15.221
50.00000 9.905
50.04000 16.302
50.08000 27.235
50.12000 25.165
50.16000 19.339
50.20000 21.210
50.24000 17.258
50.28000 16.208
50.32000 13.288
50.36000 23.340
50.40000 24.149
50.44000 28.322
50.48000 14.174
50.52000 16.152
50.56000 16.130
50.60000 18.362
50.64000 14.195
50.68000 16.333
50.72000 11.163
50.76000 13.173
50.80000 9.026
50.84000 13.134
50.88000 20.218
50.92000 17.492
50.96000 17.177
51.00000 14.077
51.04000 15.304
51.08000 15.256
51.12000 15.281
51.16000 18.187
51.20000 15.205
51.24000 16.229
51.28000 20.168
51.32000 12.180
51.36000 14.233
51.40000 12.070
51.44000 15.139
51.48000 26.130
51.52000 14.329
51.56000 29.231
51.60000 17.308
51.64000 14.204
51.68000 16.275
51.72000 17.402
51.76000 11.100
51.80000 14.164
51.84000 20.416
51.88000 15.330
51.92000 16.143
51.96000 15.086
52.00000 7.979
52.04000 12.139
52.08000 21.240
52.12000 21.321
52.16000 22.252
52.20000 15.165
52.24000 20.285
52.28000 19.206
52.32000 15.150
52.36000 16.211
52.40000 17.255
52.44000 18.353
52.48000 12.144
52.52000 14.307
52.56000 15.222
52.60000 17.206
52.64000 22.236
52.68000 17.311
52.72000 16.035
52.76000 25.420
52.80000 15.254
52.84000 13.193
52.88000 18.314
52.92000 21.340
52.96000 10.105
53.00000 23.237
53.04000 17.341
53.08000 25.254
53.12000 17.184
53.16000 16.346
53.20000 15.244
53.24000 15.152
53.28000 18.304
53.32000 25.550
53.36000 18.069
53.40000 10.067
53.44000 13.303
53.48000 14.148
53.52000 12.199
53.56000 18.121
53.60000 15.260
53.64000 16.230
53.68000 13.190
53.72000 14.191
53.76000 14.288
53.80000 13.211
53.84000 15.132
53.88000 14.244
53.92000 13.094
53.96000 12.126
54.00000 10.107
54.04000 18.231
54.08000 15.108
54.12000 19.112
54.16000 16.285
54.20000 16.251
54.24000 14.296
54.28000 16.141
54.32000 9.116
54.36000 15.128
54.40000 11.106
54.44000 14.255
54.48000 10.026
54.52000 18.228
54.56000 14.293
54.60000 17.366
54.64000 16.992
54.68000 8.038
54.72000 9.129
54.76000 15.187
54.80000 10.118
54.84000 26.438
54.88000 9.054
54.92000 13.150
54.96000 12.229
55.00000 9.175
55.04000 12.161
55.08000 9.123
55.12000 14.276
55.16000 9.237
55.20000 9.118
55.24000 18.117
55.28000 7.088
55.32000 17.029
55.36000 7.094
55.40000 15.216
55.44000 12.237
55.48000 12.247
55.52000 11.326
55.56000 13.135
55.60000 14.051
55.64000 13.205
55.68000 15.151
55.72000 15.164
55.76000 14.168
55.80000 18.243
55.84000 15.069
55.88000 17.275
55.92000 19.345
55.96000 14.267
56.00000 12.176
56.04000 13.287
56.08000 9.137
56.12000 13.316
56.16000 9.187
56.20000 15.317
56.24000 20.202
56.28000 9.088
56.32000 19.310
56.36000 11.221
56.40000 12.246
56.44000 17.190
56.48000 14.372
56.52000 7.179
56.56000 7.055
56.60000 11.079
56.64000 13.160
56.68000 12.215
56.72000 17.171
56.76000 10.049
56.80000 16.250
56.84000 13.215
56.88000 7.201
56.92000 17.322
56.96000 14.303
57.00000 9.225
57.04000 13.095
57.08000 13.068
57.12000 19.069
57.16000 15.294
57.20000 11.192
57.24000 12.246
57.28000 13.199
57.32000 13.108
57.36000 22.248
57.40000 16.416
57.44000 9.017
57.48000 17.242
57.52000 19.295
57.56000 9.083
57.60000 17.246
57.64000 18.320
57.68000 12.064
57.72000 7.182
57.76000 6.113
57.80000 15.216
57.84000 18.240
57.88000 15.209
57.92000 8.987
57.96000 11.058
58.00000 8.030
58.04000 12.125
58.08000 13.128
58.12000 16.419
58.16000 24.551
58.20000 14.144
58.24000 15.268
58.28000 10.084
58.32000 12.271
58.36000 12.183
58.40000 8.125
58.44000 18.156
58.48000 8.127
58.52000 8.254
58.56000 13.094
58.60000 14.232
58.64000 12.212
58.68000 5.050
58.72000 13.340
58.76000 16.180
58.80000 9.030
58.84000 6.140
58.88000 6.022
58.92000 12.129
58.96000 10.136
59.00000 13.210
59.04000 12.143
59.08000 12.202
59.12000 8.985
59.16000 9.010
59.20000 15.006
59.24000 9.159
59.28000 9.145
59.32000 16.056
59.36000 9.110
59.40000 14.048
59.44000 13.059
59.48000 9.178
59.52000 11.107
59.56000 10.156
59.60000 8.255
59.64000 12.102
59.68000 12.258
59.72000 11.016
59.76000 10.202
59.80000 7.153
59.84000 17.182
59.88000 9.185
59.92000 8.088
59.96000 13.193
60.00000 10.184
60.04000 14.293
60.08000 11.197
60.12000 13.058
60.16000 15.204
60.20000 13.122
60.24000 16.274
60.28000 17.238
60.32000 9.080
60.36000 11.959
60.40000 7.051
60.44000 12.094
60.48000 11.152
60.52000 13.053
60.56000 1.045
60.60000 11.072
60.64000 7.883
60.68000 5.055
60.72000 12.283
60.76000 7.116
60.80000 8.141
60.84000 5.036
60.88000 10.012
60.92000 10.068
60.96000 10.098
61.00000 14.178
61.04000 10.039
61.08000 8.161
61.12000 9.087
61.16000 13.122
61.20000 8.092
61.24000 5.054
61.28000 8.068
61.32000 11.110
61.36000 6.053
61.40000 10.050
61.44000 11.988
61.48000 12.103
61.52000 5.022
61.56000 9.110
61.60000 11.134
61.64000 10.245
61.68000 7.146
61.72000 7.035
61.76000 10.157
61.80000 15.305
61.84000 10.106
61.88000 6.030
61.92000 9.167
61.96000 11.149
62.00000 10.208
62.04000 8.219
62.08000 8.053
62.12000 9.108
62.16000 13.210
62.20000 10.195
62.24000 10.229
62.28000 8.117
62.32000 15.290
62.36000 11.067
62.40000 8.113
62.44000 11.021
62.48000 7.057
62.52000 8.248
62.56000 8.090
62.60000 6.118
62.64000 12.051
62.68000 9.135
62.72000 9.207
62.76000 9.181
62.80000 13.002
62.84000 11.150
62.88000 7.015
62.92000 8.114
62.96000 11.156
63.00000 8.272
63.04000 10.108
63.08000 10.278
63.12000 6.131
63.16000 10.231
63.20000 8.021
63.24000 11.252
63.28000 11.209
63.32000 9.109
63.36000 14.124
63.40000 8.027
63.44000 8.140
63.48000 7.047
63.52000 12.090
63.56000 9.107
63.60000 13.148
63.64000 8.239
63.68000 13.291
63.72000 10.129
63.76000 6.085
63.80000 7.099
63.84000 8.055
63.88000 8.004
63.92000 7.114
63.96000 8.122
64.00000 11.240
64.04000 9.134
64.08000 5.014
64.12000 13.089
64.16000 13.161
64.20000 5.010
64.24000 17.220
64.28000 8.172
64.32000 11.185
64.36000 9.064
64.40000 8.092
64.44000 8.013
64.48000 18.269
64.52000 9.169
64.56000 6.164
64.60000 8.214
64.64000 7.022
64.68000 11.087
64.72000 10.161
64.76000 12.101
64.80000 6.108
64.84000 9.030
64.88000 7.087
64.92000 10.055
64.96000 9.041
65.00000 10.080