File: XRD/XRD/11-09-2025/XY Data/01092025_BTO_omega_0_5_001_21_-23-381_29-319.xy
20.00000 16.219
20.04000 18.271
20.08000 23.510
20.12000 32.526
20.16000 20.229
20.20000 25.303
20.24000 22.329
20.28000 28.243
20.32000 15.225
20.36000 19.247
20.40000 21.207
20.44000 16.096
20.48000 17.224
20.52000 19.203
20.56000 22.225
20.60000 12.126
20.64000 17.203
20.68000 19.285
20.72000 22.249
20.76000 21.259
20.80000 14.158
20.84000 18.144
20.88000 26.493
20.92000 15.105
20.96000 30.341
21.00000 14.234
21.04000 20.319
21.08000 17.285
21.12000 25.064
21.16000 22.341
21.20000 19.226
21.24000 26.324
21.28000 26.322
21.32000 18.324
21.36000 19.325
21.40000 19.167
21.44000 18.126
21.48000 20.412
21.52000 34.504
21.56000 25.559
21.60000 23.137
21.64000 24.068
21.68000 25.212
21.72000 22.376
21.76000 23.263
21.80000 21.261
21.84000 30.260
21.88000 15.158
21.92000 25.289
21.96000 17.090
22.00000 25.127
22.04000 27.504
22.08000 22.324
22.12000 25.303
22.16000 18.225
22.20000 35.352
22.24000 26.389
22.28000 34.506
22.32000 26.263
22.36000 21.359
22.40000 29.368
22.44000 18.188
22.48000 30.414
22.52000 22.156
22.56000 17.355
22.60000 35.243
22.64000 33.426
22.68000 19.169
22.72000 20.143
22.76000 23.298
22.80000 23.396
22.84000 21.070
22.88000 22.380
22.92000 21.290
22.96000 31.579
23.00000 27.317
23.04000 30.242
23.08000 20.109
23.12000 27.528
23.16000 31.349
23.20000 31.656
23.24000 31.420
23.28000 25.245
23.32000 25.275
23.36000 37.472
23.40000 34.318
23.44000 34.240
23.48000 40.330
23.52000 33.352
23.56000 28.510
23.60000 23.234
23.64000 25.333
23.68000 40.415
23.72000 28.507
23.76000 24.189
23.80000 25.221
23.84000 37.869
23.88000 42.568
23.92000 32.140
23.96000 44.845
24.00000 43.740
24.04000 35.547
24.08000 37.484
24.12000 37.422
24.16000 33.143
24.20000 26.477
24.24000 30.328
24.28000 34.530
24.32000 52.791
24.36000 34.462
24.40000 42.597
24.44000 35.304
24.48000 32.388
24.52000 36.469
24.56000 27.359
24.60000 33.539
24.64000 40.786
24.68000 35.426
24.72000 38.483
24.76000 41.138
24.80000 47.843
24.84000 39.667
24.88000 41.501
24.92000 40.474
24.96000 36.434
25.00000 58.890
25.04000 55.795
25.08000 44.444
25.12000 41.667
25.16000 40.667
25.20000 42.512
25.24000 38.830
25.28000 39.663
25.32000 44.564
25.36000 35.515
25.40000 33.623
25.44000 46.695
25.48000 49.644
25.52000 40.655
25.56000 57.865
25.60000 62.749
25.64000 42.656
25.68000 51.849
25.72000 55.535
25.76000 53.497
25.80000 47.748
25.84000 55.923
25.88000 42.730
25.92000 51.737
25.96000 42.878
26.00000 51.664
26.04000 60.819
26.08000 35.154
26.12000 46.782
26.16000 62.067
26.20000 59.992
26.24000 68.061
26.28000 53.520
26.32000 45.582
26.36000 47.592
26.40000 42.582
26.44000 52.796
26.48000 47.769
26.52000 51.692
26.56000 54.572
26.60000 70.084
26.64000 68.588
26.68000 42.580
26.72000 76.182
26.76000 48.479
26.80000 62.980
26.84000 55.452
26.88000 57.014
26.92000 62.434
26.96000 47.573
27.00000 61.613
27.04000 58.656
27.08000 51.863
27.12000 53.431
27.16000 53.475
27.20000 50.586
27.24000 74.075
27.28000 79.073
27.32000 58.014
27.36000 70.124
27.40000 52.786
27.44000 51.579
27.48000 60.106
27.52000 61.687
27.56000 57.605
27.60000 57.535
27.64000 51.027
27.68000 42.636
27.72000 61.929
27.76000 73.101
27.80000 62.479
27.84000 46.680
27.88000 53.688
27.92000 61.980
27.96000 72.671
28.00000 66.877
28.04000 54.523
28.08000 57.921
28.12000 70.018
28.16000 51.599
28.20000 61.752
28.24000 58.875
28.28000 63.786
28.32000 56.567
28.36000 59.269
28.40000 46.377
28.44000 46.645
28.48000 51.750
28.52000 61.525
28.56000 49.767
28.60000 54.754
28.64000 53.881
28.68000 51.560
28.72000 72.689
28.76000 47.512
28.80000 48.648
28.84000 54.895
28.88000 45.682
28.92000 56.710
28.96000 60.888
29.00000 51.621
29.04000 38.499
29.08000 53.547
29.12000 59.627
29.16000 52.766
29.20000 46.581
29.24000 46.429
29.28000 36.419
29.32000 55.904
29.36000 48.649
29.40000 50.841
29.44000 57.876
29.48000 40.794
29.52000 37.533
29.56000 54.632
29.60000 64.810
29.64000 47.817
29.68000 40.624
29.72000 42.277
29.76000 48.564
29.80000 44.374
29.84000 46.619
29.88000 51.703
29.92000 45.594
29.96000 37.495
30.00000 41.597
30.04000 36.727
30.08000 28.401
30.12000 41.692
30.16000 35.483
30.20000 35.663
30.24000 38.369
30.28000 36.533
30.32000 35.499
30.36000 41.431
30.40000 40.702
30.44000 46.665
30.48000 44.585
30.52000 38.355
30.56000 41.756
30.60000 34.464
30.64000 42.745
30.68000 33.387
30.72000 40.188
30.76000 34.485
30.80000 38.495
30.84000 39.352
30.88000 36.335
30.92000 29.331
30.96000 24.429
31.00000 32.355
31.04000 34.451
31.08000 34.391
31.12000 39.395
31.16000 38.537
31.20000 24.187
31.24000 32.377
31.28000 36.617
31.32000 31.596
31.36000 35.290
31.40000 35.581
31.44000 38.435
31.48000 38.641
31.52000 31.577
31.56000 35.305
31.60000 33.387
31.64000 31.380
31.68000 29.435
31.72000 27.247
31.76000 48.560
31.80000 27.576
31.84000 21.320
31.88000 27.256
31.92000 23.089
31.96000 34.607
32.00000 25.330
32.04000 22.300
32.08000 27.655
32.12000 32.546
32.16000 21.301
32.20000 30.579
32.24000 31.225
32.28000 24.260
32.32000 28.322
32.36000 30.332
32.40000 41.519
32.44000 36.705
32.48000 29.506
32.52000 30.386
32.56000 28.287
32.60000 41.292
32.64000 32.364
32.68000 27.165
32.72000 32.454
32.76000 36.349
32.80000 26.378
32.84000 29.390
32.88000 26.511
32.92000 28.328
32.96000 17.107
33.00000 21.440
33.04000 19.221
33.08000 21.623
33.12000 25.442
33.16000 25.070
33.20000 25.239
33.24000 30.479
33.28000 18.349
33.32000 12.117
33.36000 22.174
33.40000 20.319
33.44000 21.143
33.48000 21.479
33.52000 17.335
33.56000 22.124
33.60000 27.417
33.64000 20.399
33.68000 27.363
33.72000 24.217
33.76000 20.218
33.80000 26.318
33.84000 20.224
33.88000 25.342
33.92000 24.349
33.96000 16.202
34.00000 22.311
34.04000 17.417
34.08000 24.413
34.12000 22.250
34.16000 20.401
34.20000 14.128
34.24000 23.269
34.28000 15.300
34.32000 18.264
34.36000 14.081
34.40000 21.181
34.44000 24.270
34.48000 18.331
34.52000 20.268
34.56000 16.030
34.60000 23.367
34.64000 17.108
34.68000 20.264
34.72000 21.227
34.76000 21.204
34.80000 10.043
34.84000 24.257
34.88000 21.356
34.92000 20.327
34.96000 18.274
35.00000 21.082
35.04000 21.127
35.08000 17.225
35.12000 30.441
35.16000 26.259
35.20000 24.310
35.24000 20.178
35.28000 23.466
35.32000 17.294
35.36000 13.082
35.40000 20.151
35.44000 23.335
35.48000 19.113
35.52000 16.304
35.56000 17.011
35.60000 14.168
35.64000 7.009
35.68000 17.194
35.72000 19.140
35.76000 19.214
35.80000 16.307
35.84000 14.479
35.88000 17.251
35.92000 19.150
35.96000 22.252
36.00000 18.123
36.04000 15.092
36.08000 18.378
36.12000 21.246
36.16000 18.318
36.20000 18.273
36.24000 21.293
36.28000 16.317
36.32000 15.336
36.36000 10.113
36.40000 17.328
36.44000 25.187
36.48000 23.379
36.52000 18.369
36.56000 13.205
36.60000 27.349
36.64000 14.066
36.68000 27.530
36.72000 26.353
36.76000 12.031
36.80000 16.129
36.84000 16.223
36.88000 25.129
36.92000 18.183
36.96000 22.182
37.00000 20.221
37.04000 18.372
37.08000 15.111
37.12000 16.192
37.16000 16.212
37.20000 15.243
37.24000 23.490
37.28000 19.470
37.32000 26.225
37.36000 18.181
37.40000 22.359
37.44000 25.139
37.48000 24.330
37.52000 23.371
37.56000 22.421
37.60000 13.291
37.64000 17.202
37.68000 13.078
37.72000 12.113
37.76000 17.293
37.80000 24.208
37.84000 22.451
37.88000 25.272
37.92000 22.202
37.96000 19.264
38.00000 14.179
38.04000 28.524
38.08000 16.197
38.12000 9.170
38.16000 24.341
38.20000 20.244
38.24000 23.150
38.28000 22.127
38.32000 19.226
38.36000 16.379
38.40000 13.242
38.44000 16.161
38.48000 21.353
38.52000 17.145
38.56000 18.936
38.60000 26.291
38.64000 23.285
38.68000 29.412
38.72000 17.342
38.76000 23.438
38.80000 27.454
38.84000 24.094
38.88000 13.156
38.92000 25.197
38.96000 24.341
39.00000 26.502
39.04000 17.105
39.08000 24.469
39.12000 20.265
39.16000 16.129
39.20000 22.454
39.24000 20.321
39.28000 16.084
39.32000 22.137
39.36000 26.274
39.40000 27.341
39.44000 30.438
39.48000 18.134
39.52000 22.333
39.56000 26.601
39.60000 23.337
39.64000 21.165
39.68000 27.318
39.72000 27.350
39.76000 23.176
39.80000 19.349
39.84000 21.150
39.88000 13.115
39.92000 31.385
39.96000 25.300
40.00000 21.211
40.04000 19.188
40.08000 25.349
40.12000 19.175
40.16000 28.464
40.20000 24.207
40.24000 18.305
40.28000 21.218
40.32000 25.287
40.36000 25.257
40.40000 22.159
40.44000 24.325
40.48000 27.160
40.52000 13.183
40.56000 26.354
40.60000 21.266
40.64000 17.372
40.68000 23.155
40.72000 21.286
40.76000 28.203
40.80000 27.429
40.84000 25.221
40.88000 15.267
40.92000 32.595
40.96000 9.166
41.00000 23.221
41.04000 15.154
41.08000 29.436
41.12000 18.173
41.16000 23.345
41.20000 26.304
41.24000 26.504
41.28000 26.285
41.32000 24.420
41.36000 27.208
41.40000 24.348
41.44000 31.085
41.48000 17.331
41.52000 29.176
41.56000 17.383
41.60000 33.579
41.64000 35.330
41.68000 27.229
41.72000 23.184
41.76000 22.200
41.80000 18.301
41.84000 20.232
41.88000 29.489
41.92000 16.304
41.96000 14.150
42.00000 19.269
42.04000 23.357
42.08000 25.241
42.12000 22.045
42.16000 24.316
42.20000 30.388
42.24000 26.465
42.28000 23.371
42.32000 24.242
42.36000 26.364
42.40000 17.131
42.44000 25.232
42.48000 15.115
42.52000 23.301
42.56000 25.462
42.60000 39.532
42.64000 24.215
42.68000 21.327
42.72000 18.356
42.76000 23.372
42.80000 12.180
42.84000 24.311
42.88000 25.425
42.92000 15.261
42.96000 23.448
43.00000 18.340
43.04000 20.171
43.08000 19.468
43.12000 17.198
43.16000 19.417
43.20000 21.240
43.24000 12.175
43.28000 17.295
43.32000 25.216
43.36000 26.399
43.40000 27.374
43.44000 17.130
43.48000 21.229
43.52000 24.195
43.56000 19.482
43.60000 25.647
43.64000 17.403
43.68000 20.096
43.72000 19.252
43.76000 23.269
43.80000 18.285
43.84000 18.407
43.88000 25.330
43.92000 19.256
43.96000 13.229
44.00000 23.096
44.04000 27.347
44.08000 20.113
44.12000 21.481
44.16000 26.392
44.20000 22.431
44.24000 23.108
44.28000 25.263
44.32000 15.386
44.36000 24.328
44.40000 21.297
44.44000 29.362
44.48000 20.246
44.52000 28.470
44.56000 26.210
44.60000 22.203
44.64000 27.263
44.68000 23.360
44.72000 15.111
44.76000 19.278
44.80000 18.173
44.84000 26.210
44.88000 23.144
44.92000 24.225
44.96000 16.113
45.00000 11.073
45.04000 21.330
45.08000 19.210
45.12000 20.265
45.16000 20.253
45.20000 18.019
45.24000 20.256
45.28000 22.251
45.32000 24.402
45.36000 23.368
45.40000 21.437
45.44000 19.286
45.48000 23.105
45.52000 28.390
45.56000 28.242
45.60000 20.186
45.64000 25.183
45.68000 30.518
45.72000 16.227
45.76000 26.476
45.80000 16.118
45.84000 12.152
45.88000 16.350
45.92000 23.261
45.96000 27.803
46.00000 25.214
46.04000 19.336
46.08000 19.099
46.12000 24.282
46.16000 17.206
46.20000 21.175
46.24000 14.267
46.28000 22.171
46.32000 27.260
46.36000 18.277
46.40000 12.239
46.44000 23.417
46.48000 20.185
46.52000 22.223
46.56000 18.176
46.60000 19.100
46.64000 20.393
46.68000 18.211
46.72000 23.318
46.76000 17.181
46.80000 17.149
46.84000 15.183
46.88000 23.257
46.92000 26.483
46.96000 33.419
47.00000 28.271
47.04000 17.158
47.08000 24.204
47.12000 28.380
47.16000 15.290
47.20000 18.230
47.24000 20.303
47.28000 28.115
47.32000 21.216
47.36000 19.213
47.40000 8.054
47.44000 18.139
47.48000 14.189
47.52000 25.379
47.56000 18.143
47.60000 22.189
47.64000 24.331
47.68000 20.176
47.72000 19.219
47.76000 20.142
47.80000 24.246
47.84000 20.080
47.88000 21.299
47.92000 23.275
47.96000 8.110
48.00000 19.179
48.04000 23.204
48.08000 14.030
48.12000 16.236
48.16000 29.209
48.20000 17.401
48.24000 14.113
48.28000 22.436
48.32000 20.345
48.36000 19.324
48.40000 10.224
48.44000 20.277
48.48000 24.184
48.52000 18.113
48.56000 16.325
48.60000 13.001
48.64000 21.132
48.68000 19.223
48.72000 10.158
48.76000 18.563
48.80000 13.231
48.84000 22.135
48.88000 23.521
48.92000 15.108
48.96000 18.255
49.00000 20.274
49.04000 24.500
49.08000 16.200
49.12000 14.086
49.16000 18.244
49.20000 17.101
49.24000 12.209
49.28000 23.388
49.32000 16.106
49.36000 19.143
49.40000 24.235
49.44000 9.996
49.48000 19.146
49.52000 15.224
49.56000 20.260
49.60000 22.345
49.64000 21.133
49.68000 15.107
49.72000 15.256
49.76000 20.241
49.80000 10.127
49.84000 19.452
49.88000 18.185
49.92000 15.229
49.96000 11.130
50.00000 20.491
50.04000 20.136
50.08000 21.196
50.12000 20.193
50.16000 11.040
50.20000 20.193
50.24000 19.373
50.28000 15.196
50.32000 13.088
50.36000 18.198
50.40000 17.283
50.44000 18.267
50.48000 12.168
50.52000 12.106
50.56000 13.288
50.60000 29.306
50.64000 21.373
50.68000 22.234
50.72000 21.272
50.76000 22.495
50.80000 14.140
50.84000 20.284
50.88000 14.104
50.92000 18.352
50.96000 22.310
51.00000 12.179
51.04000 19.217
51.08000 14.212
51.12000 16.278
51.16000 14.178
51.20000 22.299
51.24000 16.142
51.28000 15.186
51.32000 15.226
51.36000 15.149
51.40000 20.198
51.44000 10.242
51.48000 13.117
51.52000 17.294
51.56000 18.318
51.60000 14.204
51.64000 17.104
51.68000 9.252
51.72000 17.202
51.76000 14.192
51.80000 17.359
51.84000 16.060
51.88000 19.373
51.92000 29.194
51.96000 19.301
52.00000 13.276
52.04000 9.184
52.08000 18.207
52.12000 17.170
52.16000 16.041
52.20000 13.311
52.24000 23.250
52.28000 12.188
52.32000 13.173
52.36000 13.188
52.40000 16.287
52.44000 10.135
52.48000 19.181
52.52000 19.115
52.56000 22.407
52.60000 16.143
52.64000 18.097
52.68000 19.389
52.72000 18.999
52.76000 13.118
52.80000 17.229
52.84000 20.385
52.88000 13.239
52.92000 14.128
52.96000 11.174
53.00000 15.204
53.04000 14.140
53.08000 7.027
53.12000 18.062
53.16000 13.207
53.20000 13.143
53.24000 14.221
53.28000 12.281
53.32000 16.221
53.36000 12.049
53.40000 21.032
53.44000 12.144
53.48000 17.244
53.52000 17.214
53.56000 20.181
53.60000 14.034
53.64000 13.128
53.68000 14.322
53.72000 10.174
53.76000 18.340
53.80000 12.088
53.84000 13.197
53.88000 15.161
53.92000 17.173
53.96000 21.215
54.00000 18.346
54.04000 10.089
54.08000 19.354
54.12000 18.243
54.16000 12.075
54.20000 13.130
54.24000 16.152
54.28000 18.175
54.32000 12.392
54.36000 16.172
54.40000 22.169
54.44000 20.400
54.48000 15.117
54.52000 21.234
54.56000 16.167
54.60000 17.197
54.64000 13.164
54.68000 15.216
54.72000 12.093
54.76000 14.232
54.80000 14.229
54.84000 9.104
54.88000 15.089
54.92000 10.160
54.96000 13.132
55.00000 9.127
55.04000 10.114
55.08000 9.087
55.12000 13.153
55.16000 15.228
55.20000 7.030
55.24000 21.248
55.28000 14.314
55.32000 19.288
55.36000 15.337
55.40000 18.241
55.44000 19.495
55.48000 18.277
55.52000 15.252
55.56000 7.049
55.60000 10.214
55.64000 10.022
55.68000 18.321
55.72000 14.170
55.76000 14.195
55.80000 10.171
55.84000 13.976
55.88000 15.135
55.92000 9.131
55.96000 16.086
56.00000 17.338
56.04000 13.158
56.08000 17.341
56.12000 15.116
56.16000 21.540
56.20000 9.164
56.24000 9.141
56.28000 18.227
56.32000 6.055
56.36000 11.067
56.40000 13.165
56.44000 23.337
56.48000 12.222
56.52000 11.064
56.56000 14.161
56.60000 5.094
56.64000 15.255
56.68000 8.125
56.72000 16.070
56.76000 17.342
56.80000 13.101
56.84000 15.197
56.88000 8.911
56.92000 14.114
56.96000 14.100
57.00000 11.056
57.04000 7.090
57.08000 15.056
57.12000 15.202
57.16000 7.074
57.20000 18.004
57.24000 13.182
57.28000 16.115
57.32000 15.172
57.36000 16.320
57.40000 12.068
57.44000 20.294
57.48000 13.096
57.52000 14.211
57.56000 10.225
57.60000 15.281
57.64000 14.093
57.68000 12.153
57.72000 10.223
57.76000 9.054
57.80000 10.979
57.84000 13.276
57.88000 11.138
57.92000 15.420
57.96000 10.218
58.00000 23.323
58.04000 13.102
58.08000 13.177
58.12000 18.201
58.16000 7.170
58.20000 9.042
58.24000 15.224
58.28000 9.118
58.32000 15.523
58.36000 12.076
58.40000 13.294
58.44000 12.066
58.48000 20.293
58.52000 12.014
58.56000 13.207
58.60000 10.167
58.64000 13.076
58.68000 12.219
58.72000 10.157
58.76000 6.082
58.80000 9.305
58.84000 10.264
58.88000 14.181
58.92000 12.219
58.96000 10.039
59.00000 7.145
59.04000 17.137
59.08000 21.213
59.12000 15.316
59.16000 11.072
59.20000 10.185
59.24000 10.120
59.28000 10.126
59.32000 10.107
59.36000 13.107
59.40000 12.094
59.44000 14.093
59.48000 13.125
59.52000 16.265
59.56000 11.979
59.60000 10.035
59.64000 18.294
59.68000 14.111
59.72000 6.076
59.76000 6.150
59.80000 10.150
59.84000 7.083
59.88000 12.049
59.92000 10.091
59.96000 7.075
60.00000 10.996
60.04000 11.061
60.08000 8.089
60.12000 8.130
60.16000 16.383
60.20000 8.042
60.24000 14.337
60.28000 8.084
60.32000 9.063
60.36000 8.053
60.40000 9.128
60.44000 14.079
60.48000 15.175
60.52000 8.093
60.56000 7.144
60.60000 6.090
60.64000 6.109
60.68000 11.267
60.72000 15.195
60.76000 17.304
60.80000 12.149
60.84000 9.133
60.88000 12.167
60.92000 10.138
60.96000 9.027
61.00000 12.187
61.04000 15.232
61.08000 9.033
61.12000 9.263
61.16000 5.050
61.20000 11.030
61.24000 8.220
61.28000 8.108
61.32000 8.134
61.36000 7.118
61.40000 11.182
61.44000 10.161
61.48000 7.091
61.52000 5.056
61.56000 10.226
61.60000 8.025
61.64000 6.096
61.68000 7.120
61.72000 8.059
61.76000 7.122
61.80000 7.127
61.84000 11.187
61.88000 6.063
61.92000 12.148
61.96000 12.175
62.00000 10.155
62.04000 12.120
62.08000 6.115
62.12000 6.128
62.16000 15.205
62.20000 11.140
62.24000 7.142
62.28000 9.134
62.32000 1.961
62.36000 13.146
62.40000 6.156
62.44000 9.149
62.48000 14.179
62.52000 9.257
62.56000 5.133
62.60000 10.011
62.64000 12.229
62.68000 7.031
62.72000 9.146
62.76000 7.121
62.80000 11.250
62.84000 9.145
62.88000 5.140
62.92000 8.113
62.96000 7.914
63.00000 12.254
63.04000 8.179
63.08000 11.089
63.12000 9.177
63.16000 9.168
63.20000 7.093
63.24000 11.173
63.28000 7.061
63.32000 10.081
63.36000 8.166
63.40000 11.142
63.44000 4.985
63.48000 8.172
63.52000 5.125
63.56000 11.123
63.60000 10.155
63.64000 5.991
63.68000 7.201
63.72000 7.154
63.76000 5.085
63.80000 10.130
63.84000 3.024
63.88000 8.157
63.92000 9.118
63.96000 9.195
64.00000 11.282
64.04000 10.233
64.08000 14.235
64.12000 8.083
64.16000 10.119
64.20000 10.140
64.24000 6.067
64.28000 8.042
64.32000 7.103
64.36000 7.070
64.40000 9.005
64.44000 11.160
64.48000 6.008
64.52000 8.026
64.56000 13.027
64.60000 7.033
64.64000 8.963
64.68000 11.160
64.72000 5.064
64.76000 10.090
64.80000 8.146
64.84000 6.000
64.88000 7.065
64.92000 16.186
64.96000 8.039
65.00000 8.056