File: XRD/XRD/11-09-2025/XY Data/01092025_BTO_omega_1_001_48_5-563_24-373.xy
20.00000 14.276
20.04000 20.148
20.08000 14.213
20.12000 17.277
20.16000 21.212
20.20000 20.104
20.24000 13.303
20.28000 18.298
20.32000 18.108
20.36000 23.344
20.40000 25.393
20.44000 14.108
20.48000 30.498
20.52000 20.450
20.56000 15.249
20.60000 22.241
20.64000 26.263
20.68000 18.139
20.72000 18.280
20.76000 19.362
20.80000 21.327
20.84000 21.442
20.88000 17.384
20.92000 17.340
20.96000 16.284
21.00000 20.181
21.04000 20.316
21.08000 22.226
21.12000 15.118
21.16000 20.132
21.20000 21.354
21.24000 20.086
21.28000 19.511
21.32000 25.244
21.36000 16.062
21.40000 26.445
21.44000 21.410
21.48000 17.254
21.52000 15.941
21.56000 16.285
21.60000 15.093
21.64000 20.246
21.68000 24.248
21.72000 19.279
21.76000 20.235
21.80000 24.189
21.84000 13.217
21.88000 17.307
21.92000 19.474
21.96000 21.294
22.00000 19.084
22.04000 21.029
22.08000 25.365
22.12000 22.381
22.16000 20.380
22.20000 15.285
22.24000 21.255
22.28000 23.166
22.32000 16.208
22.36000 29.435
22.40000 14.195
22.44000 24.267
22.48000 22.472
22.52000 25.204
22.56000 29.452
22.60000 19.385
22.64000 18.243
22.68000 15.339
22.72000 21.292
22.76000 30.409
22.80000 22.268
22.84000 26.148
22.88000 31.439
22.92000 26.232
22.96000 20.376
23.00000 29.409
23.04000 26.380
23.08000 17.067
23.12000 19.115
23.16000 25.192
23.20000 18.291
23.24000 26.354
23.28000 22.669
23.32000 22.194
23.36000 27.268
23.40000 30.629
23.44000 21.149
23.48000 15.041
23.52000 29.262
23.56000 21.279
23.60000 27.057
23.64000 28.452
23.68000 27.246
23.72000 29.237
23.76000 22.447
23.80000 29.318
23.84000 30.355
23.88000 36.571
23.92000 20.274
23.96000 27.314
24.00000 32.370
24.04000 20.150
24.08000 23.221
24.12000 32.393
24.16000 26.425
24.20000 25.047
24.24000 39.247
24.28000 30.606
24.32000 24.493
24.36000 21.293
24.40000 23.335
24.44000 29.350
24.48000 24.218
24.52000 32.457
24.56000 37.529
24.60000 33.238
24.64000 38.350
24.68000 22.384
24.72000 27.417
24.76000 23.183
24.80000 24.697
24.84000 38.420
24.88000 33.561
24.92000 36.639
24.96000 31.255
25.00000 28.312
25.04000 33.553
25.08000 33.353
25.12000 30.389
25.16000 24.206
25.20000 34.510
25.24000 39.339
25.28000 37.738
25.32000 29.459
25.36000 37.591
25.40000 37.457
25.44000 35.398
25.48000 44.480
25.52000 27.357
25.56000 47.757
25.60000 42.611
25.64000 37.322
25.68000 28.450
25.72000 33.148
25.76000 39.248
25.80000 47.385
25.84000 48.643
25.88000 51.741
25.92000 40.511
25.96000 44.515
26.00000 26.310
26.04000 36.183
26.08000 30.444
26.12000 48.748
26.16000 46.372
26.20000 48.599
26.24000 44.838
26.28000 39.371
26.32000 47.697
26.36000 51.429
26.40000 38.506
26.44000 54.092
26.48000 45.110
26.52000 38.304
26.56000 46.684
26.60000 43.600
26.64000 59.772
26.68000 42.632
26.72000 41.302
26.76000 52.964
26.80000 46.644
26.84000 57.802
26.88000 50.769
26.92000 47.294
26.96000 47.474
27.00000 56.002
27.04000 42.306
27.08000 54.602
27.12000 41.621
27.16000 50.246
27.20000 48.784
27.24000 51.565
27.28000 48.596
27.32000 45.431
27.36000 51.531
27.40000 45.636
27.44000 38.566
27.48000 49.535
27.52000 66.699
27.56000 40.786
27.60000 62.942
27.64000 53.771
27.68000 39.569
27.72000 42.354
27.76000 41.503
27.80000 50.519
27.84000 46.566
27.88000 45.800
27.92000 49.663
27.96000 43.660
28.00000 49.724
28.04000 46.615
28.08000 69.417
28.12000 56.867
28.16000 43.843
28.20000 45.652
28.24000 43.624
28.28000 49.907
28.32000 48.662
28.36000 49.888
28.40000 48.890
28.44000 45.467
28.48000 59.775
28.52000 42.148
28.56000 47.827
28.60000 42.576
28.64000 51.541
28.68000 44.619
28.72000 46.481
28.76000 39.498
28.80000 36.657
28.84000 46.522
28.88000 50.583
28.92000 40.516
28.96000 51.793
29.00000 39.628
29.04000 50.756
29.08000 44.490
29.12000 42.522
29.16000 29.461
29.20000 36.777
29.24000 38.783
29.28000 50.618
29.32000 40.644
29.36000 36.652
29.40000 40.436
29.44000 47.794
29.48000 42.717
29.52000 34.552
29.56000 41.554
29.60000 42.664
29.64000 38.667
29.68000 52.556
29.72000 36.316
29.76000 34.432
29.80000 48.480
29.84000 35.383
29.88000 39.538
29.92000 44.697
29.96000 43.620
30.00000 35.481
30.04000 38.788
30.08000 32.422
30.12000 36.503
30.16000 28.502
30.20000 36.515
30.24000 28.315
30.28000 50.625
30.32000 25.143
30.36000 26.246
30.40000 26.654
30.44000 33.670
30.48000 31.301
30.52000 29.391
30.56000 30.260
30.60000 26.193
30.64000 42.516
30.68000 26.277
30.72000 28.398
30.76000 27.286
30.80000 33.241
30.84000 27.333
30.88000 41.298
30.92000 29.430
30.96000 21.385
31.00000 31.344
31.04000 24.578
31.08000 28.328
31.12000 25.487
31.16000 26.380
31.20000 29.496
31.24000 24.342
31.28000 17.231
31.32000 40.497
31.36000 16.264
31.40000 28.653
31.44000 31.503
31.48000 23.206
31.52000 35.328
31.56000 22.291
31.60000 22.414
31.64000 34.397
31.68000 27.124
31.72000 21.314
31.76000 23.465
31.80000 19.211
31.84000 24.327
31.88000 21.289
31.92000 29.337
31.96000 19.295
32.00000 21.411
32.04000 24.244
32.08000 27.440
32.12000 24.387
32.16000 19.212
32.20000 32.227
32.24000 29.413
32.28000 20.363
32.32000 24.203
32.36000 30.408
32.40000 19.137
32.44000 22.449
32.48000 20.406
32.52000 31.352
32.56000 27.178
32.60000 22.395
32.64000 22.301
32.68000 21.278
32.72000 29.465
32.76000 17.339
32.80000 14.207
32.84000 19.286
32.88000 19.266
32.92000 18.240
32.96000 20.159
33.00000 20.190
33.04000 14.449
33.08000 18.315
33.12000 13.032
33.16000 18.228
33.20000 17.293
33.24000 15.026
33.28000 17.159
33.32000 7.098
33.36000 15.147
33.40000 19.222
33.44000 15.302
33.48000 12.105
33.52000 13.056
33.56000 15.267
33.60000 21.206
33.64000 17.248
33.68000 16.178
33.72000 22.303
33.76000 17.203
33.80000 18.250
33.84000 21.348
33.88000 16.210
33.92000 22.429
33.96000 16.168
34.00000 16.194
34.04000 19.255
34.08000 16.256
34.12000 12.140
34.16000 20.346
34.20000 16.292
34.24000 12.198
34.28000 25.214
34.32000 9.019
34.36000 18.201
34.40000 19.246
34.44000 20.163
34.48000 14.187
34.52000 27.303
34.56000 8.258
34.60000 28.356
34.64000 12.240
34.68000 15.343
34.72000 20.293
34.76000 14.170
34.80000 11.968
34.84000 17.244
34.88000 25.179
34.92000 16.229
34.96000 18.177
35.00000 13.159
35.04000 17.278
35.08000 24.195
35.12000 17.322
35.16000 13.095
35.20000 16.245
35.24000 16.206
35.28000 11.069
35.32000 22.474
35.36000 12.171
35.40000 11.063
35.44000 17.173
35.48000 14.190
35.52000 13.167
35.56000 18.325
35.60000 17.357
35.64000 16.957
35.68000 16.415
35.72000 11.119
35.76000 14.148
35.80000 14.041
35.84000 10.192
35.88000 16.187
35.92000 13.217
35.96000 12.290
36.00000 14.271
36.04000 18.116
36.08000 16.232
36.12000 13.105
36.16000 14.062
36.20000 20.297
36.24000 16.388
36.28000 18.218
36.32000 18.235
36.36000 16.304
36.40000 17.192
36.44000 15.521
36.48000 20.201
36.52000 11.077
36.56000 13.384
36.60000 23.269
36.64000 18.469
36.68000 15.272
36.72000 10.125
36.76000 12.153
36.80000 14.203
36.84000 19.000
36.88000 17.191
36.92000 12.213
36.96000 12.030
37.00000 12.026
37.04000 16.059
37.08000 15.099
37.12000 20.242
37.16000 13.233
37.20000 13.120
37.24000 18.097
37.28000 20.200
37.32000 19.258
37.36000 18.422
37.40000 22.159
37.44000 21.166
37.48000 14.183
37.52000 11.076
37.56000 16.244
37.60000 19.349
37.64000 16.109
37.68000 18.208
37.72000 16.050
37.76000 16.231
37.80000 11.078
37.84000 16.172
37.88000 16.227
37.92000 20.328
37.96000 17.182
38.00000 14.200
38.04000 13.018
38.08000 21.281
38.12000 21.256
38.16000 20.189
38.20000 10.299
38.24000 24.418
38.28000 18.248
38.32000 19.251
38.36000 23.339
38.40000 13.310
38.44000 11.283
38.48000 9.125
38.52000 12.092
38.56000 10.156
38.60000 26.146
38.64000 21.282
38.68000 21.235
38.72000 16.075
38.76000 26.210
38.80000 21.424
38.84000 18.184
38.88000 9.150
38.92000 13.150
38.96000 14.172
39.00000 18.374
39.04000 17.281
39.08000 20.322
39.12000 21.275
39.16000 16.370
39.20000 14.252
39.24000 22.362
39.28000 25.339
39.32000 17.317
39.36000 12.222
39.40000 14.177
39.44000 18.051
39.48000 14.187
39.52000 11.024
39.56000 21.162
39.60000 14.204
39.64000 16.301
39.68000 13.080
39.72000 20.330
39.76000 17.316
39.80000 20.243
39.84000 17.103
39.88000 31.551
39.92000 26.400
39.96000 25.554
40.00000 21.314
40.04000 22.404
40.08000 10.196
40.12000 21.201
40.16000 17.354
40.20000 15.051
40.24000 18.244
40.28000 16.185
40.32000 17.168
40.36000 22.519
40.40000 15.131
40.44000 19.366
40.48000 14.352
40.52000 19.353
40.56000 16.210
40.60000 24.462
40.64000 13.120
40.68000 22.111
40.72000 17.267
40.76000 16.031
40.80000 22.212
40.84000 16.308
40.88000 24.387
40.92000 20.332
40.96000 19.282
41.00000 22.191
41.04000 20.390
41.08000 17.231
41.12000 14.121
41.16000 21.243
41.20000 18.097
41.24000 25.397
41.28000 18.214
41.32000 18.189
41.36000 24.241
41.40000 13.115
41.44000 12.143
41.48000 16.320
41.52000 22.056
41.56000 18.280
41.60000 21.254
41.64000 15.084
41.68000 19.482
41.72000 18.282
41.76000 19.221
41.80000 26.413
41.84000 18.186
41.88000 25.212
41.92000 17.159
41.96000 17.234
42.00000 23.516
42.04000 17.284
42.08000 16.441
42.12000 14.128
42.16000 17.119
42.20000 20.415
42.24000 14.999
42.28000 20.465
42.32000 18.224
42.36000 11.067
42.40000 13.143
42.44000 25.395
42.48000 23.362
42.52000 27.456
42.56000 28.166
42.60000 23.247
42.64000 16.130
42.68000 16.262
42.72000 15.166
42.76000 19.330
42.80000 24.287
42.84000 31.222
42.88000 19.269
42.92000 15.365
42.96000 17.106
43.00000 26.311
43.04000 19.174
43.08000 13.089
43.12000 16.128
43.16000 18.314
43.20000 16.363
43.24000 22.229
43.28000 26.359
43.32000 15.307
43.36000 21.038
43.40000 10.128
43.44000 19.354
43.48000 20.101
43.52000 23.426
43.56000 10.129
43.60000 23.292
43.64000 17.204
43.68000 14.094
43.72000 13.119
43.76000 20.099
43.80000 9.302
43.84000 21.309
43.88000 13.125
43.92000 16.411
43.96000 17.083
44.00000 23.299
44.04000 19.268
44.08000 18.260
44.12000 19.238
44.16000 18.117
44.20000 18.159
44.24000 17.371
44.28000 21.331
44.32000 19.381
44.36000 22.454
44.40000 22.468
44.44000 16.140
44.48000 19.299
44.52000 22.410
44.56000 11.188
44.60000 14.139
44.64000 21.377
44.68000 19.315
44.72000 21.630
44.76000 15.041
44.80000 18.233
44.84000 18.237
44.88000 28.516
44.92000 16.216
44.96000 18.312
45.00000 15.202
45.04000 25.378
45.08000 16.213
45.12000 21.151
45.16000 17.416
45.20000 17.126
45.24000 12.244
45.28000 16.180
45.32000 23.197
45.36000 13.182
45.40000 17.313
45.44000 20.054
45.48000 15.125
45.52000 20.118
45.56000 21.302
45.60000 18.248
45.64000 17.353
45.68000 20.355
45.72000 20.526
45.76000 28.585
45.80000 16.188
45.84000 13.064
45.88000 13.104
45.92000 14.239
45.96000 13.113
46.00000 19.198
46.04000 26.296
46.08000 21.119
46.12000 14.343
46.16000 14.282
46.20000 26.225
46.24000 21.348
46.28000 23.174
46.32000 13.100
46.36000 18.176
46.40000 34.333
46.44000 15.375
46.48000 14.322
46.52000 13.294
46.56000 23.225
46.60000 17.228
46.64000 21.258
46.68000 20.581
46.72000 22.425
46.76000 17.274
46.80000 13.219
46.84000 22.246
46.88000 17.242
46.92000 23.260
46.96000 17.198
47.00000 28.445
47.04000 23.385
47.08000 16.369
47.12000 17.953
47.16000 22.198
47.20000 18.194
47.24000 23.166
47.28000 12.244
47.32000 21.300
47.36000 18.183
47.40000 17.238
47.44000 16.329
47.48000 17.345
47.52000 22.220
47.56000 16.259
47.60000 21.333
47.64000 21.283
47.68000 21.281
47.72000 16.207
47.76000 13.159
47.80000 11.172
47.84000 21.348
47.88000 21.290
47.92000 20.171
47.96000 18.177
48.00000 22.281
48.04000 22.472
48.08000 17.321
48.12000 16.303
48.16000 27.382
48.20000 15.092
48.24000 23.273
48.28000 14.025
48.32000 18.195
48.36000 18.368
48.40000 13.107
48.44000 16.226
48.48000 18.167
48.52000 24.061
48.56000 16.218
48.60000 18.272
48.64000 19.152
48.68000 20.324
48.72000 27.266
48.76000 11.124
48.80000 19.416
48.84000 13.060
48.88000 24.330
48.92000 20.217
48.96000 19.337
49.00000 11.161
49.04000 16.177
49.08000 9.055
49.12000 16.994
49.16000 19.135
49.20000 25.337
49.24000 20.496
49.28000 11.142
49.32000 21.267
49.36000 20.207
49.40000 16.257
49.44000 21.335
49.48000 15.117
49.52000 17.204
49.56000 19.433
49.60000 16.153
49.64000 18.211
49.68000 16.242
49.72000 14.115
49.76000 15.149
49.80000 18.192
49.84000 14.248
49.88000 12.049
49.92000 18.344
49.96000 13.183
50.00000 12.129
50.04000 19.315
50.08000 19.337
50.12000 17.429
50.16000 15.072
50.20000 11.084
50.24000 10.149
50.28000 15.103
50.32000 18.088
50.36000 11.177
50.40000 13.995
50.44000 21.224
50.48000 15.147
50.52000 14.325
50.56000 26.378
50.60000 13.093
50.64000 14.259
50.68000 14.372
50.72000 18.244
50.76000 20.214
50.80000 19.097
50.84000 11.230
50.88000 19.134
50.92000 18.182
50.96000 16.111
51.00000 25.331
51.04000 7.011
51.08000 16.300
51.12000 20.225
51.16000 17.214
51.20000 17.020
51.24000 13.092
51.28000 16.298
51.32000 11.156
51.36000 8.256
51.40000 23.511
51.44000 13.356
51.48000 25.513
51.52000 19.193
51.56000 20.334
51.60000 14.105
51.64000 12.179
51.68000 19.304
51.72000 19.258
51.76000 20.409
51.80000 21.222
51.84000 16.344
51.88000 11.185
51.92000 12.138
51.96000 13.291
52.00000 12.146
52.04000 13.173
52.08000 15.228
52.12000 24.560
52.16000 17.064
52.20000 14.192
52.24000 19.309
52.28000 9.066
52.32000 19.255
52.36000 16.287
52.40000 20.281
52.44000 9.158
52.48000 17.134
52.52000 12.174
52.56000 17.268
52.60000 15.221
52.64000 12.122
52.68000 11.124
52.72000 16.117
52.76000 16.122
52.80000 20.361
52.84000 28.323
52.88000 19.118
52.92000 9.039
52.96000 13.256
53.00000 13.222
53.04000 17.157
53.08000 9.042
53.12000 10.361
53.16000 10.127
53.20000 11.115
53.24000 12.251
53.28000 13.174
53.32000 17.416
53.36000 6.016
53.40000 12.274
53.44000 10.128
53.48000 11.061
53.52000 22.341
53.56000 11.061
53.60000 15.285
53.64000 9.148
53.68000 16.337
53.72000 14.165
53.76000 14.164
53.80000 16.230
53.84000 6.104
53.88000 11.050
53.92000 15.092
53.96000 11.103
54.00000 16.399
54.04000 15.167
54.08000 11.201
54.12000 16.224
54.16000 19.320
54.20000 9.153
54.24000 15.231
54.28000 14.292
54.32000 12.172
54.36000 13.137
54.40000 16.294
54.44000 13.110
54.48000 17.218
54.52000 14.208
54.56000 17.255
54.60000 14.204
54.64000 17.301
54.68000 19.201
54.72000 11.177
54.76000 16.212
54.80000 8.135
54.84000 19.141
54.88000 14.278
54.92000 12.250
54.96000 15.168
55.00000 13.304
55.04000 18.209
55.08000 14.150
55.12000 7.089
55.16000 16.303
55.20000 19.296
55.24000 15.337
55.28000 16.077
55.32000 22.236
55.36000 15.118
55.40000 17.173
55.44000 12.105
55.48000 15.131
55.52000 7.091
55.56000 21.381
55.60000 12.057
55.64000 11.063
55.68000 14.107
55.72000 21.506
55.76000 19.068
55.80000 10.160
55.84000 15.339
55.88000 13.207
55.92000 21.255
55.96000 11.104
56.00000 14.362
56.04000 16.182
56.08000 13.100
56.12000 11.050
56.16000 8.029
56.20000 12.053
56.24000 16.208
56.28000 14.144
56.32000 21.186
56.36000 11.212
56.40000 15.116
56.44000 11.160
56.48000 8.116
56.52000 13.135
56.56000 10.095
56.60000 7.046
56.64000 18.115
56.68000 10.122
56.72000 11.194
56.76000 13.195
56.80000 13.078
56.84000 12.135
56.88000 10.172
56.92000 14.096
56.96000 18.245
57.00000 17.319
57.04000 12.081
57.08000 8.190
57.12000 15.144
57.16000 18.161
57.20000 10.113
57.24000 9.061
57.28000 12.104
57.32000 24.039
57.36000 15.198
57.40000 14.011
57.44000 15.423
57.48000 15.204
57.52000 14.101
57.56000 18.229
57.60000 12.179
57.64000 12.061
57.68000 10.135
57.72000 11.997
57.76000 19.169
57.80000 12.046
57.84000 15.092
57.88000 18.177
57.92000 8.088
57.96000 9.168
58.00000 8.267
58.04000 10.178
58.08000 10.100
58.12000 12.216
58.16000 9.130
58.20000 13.235
58.24000 12.327
58.28000 15.341
58.32000 11.997
58.36000 9.148
58.40000 11.074
58.44000 10.084
58.48000 13.139
58.52000 13.108
58.56000 11.092
58.60000 17.274
58.64000 12.210
58.68000 11.083
58.72000 5.066
58.76000 7.958
58.80000 13.092
58.84000 10.078
58.88000 10.125
58.92000 10.179
58.96000 7.005
59.00000 12.128
59.04000 17.206
59.08000 20.204
59.12000 12.236
59.16000 12.116
59.20000 8.224
59.24000 11.124
59.28000 14.122
59.32000 9.008
59.36000 11.104
59.40000 12.196
59.44000 8.147
59.48000 13.210
59.52000 4.099
59.56000 10.060
59.60000 13.111
59.64000 9.118
59.68000 14.185
59.72000 10.166
59.76000 11.122
59.80000 14.254
59.84000 15.277
59.88000 6.990
59.92000 15.278
59.96000 10.040
60.00000 11.127
60.04000 14.243
60.08000 13.154
60.12000 13.166
60.16000 9.226
60.20000 14.255
60.24000 9.139
60.28000 10.972
60.32000 11.051
60.36000 11.125
60.40000 17.179
60.44000 13.065
60.48000 5.071
60.52000 11.248
60.56000 18.269
60.60000 9.219
60.64000 14.969
60.68000 10.207
60.72000 19.412
60.76000 10.128
60.80000 8.090
60.84000 10.091
60.88000 14.231
60.92000 11.108
60.96000 14.178
61.00000 10.102
61.04000 12.110
61.08000 7.060
61.12000 12.064
61.16000 14.073
61.20000 8.030
61.24000 11.088
61.28000 9.133
61.32000 13.176
61.36000 12.075
61.40000 8.084
61.44000 14.164
61.48000 10.057
61.52000 7.990
61.56000 13.128
61.60000 8.096
61.64000 13.147
61.68000 9.116
61.72000 12.222
61.76000 8.066
61.80000 13.073
61.84000 6.004
61.88000 9.076
61.92000 10.114
61.96000 10.164
62.00000 13.131
62.04000 10.081
62.08000 10.054
62.12000 11.156
62.16000 16.262
62.20000 10.159
62.24000 9.135
62.28000 15.290
62.32000 9.095
62.36000 12.149
62.40000 10.148
62.44000 10.053
62.48000 6.013
62.52000 8.022
62.56000 8.077
62.60000 10.131
62.64000 9.158
62.68000 9.198
62.72000 8.120
62.76000 7.102
62.80000 8.037
62.84000 7.103
62.88000 7.114
62.92000 18.284
62.96000 8.121
63.00000 10.058
63.04000 15.112
63.08000 17.213
63.12000 14.234
63.16000 7.174
63.20000 15.242
63.24000 16.362
63.28000 15.205
63.32000 5.095
63.36000 5.158
63.40000 7.132
63.44000 9.123
63.48000 16.212
63.52000 6.013
63.56000 10.068
63.60000 5.006
63.64000 7.056
63.68000 11.058
63.72000 14.140
63.76000 4.961
63.80000 9.087
63.84000 6.029
63.88000 12.219
63.92000 10.121
63.96000 12.195
64.00000 9.237
64.04000 8.057
64.08000 9.122
64.12000 11.154
64.16000 9.085
64.20000 9.077
64.24000 5.972
64.28000 14.108
64.32000 13.048
64.36000 10.058
64.40000 13.208
64.44000 9.094
64.48000 9.125
64.52000 10.258
64.56000 8.160
64.60000 15.139
64.64000 12.102
64.68000 10.932
64.72000 11.104
64.76000 12.265
64.80000 9.073
64.84000 13.173
64.88000 16.030
64.92000 9.260
64.96000 18.285
65.00000 9.221