File: XRD/XRD/11-09-2025/XY Data/01092025_BTO_omega_1_001_11_45-048_-21-694.xy
20.00000 21.215
20.04000 19.257
20.08000 29.328
20.12000 20.225
20.16000 18.286
20.20000 11.177
20.24000 22.314
20.28000 16.203
20.32000 22.272
20.36000 21.203
20.40000 22.158
20.44000 14.335
20.48000 28.569
20.52000 13.233
20.56000 15.170
20.60000 15.205
20.64000 19.401
20.68000 19.369
20.72000 23.251
20.76000 24.308
20.80000 16.064
20.84000 17.369
20.88000 21.377
20.92000 18.253
20.96000 25.378
21.00000 14.357
21.04000 11.208
21.08000 31.512
21.12000 19.251
21.16000 18.987
21.20000 16.303
21.24000 14.146
21.28000 20.387
21.32000 23.431
21.36000 17.400
21.40000 24.093
21.44000 14.228
21.48000 14.231
21.52000 19.315
21.56000 16.485
21.60000 17.244
21.64000 12.238
21.68000 14.317
21.72000 12.138
21.76000 16.248
21.80000 19.545
21.84000 22.264
21.88000 10.240
21.92000 15.094
21.96000 20.464
22.00000 19.148
22.04000 14.923
22.08000 11.216
22.12000 14.274
22.16000 12.308
22.20000 20.417
22.24000 25.987
22.28000 19.285
22.32000 13.005
22.36000 16.150
22.40000 13.141
22.44000 11.182
22.48000 13.267
22.52000 13.154
22.56000 13.187
22.60000 24.134
22.64000 24.488
22.68000 12.118
22.72000 22.164
22.76000 20.301
22.80000 15.103
22.84000 19.320
22.88000 15.286
22.92000 15.249
22.96000 18.112
23.00000 14.150
23.04000 16.254
23.08000 14.121
23.12000 15.038
23.16000 17.270
23.20000 13.136
23.24000 20.239
23.28000 20.330
23.32000 12.151
23.36000 19.275
23.40000 15.329
23.44000 21.256
23.48000 19.319
23.52000 23.138
23.56000 17.302
23.60000 12.076
23.64000 9.180
23.68000 15.169
23.72000 14.227
23.76000 16.051
23.80000 11.103
23.84000 10.043
23.88000 15.155
23.92000 12.277
23.96000 16.383
24.00000 8.073
24.04000 15.059
24.08000 9.088
24.12000 12.180
24.16000 7.097
24.20000 6.075
24.24000 20.124
24.28000 16.121
24.32000 14.201
24.36000 19.295
24.40000 14.118
24.44000 19.090
24.48000 15.253
24.52000 8.079
24.56000 14.377
24.60000 13.181
24.64000 9.063
24.68000 14.113
24.72000 11.042
24.76000 15.048
24.80000 6.092
24.84000 9.185
24.88000 21.456
24.92000 11.214
24.96000 10.271
25.00000 18.266
25.04000 12.205
25.08000 15.177
25.12000 8.166
25.16000 16.363
25.20000 12.114
25.24000 9.279
25.28000 13.299
25.32000 11.300
25.36000 12.213
25.40000 16.194
25.44000 7.094
25.48000 12.111
25.52000 11.111
25.56000 10.151
25.60000 13.263
25.64000 11.101
25.68000 9.173
25.72000 12.162
25.76000 15.204
25.80000 16.381
25.84000 12.301
25.88000 15.151
25.92000 11.195
25.96000 9.304
26.00000 9.181
26.04000 8.105
26.08000 9.155
26.12000 12.186
26.16000 14.205
26.20000 13.274
26.24000 17.096
26.28000 7.099
26.32000 9.170
26.36000 10.113
26.40000 15.296
26.44000 19.066
26.48000 7.024
26.52000 14.297
26.56000 15.268
26.60000 13.070
26.64000 9.214
26.68000 9.123
26.72000 9.169
26.76000 8.175
26.80000 10.155
26.84000 15.218
26.88000 10.157
26.92000 10.155
26.96000 19.296
27.00000 12.197
27.04000 12.312
27.08000 6.001
27.12000 14.139
27.16000 16.188
27.20000 2.999
27.24000 9.014
27.28000 8.110
27.32000 13.069
27.36000 15.174
27.40000 8.252
27.44000 8.076
27.48000 13.104
27.52000 12.109
27.56000 12.160
27.60000 12.179
27.64000 13.387
27.68000 5.106
27.72000 15.214
27.76000 7.097
27.80000 9.158
27.84000 17.192
27.88000 7.171
27.92000 7.183
27.96000 15.240
28.00000 8.076
28.04000 11.079
28.08000 12.211
28.12000 11.124
28.16000 13.229
28.20000 10.002
28.24000 12.277
28.28000 7.233
28.32000 14.203
28.36000 14.110
28.40000 10.116
28.44000 11.120
28.48000 10.280
28.52000 11.230
28.56000 12.145
28.60000 7.117
28.64000 11.052
28.68000 10.198
28.72000 10.124
28.76000 10.078
28.80000 11.142
28.84000 15.305
28.88000 8.092
28.92000 12.138
28.96000 13.221
29.00000 10.092
29.04000 7.095
29.08000 7.058
29.12000 10.096
29.16000 11.215
29.20000 11.207
29.24000 12.176
29.28000 9.012
29.32000 6.962
29.36000 10.303
29.40000 5.118
29.44000 8.332
29.48000 6.208
29.52000 6.069
29.56000 5.065
29.60000 8.142
29.64000 9.182
29.68000 9.024
29.72000 8.196
29.76000 12.119
29.80000 3.016
29.84000 8.121
29.88000 11.137
29.92000 10.228
29.96000 5.019
30.00000 12.131
30.04000 7.177
30.08000 8.183
30.12000 7.022
30.16000 7.125
30.20000 4.063
30.24000 10.142
30.28000 4.080
30.32000 6.163
30.36000 10.092
30.40000 3.046
30.44000 3.045
30.48000 10.241
30.52000 8.187
30.56000 7.025
30.60000 9.105
30.64000 4.089
30.68000 9.080
30.72000 8.078
30.76000 9.067
30.80000 1.962
30.84000 6.113
30.88000 10.105
30.92000 7.012
30.96000 6.151
31.00000 7.253
31.04000 10.266
31.08000 3.082
31.12000 10.116
31.16000 7.138
31.20000 8.090
31.24000 10.147
31.28000 8.199
31.32000 12.175
31.36000 8.172
31.40000 5.019
31.44000 11.169
31.48000 10.197
31.52000 8.134
31.56000 6.130
31.60000 10.335
31.64000 9.147
31.68000 11.193
31.72000 3.094
31.76000 8.096
31.80000 7.162
31.84000 5.130
31.88000 5.109
31.92000 6.158
31.96000 6.038
32.00000 8.141
32.04000 12.279
32.08000 7.126
32.12000 8.114
32.16000 2.021
32.20000 4.056
32.24000 4.089
32.28000 4.047
32.32000 6.051
32.36000 3.059
32.40000 5.062
32.44000 6.093
32.48000 5.048
32.52000 5.056
32.56000 5.020
32.60000 13.195
32.64000 10.028
32.68000 3.035
32.72000 4.044
32.76000 4.091
32.80000 6.232
32.84000 7.060
32.88000 7.052
32.92000 6.088
32.96000 9.059
33.00000 8.128
33.04000 1.022
33.08000 3.035
33.12000 7.027
33.16000 9.127
33.20000 4.038
33.24000 8.096
33.28000 5.027
33.32000 6.023
33.36000 6.002
33.40000 0.000
33.44000 7.107
33.48000 5.094
33.52000 6.025
33.56000 8.064
33.60000 13.185
33.64000 9.146
33.68000 4.046
33.72000 2.038
33.76000 2.029
33.80000 2.068
33.84000 6.121
33.88000 4.071
33.92000 10.190
33.96000 1.008
34.00000 8.131
34.04000 7.000
34.08000 8.109
34.12000 5.056
34.16000 7.089
34.20000 8.200
34.24000 5.991
34.28000 3.011
34.32000 6.078
34.36000 1.001
34.40000 7.092
34.44000 5.023
34.48000 5.113
34.52000 3.029
34.56000 6.025
34.60000 2.036
34.64000 10.122
34.68000 6.020
34.72000 8.041
34.76000 10.143
34.80000 7.078
34.84000 4.101
34.88000 7.129
34.92000 6.051
34.96000 2.052
35.00000 3.130
35.04000 6.069
35.08000 3.067
35.12000 5.018
35.16000 2.027
35.20000 5.076
35.24000 7.194
35.28000 1.022
35.32000 7.135
35.36000 6.093
35.40000 2.062
35.44000 3.042
35.48000 8.982
35.52000 3.029
35.56000 5.092
35.60000 6.139
35.64000 4.934
35.68000 5.128
35.72000 9.290
35.76000 11.150
35.80000 8.958
35.84000 1.043
35.88000 5.067
35.92000 5.997
35.96000 7.142
36.00000 3.027
36.04000 4.998
36.08000 4.063
36.12000 3.015
36.16000 2.009
36.20000 5.115
36.24000 4.123
36.28000 5.068
36.32000 5.081
36.36000 4.166
36.40000 3.041
36.44000 4.027
36.48000 2.043
36.52000 5.095
36.56000 5.095
36.60000 4.083
36.64000 1.017
36.68000 5.104
36.72000 3.032
36.76000 5.032
36.80000 5.013
36.84000 5.074
36.88000 3.055
36.92000 2.060
36.96000 7.074
37.00000 5.036
37.04000 6.023
37.08000 6.016
37.12000 5.074
37.16000 5.005
37.20000 3.111
37.24000 1.010
37.28000 2.045
37.32000 8.134
37.36000 2.983
37.40000 3.991
37.44000 7.099
37.48000 5.072
37.52000 1.969
37.56000 5.053
37.60000 4.054
37.64000 6.166
37.68000 1.995
37.72000 4.074
37.76000 2.037
37.80000 5.116
37.84000 6.011
37.88000 1.018
37.92000 4.039
37.96000 2.989
38.00000 5.115
38.04000 4.071
38.08000 2.012
38.12000 5.010
38.16000 3.081
38.20000 7.054
38.24000 3.955
38.28000 2.090
38.32000 3.201
38.36000 6.069
38.40000 3.038
38.44000 7.179
38.48000 3.039
38.52000 4.018
38.56000 3.066
38.60000 0.000
38.64000 1.013
38.68000 4.011
38.72000 2.994
38.76000 2.038
38.80000 5.137
38.84000 1.020
38.88000 8.083
38.92000 3.013
38.96000 2.015
39.00000 3.978
39.04000 3.049
39.08000 4.030
39.12000 4.027
39.16000 6.162
39.20000 5.997
39.24000 6.142
39.28000 4.099
39.32000 4.004
39.36000 7.043
39.40000 3.992
39.44000 2.033
39.48000 4.064
39.52000 2.038
39.56000 8.107
39.60000 6.255
39.64000 4.127
39.68000 4.996
39.72000 2.976
39.76000 6.083
39.80000 3.069
39.84000 5.022
39.88000 3.007
39.92000 6.142
39.96000 5.010
40.00000 4.013
40.04000 4.102
40.08000 3.015
40.12000 4.072
40.16000 4.013
40.20000 4.151
40.24000 5.096
40.28000 3.983
40.32000 4.995
40.36000 5.002
40.40000 3.037
40.44000 3.000
40.48000 2.980
40.52000 0.984
40.56000 3.040
40.60000 5.100
40.64000 4.070
40.68000 2.041
40.72000 4.109
40.76000 4.085
40.80000 6.104
40.84000 5.039
40.88000 8.209
40.92000 4.017
40.96000 4.033
41.00000 5.144
41.04000 3.011
41.08000 4.159
41.12000 0.998
41.16000 1.989
41.20000 0.000
41.24000 2.032
41.28000 1.021
41.32000 0.000
41.36000 2.081
41.40000 2.029
41.44000 1.058
41.48000 3.039
41.52000 5.084
41.56000 6.056
41.60000 5.149
41.64000 4.007
41.68000 5.111
41.72000 0.984
41.76000 5.077
41.80000 1.983
41.84000 1.992
41.88000 2.051
41.92000 1.991
41.96000 3.076
42.00000 2.048
42.04000 5.082
42.08000 5.085
42.12000 2.015
42.16000 0.000
42.20000 0.000
42.24000 2.051
42.28000 5.098
42.32000 4.024
42.36000 1.003
42.40000 0.994
42.44000 6.043
42.48000 2.035
42.52000 4.057
42.56000 2.005
42.60000 3.060
42.64000 3.030
42.68000 2.041
42.72000 5.110
42.76000 6.162
42.80000 2.991
42.84000 3.015
42.88000 1.022
42.92000 0.000
42.96000 2.040
43.00000 3.038
43.04000 3.027
43.08000 3.044
43.12000 3.069
43.16000 4.012
43.20000 4.003
43.24000 5.027
43.28000 4.055
43.32000 3.086
43.36000 4.041
43.40000 2.037
43.44000 1.046
43.48000 4.032
43.52000 1.007
43.56000 5.036
43.60000 2.011
43.64000 5.046
43.68000 6.093
43.72000 2.039
43.76000 4.040
43.80000 3.059
43.84000 2.001
43.88000 4.079
43.92000 2.987
43.96000 3.076
44.00000 0.995
44.04000 0.000
44.08000 2.034
44.12000 4.069
44.16000 6.084
44.20000 3.027
44.24000 3.041
44.28000 1.030
44.32000 1.014
44.36000 4.121
44.40000 5.934
44.44000 5.112
44.48000 5.013
44.52000 3.005
44.56000 3.125
44.60000 4.091
44.64000 0.000
44.68000 5.015
44.72000 1.041
44.76000 2.045
44.80000 1.019
44.84000 1.011
44.88000 1.001
44.92000 3.999
44.96000 5.023
45.00000 3.097
45.04000 5.031
45.08000 4.163
45.12000 3.072
45.16000 2.062
45.20000 2.044
45.24000 1.993
45.28000 2.016
45.32000 0.000
45.36000 4.075
45.40000 6.154
45.44000 0.000
45.48000 4.113
45.52000 0.000
45.56000 2.960
45.60000 3.037
45.64000 3.034
45.68000 2.007
45.72000 1.962
45.76000 4.089
45.80000 4.191
45.84000 3.080
45.88000 1.010
45.92000 0.983
45.96000 2.062
46.00000 3.057
46.04000 1.000
46.08000 2.006
46.12000 3.076
46.16000 3.038
46.20000 1.036
46.24000 3.060
46.28000 1.007
46.32000 2.066
46.36000 0.986
46.40000 1.018
46.44000 1.013
46.48000 0.995
46.52000 2.022
46.56000 4.016
46.60000 6.033
46.64000 4.983
46.68000 3.042
46.72000 1.985
46.76000 1.968
46.80000 1.985
46.84000 1.038
46.88000 4.138
46.92000 3.027
46.96000 3.037
47.00000 3.105
47.04000 4.009
47.08000 4.066
47.12000 3.975
47.16000 2.086
47.20000 0.991
47.24000 1.033
47.28000 1.999
47.32000 5.157
47.36000 2.037
47.40000 0.996
47.44000 1.024
47.48000 0.000
47.52000 3.038
47.56000 1.009
47.60000 2.027
47.64000 0.000
47.68000 5.114
47.72000 0.000
47.76000 3.067
47.80000 3.006
47.84000 2.004
47.88000 2.038
47.92000 5.033
47.96000 4.095
48.00000 2.015
48.04000 1.032
48.08000 2.068
48.12000 3.142
48.16000 4.026
48.20000 0.000
48.24000 3.105
48.28000 0.000
48.32000 2.005
48.36000 0.000
48.40000 1.989
48.44000 1.054
48.48000 4.048
48.52000 1.017
48.56000 1.040
48.60000 1.975
48.64000 1.014
48.68000 0.000
48.72000 4.161
48.76000 0.000
48.80000 1.002
48.84000 2.037
48.88000 2.088
48.92000 0.000
48.96000 1.050
49.00000 4.019
49.04000 3.045
49.08000 2.033
49.12000 4.121
49.16000 4.034
49.20000 3.065
49.24000 0.994
49.28000 1.984
49.32000 2.026
49.36000 0.994
49.40000 3.012
49.44000 1.009
49.48000 3.005
49.52000 5.006
49.56000 4.141
49.60000 2.089
49.64000 1.030
49.68000 4.066
49.72000 5.112
49.76000 1.032
49.80000 2.996
49.84000 0.000
49.88000 2.998
49.92000 3.050
49.96000 2.003
50.00000 2.994
50.04000 2.071
50.08000 2.063
50.12000 0.985
50.16000 7.034
50.20000 2.022
50.24000 0.000
50.28000 1.033
50.32000 2.017
50.36000 1.052
50.40000 1.040
50.44000 2.044
50.48000 1.019
50.52000 5.126
50.56000 0.000
50.60000 3.163
50.64000 5.069
50.68000 4.037
50.72000 4.064
50.76000 2.041
50.80000 1.996
50.84000 0.000
50.88000 2.039
50.92000 3.080
50.96000 0.000
51.00000 1.028
51.04000 1.011
51.08000 0.985
51.12000 1.041
51.16000 3.003
51.20000 1.010
51.24000 3.135
51.28000 4.085
51.32000 0.000
51.36000 4.058
51.40000 4.056
51.44000 3.020
51.48000 2.019
51.52000 2.050
51.56000 1.042
51.60000 6.043
51.64000 2.039
51.68000 1.991
51.72000 1.027
51.76000 2.998
51.80000 3.098
51.84000 0.975
51.88000 1.022
51.92000 2.006
51.96000 1.007
52.00000 0.000
52.04000 0.000
52.08000 2.049
52.12000 1.016
52.16000 3.970
52.20000 1.991
52.24000 3.024
52.28000 1.041
52.32000 1.001
52.36000 1.058
52.40000 0.999
52.44000 1.001
52.48000 2.017
52.52000 3.079
52.56000 2.025
52.60000 0.996
52.64000 0.995
52.68000 0.970
52.72000 1.986
52.76000 3.078
52.80000 2.022
52.84000 3.043
52.88000 0.000
52.92000 0.984
52.96000 2.022
53.00000 0.984
53.04000 0.000
53.08000 3.073
53.12000 1.022
53.16000 3.050
53.20000 4.024
53.24000 0.995
53.28000 0.000
53.32000 2.003
53.36000 4.061
53.40000 2.024
53.44000 0.998
53.48000 0.000
53.52000 1.011
53.56000 1.045
53.60000 1.976
53.64000 2.006
53.68000 4.061
53.72000 1.009
53.76000 1.040
53.80000 3.030
53.84000 1.009
53.88000 1.044
53.92000 3.017
53.96000 1.030
54.00000 3.043
54.04000 2.961
54.08000 2.999
54.12000 1.046
54.16000 0.996
54.20000 1.006
54.24000 5.011
54.28000 0.988
54.32000 0.000
54.36000 4.030
54.40000 0.991
54.44000 1.013
54.48000 0.000
54.52000 0.000
54.56000 2.009
54.60000 0.990
54.64000 2.038
54.68000 4.083
54.72000 0.000
54.76000 2.017
54.80000 5.094
54.84000 0.000
54.88000 0.000
54.92000 0.000
54.96000 0.000
55.00000 1.004
55.04000 4.092
55.08000 0.000
55.12000 1.993
55.16000 4.101
55.20000 0.000
55.24000 3.021
55.28000 1.009
55.32000 0.000
55.36000 2.986
55.40000 1.039
55.44000 1.005
55.48000 3.012
55.52000 3.106
55.56000 0.981
55.60000 2.114
55.64000 5.084
55.68000 1.021
55.72000 3.011
55.76000 2.024
55.80000 5.061
55.84000 2.047
55.88000 1.010
55.92000 3.993
55.96000 0.000
56.00000 1.037
56.04000 2.010
56.08000 0.000
56.12000 5.061
56.16000 0.000
56.20000 1.018
56.24000 0.000
56.28000 0.000
56.32000 2.998
56.36000 1.014
56.40000 0.000
56.44000 1.992
56.48000 2.047
56.52000 1.026
56.56000 3.124
56.60000 0.000
56.64000 0.000
56.68000 1.024
56.72000 1.000
56.76000 0.000
56.80000 1.021
56.84000 1.038
56.88000 0.000
56.92000 0.999
56.96000 0.989
57.00000 0.986
57.04000 1.981
57.08000 0.000
57.12000 1.045
57.16000 1.006
57.20000 4.052
57.24000 5.080
57.28000 0.992
57.32000 1.026
57.36000 0.000
57.40000 0.000
57.44000 3.089
57.48000 0.000
57.52000 1.030
57.56000 0.000
57.60000 1.056
57.64000 1.029
57.68000 0.000
57.72000 1.976
57.76000 1.000
57.80000 0.000
57.84000 1.016
57.88000 3.075
57.92000 1.001
57.96000 2.003
58.00000 1.993
58.04000 1.989
58.08000 1.998
58.12000 0.000
58.16000 1.019
58.20000 2.036
58.24000 1.041
58.28000 0.994
58.32000 3.051
58.36000 1.007
58.40000 2.069
58.44000 1.994
58.48000 5.091
58.52000 1.002
58.56000 0.000
58.60000 0.000
58.64000 0.000
58.68000 0.000
58.72000 0.000
58.76000 1.038
58.80000 1.042
58.84000 1.989
58.88000 0.999
58.92000 1.036
58.96000 1.049
59.00000 4.086
59.04000 1.022
59.08000 0.000
59.12000 1.997
59.16000 0.000
59.20000 1.992
59.24000 1.092
59.28000 2.012
59.32000 0.000
59.36000 2.061
59.40000 2.055
59.44000 0.000
59.48000 1.004
59.52000 0.000
59.56000 0.000
59.60000 2.087
59.64000 2.030
59.68000 0.000
59.72000 0.000
59.76000 1.041
59.80000 2.092
59.84000 0.000
59.88000 0.996
59.92000 1.017
59.96000 2.100
60.00000 3.030
60.04000 0.000
60.08000 0.999
60.12000 1.002
60.16000 1.035
60.20000 0.000
60.24000 1.022
60.28000 2.019
60.32000 1.002
60.36000 4.144
60.40000 1.979
60.44000 2.119
60.48000 1.030
60.52000 0.000
60.56000 4.088
60.60000 3.070
60.64000 0.000
60.68000 0.979
60.72000 0.000
60.76000 1.979
60.80000 0.000
60.84000 2.017
60.88000 0.000
60.92000 0.000
60.96000 0.000
61.00000 0.000
61.04000 2.060
61.08000 1.048
61.12000 2.046
61.16000 1.044
61.20000 0.000
61.24000 1.011
61.28000 1.009
61.32000 1.024
61.36000 2.007
61.40000 0.000
61.44000 0.999
61.48000 0.983
61.52000 4.057
61.56000 1.004
61.60000 0.000
61.64000 0.000
61.68000 1.027
61.72000 1.021
61.76000 3.102
61.80000 3.000
61.84000 0.998
61.88000 1.045
61.92000 0.000
61.96000 0.998
62.00000 1.007
62.04000 1.017
62.08000 2.971
62.12000 1.987
62.16000 2.021
62.20000 0.000
62.24000 0.000
62.28000 0.000
62.32000 1.002
62.36000 0.000
62.40000 2.058
62.44000 2.031
62.48000 1.024
62.52000 3.117
62.56000 0.987
62.60000 0.000
62.64000 0.983
62.68000 0.000
62.72000 0.000
62.76000 1.981
62.80000 1.007
62.84000 0.981
62.88000 0.000
62.92000 0.990
62.96000 2.039
63.00000 0.977
63.04000 1.001
63.08000 0.000
63.12000 2.073
63.16000 0.000
63.20000 4.047
63.24000 0.959
63.28000 2.058
63.32000 0.000
63.36000 0.000
63.40000 0.989
63.44000 2.960
63.48000 1.023
63.52000 0.993
63.56000 0.000
63.60000 2.034
63.64000 3.055
63.68000 1.027
63.72000 0.000
63.76000 2.013
63.80000 0.000
63.84000 1.044
63.88000 2.017
63.92000 1.055
63.96000 4.064
64.00000 0.000
64.04000 0.000
64.08000 2.015
64.12000 0.000
64.16000 0.000
64.20000 0.000
64.24000 0.000
64.28000 0.000
64.32000 0.989
64.36000 0.985
64.40000 0.000
64.44000 0.000
64.48000 1.999
64.52000 1.015
64.56000 1.010
64.60000 2.067
64.64000 0.000
64.68000 0.977
64.72000 5.080
64.76000 2.042
64.80000 0.000
64.84000 0.982
64.88000 2.054
64.92000 0.982
64.96000 0.000
65.00000 2.970