File: XRD/XRD/11-09-2025/XY Data/01092025_BTO_omega_1_001_26_12-500_0-000.xy
20.00000 16.254
20.04000 19.332
20.08000 12.124
20.12000 11.071
20.16000 21.284
20.20000 21.230
20.24000 17.184
20.28000 16.239
20.32000 19.213
20.36000 19.252
20.40000 9.144
20.44000 19.370
20.48000 18.088
20.52000 19.166
20.56000 11.106
20.60000 14.221
20.64000 13.141
20.68000 23.341
20.72000 17.279
20.76000 16.182
20.80000 21.331
20.84000 8.121
20.88000 25.171
20.92000 12.033
20.96000 19.203
21.00000 23.206
21.04000 18.216
21.08000 17.127
21.12000 12.148
21.16000 20.376
21.20000 19.307
21.24000 16.291
21.28000 19.163
21.32000 22.288
21.36000 24.334
21.40000 16.246
21.44000 13.151
21.48000 17.152
21.52000 14.132
21.56000 7.096
21.60000 16.138
21.64000 17.165
21.68000 14.166
21.72000 17.212
21.76000 20.278
21.80000 19.093
21.84000 21.308
21.88000 21.214
21.92000 22.294
21.96000 19.304
22.00000 16.311
22.04000 17.184
22.08000 11.201
22.12000 17.185
22.16000 22.159
22.20000 25.302
22.24000 12.151
22.28000 21.170
22.32000 17.104
22.36000 15.255
22.40000 16.234
22.44000 22.340
22.48000 14.182
22.52000 25.182
22.56000 11.159
22.60000 27.278
22.64000 21.193
22.68000 15.129
22.72000 16.230
22.76000 19.411
22.80000 20.518
22.84000 16.392
22.88000 21.540
22.92000 17.508
22.96000 26.567
23.00000 17.298
23.04000 24.541
23.08000 20.252
23.12000 19.429
23.16000 20.078
23.20000 25.307
23.24000 25.491
23.28000 31.310
23.32000 32.472
23.36000 24.337
23.40000 21.300
23.44000 16.168
23.48000 18.074
23.52000 16.228
23.56000 27.296
23.60000 16.252
23.64000 16.328
23.68000 19.200
23.72000 20.258
23.76000 25.179
23.80000 25.374
23.84000 23.335
23.88000 19.273
23.92000 18.173
23.96000 19.184
24.00000 22.454
24.04000 29.523
24.08000 18.118
24.12000 25.270
24.16000 18.224
24.20000 21.137
24.24000 22.268
24.28000 31.324
24.32000 30.195
24.36000 30.273
24.40000 29.418
24.44000 29.248
24.48000 20.133
24.52000 27.310
24.56000 21.330
24.60000 21.181
24.64000 19.249
24.68000 26.222
24.72000 18.358
24.76000 20.131
24.80000 27.413
24.84000 27.579
24.88000 34.419
24.92000 34.508
24.96000 27.467
25.00000 27.047
25.04000 20.447
25.08000 17.321
25.12000 29.308
25.16000 26.559
25.20000 19.250
25.24000 25.328
25.28000 34.502
25.32000 28.498
25.36000 32.471
25.40000 31.559
25.44000 19.362
25.48000 22.295
25.52000 29.281
25.56000 30.366
25.60000 41.314
25.64000 31.689
25.68000 25.328
25.72000 29.218
25.76000 35.586
25.80000 32.470
25.84000 31.422
25.88000 16.233
25.92000 36.390
25.96000 34.241
26.00000 36.597
26.04000 42.584
26.08000 35.584
26.12000 40.706
26.16000 35.338
26.20000 30.341
26.24000 45.675
26.28000 31.101
26.32000 27.430
26.36000 33.176
26.40000 37.565
26.44000 38.472
26.48000 31.365
26.52000 42.563
26.56000 39.329
26.60000 30.403
26.64000 36.525
26.68000 45.506
26.72000 42.502
26.76000 28.247
26.80000 32.594
26.84000 38.602
26.88000 25.294
26.92000 35.507
26.96000 31.471
27.00000 38.554
27.04000 34.493
27.08000 43.299
27.12000 35.712
27.16000 35.520
27.20000 31.649
27.24000 34.437
27.28000 41.418
27.32000 37.681
27.36000 23.458
27.40000 46.499
27.44000 36.495
27.48000 34.366
27.52000 46.579
27.56000 40.435
27.60000 29.477
27.64000 32.367
27.68000 44.659
27.72000 39.566
27.76000 45.747
27.80000 36.347
27.84000 35.214
27.88000 50.829
27.92000 41.493
27.96000 38.273
28.00000 29.393
28.04000 30.280
28.08000 24.519
28.12000 35.428
28.16000 38.389
28.20000 38.554
28.24000 46.670
28.28000 42.599
28.32000 41.525
28.36000 34.400
28.40000 40.530
28.44000 41.804
28.48000 38.322
28.52000 38.288
28.56000 28.085
28.60000 46.292
28.64000 47.661
28.68000 42.764
28.72000 26.998
28.76000 43.727
28.80000 42.370
28.84000 33.557
28.88000 36.385
28.92000 41.338
28.96000 32.524
29.00000 34.508
29.04000 27.139
29.08000 42.661
29.12000 36.343
29.16000 42.562
29.20000 37.280
29.24000 34.518
29.28000 32.276
29.32000 35.511
29.36000 24.101
29.40000 32.575
29.44000 35.391
29.48000 29.320
29.52000 31.592
29.56000 28.264
29.60000 30.308
29.64000 25.269
29.68000 23.284
29.72000 26.360
29.76000 36.049
29.80000 24.304
29.84000 33.355
29.88000 32.287
29.92000 38.710
29.96000 20.146
30.00000 25.269
30.04000 35.456
30.08000 34.525
30.12000 39.473
30.16000 35.366
30.20000 32.390
30.24000 21.334
30.28000 31.346
30.32000 25.400
30.36000 24.268
30.40000 18.317
30.44000 25.320
30.48000 25.393
30.52000 19.474
30.56000 29.294
30.60000 20.079
30.64000 26.230
30.68000 17.177
30.72000 17.122
30.76000 24.414
30.80000 33.365
30.84000 27.640
30.88000 29.258
30.92000 25.219
30.96000 17.284
31.00000 20.225
31.04000 19.288
31.08000 22.491
31.12000 34.156
31.16000 20.385
31.20000 18.127
31.24000 22.179
31.28000 24.349
31.32000 21.596
31.36000 23.235
31.40000 16.203
31.44000 18.237
31.48000 20.335
31.52000 21.269
31.56000 22.176
31.60000 15.222
31.64000 20.370
31.68000 14.186
31.72000 12.030
31.76000 18.260
31.80000 17.330
31.84000 28.428
31.88000 18.080
31.92000 24.301
31.96000 16.226
32.00000 20.426
32.04000 14.179
32.08000 23.223
32.12000 22.161
32.16000 25.139
32.20000 26.416
32.24000 15.230
32.28000 26.455
32.32000 36.497
32.36000 25.444
32.40000 25.266
32.44000 16.199
32.48000 21.222
32.52000 22.240
32.56000 22.390
32.60000 19.051
32.64000 24.454
32.68000 17.224
32.72000 20.204
32.76000 24.386
32.80000 20.084
32.84000 15.221
32.88000 10.233
32.92000 16.208
32.96000 13.160
33.00000 19.102
33.04000 23.421
33.08000 6.960
33.12000 21.422
33.16000 16.419
33.20000 13.143
33.24000 13.112
33.28000 12.031
33.32000 14.128
33.36000 10.026
33.40000 18.285
33.44000 11.029
33.48000 17.225
33.52000 19.298
33.56000 11.316
33.60000 13.187
33.64000 22.548
33.68000 16.148
33.72000 13.364
33.76000 8.183
33.80000 14.354
33.84000 13.153
33.88000 10.178
33.92000 23.422
33.96000 16.280
34.00000 12.016
34.04000 10.115
34.08000 12.203
34.12000 7.143
34.16000 17.251
34.20000 17.250
34.24000 15.293
34.28000 19.242
34.32000 20.314
34.36000 14.133
34.40000 15.448
34.44000 10.172
34.48000 9.003
34.52000 16.200
34.56000 11.136
34.60000 18.161
34.64000 21.288
34.68000 10.071
34.72000 16.321
34.76000 17.208
34.80000 11.247
34.84000 10.303
34.88000 8.097
34.92000 6.004
34.96000 19.386
35.00000 19.357
35.04000 14.101
35.08000 12.039
35.12000 17.089
35.16000 8.149
35.20000 10.278
35.24000 10.070
35.28000 8.087
35.32000 11.204
35.36000 12.131
35.40000 11.131
35.44000 7.070
35.48000 14.237
35.52000 6.982
35.56000 17.305
35.60000 8.086
35.64000 11.297
35.68000 14.193
35.72000 14.174
35.76000 12.198
35.80000 10.073
35.84000 12.217
35.88000 11.176
35.92000 17.231
35.96000 16.258
36.00000 17.134
36.04000 10.121
36.08000 6.177
36.12000 15.173
36.16000 9.192
36.20000 13.139
36.24000 12.017
36.28000 7.208
36.32000 16.162
36.36000 16.328
36.40000 12.060
36.44000 10.168
36.48000 21.201
36.52000 7.299
36.56000 10.186
36.60000 13.097
36.64000 10.197
36.68000 16.114
36.72000 9.026
36.76000 6.052
36.80000 10.262
36.84000 11.128
36.88000 23.272
36.92000 13.176
36.96000 13.108
37.00000 15.309
37.04000 13.142
37.08000 9.163
37.12000 3.960
37.16000 17.062
37.20000 6.167
37.24000 17.279
37.28000 16.121
37.32000 9.128
37.36000 9.272
37.40000 18.417
37.44000 21.503
37.48000 8.004
37.52000 10.080
37.56000 9.122
37.60000 13.139
37.64000 18.289
37.68000 10.113
37.72000 19.259
37.76000 12.160
37.80000 13.110
37.84000 10.105
37.88000 19.217
37.92000 12.103
37.96000 11.158
38.00000 13.234
38.04000 8.086
38.08000 15.155
38.12000 11.037
38.16000 13.209
38.20000 16.159
38.24000 12.098
38.28000 15.242
38.32000 12.137
38.36000 15.371
38.40000 9.088
38.44000 14.235
38.48000 14.316
38.52000 12.140
38.56000 10.222
38.60000 19.266
38.64000 15.101
38.68000 17.299
38.72000 10.033
38.76000 18.401
38.80000 12.088
38.84000 19.258
38.88000 16.177
38.92000 19.320
38.96000 16.242
39.00000 15.450
39.04000 17.349
39.08000 11.125
39.12000 16.402
39.16000 17.214
39.20000 12.148
39.24000 19.100
39.28000 15.071
39.32000 13.291
39.36000 20.378
39.40000 11.130
39.44000 19.305
39.48000 15.140
39.52000 15.368
39.56000 9.110
39.60000 15.200
39.64000 14.025
39.68000 18.176
39.72000 14.273
39.76000 22.327
39.80000 13.220
39.84000 23.513
39.88000 10.129
39.92000 13.086
39.96000 19.245
40.00000 15.056
40.04000 19.148
40.08000 16.372
40.12000 13.240
40.16000 17.258
40.20000 12.088
40.24000 16.204
40.28000 16.360
40.32000 12.046
40.36000 11.133
40.40000 9.010
40.44000 15.085
40.48000 14.116
40.52000 15.123
40.56000 18.239
40.60000 21.175
40.64000 5.134
40.68000 11.254
40.72000 14.225
40.76000 10.084
40.80000 15.245
40.84000 12.123
40.88000 14.160
40.92000 21.122
40.96000 12.222
41.00000 15.075
41.04000 10.130
41.08000 13.079
41.12000 9.075
41.16000 13.057
41.20000 17.397
41.24000 8.038
41.28000 12.193
41.32000 14.136
41.36000 14.271
41.40000 19.210
41.44000 16.079
41.48000 11.245
41.52000 16.278
41.56000 14.210
41.60000 18.196
41.64000 17.079
41.68000 9.096
41.72000 8.980
41.76000 9.098
41.80000 18.274
41.84000 10.161
41.88000 13.337
41.92000 10.020
41.96000 12.114
42.00000 14.231
42.04000 18.099
42.08000 14.160
42.12000 18.223
42.16000 18.303
42.20000 17.375
42.24000 13.238
42.28000 11.118
42.32000 9.005
42.36000 16.273
42.40000 17.144
42.44000 16.291
42.48000 11.110
42.52000 14.319
42.56000 17.426
42.60000 15.219
42.64000 8.036
42.68000 15.104
42.72000 16.261
42.76000 9.209
42.80000 13.136
42.84000 17.173
42.88000 12.254
42.92000 15.283
42.96000 19.297
43.00000 12.248
43.04000 15.203
43.08000 14.302
43.12000 17.085
43.16000 6.986
43.20000 11.274
43.24000 16.118
43.28000 20.282
43.32000 14.223
43.36000 14.258
43.40000 14.212
43.44000 14.211
43.48000 17.258
43.52000 12.091
43.56000 18.280
43.60000 13.383
43.64000 19.213
43.68000 13.121
43.72000 9.084
43.76000 8.129
43.80000 9.129
43.84000 14.140
43.88000 12.162
43.92000 8.036
43.96000 14.168
44.00000 18.009
44.04000 24.264
44.08000 16.114
44.12000 15.305
44.16000 18.321
44.20000 13.220
44.24000 16.094
44.28000 12.097
44.32000 10.195
44.36000 15.138
44.40000 15.178
44.44000 13.121
44.48000 22.444
44.52000 10.039
44.56000 14.182
44.60000 9.171
44.64000 11.247
44.68000 13.218
44.72000 14.128
44.76000 13.233
44.80000 15.340
44.84000 9.209
44.88000 18.294
44.92000 13.194
44.96000 15.221
45.00000 14.186
45.04000 16.087
45.08000 14.235
45.12000 20.283
45.16000 12.230
45.20000 16.062
45.24000 17.159
45.28000 21.278
45.32000 10.025
45.36000 6.054
45.40000 13.170
45.44000 7.177
45.48000 7.060
45.52000 15.205
45.56000 16.111
45.60000 16.063
45.64000 17.159
45.68000 16.286
45.72000 6.069
45.76000 17.237
45.80000 15.259
45.84000 9.136
45.88000 14.222
45.92000 13.093
45.96000 18.123
46.00000 17.231
46.04000 14.145
46.08000 17.243
46.12000 8.051
46.16000 20.212
46.20000 16.282
46.24000 13.078
46.28000 14.113
46.32000 10.147
46.36000 12.088
46.40000 21.240
46.44000 7.095
46.48000 17.190
46.52000 17.369
46.56000 16.158
46.60000 11.232
46.64000 13.085
46.68000 12.350
46.72000 25.245
46.76000 8.092
46.80000 9.049
46.84000 13.135
46.88000 14.260
46.92000 17.233
46.96000 15.163
47.00000 12.169
47.04000 16.230
47.08000 12.067
47.12000 13.240
47.16000 10.078
47.20000 11.068
47.24000 14.134
47.28000 23.264
47.32000 10.180
47.36000 16.266
47.40000 13.139
47.44000 12.159
47.48000 16.266
47.52000 6.043
47.56000 12.202
47.60000 11.159
47.64000 16.134
47.68000 6.046
47.72000 14.255
47.76000 19.090
47.80000 13.086
47.84000 8.060
47.88000 16.342
47.92000 12.157
47.96000 21.406
48.00000 15.181
48.04000 9.137
48.08000 9.213
48.12000 15.340
48.16000 13.290
48.20000 16.133
48.24000 6.038
48.28000 11.147
48.32000 16.253
48.36000 11.077
48.40000 14.092
48.44000 8.136
48.48000 14.407
48.52000 10.181
48.56000 13.137
48.60000 10.151
48.64000 6.111
48.68000 16.302
48.72000 9.025
48.76000 11.130
48.80000 12.276
48.84000 13.276
48.88000 16.150
48.92000 10.123
48.96000 9.119
49.00000 12.054
49.04000 13.214
49.08000 11.126
49.12000 15.215
49.16000 16.300
49.20000 19.279
49.24000 9.134
49.28000 9.270
49.32000 16.032
49.36000 9.087
49.40000 13.196
49.44000 17.213
49.48000 18.310
49.52000 9.170
49.56000 11.169
49.60000 17.160
49.64000 10.153
49.68000 13.268
49.72000 14.245
49.76000 8.983
49.80000 11.127
49.84000 11.176
49.88000 10.095
49.92000 21.380
49.96000 11.061
50.00000 13.263
50.04000 10.249
50.08000 12.053
50.12000 14.181
50.16000 13.268
50.20000 16.168
50.24000 13.175
50.28000 13.192
50.32000 14.100
50.36000 11.161
50.40000 9.045
50.44000 11.074
50.48000 21.234
50.52000 10.011
50.56000 8.225
50.60000 11.176
50.64000 16.279
50.68000 10.029
50.72000 5.041
50.76000 17.294
50.80000 11.214
50.84000 13.193
50.88000 15.207
50.92000 16.295
50.96000 17.280
51.00000 17.187
51.04000 9.144
51.08000 6.116
51.12000 9.082
51.16000 9.065
51.20000 8.110
51.24000 12.043
51.28000 15.294
51.32000 12.086
51.36000 7.108
51.40000 13.067
51.44000 12.113
51.48000 9.981
51.52000 13.090
51.56000 8.128
51.60000 19.108
51.64000 6.915
51.68000 11.085
51.72000 15.151
51.76000 16.107
51.80000 14.386
51.84000 23.466
51.88000 14.274
51.92000 9.185
51.96000 18.189
52.00000 10.133
52.04000 12.227
52.08000 9.108
52.12000 13.145
52.16000 11.133
52.20000 9.142
52.24000 10.072
52.28000 16.384
52.32000 13.255
52.36000 11.227
52.40000 9.188
52.44000 10.251
52.48000 6.054
52.52000 13.277
52.56000 7.109
52.60000 14.192
52.64000 11.165
52.68000 10.130
52.72000 15.223
52.76000 8.082
52.80000 12.047
52.84000 14.230
52.88000 8.092
52.92000 19.229
52.96000 14.056
53.00000 11.113
53.04000 17.244
53.08000 11.133
53.12000 15.168
53.16000 15.199
53.20000 8.128
53.24000 10.115
53.28000 9.164
53.32000 11.195
53.36000 12.121
53.40000 10.095
53.44000 10.174
53.48000 7.062
53.52000 8.168
53.56000 12.187
53.60000 8.157
53.64000 12.225
53.68000 8.045
53.72000 9.175
53.76000 11.176
53.80000 11.117
53.84000 18.203
53.88000 7.150
53.92000 15.213
53.96000 11.052
54.00000 15.162
54.04000 15.017
54.08000 11.995
54.12000 11.992
54.16000 8.157
54.20000 11.234
54.24000 11.092
54.28000 13.219
54.32000 19.474
54.36000 11.178
54.40000 12.050
54.44000 6.024
54.48000 12.013
54.52000 9.198
54.56000 18.355
54.60000 19.308
54.64000 9.064
54.68000 13.024
54.72000 9.133
54.76000 14.091
54.80000 14.281
54.84000 7.021
54.88000 9.287
54.92000 10.174
54.96000 12.172
55.00000 17.128
55.04000 8.039
55.08000 14.137
55.12000 10.178
55.16000 14.215
55.20000 18.164
55.24000 8.096
55.28000 10.096
55.32000 9.214
55.36000 11.125
55.40000 8.111
55.44000 11.130
55.48000 9.138
55.52000 12.151
55.56000 13.993
55.60000 15.183
55.64000 8.128
55.68000 10.186
55.72000 12.157
55.76000 15.342
55.80000 9.053
55.84000 9.149
55.88000 9.152
55.92000 10.147
55.96000 10.018
56.00000 13.181
56.04000 11.998
56.08000 11.153
56.12000 14.191
56.16000 13.085
56.20000 8.107
56.24000 11.129
56.28000 10.236
56.32000 12.031
56.36000 16.118
56.40000 10.031
56.44000 8.152
56.48000 11.028
56.52000 9.126
56.56000 11.100
56.60000 10.242
56.64000 7.160
56.68000 9.233
56.72000 9.022
56.76000 9.095
56.80000 11.035
56.84000 15.126
56.88000 13.135
56.92000 8.061
56.96000 12.193
57.00000 12.129
57.04000 10.108
57.08000 10.050
57.12000 3.000
57.16000 7.037
57.20000 13.246
57.24000 10.344
57.28000 7.097
57.32000 12.117
57.36000 12.182
57.40000 7.079
57.44000 8.017
57.48000 13.049
57.52000 8.137
57.56000 6.034
57.60000 13.265
57.64000 12.305
57.68000 3.036
57.72000 13.022
57.76000 2.076
57.80000 15.068
57.84000 10.079
57.88000 2.069
57.92000 2.065
57.96000 8.109
58.00000 10.153
58.04000 6.083
58.08000 8.960
58.12000 11.094
58.16000 6.130
58.20000 9.139
58.24000 5.186
58.28000 5.010
58.32000 3.968
58.36000 10.208
58.40000 7.989
58.44000 11.103
58.48000 2.010
58.52000 9.270
58.56000 6.062
58.60000 12.071
58.64000 13.072
58.68000 9.165
58.72000 10.071
58.76000 12.254
58.80000 10.090
58.84000 9.162
58.88000 8.217
58.92000 8.037
58.96000 9.000
59.00000 12.968
59.04000 14.095
59.08000 7.186
59.12000 11.323
59.16000 8.087
59.20000 7.008
59.24000 7.179
59.28000 6.095
59.32000 4.142
59.36000 7.068
59.40000 9.091
59.44000 4.101
59.48000 9.105
59.52000 7.036
59.56000 4.172
59.60000 5.041
59.64000 13.138
59.68000 9.141
59.72000 9.108
59.76000 14.278
59.80000 7.151
59.84000 9.131
59.88000 3.057
59.92000 11.200
59.96000 6.197
60.00000 14.167
60.04000 8.123
60.08000 13.009
60.12000 15.221
60.16000 10.147
60.20000 4.091
60.24000 12.183
60.28000 13.065
60.32000 7.142
60.36000 12.212
60.40000 9.065
60.44000 10.132
60.48000 6.908
60.52000 8.115
60.56000 9.054
60.60000 8.074
60.64000 11.145
60.68000 7.216
60.72000 9.097
60.76000 3.003
60.80000 8.244
60.84000 7.014
60.88000 5.987
60.92000 9.037
60.96000 7.993
61.00000 4.108
61.04000 5.007
61.08000 15.192
61.12000 10.190
61.16000 7.004
61.20000 7.027
61.24000 7.017
61.28000 11.199
61.32000 10.164
61.36000 9.102
61.40000 8.211
61.44000 9.055
61.48000 4.961
61.52000 10.017
61.56000 10.079
61.60000 9.119
61.64000 6.182
61.68000 6.046
61.72000 14.097
61.76000 6.038
61.80000 9.154
61.84000 13.182
61.88000 8.945
61.92000 5.060
61.96000 6.005
62.00000 5.028
62.04000 6.054
62.08000 8.008
62.12000 3.994
62.16000 10.143
62.20000 10.106
62.24000 4.042
62.28000 5.038
62.32000 5.097
62.36000 10.071
62.40000 7.021
62.44000 5.021
62.48000 5.032
62.52000 9.037
62.56000 9.216
62.60000 14.079
62.64000 9.160
62.68000 6.106
62.72000 6.098
62.76000 8.167
62.80000 7.054
62.84000 8.184
62.88000 5.102
62.92000 11.222
62.96000 2.963
63.00000 3.988
63.04000 14.117
63.08000 5.030
63.12000 9.061
63.16000 4.063
63.20000 13.235
63.24000 12.214
63.28000 14.258
63.32000 2.026
63.36000 8.210
63.40000 7.063
63.44000 6.092
63.48000 7.171
63.52000 7.140
63.56000 8.264
63.60000 10.063
63.64000 6.071
63.68000 9.153
63.72000 14.237
63.76000 7.037
63.80000 7.135
63.84000 9.064
63.88000 6.143
63.92000 8.213
63.96000 11.137
64.00000 9.121
64.04000 6.191
64.08000 7.082
64.12000 7.092
64.16000 8.190
64.20000 7.092
64.24000 12.148
64.28000 8.067
64.32000 5.035
64.36000 10.132
64.40000 2.024
64.44000 9.220
64.48000 8.109
64.52000 13.234
64.56000 4.133
64.60000 6.161
64.64000 6.029
64.68000 6.156
64.72000 6.063
64.76000 4.012
64.80000 6.179
64.84000 8.162
64.88000 8.153
64.92000 5.092
64.96000 6.090
65.00000 6.071