File: XRD/XRD/11-09-2025/XY Data/01092025_BTO_omega_0_5_001_04_50-000_0-000.xy
20.00000 14.212
20.04000 17.169
20.08000 14.257
20.12000 12.190
20.16000 11.165
20.20000 9.132
20.24000 13.128
20.28000 11.161
20.32000 10.168
20.36000 13.133
20.40000 15.073
20.44000 13.175
20.48000 12.158
20.52000 13.136
20.56000 18.557
20.60000 16.168
20.64000 13.169
20.68000 11.024
20.72000 13.082
20.76000 10.114
20.80000 12.230
20.84000 11.017
20.88000 10.099
20.92000 15.379
20.96000 10.183
21.00000 17.339
21.04000 8.147
21.08000 12.141
21.12000 11.142
21.16000 17.285
21.20000 16.250
21.24000 17.328
21.28000 18.226
21.32000 7.162
21.36000 13.127
21.40000 11.084
21.44000 9.082
21.48000 8.192
21.52000 16.299
21.56000 18.359
21.60000 10.230
21.64000 8.078
21.68000 17.406
21.72000 11.101
21.76000 21.317
21.80000 15.232
21.84000 10.114
21.88000 15.146
21.92000 19.236
21.96000 16.219
22.00000 15.324
22.04000 16.093
22.08000 12.139
22.12000 8.123
22.16000 22.541
22.20000 18.360
22.24000 13.032
22.28000 8.160
22.32000 14.148
22.36000 17.166
22.40000 8.174
22.44000 11.994
22.48000 9.191
22.52000 14.271
22.56000 11.132
22.60000 13.237
22.64000 12.117
22.68000 18.241
22.72000 9.087
22.76000 7.138
22.80000 7.011
22.84000 11.200
22.88000 13.173
22.92000 15.256
22.96000 10.964
23.00000 18.168
23.04000 16.352
23.08000 13.093
23.12000 9.050
23.16000 10.173
23.20000 15.138
23.24000 8.048
23.28000 12.262
23.32000 9.022
23.36000 10.179
23.40000 14.207
23.44000 12.182
23.48000 17.347
23.52000 11.175
23.56000 15.294
23.60000 11.963
23.64000 12.119
23.68000 11.227
23.72000 17.222
23.76000 16.086
23.80000 14.250
23.84000 11.167
23.88000 8.140
23.92000 15.145
23.96000 9.105
24.00000 13.223
24.04000 14.320
24.08000 10.155
24.12000 16.449
24.16000 12.032
24.20000 11.183
24.24000 8.989
24.28000 18.220
24.32000 11.205
24.36000 17.211
24.40000 11.205
24.44000 15.219
24.48000 10.106
24.52000 16.273
24.56000 14.126
24.60000 11.094
24.64000 10.140
24.68000 16.246
24.72000 8.108
24.76000 11.178
24.80000 6.124
24.84000 13.196
24.88000 15.358
24.92000 16.338
24.96000 6.006
25.00000 14.341
25.04000 13.264
25.08000 9.025
25.12000 10.232
25.16000 14.143
25.20000 11.047
25.24000 8.225
25.28000 12.209
25.32000 9.342
25.36000 16.160
25.40000 14.316
25.44000 12.227
25.48000 13.082
25.52000 17.156
25.56000 15.298
25.60000 15.068
25.64000 18.156
25.68000 13.107
25.72000 10.103
25.76000 12.264
25.80000 15.223
25.84000 13.093
25.88000 13.039
25.92000 8.108
25.96000 9.085
26.00000 10.986
26.04000 14.208
26.08000 10.188
26.12000 16.263
26.16000 13.137
26.20000 15.131
26.24000 12.232
26.28000 11.318
26.32000 11.163
26.36000 12.272
26.40000 12.283
26.44000 15.114
26.48000 17.304
26.52000 10.248
26.56000 12.256
26.60000 20.307
26.64000 19.345
26.68000 14.238
26.72000 11.335
26.76000 16.191
26.80000 16.198
26.84000 19.265
26.88000 18.204
26.92000 13.270
26.96000 13.245
27.00000 18.098
27.04000 16.523
27.08000 15.177
27.12000 11.113
27.16000 14.302
27.20000 12.155
27.24000 13.124
27.28000 11.080
27.32000 10.197
27.36000 8.070
27.40000 12.225
27.44000 11.050
27.48000 12.274
27.52000 15.174
27.56000 8.033
27.60000 23.267
27.64000 14.177
27.68000 14.250
27.72000 12.231
27.76000 14.210
27.80000 13.349
27.84000 15.232
27.88000 12.200
27.92000 11.061
27.96000 10.169
28.00000 20.173
28.04000 12.229
28.08000 12.207
28.12000 15.470
28.16000 12.158
28.20000 9.164
28.24000 14.157
28.28000 8.152
28.32000 13.246
28.36000 11.069
28.40000 11.097
28.44000 9.068
28.48000 23.407
28.52000 10.194
28.56000 13.228
28.60000 16.175
28.64000 12.107
28.68000 16.244
28.72000 19.277
28.76000 13.999
28.80000 14.185
28.84000 16.417
28.88000 17.187
28.92000 21.264
28.96000 16.284
29.00000 9.123
29.04000 13.258
29.08000 17.205
29.12000 9.232
29.16000 11.060
29.20000 12.251
29.24000 10.104
29.28000 9.188
29.32000 10.016
29.36000 8.176
29.40000 15.430
29.44000 19.232
29.48000 11.104
29.52000 7.109
29.56000 15.241
29.60000 9.161
29.64000 7.079
29.68000 11.122
29.72000 2.983
29.76000 13.070
29.80000 4.077
29.84000 7.097
29.88000 13.090
29.92000 11.150
29.96000 9.186
30.00000 10.292
30.04000 4.139
30.08000 6.028
30.12000 11.247
30.16000 8.041
30.20000 8.129
30.24000 13.235
30.28000 7.041
30.32000 11.140
30.36000 7.093
30.40000 15.224
30.44000 7.129
30.48000 10.162
30.52000 10.136
30.56000 7.082
30.60000 12.192
30.64000 14.127
30.68000 9.192
30.72000 6.150
30.76000 11.293
30.80000 4.031
30.84000 15.245
30.88000 8.064
30.92000 6.998
30.96000 14.194
31.00000 9.155
31.04000 6.029
31.08000 10.124
31.12000 13.185
31.16000 8.099
31.20000 8.249
31.24000 10.119
31.28000 13.208
31.32000 8.140
31.36000 16.212
31.40000 13.244
31.44000 8.980
31.48000 14.146
31.52000 9.143
31.56000 4.096
31.60000 7.006
31.64000 4.015
31.68000 8.082
31.72000 7.088
31.76000 7.069
31.80000 9.252
31.84000 4.065
31.88000 9.140
31.92000 10.049
31.96000 16.072
32.00000 8.077
32.04000 3.066
32.08000 9.258
32.12000 4.084
32.16000 9.210
32.20000 4.126
32.24000 7.230
32.28000 10.100
32.32000 8.070
32.36000 7.084
32.40000 7.152
32.44000 5.100
32.48000 8.156
32.52000 4.056
32.56000 10.151
32.60000 8.182
32.64000 9.213
32.68000 11.170
32.72000 4.053
32.76000 2.078
32.80000 8.155
32.84000 5.115
32.88000 4.121
32.92000 5.073
32.96000 4.980
33.00000 7.069
33.04000 5.063
33.08000 4.998
33.12000 6.108
33.16000 9.137
33.20000 11.126
33.24000 8.102
33.28000 7.064
33.32000 6.122
33.36000 5.021
33.40000 8.062
33.44000 5.059
33.48000 7.159
33.52000 7.111
33.56000 8.096
33.60000 4.001
33.64000 5.112
33.68000 5.035
33.72000 3.034
33.76000 8.084
33.80000 9.079
33.84000 8.013
33.88000 5.042
33.92000 9.048
33.96000 5.046
34.00000 9.086
34.04000 4.141
34.08000 8.105
34.12000 3.979
34.16000 3.975
34.20000 6.078
34.24000 12.294
34.28000 11.139
34.32000 6.119
34.36000 6.059
34.40000 5.997
34.44000 3.104
34.48000 4.026
34.52000 5.990
34.56000 4.057
34.60000 4.013
34.64000 5.111
34.68000 7.218
34.72000 7.078
34.76000 6.150
34.80000 5.160
34.84000 7.076
34.88000 4.052
34.92000 4.022
34.96000 6.077
35.00000 3.024
35.04000 4.070
35.08000 4.079
35.12000 6.056
35.16000 3.035
35.20000 9.167
35.24000 5.020
35.28000 3.033
35.32000 3.099
35.36000 7.178
35.40000 12.222
35.44000 5.003
35.48000 3.072
35.52000 4.046
35.56000 5.026
35.60000 5.005
35.64000 9.073
35.68000 3.039
35.72000 2.031
35.76000 4.019
35.80000 5.012
35.84000 10.114
35.88000 3.038
35.92000 7.052
35.96000 4.022
36.00000 3.987
36.04000 5.031
36.08000 6.035
36.12000 6.139
36.16000 9.094
36.20000 7.105
36.24000 5.109
36.28000 2.053
36.32000 5.161
36.36000 4.027
36.40000 10.034
36.44000 7.125
36.48000 4.079
36.52000 9.225
36.56000 5.165
36.60000 5.061
36.64000 13.315
36.68000 4.069
36.72000 2.010
36.76000 7.114
36.80000 5.011
36.84000 5.041
36.88000 6.035
36.92000 3.081
36.96000 3.133
37.00000 2.973
37.04000 4.079
37.08000 3.077
37.12000 6.126
37.16000 4.038
37.20000 6.112
37.24000 4.065
37.28000 4.982
37.32000 2.085
37.36000 5.087
37.40000 4.055
37.44000 4.004
37.48000 6.147
37.52000 5.005
37.56000 4.976
37.60000 7.192
37.64000 0.997
37.68000 6.093
37.72000 7.995
37.76000 8.978
37.80000 11.050
37.84000 10.253
37.88000 6.200
37.92000 4.050
37.96000 8.109
38.00000 4.053
38.04000 8.020
38.08000 7.066
38.12000 9.180
38.16000 4.052
38.20000 7.287
38.24000 3.038
38.28000 5.053
38.32000 3.058
38.36000 8.249
38.40000 5.071
38.44000 4.071
38.48000 3.035
38.52000 3.040
38.56000 5.075
38.60000 9.103
38.64000 7.047
38.68000 3.234
38.72000 5.000
38.76000 6.964
38.80000 2.043
38.84000 13.007
38.88000 5.038
38.92000 4.022
38.96000 11.168
39.00000 8.028
39.04000 2.047
39.08000 2.040
39.12000 1.006
39.16000 5.102
39.20000 2.998
39.24000 7.063
39.28000 3.066
39.32000 5.023
39.36000 4.037
39.40000 6.014
39.44000 2.001
39.48000 5.087
39.52000 10.121
39.56000 12.081
39.60000 1.034
39.64000 5.111
39.68000 8.145
39.72000 6.050
39.76000 2.981
39.80000 6.075
39.84000 4.953
39.88000 6.083
39.92000 5.989
39.96000 3.065
40.00000 7.173
40.04000 4.076
40.08000 4.079
40.12000 8.139
40.16000 3.086
40.20000 3.043
40.24000 6.018
40.28000 7.947
40.32000 3.036
40.36000 7.021
40.40000 3.045
40.44000 3.013
40.48000 3.022
40.52000 4.137
40.56000 6.113
40.60000 6.119
40.64000 7.021
40.68000 5.066
40.72000 13.265
40.76000 7.101
40.80000 5.085
40.84000 4.003
40.88000 1.004
40.92000 6.020
40.96000 6.068
41.00000 10.054
41.04000 5.102
41.08000 0.991
41.12000 2.992
41.16000 3.064
41.20000 5.083
41.24000 3.022
41.28000 6.064
41.32000 5.961
41.36000 10.124
41.40000 7.994
41.44000 5.044
41.48000 5.022
41.52000 6.158
41.56000 0.992
41.60000 3.998
41.64000 4.050
41.68000 5.175
41.72000 2.045
41.76000 4.038
41.80000 4.080
41.84000 4.127
41.88000 7.235
41.92000 8.131
41.96000 4.981
42.00000 4.044
42.04000 7.992
42.08000 3.012
42.12000 3.980
42.16000 7.093
42.20000 4.000
42.24000 11.165
42.28000 4.066
42.32000 4.030
42.36000 6.080
42.40000 3.973
42.44000 9.154
42.48000 7.115
42.52000 6.073
42.56000 10.208
42.60000 9.201
42.64000 6.040
42.68000 5.050
42.72000 6.019
42.76000 6.067
42.80000 7.182
42.84000 2.051
42.88000 3.061
42.92000 5.060
42.96000 3.024
43.00000 7.062
43.04000 5.094
43.08000 3.047
43.12000 12.180
43.16000 6.951
43.20000 2.044
43.24000 8.247
43.28000 7.037
43.32000 3.076
43.36000 4.054
43.40000 2.048
43.44000 5.060
43.48000 4.073
43.52000 2.040
43.56000 5.066
43.60000 6.086
43.64000 4.036
43.68000 4.125
43.72000 4.076
43.76000 5.013
43.80000 5.039
43.84000 4.041
43.88000 4.143
43.92000 0.000
43.96000 6.072
44.00000 7.031
44.04000 8.134
44.08000 6.035
44.12000 7.173
44.16000 9.124
44.20000 7.105
44.24000 4.026
44.28000 3.998
44.32000 2.991
44.36000 3.119
44.40000 10.256
44.44000 11.203
44.48000 5.189
44.52000 5.061
44.56000 6.099
44.60000 5.063
44.64000 3.075
44.68000 5.970
44.72000 6.197
44.76000 1.980
44.80000 7.951
44.84000 2.079
44.88000 5.134
44.92000 6.030
44.96000 8.144
45.00000 4.983
45.04000 5.149
45.08000 4.068
45.12000 4.089
45.16000 4.008
45.20000 3.042
45.24000 6.021
45.28000 2.059
45.32000 7.195
45.36000 11.096
45.40000 3.021
45.44000 4.146
45.48000 7.154
45.52000 1.965
45.56000 7.168
45.60000 1.986
45.64000 4.089
45.68000 3.001
45.72000 2.075
45.76000 7.018
45.80000 6.054
45.84000 3.029
45.88000 9.275
45.92000 5.137
45.96000 0.974
46.00000 6.213
46.04000 5.189
46.08000 6.152
46.12000 5.961
46.16000 0.997
46.20000 5.008
46.24000 5.060
46.28000 4.085
46.32000 4.014
46.36000 3.043
46.40000 5.094
46.44000 5.042
46.48000 3.019
46.52000 10.141
46.56000 5.051
46.60000 3.037
46.64000 8.224
46.68000 2.991
46.72000 5.042
46.76000 6.054
46.80000 7.051
46.84000 12.111
46.88000 4.030
46.92000 3.067
46.96000 3.053
47.00000 6.004
47.04000 11.154
47.08000 4.028
47.12000 2.001
47.16000 5.033
47.20000 8.208
47.24000 5.047
47.28000 3.128
47.32000 7.186
47.36000 4.025
47.40000 11.146
47.44000 3.067
47.48000 4.123
47.52000 6.180
47.56000 5.030
47.60000 6.142
47.64000 2.983
47.68000 4.100
47.72000 3.023
47.76000 8.239
47.80000 0.999
47.84000 6.046
47.88000 3.099
47.92000 4.048
47.96000 5.085
48.00000 3.040
48.04000 5.987
48.08000 5.046
48.12000 6.054
48.16000 7.084
48.20000 4.025
48.24000 2.973
48.28000 5.043
48.32000 5.043
48.36000 1.058
48.40000 7.023
48.44000 6.145
48.48000 6.983
48.52000 5.007
48.56000 3.053
48.60000 4.040
48.64000 3.017
48.68000 4.033
48.72000 5.993
48.76000 6.047
48.80000 5.099
48.84000 6.086
48.88000 1.991
48.92000 4.106
48.96000 7.070
49.00000 4.023
49.04000 8.187
49.08000 5.087
49.12000 4.963
49.16000 5.075
49.20000 5.035
49.24000 5.096
49.28000 2.987
49.32000 7.124
49.36000 2.044
49.40000 5.149
49.44000 8.156
49.48000 3.001
49.52000 6.034
49.56000 12.179
49.60000 6.060
49.64000 3.097
49.68000 3.096
49.72000 3.052
49.76000 1.048
49.80000 5.143
49.84000 4.028
49.88000 1.973
49.92000 5.011
49.96000 6.011
50.00000 6.073
50.04000 3.002
50.08000 4.080
50.12000 1.008
50.16000 4.117
50.20000 3.006
50.24000 7.153
50.28000 6.121
50.32000 8.168
50.36000 7.094
50.40000 6.090
50.44000 0.991
50.48000 5.010
50.52000 2.087
50.56000 6.145
50.60000 7.088
50.64000 0.988
50.68000 8.068
50.72000 5.040
50.76000 4.007
50.80000 5.055
50.84000 5.079
50.88000 7.133
50.92000 5.157
50.96000 4.046
51.00000 4.162
51.04000 2.051
51.08000 5.106
51.12000 6.043
51.16000 5.209
51.20000 2.110
51.24000 2.004
51.28000 7.044
51.32000 5.124
51.36000 0.992
51.40000 3.057
51.44000 5.106
51.48000 7.007
51.52000 2.996
51.56000 5.049
51.60000 8.138
51.64000 8.030
51.68000 3.054
51.72000 3.090
51.76000 5.096
51.80000 6.123
51.84000 4.098
51.88000 5.050
51.92000 10.128
51.96000 6.059
52.00000 3.037
52.04000 8.092
52.08000 7.065
52.12000 6.174
52.16000 6.176
52.20000 6.107
52.24000 5.045
52.28000 6.146
52.32000 6.104
52.36000 6.103
52.40000 0.985
52.44000 5.024
52.48000 5.061
52.52000 4.086
52.56000 6.050
52.60000 2.079
52.64000 8.060
52.68000 8.108
52.72000 5.048
52.76000 4.044
52.80000 5.032
52.84000 4.035
52.88000 3.061
52.92000 6.053
52.96000 5.095
53.00000 4.137
53.04000 4.113
53.08000 3.097
53.12000 3.078
53.16000 5.058
53.20000 9.164
53.24000 3.092
53.28000 2.072
53.32000 7.110
53.36000 3.114
53.40000 4.998
53.44000 4.111
53.48000 4.044
53.52000 2.055
53.56000 2.049
53.60000 0.993
53.64000 10.138
53.68000 6.125
53.72000 6.066
53.76000 4.981
53.80000 4.074
53.84000 2.999
53.88000 3.049
53.92000 5.138
53.96000 2.011
54.00000 3.039
54.04000 5.192
54.08000 6.108
54.12000 5.107
54.16000 4.050
54.20000 2.069
54.24000 9.061
54.28000 3.007
54.32000 5.013
54.36000 4.121
54.40000 5.073
54.44000 4.028
54.48000 4.025
54.52000 3.005
54.56000 3.000
54.60000 6.022
54.64000 6.027
54.68000 2.061
54.72000 2.030
54.76000 4.018
54.80000 8.177
54.84000 0.000
54.88000 4.092
54.92000 6.043
54.96000 7.021
55.00000 0.000
55.04000 4.014
55.08000 1.984
55.12000 8.122
55.16000 4.076
55.20000 6.166
55.24000 6.046
55.28000 2.067
55.32000 7.055
55.36000 7.082
55.40000 0.979
55.44000 3.099
55.48000 8.027
55.52000 4.096
55.56000 7.023
55.60000 4.931
55.64000 3.992
55.68000 0.988
55.72000 2.033
55.76000 6.050
55.80000 3.000
55.84000 3.010
55.88000 2.005
55.92000 1.034
55.96000 5.021
56.00000 3.019
56.04000 3.031
56.08000 6.084
56.12000 3.095
56.16000 3.126
56.20000 4.189
56.24000 5.037
56.28000 4.081
56.32000 8.136
56.36000 3.035
56.40000 0.994
56.44000 3.093
56.48000 1.984
56.52000 3.040
56.56000 4.054
56.60000 4.002
56.64000 6.054
56.68000 4.047
56.72000 5.045
56.76000 2.983
56.80000 3.074
56.84000 1.017
56.88000 0.999
56.92000 3.047
56.96000 5.082
57.00000 3.083
57.04000 4.063
57.08000 3.081
57.12000 1.001
57.16000 2.073
57.20000 0.000
57.24000 3.077
57.28000 4.087
57.32000 1.044
57.36000 3.028
57.40000 0.000
57.44000 7.977
57.48000 1.006
57.52000 5.030
57.56000 3.067
57.60000 1.017
57.64000 3.085
57.68000 6.063
57.72000 4.021
57.76000 0.981
57.80000 5.076
57.84000 3.039
57.88000 3.013
57.92000 4.090
57.96000 2.018
58.00000 5.003
58.04000 5.129
58.08000 1.994
58.12000 0.983
58.16000 1.014
58.20000 2.099
58.24000 3.069
58.28000 1.013
58.32000 5.053
58.36000 7.122
58.40000 5.142
58.44000 2.034
58.48000 3.039
58.52000 2.022
58.56000 6.003
58.60000 5.094
58.64000 6.163
58.68000 5.066
58.72000 1.011
58.76000 3.063
58.80000 5.198
58.84000 2.052
58.88000 0.993
58.92000 0.998
58.96000 0.000
59.00000 3.030
59.04000 3.063
59.08000 1.998
59.12000 1.048
59.16000 0.993
59.20000 2.012
59.24000 3.061
59.28000 2.997
59.32000 2.049
59.36000 3.054
59.40000 4.073
59.44000 0.000
59.48000 0.996
59.52000 0.000
59.56000 3.065
59.60000 1.008
59.64000 0.973
59.68000 2.987
59.72000 3.041
59.76000 0.000
59.80000 3.054
59.84000 3.007
59.88000 4.154
59.92000 2.085
59.96000 3.003
60.00000 4.020
60.04000 4.106
60.08000 4.019
60.12000 4.076
60.16000 5.007
60.20000 2.027
60.24000 1.034
60.28000 1.014
60.32000 2.081
60.36000 1.010
60.40000 0.980
60.44000 1.984
60.48000 0.989
60.52000 6.051
60.56000 6.101
60.60000 1.054
60.64000 0.984
60.68000 4.088
60.72000 6.152
60.76000 1.007
60.80000 0.995
60.84000 0.990
60.88000 3.023
60.92000 1.983
60.96000 3.084
61.00000 3.027
61.04000 0.000
61.08000 3.119
61.12000 2.012
61.16000 0.000
61.20000 3.079
61.24000 1.003
61.28000 5.097
61.32000 2.004
61.36000 7.190
61.40000 1.988
61.44000 2.988
61.48000 1.037
61.52000 2.014
61.56000 5.013
61.60000 1.980
61.64000 2.038
61.68000 1.978
61.72000 1.005
61.76000 2.048
61.80000 2.038
61.84000 1.035
61.88000 3.987
61.92000 6.087
61.96000 2.078
62.00000 7.102
62.04000 2.008
62.08000 5.173
62.12000 3.004
62.16000 6.099
62.20000 4.031
62.24000 4.096
62.28000 1.007
62.32000 4.055
62.36000 2.018
62.40000 4.012
62.44000 3.024
62.48000 2.045
62.52000 0.985
62.56000 6.094
62.60000 3.001
62.64000 8.058
62.68000 1.032
62.72000 1.042
62.76000 4.038
62.80000 1.082
62.84000 1.999
62.88000 6.034
62.92000 3.987
62.96000 2.024
63.00000 3.040
63.04000 6.143
63.08000 8.061
63.12000 0.000
63.16000 1.007
63.20000 3.061
63.24000 2.031
63.28000 2.002
63.32000 0.974
63.36000 1.966
63.40000 5.279
63.44000 4.061
63.48000 3.001
63.52000 1.037
63.56000 3.979
63.60000 2.050
63.64000 4.082
63.68000 1.994
63.72000 4.047
63.76000 3.001
63.80000 1.999
63.84000 1.040
63.88000 3.021
63.92000 2.978
63.96000 2.046
64.00000 3.017
64.04000 4.042
64.08000 0.000
64.12000 2.043
64.16000 2.044
64.20000 0.981
64.24000 0.000
64.28000 0.000
64.32000 1.949
64.36000 1.969
64.40000 3.038
64.44000 1.962
64.48000 4.103
64.52000 0.000
64.56000 1.025
64.60000 1.995
64.64000 2.047
64.68000 4.044
64.72000 4.065
64.76000 4.099
64.80000 1.998
64.84000 2.055
64.88000 5.085
64.92000 6.113
64.96000 4.056
65.00000 3.047