File: XRD/XRD/11-09-2025/XY Data/01092025_BTO_omega_1_001_39_-22-524_10-847.xy
20.00000 19.097
20.04000 16.166
20.08000 15.335
20.12000 16.091
20.16000 18.159
20.20000 24.207
20.24000 17.246
20.28000 15.168
20.32000 14.991
20.36000 16.124
20.40000 21.271
20.44000 19.269
20.48000 18.302
20.52000 20.235
20.56000 17.309
20.60000 15.131
20.64000 22.371
20.68000 20.137
20.72000 19.215
20.76000 15.173
20.80000 21.161
20.84000 16.164
20.88000 23.501
20.92000 10.141
20.96000 18.224
21.00000 12.226
21.04000 18.344
21.08000 14.227
21.12000 19.411
21.16000 25.397
21.20000 16.239
21.24000 22.272
21.28000 18.245
21.32000 22.320
21.36000 13.211
21.40000 22.547
21.44000 22.303
21.48000 25.248
21.52000 15.293
21.56000 19.316
21.60000 22.310
21.64000 20.123
21.68000 21.276
21.72000 22.220
21.76000 22.435
21.80000 20.393
21.84000 21.328
21.88000 14.171
21.92000 19.325
21.96000 21.094
22.00000 19.015
22.04000 19.380
22.08000 19.231
22.12000 27.407
22.16000 19.084
22.20000 25.393
22.24000 16.968
22.28000 27.340
22.32000 21.423
22.36000 19.163
22.40000 20.287
22.44000 29.251
22.48000 25.358
22.52000 14.243
22.56000 21.177
22.60000 17.269
22.64000 31.385
22.68000 21.323
22.72000 24.259
22.76000 23.234
22.80000 24.290
22.84000 29.404
22.88000 17.211
22.92000 16.126
22.96000 14.328
23.00000 19.315
23.04000 29.473
23.08000 23.345
23.12000 32.553
23.16000 25.162
23.20000 23.539
23.24000 28.560
23.28000 22.440
23.32000 26.229
23.36000 32.268
23.40000 19.224
23.44000 17.303
23.48000 24.468
23.52000 22.256
23.56000 26.403
23.60000 28.327
23.64000 21.473
23.68000 30.427
23.72000 36.290
23.76000 21.278
23.80000 22.320
23.84000 23.153
23.88000 24.357
23.92000 23.326
23.96000 22.331
24.00000 33.436
24.04000 18.420
24.08000 19.264
24.12000 22.299
24.16000 30.686
24.20000 19.304
24.24000 34.414
24.28000 22.191
24.32000 34.610
24.36000 22.375
24.40000 31.164
24.44000 37.657
24.48000 35.559
24.52000 24.259
24.56000 38.296
24.60000 26.414
24.64000 17.102
24.68000 40.463
24.72000 40.549
24.76000 28.510
24.80000 23.252
24.84000 20.243
24.88000 27.551
24.92000 25.342
24.96000 29.311
25.00000 24.327
25.04000 37.367
25.08000 29.198
25.12000 24.457
25.16000 31.608
25.20000 32.428
25.24000 24.477
25.28000 27.317
25.32000 37.437
25.36000 28.350
25.40000 30.518
25.44000 28.442
25.48000 33.418
25.52000 34.210
25.56000 34.345
25.60000 38.268
25.64000 32.470
25.68000 40.534
25.72000 30.381
25.76000 38.646
25.80000 50.662
25.84000 40.507
25.88000 30.497
25.92000 35.446
25.96000 35.420
26.00000 38.430
26.04000 34.255
26.08000 37.299
26.12000 32.461
26.16000 28.191
26.20000 36.473
26.24000 34.496
26.28000 45.490
26.32000 38.476
26.36000 40.388
26.40000 42.382
26.44000 46.551
26.48000 45.567
26.52000 39.420
26.56000 47.886
26.60000 39.305
26.64000 31.310
26.68000 35.450
26.72000 45.460
26.76000 45.803
26.80000 48.555
26.84000 37.523
26.88000 33.482
26.92000 43.415
26.96000 47.491
27.00000 48.707
27.04000 42.555
27.08000 44.779
27.12000 41.318
27.16000 38.624
27.20000 49.501
27.24000 38.360
27.28000 50.406
27.32000 41.707
27.36000 30.225
27.40000 54.777
27.44000 42.510
27.48000 41.810
27.52000 40.503
27.56000 38.256
27.60000 43.912
27.64000 45.296
27.68000 26.384
27.72000 38.457
27.76000 42.626
27.80000 41.196
27.84000 37.525
27.88000 43.535
27.92000 46.806
27.96000 33.580
28.00000 51.901
28.04000 45.529
28.08000 39.678
28.12000 42.676
28.16000 41.613
28.20000 42.884
28.24000 47.846
28.28000 45.779
28.32000 42.664
28.36000 46.855
28.40000 41.705
28.44000 46.592
28.48000 30.453
28.52000 31.259
28.56000 43.382
28.60000 32.466
28.64000 43.524
28.68000 27.352
28.72000 40.739
28.76000 35.589
28.80000 40.392
28.84000 44.498
28.88000 33.600
28.92000 41.609
28.96000 35.388
29.00000 46.580
29.04000 43.560
29.08000 26.462
29.12000 39.433
29.16000 38.499
29.20000 28.099
29.24000 42.457
29.28000 38.336
29.32000 45.567
29.36000 34.499
29.40000 32.247
29.44000 34.394
29.48000 34.369
29.52000 27.468
29.56000 29.487
29.60000 37.600
29.64000 32.352
29.68000 35.498
29.72000 40.347
29.76000 20.333
29.80000 34.602
29.84000 22.342
29.88000 36.632
29.92000 35.222
29.96000 31.645
30.00000 32.278
30.04000 36.320
30.08000 23.355
30.12000 35.479
30.16000 23.068
30.20000 27.338
30.24000 29.366
30.28000 30.086
30.32000 33.522
30.36000 26.190
30.40000 24.324
30.44000 36.447
30.48000 30.354
30.52000 24.481
30.56000 29.459
30.60000 23.114
30.64000 30.488
30.68000 34.545
30.72000 26.365
30.76000 23.252
30.80000 27.163
30.84000 23.123
30.88000 20.417
30.92000 25.303
30.96000 29.477
31.00000 29.534
31.04000 18.106
31.08000 27.448
31.12000 19.192
31.16000 24.229
31.20000 36.497
31.24000 21.215
31.28000 28.569
31.32000 31.193
31.36000 19.229
31.40000 21.339
31.44000 22.171
31.48000 20.178
31.52000 21.230
31.56000 30.318
31.60000 25.227
31.64000 18.999
31.68000 13.010
31.72000 22.040
31.76000 27.422
31.80000 17.239
31.84000 27.176
31.88000 22.388
31.92000 28.193
31.96000 34.520
32.00000 20.360
32.04000 26.311
32.08000 23.292
32.12000 25.462
32.16000 25.294
32.20000 24.379
32.24000 22.142
32.28000 32.495
32.32000 26.346
32.36000 36.261
32.40000 27.356
32.44000 19.353
32.48000 19.437
32.52000 21.117
32.56000 23.432
32.60000 24.348
32.64000 35.454
32.68000 23.172
32.72000 14.133
32.76000 22.219
32.80000 14.125
32.84000 12.181
32.88000 21.447
32.92000 21.325
32.96000 28.387
33.00000 12.911
33.04000 28.150
33.08000 21.144
33.12000 21.265
33.16000 12.116
33.20000 18.404
33.24000 21.059
33.28000 13.112
33.32000 19.291
33.36000 25.278
33.40000 23.169
33.44000 18.578
33.48000 12.210
33.52000 11.130
33.56000 11.155
33.60000 19.428
33.64000 23.305
33.68000 6.986
33.72000 12.270
33.76000 16.201
33.80000 12.118
33.84000 14.078
33.88000 19.100
33.92000 19.292
33.96000 9.197
34.00000 16.186
34.04000 13.371
34.08000 22.393
34.12000 16.061
34.16000 14.075
34.20000 15.318
34.24000 17.340
34.28000 7.203
34.32000 15.203
34.36000 17.277
34.40000 14.166
34.44000 16.198
34.48000 15.199
34.52000 19.352
34.56000 14.182
34.60000 19.307
34.64000 19.326
34.68000 22.291
34.72000 11.195
34.76000 13.151
34.80000 14.224
34.84000 13.181
34.88000 4.021
34.92000 14.206
34.96000 11.195
35.00000 20.283
35.04000 11.120
35.08000 21.259
35.12000 11.063
35.16000 13.246
35.20000 18.237
35.24000 14.193
35.28000 10.125
35.32000 17.319
35.36000 16.345
35.40000 14.111
35.44000 19.310
35.48000 12.205
35.52000 10.181
35.56000 11.205
35.60000 16.026
35.64000 14.273
35.68000 18.587
35.72000 13.120
35.76000 15.209
35.80000 12.238
35.84000 14.151
35.88000 12.112
35.92000 18.264
35.96000 14.195
36.00000 17.254
36.04000 12.072
36.08000 11.177
36.12000 13.166
36.16000 12.247
36.20000 21.448
36.24000 11.065
36.28000 13.243
36.32000 16.104
36.36000 18.368
36.40000 13.047
36.44000 13.131
36.48000 15.032
36.52000 17.298
36.56000 19.222
36.60000 14.166
36.64000 19.398
36.68000 14.071
36.72000 12.116
36.76000 13.228
36.80000 16.371
36.84000 14.161
36.88000 13.185
36.92000 16.263
36.96000 17.081
37.00000 11.162
37.04000 14.120
37.08000 19.176
37.12000 16.429
37.16000 15.194
37.20000 18.238
37.24000 13.126
37.28000 17.159
37.32000 12.238
37.36000 13.268
37.40000 17.222
37.44000 12.212
37.48000 11.035
37.52000 18.320
37.56000 18.185
37.60000 16.200
37.64000 16.043
37.68000 16.321
37.72000 10.078
37.76000 13.104
37.80000 21.186
37.84000 21.174
37.88000 22.291
37.92000 11.081
37.96000 23.490
38.00000 15.224
38.04000 12.211
38.08000 14.127
38.12000 13.261
38.16000 11.171
38.20000 7.020
38.24000 15.334
38.28000 12.086
38.32000 15.045
38.36000 19.262
38.40000 14.046
38.44000 20.153
38.48000 28.314
38.52000 19.320
38.56000 17.346
38.60000 14.301
38.64000 12.137
38.68000 20.223
38.72000 14.159
38.76000 19.220
38.80000 14.096
38.84000 11.998
38.88000 14.168
38.92000 12.252
38.96000 20.285
39.00000 16.172
39.04000 23.247
39.08000 17.290
39.12000 17.255
39.16000 20.394
39.20000 19.111
39.24000 19.356
39.28000 15.138
39.32000 23.078
39.36000 9.129
39.40000 10.143
39.44000 16.071
39.48000 17.158
39.52000 27.281
39.56000 17.088
39.60000 10.177
39.64000 28.434
39.68000 22.221
39.72000 16.273
39.76000 9.030
39.80000 22.373
39.84000 18.312
39.88000 17.259
39.92000 20.345
39.96000 26.372
40.00000 16.339
40.04000 12.165
40.08000 12.240
40.12000 12.260
40.16000 18.209
40.20000 17.147
40.24000 16.168
40.28000 15.126
40.32000 22.369
40.36000 26.184
40.40000 10.335
40.44000 17.088
40.48000 15.242
40.52000 19.299
40.56000 16.222
40.60000 20.087
40.64000 15.163
40.68000 15.268
40.72000 13.219
40.76000 15.110
40.80000 13.127
40.84000 20.331
40.88000 16.201
40.92000 12.090
40.96000 15.117
41.00000 19.259
41.04000 20.055
41.08000 16.391
41.12000 27.372
41.16000 16.108
41.20000 26.322
41.24000 16.030
41.28000 14.214
41.32000 13.058
41.36000 15.107
41.40000 28.418
41.44000 18.282
41.48000 9.196
41.52000 19.189
41.56000 16.314
41.60000 25.595
41.64000 19.330
41.68000 14.106
41.72000 13.288
41.76000 19.263
41.80000 15.293
41.84000 24.229
41.88000 15.089
41.92000 16.267
41.96000 15.102
42.00000 9.027
42.04000 14.344
42.08000 15.135
42.12000 25.289
42.16000 25.613
42.20000 19.224
42.24000 17.169
42.28000 19.285
42.32000 22.162
42.36000 15.117
42.40000 11.078
42.44000 14.216
42.48000 14.369
42.52000 23.313
42.56000 14.104
42.60000 14.337
42.64000 9.141
42.68000 18.233
42.72000 15.249
42.76000 18.352
42.80000 17.342
42.84000 18.008
42.88000 19.295
42.92000 13.046
42.96000 17.215
43.00000 16.011
43.04000 19.127
43.08000 13.256
43.12000 16.361
43.16000 21.214
43.20000 11.254
43.24000 18.213
43.28000 16.367
43.32000 20.233
43.36000 21.172
43.40000 20.157
43.44000 16.209
43.48000 13.154
43.52000 16.081
43.56000 15.104
43.60000 9.064
43.64000 21.279
43.68000 11.175
43.72000 16.141
43.76000 18.278
43.80000 11.077
43.84000 16.336
43.88000 11.095
43.92000 15.149
43.96000 14.176
44.00000 13.343
44.04000 17.262
44.08000 7.130
44.12000 14.083
44.16000 19.242
44.20000 15.122
44.24000 26.380
44.28000 19.080
44.32000 13.259
44.36000 14.159
44.40000 17.340
44.44000 21.144
44.48000 20.291
44.52000 12.153
44.56000 15.256
44.60000 15.142
44.64000 11.232
44.68000 16.249
44.72000 12.229
44.76000 18.277
44.80000 16.261
44.84000 15.437
44.88000 12.148
44.92000 13.155
44.96000 14.123
45.00000 17.264
45.04000 16.344
45.08000 22.109
45.12000 15.089
45.16000 14.272
45.20000 16.118
45.24000 17.262
45.28000 10.039
45.32000 18.268
45.36000 19.155
45.40000 20.145
45.44000 24.178
45.48000 11.151
45.52000 17.276
45.56000 14.155
45.60000 11.152
45.64000 19.388
45.68000 11.998
45.72000 6.215
45.76000 17.187
45.80000 12.280
45.84000 17.338
45.88000 16.098
45.92000 11.141
45.96000 14.128
46.00000 20.218
46.04000 12.121
46.08000 17.260
46.12000 16.152
46.16000 16.150
46.20000 20.266
46.24000 18.284
46.28000 14.287
46.32000 21.408
46.36000 10.093
46.40000 25.418
46.44000 21.348
46.48000 17.129
46.52000 13.094
46.56000 15.234
46.60000 22.486
46.64000 14.275
46.68000 23.556
46.72000 17.181
46.76000 15.281
46.80000 13.208
46.84000 11.212
46.88000 16.162
46.92000 21.310
46.96000 20.455
47.00000 14.243
47.04000 13.179
47.08000 15.075
47.12000 17.297
47.16000 14.039
47.20000 15.262
47.24000 20.311
47.28000 19.330
47.32000 7.064
47.36000 14.260
47.40000 18.317
47.44000 12.179
47.48000 25.277
47.52000 13.394
47.56000 14.046
47.60000 20.166
47.64000 18.240
47.68000 19.278
47.72000 20.200
47.76000 17.041
47.80000 28.535
47.84000 15.132
47.88000 12.069
47.92000 11.285
47.96000 15.017
48.00000 13.467
48.04000 18.179
48.08000 16.251
48.12000 21.031
48.16000 15.123
48.20000 18.228
48.24000 18.207
48.28000 16.258
48.32000 12.146
48.36000 24.404
48.40000 19.211
48.44000 17.167
48.48000 16.176
48.52000 14.033
48.56000 15.357
48.60000 13.144
48.64000 17.181
48.68000 19.235
48.72000 13.113
48.76000 14.444
48.80000 20.142
48.84000 17.275
48.88000 15.177
48.92000 15.152
48.96000 16.346
49.00000 17.214
49.04000 11.065
49.08000 15.201
49.12000 13.010
49.16000 17.165
49.20000 12.189
49.24000 15.142
49.28000 22.276
49.32000 10.095
49.36000 14.112
49.40000 18.105
49.44000 12.291
49.48000 18.134
49.52000 22.311
49.56000 17.185
49.60000 15.257
49.64000 11.170
49.68000 19.132
49.72000 17.377
49.76000 14.115
49.80000 11.104
49.84000 15.129
49.88000 13.220
49.92000 16.324
49.96000 13.184
50.00000 16.285
50.04000 15.206
50.08000 19.260
50.12000 16.132
50.16000 19.283
50.20000 15.145
50.24000 17.223
50.28000 10.135
50.32000 15.152
50.36000 18.436
50.40000 16.266
50.44000 15.124
50.48000 10.105
50.52000 15.091
50.56000 20.426
50.60000 10.173
50.64000 17.343
50.68000 12.121
50.72000 9.104
50.76000 16.106
50.80000 17.055
50.84000 16.241
50.88000 10.134
50.92000 12.195
50.96000 14.246
51.00000 12.225
51.04000 18.278
51.08000 11.195
51.12000 12.018
51.16000 10.124
51.20000 21.155
51.24000 11.300
51.28000 10.140
51.32000 15.064
51.36000 17.252
51.40000 12.198
51.44000 7.014
51.48000 17.362
51.52000 9.174
51.56000 13.325
51.60000 25.292
51.64000 11.147
51.68000 10.073
51.72000 13.246
51.76000 14.214
51.80000 16.322
51.84000 12.090
51.88000 20.252
51.92000 12.219
51.96000 16.370
52.00000 16.145
52.04000 17.218
52.08000 12.158
52.12000 12.206
52.16000 14.071
52.20000 16.288
52.24000 13.139
52.28000 14.163
52.32000 10.228
52.36000 13.158
52.40000 12.205
52.44000 14.187
52.48000 14.290
52.52000 17.084
52.56000 11.227
52.60000 13.267
52.64000 20.250
52.68000 13.259
52.72000 16.420
52.76000 11.172
52.80000 13.081
52.84000 13.203
52.88000 17.199
52.92000 17.219
52.96000 19.103
53.00000 10.182
53.04000 15.162
53.08000 9.180
53.12000 15.153
53.16000 12.158
53.20000 12.205
53.24000 11.327
53.28000 10.212
53.32000 14.207
53.36000 17.135
53.40000 14.297
53.44000 11.961
53.48000 13.206
53.52000 17.264
53.56000 16.234
53.60000 10.222
53.64000 10.136
53.68000 13.281
53.72000 8.206
53.76000 15.228
53.80000 13.170
53.84000 8.259
53.88000 14.270
53.92000 11.072
53.96000 17.194
54.00000 13.248
54.04000 9.005
54.08000 10.150
54.12000 11.995
54.16000 17.114
54.20000 22.143
54.24000 12.240
54.28000 16.234
54.32000 9.128
54.36000 12.065
54.40000 8.100
54.44000 11.155
54.48000 14.279
54.52000 16.142
54.56000 13.240
54.60000 10.092
54.64000 12.206
54.68000 13.119
54.72000 15.246
54.76000 10.272
54.80000 15.156
54.84000 11.067
54.88000 8.262
54.92000 8.100
54.96000 18.418
55.00000 10.167
55.04000 9.211
55.08000 8.202
55.12000 10.213
55.16000 15.090
55.20000 9.000
55.24000 14.160
55.28000 15.200
55.32000 9.069
55.36000 9.025
55.40000 12.208
55.44000 13.142
55.48000 14.096
55.52000 12.016
55.56000 18.250
55.60000 8.198
55.64000 10.062
55.68000 11.168
55.72000 7.108
55.76000 12.239
55.80000 12.171
55.84000 10.181
55.88000 14.226
55.92000 14.065
55.96000 16.119
56.00000 19.079
56.04000 15.202
56.08000 13.158
56.12000 11.038
56.16000 10.052
56.20000 11.177
56.24000 9.151
56.28000 10.126
56.32000 14.136
56.36000 13.083
56.40000 10.214
56.44000 6.073
56.48000 9.204
56.52000 15.104
56.56000 11.223
56.60000 13.091
56.64000 10.106
56.68000 13.293
56.72000 6.060
56.76000 11.227
56.80000 17.105
56.84000 14.388
56.88000 4.033
56.92000 11.084
56.96000 13.297
57.00000 18.208
57.04000 8.164
57.08000 9.079
57.12000 11.209
57.16000 16.192
57.20000 13.240
57.24000 16.082
57.28000 12.159
57.32000 7.082
57.36000 18.256
57.40000 17.423
57.44000 13.066
57.48000 10.022
57.52000 9.192
57.56000 18.208
57.60000 11.129
57.64000 12.048
57.68000 15.303
57.72000 14.039
57.76000 15.050
57.80000 12.046
57.84000 13.208
57.88000 12.121
57.92000 10.135
57.96000 12.230
58.00000 8.072
58.04000 12.070
58.08000 12.149
58.12000 15.185
58.16000 13.339
58.20000 20.475
58.24000 14.273
58.28000 8.051
58.32000 10.071
58.36000 10.201
58.40000 8.094
58.44000 11.094
58.48000 11.152
58.52000 11.968
58.56000 8.090
58.60000 9.226
58.64000 12.189
58.68000 6.091
58.72000 7.063
58.76000 8.144
58.80000 13.143
58.84000 8.109
58.88000 13.204
58.92000 8.312
58.96000 16.199
59.00000 6.039
59.04000 15.133
59.08000 12.087
59.12000 5.075
59.16000 13.070
59.20000 12.148
59.24000 8.109
59.28000 11.094
59.32000 11.190
59.36000 13.179
59.40000 9.100
59.44000 8.051
59.48000 14.102
59.52000 14.196
59.56000 9.147
59.60000 12.065
59.64000 11.094
59.68000 6.114
59.72000 21.499
59.76000 8.138
59.80000 13.163
59.84000 11.113
59.88000 10.027
59.92000 14.993
59.96000 8.132
60.00000 11.085
60.04000 5.039
60.08000 14.190
60.12000 10.121
60.16000 10.121
60.20000 18.143
60.24000 7.030
60.28000 14.237
60.32000 6.037
60.36000 13.153
60.40000 10.065
60.44000 5.047
60.48000 10.073
60.52000 12.165
60.56000 12.378
60.60000 6.144
60.64000 9.053
60.68000 13.127
60.72000 6.115
60.76000 7.032
60.80000 5.993
60.84000 14.048
60.88000 7.010
60.92000 15.072
60.96000 10.989
61.00000 9.062
61.04000 3.079
61.08000 10.243
61.12000 10.126
61.16000 9.198
61.20000 13.119
61.24000 8.137
61.28000 9.173
61.32000 10.132
61.36000 8.974
61.40000 10.229
61.44000 12.196
61.48000 11.023
61.52000 8.088
61.56000 10.127
61.60000 14.095
61.64000 8.045
61.68000 6.075
61.72000 13.114
61.76000 7.071
61.80000 9.136
61.84000 12.231
61.88000 8.071
61.92000 5.997
61.96000 3.011
62.00000 11.007
62.04000 9.157
62.08000 11.186
62.12000 6.066
62.16000 4.016
62.20000 6.976
62.24000 7.090
62.28000 5.107
62.32000 7.010
62.36000 18.215
62.40000 16.253
62.44000 8.136
62.48000 12.195
62.52000 21.188
62.56000 11.201
62.60000 6.021
62.64000 9.174
62.68000 14.310
62.72000 8.140
62.76000 3.079
62.80000 10.286
62.84000 12.925
62.88000 7.001
62.92000 9.135
62.96000 9.192
63.00000 13.199
63.04000 7.146
63.08000 5.995
63.12000 9.104
63.16000 10.107
63.20000 10.130
63.24000 6.072
63.28000 8.009
63.32000 6.164
63.36000 6.032
63.40000 10.172
63.44000 9.129
63.48000 10.075
63.52000 7.157
63.56000 8.138
63.60000 13.127
63.64000 7.035
63.68000 8.267
63.72000 7.143
63.76000 6.164
63.80000 10.136
63.84000 2.013
63.88000 8.193
63.92000 10.183
63.96000 8.000
64.00000 13.106
64.04000 5.104
64.08000 9.076
64.12000 9.076
64.16000 8.079
64.20000 9.171
64.24000 6.100
64.28000 12.262
64.32000 10.101
64.36000 13.206
64.40000 12.252
64.44000 6.977
64.48000 7.127
64.52000 7.151
64.56000 6.079
64.60000 11.143
64.64000 12.176
64.68000 11.184
64.72000 1.028
64.76000 10.056
64.80000 11.189
64.84000 9.087
64.88000 14.276
64.92000 7.120
64.96000 10.047
65.00000 9.144