File: XRD/XRD/11-09-2025/XY Data/01092025_BTO_omega_1_001_08_-23-381_-29-319.xy
20.00000 149.573
20.04000 142.465
20.08000 150.076
20.12000 143.797
20.16000 103.846
20.20000 139.158
20.24000 141.336
20.28000 138.100
20.32000 131.828
20.36000 123.644
20.40000 160.926
20.44000 107.174
20.48000 126.414
20.52000 132.228
20.56000 104.143
20.60000 125.883
20.64000 136.550
20.68000 107.103
20.72000 106.752
20.76000 118.167
20.80000 110.578
20.84000 122.860
20.88000 111.020
20.92000 110.824
20.96000 108.163
21.00000 111.883
21.04000 105.096
21.08000 103.100
21.12000 98.297
21.16000 115.371
21.20000 101.002
21.24000 82.560
21.28000 82.976
21.32000 96.942
21.36000 113.347
21.40000 96.010
21.44000 106.149
21.48000 108.761
21.52000 80.912
21.56000 89.789
21.60000 75.845
21.64000 73.115
21.68000 78.558
21.72000 84.148
21.76000 80.576
21.80000 72.860
21.84000 68.947
21.88000 62.646
21.92000 70.638
21.96000 62.655
22.00000 64.611
22.04000 57.413
22.08000 72.915
22.12000 63.557
22.16000 68.196
22.20000 80.602
22.24000 58.760
22.28000 63.788
22.32000 73.702
22.36000 56.374
22.40000 56.532
22.44000 57.584
22.48000 45.468
22.52000 58.682
22.56000 66.661
22.60000 52.475
22.64000 50.573
22.68000 53.627
22.72000 55.722
22.76000 55.612
22.80000 52.521
22.84000 53.602
22.88000 50.473
22.92000 47.628
22.96000 58.648
23.00000 32.341
23.04000 40.573
23.08000 43.610
23.12000 42.863
23.16000 34.244
23.20000 47.470
23.24000 45.558
23.28000 35.628
23.32000 42.554
23.36000 40.221
23.40000 31.252
23.44000 37.398
23.48000 40.461
23.52000 33.359
23.56000 35.316
23.60000 26.320
23.64000 31.187
23.68000 33.394
23.72000 30.276
23.76000 25.036
23.80000 33.383
23.84000 21.282
23.88000 33.516
23.92000 36.465
23.96000 32.483
24.00000 35.250
24.04000 32.450
24.08000 26.339
24.12000 23.462
24.16000 27.250
24.20000 27.382
24.24000 20.313
24.28000 27.370
24.32000 26.127
24.36000 25.237
24.40000 32.249
24.44000 25.175
24.48000 31.211
24.52000 23.338
24.56000 27.271
24.60000 29.249
24.64000 22.009
24.68000 31.270
24.72000 25.262
24.76000 22.315
24.80000 26.594
24.84000 24.212
24.88000 24.252
24.92000 25.436
24.96000 17.205
25.00000 20.218
25.04000 18.337
25.08000 20.166
25.12000 16.227
25.16000 18.208
25.20000 15.188
25.24000 18.110
25.28000 18.279
25.32000 18.161
25.36000 23.230
25.40000 18.241
25.44000 13.235
25.48000 19.328
25.52000 22.465
25.56000 17.134
25.60000 12.143
25.64000 18.281
25.68000 8.129
25.72000 10.179
25.76000 10.153
25.80000 17.202
25.84000 15.086
25.88000 15.135
25.92000 19.280
25.96000 17.234
26.00000 17.265
26.04000 10.246
26.08000 14.099
26.12000 21.332
26.16000 15.211
26.20000 15.246
26.24000 17.237
26.28000 17.091
26.32000 10.202
26.36000 22.248
26.40000 15.300
26.44000 15.156
26.48000 17.449
26.52000 12.110
26.56000 16.189
26.60000 15.084
26.64000 23.277
26.68000 13.213
26.72000 11.966
26.76000 8.144
26.80000 16.273
26.84000 14.176
26.88000 12.223
26.92000 15.237
26.96000 13.148
27.00000 13.038
27.04000 14.198
27.08000 10.139
27.12000 19.305
27.16000 8.034
27.20000 19.262
27.24000 11.070
27.28000 13.151
27.32000 10.057
27.36000 9.048
27.40000 14.264
27.44000 10.061
27.48000 10.087
27.52000 12.168
27.56000 16.251
27.60000 11.145
27.64000 13.139
27.68000 14.104
27.72000 17.333
27.76000 11.266
27.80000 14.130
27.84000 16.140
27.88000 10.011
27.92000 8.097
27.96000 10.265
28.00000 5.119
28.04000 8.049
28.08000 7.029
28.12000 11.123
28.16000 9.246
28.20000 10.061
28.24000 8.258
28.28000 8.043
28.32000 8.121
28.36000 5.114
28.40000 11.290
28.44000 15.183
28.48000 4.081
28.52000 4.050
28.56000 10.100
28.60000 5.120
28.64000 12.139
28.68000 16.099
28.72000 17.240
28.76000 6.082
28.80000 9.183
28.84000 10.167
28.88000 4.976
28.92000 13.073
28.96000 14.192
29.00000 4.021
29.04000 11.168
29.08000 11.174
29.12000 12.086
29.16000 11.171
29.20000 8.095
29.24000 10.244
29.28000 11.229
29.32000 16.400
29.36000 9.261
29.40000 15.068
29.44000 12.093
29.48000 8.165
29.52000 7.113
29.56000 14.334
29.60000 15.182
29.64000 10.083
29.68000 10.142
29.72000 8.126
29.76000 5.140
29.80000 8.099
29.84000 12.151
29.88000 6.040
29.92000 8.128
29.96000 12.183
30.00000 13.296
30.04000 4.100
30.08000 8.033
30.12000 12.111
30.16000 9.198
30.20000 5.083
30.24000 14.090
30.28000 11.241
30.32000 5.046
30.36000 7.160
30.40000 7.959
30.44000 7.149
30.48000 12.194
30.52000 8.194
30.56000 6.117
30.60000 7.100
30.64000 6.125
30.68000 6.086
30.72000 10.031
30.76000 4.941
30.80000 8.022
30.84000 4.984
30.88000 6.083
30.92000 5.060
30.96000 9.163
31.00000 7.139
31.04000 4.100
31.08000 7.174
31.12000 15.170
31.16000 6.062
31.20000 12.172
31.24000 9.014
31.28000 9.214
31.32000 6.981
31.36000 11.275
31.40000 3.995
31.44000 7.006
31.48000 9.252
31.52000 10.217
31.56000 11.337
31.60000 9.988
31.64000 10.226
31.68000 10.116
31.72000 12.232
31.76000 12.161
31.80000 8.101
31.84000 8.124
31.88000 10.123
31.92000 4.039
31.96000 9.168
32.00000 10.090
32.04000 9.122
32.08000 6.125
32.12000 7.993
32.16000 14.123
32.20000 5.028
32.24000 16.214
32.28000 4.027
32.32000 7.017
32.36000 3.011
32.40000 13.177
32.44000 9.192
32.48000 2.081
32.52000 9.150
32.56000 8.101
32.60000 7.090
32.64000 5.047
32.68000 2.052
32.72000 7.077
32.76000 7.075
32.80000 5.095
32.84000 6.090
32.88000 7.077
32.92000 7.074
32.96000 11.143
33.00000 3.984
33.04000 9.078
33.08000 4.094
33.12000 6.183
33.16000 8.169
33.20000 9.181
33.24000 5.028
33.28000 10.118
33.32000 7.997
33.36000 14.249
33.40000 7.029
33.44000 8.234
33.48000 5.079
33.52000 5.007
33.56000 9.160
33.60000 8.116
33.64000 5.140
33.68000 12.232
33.72000 11.303
33.76000 6.078
33.80000 10.169
33.84000 4.062
33.88000 7.092
33.92000 6.082
33.96000 9.200
34.00000 13.110
34.04000 7.183
34.08000 8.106
34.12000 7.192
34.16000 4.016
34.20000 7.132
34.24000 7.146
34.28000 7.108
34.32000 7.025
34.36000 10.165
34.40000 7.102
34.44000 5.023
34.48000 7.061
34.52000 6.105
34.56000 7.121
34.60000 7.147
34.64000 5.039
34.68000 0.984
34.72000 6.124
34.76000 0.995
34.80000 4.128
34.84000 5.132
34.88000 10.182
34.92000 5.018
34.96000 4.072
35.00000 6.086
35.04000 3.047
35.08000 5.179
35.12000 14.196
35.16000 1.978
35.20000 8.003
35.24000 5.070
35.28000 5.008
35.32000 1.060
35.36000 6.089
35.40000 8.116
35.44000 2.994
35.48000 6.093
35.52000 6.076
35.56000 5.010
35.60000 6.199
35.64000 6.103
35.68000 4.037
35.72000 5.089
35.76000 5.089
35.80000 9.051
35.84000 9.153
35.88000 4.039
35.92000 3.995
35.96000 5.033
36.00000 3.040
36.04000 8.082
36.08000 4.066
36.12000 3.020
36.16000 4.023
36.20000 8.040
36.24000 10.067
36.28000 3.070
36.32000 6.990
36.36000 7.028
36.40000 3.074
36.44000 6.072
36.48000 5.053
36.52000 2.070
36.56000 9.082
36.60000 9.104
36.64000 5.979
36.68000 4.964
36.72000 7.160
36.76000 9.144
36.80000 6.030
36.84000 7.100
36.88000 6.025
36.92000 6.051
36.96000 2.047
37.00000 4.059
37.04000 3.015
37.08000 4.016
37.12000 4.069
37.16000 6.031
37.20000 3.016
37.24000 5.053
37.28000 9.080
37.32000 8.177
37.36000 1.035
37.40000 10.171
37.44000 4.016
37.48000 4.014
37.52000 6.144
37.56000 6.026
37.60000 9.124
37.64000 2.019
37.68000 7.006
37.72000 3.070
37.76000 6.063
37.80000 9.210
37.84000 5.046
37.88000 1.961
37.92000 6.048
37.96000 5.999
38.00000 5.136
38.04000 3.948
38.08000 5.008
38.12000 5.972
38.16000 2.003
38.20000 8.256
38.24000 4.948
38.28000 8.081
38.32000 6.981
38.36000 5.988
38.40000 4.013
38.44000 7.137
38.48000 11.091
38.52000 3.075
38.56000 4.975
38.60000 3.046
38.64000 1.010
38.68000 2.037
38.72000 2.023
38.76000 8.105
38.80000 7.103
38.84000 4.060
38.88000 6.133
38.92000 4.070
38.96000 6.047
39.00000 4.984
39.04000 1.042
39.08000 7.129
39.12000 5.083
39.16000 9.197
39.20000 6.183
39.24000 5.133
39.28000 7.158
39.32000 4.995
39.36000 2.033
39.40000 5.005
39.44000 13.153
39.48000 5.123
39.52000 6.131
39.56000 4.115
39.60000 6.006
39.64000 6.027
39.68000 0.000
39.72000 3.085
39.76000 5.100
39.80000 3.074
39.84000 6.092
39.88000 2.030
39.92000 2.059
39.96000 1.026
40.00000 4.023
40.04000 9.097
40.08000 6.042
40.12000 4.083
40.16000 3.019
40.20000 5.061
40.24000 8.107
40.28000 6.101
40.32000 4.065
40.36000 3.035
40.40000 5.102
40.44000 3.059
40.48000 3.015
40.52000 9.132
40.56000 3.019
40.60000 3.016
40.64000 7.111
40.68000 5.066
40.72000 7.044
40.76000 6.015
40.80000 6.063
40.84000 3.030
40.88000 6.057
40.92000 1.983
40.96000 2.008
41.00000 4.024
41.04000 4.036
41.08000 5.177
41.12000 3.050
41.16000 2.984
41.20000 4.041
41.24000 6.056
41.28000 6.166
41.32000 2.044
41.36000 6.012
41.40000 6.070
41.44000 5.976
41.48000 4.124
41.52000 6.075
41.56000 4.084
41.60000 4.138
41.64000 2.068
41.68000 4.077
41.72000 4.114
41.76000 0.992
41.80000 5.950
41.84000 2.969
41.88000 4.013
41.92000 3.071
41.96000 5.040
42.00000 5.033
42.04000 5.037
42.08000 2.038
42.12000 3.090
42.16000 3.030
42.20000 5.112
42.24000 6.049
42.28000 3.122
42.32000 4.043
42.36000 3.054
42.40000 6.014
42.44000 3.062
42.48000 3.041
42.52000 1.047
42.56000 4.032
42.60000 0.000
42.64000 2.066
42.68000 4.972
42.72000 7.064
42.76000 6.003
42.80000 2.041
42.84000 2.038
42.88000 5.022
42.92000 5.979
42.96000 9.226
43.00000 7.089
43.04000 5.009
43.08000 2.999
43.12000 3.063
43.16000 2.035
43.20000 4.993
43.24000 4.094
43.28000 1.992
43.32000 5.085
43.36000 5.000
43.40000 7.041
43.44000 4.063
43.48000 0.000
43.52000 9.141
43.56000 4.087
43.60000 3.077
43.64000 2.062
43.68000 2.977
43.72000 0.000
43.76000 2.993
43.80000 5.012
43.84000 3.038
43.88000 1.037
43.92000 3.004
43.96000 0.000
44.00000 3.979
44.04000 3.021
44.08000 3.065
44.12000 2.019
44.16000 2.068
44.20000 3.053
44.24000 6.131
44.28000 3.020
44.32000 2.058
44.36000 5.042
44.40000 8.082
44.44000 1.993
44.48000 2.970
44.52000 5.058
44.56000 1.994
44.60000 0.000
44.64000 3.058
44.68000 6.046
44.72000 4.098
44.76000 5.052
44.80000 1.017
44.84000 4.027
44.88000 2.029
44.92000 4.037
44.96000 7.020
45.00000 2.972
45.04000 7.052
45.08000 6.060
45.12000 2.035
45.16000 5.108
45.20000 2.034
45.24000 7.072
45.28000 2.038
45.32000 4.045
45.36000 4.002
45.40000 5.017
45.44000 6.308
45.48000 3.968
45.52000 3.037
45.56000 1.055
45.60000 0.000
45.64000 4.052
45.68000 4.042
45.72000 7.068
45.76000 6.104
45.80000 1.011
45.84000 4.019
45.88000 5.091
45.92000 2.040
45.96000 4.138
46.00000 1.026
46.04000 4.021
46.08000 1.026
46.12000 2.022
46.16000 5.060
46.20000 4.016
46.24000 4.026
46.28000 2.020
46.32000 3.006
46.36000 2.054
46.40000 4.099
46.44000 11.245
46.48000 3.050
46.52000 0.996
46.56000 0.000
46.60000 10.162
46.64000 2.010
46.68000 4.017
46.72000 1.997
46.76000 4.054
46.80000 3.060
46.84000 0.000
46.88000 1.023
46.92000 1.031
46.96000 5.044
47.00000 0.000
47.04000 2.012
47.08000 2.057
47.12000 4.065
47.16000 1.014
47.20000 1.011
47.24000 3.035
47.28000 4.050
47.32000 1.986
47.36000 6.023
47.40000 4.113
47.44000 4.051
47.48000 5.094
47.52000 3.989
47.56000 1.987
47.60000 3.054
47.64000 5.065
47.68000 1.029
47.72000 0.985
47.76000 1.971
47.80000 3.008
47.84000 5.011
47.88000 3.018
47.92000 7.161
47.96000 1.961
48.00000 4.038
48.04000 4.011
48.08000 3.074
48.12000 2.006
48.16000 1.008
48.20000 1.054
48.24000 5.018
48.28000 2.005
48.32000 1.975
48.36000 1.025
48.40000 4.041
48.44000 1.995
48.48000 3.067
48.52000 2.044
48.56000 0.000
48.60000 4.009
48.64000 2.040
48.68000 0.995
48.72000 2.958
48.76000 0.000
48.80000 3.064
48.84000 1.999
48.88000 7.108
48.92000 2.017
48.96000 3.081
49.00000 1.024
49.04000 4.073
49.08000 3.043
49.12000 2.981
49.16000 3.180
49.20000 0.999
49.24000 3.080
49.28000 2.092
49.32000 5.043
49.36000 2.011
49.40000 3.035
49.44000 6.102
49.48000 5.042
49.52000 4.995
49.56000 2.019
49.60000 1.041
49.64000 4.020
49.68000 1.068
49.72000 0.000
49.76000 6.067
49.80000 2.998
49.84000 2.022
49.88000 1.056
49.92000 3.054
49.96000 5.005
50.00000 0.000
50.04000 1.002
50.08000 0.996
50.12000 3.106
50.16000 3.041
50.20000 5.075
50.24000 2.039
50.28000 1.975
50.32000 2.026
50.36000 1.963
50.40000 3.063
50.44000 0.000
50.48000 6.068
50.52000 5.110
50.56000 4.072
50.60000 2.036
50.64000 2.042
50.68000 3.089
50.72000 3.014
50.76000 4.043
50.80000 6.124
50.84000 5.039
50.88000 4.070
50.92000 3.083
50.96000 3.078
51.00000 2.036
51.04000 3.059
51.08000 4.036
51.12000 1.021
51.16000 2.051
51.20000 4.094
51.24000 5.067
51.28000 4.072
51.32000 3.994
51.36000 1.980
51.40000 4.065
51.44000 5.034
51.48000 2.008
51.52000 3.074
51.56000 4.160
51.60000 0.000
51.64000 3.028
51.68000 1.022
51.72000 1.006
51.76000 0.000
51.80000 1.009
51.84000 5.053
51.88000 1.993
51.92000 0.996
51.96000 4.023
52.00000 3.047
52.04000 1.999
52.08000 0.000
52.12000 0.991
52.16000 1.998
52.20000 1.982
52.24000 2.974
52.28000 3.035
52.32000 3.004
52.36000 3.993
52.40000 2.034
52.44000 2.027
52.48000 2.996
52.52000 2.038
52.56000 0.975
52.60000 3.132
52.64000 5.044
52.68000 1.015
52.72000 2.060
52.76000 3.032
52.80000 5.061
52.84000 1.000
52.88000 5.072
52.92000 4.019
52.96000 3.020
53.00000 0.982
53.04000 3.007
53.08000 1.037
53.12000 0.000
53.16000 2.047
53.20000 1.983
53.24000 4.074
53.28000 1.068
53.32000 5.066
53.36000 0.983
53.40000 2.048
53.44000 3.034
53.48000 2.016
53.52000 3.058
53.56000 5.061
53.60000 6.033
53.64000 4.090
53.68000 0.000
53.72000 4.027
53.76000 3.000
53.80000 3.048
53.84000 1.992
53.88000 3.056
53.92000 1.070
53.96000 2.985
54.00000 1.068
54.04000 1.981
54.08000 1.049
54.12000 5.117
54.16000 1.971
54.20000 0.000
54.24000 2.046
54.28000 4.026
54.32000 2.092
54.36000 2.015
54.40000 1.048
54.44000 0.000
54.48000 1.986
54.52000 2.001
54.56000 5.056
54.60000 1.014
54.64000 5.009
54.68000 2.036
54.72000 3.021
54.76000 7.072
54.80000 4.006
54.84000 0.000
54.88000 2.045
54.92000 4.088
54.96000 1.022
55.00000 1.067
55.04000 0.987
55.08000 6.131
55.12000 2.003
55.16000 2.021
55.20000 6.069
55.24000 1.020
55.28000 2.016
55.32000 2.021
55.36000 3.053
55.40000 0.000
55.44000 6.101
55.48000 1.002
55.52000 3.055
55.56000 1.025
55.60000 2.046
55.64000 1.041
55.68000 1.015
55.72000 3.074
55.76000 2.036
55.80000 0.980
55.84000 3.006
55.88000 8.189
55.92000 3.094
55.96000 0.995
56.00000 3.020
56.04000 1.996
56.08000 1.009
56.12000 1.989
56.16000 3.002
56.20000 3.025
56.24000 2.004
56.28000 0.000
56.32000 0.000
56.36000 4.091
56.40000 2.030
56.44000 3.041
56.48000 3.011
56.52000 1.025
56.56000 3.029
56.60000 5.037
56.64000 1.021
56.68000 4.063
56.72000 0.000
56.76000 4.997
56.80000 1.010
56.84000 3.047
56.88000 2.992
56.92000 0.000
56.96000 3.118
57.00000 2.042
57.04000 3.082
57.08000 2.063
57.12000 1.970
57.16000 2.995
57.20000 1.029
57.24000 0.978
57.28000 2.012
57.32000 3.062
57.36000 3.008
57.40000 0.999
57.44000 1.003
57.48000 4.035
57.52000 4.005
57.56000 3.070
57.60000 5.059
57.64000 0.000
57.68000 0.990
57.72000 2.023
57.76000 1.031
57.80000 2.052
57.84000 0.000
57.88000 2.019
57.92000 0.989
57.96000 0.000
58.00000 1.998
58.04000 0.000
58.08000 0.965
58.12000 4.080
58.16000 3.022
58.20000 0.000
58.24000 1.956
58.28000 3.055
58.32000 1.980
58.36000 1.006
58.40000 2.051
58.44000 3.067
58.48000 1.993
58.52000 0.995
58.56000 3.018
58.60000 3.944
58.64000 4.086
58.68000 2.057
58.72000 1.047
58.76000 0.995
58.80000 2.048
58.84000 2.037
58.88000 3.014
58.92000 2.081
58.96000 5.061
59.00000 1.057
59.04000 4.079
59.08000 0.991
59.12000 3.007
59.16000 2.005
59.20000 2.975
59.24000 1.004
59.28000 3.042
59.32000 4.045
59.36000 0.995
59.40000 7.222
59.44000 0.000
59.48000 2.074
59.52000 4.039
59.56000 2.118
59.60000 8.997
59.64000 6.070
59.68000 4.104
59.72000 4.012
59.76000 2.059
59.80000 2.061
59.84000 5.008
59.88000 0.999
59.92000 1.008
59.96000 2.058
60.00000 2.045
60.04000 2.067
60.08000 4.008
60.12000 3.004
60.16000 1.017
60.20000 1.007
60.24000 0.989
60.28000 1.021
60.32000 5.171
60.36000 4.080
60.40000 1.056
60.44000 0.000
60.48000 1.983
60.52000 5.044
60.56000 0.000
60.60000 5.023
60.64000 2.075
60.68000 2.035
60.72000 4.012
60.76000 2.034
60.80000 4.034
60.84000 4.004
60.88000 1.029
60.92000 4.003
60.96000 1.981
61.00000 2.046
61.04000 3.969
61.08000 2.016
61.12000 1.024
61.16000 0.968
61.20000 1.028
61.24000 0.000
61.28000 2.074
61.32000 0.989
61.36000 0.000
61.40000 2.966
61.44000 0.000
61.48000 3.124
61.52000 1.007
61.56000 0.997
61.60000 2.017
61.64000 2.058
61.68000 1.011
61.72000 3.039
61.76000 3.059
61.80000 1.006
61.84000 0.988
61.88000 0.990
61.92000 3.058
61.96000 4.042
62.00000 2.027
62.04000 0.000
62.08000 2.012
62.12000 2.030
62.16000 0.000
62.20000 0.976
62.24000 5.048
62.28000 1.045
62.32000 3.028
62.36000 1.995
62.40000 3.003
62.44000 1.005
62.48000 3.064
62.52000 2.092
62.56000 3.013
62.60000 1.980
62.64000 1.980
62.68000 1.976
62.72000 2.021
62.76000 0.000
62.80000 0.990
62.84000 3.041
62.88000 0.000
62.92000 0.989
62.96000 2.023
63.00000 1.032
63.04000 3.012
63.08000 3.048
63.12000 1.994
63.16000 2.056
63.20000 1.013
63.24000 3.039
63.28000 0.998
63.32000 2.987
63.36000 0.988
63.40000 1.975
63.44000 1.051
63.48000 0.000
63.52000 2.045
63.56000 3.961
63.60000 2.007
63.64000 2.019
63.68000 0.990
63.72000 0.996
63.76000 3.043
63.80000 2.025
63.84000 4.020
63.88000 0.990
63.92000 1.047
63.96000 2.107
64.00000 1.018
64.04000 0.986
64.08000 1.993
64.12000 2.003
64.16000 0.993
64.20000 1.006
64.24000 0.000
64.28000 2.986
64.32000 5.079
64.36000 3.998
64.40000 1.998
64.44000 2.989
64.48000 1.029
64.52000 0.000
64.56000 2.001
64.60000 4.075
64.64000 2.968
64.68000 1.998
64.72000 1.995
64.76000 2.984
64.80000 0.984
64.84000 3.034
64.88000 4.063
64.92000 2.050
64.96000 0.000
65.00000 0.000