File: XRD/XRD/11-09-2025/XY Data/01092025_BTO_omega_0_5_001_14_-33-413_17-025.xy
20.00000 18.249
20.04000 19.284
20.08000 15.419
20.12000 18.221
20.16000 25.219
20.20000 21.336
20.24000 24.345
20.28000 13.227
20.32000 19.141
20.36000 20.354
20.40000 23.431
20.44000 28.330
20.48000 23.291
20.52000 25.299
20.56000 22.413
20.60000 19.443
20.64000 18.200
20.68000 27.347
20.72000 23.178
20.76000 18.004
20.80000 20.215
20.84000 22.237
20.88000 18.347
20.92000 22.238
20.96000 19.268
21.00000 18.168
21.04000 16.198
21.08000 19.355
21.12000 22.325
21.16000 25.489
21.20000 26.446
21.24000 19.296
21.28000 22.453
21.32000 40.620
21.36000 22.223
21.40000 23.339
21.44000 27.095
21.48000 18.307
21.52000 18.365
21.56000 24.411
21.60000 20.291
21.64000 19.091
21.68000 24.399
21.72000 26.390
21.76000 30.556
21.80000 25.433
21.84000 16.167
21.88000 22.228
21.92000 31.751
21.96000 22.370
22.00000 26.432
22.04000 29.463
22.08000 23.384
22.12000 29.191
22.16000 25.340
22.20000 21.538
22.24000 24.383
22.28000 21.395
22.32000 23.122
22.36000 15.248
22.40000 16.130
22.44000 25.433
22.48000 28.411
22.52000 20.268
22.56000 22.444
22.60000 28.282
22.64000 20.132
22.68000 25.381
22.72000 22.245
22.76000 19.202
22.80000 23.445
22.84000 16.363
22.88000 33.595
22.92000 34.341
22.96000 20.229
23.00000 30.600
23.04000 31.429
23.08000 17.131
23.12000 30.388
23.16000 23.367
23.20000 25.325
23.24000 26.470
23.28000 26.207
23.32000 24.283
23.36000 26.485
23.40000 31.512
23.44000 26.334
23.48000 26.258
23.52000 37.405
23.56000 28.416
23.60000 32.127
23.64000 26.249
23.68000 31.425
23.72000 29.353
23.76000 18.079
23.80000 34.438
23.84000 22.135
23.88000 38.538
23.92000 40.622
23.96000 28.352
24.00000 31.550
24.04000 32.143
24.08000 26.372
24.12000 29.314
24.16000 28.216
24.20000 26.419
24.24000 27.403
24.28000 29.187
24.32000 36.524
24.36000 30.549
24.40000 33.428
24.44000 37.446
24.48000 24.311
24.52000 41.592
24.56000 26.260
24.60000 32.212
24.64000 36.675
24.68000 41.509
24.72000 44.330
24.76000 40.631
24.80000 34.524
24.84000 41.551
24.88000 31.576
24.92000 35.656
24.96000 43.651
25.00000 42.702
25.04000 46.153
25.08000 35.565
25.12000 44.257
25.16000 39.368
25.20000 36.580
25.24000 33.576
25.28000 41.442
25.32000 37.301
25.36000 40.572
25.40000 37.354
25.44000 42.767
25.48000 36.548
25.52000 48.582
25.56000 45.827
25.60000 38.784
25.64000 33.560
25.68000 46.314
25.72000 35.542
25.76000 46.506
25.80000 48.490
25.84000 48.748
25.88000 40.513
25.92000 49.427
25.96000 43.540
26.00000 44.919
26.04000 53.828
26.08000 36.631
26.12000 44.541
26.16000 60.461
26.20000 48.521
26.24000 54.585
26.28000 45.687
26.32000 51.378
26.36000 45.592
26.40000 62.500
26.44000 49.725
26.48000 36.563
26.52000 34.402
26.56000 50.508
26.60000 54.958
26.64000 57.513
26.68000 63.159
26.72000 63.820
26.76000 57.931
26.80000 43.693
26.84000 58.779
26.88000 63.044
26.92000 43.322
26.96000 49.644
27.00000 73.675
27.04000 57.523
27.08000 57.699
27.12000 54.744
27.16000 57.540
27.20000 59.717
27.24000 48.326
27.28000 56.079
27.32000 49.416
27.36000 45.443
27.40000 42.723
27.44000 65.802
27.48000 48.746
27.52000 60.962
27.56000 48.783
27.60000 58.917
27.64000 50.852
27.68000 51.528
27.72000 54.953
27.76000 48.858
27.80000 48.500
27.84000 51.738
27.88000 42.650
27.92000 46.615
27.96000 59.035
28.00000 48.676
28.04000 45.630
28.08000 46.599
28.12000 41.571
28.16000 53.601
28.20000 51.668
28.24000 54.359
28.28000 48.817
28.32000 51.895
28.36000 49.798
28.40000 47.523
28.44000 50.650
28.48000 55.789
28.52000 48.628
28.56000 49.522
28.60000 45.551
28.64000 48.736
28.68000 49.627
28.72000 57.585
28.76000 45.446
28.80000 41.681
28.84000 48.678
28.88000 52.436
28.92000 52.712
28.96000 51.329
29.00000 50.071
29.04000 49.470
29.08000 52.973
29.12000 32.367
29.16000 53.680
29.20000 49.899
29.24000 41.327
29.28000 46.497
29.32000 50.847
29.36000 35.379
29.40000 41.503
29.44000 43.586
29.48000 49.483
29.52000 47.561
29.56000 40.436
29.60000 36.467
29.64000 46.614
29.68000 44.412
29.72000 46.482
29.76000 39.429
29.80000 38.420
29.84000 34.588
29.88000 45.829
29.92000 40.428
29.96000 29.453
30.00000 35.489
30.04000 34.314
30.08000 36.497
30.12000 25.438
30.16000 37.469
30.20000 29.369
30.24000 41.569
30.28000 34.770
30.32000 28.249
30.36000 47.927
30.40000 32.603
30.44000 33.309
30.48000 28.395
30.52000 20.365
30.56000 43.644
30.60000 32.807
30.64000 29.204
30.68000 32.396
30.72000 39.405
30.76000 38.404
30.80000 28.494
30.84000 29.451
30.88000 28.453
30.92000 31.489
30.96000 27.194
31.00000 30.236
31.04000 31.564
31.08000 25.502
31.12000 35.275
31.16000 26.384
31.20000 31.349
31.24000 28.464
31.28000 26.242
31.32000 20.057
31.36000 37.346
31.40000 31.596
31.44000 29.216
31.48000 29.449
31.52000 29.290
31.56000 25.302
31.60000 37.580
31.64000 38.460
31.68000 21.450
31.72000 26.158
31.76000 26.223
31.80000 21.312
31.84000 25.533
31.88000 24.400
31.92000 30.298
31.96000 27.336
32.00000 29.637
32.04000 28.451
32.08000 24.280
32.12000 24.278
32.16000 33.471
32.20000 29.324
32.24000 28.146
32.28000 24.186
32.32000 26.319
32.36000 30.680
32.40000 36.716
32.44000 33.678
32.48000 32.462
32.52000 28.215
32.56000 27.418
32.60000 33.551
32.64000 26.312
32.68000 31.461
32.72000 31.414
32.76000 20.256
32.80000 25.560
32.84000 30.344
32.88000 28.272
32.92000 21.254
32.96000 34.597
33.00000 30.453
33.04000 18.291
33.08000 26.590
33.12000 26.360
33.16000 27.600
33.20000 24.311
33.24000 27.478
33.28000 20.176
33.32000 19.333
33.36000 15.365
33.40000 16.136
33.44000 15.077
33.48000 20.346
33.52000 21.310
33.56000 18.358
33.60000 15.187
33.64000 18.278
33.68000 16.096
33.72000 17.343
33.76000 26.240
33.80000 16.286
33.84000 16.231
33.88000 20.135
33.92000 16.161
33.96000 16.017
34.00000 25.313
34.04000 17.213
34.08000 15.104
34.12000 24.210
34.16000 18.240
34.20000 23.240
34.24000 22.215
34.28000 20.161
34.32000 14.215
34.36000 14.056
34.40000 23.195
34.44000 20.247
34.48000 18.247
34.52000 13.214
34.56000 20.117
34.60000 14.190
34.64000 19.299
34.68000 17.161
34.72000 21.406
34.76000 13.075
34.80000 16.175
34.84000 23.414
34.88000 22.120
34.92000 15.108
34.96000 19.306
35.00000 17.340
35.04000 15.119
35.08000 17.987
35.12000 18.080
35.16000 17.168
35.20000 23.409
35.24000 12.310
35.28000 19.441
35.32000 15.157
35.36000 20.245
35.40000 23.225
35.44000 22.358
35.48000 9.217
35.52000 12.102
35.56000 16.226
35.60000 15.198
35.64000 19.309
35.68000 14.088
35.72000 23.101
35.76000 13.232
35.80000 14.103
35.84000 22.234
35.88000 27.056
35.92000 20.231
35.96000 15.309
36.00000 15.369
36.04000 25.336
36.08000 21.276
36.12000 12.255
36.16000 14.111
36.20000 30.319
36.24000 20.277
36.28000 19.045
36.32000 25.417
36.36000 23.244
36.40000 23.358
36.44000 15.239
36.48000 22.348
36.52000 16.307
36.56000 11.128
36.60000 20.033
36.64000 15.047
36.68000 22.407
36.72000 16.117
36.76000 21.151
36.80000 14.120
36.84000 11.044
36.88000 10.161
36.92000 17.082
36.96000 19.439
37.00000 15.050
37.04000 13.180
37.08000 20.460
37.12000 27.413
37.16000 19.409
37.20000 15.310
37.24000 19.174
37.28000 12.131
37.32000 12.290
37.36000 21.260
37.40000 21.427
37.44000 13.107
37.48000 21.458
37.52000 14.090
37.56000 10.033
37.60000 20.212
37.64000 19.402
37.68000 18.255
37.72000 23.141
37.76000 20.296
37.80000 18.181
37.84000 22.153
37.88000 11.116
37.92000 21.304
37.96000 14.174
38.00000 14.190
38.04000 22.357
38.08000 16.190
38.12000 23.206
38.16000 17.418
38.20000 21.320
38.24000 22.389
38.28000 23.128
38.32000 18.259
38.36000 20.267
38.40000 22.147
38.44000 17.288
38.48000 20.532
38.52000 17.286
38.56000 15.984
38.60000 22.170
38.64000 26.464
38.68000 17.181
38.72000 20.163
38.76000 23.323
38.80000 26.422
38.84000 31.516
38.88000 23.065
38.92000 24.406
38.96000 14.404
39.00000 23.293
39.04000 20.440
39.08000 18.431
39.12000 16.280
39.16000 13.263
39.20000 28.699
39.24000 24.253
39.28000 18.253
39.32000 27.330
39.36000 19.148
39.40000 26.162
39.44000 22.240
39.48000 14.231
39.52000 27.401
39.56000 20.169
39.60000 17.034
39.64000 21.315
39.68000 16.129
39.72000 16.140
39.76000 20.319
39.80000 28.647
39.84000 18.125
39.88000 14.254
39.92000 20.190
39.96000 33.374
40.00000 19.203
40.04000 14.095
40.08000 19.189
40.12000 22.218
40.16000 24.257
40.20000 18.237
40.24000 21.442
40.28000 19.313
40.32000 18.191
40.36000 19.391
40.40000 22.224
40.44000 27.476
40.48000 22.201
40.52000 15.229
40.56000 22.355
40.60000 21.304
40.64000 15.159
40.68000 25.286
40.72000 22.218
40.76000 30.429
40.80000 26.510
40.84000 24.123
40.88000 15.154
40.92000 22.291
40.96000 21.273
41.00000 16.447
41.04000 25.426
41.08000 24.170
41.12000 19.026
41.16000 17.286
41.20000 22.487
41.24000 21.233
41.28000 28.357
41.32000 24.287
41.36000 23.313
41.40000 24.388
41.44000 19.329
41.48000 23.271
41.52000 14.113
41.56000 20.257
41.60000 18.484
41.64000 13.220
41.68000 10.242
41.72000 17.434
41.76000 16.213
41.80000 22.370
41.84000 18.373
41.88000 19.202
41.92000 15.320
41.96000 21.268
42.00000 20.564
42.04000 20.206
42.08000 25.311
42.12000 24.194
42.16000 20.238
42.20000 19.232
42.24000 24.194
42.28000 16.234
42.32000 22.176
42.36000 14.118
42.40000 21.330
42.44000 19.264
42.48000 29.297
42.52000 27.220
42.56000 23.185
42.60000 17.084
42.64000 13.131
42.68000 15.286
42.72000 16.204
42.76000 17.253
42.80000 25.497
42.84000 19.201
42.88000 20.512
42.92000 18.261
42.96000 22.310
43.00000 16.236
43.04000 20.318
43.08000 21.356
43.12000 22.424
43.16000 29.406
43.20000 24.247
43.24000 11.040
43.28000 16.048
43.32000 20.186
43.36000 21.126
43.40000 19.058
43.44000 20.159
43.48000 22.314
43.52000 28.586
43.56000 13.172
43.60000 19.095
43.64000 13.164
43.68000 29.454
43.72000 24.279
43.76000 19.162
43.80000 17.348
43.84000 22.247
43.88000 21.306
43.92000 16.011
43.96000 24.175
44.00000 25.389
44.04000 21.199
44.08000 23.452
44.12000 14.079
44.16000 21.200
44.20000 19.223
44.24000 20.165
44.28000 20.296
44.32000 26.464
44.36000 25.424
44.40000 17.245
44.44000 24.278
44.48000 27.403
44.52000 23.201
44.56000 29.542
44.60000 16.152
44.64000 25.230
44.68000 20.096
44.72000 24.266
44.76000 20.504
44.80000 19.305
44.84000 23.349
44.88000 31.359
44.92000 16.147
44.96000 22.264
45.00000 22.428
45.04000 17.249
45.08000 18.258
45.12000 20.192
45.16000 22.449
45.20000 21.318
45.24000 27.206
45.28000 24.356
45.32000 33.431
45.36000 6.047
45.40000 14.121
45.44000 21.512
45.48000 28.399
45.52000 23.269
45.56000 17.411
45.60000 18.403
45.64000 11.167
45.68000 29.251
45.72000 18.284
45.76000 23.237
45.80000 23.396
45.84000 24.343
45.88000 24.253
45.92000 22.226
45.96000 18.300
46.00000 26.299
46.04000 18.212
46.08000 23.342
46.12000 20.471
46.16000 16.320
46.20000 29.318
46.24000 23.298
46.28000 30.446
46.32000 20.259
46.36000 18.253
46.40000 17.276
46.44000 19.188
46.48000 21.372
46.52000 19.284
46.56000 22.352
46.60000 16.318
46.64000 19.352
46.68000 28.341
46.72000 20.149
46.76000 22.322
46.80000 17.164
46.84000 32.251
46.88000 27.541
46.92000 24.032
46.96000 22.443
47.00000 27.137
47.04000 16.166
47.08000 17.230
47.12000 18.285
47.16000 18.120
47.20000 15.329
47.24000 26.308
47.28000 24.428
47.32000 23.343
47.36000 19.402
47.40000 12.116
47.44000 23.453
47.48000 19.026
47.52000 17.195
47.56000 24.389
47.60000 14.286
47.64000 18.215
47.68000 17.298
47.72000 16.235
47.76000 19.370
47.80000 21.272
47.84000 16.201
47.88000 23.419
47.92000 20.432
47.96000 17.256
48.00000 18.241
48.04000 18.177
48.08000 13.234
48.12000 16.158
48.16000 16.168
48.20000 21.016
48.24000 18.398
48.28000 15.178
48.32000 19.098
48.36000 21.352
48.40000 17.185
48.44000 20.513
48.48000 13.086
48.52000 21.395
48.56000 16.063
48.60000 21.320
48.64000 14.297
48.68000 12.130
48.72000 18.322
48.76000 24.632
48.80000 23.471
48.84000 16.022
48.88000 17.277
48.92000 18.253
48.96000 26.408
49.00000 13.143
49.04000 18.417
49.08000 21.218
49.12000 26.280
49.16000 15.210
49.20000 21.363
49.24000 13.103
49.28000 7.022
49.32000 17.177
49.36000 14.212
49.40000 19.365
49.44000 15.186
49.48000 18.213
49.52000 15.321
49.56000 15.263
49.60000 22.072
49.64000 24.285
49.68000 15.314
49.72000 20.343
49.76000 12.136
49.80000 17.334
49.84000 14.285
49.88000 9.286
49.92000 18.218
49.96000 16.101
50.00000 11.145
50.04000 20.488
50.08000 8.070
50.12000 13.375
50.16000 28.163
50.20000 18.107
50.24000 18.093
50.28000 16.390
50.32000 13.230
50.36000 20.279
50.40000 14.094
50.44000 18.100
50.48000 22.214
50.52000 19.302
50.56000 16.311
50.60000 18.159
50.64000 14.269
50.68000 12.134
50.72000 17.084
50.76000 15.235
50.80000 14.296
50.84000 16.158
50.88000 16.224
50.92000 16.251
50.96000 17.129
51.00000 18.053
51.04000 14.060
51.08000 9.062
51.12000 13.318
51.16000 13.203
51.20000 9.987
51.24000 10.154
51.28000 13.141
51.32000 16.048
51.36000 14.153
51.40000 9.089
51.44000 17.174
51.48000 25.302
51.52000 22.278
51.56000 16.175
51.60000 17.014
51.64000 9.170
51.68000 20.235
51.72000 16.174
51.76000 21.285
51.80000 16.219
51.84000 16.121
51.88000 23.240
51.92000 7.016
51.96000 21.311
52.00000 22.541
52.04000 20.291
52.08000 17.279
52.12000 19.421
52.16000 16.243
52.20000 14.278
52.24000 12.106
52.28000 24.224
52.32000 17.244
52.36000 15.369
52.40000 17.138
52.44000 20.264
52.48000 8.220
52.52000 13.187
52.56000 12.091
52.60000 17.424
52.64000 17.162
52.68000 14.208
52.72000 16.260
52.76000 14.223
52.80000 20.101
52.84000 11.237
52.88000 12.182
52.92000 23.358
52.96000 16.057
53.00000 14.273
53.04000 15.151
53.08000 19.134
53.12000 10.116
53.16000 14.167
53.20000 10.319
53.24000 11.130
53.28000 22.292
53.32000 14.025
53.36000 16.233
53.40000 18.220
53.44000 11.233
53.48000 11.243
53.52000 17.053
53.56000 15.249
53.60000 12.315
53.64000 18.315
53.68000 22.377
53.72000 14.060
53.76000 12.124
53.80000 14.257
53.84000 15.229
53.88000 16.168
53.92000 11.041
53.96000 10.142
54.00000 12.204
54.04000 14.281
54.08000 9.094
54.12000 16.147
54.16000 14.182
54.20000 13.315
54.24000 15.191
54.28000 15.238
54.32000 17.240
54.36000 16.184
54.40000 17.288
54.44000 10.205
54.48000 16.170
54.52000 12.091
54.56000 11.086
54.60000 11.095
54.64000 16.310
54.68000 18.446
54.72000 11.133
54.76000 12.161
54.80000 16.390
54.84000 18.098
54.88000 11.194
54.92000 10.102
54.96000 18.364
55.00000 9.160
55.04000 15.146
55.08000 10.091
55.12000 10.211
55.16000 14.211
55.20000 11.238
55.24000 11.018
55.28000 15.158
55.32000 15.172
55.36000 14.201
55.40000 14.143
55.44000 20.240
55.48000 8.137
55.52000 12.347
55.56000 9.122
55.60000 21.188
55.64000 20.273
55.68000 14.219
55.72000 9.024
55.76000 13.115
55.80000 17.179
55.84000 10.171
55.88000 13.053
55.92000 14.980
55.96000 14.018
56.00000 9.161
56.04000 16.087
56.08000 12.208
56.12000 9.078
56.16000 11.144
56.20000 15.161
56.24000 10.106
56.28000 9.018
56.32000 10.144
56.36000 5.949
56.40000 11.047
56.44000 7.153
56.48000 12.214
56.52000 9.113
56.56000 10.126
56.60000 20.185
56.64000 9.169
56.68000 9.098
56.72000 13.956
56.76000 7.039
56.80000 10.124
56.84000 8.067
56.88000 13.190
56.92000 8.214
56.96000 13.105
57.00000 10.193
57.04000 15.475
57.08000 9.194
57.12000 18.220
57.16000 13.205
57.20000 8.079
57.24000 18.212
57.28000 20.127
57.32000 11.271
57.36000 13.239
57.40000 17.208
57.44000 12.287
57.48000 14.225
57.52000 10.161
57.56000 18.319
57.60000 14.173
57.64000 12.121
57.68000 10.233
57.72000 21.278
57.76000 15.150
57.80000 7.122
57.84000 14.152
57.88000 13.149
57.92000 10.019
57.96000 16.327
58.00000 16.116
58.04000 14.245
58.08000 6.020
58.12000 15.268
58.16000 12.994
58.20000 10.204
58.24000 16.385
58.28000 7.075
58.32000 11.123
58.36000 15.167
58.40000 11.288
58.44000 7.929
58.48000 10.042
58.52000 13.293
58.56000 14.065
58.60000 9.159
58.64000 15.173
58.68000 11.182
58.72000 7.076
58.76000 14.193
58.80000 11.286
58.84000 15.169
58.88000 7.044
58.92000 10.235
58.96000 11.995
59.00000 22.257
59.04000 10.234
59.08000 12.183
59.12000 10.187
59.16000 11.154
59.20000 9.027
59.24000 12.041
59.28000 8.082
59.32000 6.127
59.36000 9.142
59.40000 13.173
59.44000 15.045
59.48000 9.086
59.52000 9.096
59.56000 11.337
59.60000 10.122
59.64000 14.146
59.68000 12.086
59.72000 18.365
59.76000 11.036
59.80000 13.191
59.84000 14.095
59.88000 9.167
59.92000 12.059
59.96000 9.081
60.00000 10.196
60.04000 5.118
60.08000 13.135
60.12000 10.112
60.16000 11.097
60.20000 21.072
60.24000 13.198
60.28000 6.023
60.32000 9.176
60.36000 16.138
60.40000 13.199
60.44000 13.229
60.48000 6.078
60.52000 11.123
60.56000 17.121
60.60000 8.232
60.64000 13.153
60.68000 13.079
60.72000 15.041
60.76000 6.090
60.80000 12.230
60.84000 18.145
60.88000 11.078
60.92000 10.069
60.96000 8.059
61.00000 13.262
61.04000 13.090
61.08000 10.202
61.12000 9.117
61.16000 8.951
61.20000 12.265
61.24000 6.128
61.28000 10.022
61.32000 11.210
61.36000 8.062
61.40000 7.016
61.44000 10.111
61.48000 7.014
61.52000 13.181
61.56000 1.036
61.60000 5.012
61.64000 16.133
61.68000 12.179
61.72000 6.075
61.76000 9.133
61.80000 3.122
61.84000 14.342
61.88000 9.114
61.92000 6.055
61.96000 13.194
62.00000 8.125
62.04000 17.178
62.08000 15.311
62.12000 4.078
62.16000 8.071
62.20000 13.138
62.24000 8.098
62.28000 8.034
62.32000 10.920
62.36000 9.102
62.40000 9.190
62.44000 4.007
62.48000 3.070
62.52000 11.133
62.56000 11.298
62.60000 13.151
62.64000 5.020
62.68000 6.126
62.72000 5.011
62.76000 8.099
62.80000 7.127
62.84000 15.212
62.88000 9.087
62.92000 11.254
62.96000 8.078
63.00000 8.008
63.04000 12.230
63.08000 9.194
63.12000 7.951
63.16000 10.131
63.20000 13.145
63.24000 9.051
63.28000 10.075
63.32000 10.147
63.36000 7.049
63.40000 10.060
63.44000 6.105
63.48000 7.079
63.52000 7.999
63.56000 7.064
63.60000 9.135
63.64000 4.100
63.68000 7.086
63.72000 9.080
63.76000 10.099
63.80000 8.088
63.84000 7.134
63.88000 10.035
63.92000 11.162
63.96000 7.164
64.00000 10.023
64.04000 4.043
64.08000 12.072
64.12000 5.089
64.16000 12.221
64.20000 10.108
64.24000 6.131
64.28000 7.094
64.32000 7.072
64.36000 9.118
64.40000 19.276
64.44000 15.211
64.48000 7.149
64.52000 7.064
64.56000 2.992
64.60000 9.073
64.64000 7.126
64.68000 5.048
64.72000 7.071
64.76000 6.057
64.80000 9.083
64.84000 5.099
64.88000 6.142
64.92000 6.956
64.96000 10.131
65.00000 6.047