File: XRD/XRD/11-09-2025/XY Data/01092025_BTO_omega_1_001_47_-45-048_21-694.xy
20.00000 14.138
20.04000 16.114
20.08000 13.026
20.12000 11.105
20.16000 13.134
20.20000 15.158
20.24000 11.162
20.28000 13.183
20.32000 12.093
20.36000 12.232
20.40000 10.150
20.44000 10.181
20.48000 15.291
20.52000 13.165
20.56000 9.068
20.60000 14.211
20.64000 15.130
20.68000 8.186
20.72000 6.146
20.76000 7.094
20.80000 9.072
20.84000 11.105
20.88000 10.110
20.92000 8.246
20.96000 9.062
21.00000 11.130
21.04000 11.118
21.08000 12.331
21.12000 8.087
21.16000 8.087
21.20000 9.992
21.24000 10.051
21.28000 4.997
21.32000 7.108
21.36000 7.129
21.40000 12.124
21.44000 7.059
21.48000 8.028
21.52000 3.963
21.56000 9.200
21.60000 17.327
21.64000 9.133
21.68000 8.139
21.72000 8.133
21.76000 7.975
21.80000 11.082
21.84000 13.157
21.88000 10.159
21.92000 6.080
21.96000 14.191
22.00000 7.084
22.04000 8.194
22.08000 11.158
22.12000 6.150
22.16000 3.048
22.20000 6.111
22.24000 6.998
22.28000 5.032
22.32000 4.030
22.36000 5.089
22.40000 15.295
22.44000 11.226
22.48000 10.024
22.52000 9.100
22.56000 10.089
22.60000 10.215
22.64000 9.171
22.68000 10.152
22.72000 4.972
22.76000 8.115
22.80000 7.086
22.84000 2.046
22.88000 4.140
22.92000 0.990
22.96000 13.102
23.00000 9.120
23.04000 8.065
23.08000 11.132
23.12000 4.108
23.16000 5.023
23.20000 7.068
23.24000 8.042
23.28000 6.171
23.32000 8.244
23.36000 11.089
23.40000 7.154
23.44000 12.045
23.48000 8.072
23.52000 3.087
23.56000 8.036
23.60000 6.052
23.64000 8.126
23.68000 6.108
23.72000 7.985
23.76000 12.093
23.80000 2.067
23.84000 4.077
23.88000 9.079
23.92000 5.052
23.96000 9.242
24.00000 5.088
24.04000 2.004
24.08000 8.174
24.12000 9.081
24.16000 17.272
24.20000 9.086
24.24000 2.098
24.28000 5.034
24.32000 7.996
24.36000 7.076
24.40000 11.112
24.44000 10.158
24.48000 9.032
24.52000 6.090
24.56000 11.054
24.60000 9.265
24.64000 9.160
24.68000 8.096
24.72000 5.023
24.76000 9.187
24.80000 8.043
24.84000 13.210
24.88000 8.029
24.92000 7.058
24.96000 2.041
25.00000 9.237
25.04000 7.119
25.08000 10.203
25.12000 8.243
25.16000 4.023
25.20000 7.224
25.24000 5.114
25.28000 11.027
25.32000 9.109
25.36000 7.036
25.40000 10.062
25.44000 7.015
25.48000 6.020
25.52000 3.081
25.56000 6.055
25.60000 10.014
25.64000 8.150
25.68000 10.043
25.72000 9.106
25.76000 10.049
25.80000 6.071
25.84000 10.170
25.88000 6.085
25.92000 9.139
25.96000 11.095
26.00000 9.326
26.04000 9.072
26.08000 7.099
26.12000 10.160
26.16000 6.061
26.20000 7.065
26.24000 11.150
26.28000 10.089
26.32000 5.079
26.36000 5.045
26.40000 11.047
26.44000 3.010
26.48000 2.008
26.52000 7.996
26.56000 7.177
26.60000 7.076
26.64000 1.023
26.68000 11.111
26.72000 7.022
26.76000 8.962
26.80000 4.071
26.84000 8.147
26.88000 6.116
26.92000 7.098
26.96000 6.095
27.00000 9.106
27.04000 2.040
27.08000 6.101
27.12000 8.106
27.16000 3.062
27.20000 8.097
27.24000 6.195
27.28000 4.036
27.32000 2.985
27.36000 6.089
27.40000 6.147
27.44000 9.136
27.48000 4.959
27.52000 4.020
27.56000 3.965
27.60000 10.044
27.64000 11.231
27.68000 6.000
27.72000 9.098
27.76000 7.152
27.80000 3.110
27.84000 7.133
27.88000 5.988
27.92000 11.131
27.96000 6.105
28.00000 5.075
28.04000 3.018
28.08000 5.022
28.12000 5.017
28.16000 11.358
28.20000 5.085
28.24000 6.089
28.28000 4.022
28.32000 6.119
28.36000 6.147
28.40000 12.135
28.44000 3.011
28.48000 3.043
28.52000 6.131
28.56000 7.199
28.60000 6.203
28.64000 7.040
28.68000 5.033
28.72000 5.135
28.76000 2.013
28.80000 5.144
28.84000 8.083
28.88000 7.067
28.92000 3.976
28.96000 6.111
29.00000 4.039
29.04000 3.068
29.08000 3.004
29.12000 4.086
29.16000 2.045
29.20000 3.034
29.24000 6.011
29.28000 6.025
29.32000 2.096
29.36000 8.106
29.40000 4.056
29.44000 5.958
29.48000 5.071
29.52000 7.022
29.56000 10.134
29.60000 9.159
29.64000 2.015
29.68000 3.035
29.72000 7.045
29.76000 5.183
29.80000 2.054
29.84000 5.024
29.88000 5.082
29.92000 4.015
29.96000 3.029
30.00000 9.187
30.04000 8.073
30.08000 5.092
30.12000 9.054
30.16000 2.026
30.20000 2.030
30.24000 3.032
30.28000 3.070
30.32000 2.047
30.36000 3.024
30.40000 2.054
30.44000 6.103
30.48000 4.120
30.52000 8.121
30.56000 4.152
30.60000 2.038
30.64000 3.092
30.68000 2.050
30.72000 7.133
30.76000 4.042
30.80000 2.983
30.84000 4.084
30.88000 6.145
30.92000 3.080
30.96000 4.035
31.00000 6.056
31.04000 1.038
31.08000 6.049
31.12000 4.023
31.16000 5.040
31.20000 5.025
31.24000 3.033
31.28000 4.056
31.32000 4.040
31.36000 6.082
31.40000 6.146
31.44000 4.147
31.48000 5.047
31.52000 0.986
31.56000 2.100
31.60000 3.128
31.64000 1.020
31.68000 2.976
31.72000 4.037
31.76000 5.001
31.80000 5.088
31.84000 5.152
31.88000 8.124
31.92000 5.153
31.96000 0.000
32.00000 4.074
32.04000 5.122
32.08000 4.988
32.12000 8.110
32.16000 3.003
32.20000 2.021
32.24000 4.092
32.28000 2.022
32.32000 4.158
32.36000 6.060
32.40000 3.057
32.44000 5.074
32.48000 6.212
32.52000 3.051
32.56000 6.200
32.60000 4.043
32.64000 6.057
32.68000 4.057
32.72000 2.985
32.76000 8.089
32.80000 4.068
32.84000 4.000
32.88000 2.994
32.92000 2.058
32.96000 5.104
33.00000 5.091
33.04000 3.980
33.08000 3.047
33.12000 3.024
33.16000 7.159
33.20000 5.158
33.24000 3.042
33.28000 1.973
33.32000 3.073
33.36000 2.020
33.40000 6.074
33.44000 5.023
33.48000 6.172
33.52000 8.204
33.56000 3.101
33.60000 6.004
33.64000 5.070
33.68000 5.013
33.72000 6.087
33.76000 3.062
33.80000 7.080
33.84000 4.027
33.88000 4.122
33.92000 1.008
33.96000 4.186
34.00000 3.985
34.04000 4.044
34.08000 6.185
34.12000 3.096
34.16000 1.039
34.20000 1.011
34.24000 7.257
34.28000 4.079
34.32000 3.017
34.36000 4.084
34.40000 5.980
34.44000 4.085
34.48000 6.014
34.52000 5.070
34.56000 3.001
34.60000 4.073
34.64000 3.011
34.68000 5.072
34.72000 4.028
34.76000 7.137
34.80000 5.061
34.84000 3.982
34.88000 4.034
34.92000 8.096
34.96000 4.970
35.00000 6.124
35.04000 1.026
35.08000 11.063
35.12000 6.036
35.16000 7.034
35.20000 2.030
35.24000 2.049
35.28000 1.017
35.32000 5.073
35.36000 6.131
35.40000 4.008
35.44000 5.982
35.48000 3.037
35.52000 5.005
35.56000 6.198
35.60000 3.100
35.64000 6.060
35.68000 7.077
35.72000 1.007
35.76000 4.018
35.80000 3.068
35.84000 3.043
35.88000 3.064
35.92000 3.015
35.96000 5.094
36.00000 6.127
36.04000 3.100
36.08000 2.988
36.12000 5.036
36.16000 7.046
36.20000 0.988
36.24000 2.096
36.28000 4.966
36.32000 5.011
36.36000 1.015
36.40000 1.040
36.44000 3.016
36.48000 2.029
36.52000 5.007
36.56000 5.097
36.60000 0.000
36.64000 4.028
36.68000 6.164
36.72000 2.015
36.76000 4.043
36.80000 0.000
36.84000 3.018
36.88000 4.048
36.92000 4.161
36.96000 4.067
37.00000 2.036
37.04000 4.019
37.08000 7.141
37.12000 3.057
37.16000 1.031
37.20000 2.974
37.24000 5.189
37.28000 2.049
37.32000 2.053
37.36000 5.000
37.40000 7.150
37.44000 2.038
37.48000 4.064
37.52000 6.096
37.56000 4.077
37.60000 3.078
37.64000 0.990
37.68000 5.070
37.72000 6.158
37.76000 1.030
37.80000 5.059
37.84000 0.000
37.88000 3.081
37.92000 3.043
37.96000 5.068
38.00000 3.056
38.04000 3.112
38.08000 7.073
38.12000 5.968
38.16000 1.972
38.20000 3.026
38.24000 1.025
38.28000 3.953
38.32000 0.000
38.36000 5.036
38.40000 3.073
38.44000 4.019
38.48000 2.023
38.52000 6.995
38.56000 6.054
38.60000 2.024
38.64000 2.041
38.68000 6.028
38.72000 2.031
38.76000 6.017
38.80000 6.177
38.84000 3.031
38.88000 3.042
38.92000 3.044
38.96000 2.946
39.00000 3.129
39.04000 4.062
39.08000 4.077
39.12000 2.006
39.16000 2.069
39.20000 0.982
39.24000 1.034
39.28000 4.163
39.32000 1.002
39.36000 2.075
39.40000 4.080
39.44000 0.980
39.48000 1.997
39.52000 2.011
39.56000 5.011
39.60000 5.081
39.64000 4.183
39.68000 0.000
39.72000 2.031
39.76000 4.071
39.80000 3.045
39.84000 3.971
39.88000 3.035
39.92000 4.074
39.96000 7.064
40.00000 3.024
40.04000 1.027
40.08000 4.040
40.12000 2.950
40.16000 3.031
40.20000 5.036
40.24000 2.056
40.28000 0.000
40.32000 3.034
40.36000 8.013
40.40000 2.034
40.44000 3.024
40.48000 3.034
40.52000 2.047
40.56000 2.007
40.60000 4.069
40.64000 1.023
40.68000 2.021
40.72000 6.100
40.76000 2.949
40.80000 7.179
40.84000 6.120
40.88000 2.017
40.92000 0.000
40.96000 3.133
41.00000 2.968
41.04000 4.067
41.08000 8.028
41.12000 4.069
41.16000 3.021
41.20000 4.070
41.24000 5.081
41.28000 4.114
41.32000 2.059
41.36000 0.990
41.40000 1.018
41.44000 3.126
41.48000 1.970
41.52000 1.025
41.56000 2.049
41.60000 1.019
41.64000 3.033
41.68000 4.134
41.72000 1.957
41.76000 3.027
41.80000 8.073
41.84000 1.015
41.88000 4.020
41.92000 2.022
41.96000 3.014
42.00000 5.118
42.04000 2.059
42.08000 2.040
42.12000 2.053
42.16000 5.090
42.20000 4.027
42.24000 3.023
42.28000 6.111
42.32000 0.000
42.36000 2.032
42.40000 4.132
42.44000 4.068
42.48000 4.023
42.52000 5.062
42.56000 6.105
42.60000 3.004
42.64000 3.094
42.68000 1.997
42.72000 3.025
42.76000 3.002
42.80000 2.029
42.84000 5.030
42.88000 1.045
42.92000 5.099
42.96000 3.023
43.00000 4.043
43.04000 4.007
43.08000 5.207
43.12000 3.992
43.16000 3.116
43.20000 5.084
43.24000 1.024
43.28000 4.166
43.32000 1.996
43.36000 2.030
43.40000 3.005
43.44000 2.035
43.48000 3.975
43.52000 2.071
43.56000 3.030
43.60000 4.106
43.64000 5.072
43.68000 3.050
43.72000 0.991
43.76000 1.006
43.80000 5.114
43.84000 2.994
43.88000 0.000
43.92000 6.009
43.96000 1.991
44.00000 6.138
44.04000 2.051
44.08000 2.051
44.12000 3.008
44.16000 3.039
44.20000 4.045
44.24000 3.084
44.28000 5.161
44.32000 1.032
44.36000 2.075
44.40000 4.057
44.44000 2.013
44.48000 3.964
44.52000 4.997
44.56000 5.116
44.60000 3.013
44.64000 5.136
44.68000 2.024
44.72000 1.020
44.76000 4.114
44.80000 0.000
44.84000 3.063
44.88000 3.051
44.92000 2.979
44.96000 3.009
45.00000 2.980
45.04000 7.057
45.08000 3.108
45.12000 3.018
45.16000 3.059
45.20000 2.977
45.24000 5.028
45.28000 0.992
45.32000 3.995
45.36000 3.984
45.40000 7.036
45.44000 5.060
45.48000 3.998
45.52000 4.016
45.56000 2.971
45.60000 0.977
45.64000 3.030
45.68000 3.067
45.72000 9.139
45.76000 4.073
45.80000 1.026
45.84000 3.043
45.88000 4.081
45.92000 0.000
45.96000 3.076
46.00000 2.062
46.04000 2.993
46.08000 2.996
46.12000 4.078
46.16000 1.978
46.20000 5.141
46.24000 3.048
46.28000 2.022
46.32000 4.023
46.36000 5.068
46.40000 1.063
46.44000 3.023
46.48000 4.081
46.52000 0.985
46.56000 2.991
46.60000 3.040
46.64000 4.035
46.68000 3.033
46.72000 0.000
46.76000 3.041
46.80000 4.019
46.84000 3.062
46.88000 4.079
46.92000 3.083
46.96000 2.010
47.00000 1.007
47.04000 2.045
47.08000 2.029
47.12000 3.060
47.16000 4.012
47.20000 0.000
47.24000 5.018
47.28000 5.114
47.32000 4.116
47.36000 3.006
47.40000 0.971
47.44000 5.041
47.48000 3.061
47.52000 2.000
47.56000 2.052
47.60000 0.000
47.64000 0.994
47.68000 4.016
47.72000 8.118
47.76000 5.961
47.80000 6.095
47.84000 4.022
47.88000 2.039
47.92000 3.040
47.96000 2.062
48.00000 0.000
48.04000 3.084
48.08000 2.028
48.12000 2.013
48.16000 0.000
48.20000 4.121
48.24000 1.019
48.28000 0.998
48.32000 1.039
48.36000 2.021
48.40000 1.014
48.44000 1.948
48.48000 0.000
48.52000 6.091
48.56000 3.004
48.60000 2.033
48.64000 3.935
48.68000 6.151
48.72000 3.948
48.76000 2.977
48.80000 2.029
48.84000 6.068
48.88000 1.032
48.92000 6.064
48.96000 1.018
49.00000 2.045
49.04000 4.023
49.08000 2.039
49.12000 1.051
49.16000 4.096
49.20000 2.032
49.24000 2.079
49.28000 0.986
49.32000 4.079
49.36000 5.012
49.40000 3.046
49.44000 0.000
49.48000 5.001
49.52000 1.020
49.56000 2.027
49.60000 3.072
49.64000 3.039
49.68000 2.058
49.72000 8.056
49.76000 5.072
49.80000 3.048
49.84000 3.999
49.88000 2.003
49.92000 3.145
49.96000 2.042
50.00000 1.947
50.04000 3.034
50.08000 4.112
50.12000 2.055
50.16000 5.047
50.20000 3.005
50.24000 3.069
50.28000 2.036
50.32000 4.015
50.36000 2.008
50.40000 4.026
50.44000 2.041
50.48000 4.061
50.52000 6.047
50.56000 3.047
50.60000 2.041
50.64000 7.235
50.68000 6.103
50.72000 5.013
50.76000 4.092
50.80000 4.044
50.84000 4.058
50.88000 2.007
50.92000 3.058
50.96000 4.003
51.00000 6.084
51.04000 5.130
51.08000 1.003
51.12000 5.043
51.16000 7.003
51.20000 4.043
51.24000 0.000
51.28000 4.078
51.32000 5.086
51.36000 6.008
51.40000 2.069
51.44000 5.105
51.48000 5.119
51.52000 4.111
51.56000 6.081
51.60000 2.031
51.64000 2.033
51.68000 4.022
51.72000 2.063
51.76000 2.020
51.80000 7.013
51.84000 5.003
51.88000 8.203
51.92000 3.014
51.96000 6.077
52.00000 3.987
52.04000 3.089
52.08000 1.026
52.12000 0.995
52.16000 1.001
52.20000 4.032
52.24000 3.035
52.28000 3.026
52.32000 8.921
52.36000 7.020
52.40000 4.095
52.44000 1.982
52.48000 2.004
52.52000 6.121
52.56000 2.988
52.60000 3.090
52.64000 1.996
52.68000 4.135
52.72000 5.155
52.76000 4.100
52.80000 0.000
52.84000 5.099
52.88000 6.070
52.92000 1.981
52.96000 4.073
53.00000 4.031
53.04000 4.046
53.08000 8.099
53.12000 4.026
53.16000 3.082
53.20000 4.084
53.24000 2.057
53.28000 8.169
53.32000 5.073
53.36000 4.067
53.40000 9.184
53.44000 3.016
53.48000 3.037
53.52000 4.056
53.56000 5.081
53.60000 5.084
53.64000 2.043
53.68000 2.995
53.72000 5.046
53.76000 1.035
53.80000 4.993
53.84000 3.052
53.88000 6.064
53.92000 1.990
53.96000 3.111
54.00000 7.167
54.04000 1.994
54.08000 1.001
54.12000 2.027
54.16000 6.194
54.20000 1.006
54.24000 4.049
54.28000 4.048
54.32000 2.983
54.36000 3.057
54.40000 0.000
54.44000 2.017
54.48000 0.993
54.52000 2.040
54.56000 6.046
54.60000 3.972
54.64000 5.131
54.68000 2.999
54.72000 5.109
54.76000 5.069
54.80000 3.018
54.84000 1.016
54.88000 6.073
54.92000 5.989
54.96000 2.034
55.00000 3.134
55.04000 5.036
55.08000 3.046
55.12000 4.105
55.16000 0.982
55.20000 8.099
55.24000 4.114
55.28000 4.030
55.32000 8.230
55.36000 2.050
55.40000 1.012
55.44000 3.021
55.48000 1.983
55.52000 1.025
55.56000 2.042
55.60000 8.047
55.64000 4.060
55.68000 3.985
55.72000 4.127
55.76000 7.137
55.80000 3.122
55.84000 1.010
55.88000 1.011
55.92000 6.154
55.96000 2.032
56.00000 1.056
56.04000 4.015
56.08000 2.007
56.12000 7.090
56.16000 6.080
56.20000 3.999
56.24000 4.052
56.28000 2.069
56.32000 1.969
56.36000 1.030
56.40000 1.994
56.44000 3.047
56.48000 5.012
56.52000 2.986
56.56000 2.986
56.60000 2.031
56.64000 1.017
56.68000 1.960
56.72000 2.998
56.76000 0.997
56.80000 2.039
56.84000 3.029
56.88000 1.990
56.92000 3.057
56.96000 4.033
57.00000 1.955
57.04000 2.025
57.08000 0.990
57.12000 4.059
57.16000 4.025
57.20000 3.140
57.24000 4.125
57.28000 1.055
57.32000 3.033
57.36000 0.995
57.40000 0.000
57.44000 2.969
57.48000 6.136
57.52000 4.037
57.56000 1.006
57.60000 1.026
57.64000 4.017
57.68000 1.992
57.72000 6.081
57.76000 1.004
57.80000 0.000
57.84000 3.156
57.88000 4.116
57.92000 2.002
57.96000 1.034
58.00000 0.972
58.04000 2.995
58.08000 2.995
58.12000 2.984
58.16000 5.121
58.20000 0.995
58.24000 3.069
58.28000 0.970
58.32000 1.010
58.36000 2.968
58.40000 1.992
58.44000 1.021
58.48000 2.115
58.52000 1.006
58.56000 5.047
58.60000 5.150
58.64000 4.041
58.68000 0.000
58.72000 5.145
58.76000 3.104
58.80000 3.978
58.84000 2.062
58.88000 1.021
58.92000 3.065
58.96000 4.925
59.00000 4.045
59.04000 0.995
59.08000 4.055
59.12000 6.014
59.16000 0.986
59.20000 3.028
59.24000 2.048
59.28000 5.145
59.32000 1.979
59.36000 2.035
59.40000 4.042
59.44000 3.104
59.48000 2.090
59.52000 3.017
59.56000 2.044
59.60000 0.000
59.64000 1.008
59.68000 3.047
59.72000 1.006
59.76000 3.029
59.80000 2.998
59.84000 1.048
59.88000 1.987
59.92000 2.030
59.96000 2.989
60.00000 2.008
60.04000 2.081
60.08000 3.037
60.12000 1.969
60.16000 3.103
60.20000 2.138
60.24000 6.094
60.28000 0.000
60.32000 3.023
60.36000 4.070
60.40000 1.971
60.44000 1.994
60.48000 3.028
60.52000 2.073
60.56000 4.135
60.60000 3.000
60.64000 2.004
60.68000 3.042
60.72000 2.018
60.76000 0.000
60.80000 0.000
60.84000 4.043
60.88000 1.997
60.92000 3.026
60.96000 3.129
61.00000 5.989
61.04000 1.999
61.08000 5.962
61.12000 4.119
61.16000 3.055
61.20000 4.031
61.24000 2.031
61.28000 1.022
61.32000 5.101
61.36000 4.046
61.40000 2.056
61.44000 4.048
61.48000 3.071
61.52000 3.017
61.56000 4.075
61.60000 4.025
61.64000 0.000
61.68000 2.005
61.72000 0.000
61.76000 0.000
61.80000 4.110
61.84000 1.048
61.88000 0.982
61.92000 2.071
61.96000 0.989
62.00000 5.122
62.04000 2.928
62.08000 3.041
62.12000 2.116
62.16000 3.059
62.20000 2.039
62.24000 0.000
62.28000 2.017
62.32000 1.989
62.36000 1.033
62.40000 2.078
62.44000 0.982
62.48000 3.097
62.52000 2.026
62.56000 3.003
62.60000 2.007
62.64000 6.156
62.68000 1.035
62.72000 4.963
62.76000 2.995
62.80000 5.086
62.84000 3.991
62.88000 1.016
62.92000 1.000
62.96000 4.007
63.00000 1.969
63.04000 0.000
63.08000 3.054
63.12000 3.035
63.16000 3.038
63.20000 1.055
63.24000 0.000
63.28000 3.002
63.32000 3.033
63.36000 2.031
63.40000 2.990
63.44000 0.992
63.48000 3.001
63.52000 1.013
63.56000 1.988
63.60000 3.070
63.64000 0.000
63.68000 0.000
63.72000 0.000
63.76000 2.988
63.80000 3.017
63.84000 2.021
63.88000 0.971
63.92000 3.066
63.96000 6.037
64.00000 0.000
64.04000 3.080
64.08000 3.082
64.12000 5.088
64.16000 1.019
64.20000 4.140
64.24000 0.996
64.28000 2.046
64.32000 2.006
64.36000 7.179
64.40000 2.078
64.44000 0.977
64.48000 3.006
64.52000 5.014
64.56000 0.997
64.60000 1.017
64.64000 2.070
64.68000 3.077
64.72000 2.015
64.76000 2.036
64.80000 1.970
64.84000 3.042
64.88000 2.013
64.92000 1.012
64.96000 2.053
65.00000 3.017