File: XRD/XRD/11-09-2025/XY Data/01092025_BTO_omega_1_001_05_-8-345_-36-560.xy
20.00000 159.784
20.04000 145.140
20.08000 166.609
20.12000 153.420
20.16000 144.896
20.20000 144.513
20.24000 152.716
20.28000 164.631
20.32000 141.085
20.36000 147.374
20.40000 148.242
20.44000 141.745
20.48000 154.801
20.52000 140.162
20.56000 131.434
20.60000 124.136
20.64000 119.445
20.68000 127.693
20.72000 134.329
20.76000 120.123
20.80000 116.144
20.84000 133.363
20.88000 130.330
20.92000 116.172
20.96000 132.120
21.00000 123.410
21.04000 129.570
21.08000 105.257
21.12000 112.368
21.16000 91.891
21.20000 105.112
21.24000 117.671
21.28000 125.909
21.32000 107.281
21.36000 100.079
21.40000 110.053
21.44000 99.244
21.48000 109.864
21.52000 100.909
21.56000 78.651
21.60000 86.926
21.64000 87.574
21.68000 87.149
21.72000 95.056
21.76000 96.252
21.80000 81.030
21.84000 92.044
21.88000 73.596
21.92000 85.778
21.96000 91.859
22.00000 81.693
22.04000 89.814
22.08000 63.803
22.12000 79.854
22.16000 59.726
22.20000 58.418
22.24000 78.908
22.28000 62.701
22.32000 54.599
22.36000 49.642
22.40000 63.698
22.44000 52.625
22.48000 51.379
22.52000 45.467
22.56000 50.282
22.60000 58.339
22.64000 57.366
22.68000 51.714
22.72000 46.566
22.76000 57.853
22.80000 45.503
22.84000 44.491
22.88000 59.993
22.92000 56.734
22.96000 44.423
23.00000 39.646
23.04000 52.333
23.08000 48.310
23.12000 48.418
23.16000 50.640
23.20000 50.593
23.24000 43.358
23.28000 34.543
23.32000 41.443
23.36000 34.545
23.40000 33.513
23.44000 38.466
23.48000 45.590
23.52000 33.146
23.56000 50.489
23.60000 29.400
23.64000 36.240
23.68000 41.387
23.72000 44.447
23.76000 39.473
23.80000 26.185
23.84000 24.132
23.88000 29.353
23.92000 35.340
23.96000 32.416
24.00000 39.436
24.04000 41.430
24.08000 19.329
24.12000 34.302
24.16000 35.444
24.20000 18.241
24.24000 33.528
24.28000 34.241
24.32000 27.466
24.36000 26.332
24.40000 22.253
24.44000 31.344
24.48000 32.386
24.52000 29.468
24.56000 19.317
24.60000 31.387
24.64000 23.263
24.68000 22.192
24.72000 25.347
24.76000 22.376
24.80000 31.363
24.84000 25.350
24.88000 19.257
24.92000 24.390
24.96000 24.212
25.00000 20.213
25.04000 18.304
25.08000 21.155
25.12000 18.056
25.16000 12.971
25.20000 20.157
25.24000 19.314
25.28000 8.902
25.32000 21.331
25.36000 17.104
25.40000 22.456
25.44000 18.242
25.48000 26.377
25.52000 11.089
25.56000 17.325
25.60000 15.081
25.64000 15.274
25.68000 20.197
25.72000 21.233
25.76000 12.987
25.80000 19.199
25.84000 23.156
25.88000 23.397
25.92000 17.087
25.96000 12.082
26.00000 21.142
26.04000 18.349
26.08000 18.186
26.12000 20.078
26.16000 16.087
26.20000 24.132
26.24000 7.116
26.28000 14.143
26.32000 17.272
26.36000 15.149
26.40000 10.176
26.44000 21.228
26.48000 7.161
26.52000 17.146
26.56000 18.130
26.60000 17.426
26.64000 16.402
26.68000 15.324
26.72000 15.202
26.76000 13.208
26.80000 16.323
26.84000 18.303
26.88000 6.075
26.92000 11.261
26.96000 11.296
27.00000 17.055
27.04000 10.148
27.08000 14.253
27.12000 13.308
27.16000 14.234
27.20000 16.322
27.24000 10.102
27.28000 10.127
27.32000 14.217
27.36000 17.116
27.40000 6.049
27.44000 14.155
27.48000 6.049
27.52000 7.080
27.56000 16.103
27.60000 11.089
27.64000 11.181
27.68000 7.129
27.72000 12.109
27.76000 12.095
27.80000 14.204
27.84000 13.078
27.88000 18.291
27.92000 10.048
27.96000 6.109
28.00000 7.164
28.04000 6.065
28.08000 19.329
28.12000 12.238
28.16000 14.155
28.20000 13.247
28.24000 16.151
28.28000 17.197
28.32000 11.209
28.36000 16.116
28.40000 14.147
28.44000 11.115
28.48000 7.094
28.52000 15.181
28.56000 2.057
28.60000 11.188
28.64000 10.073
28.68000 11.225
28.72000 9.112
28.76000 18.256
28.80000 15.143
28.84000 13.231
28.88000 13.043
28.92000 7.138
28.96000 9.065
29.00000 9.014
29.04000 11.017
29.08000 13.082
29.12000 10.030
29.16000 7.112
29.20000 9.245
29.24000 16.049
29.28000 10.080
29.32000 4.053
29.36000 10.169
29.40000 8.142
29.44000 8.096
29.48000 14.113
29.52000 7.142
29.56000 4.016
29.60000 16.036
29.64000 9.036
29.68000 11.221
29.72000 13.218
29.76000 9.113
29.80000 10.108
29.84000 8.017
29.88000 8.104
29.92000 4.055
29.96000 12.124
30.00000 16.044
30.04000 12.109
30.08000 11.269
30.12000 9.148
30.16000 14.446
30.20000 9.171
30.24000 13.180
30.28000 9.091
30.32000 9.111
30.36000 7.135
30.40000 6.050
30.44000 10.154
30.48000 6.011
30.52000 19.241
30.56000 8.052
30.60000 11.237
30.64000 12.175
30.68000 9.088
30.72000 10.200
30.76000 9.149
30.80000 8.069
30.84000 10.139
30.88000 5.141
30.92000 9.181
30.96000 8.248
31.00000 8.205
31.04000 17.270
31.08000 9.125
31.12000 4.087
31.16000 8.135
31.20000 9.089
31.24000 6.058
31.28000 6.139
31.32000 11.122
31.36000 8.079
31.40000 9.073
31.44000 6.165
31.48000 7.069
31.52000 8.135
31.56000 16.179
31.60000 12.133
31.64000 3.997
31.68000 11.198
31.72000 7.157
31.76000 5.044
31.80000 9.118
31.84000 15.046
31.88000 10.123
31.92000 5.079
31.96000 7.081
32.00000 5.006
32.04000 4.062
32.08000 8.097
32.12000 4.089
32.16000 4.024
32.20000 6.008
32.24000 7.133
32.28000 5.074
32.32000 8.127
32.36000 6.127
32.40000 14.216
32.44000 7.046
32.48000 11.106
32.52000 5.037
32.56000 8.092
32.60000 5.987
32.64000 8.176
32.68000 7.017
32.72000 7.032
32.76000 8.117
32.80000 14.198
32.84000 7.997
32.88000 8.151
32.92000 5.117
32.96000 9.186
33.00000 5.062
33.04000 5.073
33.08000 6.005
33.12000 7.181
33.16000 4.044
33.20000 9.158
33.24000 7.081
33.28000 8.160
33.32000 4.053
33.36000 8.160
33.40000 10.170
33.44000 8.175
33.48000 5.072
33.52000 9.157
33.56000 4.062
33.60000 8.087
33.64000 12.100
33.68000 3.108
33.72000 8.063
33.76000 13.205
33.80000 6.104
33.84000 9.077
33.88000 4.986
33.92000 8.076
33.96000 7.079
34.00000 6.106
34.04000 6.964
34.08000 8.127
34.12000 8.097
34.16000 10.118
34.20000 7.146
34.24000 10.214
34.28000 5.053
34.32000 6.064
34.36000 10.240
34.40000 11.159
34.44000 12.043
34.48000 6.982
34.52000 3.068
34.56000 8.090
34.60000 6.027
34.64000 6.971
34.68000 10.029
34.72000 1.986
34.76000 4.075
34.80000 3.148
34.84000 6.151
34.88000 10.045
34.92000 3.120
34.96000 6.052
35.00000 8.164
35.04000 8.135
35.08000 8.104
35.12000 5.020
35.16000 0.982
35.20000 10.112
35.24000 4.065
35.28000 2.021
35.32000 4.050
35.36000 6.145
35.40000 5.138
35.44000 6.075
35.48000 6.052
35.52000 6.137
35.56000 10.149
35.60000 4.097
35.64000 5.065
35.68000 5.048
35.72000 5.061
35.76000 3.011
35.80000 6.039
35.84000 6.076
35.88000 8.169
35.92000 3.024
35.96000 8.107
36.00000 6.112
36.04000 7.132
36.08000 10.064
36.12000 7.996
36.16000 4.034
36.20000 6.102
36.24000 7.012
36.28000 9.083
36.32000 4.083
36.36000 1.983
36.40000 5.999
36.44000 11.032
36.48000 6.111
36.52000 6.966
36.56000 4.138
36.60000 5.994
36.64000 3.998
36.68000 5.017
36.72000 4.073
36.76000 5.146
36.80000 6.001
36.84000 7.954
36.88000 6.040
36.92000 5.072
36.96000 5.138
37.00000 1.013
37.04000 2.056
37.08000 5.065
37.12000 7.021
37.16000 6.093
37.20000 7.098
37.24000 5.046
37.28000 4.040
37.32000 3.002
37.36000 5.017
37.40000 9.172
37.44000 7.056
37.48000 2.061
37.52000 8.069
37.56000 8.993
37.60000 5.197
37.64000 4.089
37.68000 7.072
37.72000 3.990
37.76000 3.007
37.80000 2.966
37.84000 3.012
37.88000 5.111
37.92000 6.226
37.96000 8.091
38.00000 3.118
38.04000 6.045
38.08000 8.016
38.12000 6.051
38.16000 7.028
38.20000 3.090
38.24000 6.222
38.28000 10.074
38.32000 3.989
38.36000 5.054
38.40000 5.119
38.44000 2.009
38.48000 3.017
38.52000 2.007
38.56000 2.041
38.60000 2.022
38.64000 7.097
38.68000 6.079
38.72000 5.118
38.76000 4.135
38.80000 3.015
38.84000 5.080
38.88000 5.054
38.92000 2.028
38.96000 1.004
39.00000 2.094
39.04000 7.079
39.08000 7.051
39.12000 3.998
39.16000 4.057
39.20000 2.022
39.24000 5.212
39.28000 7.117
39.32000 8.118
39.36000 1.994
39.40000 5.159
39.44000 1.990
39.48000 4.995
39.52000 1.027
39.56000 9.052
39.60000 5.063
39.64000 3.052
39.68000 5.994
39.72000 6.140
39.76000 3.023
39.80000 7.045
39.84000 3.080
39.88000 3.036
39.92000 6.093
39.96000 4.005
40.00000 6.080
40.04000 5.180
40.08000 2.078
40.12000 3.052
40.16000 6.057
40.20000 6.108
40.24000 7.082
40.28000 2.962
40.32000 4.054
40.36000 6.079
40.40000 3.136
40.44000 4.996
40.48000 7.184
40.52000 6.042
40.56000 9.166
40.60000 3.045
40.64000 7.064
40.68000 5.000
40.72000 11.021
40.76000 7.102
40.80000 6.044
40.84000 3.051
40.88000 4.026
40.92000 2.011
40.96000 2.999
41.00000 4.089
41.04000 5.040
41.08000 1.063
41.12000 6.013
41.16000 0.999
41.20000 4.062
41.24000 4.087
41.28000 4.090
41.32000 7.040
41.36000 4.006
41.40000 2.018
41.44000 3.995
41.48000 1.012
41.52000 4.040
41.56000 7.163
41.60000 2.046
41.64000 3.021
41.68000 4.088
41.72000 5.031
41.76000 5.079
41.80000 4.040
41.84000 5.058
41.88000 3.117
41.92000 4.013
41.96000 5.109
42.00000 2.023
42.04000 4.022
42.08000 4.011
42.12000 3.041
42.16000 7.084
42.20000 4.025
42.24000 1.974
42.28000 4.038
42.32000 3.071
42.36000 1.995
42.40000 5.127
42.44000 0.981
42.48000 4.015
42.52000 3.023
42.56000 3.022
42.60000 5.047
42.64000 5.080
42.68000 4.035
42.72000 2.049
42.76000 6.036
42.80000 7.035
42.84000 5.108
42.88000 2.970
42.92000 5.036
42.96000 4.062
43.00000 4.055
43.04000 2.984
43.08000 2.070
43.12000 5.150
43.16000 4.023
43.20000 5.924
43.24000 2.977
43.28000 3.058
43.32000 2.021
43.36000 4.100
43.40000 1.023
43.44000 3.098
43.48000 5.126
43.52000 5.010
43.56000 2.004
43.60000 6.042
43.64000 7.161
43.68000 5.127
43.72000 4.015
43.76000 2.997
43.80000 4.006
43.84000 6.097
43.88000 1.994
43.92000 6.098
43.96000 2.054
44.00000 4.111
44.04000 1.002
44.08000 3.014
44.12000 3.089
44.16000 9.058
44.20000 2.980
44.24000 1.044
44.28000 5.178
44.32000 2.006
44.36000 3.027
44.40000 3.982
44.44000 4.024
44.48000 0.000
44.52000 3.981
44.56000 2.064
44.60000 6.032
44.64000 6.059
44.68000 5.073
44.72000 1.002
44.76000 5.050
44.80000 4.003
44.84000 3.007
44.88000 2.023
44.92000 0.982
44.96000 3.083
45.00000 4.049
45.04000 0.990
45.08000 3.078
45.12000 6.048
45.16000 4.130
45.20000 1.995
45.24000 6.945
45.28000 1.980
45.32000 1.999
45.36000 2.035
45.40000 2.001
45.44000 4.144
45.48000 3.988
45.52000 7.055
45.56000 3.026
45.60000 3.055
45.64000 1.045
45.68000 6.114
45.72000 3.013
45.76000 7.153
45.80000 2.066
45.84000 0.000
45.88000 5.023
45.92000 4.057
45.96000 4.033
46.00000 3.030
46.04000 5.074
46.08000 4.041
46.12000 1.999
46.16000 5.088
46.20000 7.035
46.24000 4.110
46.28000 4.059
46.32000 5.093
46.36000 7.116
46.40000 1.029
46.44000 3.004
46.48000 5.052
46.52000 1.000
46.56000 5.082
46.60000 1.961
46.64000 7.096
46.68000 5.000
46.72000 0.000
46.76000 3.022
46.80000 5.123
46.84000 1.996
46.88000 0.987
46.92000 0.996
46.96000 3.007
47.00000 4.108
47.04000 3.031
47.08000 3.167
47.12000 6.084
47.16000 3.047
47.20000 1.030
47.24000 3.052
47.28000 1.035
47.32000 4.998
47.36000 1.011
47.40000 4.095
47.44000 5.019
47.48000 1.041
47.52000 6.060
47.56000 5.010
47.60000 4.986
47.64000 0.993
47.68000 5.024
47.72000 1.015
47.76000 4.089
47.80000 1.028
47.84000 1.997
47.88000 3.008
47.92000 4.015
47.96000 3.020
48.00000 2.007
48.04000 0.978
48.08000 3.058
48.12000 5.104
48.16000 5.078
48.20000 2.047
48.24000 0.996
48.28000 1.973
48.32000 0.000
48.36000 4.023
48.40000 1.009
48.44000 3.113
48.48000 4.064
48.52000 3.000
48.56000 3.010
48.60000 4.000
48.64000 3.020
48.68000 5.074
48.72000 5.126
48.76000 4.137
48.80000 1.003
48.84000 1.969
48.88000 1.991
48.92000 6.026
48.96000 3.081
49.00000 0.000
49.04000 4.004
49.08000 3.018
49.12000 3.055
49.16000 5.047
49.20000 1.982
49.24000 3.068
49.28000 2.995
49.32000 1.004
49.36000 1.028
49.40000 6.042
49.44000 3.045
49.48000 1.045
49.52000 2.063
49.56000 3.990
49.60000 1.963
49.64000 2.118
49.68000 1.044
49.72000 1.001
49.76000 1.034
49.80000 5.190
49.84000 4.988
49.88000 1.020
49.92000 1.977
49.96000 3.126
50.00000 3.039
50.04000 5.057
50.08000 1.978
50.12000 4.040
50.16000 1.986
50.20000 2.988
50.24000 0.982
50.28000 3.047
50.32000 8.045
50.36000 1.036
50.40000 3.011
50.44000 3.085
50.48000 5.090
50.52000 1.990
50.56000 1.066
50.60000 1.037
50.64000 3.972
50.68000 1.008
50.72000 1.960
50.76000 0.000
50.80000 0.000
50.84000 3.082
50.88000 2.045
50.92000 2.062
50.96000 1.989
51.00000 2.000
51.04000 7.120
51.08000 2.989
51.12000 4.054
51.16000 5.104
51.20000 0.000
51.24000 3.120
51.28000 2.109
51.32000 5.046
51.36000 3.011
51.40000 0.000
51.44000 4.059
51.48000 1.024
51.52000 6.088
51.56000 2.020
51.60000 2.047
51.64000 1.039
51.68000 3.028
51.72000 4.037
51.76000 1.972
51.80000 2.064
51.84000 2.039
51.88000 2.028
51.92000 3.072
51.96000 7.075
52.00000 3.055
52.04000 1.001
52.08000 1.029
52.12000 7.041
52.16000 1.007
52.20000 1.008
52.24000 2.976
52.28000 1.063
52.32000 2.993
52.36000 4.034
52.40000 2.052
52.44000 1.019
52.48000 8.143
52.52000 0.000
52.56000 3.104
52.60000 1.010
52.64000 1.996
52.68000 0.000
52.72000 6.030
52.76000 2.034
52.80000 1.987
52.84000 0.991
52.88000 1.006
52.92000 0.985
52.96000 3.040
53.00000 0.992
53.04000 2.063
53.08000 0.979
53.12000 0.993
53.16000 1.042
53.20000 2.025
53.24000 5.060
53.28000 0.000
53.32000 4.014
53.36000 6.121
53.40000 3.053
53.44000 3.092
53.48000 1.019
53.52000 1.016
53.56000 3.064
53.60000 0.981
53.64000 1.026
53.68000 2.967
53.72000 4.044
53.76000 2.032
53.80000 4.045
53.84000 6.204
53.88000 1.004
53.92000 5.069
53.96000 1.998
54.00000 0.000
54.04000 3.970
54.08000 4.073
54.12000 2.015
54.16000 2.993
54.20000 1.003
54.24000 7.096
54.28000 0.996
54.32000 3.005
54.36000 4.081
54.40000 0.984
54.44000 4.130
54.48000 3.016
54.52000 1.039
54.56000 0.984
54.60000 3.052
54.64000 1.014
54.68000 5.108
54.72000 3.079
54.76000 1.988
54.80000 0.000
54.84000 0.989
54.88000 0.000
54.92000 4.093
54.96000 0.990
55.00000 1.045
55.04000 2.006
55.08000 1.061
55.12000 4.993
55.16000 1.013
55.20000 4.055
55.24000 5.226
55.28000 5.159
55.32000 1.002
55.36000 4.123
55.40000 1.010
55.44000 4.068
55.48000 1.981
55.52000 0.997
55.56000 4.041
55.60000 3.014
55.64000 1.007
55.68000 5.066
55.72000 2.017
55.76000 4.116
55.80000 5.000
55.84000 3.013
55.88000 4.130
55.92000 0.000
55.96000 1.999
56.00000 3.997
56.04000 1.012
56.08000 2.969
56.12000 4.025
56.16000 2.107
56.20000 2.980
56.24000 2.096
56.28000 0.000
56.32000 3.083
56.36000 4.102
56.40000 2.030
56.44000 1.015
56.48000 1.005
56.52000 0.994
56.56000 3.079
56.60000 2.043
56.64000 3.017
56.68000 3.061
56.72000 2.002
56.76000 1.982
56.80000 4.098
56.84000 2.010
56.88000 6.038
56.92000 2.055
56.96000 1.027
57.00000 1.967
57.04000 1.025
57.08000 0.000
57.12000 1.996
57.16000 2.991
57.20000 0.000
57.24000 0.984
57.28000 2.016
57.32000 1.974
57.36000 0.000
57.40000 2.031
57.44000 0.000
57.48000 2.971
57.52000 0.991
57.56000 0.000
57.60000 3.082
57.64000 1.002
57.68000 1.979
57.72000 2.032
57.76000 4.057
57.80000 1.044
57.84000 2.982
57.88000 3.105
57.92000 1.036
57.96000 2.979
58.00000 1.046
58.04000 1.000
58.08000 1.055
58.12000 3.048
58.16000 2.012
58.20000 3.064
58.24000 2.056
58.28000 2.006
58.32000 4.080
58.36000 2.060
58.40000 2.027
58.44000 0.996
58.48000 4.048
58.52000 1.963
58.56000 2.076
58.60000 0.990
58.64000 3.080
58.68000 1.039
58.72000 0.000
58.76000 0.993
58.80000 1.047
58.84000 5.078
58.88000 4.188
58.92000 1.033
58.96000 1.015
59.00000 0.000
59.04000 4.087
59.08000 5.042
59.12000 1.981
59.16000 3.061
59.20000 0.000
59.24000 0.000
59.28000 0.977
59.32000 0.000
59.36000 1.024
59.40000 5.071
59.44000 2.056
59.48000 2.059
59.52000 1.058
59.56000 1.005
59.60000 3.012
59.64000 4.087
59.68000 1.028
59.72000 3.042
59.76000 2.065
59.80000 2.974
59.84000 3.033
59.88000 3.001
59.92000 2.082
59.96000 2.989
60.00000 1.980
60.04000 4.000
60.08000 7.115
60.12000 0.967
60.16000 2.084
60.20000 2.032
60.24000 2.008
60.28000 0.000
60.32000 3.009
60.36000 2.930
60.40000 3.042
60.44000 3.983
60.48000 3.036
60.52000 3.073
60.56000 0.989
60.60000 2.014
60.64000 1.067
60.68000 4.101
60.72000 0.980
60.76000 2.031
60.80000 3.042
60.84000 3.050
60.88000 0.000
60.92000 3.023
60.96000 3.019
61.00000 1.981
61.04000 0.979
61.08000 4.011
61.12000 3.087
61.16000 2.000
61.20000 5.025
61.24000 2.076
61.28000 3.064
61.32000 1.973
61.36000 4.009
61.40000 1.985
61.44000 0.981
61.48000 0.995
61.52000 4.101
61.56000 4.013
61.60000 2.007
61.64000 5.055
61.68000 2.003
61.72000 0.000
61.76000 2.038
61.80000 2.043
61.84000 1.992
61.88000 3.044
61.92000 3.983
61.96000 4.039
62.00000 1.033
62.04000 1.041
62.08000 0.980
62.12000 2.039
62.16000 6.081
62.20000 2.017
62.24000 3.067
62.28000 2.031
62.32000 0.000
62.36000 3.046
62.40000 1.012
62.44000 2.041
62.48000 2.018
62.52000 1.020
62.56000 0.000
62.60000 2.032
62.64000 1.021
62.68000 3.048
62.72000 0.000
62.76000 2.972
62.80000 2.038
62.84000 1.991
62.88000 0.000
62.92000 4.988
62.96000 3.002
63.00000 2.024
63.04000 1.025
63.08000 2.031
63.12000 3.109
63.16000 3.051
63.20000 1.984
63.24000 2.017
63.28000 0.000
63.32000 1.043
63.36000 1.020
63.40000 5.015
63.44000 2.061
63.48000 3.026
63.52000 2.000
63.56000 3.997
63.60000 0.000
63.64000 1.039
63.68000 0.000
63.72000 2.053
63.76000 1.000
63.80000 1.982
63.84000 3.016
63.88000 4.021
63.92000 2.969
63.96000 3.037
64.00000 3.090
64.04000 0.000
64.08000 2.074
64.12000 3.092
64.16000 1.992
64.20000 1.063
64.24000 2.007
64.28000 2.031
64.32000 1.981
64.36000 0.000
64.40000 0.000
64.44000 2.014
64.48000 2.053
64.52000 1.017
64.56000 0.998
64.60000 1.010
64.64000 1.003
64.68000 3.017
64.72000 0.000
64.76000 1.046
64.80000 2.015
64.84000 0.990
64.88000 4.049
64.92000 3.101
64.96000 1.021
65.00000 0.000