File: XRD/XRD/11-09-2025/XY Data/01092025_BTO_omega_1_001_02_11-126_-48-746.xy
20.00000 76.965
20.04000 94.807
20.08000 89.845
20.12000 87.463
20.16000 74.529
20.20000 88.799
20.24000 62.973
20.28000 79.945
20.32000 87.661
20.36000 67.689
20.40000 79.077
20.44000 91.897
20.48000 76.741
20.52000 57.594
20.56000 80.875
20.60000 71.475
20.64000 85.903
20.68000 78.475
20.72000 68.931
20.76000 71.891
20.80000 73.576
20.84000 63.788
20.88000 73.964
20.92000 74.768
20.96000 83.985
21.00000 78.869
21.04000 65.706
21.08000 63.051
21.12000 81.792
21.16000 50.355
21.20000 67.687
21.24000 48.353
21.28000 54.718
21.32000 63.874
21.36000 62.572
21.40000 82.746
21.44000 81.997
21.48000 55.318
21.52000 69.420
21.56000 41.535
21.60000 57.483
21.64000 45.662
21.68000 61.529
21.72000 50.552
21.76000 50.202
21.80000 47.331
21.84000 54.662
21.88000 51.451
21.92000 40.390
21.96000 59.743
22.00000 58.832
22.04000 51.510
22.08000 54.460
22.12000 44.342
22.16000 54.311
22.20000 41.348
22.24000 49.318
22.28000 36.442
22.32000 60.638
22.36000 50.452
22.40000 44.353
22.44000 39.329
22.48000 45.462
22.52000 45.415
22.56000 39.498
22.60000 42.390
22.64000 51.602
22.68000 47.587
22.72000 30.405
22.76000 31.379
22.80000 60.245
22.84000 43.269
22.88000 31.132
22.92000 35.867
22.96000 44.751
23.00000 34.501
23.04000 47.341
23.08000 44.799
23.12000 33.328
23.16000 40.367
23.20000 37.604
23.24000 33.092
23.28000 42.748
23.32000 29.297
23.36000 33.296
23.40000 25.283
23.44000 30.269
23.48000 25.353
23.52000 31.452
23.56000 46.626
23.60000 33.477
23.64000 22.057
23.68000 28.227
23.72000 32.233
23.76000 32.141
23.80000 26.202
23.84000 27.158
23.88000 21.273
23.92000 30.398
23.96000 29.447
24.00000 23.342
24.04000 24.265
24.08000 30.340
24.12000 27.494
24.16000 29.342
24.20000 28.270
24.24000 26.274
24.28000 32.413
24.32000 19.299
24.36000 19.052
24.40000 17.177
24.44000 18.141
24.48000 27.314
24.52000 18.415
24.56000 25.259
24.60000 20.311
24.64000 22.508
24.68000 27.442
24.72000 25.273
24.76000 25.323
24.80000 20.146
24.84000 23.386
24.88000 18.393
24.92000 19.953
24.96000 19.225
25.00000 18.148
25.04000 15.343
25.08000 22.347
25.12000 21.340
25.16000 14.278
25.20000 17.357
25.24000 9.151
25.28000 18.142
25.32000 22.281
25.36000 17.220
25.40000 24.358
25.44000 18.007
25.48000 10.164
25.52000 21.333
25.56000 12.288
25.60000 14.157
25.64000 17.198
25.68000 18.479
25.72000 25.235
25.76000 15.021
25.80000 18.312
25.84000 15.277
25.88000 20.374
25.92000 13.251
25.96000 21.339
26.00000 19.226
26.04000 21.371
26.08000 16.268
26.12000 25.504
26.16000 10.180
26.20000 10.271
26.24000 11.064
26.28000 17.114
26.32000 13.119
26.36000 14.222
26.40000 7.138
26.44000 9.210
26.48000 8.061
26.52000 23.404
26.56000 16.302
26.60000 15.196
26.64000 10.104
26.68000 10.074
26.72000 9.124
26.76000 14.355
26.80000 17.356
26.84000 8.147
26.88000 19.188
26.92000 13.264
26.96000 10.191
27.00000 19.273
27.04000 8.179
27.08000 13.344
27.12000 5.013
27.16000 10.177
27.20000 13.211
27.24000 17.245
27.28000 14.149
27.32000 10.129
27.36000 13.168
27.40000 13.095
27.44000 15.182
27.48000 10.113
27.52000 16.290
27.56000 11.180
27.60000 9.142
27.64000 10.080
27.68000 15.158
27.72000 8.110
27.76000 13.096
27.80000 11.160
27.84000 8.123
27.88000 7.135
27.92000 10.201
27.96000 7.075
28.00000 15.129
28.04000 11.081
28.08000 11.115
28.12000 8.193
28.16000 8.155
28.20000 9.103
28.24000 10.972
28.28000 15.227
28.32000 9.245
28.36000 11.202
28.40000 12.166
28.44000 11.218
28.48000 8.242
28.52000 6.106
28.56000 11.261
28.60000 9.033
28.64000 10.180
28.68000 8.083
28.72000 4.056
28.76000 7.119
28.80000 12.056
28.84000 12.187
28.88000 14.128
28.92000 10.134
28.96000 11.292
29.00000 10.231
29.04000 5.075
29.08000 8.137
29.12000 11.100
29.16000 7.118
29.20000 11.098
29.24000 10.169
29.28000 12.077
29.32000 11.134
29.36000 11.210
29.40000 6.007
29.44000 8.970
29.48000 6.126
29.52000 8.300
29.56000 8.081
29.60000 4.018
29.64000 14.145
29.68000 6.111
29.72000 8.072
29.76000 11.292
29.80000 9.265
29.84000 8.129
29.88000 13.188
29.92000 8.222
29.96000 11.073
30.00000 6.056
30.04000 5.043
30.08000 11.232
30.12000 8.127
30.16000 6.117
30.20000 10.204
30.24000 10.061
30.28000 5.064
30.32000 7.027
30.36000 11.262
30.40000 7.008
30.44000 11.061
30.48000 9.161
30.52000 9.080
30.56000 5.122
30.60000 8.102
30.64000 9.102
30.68000 9.149
30.72000 6.074
30.76000 6.068
30.80000 7.033
30.84000 11.143
30.88000 6.076
30.92000 4.117
30.96000 9.220
31.00000 12.199
31.04000 11.206
31.08000 6.145
31.12000 11.284
31.16000 6.034
31.20000 9.117
31.24000 9.079
31.28000 7.064
31.32000 8.156
31.36000 11.201
31.40000 4.032
31.44000 7.146
31.48000 12.168
31.52000 12.272
31.56000 6.037
31.60000 5.063
31.64000 19.372
31.68000 9.187
31.72000 6.056
31.76000 8.987
31.80000 11.182
31.84000 6.002
31.88000 9.159
31.92000 7.090
31.96000 8.053
32.00000 10.096
32.04000 8.199
32.08000 9.317
32.12000 9.229
32.16000 8.099
32.20000 5.041
32.24000 4.051
32.28000 5.080
32.32000 3.972
32.36000 11.133
32.40000 7.162
32.44000 1.994
32.48000 7.008
32.52000 11.112
32.56000 5.049
32.60000 4.975
32.64000 5.090
32.68000 7.083
32.72000 17.286
32.76000 6.095
32.80000 5.091
32.84000 7.083
32.88000 8.067
32.92000 4.165
32.96000 6.125
33.00000 8.173
33.04000 6.136
33.08000 6.091
33.12000 12.117
33.16000 7.147
33.20000 9.180
33.24000 6.020
33.28000 5.117
33.32000 10.053
33.36000 6.137
33.40000 7.042
33.44000 4.087
33.48000 6.082
33.52000 6.097
33.56000 5.012
33.60000 10.037
33.64000 9.161
33.68000 3.045
33.72000 5.018
33.76000 9.109
33.80000 6.067
33.84000 5.030
33.88000 7.125
33.92000 1.035
33.96000 6.062
34.00000 8.191
34.04000 5.108
34.08000 5.103
34.12000 5.081
34.16000 1.975
34.20000 2.048
34.24000 4.053
34.28000 5.107
34.32000 6.096
34.36000 3.072
34.40000 8.218
34.44000 6.033
34.48000 0.987
34.52000 5.072
34.56000 3.050
34.60000 4.054
34.64000 9.347
34.68000 6.038
34.72000 7.101
34.76000 3.046
34.80000 12.248
34.84000 7.045
34.88000 9.182
34.92000 5.162
34.96000 6.112
35.00000 5.991
35.04000 0.990
35.08000 6.096
35.12000 0.000
35.16000 4.003
35.20000 4.939
35.24000 5.071
35.28000 7.105
35.32000 7.015
35.36000 7.213
35.40000 5.016
35.44000 5.032
35.48000 5.095
35.52000 3.019
35.56000 8.087
35.60000 5.065
35.64000 6.103
35.68000 2.970
35.72000 4.046
35.76000 4.070
35.80000 5.053
35.84000 2.062
35.88000 6.098
35.92000 4.030
35.96000 3.036
36.00000 13.227
36.04000 5.086
36.08000 8.058
36.12000 8.057
36.16000 4.052
36.20000 6.201
36.24000 6.094
36.28000 6.058
36.32000 6.094
36.36000 4.053
36.40000 6.112
36.44000 9.156
36.48000 4.020
36.52000 7.189
36.56000 5.052
36.60000 4.093
36.64000 3.985
36.68000 6.131
36.72000 6.006
36.76000 6.032
36.80000 7.051
36.84000 6.094
36.88000 8.034
36.92000 1.985
36.96000 3.044
37.00000 2.050
37.04000 1.095
37.08000 10.169
37.12000 5.105
37.16000 2.019
37.20000 8.133
37.24000 2.116
37.28000 5.982
37.32000 11.187
37.36000 4.043
37.40000 3.044
37.44000 12.058
37.48000 5.098
37.52000 3.068
37.56000 4.023
37.60000 6.288
37.64000 5.059
37.68000 6.162
37.72000 8.234
37.76000 5.122
37.80000 9.096
37.84000 6.066
37.88000 3.102
37.92000 5.095
37.96000 2.006
38.00000 6.141
38.04000 3.116
38.08000 2.009
38.12000 4.061
38.16000 3.006
38.20000 5.076
38.24000 4.072
38.28000 6.051
38.32000 2.975
38.36000 2.033
38.40000 3.019
38.44000 4.989
38.48000 3.098
38.52000 4.035
38.56000 4.017
38.60000 2.011
38.64000 2.050
38.68000 1.971
38.72000 6.141
38.76000 6.223
38.80000 5.061
38.84000 4.090
38.88000 1.038
38.92000 4.126
38.96000 2.017
39.00000 4.116
39.04000 1.988
39.08000 6.077
39.12000 6.121
39.16000 4.161
39.20000 8.171
39.24000 5.097
39.28000 4.041
39.32000 9.348
39.36000 4.040
39.40000 6.087
39.44000 3.013
39.48000 8.055
39.52000 7.061
39.56000 3.059
39.60000 2.052
39.64000 2.059
39.68000 6.959
39.72000 3.978
39.76000 2.044
39.80000 6.025
39.84000 2.032
39.88000 4.015
39.92000 5.966
39.96000 6.083
40.00000 11.126
40.04000 1.989
40.08000 5.057
40.12000 5.079
40.16000 10.125
40.20000 5.018
40.24000 1.000
40.28000 4.002
40.32000 3.030
40.36000 4.124
40.40000 4.031
40.44000 0.985
40.48000 3.018
40.52000 3.024
40.56000 4.094
40.60000 3.008
40.64000 4.035
40.68000 5.188
40.72000 5.041
40.76000 3.061
40.80000 2.108
40.84000 4.096
40.88000 2.022
40.92000 7.085
40.96000 6.124
41.00000 2.017
41.04000 3.072
41.08000 1.961
41.12000 2.029
41.16000 3.980
41.20000 2.041
41.24000 4.036
41.28000 3.021
41.32000 3.066
41.36000 4.042
41.40000 0.000
41.44000 3.041
41.48000 4.011
41.52000 6.075
41.56000 3.042
41.60000 4.046
41.64000 3.016
41.68000 3.074
41.72000 5.102
41.76000 5.099
41.80000 5.045
41.84000 4.974
41.88000 6.092
41.92000 2.045
41.96000 3.971
42.00000 4.170
42.04000 0.000
42.08000 8.194
42.12000 5.183
42.16000 5.139
42.20000 7.045
42.24000 4.090
42.28000 0.977
42.32000 3.017
42.36000 6.074
42.40000 6.101
42.44000 3.062
42.48000 3.026
42.52000 6.047
42.56000 2.016
42.60000 6.099
42.64000 4.018
42.68000 4.038
42.72000 4.080
42.76000 4.087
42.80000 4.149
42.84000 4.987
42.88000 0.986
42.92000 5.073
42.96000 7.112
43.00000 2.986
43.04000 5.076
43.08000 2.040
43.12000 6.090
43.16000 3.954
43.20000 2.995
43.24000 2.016
43.28000 4.078
43.32000 1.047
43.36000 7.202
43.40000 2.076
43.44000 5.013
43.48000 3.995
43.52000 6.096
43.56000 3.062
43.60000 5.002
43.64000 0.990
43.68000 1.024
43.72000 3.126
43.76000 1.026
43.80000 3.043
43.84000 6.008
43.88000 3.039
43.92000 2.955
43.96000 2.017
44.00000 2.958
44.04000 4.013
44.08000 5.055
44.12000 2.075
44.16000 4.039
44.20000 4.031
44.24000 1.015
44.28000 5.090
44.32000 4.042
44.36000 3.063
44.40000 1.990
44.44000 2.997
44.48000 5.052
44.52000 3.069
44.56000 2.001
44.60000 1.031
44.64000 2.032
44.68000 4.024
44.72000 2.011
44.76000 3.058
44.80000 5.129
44.84000 3.030
44.88000 1.979
44.92000 7.036
44.96000 6.032
45.00000 2.039
45.04000 1.982
45.08000 4.050
45.12000 5.161
45.16000 6.029
45.20000 4.053
45.24000 2.995
45.28000 6.138
45.32000 3.989
45.36000 4.062
45.40000 2.040
45.44000 3.008
45.48000 1.006
45.52000 3.101
45.56000 0.000
45.60000 1.999
45.64000 3.025
45.68000 5.089
45.72000 3.082
45.76000 6.101
45.80000 3.995
45.84000 0.000
45.88000 0.000
45.92000 4.038
45.96000 6.082
46.00000 0.988
46.04000 4.088
46.08000 0.000
46.12000 4.036
46.16000 8.061
46.20000 1.993
46.24000 5.020
46.28000 1.030
46.32000 4.042
46.36000 1.035
46.40000 2.006
46.44000 3.091
46.48000 4.078
46.52000 3.196
46.56000 0.983
46.60000 2.989
46.64000 1.041
46.68000 1.027
46.72000 3.040
46.76000 5.028
46.80000 0.000
46.84000 6.069
46.88000 4.121
46.92000 1.972
46.96000 4.056
47.00000 5.052
47.04000 4.120
47.08000 0.000
47.12000 3.036
47.16000 0.000
47.20000 1.976
47.24000 0.986
47.28000 1.031
47.32000 6.105
47.36000 1.041
47.40000 5.100
47.44000 2.035
47.48000 5.044
47.52000 1.979
47.56000 2.028
47.60000 3.046
47.64000 0.000
47.68000 2.050
47.72000 3.067
47.76000 3.072
47.80000 2.093
47.84000 3.016
47.88000 6.060
47.92000 5.081
47.96000 1.030
48.00000 5.086
48.04000 2.020
48.08000 4.011
48.12000 3.081
48.16000 5.042
48.20000 3.096
48.24000 0.000
48.28000 0.000
48.32000 3.019
48.36000 2.082
48.40000 0.992
48.44000 4.054
48.48000 3.060
48.52000 4.013
48.56000 5.082
48.60000 2.022
48.64000 3.043
48.68000 3.018
48.72000 5.024
48.76000 2.084
48.80000 2.050
48.84000 1.002
48.88000 1.999
48.92000 3.000
48.96000 2.029
49.00000 4.011
49.04000 2.020
49.08000 0.968
49.12000 4.073
49.16000 2.079
49.20000 3.026
49.24000 1.021
49.28000 2.054
49.32000 1.044
49.36000 4.026
49.40000 3.058
49.44000 2.020
49.48000 1.047
49.52000 3.110
49.56000 2.008
49.60000 1.043
49.64000 2.032
49.68000 3.128
49.72000 4.023
49.76000 2.015
49.80000 2.018
49.84000 1.997
49.88000 3.001
49.92000 2.991
49.96000 1.984
50.00000 1.012
50.04000 1.048
50.08000 2.002
50.12000 3.040
50.16000 2.018
50.20000 0.000
50.24000 3.052
50.28000 4.030
50.32000 2.027
50.36000 1.998
50.40000 5.053
50.44000 1.015
50.48000 2.028
50.52000 2.996
50.56000 0.000
50.60000 2.015
50.64000 1.994
50.68000 2.063
50.72000 2.016
50.76000 1.031
50.80000 2.009
50.84000 2.072
50.88000 3.022
50.92000 4.069
50.96000 5.157
51.00000 4.037
51.04000 2.007
51.08000 2.035
51.12000 1.997
51.16000 1.006
51.20000 0.000
51.24000 1.967
51.28000 3.068
51.32000 5.028
51.36000 5.061
51.40000 3.035
51.44000 4.058
51.48000 2.039
51.52000 1.033
51.56000 5.046
51.60000 3.064
51.64000 2.064
51.68000 1.994
51.72000 0.000
51.76000 3.025
51.80000 4.038
51.84000 2.027
51.88000 1.996
51.92000 4.058
51.96000 0.991
52.00000 3.028
52.04000 2.020
52.08000 2.083
52.12000 2.066
52.16000 4.017
52.20000 7.127
52.24000 0.992
52.28000 3.056
52.32000 4.038
52.36000 0.000
52.40000 1.017
52.44000 5.133
52.48000 2.999
52.52000 2.008
52.56000 2.082
52.60000 6.015
52.64000 3.039
52.68000 6.057
52.72000 6.112
52.76000 5.088
52.80000 2.041
52.84000 1.994
52.88000 3.032
52.92000 4.022
52.96000 5.042
53.00000 1.054
53.04000 3.044
53.08000 0.989
53.12000 3.093
53.16000 1.979
53.20000 3.100
53.24000 3.021
53.28000 0.000
53.32000 0.000
53.36000 4.066
53.40000 0.985
53.44000 2.063
53.48000 2.980
53.52000 0.974
53.56000 2.991
53.60000 3.060
53.64000 6.105
53.68000 3.003
53.72000 2.991
53.76000 1.074
53.80000 0.995
53.84000 1.000
53.88000 2.995
53.92000 2.987
53.96000 2.021
54.00000 1.976
54.04000 0.997
54.08000 2.024
54.12000 3.115
54.16000 4.085
54.20000 0.000
54.24000 1.973
54.28000 1.005
54.32000 1.977
54.36000 1.980
54.40000 2.019
54.44000 3.074
54.48000 1.012
54.52000 0.000
54.56000 2.970
54.60000 1.993
54.64000 2.999
54.68000 0.989
54.72000 4.077
54.76000 0.997
54.80000 2.023
54.84000 2.085
54.88000 2.975
54.92000 1.021
54.96000 2.096
55.00000 3.037
55.04000 1.021
55.08000 4.005
55.12000 0.000
55.16000 2.057
55.20000 5.014
55.24000 1.984
55.28000 2.021
55.32000 4.043
55.36000 5.084
55.40000 2.069
55.44000 0.000
55.48000 0.000
55.52000 0.000
55.56000 1.002
55.60000 2.978
55.64000 0.000
55.68000 2.049
55.72000 2.012
55.76000 1.975
55.80000 1.998
55.84000 2.016
55.88000 1.001
55.92000 1.009
55.96000 0.000
56.00000 3.007
56.04000 0.000
56.08000 1.985
56.12000 0.000
56.16000 2.004
56.20000 2.048
56.24000 0.993
56.28000 2.030
56.32000 6.029
56.36000 1.017
56.40000 5.085
56.44000 0.000
56.48000 1.978
56.52000 4.041
56.56000 5.016
56.60000 2.061
56.64000 2.014
56.68000 2.987
56.72000 2.077
56.76000 2.007
56.80000 0.000
56.84000 6.027
56.88000 1.058
56.92000 0.990
56.96000 0.000
57.00000 1.019
57.04000 1.010
57.08000 1.002
57.12000 2.026
57.16000 1.019
57.20000 2.040
57.24000 3.984
57.28000 3.123
57.32000 2.073
57.36000 1.041
57.40000 1.963
57.44000 0.000
57.48000 0.987
57.52000 2.008
57.56000 0.998
57.60000 0.000
57.64000 2.011
57.68000 1.988
57.72000 1.972
57.76000 0.987
57.80000 1.004
57.84000 0.997
57.88000 2.040
57.92000 0.000
57.96000 1.995
58.00000 3.014
58.04000 2.998
58.08000 2.042
58.12000 2.043
58.16000 2.019
58.20000 2.004
58.24000 5.020
58.28000 0.000
58.32000 0.000
58.36000 0.000
58.40000 2.982
58.44000 2.002
58.48000 2.062
58.52000 0.994
58.56000 3.000
58.60000 3.099
58.64000 1.031
58.68000 1.024
58.72000 0.000
58.76000 1.004
58.80000 3.072
58.84000 2.016
58.88000 3.074
58.92000 2.000
58.96000 2.078
59.00000 4.099
59.04000 5.095
59.08000 0.978
59.12000 1.019
59.16000 1.014
59.20000 1.036
59.24000 3.038
59.28000 2.044
59.32000 3.030
59.36000 1.016
59.40000 2.019
59.44000 3.968
59.48000 0.000
59.52000 1.994
59.56000 0.000
59.60000 1.015
59.64000 0.992
59.68000 0.000
59.72000 3.101
59.76000 2.011
59.80000 0.990
59.84000 3.071
59.88000 1.037
59.92000 2.002
59.96000 0.000
60.00000 1.983
60.04000 2.058
60.08000 2.037
60.12000 1.996
60.16000 0.000
60.20000 1.010
60.24000 1.044
60.28000 2.030
60.32000 0.990
60.36000 3.024
60.40000 4.052
60.44000 2.011
60.48000 2.045
60.52000 0.998
60.56000 2.055
60.60000 2.029
60.64000 0.000
60.68000 1.037
60.72000 2.045
60.76000 5.028
60.80000 2.060
60.84000 2.019
60.88000 1.012
60.92000 3.029
60.96000 4.097
61.00000 3.012
61.04000 0.000
61.08000 0.000
61.12000 1.038
61.16000 0.988
61.20000 3.082
61.24000 0.988
61.28000 0.991
61.32000 1.007
61.36000 2.023
61.40000 1.005
61.44000 1.997
61.48000 0.000
61.52000 1.070
61.56000 2.023
61.60000 2.048
61.64000 1.019
61.68000 5.165
61.72000 1.014
61.76000 4.967
61.80000 1.020
61.84000 1.976
61.88000 0.983
61.92000 1.017
61.96000 2.042
62.00000 0.000
62.04000 0.000
62.08000 0.990
62.12000 2.012
62.16000 0.000
62.20000 0.992
62.24000 2.955
62.28000 4.177
62.32000 2.029
62.36000 3.031
62.40000 1.021
62.44000 3.061
62.48000 1.019
62.52000 1.001
62.56000 0.000
62.60000 4.042
62.64000 0.000
62.68000 1.034
62.72000 0.000
62.76000 0.982
62.80000 1.985
62.84000 3.064
62.88000 1.988
62.92000 0.000
62.96000 0.978
63.00000 2.078
63.04000 1.055
63.08000 2.015
63.12000 0.000
63.16000 2.002
63.20000 0.997
63.24000 1.020
63.28000 2.046
63.32000 3.031
63.36000 0.997
63.40000 3.011
63.44000 1.065
63.48000 1.019
63.52000 5.058
63.56000 0.000
63.60000 0.991
63.64000 2.116
63.68000 3.048
63.72000 0.989
63.76000 3.010
63.80000 1.034
63.84000 2.986
63.88000 1.986
63.92000 0.000
63.96000 1.013
64.00000 0.999
64.04000 2.027
64.08000 0.000
64.12000 1.009
64.16000 1.033
64.20000 2.041
64.24000 1.999
64.28000 1.076
64.32000 0.983
64.36000 0.986
64.40000 3.076
64.44000 1.002
64.48000 1.015
64.52000 0.995
64.56000 0.000
64.60000 4.028
64.64000 1.010
64.68000 1.005
64.72000 1.030
64.76000 0.000
64.80000 3.041
64.84000 1.002
64.88000 0.000
64.92000 2.977
64.96000 1.023
65.00000 1.999