File: XRD/XRD/11-09-2025/XY Data/01092025_BTO_omega_1_001_44_-15-587_19-546.xy
20.00000 24.423
20.04000 23.231
20.08000 15.144
20.12000 18.047
20.16000 17.234
20.20000 17.117
20.24000 21.274
20.28000 17.247
20.32000 15.510
20.36000 15.292
20.40000 25.515
20.44000 26.454
20.48000 21.195
20.52000 21.245
20.56000 18.146
20.60000 19.332
20.64000 23.274
20.68000 19.258
20.72000 27.496
20.76000 25.434
20.80000 14.190
20.84000 26.639
20.88000 21.135
20.92000 29.481
20.96000 20.270
21.00000 14.147
21.04000 23.237
21.08000 23.238
21.12000 19.362
21.16000 19.253
21.20000 16.262
21.24000 16.129
21.28000 21.316
21.32000 20.387
21.36000 22.230
21.40000 20.296
21.44000 14.259
21.48000 18.235
21.52000 24.298
21.56000 22.244
21.60000 23.242
21.64000 19.347
21.68000 21.399
21.72000 25.312
21.76000 19.177
21.80000 19.396
21.84000 18.250
21.88000 22.319
21.92000 21.184
21.96000 16.354
22.00000 16.083
22.04000 25.615
22.08000 19.403
22.12000 18.348
22.16000 22.970
22.20000 27.229
22.24000 24.241
22.28000 21.233
22.32000 22.353
22.36000 32.192
22.40000 14.333
22.44000 23.224
22.48000 30.344
22.52000 22.300
22.56000 24.114
22.60000 28.390
22.64000 19.353
22.68000 18.205
22.72000 19.210
22.76000 23.103
22.80000 25.206
22.84000 23.544
22.88000 20.394
22.92000 21.141
22.96000 24.300
23.00000 17.005
23.04000 21.389
23.08000 32.327
23.12000 29.529
23.16000 30.249
23.20000 28.269
23.24000 22.087
23.28000 18.359
23.32000 18.247
23.36000 27.138
23.40000 25.427
23.44000 16.327
23.48000 24.389
23.52000 19.332
23.56000 24.480
23.60000 24.459
23.64000 32.416
23.68000 36.459
23.72000 31.440
23.76000 32.515
23.80000 32.462
23.84000 20.212
23.88000 27.377
23.92000 23.357
23.96000 25.190
24.00000 19.283
24.04000 36.529
24.08000 36.335
24.12000 29.419
24.16000 31.754
24.20000 26.448
24.24000 21.242
24.28000 41.653
24.32000 30.275
24.36000 30.303
24.40000 25.212
24.44000 28.404
24.48000 48.542
24.52000 24.107
24.56000 22.402
24.60000 33.586
24.64000 31.344
24.68000 28.121
24.72000 39.632
24.76000 22.401
24.80000 30.382
24.84000 29.200
24.88000 30.539
24.92000 32.573
24.96000 31.595
25.00000 33.597
25.04000 33.400
25.08000 27.238
25.12000 26.224
25.16000 33.610
25.20000 27.457
25.24000 30.302
25.28000 27.208
25.32000 36.497
25.36000 35.646
25.40000 40.649
25.44000 27.133
25.48000 31.342
25.52000 40.616
25.56000 38.809
25.60000 27.326
25.64000 39.647
25.68000 41.564
25.72000 29.173
25.76000 30.253
25.80000 35.703
25.84000 34.187
25.88000 32.373
25.92000 40.494
25.96000 33.597
26.00000 33.720
26.04000 45.599
26.08000 38.546
26.12000 49.694
26.16000 45.580
26.20000 28.383
26.24000 41.636
26.28000 44.382
26.32000 37.510
26.36000 36.424
26.40000 34.404
26.44000 37.566
26.48000 48.947
26.52000 46.631
26.56000 48.562
26.60000 52.801
26.64000 37.276
26.68000 41.362
26.72000 42.686
26.76000 46.906
26.80000 38.864
26.84000 40.450
26.88000 44.832
26.92000 47.743
26.96000 43.493
27.00000 43.532
27.04000 40.312
27.08000 37.161
27.12000 40.612
27.16000 34.329
27.20000 53.686
27.24000 37.463
27.28000 42.370
27.32000 45.349
27.36000 43.746
27.40000 58.728
27.44000 55.577
27.48000 43.515
27.52000 47.472
27.56000 50.907
27.60000 49.879
27.64000 51.683
27.68000 46.605
27.72000 41.852
27.76000 48.705
27.80000 52.483
27.84000 37.650
27.88000 32.611
27.92000 46.471
27.96000 61.714
28.00000 48.750
28.04000 47.405
28.08000 44.473
28.12000 44.782
28.16000 37.287
28.20000 50.584
28.24000 47.517
28.28000 34.425
28.32000 46.692
28.36000 37.495
28.40000 51.612
28.44000 49.628
28.48000 43.449
28.52000 42.586
28.56000 43.495
28.60000 47.485
28.64000 37.548
28.68000 34.580
28.72000 37.363
28.76000 45.573
28.80000 41.816
28.84000 36.469
28.88000 35.497
28.92000 30.269
28.96000 47.601
29.00000 47.461
29.04000 40.576
29.08000 34.582
29.12000 49.714
29.16000 55.811
29.20000 54.612
29.24000 40.252
29.28000 45.490
29.32000 39.676
29.36000 31.385
29.40000 33.129
29.44000 33.227
29.48000 24.367
29.52000 42.697
29.56000 32.665
29.60000 32.410
29.64000 26.103
29.68000 33.359
29.72000 36.588
29.76000 22.152
29.80000 30.461
29.84000 32.361
29.88000 23.165
29.92000 34.377
29.96000 39.443
30.00000 31.244
30.04000 34.606
30.08000 38.593
30.12000 40.551
30.16000 27.482
30.20000 26.285
30.24000 30.270
30.28000 35.376
30.32000 28.462
30.36000 25.516
30.40000 22.521
30.44000 28.507
30.48000 27.473
30.52000 39.449
30.56000 29.285
30.60000 29.150
30.64000 22.423
30.68000 24.374
30.72000 32.346
30.76000 32.368
30.80000 30.239
30.84000 24.239
30.88000 24.214
30.92000 30.291
30.96000 22.363
31.00000 34.201
31.04000 30.315
31.08000 21.290
31.12000 26.260
31.16000 26.119
31.20000 25.490
31.24000 25.294
31.28000 23.530
31.32000 27.194
31.36000 24.262
31.40000 24.320
31.44000 22.270
31.48000 17.394
31.52000 31.431
31.56000 21.300
31.60000 39.520
31.64000 20.299
31.68000 30.396
31.72000 21.372
31.76000 22.137
31.80000 23.428
31.84000 26.179
31.88000 15.210
31.92000 29.381
31.96000 25.341
32.00000 27.223
32.04000 32.449
32.08000 20.295
32.12000 30.311
32.16000 25.227
32.20000 33.391
32.24000 22.299
32.28000 35.587
32.32000 20.256
32.36000 24.249
32.40000 26.135
32.44000 24.326
32.48000 19.300
32.52000 28.374
32.56000 26.277
32.60000 28.473
32.64000 22.337
32.68000 22.055
32.72000 23.274
32.76000 17.302
32.80000 17.318
32.84000 21.119
32.88000 21.114
32.92000 23.315
32.96000 14.139
33.00000 17.055
33.04000 15.130
33.08000 24.154
33.12000 12.109
33.16000 19.219
33.20000 16.109
33.24000 17.444
33.28000 26.251
33.32000 22.359
33.36000 18.188
33.40000 15.200
33.44000 27.515
33.48000 25.284
33.52000 13.978
33.56000 22.304
33.60000 11.209
33.64000 22.118
33.68000 18.120
33.72000 15.234
33.76000 21.347
33.80000 11.216
33.84000 15.296
33.88000 16.151
33.92000 14.316
33.96000 16.179
34.00000 11.102
34.04000 19.284
34.08000 15.040
34.12000 8.077
34.16000 14.070
34.20000 16.158
34.24000 11.295
34.28000 15.195
34.32000 12.177
34.36000 14.234
34.40000 19.205
34.44000 15.283
34.48000 13.216
34.52000 22.332
34.56000 17.231
34.60000 13.109
34.64000 18.380
34.68000 13.353
34.72000 23.284
34.76000 15.247
34.80000 14.154
34.84000 13.159
34.88000 22.228
34.92000 13.067
34.96000 20.109
35.00000 20.227
35.04000 24.332
35.08000 11.337
35.12000 14.105
35.16000 12.193
35.20000 14.120
35.24000 10.198
35.28000 18.155
35.32000 17.276
35.36000 13.234
35.40000 15.210
35.44000 21.389
35.48000 21.452
35.52000 18.192
35.56000 12.231
35.60000 18.208
35.64000 6.101
35.68000 16.487
35.72000 13.002
35.76000 16.130
35.80000 20.240
35.84000 7.077
35.88000 8.115
35.92000 11.209
35.96000 20.232
36.00000 10.280
36.04000 19.479
36.08000 22.304
36.12000 14.143
36.16000 12.221
36.20000 8.055
36.24000 12.327
36.28000 19.221
36.32000 17.243
36.36000 9.276
36.40000 17.376
36.44000 18.167
36.48000 19.286
36.52000 10.125
36.56000 16.118
36.60000 15.171
36.64000 19.320
36.68000 18.240
36.72000 18.377
36.76000 17.190
36.80000 18.232
36.84000 17.142
36.88000 16.252
36.92000 21.162
36.96000 12.035
37.00000 10.214
37.04000 18.291
37.08000 13.234
37.12000 17.017
37.16000 16.413
37.20000 12.188
37.24000 18.292
37.28000 15.147
37.32000 17.263
37.36000 24.394
37.40000 12.133
37.44000 12.112
37.48000 15.138
37.52000 14.201
37.56000 19.321
37.60000 10.246
37.64000 9.141
37.68000 13.156
37.72000 20.163
37.76000 22.294
37.80000 14.217
37.84000 19.176
37.88000 17.243
37.92000 21.205
37.96000 15.166
38.00000 15.223
38.04000 12.062
38.08000 21.370
38.12000 12.153
38.16000 12.257
38.20000 5.014
38.24000 12.259
38.28000 20.157
38.32000 21.153
38.36000 25.525
38.40000 24.405
38.44000 14.200
38.48000 19.224
38.52000 20.242
38.56000 15.148
38.60000 17.308
38.64000 16.393
38.68000 23.389
38.72000 20.384
38.76000 19.367
38.80000 14.093
38.84000 18.205
38.88000 15.191
38.92000 19.235
38.96000 19.292
39.00000 12.120
39.04000 17.248
39.08000 19.156
39.12000 21.234
39.16000 15.284
39.20000 18.081
39.24000 15.097
39.28000 28.440
39.32000 20.182
39.36000 15.063
39.40000 15.183
39.44000 22.244
39.48000 27.534
39.52000 21.197
39.56000 18.280
39.60000 12.158
39.64000 8.017
39.68000 23.415
39.72000 16.179
39.76000 18.229
39.80000 18.268
39.84000 21.367
39.88000 21.266
39.92000 18.258
39.96000 17.200
40.00000 25.397
40.04000 15.050
40.08000 16.256
40.12000 17.321
40.16000 16.013
40.20000 17.329
40.24000 15.160
40.28000 22.206
40.32000 18.175
40.36000 15.316
40.40000 12.234
40.44000 21.116
40.48000 15.260
40.52000 24.304
40.56000 16.102
40.60000 13.312
40.64000 22.490
40.68000 14.147
40.72000 23.346
40.76000 17.286
40.80000 26.329
40.84000 13.065
40.88000 14.204
40.92000 17.231
40.96000 17.178
41.00000 16.234
41.04000 18.324
41.08000 20.317
41.12000 26.333
41.16000 19.277
41.20000 18.027
41.24000 14.090
41.28000 18.198
41.32000 21.182
41.36000 16.222
41.40000 17.416
41.44000 18.253
41.48000 16.386
41.52000 19.265
41.56000 22.372
41.60000 19.160
41.64000 17.134
41.68000 18.296
41.72000 6.045
41.76000 21.305
41.80000 18.279
41.84000 27.221
41.88000 22.455
41.92000 25.238
41.96000 17.299
42.00000 21.271
42.04000 13.135
42.08000 20.165
42.12000 20.295
42.16000 19.176
42.20000 15.110
42.24000 23.262
42.28000 23.081
42.32000 19.303
42.36000 16.208
42.40000 14.120
42.44000 13.281
42.48000 23.358
42.52000 17.295
42.56000 17.262
42.60000 15.176
42.64000 15.264
42.68000 19.314
42.72000 19.168
42.76000 17.014
42.80000 22.321
42.84000 16.219
42.88000 20.251
42.92000 14.251
42.96000 21.239
43.00000 14.209
43.04000 19.212
43.08000 18.280
43.12000 19.313
43.16000 21.266
43.20000 12.114
43.24000 22.314
43.28000 11.103
43.32000 21.185
43.36000 11.117
43.40000 19.329
43.44000 21.237
43.48000 22.395
43.52000 25.152
43.56000 18.154
43.60000 18.349
43.64000 17.309
43.68000 17.334
43.72000 8.055
43.76000 20.302
43.80000 24.259
43.84000 20.217
43.88000 14.049
43.92000 24.326
43.96000 23.278
44.00000 21.206
44.04000 21.213
44.08000 14.176
44.12000 16.191
44.16000 17.325
44.20000 20.227
44.24000 16.185
44.28000 21.212
44.32000 24.452
44.36000 11.057
44.40000 13.151
44.44000 13.117
44.48000 16.190
44.52000 15.159
44.56000 18.252
44.60000 24.433
44.64000 15.212
44.68000 16.200
44.72000 23.248
44.76000 20.406
44.80000 10.075
44.84000 12.059
44.88000 11.017
44.92000 17.268
44.96000 19.221
45.00000 16.358
45.04000 14.299
45.08000 18.330
45.12000 17.429
45.16000 17.080
45.20000 16.160
45.24000 23.181
45.28000 15.271
45.32000 12.229
45.36000 16.201
45.40000 19.209
45.44000 9.021
45.48000 14.102
45.52000 24.363
45.56000 14.070
45.60000 14.995
45.64000 16.120
45.68000 11.350
45.72000 14.180
45.76000 19.417
45.80000 14.239
45.84000 15.184
45.88000 11.077
45.92000 13.171
45.96000 19.269
46.00000 15.200
46.04000 16.183
46.08000 12.218
46.12000 20.087
46.16000 17.121
46.20000 10.140
46.24000 17.249
46.28000 18.145
46.32000 14.118
46.36000 17.216
46.40000 20.294
46.44000 27.259
46.48000 16.311
46.52000 25.529
46.56000 10.280
46.60000 19.218
46.64000 21.234
46.68000 15.320
46.72000 13.215
46.76000 21.193
46.80000 19.236
46.84000 20.493
46.88000 16.256
46.92000 15.306
46.96000 14.232
47.00000 19.035
47.04000 27.244
47.08000 18.087
47.12000 13.199
47.16000 21.157
47.20000 14.265
47.24000 21.267
47.28000 19.493
47.32000 12.222
47.36000 17.277
47.40000 15.207
47.44000 16.285
47.48000 11.098
47.52000 14.253
47.56000 12.164
47.60000 10.142
47.64000 15.160
47.68000 13.036
47.72000 10.028
47.76000 15.144
47.80000 16.152
47.84000 15.260
47.88000 15.074
47.92000 15.110
47.96000 18.175
48.00000 20.249
48.04000 11.119
48.08000 16.109
48.12000 13.087
48.16000 18.154
48.20000 22.182
48.24000 20.207
48.28000 20.424
48.32000 13.228
48.36000 19.232
48.40000 17.452
48.44000 9.979
48.48000 15.996
48.52000 19.242
48.56000 19.339
48.60000 13.105
48.64000 14.335
48.68000 16.267
48.72000 21.126
48.76000 17.149
48.80000 14.105
48.84000 16.256
48.88000 13.137
48.92000 12.048
48.96000 15.320
49.00000 17.188
49.04000 11.167
49.08000 19.083
49.12000 7.094
49.16000 20.095
49.20000 15.260
49.24000 10.160
49.28000 14.290
49.32000 14.097
49.36000 17.196
49.40000 15.285
49.44000 15.190
49.48000 15.036
49.52000 16.350
49.56000 12.170
49.60000 17.106
49.64000 22.270
49.68000 10.131
49.72000 14.402
49.76000 22.344
49.80000 19.249
49.84000 16.174
49.88000 14.250
49.92000 17.275
49.96000 12.181
50.00000 8.185
50.04000 12.153
50.08000 15.303
50.12000 12.238
50.16000 21.354
50.20000 18.240
50.24000 11.246
50.28000 21.444
50.32000 19.217
50.36000 20.302
50.40000 17.205
50.44000 15.248
50.48000 12.412
50.52000 17.149
50.56000 10.092
50.60000 21.342
50.64000 12.114
50.68000 12.197
50.72000 21.193
50.76000 14.112
50.80000 12.042
50.84000 9.022
50.88000 11.177
50.92000 17.097
50.96000 16.153
51.00000 8.179
51.04000 16.297
51.08000 14.334
51.12000 16.398
51.16000 10.015
51.20000 15.314
51.24000 16.394
51.28000 13.144
51.32000 12.187
51.36000 16.374
51.40000 16.075
51.44000 8.087
51.48000 12.193
51.52000 16.158
51.56000 20.541
51.60000 16.163
51.64000 11.098
51.68000 8.094
51.72000 17.111
51.76000 15.203
51.80000 18.413
51.84000 13.062
51.88000 14.183
51.92000 18.182
51.96000 20.359
52.00000 13.125
52.04000 18.213
52.08000 12.314
52.12000 24.273
52.16000 9.148
52.20000 8.154
52.24000 9.936
52.28000 14.208
52.32000 23.206
52.36000 11.047
52.40000 13.186
52.44000 14.144
52.48000 16.218
52.52000 8.117
52.56000 19.253
52.60000 13.081
52.64000 14.213
52.68000 16.278
52.72000 16.272
52.76000 11.168
52.80000 13.092
52.84000 9.191
52.88000 9.118
52.92000 17.388
52.96000 17.118
53.00000 12.088
53.04000 23.202
53.08000 11.128
53.12000 14.069
53.16000 15.175
53.20000 8.229
53.24000 10.038
53.28000 18.156
53.32000 8.314
53.36000 9.149
53.40000 12.162
53.44000 17.163
53.48000 11.186
53.52000 16.342
53.56000 9.196
53.60000 16.029
53.64000 11.174
53.68000 16.133
53.72000 12.188
53.76000 17.415
53.80000 11.233
53.84000 18.176
53.88000 11.267
53.92000 11.214
53.96000 16.083
54.00000 7.098
54.04000 15.243
54.08000 15.068
54.12000 12.241
54.16000 13.093
54.20000 13.173
54.24000 15.191
54.28000 12.123
54.32000 18.164
54.36000 12.248
54.40000 11.256
54.44000 20.208
54.48000 14.123
54.52000 9.004
54.56000 14.163
54.60000 13.191
54.64000 16.216
54.68000 14.310
54.72000 15.219
54.76000 10.083
54.80000 22.418
54.84000 14.225
54.88000 18.275
54.92000 10.076
54.96000 19.252
55.00000 14.178
55.04000 15.160
55.08000 15.061
55.12000 11.152
55.16000 12.210
55.20000 17.180
55.24000 14.013
55.28000 9.149
55.32000 9.987
55.36000 17.174
55.40000 9.122
55.44000 9.181
55.48000 14.112
55.52000 11.089
55.56000 15.236
55.60000 14.159
55.64000 16.214
55.68000 14.284
55.72000 12.070
55.76000 7.026
55.80000 12.173
55.84000 13.144
55.88000 15.072
55.92000 18.079
55.96000 17.351
56.00000 16.336
56.04000 12.155
56.08000 14.167
56.12000 10.274
56.16000 5.067
56.20000 12.997
56.24000 10.071
56.28000 13.262
56.32000 11.224
56.36000 12.171
56.40000 13.044
56.44000 10.196
56.48000 11.340
56.52000 9.101
56.56000 13.127
56.60000 13.182
56.64000 8.073
56.68000 9.039
56.72000 7.105
56.76000 11.229
56.80000 15.194
56.84000 16.368
56.88000 17.458
56.92000 7.110
56.96000 12.007
57.00000 11.123
57.04000 11.237
57.08000 13.242
57.12000 8.093
57.16000 7.047
57.20000 13.103
57.24000 8.081
57.28000 13.132
57.32000 13.063
57.36000 11.261
57.40000 15.182
57.44000 12.121
57.48000 15.005
57.52000 12.030
57.56000 19.275
57.60000 11.090
57.64000 7.132
57.68000 6.061
57.72000 11.217
57.76000 7.007
57.80000 10.983
57.84000 16.339
57.88000 6.094
57.92000 12.257
57.96000 12.156
58.00000 15.224
58.04000 11.268
58.08000 9.319
58.12000 11.048
58.16000 16.253
58.20000 16.226
58.24000 16.234
58.28000 15.138
58.32000 15.132
58.36000 6.102
58.40000 10.029
58.44000 10.102
58.48000 11.090
58.52000 6.067
58.56000 18.085
58.60000 11.149
58.64000 17.035
58.68000 13.207
58.72000 11.103
58.76000 7.168
58.80000 11.014
58.84000 14.132
58.88000 11.222
58.92000 13.158
58.96000 9.066
59.00000 15.258
59.04000 13.127
59.08000 7.067
59.12000 12.188
59.16000 6.078
59.20000 11.012
59.24000 8.056
59.28000 13.211
59.32000 7.111
59.36000 13.070
59.40000 9.076
59.44000 11.142
59.48000 8.177
59.52000 5.024
59.56000 16.444
59.60000 10.128
59.64000 15.263
59.68000 10.218
59.72000 10.029
59.76000 11.203
59.80000 15.102
59.84000 10.240
59.88000 9.116
59.92000 15.101
59.96000 11.141
60.00000 10.251
60.04000 12.081
60.08000 7.115
60.12000 13.136
60.16000 6.074
60.20000 11.136
60.24000 13.328
60.28000 9.235
60.32000 17.364
60.36000 14.049
60.40000 10.061
60.44000 8.280
60.48000 13.241
60.52000 12.077
60.56000 3.025
60.60000 4.054
60.64000 10.126
60.68000 8.114
60.72000 15.147
60.76000 4.024
60.80000 11.274
60.84000 11.117
60.88000 9.052
60.92000 16.147
60.96000 12.137
61.00000 9.192
61.04000 16.150
61.08000 14.421
61.12000 7.155
61.16000 11.032
61.20000 11.133
61.24000 6.980
61.28000 7.118
61.32000 6.195
61.36000 10.085
61.40000 9.138
61.44000 7.135
61.48000 11.060
61.52000 14.206
61.56000 7.077
61.60000 6.103
61.64000 9.047
61.68000 9.129
61.72000 10.063
61.76000 11.124
61.80000 7.111
61.84000 8.181
61.88000 14.165
61.92000 6.031
61.96000 6.181
62.00000 5.128
62.04000 12.201
62.08000 6.040
62.12000 11.211
62.16000 10.178
62.20000 10.185
62.24000 8.162
62.28000 10.101
62.32000 4.976
62.36000 9.055
62.40000 13.407
62.44000 11.214
62.48000 11.353
62.52000 10.167
62.56000 11.225
62.60000 7.128
62.64000 6.131
62.68000 5.074
62.72000 10.218
62.76000 10.148
62.80000 7.064
62.84000 5.948
62.88000 10.151
62.92000 8.086
62.96000 8.076
63.00000 11.185
63.04000 6.167
63.08000 5.976
63.12000 6.009
63.16000 13.247
63.20000 11.171
63.24000 10.121
63.28000 7.066
63.32000 11.114
63.36000 10.246
63.40000 6.078
63.44000 8.151
63.48000 9.038
63.52000 8.201
63.56000 7.054
63.60000 7.057
63.64000 7.151
63.68000 4.019
63.72000 7.074
63.76000 9.047
63.80000 9.056
63.84000 7.069
63.88000 8.101
63.92000 6.249
63.96000 11.133
64.00000 6.152
64.04000 9.180
64.08000 6.119
64.12000 9.089
64.16000 9.134
64.20000 6.074
64.24000 13.134
64.28000 12.247
64.32000 9.268
64.36000 9.273
64.40000 12.149
64.44000 8.140
64.48000 7.112
64.52000 10.248
64.56000 8.056
64.60000 12.238
64.64000 10.120
64.68000 10.032
64.72000 12.232
64.76000 12.076
64.80000 7.124
64.84000 6.189
64.88000 10.276
64.92000 3.050
64.96000 12.089
65.00000 12.141