File: XRD/XRD/11-09-2025/XY Data/01092025_BTO_omega_1_001_20_-22-524_-10-847.xy
20.00000 12.237
20.04000 13.195
20.08000 17.083
20.12000 28.398
20.16000 13.270
20.20000 19.334
20.24000 27.407
20.28000 12.452
20.32000 11.183
20.36000 11.121
20.40000 17.247
20.44000 20.182
20.48000 21.097
20.52000 16.306
20.56000 17.160
20.60000 20.217
20.64000 22.400
20.68000 20.154
20.72000 12.019
20.76000 19.238
20.80000 13.118
20.84000 20.180
20.88000 22.429
20.92000 21.291
20.96000 14.449
21.00000 21.256
21.04000 13.266
21.08000 16.246
21.12000 17.189
21.16000 21.502
21.20000 15.061
21.24000 14.249
21.28000 21.200
21.32000 23.154
21.36000 21.419
21.40000 18.300
21.44000 18.303
21.48000 12.277
21.52000 19.165
21.56000 16.247
21.60000 10.085
21.64000 20.180
21.68000 17.323
21.72000 23.303
21.76000 17.356
21.80000 15.251
21.84000 21.124
21.88000 15.135
21.92000 15.201
21.96000 13.066
22.00000 18.272
22.04000 22.543
22.08000 11.257
22.12000 13.176
22.16000 20.198
22.20000 19.189
22.24000 11.242
22.28000 19.301
22.32000 12.196
22.36000 14.138
22.40000 9.137
22.44000 13.110
22.48000 18.241
22.52000 18.610
22.56000 24.325
22.60000 19.448
22.64000 15.290
22.68000 9.117
22.72000 12.206
22.76000 13.108
22.80000 15.355
22.84000 12.263
22.88000 20.318
22.92000 13.285
22.96000 17.331
23.00000 17.166
23.04000 14.291
23.08000 16.103
23.12000 14.056
23.16000 11.099
23.20000 11.122
23.24000 11.260
23.28000 14.083
23.32000 12.249
23.36000 18.076
23.40000 14.298
23.44000 16.187
23.48000 17.178
23.52000 9.149
23.56000 16.317
23.60000 9.015
23.64000 13.955
23.68000 15.216
23.72000 11.063
23.76000 17.153
23.80000 11.202
23.84000 14.164
23.88000 17.443
23.92000 15.368
23.96000 10.194
24.00000 18.143
24.04000 17.174
24.08000 13.079
24.12000 16.118
24.16000 16.164
24.20000 8.103
24.24000 20.127
24.28000 23.248
24.32000 6.053
24.36000 17.258
24.40000 15.407
24.44000 14.120
24.48000 11.204
24.52000 17.210
24.56000 11.132
24.60000 11.160
24.64000 15.345
24.68000 16.325
24.72000 13.369
24.76000 15.110
24.80000 14.114
24.84000 7.132
24.88000 11.212
24.92000 18.164
24.96000 8.134
25.00000 15.275
25.04000 12.158
25.08000 16.090
25.12000 10.167
25.16000 6.018
25.20000 11.238
25.24000 12.172
25.28000 9.097
25.32000 12.263
25.36000 9.158
25.40000 7.100
25.44000 9.187
25.48000 10.223
25.52000 12.095
25.56000 15.216
25.60000 6.092
25.64000 11.187
25.68000 14.201
25.72000 11.260
25.76000 10.044
25.80000 13.188
25.84000 9.162
25.88000 7.216
25.92000 12.209
25.96000 15.155
26.00000 16.106
26.04000 11.088
26.08000 13.176
26.12000 15.319
26.16000 12.297
26.20000 9.061
26.24000 18.369
26.28000 11.046
26.32000 15.259
26.36000 7.000
26.40000 9.051
26.44000 12.073
26.48000 10.051
26.52000 12.273
26.56000 7.082
26.60000 14.185
26.64000 7.178
26.68000 14.299
26.72000 13.018
26.76000 10.241
26.80000 3.024
26.84000 11.265
26.88000 10.139
26.92000 11.073
26.96000 11.216
27.00000 12.116
27.04000 14.152
27.08000 13.232
27.12000 12.106
27.16000 11.134
27.20000 11.154
27.24000 12.258
27.28000 17.123
27.32000 12.175
27.36000 4.029
27.40000 12.121
27.44000 10.957
27.48000 9.126
27.52000 7.135
27.56000 8.154
27.60000 6.051
27.64000 4.060
27.68000 6.999
27.72000 16.086
27.76000 8.146
27.80000 11.150
27.84000 4.096
27.88000 12.099
27.92000 7.031
27.96000 7.069
28.00000 8.082
28.04000 12.189
28.08000 7.147
28.12000 15.136
28.16000 9.065
28.20000 12.181
28.24000 10.067
28.28000 6.004
28.32000 12.279
28.36000 7.123
28.40000 9.201
28.44000 7.027
28.48000 13.062
28.52000 8.101
28.56000 13.171
28.60000 11.192
28.64000 13.187
28.68000 11.175
28.72000 9.131
28.76000 11.164
28.80000 8.108
28.84000 8.037
28.88000 8.227
28.92000 5.989
28.96000 12.043
29.00000 8.080
29.04000 6.047
29.08000 8.075
29.12000 8.140
29.16000 4.989
29.20000 12.316
29.24000 6.028
29.28000 3.981
29.32000 6.199
29.36000 8.086
29.40000 5.092
29.44000 13.073
29.48000 5.031
29.52000 8.269
29.56000 5.009
29.60000 11.100
29.64000 7.025
29.68000 7.096
29.72000 12.030
29.76000 9.157
29.80000 6.081
29.84000 9.033
29.88000 8.988
29.92000 11.247
29.96000 15.223
30.00000 8.179
30.04000 4.999
30.08000 9.133
30.12000 6.059
30.16000 7.207
30.20000 10.072
30.24000 11.127
30.28000 8.095
30.32000 9.183
30.36000 6.128
30.40000 5.031
30.44000 9.209
30.48000 2.992
30.52000 8.088
30.56000 7.168
30.60000 7.081
30.64000 4.057
30.68000 10.124
30.72000 5.012
30.76000 11.286
30.80000 8.131
30.84000 5.047
30.88000 7.212
30.92000 6.073
30.96000 7.044
31.00000 6.117
31.04000 8.058
31.08000 8.186
31.12000 6.127
31.16000 12.137
31.20000 4.020
31.24000 4.119
31.28000 6.071
31.32000 8.128
31.36000 8.252
31.40000 5.024
31.44000 11.211
31.48000 6.045
31.52000 5.110
31.56000 11.071
31.60000 8.175
31.64000 9.054
31.68000 9.126
31.72000 9.182
31.76000 12.089
31.80000 10.243
31.84000 5.119
31.88000 7.162
31.92000 6.089
31.96000 6.155
32.00000 5.036
32.04000 4.125
32.08000 10.151
32.12000 5.074
32.16000 6.045
32.20000 8.057
32.24000 5.073
32.28000 7.116
32.32000 8.020
32.36000 6.019
32.40000 6.175
32.44000 5.057
32.48000 5.191
32.52000 13.287
32.56000 7.105
32.60000 7.056
32.64000 10.170
32.68000 8.080
32.72000 8.222
32.76000 5.052
32.80000 6.067
32.84000 7.085
32.88000 7.104
32.92000 4.067
32.96000 6.021
33.00000 6.123
33.04000 5.121
33.08000 8.062
33.12000 8.985
33.16000 5.062
33.20000 7.164
33.24000 9.101
33.28000 4.033
33.32000 8.126
33.36000 7.245
33.40000 9.058
33.44000 7.014
33.48000 7.097
33.52000 7.105
33.56000 2.075
33.60000 7.017
33.64000 6.073
33.68000 10.159
33.72000 8.152
33.76000 2.027
33.80000 3.036
33.84000 5.067
33.88000 4.069
33.92000 9.165
33.96000 5.103
34.00000 3.085
34.04000 4.065
34.08000 10.247
34.12000 5.078
34.16000 8.176
34.20000 2.984
34.24000 6.120
34.28000 3.057
34.32000 8.091
34.36000 6.125
34.40000 2.011
34.44000 1.002
34.48000 5.034
34.52000 7.165
34.56000 4.038
34.60000 8.999
34.64000 3.018
34.68000 6.139
34.72000 3.046
34.76000 5.065
34.80000 6.094
34.84000 4.993
34.88000 3.041
34.92000 2.994
34.96000 5.970
35.00000 2.041
35.04000 6.045
35.08000 8.185
35.12000 2.986
35.16000 7.097
35.20000 5.941
35.24000 6.149
35.28000 4.051
35.32000 4.035
35.36000 3.037
35.40000 9.119
35.44000 10.178
35.48000 7.079
35.52000 4.090
35.56000 5.012
35.60000 3.026
35.64000 3.008
35.68000 3.103
35.72000 7.048
35.76000 10.062
35.80000 2.030
35.84000 7.044
35.88000 6.037
35.92000 3.083
35.96000 5.100
36.00000 8.141
36.04000 5.035
36.08000 0.000
36.12000 2.020
36.16000 4.110
36.20000 3.056
36.24000 3.087
36.28000 0.000
36.32000 2.032
36.36000 3.020
36.40000 6.094
36.44000 6.052
36.48000 5.033
36.52000 5.100
36.56000 4.081
36.60000 4.009
36.64000 1.992
36.68000 6.094
36.72000 11.077
36.76000 2.999
36.80000 3.085
36.84000 7.051
36.88000 6.111
36.92000 4.077
36.96000 6.092
37.00000 5.046
37.04000 2.028
37.08000 5.059
37.12000 2.002
37.16000 5.098
37.20000 5.065
37.24000 5.024
37.28000 5.113
37.32000 7.102
37.36000 6.075
37.40000 4.092
37.44000 5.073
37.48000 4.033
37.52000 5.057
37.56000 3.996
37.60000 3.125
37.64000 3.986
37.68000 7.132
37.72000 9.019
37.76000 4.062
37.80000 2.095
37.84000 7.188
37.88000 4.137
37.92000 1.042
37.96000 4.006
38.00000 1.971
38.04000 3.061
38.08000 6.085
38.12000 3.986
38.16000 1.985
38.20000 2.994
38.24000 4.079
38.28000 3.008
38.32000 1.967
38.36000 4.004
38.40000 2.054
38.44000 3.062
38.48000 0.990
38.52000 10.154
38.56000 3.007
38.60000 4.039
38.64000 4.118
38.68000 7.264
38.72000 5.088
38.76000 4.038
38.80000 2.000
38.84000 5.097
38.88000 4.142
38.92000 3.087
38.96000 3.080
39.00000 6.102
39.04000 5.021
39.08000 6.079
39.12000 4.051
39.16000 5.034
39.20000 13.196
39.24000 2.020
39.28000 5.140
39.32000 7.265
39.36000 5.071
39.40000 3.060
39.44000 3.034
39.48000 8.068
39.52000 5.048
39.56000 2.005
39.60000 4.088
39.64000 9.135
39.68000 2.053
39.72000 4.182
39.76000 10.219
39.80000 6.127
39.84000 7.887
39.88000 12.175
39.92000 4.991
39.96000 1.999
40.00000 6.158
40.04000 3.039
40.08000 2.976
40.12000 3.990
40.16000 3.077
40.20000 4.031
40.24000 4.113
40.28000 3.968
40.32000 3.047
40.36000 8.156
40.40000 3.050
40.44000 4.097
40.48000 3.009
40.52000 1.983
40.56000 6.102
40.60000 4.056
40.64000 2.995
40.68000 1.061
40.72000 4.037
40.76000 3.095
40.80000 2.003
40.84000 5.041
40.88000 3.060
40.92000 4.010
40.96000 5.052
41.00000 2.057
41.04000 4.058
41.08000 3.097
41.12000 6.058
41.16000 3.030
41.20000 5.997
41.24000 2.956
41.28000 8.093
41.32000 1.034
41.36000 4.082
41.40000 1.021
41.44000 3.074
41.48000 3.011
41.52000 4.113
41.56000 1.057
41.60000 2.035
41.64000 5.082
41.68000 7.134
41.72000 8.117
41.76000 4.106
41.80000 1.043
41.84000 3.095
41.88000 4.059
41.92000 5.069
41.96000 2.002
42.00000 3.958
42.04000 0.000
42.08000 4.115
42.12000 4.990
42.16000 4.116
42.20000 6.106
42.24000 9.241
42.28000 5.985
42.32000 2.014
42.36000 3.031
42.40000 4.060
42.44000 1.004
42.48000 2.064
42.52000 1.048
42.56000 6.065
42.60000 4.025
42.64000 1.079
42.68000 5.053
42.72000 4.073
42.76000 3.056
42.80000 3.011
42.84000 3.043
42.88000 4.010
42.92000 4.012
42.96000 2.012
43.00000 4.022
43.04000 3.120
43.08000 6.106
43.12000 2.011
43.16000 0.000
43.20000 0.000
43.24000 0.000
43.28000 0.000
43.32000 0.000
43.36000 6.044
43.40000 5.116
43.44000 4.074
43.48000 2.021
43.52000 0.000
43.56000 2.023
43.60000 6.046
43.64000 1.960
43.68000 6.028
43.72000 3.064
43.76000 4.040
43.80000 2.030
43.84000 0.000
43.88000 3.012
43.92000 4.251
43.96000 3.022
44.00000 3.019
44.04000 4.087
44.08000 2.088
44.12000 1.982
44.16000 3.004
44.20000 4.021
44.24000 3.051
44.28000 0.000
44.32000 3.076
44.36000 4.001
44.40000 5.023
44.44000 2.003
44.48000 9.065
44.52000 5.146
44.56000 3.065
44.60000 1.065
44.64000 0.998
44.68000 0.987
44.72000 2.990
44.76000 2.047
44.80000 2.046
44.84000 1.990
44.88000 3.048
44.92000 4.115
44.96000 2.018
45.00000 0.978
45.04000 2.081
45.08000 2.005
45.12000 3.993
45.16000 6.100
45.20000 3.079
45.24000 0.998
45.28000 5.029
45.32000 2.960
45.36000 0.981
45.40000 2.051
45.44000 0.999
45.48000 3.005
45.52000 0.000
45.56000 4.140
45.60000 0.999
45.64000 3.067
45.68000 5.053
45.72000 3.081
45.76000 3.036
45.80000 1.039
45.84000 0.992
45.88000 0.993
45.92000 1.013
45.96000 5.017
46.00000 4.001
46.04000 1.012
46.08000 1.029
46.12000 1.020
46.16000 0.000
46.20000 4.018
46.24000 4.001
46.28000 3.005
46.32000 3.990
46.36000 1.004
46.40000 7.061
46.44000 2.998
46.48000 2.998
46.52000 3.018
46.56000 4.076
46.60000 1.022
46.64000 1.996
46.68000 5.029
46.72000 0.000
46.76000 3.036
46.80000 0.000
46.84000 1.979
46.88000 3.058
46.92000 5.050
46.96000 1.011
47.00000 3.032
47.04000 3.094
47.08000 1.040
47.12000 1.015
47.16000 2.038
47.20000 3.080
47.24000 2.977
47.28000 3.069
47.32000 0.000
47.36000 1.027
47.40000 1.050
47.44000 4.026
47.48000 2.961
47.52000 2.032
47.56000 1.001
47.60000 1.020
47.64000 4.035
47.68000 2.011
47.72000 5.181
47.76000 2.014
47.80000 0.980
47.84000 0.982
47.88000 6.096
47.92000 2.004
47.96000 1.053
48.00000 3.092
48.04000 3.118
48.08000 4.118
48.12000 2.054
48.16000 0.998
48.20000 2.020
48.24000 4.003
48.28000 5.093
48.32000 2.046
48.36000 5.114
48.40000 1.989
48.44000 2.054
48.48000 0.000
48.52000 1.006
48.56000 2.081
48.60000 4.023
48.64000 4.019
48.68000 5.146
48.72000 5.055
48.76000 0.995
48.80000 3.976
48.84000 2.968
48.88000 6.064
48.92000 1.044
48.96000 2.086
49.00000 1.038
49.04000 2.073
49.08000 0.000
49.12000 1.985
49.16000 0.000
49.20000 0.996
49.24000 3.088
49.28000 5.058
49.32000 0.994
49.36000 4.150
49.40000 0.000
49.44000 2.022
49.48000 0.976
49.52000 2.002
49.56000 2.053
49.60000 1.014
49.64000 1.972
49.68000 0.000
49.72000 2.041
49.76000 0.993
49.80000 1.999
49.84000 2.077
49.88000 3.028
49.92000 2.062
49.96000 3.073
50.00000 3.060
50.04000 0.000
50.08000 0.000
50.12000 5.147
50.16000 1.019
50.20000 2.054
50.24000 0.979
50.28000 1.036
50.32000 0.000
50.36000 5.106
50.40000 3.036
50.44000 1.016
50.48000 1.996
50.52000 3.030
50.56000 3.995
50.60000 4.140
50.64000 2.014
50.68000 0.997
50.72000 1.981
50.76000 2.051
50.80000 10.162
50.84000 1.998
50.88000 2.035
50.92000 2.989
50.96000 4.081
51.00000 1.985
51.04000 1.968
51.08000 3.944
51.12000 0.997
51.16000 3.092
51.20000 5.154
51.24000 2.002
51.28000 0.000
51.32000 3.996
51.36000 4.021
51.40000 1.003
51.44000 0.000
51.48000 3.005
51.52000 1.009
51.56000 1.000
51.60000 5.033
51.64000 0.975
51.68000 2.111
51.72000 0.000
51.76000 2.996
51.80000 0.000
51.84000 1.040
51.88000 0.000
51.92000 6.135
51.96000 3.122
52.00000 3.077
52.04000 0.000
52.08000 1.026
52.12000 0.987
52.16000 1.026
52.20000 3.064
52.24000 0.990
52.28000 2.036
52.32000 2.990
52.36000 0.999
52.40000 0.000
52.44000 1.050
52.48000 3.071
52.52000 4.076
52.56000 0.992
52.60000 2.049
52.64000 0.000
52.68000 1.988
52.72000 3.035
52.76000 2.038
52.80000 0.000
52.84000 0.995
52.88000 0.995
52.92000 3.025
52.96000 0.000
53.00000 1.003
53.04000 0.982
53.08000 1.989
53.12000 1.976
53.16000 1.027
53.20000 6.136
53.24000 0.000
53.28000 0.000
53.32000 2.022
53.36000 2.960
53.40000 3.033
53.44000 0.000
53.48000 0.000
53.52000 7.107
53.56000 0.000
53.60000 3.956
53.64000 0.000
53.68000 2.037
53.72000 0.000
53.76000 3.063
53.80000 1.998
53.84000 1.993
53.88000 2.990
53.92000 0.000
53.96000 1.998
54.00000 1.009
54.04000 2.065
54.08000 1.987
54.12000 0.000
54.16000 0.973
54.20000 3.005
54.24000 0.000
54.28000 3.051
54.32000 4.039
54.36000 2.037
54.40000 0.000
54.44000 1.018
54.48000 1.025
54.52000 0.000
54.56000 3.038
54.60000 3.050
54.64000 1.011
54.68000 2.970
54.72000 2.969
54.76000 1.051
54.80000 2.014
54.84000 4.050
54.88000 4.052
54.92000 1.975
54.96000 0.970
55.00000 1.003
55.04000 3.981
55.08000 2.034
55.12000 1.093
55.16000 3.131
55.20000 1.020
55.24000 3.045
55.28000 2.986
55.32000 4.058
55.36000 2.007
55.40000 2.023
55.44000 2.032
55.48000 2.005
55.52000 2.037
55.56000 1.067
55.60000 1.033
55.64000 2.004
55.68000 5.100
55.72000 1.988
55.76000 0.000
55.80000 0.999
55.84000 0.995
55.88000 0.974
55.92000 0.997
55.96000 1.027
56.00000 0.978
56.04000 0.000
56.08000 0.992
56.12000 0.000
56.16000 1.063
56.20000 4.158
56.24000 3.042
56.28000 1.013
56.32000 2.987
56.36000 1.022
56.40000 0.995
56.44000 1.013
56.48000 1.004
56.52000 2.132
56.56000 4.039
56.60000 1.018
56.64000 1.976
56.68000 1.993
56.72000 1.010
56.76000 1.022
56.80000 1.009
56.84000 2.046
56.88000 0.000
56.92000 2.061
56.96000 1.007
57.00000 3.051
57.04000 0.996
57.08000 0.995
57.12000 6.049
57.16000 2.065
57.20000 2.050
57.24000 2.039
57.28000 1.048
57.32000 2.019
57.36000 0.000
57.40000 0.000
57.44000 0.000
57.48000 4.056
57.52000 0.000
57.56000 2.034
57.60000 1.993
57.64000 3.049
57.68000 1.057
57.72000 1.056
57.76000 1.995
57.80000 1.006
57.84000 0.986
57.88000 0.000
57.92000 3.045
57.96000 0.000
58.00000 2.118
58.04000 1.970
58.08000 2.041
58.12000 3.091
58.16000 0.998
58.20000 3.110
58.24000 0.000
58.28000 0.986
58.32000 3.977
58.36000 0.000
58.40000 1.015
58.44000 0.000
58.48000 0.000
58.52000 4.070
58.56000 0.992
58.60000 0.000
58.64000 0.993
58.68000 1.021
58.72000 0.000
58.76000 3.035
58.80000 1.019
58.84000 1.045
58.88000 2.944
58.92000 2.114
58.96000 3.935
59.00000 0.999
59.04000 2.019
59.08000 1.003
59.12000 2.006
59.16000 3.034
59.20000 1.977
59.24000 2.009
59.28000 1.031
59.32000 1.044
59.36000 0.000
59.40000 3.029
59.44000 0.994
59.48000 2.005
59.52000 2.027
59.56000 0.996
59.60000 0.000
59.64000 3.030
59.68000 1.015
59.72000 3.019
59.76000 1.053
59.80000 0.000
59.84000 1.986
59.88000 1.020
59.92000 4.124
59.96000 3.020
60.00000 3.013
60.04000 5.219
60.08000 0.000
60.12000 1.030
60.16000 2.013
60.20000 2.998
60.24000 0.997
60.28000 1.019
60.32000 0.979
60.36000 1.032
60.40000 1.038
60.44000 2.061
60.48000 5.042
60.52000 3.073
60.56000 0.000
60.60000 1.095
60.64000 3.031
60.68000 2.026
60.72000 2.037
60.76000 0.000
60.80000 1.000
60.84000 0.993
60.88000 0.965
60.92000 3.041
60.96000 1.007
61.00000 1.006
61.04000 0.993
61.08000 0.996
61.12000 0.000
61.16000 0.000
61.20000 0.000
61.24000 1.014
61.28000 1.993
61.32000 0.978
61.36000 2.038
61.40000 3.206
61.44000 2.011
61.48000 4.093
61.52000 2.039
61.56000 3.080
61.60000 1.016
61.64000 1.047
61.68000 1.002
61.72000 1.997
61.76000 5.062
61.80000 2.026
61.84000 0.000
61.88000 2.976
61.92000 1.024
61.96000 1.011
62.00000 0.000
62.04000 4.057
62.08000 0.000
62.12000 1.019
62.16000 0.000
62.20000 1.043
62.24000 4.085
62.28000 0.000
62.32000 2.037
62.36000 0.000
62.40000 0.994
62.44000 0.984
62.48000 1.012
62.52000 0.992
62.56000 3.010
62.60000 3.011
62.64000 0.998
62.68000 1.982
62.72000 2.139
62.76000 0.000
62.80000 1.985
62.84000 2.012
62.88000 2.041
62.92000 0.989
62.96000 0.000
63.00000 2.985
63.04000 1.965
63.08000 0.000
63.12000 0.989
63.16000 3.055
63.20000 0.000
63.24000 1.001
63.28000 2.026
63.32000 0.996
63.36000 2.078
63.40000 0.000
63.44000 2.068
63.48000 0.996
63.52000 1.029
63.56000 3.112
63.60000 3.056
63.64000 3.010
63.68000 0.000
63.72000 1.996
63.76000 2.985
63.80000 0.999
63.84000 3.066
63.88000 1.043
63.92000 2.021
63.96000 2.031
64.00000 0.000
64.04000 0.985
64.08000 1.029
64.12000 1.025
64.16000 1.026
64.20000 1.030
64.24000 1.996
64.28000 1.972
64.32000 4.054
64.36000 3.043
64.40000 1.978
64.44000 1.036
64.48000 1.003
64.52000 4.108
64.56000 0.000
64.60000 0.000
64.64000 1.001
64.68000 1.043
64.72000 0.990
64.76000 0.979
64.80000 2.970
64.84000 2.990
64.88000 3.949
64.92000 1.056
64.96000 3.039
65.00000 3.039