File: XRD/XRD/11-09-2025/XY Data/01092025_BTO_omega_1_001_16_-33-786_-16-271.xy
20.00000 133.641
20.04000 116.894
20.08000 108.860
20.12000 123.461
20.16000 110.981
20.20000 126.271
20.24000 110.011
20.28000 124.045
20.32000 117.042
20.36000 114.716
20.40000 119.200
20.44000 109.190
20.48000 121.420
20.52000 113.853
20.56000 131.489
20.60000 123.961
20.64000 108.182
20.68000 94.984
20.72000 88.571
20.76000 87.586
20.80000 108.295
20.84000 104.903
20.88000 95.462
20.92000 96.070
20.96000 79.445
21.00000 88.094
21.04000 104.486
21.08000 101.290
21.12000 73.813
21.16000 102.450
21.20000 96.064
21.24000 90.043
21.28000 76.382
21.32000 97.167
21.36000 81.155
21.40000 88.147
21.44000 82.678
21.48000 83.566
21.52000 72.946
21.56000 85.743
21.60000 84.914
21.64000 76.555
21.68000 82.846
21.72000 68.672
21.76000 74.359
21.80000 69.650
21.84000 67.671
21.88000 64.628
21.92000 54.705
21.96000 76.547
22.00000 64.601
22.04000 66.636
22.08000 45.433
22.12000 52.475
22.16000 74.604
22.20000 49.365
22.24000 61.323
22.28000 60.713
22.32000 51.689
22.36000 64.522
22.40000 42.484
22.44000 64.683
22.48000 62.699
22.52000 41.134
22.56000 47.492
22.60000 48.540
22.64000 52.452
22.68000 43.434
22.72000 48.277
22.76000 47.389
22.80000 44.680
22.84000 52.427
22.88000 44.694
22.92000 58.682
22.96000 51.612
23.00000 57.561
23.04000 45.732
23.08000 45.564
23.12000 34.485
23.16000 35.484
23.20000 41.383
23.24000 33.372
23.28000 34.224
23.32000 47.693
23.36000 49.498
23.40000 39.380
23.44000 31.405
23.48000 40.589
23.52000 33.407
23.56000 36.366
23.60000 33.253
23.64000 35.388
23.68000 22.213
23.72000 27.329
23.76000 28.120
23.80000 37.288
23.84000 32.405
23.88000 33.343
23.92000 29.559
23.96000 34.196
24.00000 30.439
24.04000 34.201
24.08000 18.085
24.12000 36.413
24.16000 28.496
24.20000 21.196
24.24000 18.065
24.28000 22.283
24.32000 26.159
24.36000 17.164
24.40000 22.186
24.44000 23.197
24.48000 17.998
24.52000 25.313
24.56000 18.367
24.60000 16.208
24.64000 24.345
24.68000 28.263
24.72000 21.257
24.76000 29.359
24.80000 14.051
24.84000 23.170
24.88000 18.114
24.92000 17.127
24.96000 15.277
25.00000 16.218
25.04000 13.024
25.08000 19.022
25.12000 14.111
25.16000 18.309
25.20000 13.095
25.24000 21.415
25.28000 25.545
25.32000 16.277
25.36000 16.214
25.40000 24.462
25.44000 18.257
25.48000 15.193
25.52000 23.219
25.56000 21.313
25.60000 22.180
25.64000 12.126
25.68000 11.130
25.72000 15.095
25.76000 27.272
25.80000 14.166
25.84000 10.213
25.88000 15.197
25.92000 11.162
25.96000 8.126
26.00000 11.214
26.04000 15.273
26.08000 18.084
26.12000 14.152
26.16000 15.182
26.20000 10.099
26.24000 10.108
26.28000 10.094
26.32000 9.100
26.36000 10.107
26.40000 16.242
26.44000 15.205
26.48000 9.196
26.52000 13.202
26.56000 16.248
26.60000 18.198
26.64000 9.069
26.68000 14.119
26.72000 16.160
26.76000 8.185
26.80000 21.254
26.84000 15.204
26.88000 11.143
26.92000 9.088
26.96000 16.217
27.00000 18.352
27.04000 13.216
27.08000 15.156
27.12000 10.152
27.16000 8.025
27.20000 12.159
27.24000 18.064
27.28000 16.123
27.32000 9.108
27.36000 16.276
27.40000 8.104
27.44000 15.221
27.48000 7.965
27.52000 12.151
27.56000 14.341
27.60000 16.238
27.64000 9.981
27.68000 15.349
27.72000 10.057
27.76000 13.165
27.80000 12.209
27.84000 15.119
27.88000 15.245
27.92000 12.062
27.96000 14.166
28.00000 11.028
28.04000 11.282
28.08000 8.082
28.12000 8.079
28.16000 4.047
28.20000 8.094
28.24000 13.244
28.28000 11.190
28.32000 10.111
28.36000 14.318
28.40000 11.040
28.44000 8.108
28.48000 5.111
28.52000 12.223
28.56000 9.157
28.60000 9.065
28.64000 12.153
28.68000 14.286
28.72000 8.208
28.76000 16.255
28.80000 6.082
28.84000 12.164
28.88000 6.121
28.92000 12.000
28.96000 8.112
29.00000 6.000
29.04000 9.085
29.08000 5.967
29.12000 8.218
29.16000 15.210
29.20000 8.142
29.24000 11.193
29.28000 11.253
29.32000 9.982
29.36000 9.092
29.40000 15.298
29.44000 6.059
29.48000 13.139
29.52000 14.232
29.56000 10.032
29.60000 10.041
29.64000 7.174
29.68000 8.148
29.72000 6.110
29.76000 10.174
29.80000 13.280
29.84000 14.428
29.88000 10.258
29.92000 8.152
29.96000 3.097
30.00000 12.168
30.04000 15.122
30.08000 16.295
30.12000 9.036
30.16000 14.247
30.20000 11.071
30.24000 16.234
30.28000 10.032
30.32000 6.984
30.36000 12.228
30.40000 9.143
30.44000 7.970
30.48000 10.095
30.52000 13.181
30.56000 5.035
30.60000 11.117
30.64000 8.133
30.68000 10.021
30.72000 10.216
30.76000 6.037
30.80000 7.043
30.84000 10.133
30.88000 12.129
30.92000 12.101
30.96000 7.211
31.00000 10.118
31.04000 7.109
31.08000 7.080
31.12000 8.134
31.16000 13.061
31.20000 14.106
31.24000 10.128
31.28000 5.069
31.32000 4.992
31.36000 9.107
31.40000 8.166
31.44000 10.206
31.48000 5.966
31.52000 7.148
31.56000 7.149
31.60000 9.160
31.64000 5.150
31.68000 12.149
31.72000 5.069
31.76000 6.114
31.80000 8.085
31.84000 8.152
31.88000 14.131
31.92000 8.183
31.96000 7.177
32.00000 7.063
32.04000 5.049
32.08000 8.181
32.12000 7.063
32.16000 9.101
32.20000 5.997
32.24000 8.087
32.28000 3.047
32.32000 7.072
32.36000 2.991
32.40000 6.128
32.44000 6.046
32.48000 6.140
32.52000 10.140
32.56000 8.196
32.60000 6.114
32.64000 10.161
32.68000 12.159
32.72000 8.187
32.76000 9.968
32.80000 10.194
32.84000 4.027
32.88000 6.068
32.92000 8.105
32.96000 8.112
33.00000 12.256
33.04000 9.170
33.08000 5.018
33.12000 6.086
33.16000 7.030
33.20000 7.032
33.24000 4.073
33.28000 10.164
33.32000 5.149
33.36000 3.014
33.40000 6.080
33.44000 9.069
33.48000 4.091
33.52000 4.060
33.56000 8.115
33.60000 8.095
33.64000 9.138
33.68000 8.232
33.72000 2.040
33.76000 11.141
33.80000 5.072
33.84000 4.145
33.88000 5.077
33.92000 5.086
33.96000 9.119
34.00000 2.027
34.04000 3.004
34.08000 7.045
34.12000 9.193
34.16000 5.092
34.20000 2.087
34.24000 9.053
34.28000 13.060
34.32000 6.038
34.36000 5.248
34.40000 6.175
34.44000 13.291
34.48000 12.315
34.52000 5.019
34.56000 5.131
34.60000 3.987
34.64000 6.079
34.68000 6.046
34.72000 3.037
34.76000 6.989
34.80000 8.017
34.84000 9.000
34.88000 5.072
34.92000 4.020
34.96000 8.110
35.00000 8.047
35.04000 6.047
35.08000 4.076
35.12000 11.997
35.16000 7.065
35.20000 10.231
35.24000 6.099
35.28000 7.059
35.32000 5.958
35.36000 3.039
35.40000 10.134
35.44000 13.371
35.48000 3.075
35.52000 7.055
35.56000 3.007
35.60000 5.075
35.64000 9.082
35.68000 3.037
35.72000 7.067
35.76000 6.077
35.80000 4.017
35.84000 7.059
35.88000 1.963
35.92000 0.988
35.96000 2.012
36.00000 6.211
36.04000 5.112
36.08000 5.104
36.12000 6.012
36.16000 2.073
36.20000 7.081
36.24000 9.961
36.28000 11.190
36.32000 2.049
36.36000 5.039
36.40000 6.118
36.44000 3.998
36.48000 6.097
36.52000 6.105
36.56000 10.094
36.60000 6.050
36.64000 5.063
36.68000 11.017
36.72000 3.036
36.76000 4.056
36.80000 2.997
36.84000 6.132
36.88000 6.060
36.92000 7.154
36.96000 5.012
37.00000 2.068
37.04000 5.118
37.08000 6.205
37.12000 5.125
37.16000 9.109
37.20000 7.010
37.24000 1.990
37.28000 8.157
37.32000 5.048
37.36000 4.079
37.40000 3.045
37.44000 1.986
37.48000 3.999
37.52000 4.083
37.56000 2.019
37.60000 7.120
37.64000 7.106
37.68000 4.059
37.72000 5.163
37.76000 4.120
37.80000 2.020
37.84000 5.040
37.88000 5.070
37.92000 4.034
37.96000 3.017
38.00000 2.992
38.04000 2.967
38.08000 2.951
38.12000 10.167
38.16000 5.217
38.20000 4.064
38.24000 6.124
38.28000 7.045
38.32000 11.101
38.36000 11.214
38.40000 6.085
38.44000 5.036
38.48000 7.104
38.52000 4.091
38.56000 3.010
38.60000 2.075
38.64000 10.178
38.68000 4.042
38.72000 2.059
38.76000 6.099
38.80000 4.137
38.84000 3.025
38.88000 5.202
38.92000 2.036
38.96000 7.058
39.00000 4.039
39.04000 4.091
39.08000 3.079
39.12000 5.042
39.16000 4.022
39.20000 10.129
39.24000 5.004
39.28000 7.069
39.32000 1.013
39.36000 8.047
39.40000 4.032
39.44000 9.061
39.48000 4.074
39.52000 7.241
39.56000 5.102
39.60000 3.031
39.64000 6.033
39.68000 10.050
39.72000 5.017
39.76000 5.109
39.80000 12.087
39.84000 3.040
39.88000 4.044
39.92000 5.105
39.96000 8.243
40.00000 6.094
40.04000 5.071
40.08000 9.115
40.12000 10.202
40.16000 4.073
40.20000 8.169
40.24000 12.170
40.28000 3.026
40.32000 5.020
40.36000 5.015
40.40000 2.969
40.44000 1.000
40.48000 4.076
40.52000 2.036
40.56000 5.055
40.60000 7.035
40.64000 5.063
40.68000 7.151
40.72000 3.081
40.76000 6.039
40.80000 5.112
40.84000 5.037
40.88000 5.087
40.92000 7.249
40.96000 4.030
41.00000 5.076
41.04000 4.118
41.08000 7.289
41.12000 5.129
41.16000 3.021
41.20000 4.036
41.24000 7.054
41.28000 2.076
41.32000 3.011
41.36000 6.054
41.40000 4.065
41.44000 2.013
41.48000 5.050
41.52000 7.048
41.56000 2.002
41.60000 4.072
41.64000 11.061
41.68000 8.134
41.72000 1.049
41.76000 3.076
41.80000 3.020
41.84000 7.050
41.88000 7.093
41.92000 9.042
41.96000 2.055
42.00000 2.103
42.04000 3.988
42.08000 5.107
42.12000 7.167
42.16000 3.037
42.20000 5.016
42.24000 7.163
42.28000 5.027
42.32000 1.996
42.36000 3.074
42.40000 2.034
42.44000 5.023
42.48000 8.106
42.52000 1.027
42.56000 5.070
42.60000 1.007
42.64000 3.064
42.68000 5.055
42.72000 4.159
42.76000 6.182
42.80000 2.998
42.84000 2.990
42.88000 8.072
42.92000 3.131
42.96000 6.147
43.00000 6.021
43.04000 3.033
43.08000 2.004
43.12000 4.093
43.16000 2.999
43.20000 4.049
43.24000 1.992
43.28000 4.009
43.32000 0.000
43.36000 4.075
43.40000 5.110
43.44000 4.094
43.48000 12.093
43.52000 3.043
43.56000 8.985
43.60000 3.047
43.64000 4.060
43.68000 0.000
43.72000 3.052
43.76000 3.038
43.80000 3.038
43.84000 2.032
43.88000 6.998
43.92000 5.109
43.96000 1.015
44.00000 3.025
44.04000 4.064
44.08000 7.122
44.12000 2.027
44.16000 6.119
44.20000 10.056
44.24000 0.998
44.28000 2.110
44.32000 1.045
44.36000 3.045
44.40000 4.039
44.44000 3.043
44.48000 1.990
44.52000 6.028
44.56000 4.115
44.60000 1.005
44.64000 2.038
44.68000 4.100
44.72000 9.092
44.76000 2.038
44.80000 4.019
44.84000 5.150
44.88000 2.034
44.92000 4.001
44.96000 6.062
45.00000 2.997
45.04000 1.044
45.08000 4.987
45.12000 3.111
45.16000 1.983
45.20000 4.984
45.24000 1.994
45.28000 8.229
45.32000 4.091
45.36000 1.995
45.40000 6.032
45.44000 5.104
45.48000 7.964
45.52000 5.052
45.56000 1.003
45.60000 9.079
45.64000 4.050
45.68000 4.062
45.72000 4.142
45.76000 1.072
45.80000 0.985
45.84000 6.044
45.88000 3.020
45.92000 1.005
45.96000 3.088
46.00000 9.089
46.04000 3.061
46.08000 5.016
46.12000 6.187
46.16000 4.003
46.20000 2.952
46.24000 7.066
46.28000 1.056
46.32000 3.046
46.36000 2.035
46.40000 2.979
46.44000 4.086
46.48000 5.039
46.52000 2.004
46.56000 2.971
46.60000 5.027
46.64000 1.006
46.68000 7.061
46.72000 3.038
46.76000 5.152
46.80000 6.065
46.84000 0.000
46.88000 2.026
46.92000 1.995
46.96000 5.062
47.00000 3.068
47.04000 5.063
47.08000 4.033
47.12000 6.059
47.16000 4.117
47.20000 6.045
47.24000 3.086
47.28000 1.000
47.32000 7.146
47.36000 3.034
47.40000 2.090
47.44000 2.012
47.48000 0.992
47.52000 2.034
47.56000 3.018
47.60000 4.980
47.64000 3.020
47.68000 4.000
47.72000 1.992
47.76000 3.999
47.80000 4.107
47.84000 3.086
47.88000 2.019
47.92000 3.062
47.96000 3.067
48.00000 7.108
48.04000 1.997
48.08000 2.069
48.12000 3.104
48.16000 2.023
48.20000 6.115
48.24000 2.031
48.28000 0.000
48.32000 2.041
48.36000 2.063
48.40000 3.034
48.44000 0.000
48.48000 2.994
48.52000 2.967
48.56000 1.991
48.60000 5.078
48.64000 4.055
48.68000 3.961
48.72000 3.097
48.76000 2.103
48.80000 2.021
48.84000 5.072
48.88000 5.057
48.92000 2.997
48.96000 5.110
49.00000 1.046
49.04000 0.000
49.08000 2.036
49.12000 4.972
49.16000 6.112
49.20000 2.043
49.24000 2.033
49.28000 2.044
49.32000 2.091
49.36000 4.010
49.40000 1.026
49.44000 2.058
49.48000 2.091
49.52000 2.014
49.56000 1.004
49.60000 2.991
49.64000 4.030
49.68000 4.070
49.72000 6.031
49.76000 4.110
49.80000 3.971
49.84000 1.009
49.88000 2.037
49.92000 6.013
49.96000 3.985
50.00000 3.054
50.04000 1.025
50.08000 0.983
50.12000 0.979
50.16000 2.052
50.20000 2.025
50.24000 4.081
50.28000 4.081
50.32000 3.000
50.36000 1.063
50.40000 3.010
50.44000 2.005
50.48000 5.010
50.52000 1.005
50.56000 2.966
50.60000 1.041
50.64000 1.001
50.68000 1.998
50.72000 3.024
50.76000 2.008
50.80000 2.987
50.84000 3.024
50.88000 6.981
50.92000 2.021
50.96000 2.026
51.00000 2.994
51.04000 0.000
51.08000 5.087
51.12000 1.029
51.16000 6.109
51.20000 2.030
51.24000 3.002
51.28000 5.024
51.32000 4.023
51.36000 5.093
51.40000 5.044
51.44000 6.089
51.48000 0.992
51.52000 2.033
51.56000 2.080
51.60000 2.014
51.64000 2.030
51.68000 2.033
51.72000 0.000
51.76000 4.094
51.80000 3.028
51.84000 2.024
51.88000 2.026
51.92000 2.018
51.96000 2.006
52.00000 2.002
52.04000 4.045
52.08000 1.986
52.12000 1.992
52.16000 4.037
52.20000 1.012
52.24000 1.024
52.28000 2.029
52.32000 5.037
52.36000 1.030
52.40000 2.024
52.44000 4.085
52.48000 0.995
52.52000 1.035
52.56000 5.038
52.60000 1.998
52.64000 2.017
52.68000 0.988
52.72000 3.096
52.76000 4.004
52.80000 3.021
52.84000 1.986
52.88000 2.095
52.92000 1.997
52.96000 0.987
53.00000 0.000
53.04000 3.047
53.08000 0.000
53.12000 1.019
53.16000 4.073
53.20000 3.000
53.24000 0.000
53.28000 1.011
53.32000 4.991
53.36000 5.091
53.40000 3.992
53.44000 2.045
53.48000 0.994
53.52000 0.997
53.56000 2.986
53.60000 3.045
53.64000 4.096
53.68000 4.055
53.72000 3.007
53.76000 4.048
53.80000 2.074
53.84000 3.045
53.88000 0.000
53.92000 2.026
53.96000 4.039
54.00000 4.134
54.04000 3.023
54.08000 0.000
54.12000 3.034
54.16000 5.114
54.20000 3.080
54.24000 4.078
54.28000 0.996
54.32000 0.998
54.36000 1.005
54.40000 3.969
54.44000 4.058
54.48000 2.998
54.52000 2.034
54.56000 2.043
54.60000 6.038
54.64000 1.041
54.68000 6.117
54.72000 2.019
54.76000 5.057
54.80000 2.009
54.84000 4.151
54.88000 0.000
54.92000 3.062
54.96000 2.006
55.00000 3.086
55.04000 3.013
55.08000 4.124
55.12000 8.068
55.16000 3.011
55.20000 3.011
55.24000 2.062
55.28000 1.995
55.32000 2.018
55.36000 1.039
55.40000 0.996
55.44000 4.030
55.48000 6.084
55.52000 2.997
55.56000 4.088
55.60000 0.000
55.64000 1.045
55.68000 1.999
55.72000 3.016
55.76000 0.000
55.80000 3.012
55.84000 3.023
55.88000 1.967
55.92000 3.986
55.96000 3.054
56.00000 0.994
56.04000 2.035
56.08000 1.971
56.12000 2.028
56.16000 1.988
56.20000 0.980
56.24000 3.042
56.28000 0.999
56.32000 0.984
56.36000 5.009
56.40000 0.000
56.44000 3.021
56.48000 2.029
56.52000 2.012
56.56000 1.985
56.60000 1.051
56.64000 2.028
56.68000 2.008
56.72000 2.037
56.76000 1.995
56.80000 1.954
56.84000 0.996
56.88000 4.027
56.92000 3.054
56.96000 0.998
57.00000 1.042
57.04000 4.039
57.08000 1.048
57.12000 3.056
57.16000 4.163
57.20000 2.982
57.24000 0.000
57.28000 2.999
57.32000 1.004
57.36000 2.060
57.40000 1.005
57.44000 0.000
57.48000 2.022
57.52000 2.025
57.56000 3.991
57.60000 2.038
57.64000 2.024
57.68000 4.021
57.72000 1.957
57.76000 1.039
57.80000 3.026
57.84000 3.028
57.88000 0.982
57.92000 2.066
57.96000 2.002
58.00000 2.976
58.04000 3.106
58.08000 5.019
58.12000 3.005
58.16000 0.000
58.20000 1.050
58.24000 0.967
58.28000 4.030
58.32000 1.022
58.36000 2.952
58.40000 3.964
58.44000 2.089
58.48000 5.150
58.52000 4.057
58.56000 0.000
58.60000 3.033
58.64000 4.056
58.68000 2.022
58.72000 0.982
58.76000 2.010
58.80000 2.015
58.84000 1.007
58.88000 0.000
58.92000 2.007
58.96000 1.990
59.00000 1.040
59.04000 3.981
59.08000 0.000
59.12000 5.189
59.16000 0.997
59.20000 0.987
59.24000 1.978
59.28000 1.024
59.32000 2.043
59.36000 1.982
59.40000 1.986
59.44000 2.016
59.48000 5.095
59.52000 4.103
59.56000 4.027
59.60000 1.035
59.64000 0.995
59.68000 5.033
59.72000 3.113
59.76000 1.965
59.80000 7.053
59.84000 0.000
59.88000 2.965
59.92000 4.036
59.96000 1.041
60.00000 3.035
60.04000 0.000
60.08000 1.047
60.12000 0.999
60.16000 3.981
60.20000 1.024
60.24000 0.989
60.28000 1.005
60.32000 2.053
60.36000 0.998
60.40000 3.104
60.44000 2.971
60.48000 1.989
60.52000 1.014
60.56000 1.991
60.60000 1.992
60.64000 0.000
60.68000 5.045
60.72000 4.066
60.76000 2.084
60.80000 3.010
60.84000 5.026
60.88000 3.009
60.92000 5.089
60.96000 2.024
61.00000 1.952
61.04000 3.006
61.08000 1.978
61.12000 4.126
61.16000 2.018
61.20000 2.993
61.24000 3.050
61.28000 3.036
61.32000 3.027
61.36000 3.098
61.40000 2.082
61.44000 2.052
61.48000 4.061
61.52000 0.000
61.56000 2.986
61.60000 2.028
61.64000 3.132
61.68000 3.006
61.72000 4.065
61.76000 3.052
61.80000 4.004
61.84000 1.986
61.88000 0.000
61.92000 1.025
61.96000 2.064
62.00000 1.058
62.04000 0.000
62.08000 3.069
62.12000 3.988
62.16000 3.036
62.20000 2.044
62.24000 2.053
62.28000 0.000
62.32000 1.055
62.36000 0.000
62.40000 1.022
62.44000 2.002
62.48000 1.011
62.52000 2.055
62.56000 1.996
62.60000 1.995
62.64000 5.051
62.68000 2.000
62.72000 3.008
62.76000 2.029
62.80000 4.032
62.84000 2.027
62.88000 1.038
62.92000 3.006
62.96000 1.026
63.00000 1.053
63.04000 0.983
63.08000 5.129
63.12000 3.094
63.16000 6.005
63.20000 2.020
63.24000 1.011
63.28000 4.032
63.32000 4.090
63.36000 0.000
63.40000 0.997
63.44000 0.000
63.48000 2.000
63.52000 3.064
63.56000 1.978
63.60000 4.122
63.64000 4.118
63.68000 4.017
63.72000 2.033
63.76000 4.046
63.80000 0.000
63.84000 4.057
63.88000 2.022
63.92000 2.040
63.96000 3.003
64.00000 1.998
64.04000 0.990
64.08000 4.090
64.12000 0.000
64.16000 2.007
64.20000 1.033
64.24000 1.008
64.28000 2.965
64.32000 1.037
64.36000 0.998
64.40000 4.031
64.44000 2.047
64.48000 1.986
64.52000 1.039
64.56000 1.023
64.60000 0.000
64.64000 4.059
64.68000 2.048
64.72000 3.038
64.76000 2.014
64.80000 0.000
64.84000 3.981
64.88000 0.000
64.92000 0.000
64.96000 2.028
65.00000 5.022