File: XRD/XRD/11-09-2025/XY Data/01092025_BTO_omega_1_001_06_8-345_-36-560.xy
20.00000 174.960
20.04000 188.206
20.08000 159.979
20.12000 160.650
20.16000 174.433
20.20000 166.728
20.24000 160.371
20.28000 165.235
20.32000 166.743
20.36000 155.328
20.40000 155.093
20.44000 175.095
20.48000 165.951
20.52000 161.980
20.56000 151.470
20.60000 160.871
20.64000 156.473
20.68000 125.368
20.72000 149.469
20.76000 150.321
20.80000 132.248
20.84000 153.758
20.88000 116.129
20.92000 118.120
20.96000 149.704
21.00000 110.359
21.04000 132.697
21.08000 125.649
21.12000 120.225
21.16000 104.826
21.20000 127.341
21.24000 107.219
21.28000 121.027
21.32000 123.047
21.36000 109.983
21.40000 99.921
21.44000 110.056
21.48000 107.094
21.52000 96.674
21.56000 106.089
21.60000 86.779
21.64000 106.238
21.68000 98.881
21.72000 93.040
21.76000 109.205
21.80000 91.716
21.84000 90.826
21.88000 90.869
21.92000 94.858
21.96000 92.038
22.00000 82.632
22.04000 96.088
22.08000 79.943
22.12000 84.998
22.16000 80.075
22.20000 83.280
22.24000 82.541
22.28000 68.763
22.32000 93.046
22.36000 73.594
22.40000 73.829
22.44000 55.512
22.48000 78.642
22.52000 74.699
22.56000 68.611
22.60000 63.340
22.64000 67.962
22.68000 65.765
22.72000 67.501
22.76000 71.504
22.80000 61.607
22.84000 57.479
22.88000 54.360
22.92000 73.600
22.96000 59.381
23.00000 47.747
23.04000 64.638
23.08000 53.730
23.12000 51.523
23.16000 41.566
23.20000 50.369
23.24000 43.454
23.28000 48.624
23.32000 50.535
23.36000 45.492
23.40000 39.329
23.44000 44.424
23.48000 42.331
23.52000 44.405
23.56000 34.388
23.60000 46.123
23.64000 48.543
23.68000 36.397
23.72000 43.726
23.76000 37.544
23.80000 32.563
23.84000 51.705
23.88000 45.908
23.92000 35.324
23.96000 35.272
24.00000 29.223
24.04000 45.517
24.08000 32.374
24.12000 31.319
24.16000 30.694
24.20000 25.223
24.24000 24.138
24.28000 35.610
24.32000 36.238
24.36000 34.358
24.40000 35.294
24.44000 23.213
24.48000 31.320
24.52000 31.108
24.56000 23.084
24.60000 31.398
24.64000 24.384
24.68000 23.295
24.72000 21.183
24.76000 26.495
24.80000 16.166
24.84000 24.495
24.88000 22.301
24.92000 23.322
24.96000 17.052
25.00000 25.406
25.04000 25.377
25.08000 21.191
25.12000 26.389
25.16000 21.231
25.20000 20.213
25.24000 28.171
25.28000 20.190
25.32000 30.095
25.36000 27.156
25.40000 21.093
25.44000 23.348
25.48000 28.350
25.52000 13.225
25.56000 17.194
25.60000 16.157
25.64000 17.171
25.68000 13.043
25.72000 13.076
25.76000 23.402
25.80000 21.305
25.84000 13.094
25.88000 12.997
25.92000 14.234
25.96000 23.323
26.00000 17.294
26.04000 11.078
26.08000 12.089
26.12000 26.258
26.16000 17.322
26.20000 22.331
26.24000 18.187
26.28000 20.051
26.32000 9.090
26.36000 16.220
26.40000 11.992
26.44000 20.207
26.48000 12.279
26.52000 19.082
26.56000 15.295
26.60000 13.153
26.64000 17.246
26.68000 10.096
26.72000 19.004
26.76000 18.412
26.80000 22.174
26.84000 12.232
26.88000 12.169
26.92000 14.252
26.96000 17.323
27.00000 11.237
27.04000 12.985
27.08000 15.339
27.12000 20.412
27.16000 17.168
27.20000 11.057
27.24000 16.200
27.28000 12.221
27.32000 29.192
27.36000 11.245
27.40000 13.223
27.44000 20.217
27.48000 10.104
27.52000 12.166
27.56000 11.127
27.60000 10.097
27.64000 15.157
27.68000 13.164
27.72000 10.179
27.76000 11.114
27.80000 22.379
27.84000 16.222
27.88000 5.065
27.92000 8.041
27.96000 14.124
28.00000 14.238
28.04000 10.125
28.08000 13.060
28.12000 11.050
28.16000 11.195
28.20000 16.256
28.24000 14.313
28.28000 11.091
28.32000 8.993
28.36000 8.199
28.40000 11.054
28.44000 18.096
28.48000 15.186
28.52000 13.151
28.56000 10.080
28.60000 11.100
28.64000 11.204
28.68000 20.310
28.72000 11.141
28.76000 6.140
28.80000 12.120
28.84000 15.251
28.88000 20.183
28.92000 14.122
28.96000 9.991
29.00000 19.265
29.04000 17.276
29.08000 15.269
29.12000 5.110
29.16000 7.083
29.20000 17.144
29.24000 6.065
29.28000 10.163
29.32000 9.067
29.36000 13.210
29.40000 11.244
29.44000 9.040
29.48000 10.221
29.52000 3.988
29.56000 10.103
29.60000 7.104
29.64000 10.129
29.68000 11.288
29.72000 9.056
29.76000 10.099
29.80000 8.151
29.84000 12.142
29.88000 7.982
29.92000 7.967
29.96000 11.156
30.00000 14.214
30.04000 8.129
30.08000 9.112
30.12000 10.174
30.16000 6.088
30.20000 15.298
30.24000 8.105
30.28000 14.203
30.32000 6.982
30.36000 5.084
30.40000 14.233
30.44000 9.316
30.48000 9.116
30.52000 9.179
30.56000 12.981
30.60000 10.019
30.64000 8.083
30.68000 6.106
30.72000 8.028
30.76000 5.144
30.80000 12.038
30.84000 10.209
30.88000 6.933
30.92000 8.220
30.96000 16.082
31.00000 10.035
31.04000 9.213
31.08000 8.227
31.12000 3.066
31.16000 12.176
31.20000 9.087
31.24000 4.985
31.28000 7.072
31.32000 5.990
31.36000 11.209
31.40000 8.113
31.44000 9.086
31.48000 14.177
31.52000 12.263
31.56000 5.206
31.60000 8.071
31.64000 11.174
31.68000 9.201
31.72000 5.092
31.76000 5.032
31.80000 9.179
31.84000 7.042
31.88000 8.094
31.92000 5.159
31.96000 7.088
32.00000 6.158
32.04000 8.146
32.08000 10.088
32.12000 3.030
32.16000 7.107
32.20000 6.042
32.24000 11.158
32.28000 11.167
32.32000 11.107
32.36000 7.125
32.40000 11.067
32.44000 7.100
32.48000 6.039
32.52000 13.317
32.56000 4.064
32.60000 6.116
32.64000 8.135
32.68000 5.115
32.72000 7.075
32.76000 9.151
32.80000 5.153
32.84000 6.163
32.88000 6.153
32.92000 10.196
32.96000 6.162
33.00000 5.181
33.04000 8.073
33.08000 12.248
33.12000 2.032
33.16000 10.180
33.20000 7.150
33.24000 10.128
33.28000 6.219
33.32000 7.125
33.36000 7.021
33.40000 9.151
33.44000 9.070
33.48000 8.156
33.52000 7.082
33.56000 6.029
33.60000 2.003
33.64000 6.066
33.68000 5.108
33.72000 5.979
33.76000 7.053
33.80000 12.102
33.84000 3.023
33.88000 3.063
33.92000 5.037
33.96000 5.157
34.00000 11.216
34.04000 4.079
34.08000 2.024
34.12000 8.104
34.16000 7.110
34.20000 1.005
34.24000 7.109
34.28000 6.995
34.32000 4.093
34.36000 7.935
34.40000 8.967
34.44000 7.069
34.48000 3.032
34.52000 5.068
34.56000 4.990
34.60000 10.210
34.64000 5.132
34.68000 7.037
34.72000 12.302
34.76000 10.177
34.80000 8.161
34.84000 8.080
34.88000 4.099
34.92000 7.078
34.96000 5.973
35.00000 7.193
35.04000 6.100
35.08000 8.074
35.12000 7.139
35.16000 4.052
35.20000 9.047
35.24000 7.127
35.28000 0.992
35.32000 4.026
35.36000 3.005
35.40000 6.059
35.44000 6.099
35.48000 3.064
35.52000 12.121
35.56000 5.959
35.60000 4.051
35.64000 6.081
35.68000 3.060
35.72000 12.171
35.76000 5.068
35.80000 7.100
35.84000 5.044
35.88000 10.110
35.92000 8.076
35.96000 6.065
36.00000 7.114
36.04000 8.060
36.08000 5.052
36.12000 8.091
36.16000 3.951
36.20000 3.031
36.24000 2.004
36.28000 4.006
36.32000 9.132
36.36000 7.071
36.40000 9.148
36.44000 7.018
36.48000 5.074
36.52000 10.021
36.56000 5.038
36.60000 9.112
36.64000 6.173
36.68000 2.040
36.72000 7.127
36.76000 3.116
36.80000 3.047
36.84000 8.062
36.88000 2.059
36.92000 2.980
36.96000 2.011
37.00000 1.994
37.04000 9.084
37.08000 8.152
37.12000 5.060
37.16000 8.221
37.20000 6.175
37.24000 5.032
37.28000 3.086
37.32000 5.043
37.36000 6.162
37.40000 3.952
37.44000 3.114
37.48000 6.139
37.52000 6.094
37.56000 2.035
37.60000 9.136
37.64000 6.075
37.68000 8.097
37.72000 7.059
37.76000 2.995
37.80000 2.014
37.84000 5.101
37.88000 5.091
37.92000 6.040
37.96000 9.120
38.00000 7.066
38.04000 5.058
38.08000 5.035
38.12000 5.108
38.16000 4.054
38.20000 3.075
38.24000 5.962
38.28000 5.097
38.32000 3.090
38.36000 7.154
38.40000 5.112
38.44000 1.010
38.48000 3.032
38.52000 5.146
38.56000 5.119
38.60000 5.098
38.64000 2.092
38.68000 5.095
38.72000 6.060
38.76000 5.103
38.80000 7.198
38.84000 3.048
38.88000 4.120
38.92000 3.086
38.96000 5.080
39.00000 6.019
39.04000 4.011
39.08000 8.023
39.12000 2.073
39.16000 4.070
39.20000 4.003
39.24000 6.068
39.28000 5.009
39.32000 8.122
39.36000 6.111
39.40000 8.124
39.44000 4.047
39.48000 6.998
39.52000 7.109
39.56000 9.036
39.60000 3.058
39.64000 3.011
39.68000 5.990
39.72000 7.112
39.76000 3.029
39.80000 4.152
39.84000 8.126
39.88000 1.013
39.92000 5.132
39.96000 2.046
40.00000 4.087
40.04000 5.043
40.08000 1.041
40.12000 7.018
40.16000 6.174
40.20000 5.041
40.24000 7.004
40.28000 6.089
40.32000 3.048
40.36000 4.977
40.40000 6.133
40.44000 3.027
40.48000 4.051
40.52000 4.066
40.56000 4.043
40.60000 0.995
40.64000 3.990
40.68000 5.078
40.72000 6.102
40.76000 4.060
40.80000 9.095
40.84000 6.060
40.88000 3.111
40.92000 3.057
40.96000 3.127
41.00000 3.000
41.04000 4.979
41.08000 4.060
41.12000 3.081
41.16000 3.036
41.20000 2.069
41.24000 4.040
41.28000 4.963
41.32000 5.974
41.36000 6.036
41.40000 8.225
41.44000 4.063
41.48000 1.998
41.52000 7.036
41.56000 2.015
41.60000 4.986
41.64000 6.083
41.68000 3.072
41.72000 2.048
41.76000 4.034
41.80000 1.989
41.84000 2.089
41.88000 9.055
41.92000 2.016
41.96000 4.150
42.00000 7.059
42.04000 2.998
42.08000 3.065
42.12000 7.029
42.16000 3.048
42.20000 4.111
42.24000 4.100
42.28000 2.030
42.32000 7.125
42.36000 2.032
42.40000 2.051
42.44000 5.057
42.48000 9.041
42.52000 5.096
42.56000 3.988
42.60000 5.042
42.64000 5.101
42.68000 3.023
42.72000 3.093
42.76000 2.972
42.80000 7.052
42.84000 0.000
42.88000 3.073
42.92000 0.000
42.96000 2.035
43.00000 3.050
43.04000 3.055
43.08000 2.010
43.12000 6.066
43.16000 7.182
43.20000 4.041
43.24000 3.010
43.28000 0.981
43.32000 6.029
43.36000 6.951
43.40000 5.107
43.44000 8.226
43.48000 4.087
43.52000 4.032
43.56000 2.031
43.60000 3.102
43.64000 4.045
43.68000 0.997
43.72000 0.000
43.76000 0.000
43.80000 0.000
43.84000 4.061
43.88000 1.985
43.92000 1.035
43.96000 7.177
44.00000 5.092
44.04000 8.175
44.08000 2.033
44.12000 4.064
44.16000 3.009
44.20000 7.029
44.24000 3.045
44.28000 0.996
44.32000 5.046
44.36000 3.013
44.40000 3.993
44.44000 4.122
44.48000 1.978
44.52000 3.005
44.56000 0.000
44.60000 6.077
44.64000 0.995
44.68000 6.015
44.72000 2.011
44.76000 9.228
44.80000 2.077
44.84000 3.945
44.88000 3.008
44.92000 2.014
44.96000 2.994
45.00000 2.021
45.04000 3.041
45.08000 3.007
45.12000 3.052
45.16000 0.000
45.20000 1.006
45.24000 3.086
45.28000 2.990
45.32000 1.027
45.36000 2.029
45.40000 3.010
45.44000 4.000
45.48000 6.119
45.52000 0.000
45.56000 5.020
45.60000 7.148
45.64000 2.966
45.68000 2.051
45.72000 3.942
45.76000 2.032
45.80000 3.062
45.84000 3.010
45.88000 3.015
45.92000 4.047
45.96000 2.015
46.00000 1.005
46.04000 7.143
46.08000 6.092
46.12000 2.023
46.16000 3.083
46.20000 3.129
46.24000 5.046
46.28000 0.995
46.32000 3.129
46.36000 3.936
46.40000 3.053
46.44000 2.017
46.48000 2.046
46.52000 5.080
46.56000 7.113
46.60000 5.002
46.64000 5.057
46.68000 5.021
46.72000 3.032
46.76000 4.004
46.80000 5.056
46.84000 1.058
46.88000 3.020
46.92000 6.056
46.96000 3.046
47.00000 3.038
47.04000 5.028
47.08000 3.089
47.12000 5.986
47.16000 1.034
47.20000 5.082
47.24000 3.112
47.28000 4.020
47.32000 2.028
47.36000 7.070
47.40000 4.071
47.44000 0.000
47.48000 2.031
47.52000 2.009
47.56000 0.000
47.60000 6.061
47.64000 5.068
47.68000 1.018
47.72000 2.993
47.76000 3.026
47.80000 3.028
47.84000 2.011
47.88000 2.072
47.92000 3.984
47.96000 0.992
48.00000 6.015
48.04000 3.013
48.08000 3.054
48.12000 4.076
48.16000 4.101
48.20000 6.188
48.24000 7.043
48.28000 3.145
48.32000 4.058
48.36000 4.085
48.40000 0.000
48.44000 1.033
48.48000 2.044
48.52000 4.027
48.56000 2.013
48.60000 0.993
48.64000 3.023
48.68000 7.051
48.72000 2.079
48.76000 0.988
48.80000 1.956
48.84000 2.005
48.88000 2.029
48.92000 0.995
48.96000 3.019
49.00000 2.995
49.04000 5.197
49.08000 1.018
49.12000 0.000
49.16000 1.955
49.20000 3.036
49.24000 3.019
49.28000 1.049
49.32000 7.098
49.36000 1.042
49.40000 3.000
49.44000 3.043
49.48000 4.039
49.52000 7.076
49.56000 5.048
49.60000 1.016
49.64000 3.072
49.68000 6.039
49.72000 0.986
49.76000 4.014
49.80000 5.107
49.84000 2.030
49.88000 5.095
49.92000 2.069
49.96000 1.077
50.00000 1.998
50.04000 1.048
50.08000 3.047
50.12000 5.022
50.16000 2.085
50.20000 2.983
50.24000 2.064
50.28000 5.972
50.32000 1.992
50.36000 0.993
50.40000 5.096
50.44000 2.038
50.48000 0.994
50.52000 6.057
50.56000 2.076
50.60000 0.000
50.64000 3.035
50.68000 1.009
50.72000 1.063
50.76000 3.985
50.80000 1.964
50.84000 3.136
50.88000 4.119
50.92000 6.947
50.96000 1.013
51.00000 5.027
51.04000 3.058
51.08000 1.012
51.12000 3.054
51.16000 2.020
51.20000 2.012
51.24000 1.976
51.28000 2.075
51.32000 5.009
51.36000 1.019
51.40000 3.008
51.44000 1.008
51.48000 2.000
51.52000 5.031
51.56000 2.994
51.60000 4.022
51.64000 3.052
51.68000 3.027
51.72000 2.037
51.76000 3.011
51.80000 3.050
51.84000 1.046
51.88000 2.115
51.92000 2.045
51.96000 2.002
52.00000 2.025
52.04000 2.009
52.08000 0.999
52.12000 1.988
52.16000 1.015
52.20000 6.983
52.24000 0.975
52.28000 3.072
52.32000 4.055
52.36000 3.019
52.40000 4.037
52.44000 4.068
52.48000 2.080
52.52000 0.000
52.56000 3.980
52.60000 3.038
52.64000 2.058
52.68000 4.100
52.72000 3.055
52.76000 3.099
52.80000 1.008
52.84000 2.023
52.88000 2.034
52.92000 3.989
52.96000 1.041
53.00000 0.985
53.04000 3.012
53.08000 0.986
53.12000 2.050
53.16000 2.991
53.20000 2.074
53.24000 2.014
53.28000 3.045
53.32000 4.052
53.36000 1.027
53.40000 5.082
53.44000 3.067
53.48000 1.008
53.52000 4.051
53.56000 3.000
53.60000 3.086
53.64000 2.002
53.68000 2.976
53.72000 2.030
53.76000 3.003
53.80000 2.993
53.84000 6.140
53.88000 3.028
53.92000 3.071
53.96000 0.982
54.00000 2.068
54.04000 2.039
54.08000 1.983
54.12000 1.000
54.16000 3.081
54.20000 1.015
54.24000 1.071
54.28000 4.053
54.32000 1.996
54.36000 3.955
54.40000 2.020
54.44000 1.968
54.48000 1.992
54.52000 2.036
54.56000 1.025
54.60000 5.239
54.64000 2.004
54.68000 2.035
54.72000 3.998
54.76000 2.006
54.80000 0.000
54.84000 2.001
54.88000 2.997
54.92000 4.033
54.96000 1.006
55.00000 2.084
55.04000 3.031
55.08000 3.003
55.12000 0.000
55.16000 4.016
55.20000 3.083
55.24000 0.000
55.28000 0.996
55.32000 2.102
55.36000 2.996
55.40000 4.067
55.44000 5.092
55.48000 0.964
55.52000 1.967
55.56000 1.992
55.60000 5.018
55.64000 2.046
55.68000 2.039
55.72000 3.067
55.76000 2.030
55.80000 0.977
55.84000 1.039
55.88000 2.997
55.92000 2.013
55.96000 0.000
56.00000 3.044
56.04000 1.002
56.08000 0.000
56.12000 2.025
56.16000 2.038
56.20000 4.005
56.24000 3.059
56.28000 0.000
56.32000 2.069
56.36000 3.042
56.40000 2.037
56.44000 9.118
56.48000 2.035
56.52000 5.050
56.56000 2.031
56.60000 0.997
56.64000 1.011
56.68000 2.995
56.72000 2.988
56.76000 1.986
56.80000 2.021
56.84000 0.000
56.88000 1.994
56.92000 0.990
56.96000 2.040
57.00000 4.067
57.04000 2.996
57.08000 2.025
57.12000 1.008
57.16000 1.957
57.20000 0.000
57.24000 2.014
57.28000 5.070
57.32000 3.062
57.36000 2.045
57.40000 2.990
57.44000 2.982
57.48000 4.155
57.52000 1.018
57.56000 4.972
57.60000 6.030
57.64000 1.048
57.68000 1.993
57.72000 4.030
57.76000 2.990
57.80000 0.000
57.84000 3.023
57.88000 2.063
57.92000 3.090
57.96000 3.022
58.00000 1.018
58.04000 3.016
58.08000 3.057
58.12000 4.014
58.16000 3.027
58.20000 3.026
58.24000 0.998
58.28000 3.067
58.32000 3.020
58.36000 0.000
58.40000 4.040
58.44000 1.016
58.48000 0.998
58.52000 4.105
58.56000 2.975
58.60000 2.028
58.64000 0.985
58.68000 1.026
58.72000 1.999
58.76000 1.015
58.80000 3.020
58.84000 3.025
58.88000 0.986
58.92000 3.022
58.96000 3.993
59.00000 1.999
59.04000 2.999
59.08000 2.043
59.12000 0.000
59.16000 4.118
59.20000 0.995
59.24000 1.991
59.28000 5.087
59.32000 2.090
59.36000 2.021
59.40000 4.049
59.44000 5.041
59.48000 1.993
59.52000 1.003
59.56000 2.978
59.60000 6.065
59.64000 3.062
59.68000 1.004
59.72000 3.051
59.76000 1.972
59.80000 1.010
59.84000 3.054
59.88000 0.000
59.92000 1.006
59.96000 1.015
60.00000 1.001
60.04000 1.015
60.08000 1.012
60.12000 4.074
60.16000 1.071
60.20000 3.106
60.24000 0.000
60.28000 3.013
60.32000 4.992
60.36000 1.993
60.40000 2.004
60.44000 2.069
60.48000 2.961
60.52000 0.000
60.56000 4.049
60.60000 0.992
60.64000 1.042
60.68000 5.097
60.72000 2.036
60.76000 0.000
60.80000 2.004
60.84000 1.029
60.88000 0.975
60.92000 1.024
60.96000 0.991
61.00000 2.085
61.04000 2.078
61.08000 1.020
61.12000 0.981
61.16000 2.000
61.20000 0.000
61.24000 0.000
61.28000 3.039
61.32000 2.081
61.36000 2.010
61.40000 4.171
61.44000 1.010
61.48000 0.000
61.52000 3.053
61.56000 2.008
61.60000 1.977
61.64000 3.050
61.68000 2.025
61.72000 1.014
61.76000 4.045
61.80000 2.008
61.84000 3.091
61.88000 2.013
61.92000 2.056
61.96000 4.011
62.00000 5.019
62.04000 4.981
62.08000 7.135
62.12000 1.992
62.16000 1.043
62.20000 0.969
62.24000 2.059
62.28000 4.033
62.32000 2.000
62.36000 2.003
62.40000 1.962
62.44000 2.016
62.48000 1.059
62.52000 2.020
62.56000 0.000
62.60000 3.041
62.64000 4.091
62.68000 2.036
62.72000 2.027
62.76000 2.017
62.80000 1.997
62.84000 1.001
62.88000 3.037
62.92000 2.109
62.96000 0.000
63.00000 4.085
63.04000 1.025
63.08000 2.967
63.12000 4.065
63.16000 5.924
63.20000 2.009
63.24000 1.025
63.28000 3.073
63.32000 1.992
63.36000 0.000
63.40000 4.066
63.44000 3.033
63.48000 0.000
63.52000 2.013
63.56000 1.009
63.60000 0.985
63.64000 1.986
63.68000 2.995
63.72000 2.030
63.76000 2.008
63.80000 2.023
63.84000 3.003
63.88000 0.992
63.92000 3.119
63.96000 4.066
64.00000 1.991
64.04000 0.972
64.08000 2.032
64.12000 1.042
64.16000 3.041
64.20000 0.998
64.24000 4.081
64.28000 2.977
64.32000 3.013
64.36000 2.048
64.40000 1.003
64.44000 0.000
64.48000 0.000
64.52000 3.034
64.56000 3.993
64.60000 1.066
64.64000 1.001
64.68000 1.017
64.72000 1.014
64.76000 1.011
64.80000 5.017
64.84000 0.000
64.88000 2.015
64.92000 1.983
64.96000 1.995
65.00000 2.027