File: XRD/XRD/11-09-2025/XY Data/01092025_BTO_omega_1_001_27_25-000_0-000.xy
20.00000 13.212
20.04000 20.338
20.08000 15.103
20.12000 14.224
20.16000 15.328
20.20000 15.200
20.24000 21.309
20.28000 15.280
20.32000 19.227
20.36000 22.277
20.40000 13.230
20.44000 21.347
20.48000 17.372
20.52000 18.243
20.56000 16.226
20.60000 18.308
20.64000 10.187
20.68000 17.322
20.72000 17.038
20.76000 23.472
20.80000 18.275
20.84000 13.118
20.88000 17.282
20.92000 29.264
20.96000 27.275
21.00000 16.161
21.04000 15.175
21.08000 19.224
21.12000 17.165
21.16000 24.529
21.20000 20.209
21.24000 15.121
21.28000 20.081
21.32000 17.206
21.36000 10.117
21.40000 19.195
21.44000 20.235
21.48000 19.356
21.52000 15.200
21.56000 19.255
21.60000 15.223
21.64000 17.136
21.68000 17.178
21.72000 21.185
21.76000 17.332
21.80000 22.159
21.84000 17.212
21.88000 18.376
21.92000 17.231
21.96000 18.302
22.00000 14.127
22.04000 21.291
22.08000 21.971
22.12000 19.237
22.16000 20.042
22.20000 20.299
22.24000 21.313
22.28000 18.267
22.32000 18.080
22.36000 15.244
22.40000 13.194
22.44000 19.194
22.48000 28.587
22.52000 18.226
22.56000 24.207
22.60000 17.265
22.64000 23.082
22.68000 19.160
22.72000 16.097
22.76000 18.360
22.80000 20.152
22.84000 24.270
22.88000 20.219
22.92000 22.172
22.96000 14.240
23.00000 25.329
23.04000 22.465
23.08000 20.040
23.12000 30.179
23.16000 21.070
23.20000 15.132
23.24000 21.154
23.28000 26.364
23.32000 28.384
23.36000 16.066
23.40000 18.135
23.44000 16.267
23.48000 21.425
23.52000 16.281
23.56000 23.524
23.60000 16.211
23.64000 24.591
23.68000 22.142
23.72000 26.256
23.76000 23.358
23.80000 22.122
23.84000 21.279
23.88000 24.298
23.92000 24.405
23.96000 14.993
24.00000 24.260
24.04000 20.383
24.08000 18.422
24.12000 25.224
24.16000 24.335
24.20000 21.332
24.24000 27.440
24.28000 25.406
24.32000 26.321
24.36000 20.186
24.40000 21.252
24.44000 26.262
24.48000 24.000
24.52000 17.080
24.56000 24.353
24.60000 22.029
24.64000 21.475
24.68000 26.317
24.72000 24.155
24.76000 23.108
24.80000 21.220
24.84000 32.643
24.88000 23.338
24.92000 28.640
24.96000 22.358
25.00000 28.365
25.04000 33.327
25.08000 21.390
25.12000 34.360
25.16000 23.111
25.20000 23.243
25.24000 31.681
25.28000 29.186
25.32000 31.475
25.36000 42.417
25.40000 32.366
25.44000 30.300
25.48000 30.165
25.52000 41.731
25.56000 29.547
25.60000 31.325
25.64000 36.482
25.68000 30.381
25.72000 32.391
25.76000 32.377
25.80000 30.341
25.84000 28.309
25.88000 35.542
25.92000 32.189
25.96000 24.352
26.00000 32.274
26.04000 36.360
26.08000 25.491
26.12000 35.514
26.16000 24.476
26.20000 33.576
26.24000 37.510
26.28000 28.292
26.32000 33.154
26.36000 35.335
26.40000 47.510
26.44000 34.368
26.48000 41.544
26.52000 44.377
26.56000 39.436
26.60000 30.598
26.64000 29.352
26.68000 39.342
26.72000 37.368
26.76000 30.324
26.80000 37.301
26.84000 54.826
26.88000 24.238
26.92000 37.454
26.96000 45.546
27.00000 42.529
27.04000 40.652
27.08000 36.805
27.12000 35.558
27.16000 32.729
27.20000 30.231
27.24000 37.573
27.28000 45.598
27.32000 39.280
27.36000 43.426
27.40000 29.447
27.44000 35.534
27.48000 32.315
27.52000 35.294
27.56000 41.606
27.60000 29.336
27.64000 25.253
27.68000 39.421
27.72000 47.464
27.76000 34.486
27.80000 38.376
27.84000 37.421
27.88000 39.532
27.92000 44.636
27.96000 50.786
28.00000 35.491
28.04000 30.585
28.08000 31.515
28.12000 28.419
28.16000 25.360
28.20000 39.501
28.24000 32.732
28.28000 33.354
28.32000 37.542
28.36000 40.500
28.40000 34.520
28.44000 42.615
28.48000 43.650
28.52000 34.537
28.56000 46.414
28.60000 31.478
28.64000 23.343
28.68000 35.632
28.72000 28.173
28.76000 37.452
28.80000 36.540
28.84000 33.421
28.88000 35.233
28.92000 34.420
28.96000 34.576
29.00000 48.601
29.04000 31.283
29.08000 37.393
29.12000 31.351
29.16000 35.470
29.20000 33.419
29.24000 35.605
29.28000 40.246
29.32000 36.339
29.36000 33.463
29.40000 20.295
29.44000 25.418
29.48000 41.488
29.52000 34.408
29.56000 23.297
29.60000 27.409
29.64000 35.484
29.68000 33.292
29.72000 28.155
29.76000 40.666
29.80000 27.281
29.84000 31.676
29.88000 33.579
29.92000 19.151
29.96000 26.365
30.00000 30.168
30.04000 31.470
30.08000 31.394
30.12000 27.491
30.16000 39.459
30.20000 23.219
30.24000 28.357
30.28000 30.563
30.32000 21.197
30.36000 31.456
30.40000 24.270
30.44000 28.260
30.48000 31.309
30.52000 28.340
30.56000 19.188
30.60000 18.206
30.64000 29.284
30.68000 14.018
30.72000 30.481
30.76000 22.395
30.80000 24.207
30.84000 20.373
30.88000 22.209
30.92000 23.362
30.96000 21.303
31.00000 20.247
31.04000 34.237
31.08000 27.227
31.12000 28.439
31.16000 17.160
31.20000 20.310
31.24000 26.460
31.28000 30.542
31.32000 14.114
31.36000 23.170
31.40000 20.448
31.44000 21.260
31.48000 18.151
31.52000 18.323
31.56000 22.336
31.60000 23.184
31.64000 14.154
31.68000 22.084
31.72000 16.072
31.76000 13.179
31.80000 18.178
31.84000 14.069
31.88000 23.489
31.92000 22.373
31.96000 21.138
32.00000 17.287
32.04000 19.465
32.08000 13.113
32.12000 16.215
32.16000 20.195
32.20000 22.501
32.24000 21.393
32.28000 21.346
32.32000 17.263
32.36000 21.244
32.40000 16.172
32.44000 18.198
32.48000 19.153
32.52000 17.077
32.56000 21.111
32.60000 14.104
32.64000 16.164
32.68000 17.122
32.72000 20.242
32.76000 18.176
32.80000 17.325
32.84000 16.145
32.88000 16.265
32.92000 15.207
32.96000 3.992
33.00000 9.102
33.04000 21.310
33.08000 16.147
33.12000 16.212
33.16000 18.987
33.20000 11.181
33.24000 12.083
33.28000 12.057
33.32000 11.220
33.36000 4.040
33.40000 12.047
33.44000 16.337
33.48000 12.068
33.52000 17.113
33.56000 11.143
33.60000 13.158
33.64000 10.087
33.68000 18.336
33.72000 13.222
33.76000 14.195
33.80000 9.982
33.84000 14.095
33.88000 19.371
33.92000 12.222
33.96000 13.246
34.00000 14.348
34.04000 14.132
34.08000 11.138
34.12000 14.190
34.16000 10.148
34.20000 6.087
34.24000 13.113
34.28000 9.152
34.32000 18.346
34.36000 17.181
34.40000 12.264
34.44000 10.034
34.48000 7.130
34.52000 9.254
34.56000 12.057
34.60000 12.154
34.64000 10.152
34.68000 11.031
34.72000 13.064
34.76000 8.060
34.80000 13.107
34.84000 13.095
34.88000 10.205
34.92000 13.106
34.96000 12.086
35.00000 11.141
35.04000 11.089
35.08000 6.992
35.12000 16.362
35.16000 15.351
35.20000 12.186
35.24000 10.999
35.28000 15.169
35.32000 12.066
35.36000 8.149
35.40000 10.145
35.44000 16.094
35.48000 13.045
35.52000 9.183
35.56000 13.185
35.60000 8.099
35.64000 17.304
35.68000 18.302
35.72000 13.178
35.76000 10.122
35.80000 8.183
35.84000 12.153
35.88000 12.207
35.92000 10.113
35.96000 11.089
36.00000 10.229
36.04000 13.205
36.08000 15.276
36.12000 16.281
36.16000 13.161
36.20000 13.213
36.24000 17.202
36.28000 14.030
36.32000 17.230
36.36000 10.142
36.40000 8.097
36.44000 12.151
36.48000 18.105
36.52000 11.111
36.56000 9.164
36.60000 24.288
36.64000 8.120
36.68000 10.036
36.72000 12.191
36.76000 21.274
36.80000 9.055
36.84000 14.207
36.88000 13.138
36.92000 8.221
36.96000 14.115
37.00000 15.390
37.04000 18.222
37.08000 19.234
37.12000 14.322
37.16000 14.159
37.20000 15.114
37.24000 13.191
37.28000 14.308
37.32000 8.978
37.36000 11.152
37.40000 13.098
37.44000 7.166
37.48000 14.148
37.52000 11.173
37.56000 9.170
37.60000 16.364
37.64000 18.482
37.68000 14.076
37.72000 13.176
37.76000 8.107
37.80000 15.176
37.84000 14.275
37.88000 5.036
37.92000 13.154
37.96000 15.179
38.00000 11.043
38.04000 10.159
38.08000 8.098
38.12000 18.258
38.16000 12.256
38.20000 12.170
38.24000 13.108
38.28000 8.038
38.32000 14.053
38.36000 22.362
38.40000 17.315
38.44000 20.303
38.48000 12.177
38.52000 14.223
38.56000 17.403
38.60000 14.253
38.64000 14.041
38.68000 11.186
38.72000 18.383
38.76000 14.201
38.80000 15.009
38.84000 12.117
38.88000 10.164
38.92000 12.166
38.96000 13.139
39.00000 16.175
39.04000 12.095
39.08000 11.048
39.12000 19.235
39.16000 9.277
39.20000 13.211
39.24000 18.268
39.28000 17.154
39.32000 7.213
39.36000 8.138
39.40000 12.056
39.44000 9.143
39.48000 13.155
39.52000 12.319
39.56000 17.138
39.60000 14.139
39.64000 18.176
39.68000 12.118
39.72000 17.265
39.76000 13.214
39.80000 16.137
39.84000 18.244
39.88000 13.388
39.92000 18.079
39.96000 16.247
40.00000 9.975
40.04000 17.183
40.08000 12.137
40.12000 12.103
40.16000 8.948
40.20000 13.179
40.24000 20.351
40.28000 18.144
40.32000 11.195
40.36000 11.075
40.40000 16.123
40.44000 15.109
40.48000 13.998
40.52000 16.272
40.56000 5.099
40.60000 21.183
40.64000 13.944
40.68000 11.181
40.72000 19.285
40.76000 12.139
40.80000 7.095
40.84000 14.232
40.88000 9.343
40.92000 9.012
40.96000 15.421
41.00000 6.113
41.04000 19.189
41.08000 16.184
41.12000 16.082
41.16000 11.234
41.20000 17.086
41.24000 17.228
41.28000 7.127
41.32000 15.127
41.36000 19.268
41.40000 12.210
41.44000 10.014
41.48000 13.138
41.52000 12.199
41.56000 6.080
41.60000 12.120
41.64000 13.133
41.68000 10.192
41.72000 9.059
41.76000 17.131
41.80000 16.145
41.84000 11.100
41.88000 8.105
41.92000 15.190
41.96000 11.192
42.00000 23.210
42.04000 6.070
42.08000 16.230
42.12000 7.061
42.16000 8.186
42.20000 12.191
42.24000 12.078
42.28000 10.083
42.32000 17.208
42.36000 14.220
42.40000 14.223
42.44000 12.119
42.48000 11.996
42.52000 12.101
42.56000 14.007
42.60000 11.192
42.64000 14.218
42.68000 14.140
42.72000 13.171
42.76000 10.027
42.80000 11.048
42.84000 14.282
42.88000 24.216
42.92000 13.244
42.96000 15.248
43.00000 16.157
43.04000 12.052
43.08000 16.075
43.12000 11.976
43.16000 13.201
43.20000 20.405
43.24000 14.247
43.28000 13.248
43.32000 24.360
43.36000 9.107
43.40000 15.298
43.44000 11.224
43.48000 9.166
43.52000 10.067
43.56000 8.121
43.60000 14.123
43.64000 12.193
43.68000 13.166
43.72000 7.132
43.76000 15.339
43.80000 9.020
43.84000 16.291
43.88000 11.063
43.92000 16.189
43.96000 12.150
44.00000 12.190
44.04000 17.261
44.08000 20.308
44.12000 9.154
44.16000 10.225
44.20000 23.219
44.24000 17.345
44.28000 17.251
44.32000 10.154
44.36000 7.102
44.40000 14.253
44.44000 18.058
44.48000 13.184
44.52000 10.088
44.56000 12.014
44.60000 11.057
44.64000 10.992
44.68000 13.062
44.72000 11.195
44.76000 15.075
44.80000 12.016
44.84000 11.164
44.88000 16.274
44.92000 14.165
44.96000 10.184
45.00000 14.150
45.04000 21.280
45.08000 16.066
45.12000 15.263
45.16000 7.051
45.20000 17.380
45.24000 17.191
45.28000 5.991
45.32000 18.382
45.36000 15.310
45.40000 13.133
45.44000 15.187
45.48000 12.307
45.52000 9.097
45.56000 12.035
45.60000 11.035
45.64000 21.462
45.68000 11.187
45.72000 17.410
45.76000 5.995
45.80000 15.075
45.84000 9.192
45.88000 13.201
45.92000 20.621
45.96000 19.165
46.00000 21.361
46.04000 13.314
46.08000 23.166
46.12000 15.261
46.16000 12.116
46.20000 12.253
46.24000 12.251
46.28000 10.148
46.32000 11.127
46.36000 15.346
46.40000 16.259
46.44000 13.183
46.48000 9.077
46.52000 19.091
46.56000 15.351
46.60000 16.458
46.64000 20.187
46.68000 18.059
46.72000 8.042
46.76000 13.160
46.80000 8.136
46.84000 9.110
46.88000 14.064
46.92000 11.087
46.96000 21.225
47.00000 14.148
47.04000 14.205
47.08000 14.258
47.12000 19.243
47.16000 9.047
47.20000 16.207
47.24000 9.025
47.28000 8.051
47.32000 12.145
47.36000 8.029
47.40000 16.279
47.44000 16.179
47.48000 19.359
47.52000 15.119
47.56000 15.157
47.60000 11.180
47.64000 17.203
47.68000 15.157
47.72000 14.161
47.76000 13.150
47.80000 17.035
47.84000 9.005
47.88000 14.922
47.92000 14.269
47.96000 5.087
48.00000 14.245
48.04000 10.231
48.08000 11.209
48.12000 10.171
48.16000 12.218
48.20000 15.135
48.24000 11.202
48.28000 11.214
48.32000 19.349
48.36000 20.238
48.40000 19.223
48.44000 24.393
48.48000 10.149
48.52000 14.342
48.56000 15.181
48.60000 10.148
48.64000 10.165
48.68000 9.152
48.72000 12.169
48.76000 12.186
48.80000 9.275
48.84000 9.100
48.88000 16.329
48.92000 14.309
48.96000 20.139
49.00000 26.407
49.04000 6.108
49.08000 16.326
49.12000 11.068
49.16000 10.012
49.20000 12.205
49.24000 8.068
49.28000 3.990
49.32000 9.097
49.36000 13.063
49.40000 18.188
49.44000 10.272
49.48000 15.297
49.52000 9.020
49.56000 17.122
49.60000 11.047
49.64000 16.140
49.68000 13.216
49.72000 6.146
49.76000 9.089
49.80000 10.047
49.84000 15.254
49.88000 8.990
49.92000 15.280
49.96000 12.191
50.00000 14.344
50.04000 14.310
50.08000 11.150
50.12000 17.212
50.16000 7.175
50.20000 15.255
50.24000 5.064
50.28000 11.139
50.32000 12.098
50.36000 14.225
50.40000 14.236
50.44000 8.118
50.48000 6.106
50.52000 10.164
50.56000 12.124
50.60000 9.191
50.64000 11.055
50.68000 11.089
50.72000 12.189
50.76000 12.197
50.80000 11.137
50.84000 12.235
50.88000 15.174
50.92000 10.144
50.96000 12.191
51.00000 14.211
51.04000 9.106
51.08000 8.033
51.12000 12.187
51.16000 10.047
51.20000 13.247
51.24000 13.080
51.28000 16.129
51.32000 11.289
51.36000 12.186
51.40000 11.302
51.44000 17.292
51.48000 7.093
51.52000 14.212
51.56000 7.947
51.60000 13.210
51.64000 14.205
51.68000 6.156
51.72000 11.208
51.76000 10.172
51.80000 10.122
51.84000 6.120
51.88000 10.047
51.92000 13.053
51.96000 16.136
52.00000 6.138
52.04000 11.148
52.08000 12.170
52.12000 10.200
52.16000 11.043
52.20000 8.120
52.24000 11.997
52.28000 11.164
52.32000 20.380
52.36000 17.306
52.40000 15.216
52.44000 15.169
52.48000 20.374
52.52000 10.151
52.56000 9.104
52.60000 10.140
52.64000 10.180
52.68000 10.242
52.72000 7.056
52.76000 17.229
52.80000 13.162
52.84000 19.382
52.88000 4.065
52.92000 7.059
52.96000 13.129
53.00000 16.209
53.04000 7.072
53.08000 11.177
53.12000 10.157
53.16000 10.095
53.20000 18.252
53.24000 13.253
53.28000 11.106
53.32000 13.168
53.36000 8.055
53.40000 16.346
53.44000 5.109
53.48000 11.980
53.52000 11.194
53.56000 16.187
53.60000 5.116
53.64000 11.274
53.68000 7.028
53.72000 11.146
53.76000 13.288
53.80000 8.158
53.84000 12.122
53.88000 12.199
53.92000 8.075
53.96000 11.073
54.00000 5.069
54.04000 11.140
54.08000 4.014
54.12000 8.153
54.16000 13.385
54.20000 14.219
54.24000 12.109
54.28000 4.984
54.32000 8.231
54.36000 13.244
54.40000 8.104
54.44000 10.153
54.48000 9.031
54.52000 5.094
54.56000 12.081
54.60000 5.077
54.64000 7.212
54.68000 11.066
54.72000 8.092
54.76000 13.246
54.80000 9.182
54.84000 9.996
54.88000 10.098
54.92000 5.117
54.96000 13.218
55.00000 6.151
55.04000 4.093
55.08000 6.143
55.12000 12.112
55.16000 14.283
55.20000 8.025
55.24000 7.147
55.28000 12.140
55.32000 9.201
55.36000 12.990
55.40000 15.204
55.44000 12.989
55.48000 9.123
55.52000 11.060
55.56000 8.055
55.60000 9.189
55.64000 8.076
55.68000 12.238
55.72000 12.075
55.76000 7.091
55.80000 7.142
55.84000 9.175
55.88000 9.068
55.92000 6.008
55.96000 9.224
56.00000 14.064
56.04000 5.039
56.08000 9.005
56.12000 11.103
56.16000 12.203
56.20000 7.144
56.24000 9.118
56.28000 13.156
56.32000 6.060
56.36000 6.151
56.40000 7.070
56.44000 13.072
56.48000 5.124
56.52000 9.209
56.56000 7.071
56.60000 13.051
56.64000 7.044
56.68000 5.031
56.72000 13.082
56.76000 5.998
56.80000 7.068
56.84000 6.110
56.88000 9.174
56.92000 11.204
56.96000 14.302
57.00000 13.305
57.04000 11.176
57.08000 10.102
57.12000 9.106
57.16000 8.057
57.20000 16.187
57.24000 7.051
57.28000 13.245
57.32000 12.258
57.36000 12.159
57.40000 3.070
57.44000 12.349
57.48000 11.249
57.52000 11.155
57.56000 6.060
57.60000 9.088
57.64000 11.189
57.68000 9.266
57.72000 12.204
57.76000 8.249
57.80000 6.055
57.84000 15.231
57.88000 3.977
57.92000 11.089
57.96000 8.066
58.00000 11.136
58.04000 14.156
58.08000 5.996
58.12000 5.009
58.16000 5.092
58.20000 11.019
58.24000 8.249
58.28000 9.201
58.32000 15.199
58.36000 8.152
58.40000 4.110
58.44000 3.969
58.48000 8.159
58.52000 8.082
58.56000 9.160
58.60000 9.169
58.64000 9.049
58.68000 9.961
58.72000 13.274
58.76000 6.095
58.80000 6.125
58.84000 8.161
58.88000 9.056
58.92000 9.094
58.96000 13.076
59.00000 11.146
59.04000 6.058
59.08000 4.042
59.12000 9.279
59.16000 6.025
59.20000 16.144
59.24000 8.186
59.28000 2.020
59.32000 3.115
59.36000 13.169
59.40000 4.100
59.44000 12.265
59.48000 11.079
59.52000 6.085
59.56000 9.119
59.60000 6.051
59.64000 6.053
59.68000 9.971
59.72000 12.097
59.76000 10.231
59.80000 10.077
59.84000 10.279
59.88000 5.094
59.92000 7.045
59.96000 9.129
60.00000 9.123
60.04000 9.155
60.08000 8.212
60.12000 8.069
60.16000 9.337
60.20000 8.068
60.24000 2.066
60.28000 10.151
60.32000 3.051
60.36000 6.082
60.40000 11.299
60.44000 10.215
60.48000 10.186
60.52000 7.138
60.56000 2.012
60.60000 5.125
60.64000 8.179
60.68000 13.065
60.72000 12.326
60.76000 5.012
60.80000 10.168
60.84000 11.126
60.88000 10.047
60.92000 3.026
60.96000 5.197
61.00000 7.006
61.04000 3.082
61.08000 8.265
61.12000 6.161
61.16000 5.036
61.20000 3.991
61.24000 4.072
61.28000 14.284
61.32000 5.243
61.36000 3.984
61.40000 7.137
61.44000 10.192
61.48000 6.081
61.52000 3.054
61.56000 4.057
61.60000 8.155
61.64000 9.124
61.68000 5.032
61.72000 5.013
61.76000 10.005
61.80000 3.075
61.84000 4.107
61.88000 7.135
61.92000 7.131
61.96000 7.111
62.00000 9.062
62.04000 5.113
62.08000 3.042
62.12000 6.038
62.16000 2.953
62.20000 7.097
62.24000 10.143
62.28000 7.165
62.32000 12.001
62.36000 5.011
62.40000 7.114
62.44000 6.132
62.48000 5.104
62.52000 7.145
62.56000 6.115
62.60000 4.104
62.64000 7.077
62.68000 7.077
62.72000 7.032
62.76000 8.152
62.80000 11.229
62.84000 6.021
62.88000 5.082
62.92000 5.103
62.96000 6.116
63.00000 9.062
63.04000 4.114
63.08000 10.017
63.12000 5.097
63.16000 4.120
63.20000 4.082
63.24000 11.135
63.28000 8.164
63.32000 7.088
63.36000 8.152
63.40000 7.092
63.44000 5.070
63.48000 10.320
63.52000 15.108
63.56000 10.094
63.60000 5.965
63.64000 3.146
63.68000 4.101
63.72000 9.126
63.76000 7.043
63.80000 14.230
63.84000 9.012
63.88000 8.131
63.92000 8.028
63.96000 4.002
64.00000 7.167
64.04000 7.986
64.08000 5.999
64.12000 3.116
64.16000 2.067
64.20000 5.042
64.24000 12.171
64.28000 5.027
64.32000 8.091
64.36000 6.018
64.40000 7.008
64.44000 2.014
64.48000 5.047
64.52000 5.008
64.56000 10.013
64.60000 8.102
64.64000 3.046
64.68000 5.154
64.72000 11.205
64.76000 5.993
64.80000 9.178
64.84000 3.990
64.88000 7.035
64.92000 1.008
64.96000 6.186
65.00000 9.135