File: XRD/XRD/11-09-2025/XY Data/01092025_BTO_omega_1_001_19_22-524_-10-847.xy
20.00000 31.456
20.04000 23.458
20.08000 21.476
20.12000 26.384
20.16000 18.187
20.20000 26.325
20.24000 20.288
20.28000 31.409
20.32000 17.260
20.36000 22.269
20.40000 27.419
20.44000 21.396
20.48000 25.295
20.52000 23.228
20.56000 26.413
20.60000 32.430
20.64000 24.323
20.68000 28.398
20.72000 24.188
20.76000 32.392
20.80000 31.555
20.84000 32.304
20.88000 23.345
20.92000 22.367
20.96000 29.282
21.00000 14.986
21.04000 22.286
21.08000 30.438
21.12000 32.633
21.16000 21.351
21.20000 23.409
21.24000 31.472
21.28000 29.323
21.32000 21.524
21.36000 29.392
21.40000 27.400
21.44000 29.315
21.48000 23.416
21.52000 16.289
21.56000 27.191
21.60000 28.248
21.64000 17.251
21.68000 25.307
21.72000 28.466
21.76000 13.147
21.80000 25.256
21.84000 23.368
21.88000 33.446
21.92000 13.262
21.96000 21.320
22.00000 24.126
22.04000 21.165
22.08000 22.257
22.12000 27.400
22.16000 20.263
22.20000 19.148
22.24000 21.463
22.28000 24.518
22.32000 15.133
22.36000 23.353
22.40000 22.157
22.44000 26.344
22.48000 26.427
22.52000 23.374
22.56000 18.209
22.60000 14.009
22.64000 26.385
22.68000 19.070
22.72000 22.281
22.76000 22.343
22.80000 15.163
22.84000 16.122
22.88000 15.130
22.92000 22.187
22.96000 12.150
23.00000 19.153
23.04000 16.139
23.08000 21.406
23.12000 20.314
23.16000 21.238
23.20000 22.380
23.24000 15.428
23.28000 12.204
23.32000 27.335
23.36000 19.268
23.40000 9.150
23.44000 25.349
23.48000 20.225
23.52000 12.978
23.56000 14.139
23.60000 20.230
23.64000 17.087
23.68000 17.316
23.72000 9.156
23.76000 11.190
23.80000 14.132
23.84000 16.128
23.88000 15.225
23.92000 20.550
23.96000 25.263
24.00000 11.166
24.04000 22.232
24.08000 11.121
24.12000 20.149
24.16000 18.100
24.20000 12.113
24.24000 13.183
24.28000 19.380
24.32000 18.287
24.36000 10.086
24.40000 16.365
24.44000 14.025
24.48000 9.016
24.52000 10.129
24.56000 13.219
24.60000 13.106
24.64000 17.132
24.68000 16.123
24.72000 11.148
24.76000 17.237
24.80000 22.374
24.84000 16.147
24.88000 12.115
24.92000 12.210
24.96000 22.155
25.00000 13.084
25.04000 14.215
25.08000 18.234
25.12000 7.112
25.16000 13.101
25.20000 13.178
25.24000 13.130
25.28000 25.368
25.32000 13.100
25.36000 14.200
25.40000 12.117
25.44000 13.248
25.48000 14.250
25.52000 15.197
25.56000 19.330
25.60000 15.249
25.64000 14.098
25.68000 19.206
25.72000 17.178
25.76000 9.190
25.80000 9.266
25.84000 16.388
25.88000 11.207
25.92000 16.249
25.96000 15.222
26.00000 13.292
26.04000 11.203
26.08000 9.148
26.12000 13.193
26.16000 13.065
26.20000 4.079
26.24000 10.264
26.28000 4.076
26.32000 16.227
26.36000 9.218
26.40000 5.041
26.44000 13.312
26.48000 18.087
26.52000 23.216
26.56000 16.220
26.60000 6.096
26.64000 11.228
26.68000 15.290
26.72000 15.053
26.76000 7.988
26.80000 12.220
26.84000 12.137
26.88000 14.092
26.92000 13.239
26.96000 7.075
27.00000 14.307
27.04000 6.079
27.08000 16.412
27.12000 14.158
27.16000 21.277
27.20000 12.082
27.24000 10.204
27.28000 10.143
27.32000 10.057
27.36000 12.098
27.40000 8.063
27.44000 14.276
27.48000 14.243
27.52000 8.115
27.56000 10.059
27.60000 15.282
27.64000 8.145
27.68000 12.163
27.72000 12.170
27.76000 13.946
27.80000 8.067
27.84000 11.179
27.88000 10.084
27.92000 8.140
27.96000 9.135
28.00000 9.187
28.04000 11.125
28.08000 6.122
28.12000 13.112
28.16000 9.147
28.20000 8.191
28.24000 8.134
28.28000 16.230
28.32000 13.161
28.36000 12.238
28.40000 14.189
28.44000 8.017
28.48000 6.099
28.52000 9.210
28.56000 9.079
28.60000 8.058
28.64000 10.191
28.68000 7.177
28.72000 11.081
28.76000 5.071
28.80000 12.086
28.84000 14.255
28.88000 14.091
28.92000 9.198
28.96000 10.156
29.00000 4.973
29.04000 7.227
29.08000 14.331
29.12000 14.235
29.16000 16.411
29.20000 9.126
29.24000 8.101
29.28000 9.146
29.32000 10.190
29.36000 13.122
29.40000 7.164
29.44000 11.137
29.48000 5.995
29.52000 7.092
29.56000 7.037
29.60000 8.102
29.64000 9.065
29.68000 10.151
29.72000 5.047
29.76000 5.100
29.80000 8.005
29.84000 10.195
29.88000 9.270
29.92000 15.103
29.96000 6.033
30.00000 17.270
30.04000 7.059
30.08000 6.080
30.12000 6.006
30.16000 8.975
30.20000 13.154
30.24000 5.012
30.28000 10.126
30.32000 13.068
30.36000 6.181
30.40000 2.071
30.44000 7.216
30.48000 5.045
30.52000 5.157
30.56000 8.068
30.60000 9.030
30.64000 12.304
30.68000 7.013
30.72000 9.091
30.76000 14.145
30.80000 7.107
30.84000 6.073
30.88000 6.026
30.92000 7.107
30.96000 12.189
31.00000 5.088
31.04000 8.993
31.08000 3.127
31.12000 13.191
31.16000 6.108
31.20000 4.066
31.24000 10.002
31.28000 7.067
31.32000 7.992
31.36000 6.099
31.40000 3.093
31.44000 3.047
31.48000 11.179
31.52000 3.088
31.56000 6.141
31.60000 5.057
31.64000 4.017
31.68000 4.144
31.72000 4.065
31.76000 6.018
31.80000 9.181
31.84000 7.155
31.88000 5.952
31.92000 6.066
31.96000 7.197
32.00000 2.019
32.04000 8.138
32.08000 8.150
32.12000 6.179
32.16000 4.151
32.20000 6.973
32.24000 3.055
32.28000 7.196
32.32000 6.044
32.36000 11.038
32.40000 11.105
32.44000 5.038
32.48000 5.985
32.52000 8.020
32.56000 4.035
32.60000 9.145
32.64000 3.035
32.68000 6.067
32.72000 13.134
32.76000 8.068
32.80000 9.158
32.84000 6.061
32.88000 8.121
32.92000 8.188
32.96000 9.999
33.00000 7.010
33.04000 6.113
33.08000 12.146
33.12000 6.037
33.16000 4.033
33.20000 10.122
33.24000 3.067
33.28000 10.032
33.32000 3.047
33.36000 9.194
33.40000 7.073
33.44000 11.181
33.48000 9.102
33.52000 6.085
33.56000 8.097
33.60000 7.281
33.64000 3.065
33.68000 8.114
33.72000 7.102
33.76000 2.996
33.80000 3.070
33.84000 9.115
33.88000 5.078
33.92000 4.101
33.96000 6.986
34.00000 7.081
34.04000 4.088
34.08000 10.242
34.12000 6.063
34.16000 3.989
34.20000 5.992
34.24000 2.084
34.28000 3.015
34.32000 4.189
34.36000 3.049
34.40000 10.149
34.44000 5.064
34.48000 8.196
34.52000 4.089
34.56000 7.113
34.60000 2.988
34.64000 6.068
34.68000 5.123
34.72000 3.074
34.76000 6.001
34.80000 4.018
34.84000 4.001
34.88000 7.111
34.92000 0.989
34.96000 4.079
35.00000 2.007
35.04000 4.047
35.08000 5.124
35.12000 6.083
35.16000 7.170
35.20000 3.063
35.24000 4.100
35.28000 9.161
35.32000 12.110
35.36000 3.013
35.40000 6.278
35.44000 3.018
35.48000 4.078
35.52000 8.089
35.56000 7.002
35.60000 2.029
35.64000 8.064
35.68000 4.065
35.72000 3.062
35.76000 1.995
35.80000 5.093
35.84000 5.054
35.88000 4.105
35.92000 12.162
35.96000 4.149
36.00000 6.117
36.04000 7.212
36.08000 2.036
36.12000 5.058
36.16000 1.030
36.20000 5.144
36.24000 3.033
36.28000 6.168
36.32000 7.109
36.36000 0.972
36.40000 3.040
36.44000 4.948
36.48000 6.179
36.52000 2.083
36.56000 3.987
36.60000 10.181
36.64000 2.001
36.68000 3.977
36.72000 7.151
36.76000 8.171
36.80000 6.005
36.84000 3.090
36.88000 1.994
36.92000 6.106
36.96000 1.988
37.00000 2.981
37.04000 5.077
37.08000 2.039
37.12000 4.046
37.16000 4.036
37.20000 3.110
37.24000 8.056
37.28000 3.075
37.32000 3.043
37.36000 6.116
37.40000 5.166
37.44000 4.076
37.48000 5.984
37.52000 4.112
37.56000 0.996
37.60000 7.152
37.64000 8.158
37.68000 5.100
37.72000 5.068
37.76000 10.095
37.80000 4.073
37.84000 6.052
37.88000 0.000
37.92000 5.072
37.96000 5.055
38.00000 2.058
38.04000 0.995
38.08000 2.040
38.12000 3.032
38.16000 4.068
38.20000 4.995
38.24000 3.005
38.28000 8.155
38.32000 8.981
38.36000 6.038
38.40000 1.976
38.44000 5.007
38.48000 7.033
38.52000 6.024
38.56000 3.064
38.60000 2.981
38.64000 8.196
38.68000 7.119
38.72000 3.095
38.76000 5.143
38.80000 6.009
38.84000 8.162
38.88000 4.035
38.92000 4.013
38.96000 8.104
39.00000 1.005
39.04000 5.124
39.08000 5.091
39.12000 3.114
39.16000 0.985
39.20000 4.174
39.24000 7.158
39.28000 4.970
39.32000 4.098
39.36000 4.089
39.40000 3.023
39.44000 4.101
39.48000 4.102
39.52000 3.097
39.56000 9.182
39.60000 5.127
39.64000 1.029
39.68000 2.960
39.72000 5.047
39.76000 4.028
39.80000 5.109
39.84000 5.971
39.88000 2.010
39.92000 1.051
39.96000 7.083
40.00000 1.989
40.04000 3.075
40.08000 3.031
40.12000 1.967
40.16000 1.016
40.20000 3.051
40.24000 4.074
40.28000 5.018
40.32000 6.228
40.36000 7.101
40.40000 5.124
40.44000 4.057
40.48000 5.009
40.52000 3.029
40.56000 0.000
40.60000 7.109
40.64000 3.065
40.68000 8.077
40.72000 1.013
40.76000 0.998
40.80000 3.089
40.84000 7.088
40.88000 6.068
40.92000 3.023
40.96000 3.972
41.00000 4.115
41.04000 7.271
41.08000 3.017
41.12000 3.070
41.16000 6.064
41.20000 2.040
41.24000 6.035
41.28000 5.158
41.32000 6.027
41.36000 5.088
41.40000 4.102
41.44000 9.084
41.48000 2.028
41.52000 1.995
41.56000 2.022
41.60000 0.995
41.64000 2.000
41.68000 3.976
41.72000 5.077
41.76000 4.133
41.80000 0.991
41.84000 2.961
41.88000 3.025
41.92000 4.029
41.96000 1.970
42.00000 5.045
42.04000 3.092
42.08000 0.994
42.12000 6.055
42.16000 5.075
42.20000 6.173
42.24000 1.037
42.28000 7.044
42.32000 4.093
42.36000 7.160
42.40000 6.035
42.44000 7.042
42.48000 1.043
42.52000 4.077
42.56000 2.035
42.60000 7.109
42.64000 1.975
42.68000 4.074
42.72000 5.133
42.76000 5.066
42.80000 1.981
42.84000 2.948
42.88000 5.016
42.92000 0.994
42.96000 7.205
43.00000 1.025
43.04000 7.121
43.08000 3.025
43.12000 1.041
43.16000 3.056
43.20000 2.006
43.24000 1.990
43.28000 4.002
43.32000 3.075
43.36000 2.016
43.40000 4.113
43.44000 0.995
43.48000 6.062
43.52000 7.036
43.56000 0.978
43.60000 0.000
43.64000 2.951
43.68000 5.022
43.72000 2.002
43.76000 5.001
43.80000 2.073
43.84000 2.983
43.88000 7.017
43.92000 1.074
43.96000 2.028
44.00000 0.000
44.04000 1.008
44.08000 4.075
44.12000 2.022
44.16000 4.013
44.20000 2.074
44.24000 2.011
44.28000 3.118
44.32000 3.013
44.36000 2.967
44.40000 4.117
44.44000 3.031
44.48000 1.061
44.52000 5.111
44.56000 4.006
44.60000 2.075
44.64000 0.987
44.68000 3.048
44.72000 1.026
44.76000 4.034
44.80000 2.014
44.84000 0.985
44.88000 7.081
44.92000 3.024
44.96000 6.041
45.00000 1.010
45.04000 1.034
45.08000 0.000
45.12000 3.035
45.16000 2.066
45.20000 4.010
45.24000 0.000
45.28000 2.099
45.32000 4.012
45.36000 1.043
45.40000 3.993
45.44000 2.006
45.48000 4.064
45.52000 3.080
45.56000 4.088
45.60000 6.081
45.64000 0.988
45.68000 2.069
45.72000 3.043
45.76000 0.000
45.80000 2.064
45.84000 4.082
45.88000 5.085
45.92000 3.059
45.96000 5.142
46.00000 3.054
46.04000 3.075
46.08000 2.982
46.12000 0.990
46.16000 2.025
46.20000 2.053
46.24000 5.966
46.28000 0.000
46.32000 5.082
46.36000 1.032
46.40000 1.993
46.44000 2.003
46.48000 2.076
46.52000 0.988
46.56000 2.003
46.60000 0.991
46.64000 1.004
46.68000 5.142
46.72000 0.983
46.76000 6.040
46.80000 1.002
46.84000 6.015
46.88000 1.021
46.92000 3.024
46.96000 3.080
47.00000 4.060
47.04000 5.114
47.08000 3.031
47.12000 4.008
47.16000 1.006
47.20000 1.023
47.24000 1.002
47.28000 3.020
47.32000 1.025
47.36000 5.105
47.40000 3.184
47.44000 6.111
47.48000 1.044
47.52000 4.081
47.56000 2.969
47.60000 2.017
47.64000 1.034
47.68000 2.011
47.72000 2.005
47.76000 6.200
47.80000 4.062
47.84000 0.000
47.88000 1.002
47.92000 1.001
47.96000 5.048
48.00000 2.004
48.04000 6.048
48.08000 0.000
48.12000 2.989
48.16000 3.068
48.20000 0.993
48.24000 4.051
48.28000 3.089
48.32000 0.000
48.36000 5.959
48.40000 2.024
48.44000 1.961
48.48000 2.017
48.52000 2.008
48.56000 2.056
48.60000 0.000
48.64000 0.000
48.68000 2.015
48.72000 2.997
48.76000 2.002
48.80000 0.000
48.84000 3.115
48.88000 2.007
48.92000 3.055
48.96000 3.971
49.00000 1.018
49.04000 2.001
49.08000 3.047
49.12000 0.000
49.16000 2.030
49.20000 4.129
49.24000 2.938
49.28000 5.010
49.32000 2.972
49.36000 2.028
49.40000 5.105
49.44000 3.009
49.48000 0.976
49.52000 1.025
49.56000 1.024
49.60000 1.955
49.64000 5.101
49.68000 2.000
49.72000 4.042
49.76000 2.062
49.80000 1.004
49.84000 3.061
49.88000 3.049
49.92000 1.995
49.96000 4.068
50.00000 3.006
50.04000 1.035
50.08000 2.008
50.12000 2.048
50.16000 1.069
50.20000 1.021
50.24000 2.008
50.28000 1.033
50.32000 4.077
50.36000 3.015
50.40000 3.100
50.44000 1.979
50.48000 5.090
50.52000 1.020
50.56000 3.024
50.60000 2.991
50.64000 2.990
50.68000 6.124
50.72000 0.995
50.76000 1.041
50.80000 1.004
50.84000 0.976
50.88000 2.980
50.92000 0.994
50.96000 1.073
51.00000 3.044
51.04000 0.985
51.08000 1.011
51.12000 5.072
51.16000 3.992
51.20000 3.061
51.24000 0.000
51.28000 0.978
51.32000 0.000
51.36000 4.033
51.40000 2.066
51.44000 2.984
51.48000 0.000
51.52000 3.030
51.56000 0.000
51.60000 1.058
51.64000 2.002
51.68000 2.037
51.72000 0.000
51.76000 4.036
51.80000 2.063
51.84000 2.992
51.88000 0.000
51.92000 1.014
51.96000 0.000
52.00000 3.112
52.04000 4.116
52.08000 3.005
52.12000 1.024
52.16000 3.972
52.20000 2.051
52.24000 0.000
52.28000 2.088
52.32000 1.979
52.36000 2.061
52.40000 3.041
52.44000 4.018
52.48000 0.000
52.52000 0.997
52.56000 1.044
52.60000 4.028
52.64000 3.020
52.68000 0.990
52.72000 2.006
52.76000 0.000
52.80000 2.025
52.84000 3.020
52.88000 2.011
52.92000 3.079
52.96000 3.055
53.00000 1.000
53.04000 1.006
53.08000 1.027
53.12000 3.051
53.16000 1.044
53.20000 4.099
53.24000 1.032
53.28000 0.995
53.32000 2.041
53.36000 1.000
53.40000 1.995
53.44000 0.000
53.48000 0.000
53.52000 2.032
53.56000 1.979
53.60000 0.986
53.64000 1.016
53.68000 5.045
53.72000 2.009
53.76000 3.034
53.80000 3.971
53.84000 0.000
53.88000 2.025
53.92000 0.999
53.96000 1.029
54.00000 4.133
54.04000 5.070
54.08000 0.000
54.12000 0.000
54.16000 2.038
54.20000 4.047
54.24000 0.998
54.28000 1.038
54.32000 3.026
54.36000 0.000
54.40000 0.000
54.44000 0.000
54.48000 1.998
54.52000 1.026
54.56000 0.982
54.60000 2.014
54.64000 1.010
54.68000 4.049
54.72000 2.058
54.76000 3.042
54.80000 2.043
54.84000 3.082
54.88000 0.995
54.92000 0.998
54.96000 3.031
55.00000 0.000
55.04000 1.020
55.08000 1.995
55.12000 2.096
55.16000 3.001
55.20000 1.944
55.24000 2.009
55.28000 2.012
55.32000 1.017
55.36000 3.027
55.40000 2.047
55.44000 2.002
55.48000 2.055
55.52000 1.012
55.56000 0.000
55.60000 2.013
55.64000 5.094
55.68000 2.003
55.72000 1.999
55.76000 1.031
55.80000 3.020
55.84000 0.000
55.88000 2.007
55.92000 2.046
55.96000 0.979
56.00000 2.013
56.04000 2.017
56.08000 3.078
56.12000 5.981
56.16000 1.001
56.20000 0.999
56.24000 2.991
56.28000 3.000
56.32000 2.998
56.36000 2.081
56.40000 4.005
56.44000 1.037
56.48000 2.008
56.52000 2.029
56.56000 1.012
56.60000 4.075
56.64000 4.023
56.68000 0.000
56.72000 1.053
56.76000 2.009
56.80000 0.000
56.84000 1.004
56.88000 3.037
56.92000 1.986
56.96000 0.000
57.00000 1.050
57.04000 3.028
57.08000 0.000
57.12000 1.017
57.16000 0.000
57.20000 1.957
57.24000 1.055
57.28000 4.056
57.32000 0.983
57.36000 1.037
57.40000 1.017
57.44000 0.000
57.48000 1.028
57.52000 0.975
57.56000 6.134
57.60000 1.007
57.64000 0.994
57.68000 2.008
57.72000 0.000
57.76000 1.003
57.80000 0.997
57.84000 3.008
57.88000 0.998
57.92000 0.000
57.96000 0.993
58.00000 3.009
58.04000 2.024
58.08000 1.034
58.12000 1.973
58.16000 2.984
58.20000 1.961
58.24000 1.042
58.28000 3.072
58.32000 0.000
58.36000 0.996
58.40000 0.000
58.44000 1.968
58.48000 1.010
58.52000 0.000
58.56000 2.035
58.60000 1.015
58.64000 1.012
58.68000 3.020
58.72000 1.013
58.76000 2.007
58.80000 3.036
58.84000 3.040
58.88000 2.984
58.92000 2.010
58.96000 3.095
59.00000 0.983
59.04000 0.987
59.08000 0.000
59.12000 2.054
59.16000 1.034
59.20000 0.000
59.24000 1.028
59.28000 1.062
59.32000 1.015
59.36000 0.000
59.40000 0.000
59.44000 2.010
59.48000 0.000
59.52000 1.036
59.56000 2.077
59.60000 1.020
59.64000 3.059
59.68000 0.978
59.72000 2.079
59.76000 0.995
59.80000 4.011
59.84000 1.011
59.88000 3.041
59.92000 0.987
59.96000 0.000
60.00000 2.977
60.04000 1.036
60.08000 0.987
60.12000 1.994
60.16000 6.043
60.20000 1.031
60.24000 0.000
60.28000 0.000
60.32000 1.989
60.36000 3.016
60.40000 1.994
60.44000 1.990
60.48000 3.044
60.52000 0.000
60.56000 0.997
60.60000 2.038
60.64000 3.029
60.68000 1.009
60.72000 1.987
60.76000 2.023
60.80000 1.043
60.84000 1.983
60.88000 2.062
60.92000 1.976
60.96000 1.018
61.00000 3.094
61.04000 0.000
61.08000 0.000
61.12000 0.992
61.16000 0.989
61.20000 1.030
61.24000 2.077
61.28000 0.000
61.32000 0.995
61.36000 3.015
61.40000 0.000
61.44000 1.027
61.48000 2.056
61.52000 3.013
61.56000 0.000
61.60000 2.015
61.64000 2.013
61.68000 0.000
61.72000 3.064
61.76000 3.055
61.80000 0.997
61.84000 1.955
61.88000 2.022
61.92000 0.000
61.96000 4.088
62.00000 0.994
62.04000 2.096
62.08000 0.994
62.12000 0.000
62.16000 2.010
62.20000 0.000
62.24000 0.979
62.28000 2.016
62.32000 0.000
62.36000 0.000
62.40000 0.000
62.44000 2.086
62.48000 0.000
62.52000 0.000
62.56000 0.000
62.60000 0.980
62.64000 0.000
62.68000 1.004
62.72000 1.012
62.76000 0.986
62.80000 0.000
62.84000 0.000
62.88000 2.011
62.92000 3.031
62.96000 3.091
63.00000 0.996
63.04000 1.038
63.08000 0.983
63.12000 1.020
63.16000 2.011
63.20000 1.984
63.24000 0.000
63.28000 1.967
63.32000 2.008
63.36000 3.054
63.40000 1.049
63.44000 2.035
63.48000 1.065
63.52000 1.034
63.56000 1.037
63.60000 2.985
63.64000 2.057
63.68000 1.022
63.72000 1.996
63.76000 0.997
63.80000 2.039
63.84000 1.008
63.88000 4.119
63.92000 3.047
63.96000 1.018
64.00000 0.992
64.04000 1.003
64.08000 2.059
64.12000 1.003
64.16000 0.000
64.20000 0.985
64.24000 1.017
64.28000 0.000
64.32000 3.008
64.36000 0.000
64.40000 1.028
64.44000 1.001
64.48000 0.000
64.52000 1.022
64.56000 2.062
64.60000 1.985
64.64000 2.984
64.68000 0.997
64.72000 2.063
64.76000 1.031
64.80000 1.071
64.84000 0.000
64.88000 1.984
64.92000 1.993
64.96000 1.054
65.00000 0.000