File: XRD/XRD/11-09-2025/XY Data/01092025_BTO_omega_1_001_01_-11-126_-48-746.xy
20.00000 148.626
20.04000 158.825
20.08000 129.949
20.12000 154.390
20.16000 145.912
20.20000 115.689
20.24000 141.224
20.28000 125.466
20.32000 117.539
20.36000 115.617
20.40000 107.158
20.44000 132.315
20.48000 136.528
20.52000 104.245
20.56000 94.165
20.60000 121.009
20.64000 111.511
20.68000 109.156
20.72000 135.805
20.76000 109.290
20.80000 117.470
20.84000 104.994
20.88000 125.300
20.92000 104.509
20.96000 98.363
21.00000 130.159
21.04000 102.859
21.08000 97.051
21.12000 114.014
21.16000 74.808
21.20000 94.139
21.24000 88.938
21.28000 109.998
21.32000 84.805
21.36000 94.114
21.40000 85.882
21.44000 81.560
21.48000 80.761
21.52000 75.913
21.56000 84.854
21.60000 78.748
21.64000 83.380
21.68000 84.607
21.72000 67.851
21.76000 76.451
21.80000 77.861
21.84000 71.663
21.88000 83.501
21.92000 83.640
21.96000 74.753
22.00000 48.583
22.04000 59.607
22.08000 75.148
22.12000 69.818
22.16000 72.973
22.20000 69.545
22.24000 61.561
22.28000 65.602
22.32000 62.665
22.36000 64.823
22.40000 67.394
22.44000 64.637
22.48000 45.420
22.52000 64.437
22.56000 45.547
22.60000 45.197
22.64000 56.766
22.68000 46.670
22.72000 46.327
22.76000 51.366
22.80000 34.341
22.84000 45.725
22.88000 55.650
22.92000 41.365
22.96000 37.322
23.00000 42.584
23.04000 43.565
23.08000 46.314
23.12000 42.485
23.16000 42.549
23.20000 29.236
23.24000 40.399
23.28000 39.691
23.32000 30.394
23.36000 20.216
23.40000 32.347
23.44000 28.378
23.48000 34.127
23.52000 31.248
23.56000 32.602
23.60000 29.202
23.64000 46.285
23.68000 30.053
23.72000 24.227
23.76000 36.443
23.80000 25.335
23.84000 32.422
23.88000 36.304
23.92000 33.443
23.96000 24.351
24.00000 21.229
24.04000 25.139
24.08000 30.421
24.12000 30.293
24.16000 21.170
24.20000 28.389
24.24000 27.229
24.28000 19.391
24.32000 17.226
24.36000 27.163
24.40000 31.478
24.44000 20.341
24.48000 28.418
24.52000 15.052
24.56000 24.225
24.60000 19.305
24.64000 30.477
24.68000 26.343
24.72000 25.124
24.76000 12.089
24.80000 23.266
24.84000 25.153
24.88000 25.363
24.92000 30.225
24.96000 19.233
25.00000 21.093
25.04000 14.124
25.08000 18.165
25.12000 28.234
25.16000 25.211
25.20000 19.113
25.24000 17.070
25.28000 15.252
25.32000 19.264
25.36000 17.339
25.40000 17.168
25.44000 18.149
25.48000 14.277
25.52000 13.126
25.56000 18.323
25.60000 18.391
25.64000 13.991
25.68000 13.277
25.72000 30.294
25.76000 15.284
25.80000 8.998
25.84000 17.149
25.88000 13.134
25.92000 22.292
25.96000 15.274
26.00000 14.163
26.04000 13.280
26.08000 15.165
26.12000 20.318
26.16000 11.254
26.20000 13.158
26.24000 17.082
26.28000 13.049
26.32000 17.085
26.36000 12.100
26.40000 8.034
26.44000 17.205
26.48000 12.263
26.52000 14.178
26.56000 16.176
26.60000 8.106
26.64000 12.208
26.68000 13.208
26.72000 9.169
26.76000 10.305
26.80000 16.353
26.84000 11.111
26.88000 13.233
26.92000 14.168
26.96000 24.143
27.00000 10.063
27.04000 8.195
27.08000 12.118
27.12000 12.206
27.16000 8.043
27.20000 7.094
27.24000 13.222
27.28000 17.038
27.32000 10.166
27.36000 13.200
27.40000 11.989
27.44000 15.279
27.48000 10.181
27.52000 15.212
27.56000 6.118
27.60000 16.237
27.64000 12.090
27.68000 18.099
27.72000 7.033
27.76000 12.198
27.80000 9.093
27.84000 15.171
27.88000 10.137
27.92000 17.303
27.96000 15.195
28.00000 8.059
28.04000 6.114
28.08000 9.049
28.12000 8.093
28.16000 11.040
28.20000 14.097
28.24000 10.123
28.28000 15.184
28.32000 19.463
28.36000 19.410
28.40000 8.077
28.44000 16.259
28.48000 12.198
28.52000 13.078
28.56000 8.039
28.60000 9.087
28.64000 10.304
28.68000 12.126
28.72000 10.117
28.76000 15.236
28.80000 10.992
28.84000 13.228
28.88000 11.212
28.92000 9.065
28.96000 11.102
29.00000 7.091
29.04000 8.130
29.08000 15.110
29.12000 4.053
29.16000 12.017
29.20000 7.052
29.24000 12.191
29.28000 8.047
29.32000 11.235
29.36000 9.067
29.40000 8.108
29.44000 10.100
29.48000 6.133
29.52000 8.011
29.56000 12.141
29.60000 7.104
29.64000 10.152
29.68000 15.201
29.72000 16.146
29.76000 4.002
29.80000 13.174
29.84000 8.140
29.88000 11.192
29.92000 9.109
29.96000 7.116
30.00000 6.135
30.04000 8.167
30.08000 10.088
30.12000 10.166
30.16000 9.209
30.20000 9.152
30.24000 12.115
30.28000 10.073
30.32000 10.193
30.36000 16.181
30.40000 12.181
30.44000 18.206
30.48000 10.112
30.52000 9.199
30.56000 7.129
30.60000 8.123
30.64000 8.206
30.68000 10.119
30.72000 8.112
30.76000 5.123
30.80000 9.083
30.84000 6.026
30.88000 8.027
30.92000 12.163
30.96000 4.156
31.00000 10.097
31.04000 11.235
31.08000 8.126
31.12000 8.142
31.16000 10.055
31.20000 12.186
31.24000 13.086
31.28000 6.143
31.32000 7.120
31.36000 4.021
31.40000 10.155
31.44000 4.098
31.48000 6.156
31.52000 9.032
31.56000 8.172
31.60000 14.115
31.64000 2.005
31.68000 10.096
31.72000 8.214
31.76000 7.034
31.80000 4.178
31.84000 10.110
31.88000 6.045
31.92000 8.151
31.96000 3.084
32.00000 3.064
32.04000 2.081
32.08000 4.036
32.12000 10.972
32.16000 11.196
32.20000 9.205
32.24000 8.097
32.28000 7.121
32.32000 6.096
32.36000 10.161
32.40000 5.031
32.44000 9.071
32.48000 6.052
32.52000 8.178
32.56000 11.183
32.60000 10.180
32.64000 14.046
32.68000 4.031
32.72000 7.122
32.76000 8.007
32.80000 6.092
32.84000 3.064
32.88000 10.209
32.92000 7.139
32.96000 8.121
33.00000 7.210
33.04000 9.078
33.08000 8.127
33.12000 4.080
33.16000 5.000
33.20000 9.169
33.24000 10.233
33.28000 6.032
33.32000 12.213
33.36000 5.066
33.40000 7.103
33.44000 11.079
33.48000 5.025
33.52000 12.122
33.56000 3.048
33.60000 6.055
33.64000 5.059
33.68000 7.168
33.72000 8.182
33.76000 6.188
33.80000 6.062
33.84000 12.166
33.88000 7.115
33.92000 6.085
33.96000 5.954
34.00000 6.161
34.04000 5.982
34.08000 7.027
34.12000 10.274
34.16000 9.124
34.20000 8.114
34.24000 4.111
34.28000 7.090
34.32000 4.083
34.36000 3.014
34.40000 6.085
34.44000 6.001
34.48000 4.958
34.52000 6.034
34.56000 6.080
34.60000 9.137
34.64000 11.148
34.68000 2.027
34.72000 6.056
34.76000 8.124
34.80000 3.022
34.84000 4.005
34.88000 9.075
34.92000 4.040
34.96000 4.977
35.00000 5.118
35.04000 8.148
35.08000 6.138
35.12000 2.990
35.16000 8.144
35.20000 10.262
35.24000 7.061
35.28000 8.035
35.32000 14.170
35.36000 10.251
35.40000 6.060
35.44000 7.117
35.48000 12.027
35.52000 6.000
35.56000 6.022
35.60000 6.096
35.64000 6.027
35.68000 4.061
35.72000 8.081
35.76000 5.992
35.80000 6.048
35.84000 14.057
35.88000 11.083
35.92000 4.024
35.96000 7.094
36.00000 6.143
36.04000 4.989
36.08000 9.097
36.12000 11.171
36.16000 8.197
36.20000 2.022
36.24000 6.027
36.28000 9.104
36.32000 2.047
36.36000 6.050
36.40000 7.098
36.44000 5.059
36.48000 4.089
36.52000 5.106
36.56000 12.083
36.60000 4.070
36.64000 10.168
36.68000 7.141
36.72000 8.135
36.76000 1.016
36.80000 9.215
36.84000 10.117
36.88000 9.225
36.92000 3.966
36.96000 4.070
37.00000 5.058
37.04000 0.984
37.08000 7.154
37.12000 3.012
37.16000 8.095
37.20000 4.043
37.24000 9.136
37.28000 8.094
37.32000 11.428
37.36000 7.201
37.40000 5.074
37.44000 9.167
37.48000 5.061
37.52000 8.074
37.56000 4.993
37.60000 7.043
37.64000 7.186
37.68000 4.969
37.72000 5.144
37.76000 3.053
37.80000 2.031
37.84000 6.071
37.88000 6.186
37.92000 4.044
37.96000 10.005
38.00000 5.068
38.04000 7.050
38.08000 5.061
38.12000 9.105
38.16000 3.079
38.20000 5.008
38.24000 7.153
38.28000 5.122
38.32000 4.078
38.36000 3.033
38.40000 6.104
38.44000 6.977
38.48000 3.046
38.52000 6.098
38.56000 7.162
38.60000 6.062
38.64000 4.068
38.68000 6.038
38.72000 5.022
38.76000 3.002
38.80000 4.060
38.84000 3.046
38.88000 4.999
38.92000 4.048
38.96000 7.143
39.00000 3.058
39.04000 4.056
39.08000 4.111
39.12000 6.013
39.16000 5.144
39.20000 7.073
39.24000 8.117
39.28000 11.176
39.32000 10.045
39.36000 2.058
39.40000 3.004
39.44000 8.185
39.48000 7.157
39.52000 7.036
39.56000 6.063
39.60000 3.143
39.64000 3.997
39.68000 3.070
39.72000 4.080
39.76000 4.028
39.80000 5.125
39.84000 8.008
39.88000 4.956
39.92000 4.069
39.96000 6.127
40.00000 11.067
40.04000 6.064
40.08000 5.099
40.12000 6.149
40.16000 6.187
40.20000 2.018
40.24000 4.022
40.28000 6.055
40.32000 4.037
40.36000 2.007
40.40000 3.030
40.44000 4.085
40.48000 1.054
40.52000 1.968
40.56000 4.091
40.60000 3.045
40.64000 4.032
40.68000 3.020
40.72000 5.056
40.76000 4.065
40.80000 5.089
40.84000 3.069
40.88000 2.975
40.92000 5.993
40.96000 6.105
41.00000 3.127
41.04000 3.063
41.08000 6.027
41.12000 9.124
41.16000 6.031
41.20000 6.083
41.24000 5.024
41.28000 1.006
41.32000 5.026
41.36000 3.155
41.40000 2.026
41.44000 1.975
41.48000 3.026
41.52000 5.173
41.56000 5.088
41.60000 5.031
41.64000 7.053
41.68000 3.020
41.72000 4.141
41.76000 6.016
41.80000 5.980
41.84000 2.064
41.88000 2.083
41.92000 5.012
41.96000 3.042
42.00000 4.110
42.04000 0.966
42.08000 1.033
42.12000 5.051
42.16000 3.022
42.20000 3.174
42.24000 1.998
42.28000 4.996
42.32000 2.029
42.36000 2.038
42.40000 7.098
42.44000 6.048
42.48000 5.035
42.52000 5.071
42.56000 0.000
42.60000 3.017
42.64000 1.040
42.68000 3.104
42.72000 3.059
42.76000 5.023
42.80000 1.045
42.84000 4.140
42.88000 3.027
42.92000 3.977
42.96000 4.048
43.00000 4.035
43.04000 6.035
43.08000 9.028
43.12000 3.030
43.16000 8.117
43.20000 4.016
43.24000 4.033
43.28000 3.073
43.32000 1.948
43.36000 5.073
43.40000 1.042
43.44000 0.000
43.48000 3.111
43.52000 3.081
43.56000 5.035
43.60000 2.054
43.64000 3.051
43.68000 5.028
43.72000 4.024
43.76000 2.072
43.80000 0.000
43.84000 3.086
43.88000 3.005
43.92000 0.979
43.96000 3.064
44.00000 5.110
44.04000 3.023
44.08000 6.157
44.12000 4.123
44.16000 5.083
44.20000 1.974
44.24000 8.113
44.28000 7.074
44.32000 5.046
44.36000 0.000
44.40000 4.082
44.44000 5.006
44.48000 10.167
44.52000 4.086
44.56000 3.016
44.60000 1.958
44.64000 2.059
44.68000 2.040
44.72000 2.032
44.76000 2.036
44.80000 6.045
44.84000 0.993
44.88000 0.000
44.92000 5.149
44.96000 3.030
45.00000 5.105
45.04000 3.052
45.08000 3.048
45.12000 5.114
45.16000 6.158
45.20000 3.012
45.24000 2.059
45.28000 3.972
45.32000 4.067
45.36000 4.123
45.40000 1.979
45.44000 2.099
45.48000 2.045
45.52000 2.019
45.56000 2.030
45.60000 4.013
45.64000 4.076
45.68000 4.052
45.72000 0.000
45.76000 3.978
45.80000 1.990
45.84000 2.021
45.88000 2.989
45.92000 3.088
45.96000 4.061
46.00000 1.024
46.04000 1.029
46.08000 2.034
46.12000 7.054
46.16000 0.000
46.20000 6.094
46.24000 4.037
46.28000 2.998
46.32000 1.988
46.36000 3.075
46.40000 5.063
46.44000 2.007
46.48000 2.064
46.52000 2.066
46.56000 4.031
46.60000 7.156
46.64000 5.060
46.68000 4.026
46.72000 3.041
46.76000 4.039
46.80000 0.981
46.84000 3.012
46.88000 5.977
46.92000 3.085
46.96000 2.023
47.00000 2.032
47.04000 5.048
47.08000 7.118
47.12000 3.084
47.16000 3.061
47.20000 1.007
47.24000 3.009
47.28000 3.981
47.32000 2.056
47.36000 4.008
47.40000 5.020
47.44000 4.062
47.48000 2.015
47.52000 2.046
47.56000 7.031
47.60000 6.053
47.64000 1.024
47.68000 2.984
47.72000 1.004
47.76000 1.015
47.80000 1.025
47.84000 3.061
47.88000 0.000
47.92000 2.010
47.96000 5.018
48.00000 5.973
48.04000 4.046
48.08000 5.028
48.12000 4.068
48.16000 0.000
48.20000 0.995
48.24000 3.055
48.28000 2.081
48.32000 3.082
48.36000 6.042
48.40000 3.001
48.44000 3.127
48.48000 1.987
48.52000 3.004
48.56000 0.997
48.60000 6.115
48.64000 3.079
48.68000 4.076
48.72000 3.005
48.76000 2.036
48.80000 1.992
48.84000 4.158
48.88000 2.013
48.92000 5.111
48.96000 2.033
49.00000 5.067
49.04000 2.050
49.08000 3.054
49.12000 8.113
49.16000 7.007
49.20000 4.034
49.24000 6.162
49.28000 4.076
49.32000 2.031
49.36000 1.008
49.40000 5.088
49.44000 3.023
49.48000 5.099
49.52000 1.065
49.56000 0.000
49.60000 3.044
49.64000 2.998
49.68000 2.009
49.72000 4.063
49.76000 3.052
49.80000 1.029
49.84000 0.995
49.88000 6.037
49.92000 1.025
49.96000 2.004
50.00000 2.080
50.04000 2.031
50.08000 1.019
50.12000 4.010
50.16000 2.049
50.20000 1.008
50.24000 1.023
50.28000 4.065
50.32000 1.976
50.36000 1.979
50.40000 1.978
50.44000 3.002
50.48000 3.081
50.52000 1.024
50.56000 0.985
50.60000 1.027
50.64000 3.029
50.68000 0.975
50.72000 1.017
50.76000 4.017
50.80000 3.993
50.84000 0.996
50.88000 3.994
50.92000 5.062
50.96000 3.051
51.00000 1.038
51.04000 0.000
51.08000 0.000
51.12000 1.966
51.16000 2.988
51.20000 0.000
51.24000 0.000
51.28000 5.071
51.32000 1.012
51.36000 0.000
51.40000 3.029
51.44000 4.022
51.48000 2.006
51.52000 4.137
51.56000 2.014
51.60000 0.000
51.64000 1.032
51.68000 3.072
51.72000 1.988
51.76000 3.988
51.80000 2.046
51.84000 3.064
51.88000 2.036
51.92000 3.039
51.96000 0.000
52.00000 4.982
52.04000 1.001
52.08000 0.999
52.12000 4.043
52.16000 0.000
52.20000 2.030
52.24000 4.068
52.28000 3.094
52.32000 4.013
52.36000 1.974
52.40000 4.076
52.44000 3.026
52.48000 5.159
52.52000 0.000
52.56000 0.000
52.60000 0.000
52.64000 1.010
52.68000 6.007
52.72000 4.004
52.76000 1.031
52.80000 3.070
52.84000 0.000
52.88000 1.995
52.92000 4.033
52.96000 4.077
53.00000 3.028
53.04000 1.059
53.08000 5.092
53.12000 1.006
53.16000 1.039
53.20000 3.053
53.24000 0.000
53.28000 1.038
53.32000 2.043
53.36000 1.998
53.40000 2.046
53.44000 5.131
53.48000 3.033
53.52000 0.998
53.56000 1.021
53.60000 6.077
53.64000 3.063
53.68000 5.032
53.72000 1.043
53.76000 3.054
53.80000 1.988
53.84000 4.132
53.88000 4.080
53.92000 2.048
53.96000 2.020
54.00000 3.018
54.04000 5.056
54.08000 2.007
54.12000 0.999
54.16000 4.069
54.20000 2.033
54.24000 4.925
54.28000 5.049
54.32000 3.005
54.36000 2.006
54.40000 4.048
54.44000 5.103
54.48000 2.039
54.52000 2.045
54.56000 1.029
54.60000 5.049
54.64000 2.970
54.68000 0.000
54.72000 2.066
54.76000 3.038
54.80000 4.083
54.84000 7.096
54.88000 3.089
54.92000 2.012
54.96000 0.000
55.00000 0.997
55.04000 1.024
55.08000 5.025
55.12000 3.059
55.16000 4.063
55.20000 2.980
55.24000 5.034
55.28000 3.087
55.32000 2.102
55.36000 2.027
55.40000 1.025
55.44000 1.029
55.48000 1.001
55.52000 4.095
55.56000 4.042
55.60000 5.009
55.64000 2.004
55.68000 1.984
55.72000 0.984
55.76000 0.000
55.80000 3.023
55.84000 1.009
55.88000 2.040
55.92000 2.047
55.96000 2.062
56.00000 6.033
56.04000 7.040
56.08000 0.982
56.12000 1.063
56.16000 3.003
56.20000 1.042
56.24000 1.019
56.28000 4.994
56.32000 1.014
56.36000 5.066
56.40000 3.001
56.44000 2.035
56.48000 1.984
56.52000 1.059
56.56000 4.033
56.60000 3.101
56.64000 2.980
56.68000 3.018
56.72000 4.050
56.76000 1.053
56.80000 0.999
56.84000 2.035
56.88000 0.982
56.92000 0.983
56.96000 3.018
57.00000 2.014
57.04000 1.017
57.08000 3.031
57.12000 3.147
57.16000 2.016
57.20000 0.000
57.24000 3.037
57.28000 2.063
57.32000 3.176
57.36000 2.055
57.40000 3.088
57.44000 4.037
57.48000 2.033
57.52000 1.987
57.56000 2.023
57.60000 2.024
57.64000 3.997
57.68000 0.000
57.72000 3.006
57.76000 3.037
57.80000 0.996
57.84000 0.995
57.88000 6.079
57.92000 0.990
57.96000 0.000
58.00000 2.040
58.04000 3.078
58.08000 3.039
58.12000 3.052
58.16000 5.124
58.20000 4.019
58.24000 2.049
58.28000 4.061
58.32000 0.984
58.36000 3.022
58.40000 2.979
58.44000 2.005
58.48000 5.047
58.52000 0.000
58.56000 2.053
58.60000 0.985
58.64000 2.047
58.68000 3.057
58.72000 4.033
58.76000 4.972
58.80000 0.000
58.84000 4.007
58.88000 3.109
58.92000 0.990
58.96000 2.017
59.00000 4.007
59.04000 3.044
59.08000 2.054
59.12000 3.061
59.16000 2.038
59.20000 2.015
59.24000 1.063
59.28000 5.141
59.32000 3.001
59.36000 3.042
59.40000 1.065
59.44000 1.029
59.48000 1.968
59.52000 2.046
59.56000 2.023
59.60000 9.075
59.64000 2.015
59.68000 1.064
59.72000 2.047
59.76000 2.067
59.80000 3.067
59.84000 1.024
59.88000 0.000
59.92000 0.000
59.96000 2.023
60.00000 1.986
60.04000 2.030
60.08000 1.984
60.12000 1.027
60.16000 3.049
60.20000 2.022
60.24000 2.048
60.28000 2.008
60.32000 4.969
60.36000 5.088
60.40000 2.000
60.44000 5.072
60.48000 1.009
60.52000 3.033
60.56000 1.991
60.60000 0.993
60.64000 1.032
60.68000 3.009
60.72000 0.000
60.76000 1.028
60.80000 2.033
60.84000 4.050
60.88000 0.000
60.92000 2.040
60.96000 2.016
61.00000 3.008
61.04000 5.112
61.08000 1.018
61.12000 0.991
61.16000 3.068
61.20000 3.019
61.24000 1.973
61.28000 2.027
61.32000 5.018
61.36000 0.965
61.40000 0.980
61.44000 1.013
61.48000 4.962
61.52000 3.042
61.56000 4.052
61.60000 4.014
61.64000 0.995
61.68000 1.997
61.72000 1.039
61.76000 1.002
61.80000 3.056
61.84000 2.038
61.88000 2.023
61.92000 2.067
61.96000 0.000
62.00000 2.033
62.04000 0.985
62.08000 4.008
62.12000 2.019
62.16000 1.989
62.20000 2.043
62.24000 2.046
62.28000 4.081
62.32000 3.064
62.36000 5.088
62.40000 0.993
62.44000 2.964
62.48000 2.031
62.52000 1.035
62.56000 0.000
62.60000 0.998
62.64000 1.983
62.68000 1.000
62.72000 2.016
62.76000 3.087
62.80000 0.971
62.84000 2.024
62.88000 2.988
62.92000 1.039
62.96000 1.021
63.00000 2.012
63.04000 2.061
63.08000 2.029
63.12000 0.000
63.16000 0.991
63.20000 2.984
63.24000 1.002
63.28000 1.008
63.32000 2.063
63.36000 0.000
63.40000 3.035
63.44000 1.997
63.48000 4.045
63.52000 2.039
63.56000 1.029
63.60000 1.055
63.64000 1.013
63.68000 3.083
63.72000 2.062
63.76000 0.998
63.80000 4.185
63.84000 1.031
63.88000 2.036
63.92000 2.045
63.96000 1.007
64.00000 1.965
64.04000 1.020
64.08000 0.000
64.12000 5.096
64.16000 4.024
64.20000 5.019
64.24000 2.974
64.28000 2.004
64.32000 2.010
64.36000 3.005
64.40000 0.000
64.44000 2.045
64.48000 0.997
64.52000 3.016
64.56000 0.985
64.60000 0.000
64.64000 5.073
64.68000 1.021
64.72000 0.000
64.76000 5.113
64.80000 4.028
64.84000 1.023
64.88000 2.019
64.92000 4.068
64.96000 2.025
65.00000 0.000