File: XRD/XRD/11-09-2025/XY Data/01092025_BTO_omega_1_001_36_-7-794_9-773.xy
20.00000 26.466
20.04000 23.355
20.08000 18.079
20.12000 20.381
20.16000 24.359
20.20000 30.311
20.24000 22.556
20.28000 16.305
20.32000 26.365
20.36000 21.308
20.40000 16.288
20.44000 18.257
20.48000 19.427
20.52000 22.460
20.56000 23.359
20.60000 23.348
20.64000 19.277
20.68000 18.279
20.72000 16.197
20.76000 20.306
20.80000 22.356
20.84000 21.414
20.88000 21.524
20.92000 21.382
20.96000 22.296
21.00000 18.340
21.04000 17.311
21.08000 22.598
21.12000 19.276
21.16000 20.153
21.20000 20.194
21.24000 22.134
21.28000 18.242
21.32000 27.442
21.36000 29.778
21.40000 19.114
21.44000 23.347
21.48000 26.363
21.52000 17.351
21.56000 20.229
21.60000 23.406
21.64000 20.263
21.68000 16.174
21.72000 24.519
21.76000 20.076
21.80000 15.054
21.84000 17.188
21.88000 22.228
21.92000 20.293
21.96000 25.424
22.00000 19.398
22.04000 18.146
22.08000 23.026
22.12000 18.125
22.16000 23.288
22.20000 16.282
22.24000 15.315
22.28000 19.225
22.32000 19.142
22.36000 27.536
22.40000 28.435
22.44000 28.417
22.48000 25.210
22.52000 28.342
22.56000 24.262
22.60000 17.151
22.64000 24.084
22.68000 30.424
22.72000 24.263
22.76000 23.380
22.80000 19.201
22.84000 31.368
22.88000 20.261
22.92000 28.312
22.96000 25.429
23.00000 20.319
23.04000 19.161
23.08000 24.129
23.12000 30.294
23.16000 26.251
23.20000 17.349
23.24000 20.178
23.28000 19.359
23.32000 21.290
23.36000 26.421
23.40000 16.279
23.44000 23.318
23.48000 21.170
23.52000 30.324
23.56000 14.118
23.60000 24.259
23.64000 20.349
23.68000 26.273
23.72000 27.389
23.76000 23.364
23.80000 23.426
23.84000 31.356
23.88000 27.256
23.92000 24.309
23.96000 28.605
24.00000 25.403
24.04000 28.342
24.08000 26.416
24.12000 22.446
24.16000 26.537
24.20000 27.296
24.24000 15.200
24.28000 27.346
24.32000 26.278
24.36000 27.035
24.40000 35.650
24.44000 17.235
24.48000 25.332
24.52000 23.267
24.56000 29.371
24.60000 37.523
24.64000 35.506
24.68000 33.525
24.72000 28.368
24.76000 28.364
24.80000 42.635
24.84000 41.531
24.88000 33.274
24.92000 31.574
24.96000 34.595
25.00000 32.389
25.04000 23.184
25.08000 25.191
25.12000 41.505
25.16000 26.190
25.20000 31.256
25.24000 38.305
25.28000 34.567
25.32000 38.642
25.36000 41.703
25.40000 35.624
25.44000 38.581
25.48000 28.508
25.52000 36.411
25.56000 34.529
25.60000 28.198
25.64000 33.421
25.68000 33.436
25.72000 34.451
25.76000 40.517
25.80000 33.477
25.84000 36.472
25.88000 31.259
25.92000 49.401
25.96000 46.710
26.00000 43.683
26.04000 47.828
26.08000 43.495
26.12000 44.518
26.16000 31.224
26.20000 48.545
26.24000 50.340
26.28000 41.540
26.32000 47.455
26.36000 35.367
26.40000 30.499
26.44000 41.453
26.48000 38.479
26.52000 40.305
26.56000 33.523
26.60000 39.605
26.64000 44.732
26.68000 53.693
26.72000 31.422
26.76000 44.393
26.80000 43.245
26.84000 40.637
26.88000 65.886
26.92000 46.545
26.96000 41.573
27.00000 43.563
27.04000 50.460
27.08000 40.488
27.12000 50.584
27.16000 46.458
27.20000 50.590
27.24000 25.283
27.28000 54.535
27.32000 46.336
27.36000 47.664
27.40000 47.704
27.44000 45.517
27.48000 45.659
27.52000 46.498
27.56000 46.447
27.60000 36.376
27.64000 37.501
27.68000 43.563
27.72000 50.484
27.76000 52.918
27.80000 48.605
27.84000 51.993
27.88000 42.390
27.92000 50.745
27.96000 52.758
28.00000 39.553
28.04000 33.541
28.08000 39.443
28.12000 46.079
28.16000 31.508
28.20000 54.675
28.24000 46.578
28.28000 42.529
28.32000 43.475
28.36000 44.715
28.40000 44.323
28.44000 49.692
28.48000 44.726
28.52000 34.737
28.56000 56.676
28.60000 51.623
28.64000 40.489
28.68000 45.449
28.72000 46.709
28.76000 41.410
28.80000 45.622
28.84000 34.542
28.88000 37.690
28.92000 44.643
28.96000 44.675
29.00000 39.516
29.04000 36.602
29.08000 37.728
29.12000 47.554
29.16000 43.678
29.20000 42.636
29.24000 41.605
29.28000 36.191
29.32000 34.384
29.36000 32.399
29.40000 46.562
29.44000 46.784
29.48000 26.414
29.52000 37.800
29.56000 30.309
29.60000 34.495
29.64000 40.401
29.68000 34.417
29.72000 33.726
29.76000 36.332
29.80000 41.694
29.84000 37.539
29.88000 35.466
29.92000 34.447
29.96000 31.457
30.00000 38.424
30.04000 37.387
30.08000 29.142
30.12000 31.362
30.16000 40.352
30.20000 29.389
30.24000 33.388
30.28000 33.512
30.32000 22.425
30.36000 37.555
30.40000 31.425
30.44000 28.343
30.48000 33.435
30.52000 28.189
30.56000 41.595
30.60000 26.193
30.64000 35.496
30.68000 27.356
30.72000 24.322
30.76000 26.291
30.80000 23.214
30.84000 24.538
30.88000 36.509
30.92000 31.436
30.96000 26.384
31.00000 34.481
31.04000 32.390
31.08000 23.173
31.12000 32.425
31.16000 21.250
31.20000 29.486
31.24000 25.398
31.28000 22.188
31.32000 33.795
31.36000 27.343
31.40000 26.486
31.44000 24.297
31.48000 22.150
31.52000 28.238
31.56000 22.316
31.60000 24.397
31.64000 20.328
31.68000 29.362
31.72000 28.415
31.76000 25.147
31.80000 32.406
31.84000 21.136
31.88000 23.236
31.92000 19.205
31.96000 29.402
32.00000 31.340
32.04000 29.495
32.08000 27.326
32.12000 40.427
32.16000 16.295
32.20000 24.270
32.24000 29.222
32.28000 28.554
32.32000 23.268
32.36000 45.485
32.40000 26.291
32.44000 20.410
32.48000 22.205
32.52000 27.320
32.56000 25.207
32.60000 23.374
32.64000 26.476
32.68000 26.309
32.72000 13.197
32.76000 25.179
32.80000 18.184
32.84000 21.318
32.88000 10.054
32.92000 15.254
32.96000 28.400
33.00000 17.198
33.04000 17.216
33.08000 18.183
33.12000 18.255
33.16000 19.413
33.20000 17.234
33.24000 16.234
33.28000 11.165
33.32000 19.164
33.36000 24.405
33.40000 12.116
33.44000 15.166
33.48000 26.195
33.52000 27.400
33.56000 17.096
33.60000 16.197
33.64000 12.106
33.68000 17.193
33.72000 16.326
33.76000 13.122
33.80000 17.370
33.84000 6.115
33.88000 16.348
33.92000 16.179
33.96000 21.094
34.00000 19.167
34.04000 18.256
34.08000 15.318
34.12000 11.141
34.16000 17.194
34.20000 11.069
34.24000 17.970
34.28000 15.246
34.32000 21.362
34.36000 10.203
34.40000 11.284
34.44000 15.267
34.48000 12.071
34.52000 14.053
34.56000 12.060
34.60000 14.241
34.64000 15.434
34.68000 13.229
34.72000 13.271
34.76000 21.263
34.80000 14.216
34.84000 12.059
34.88000 14.123
34.92000 16.157
34.96000 8.033
35.00000 16.066
35.04000 17.404
35.08000 10.156
35.12000 17.190
35.16000 17.366
35.20000 22.450
35.24000 9.157
35.28000 15.111
35.32000 14.172
35.36000 10.166
35.40000 14.306
35.44000 9.140
35.48000 15.154
35.52000 21.374
35.56000 16.197
35.60000 18.189
35.64000 16.377
35.68000 10.131
35.72000 23.239
35.76000 17.331
35.80000 12.135
35.84000 21.337
35.88000 10.093
35.92000 9.059
35.96000 8.219
36.00000 5.030
36.04000 22.233
36.08000 6.074
36.12000 17.114
36.16000 16.222
36.20000 17.285
36.24000 16.219
36.28000 14.125
36.32000 18.168
36.36000 15.081
36.40000 8.219
36.44000 25.220
36.48000 11.102
36.52000 16.040
36.56000 10.146
36.60000 14.141
36.64000 14.160
36.68000 19.216
36.72000 14.220
36.76000 16.032
36.80000 18.270
36.84000 13.194
36.88000 13.273
36.92000 14.189
36.96000 20.247
37.00000 14.290
37.04000 7.063
37.08000 15.211
37.12000 13.007
37.16000 20.206
37.20000 15.170
37.24000 11.122
37.28000 19.300
37.32000 17.209
37.36000 13.147
37.40000 14.336
37.44000 11.201
37.48000 21.110
37.52000 11.195
37.56000 24.177
37.60000 26.387
37.64000 21.211
37.68000 15.309
37.72000 20.380
37.76000 13.179
37.80000 14.160
37.84000 29.557
37.88000 16.256
37.92000 14.132
37.96000 11.240
38.00000 14.339
38.04000 18.239
38.08000 18.141
38.12000 14.200
38.16000 8.072
38.20000 9.048
38.24000 15.105
38.28000 14.042
38.32000 19.233
38.36000 23.381
38.40000 24.394
38.44000 17.326
38.48000 15.166
38.52000 18.183
38.56000 21.450
38.60000 15.177
38.64000 22.412
38.68000 14.026
38.72000 19.145
38.76000 13.287
38.80000 19.194
38.84000 21.356
38.88000 14.164
38.92000 19.375
38.96000 19.328
39.00000 13.175
39.04000 16.125
39.08000 26.405
39.12000 15.286
39.16000 22.346
39.20000 16.279
39.24000 18.274
39.28000 12.217
39.32000 20.136
39.36000 22.331
39.40000 18.254
39.44000 17.103
39.48000 18.235
39.52000 22.343
39.56000 20.231
39.60000 21.249
39.64000 14.245
39.68000 17.259
39.72000 15.259
39.76000 23.261
39.80000 22.133
39.84000 20.249
39.88000 15.218
39.92000 19.125
39.96000 22.433
40.00000 19.161
40.04000 17.228
40.08000 20.365
40.12000 15.092
40.16000 21.018
40.20000 22.119
40.24000 14.281
40.28000 19.082
40.32000 19.141
40.36000 22.233
40.40000 14.234
40.44000 17.376
40.48000 20.432
40.52000 16.212
40.56000 21.354
40.60000 18.282
40.64000 14.034
40.68000 21.420
40.72000 13.104
40.76000 10.128
40.80000 16.383
40.84000 12.995
40.88000 15.203
40.92000 16.072
40.96000 21.323
41.00000 20.262
41.04000 20.160
41.08000 20.463
41.12000 24.349
41.16000 12.160
41.20000 14.256
41.24000 9.117
41.28000 20.324
41.32000 17.218
41.36000 19.306
41.40000 27.333
41.44000 26.319
41.48000 21.291
41.52000 15.168
41.56000 15.173
41.60000 22.355
41.64000 15.264
41.68000 16.075
41.72000 17.334
41.76000 16.255
41.80000 14.142
41.84000 11.096
41.88000 18.164
41.92000 16.203
41.96000 21.152
42.00000 19.370
42.04000 20.188
42.08000 23.306
42.12000 15.303
42.16000 24.425
42.20000 17.140
42.24000 20.464
42.28000 20.408
42.32000 24.541
42.36000 15.313
42.40000 18.169
42.44000 18.084
42.48000 9.071
42.52000 21.326
42.56000 15.266
42.60000 9.098
42.64000 18.190
42.68000 14.308
42.72000 17.297
42.76000 15.269
42.80000 18.250
42.84000 17.171
42.88000 17.147
42.92000 20.136
42.96000 18.381
43.00000 17.198
43.04000 17.474
43.08000 15.217
43.12000 14.351
43.16000 10.089
43.20000 13.271
43.24000 18.059
43.28000 20.362
43.32000 10.079
43.36000 18.154
43.40000 20.197
43.44000 21.232
43.48000 19.447
43.52000 18.345
43.56000 13.261
43.60000 12.225
43.64000 20.198
43.68000 20.405
43.72000 20.247
43.76000 22.228
43.80000 14.217
43.84000 16.376
43.88000 19.119
43.92000 17.373
43.96000 16.177
44.00000 6.021
44.04000 13.114
44.08000 12.165
44.12000 26.308
44.16000 10.049
44.20000 17.188
44.24000 12.143
44.28000 18.062
44.32000 10.243
44.36000 20.212
44.40000 18.137
44.44000 24.286
44.48000 12.109
44.52000 11.191
44.56000 14.187
44.60000 12.258
44.64000 18.179
44.68000 12.230
44.72000 14.202
44.76000 14.145
44.80000 18.184
44.84000 28.655
44.88000 12.241
44.92000 17.202
44.96000 14.139
45.00000 21.443
45.04000 24.160
45.08000 18.153
45.12000 16.247
45.16000 11.241
45.20000 11.090
45.24000 20.185
45.28000 12.094
45.32000 23.312
45.36000 18.280
45.40000 15.256
45.44000 13.195
45.48000 22.347
45.52000 18.222
45.56000 13.973
45.60000 14.077
45.64000 16.975
45.68000 21.547
45.72000 19.236
45.76000 14.151
45.80000 22.247
45.84000 16.168
45.88000 22.526
45.92000 16.265
45.96000 17.278
46.00000 15.105
46.04000 19.275
46.08000 17.148
46.12000 14.195
46.16000 19.100
46.20000 16.204
46.24000 19.384
46.28000 14.300
46.32000 21.468
46.36000 16.265
46.40000 13.100
46.44000 16.295
46.48000 20.095
46.52000 18.180
46.56000 21.471
46.60000 12.205
46.64000 19.392
46.68000 13.137
46.72000 25.371
46.76000 27.170
46.80000 16.131
46.84000 17.218
46.88000 19.263
46.92000 16.022
46.96000 17.218
47.00000 20.091
47.04000 16.007
47.08000 20.400
47.12000 22.353
47.16000 22.506
47.20000 18.318
47.24000 21.385
47.28000 15.308
47.32000 22.211
47.36000 17.249
47.40000 13.157
47.44000 15.304
47.48000 20.147
47.52000 12.221
47.56000 19.289
47.60000 19.233
47.64000 15.482
47.68000 14.123
47.72000 21.263
47.76000 12.096
47.80000 19.253
47.84000 9.093
47.88000 18.084
47.92000 17.484
47.96000 20.367
48.00000 20.257
48.04000 16.181
48.08000 24.224
48.12000 9.073
48.16000 16.279
48.20000 22.271
48.24000 12.154
48.28000 18.158
48.32000 15.311
48.36000 17.455
48.40000 14.244
48.44000 15.282
48.48000 11.966
48.52000 19.483
48.56000 18.455
48.60000 16.254
48.64000 17.148
48.68000 17.109
48.72000 18.293
48.76000 13.325
48.80000 20.364
48.84000 19.374
48.88000 15.199
48.92000 19.192
48.96000 16.382
49.00000 15.220
49.04000 14.116
49.08000 13.055
49.12000 19.133
49.16000 15.030
49.20000 14.290
49.24000 20.405
49.28000 17.337
49.32000 18.165
49.36000 20.429
49.40000 15.109
49.44000 15.186
49.48000 18.178
49.52000 15.401
49.56000 18.363
49.60000 14.097
49.64000 11.091
49.68000 13.105
49.72000 18.268
49.76000 19.217
49.80000 17.210
49.84000 22.325
49.88000 13.107
49.92000 21.226
49.96000 14.162
50.00000 20.451
50.04000 19.150
50.08000 16.363
50.12000 12.122
50.16000 22.290
50.20000 17.271
50.24000 13.311
50.28000 15.372
50.32000 11.114
50.36000 11.234
50.40000 14.139
50.44000 21.346
50.48000 18.170
50.52000 12.115
50.56000 9.117
50.60000 11.131
50.64000 17.122
50.68000 18.235
50.72000 14.157
50.76000 26.418
50.80000 15.174
50.84000 18.321
50.88000 12.189
50.92000 9.078
50.96000 13.025
51.00000 8.150
51.04000 15.180
51.08000 10.142
51.12000 20.324
51.16000 20.188
51.20000 12.196
51.24000 12.203
51.28000 8.078
51.32000 14.297
51.36000 17.052
51.40000 15.190
51.44000 15.239
51.48000 17.061
51.52000 15.347
51.56000 12.187
51.60000 19.253
51.64000 12.279
51.68000 20.158
51.72000 23.335
51.76000 14.199
51.80000 22.459
51.84000 12.143
51.88000 12.270
51.92000 14.147
51.96000 15.185
52.00000 11.258
52.04000 15.205
52.08000 15.147
52.12000 20.188
52.16000 12.201
52.20000 12.198
52.24000 13.280
52.28000 15.025
52.32000 15.187
52.36000 12.209
52.40000 18.220
52.44000 20.231
52.48000 12.191
52.52000 14.115
52.56000 18.334
52.60000 19.184
52.64000 12.127
52.68000 17.134
52.72000 18.136
52.76000 11.214
52.80000 17.277
52.84000 13.223
52.88000 15.128
52.92000 6.046
52.96000 17.179
53.00000 15.983
53.04000 14.017
53.08000 15.328
53.12000 8.062
53.16000 9.282
53.20000 9.175
53.24000 14.220
53.28000 16.279
53.32000 18.291
53.36000 20.185
53.40000 11.234
53.44000 15.113
53.48000 15.094
53.52000 15.161
53.56000 24.490
53.60000 17.207
53.64000 12.099
53.68000 10.156
53.72000 13.214
53.76000 10.123
53.80000 11.039
53.84000 14.179
53.88000 17.281
53.92000 16.105
53.96000 8.121
54.00000 8.029
54.04000 18.361
54.08000 9.030
54.12000 11.200
54.16000 10.163
54.20000 12.119
54.24000 11.116
54.28000 17.192
54.32000 10.174
54.36000 13.075
54.40000 7.132
54.44000 12.297
54.48000 15.112
54.52000 9.097
54.56000 13.200
54.60000 10.110
54.64000 12.040
54.68000 11.107
54.72000 7.156
54.76000 13.077
54.80000 14.266
54.84000 13.260
54.88000 17.037
54.92000 18.186
54.96000 16.081
55.00000 14.058
55.04000 12.026
55.08000 10.292
55.12000 9.226
55.16000 8.150
55.20000 17.225
55.24000 18.460
55.28000 11.160
55.32000 14.123
55.36000 15.299
55.40000 20.330
55.44000 13.076
55.48000 16.243
55.52000 18.134
55.56000 13.237
55.60000 14.381
55.64000 21.271
55.68000 15.313
55.72000 11.223
55.76000 19.131
55.80000 15.381
55.84000 12.201
55.88000 13.272
55.92000 17.310
55.96000 6.050
56.00000 9.218
56.04000 8.088
56.08000 12.127
56.12000 18.175
56.16000 17.094
56.20000 9.067
56.24000 10.121
56.28000 16.307
56.32000 6.177
56.36000 11.189
56.40000 10.963
56.44000 13.410
56.48000 11.224
56.52000 7.051
56.56000 8.018
56.60000 11.170
56.64000 11.112
56.68000 9.093
56.72000 4.020
56.76000 19.403
56.80000 9.099
56.84000 10.205
56.88000 13.172
56.92000 6.026
56.96000 12.087
57.00000 16.156
57.04000 13.116
57.08000 10.973
57.12000 8.105
57.16000 12.147
57.20000 11.037
57.24000 13.154
57.28000 14.273
57.32000 9.999
57.36000 16.312
57.40000 11.348
57.44000 18.297
57.48000 11.168
57.52000 17.340
57.56000 18.124
57.60000 21.364
57.64000 20.238
57.68000 7.033
57.72000 13.197
57.76000 16.200
57.80000 11.224
57.84000 11.003
57.88000 14.189
57.92000 7.117
57.96000 14.130
58.00000 20.247
58.04000 10.195
58.08000 13.173
58.12000 11.154
58.16000 9.145
58.20000 5.058
58.24000 8.096
58.28000 7.057
58.32000 11.188
58.36000 16.227
58.40000 11.113
58.44000 20.263
58.48000 8.113
58.52000 10.047
58.56000 10.135
58.60000 5.135
58.64000 9.189
58.68000 3.055
58.72000 12.279
58.76000 11.074
58.80000 12.130
58.84000 10.130
58.88000 5.074
58.92000 20.207
58.96000 15.181
59.00000 13.182
59.04000 17.157
59.08000 12.265
59.12000 9.058
59.16000 9.085
59.20000 8.067
59.24000 7.021
59.28000 9.053
59.32000 11.210
59.36000 12.186
59.40000 11.131
59.44000 11.121
59.48000 11.395
59.52000 12.211
59.56000 20.222
59.60000 14.149
59.64000 9.120
59.68000 8.131
59.72000 16.057
59.76000 11.149
59.80000 6.029
59.84000 7.045
59.88000 10.087
59.92000 10.087
59.96000 9.200
60.00000 10.179
60.04000 14.164
60.08000 6.018
60.12000 13.035
60.16000 10.152
60.20000 13.412
60.24000 12.107
60.28000 14.152
60.32000 11.124
60.36000 9.174
60.40000 6.045
60.44000 9.011
60.48000 10.146
60.52000 4.031
60.56000 9.195
60.60000 7.069
60.64000 9.120
60.68000 8.115
60.72000 8.960
60.76000 9.975
60.80000 16.157
60.84000 9.105
60.88000 6.039
60.92000 13.089
60.96000 8.198
61.00000 10.126
61.04000 16.217
61.08000 13.205
61.12000 8.029
61.16000 7.080
61.20000 7.044
61.24000 7.001
61.28000 9.093
61.32000 10.085
61.36000 7.126
61.40000 11.039
61.44000 10.261
61.48000 11.136
61.52000 10.086
61.56000 11.053
61.60000 10.026
61.64000 7.954
61.68000 11.074
61.72000 7.121
61.76000 13.125
61.80000 10.173
61.84000 9.062
61.88000 12.177
61.92000 7.077
61.96000 7.098
62.00000 8.020
62.04000 8.082
62.08000 4.976
62.12000 4.065
62.16000 8.145
62.20000 15.152
62.24000 14.145
62.28000 12.153
62.32000 8.036
62.36000 7.126
62.40000 8.092
62.44000 9.025
62.48000 11.177
62.52000 8.072
62.56000 9.056
62.60000 7.145
62.64000 11.154
62.68000 13.194
62.72000 13.286
62.76000 7.195
62.80000 14.184
62.84000 17.050
62.88000 11.180
62.92000 9.143
62.96000 13.276
63.00000 13.116
63.04000 12.067
63.08000 4.973
63.12000 17.249
63.16000 5.068
63.20000 13.144
63.24000 8.142
63.28000 14.270
63.32000 12.008
63.36000 5.107
63.40000 5.087
63.44000 6.189
63.48000 8.142
63.52000 9.036
63.56000 8.000
63.60000 13.027
63.64000 9.183
63.68000 6.059
63.72000 7.046
63.76000 10.135
63.80000 5.039
63.84000 12.169
63.88000 9.038
63.92000 3.090
63.96000 15.088
64.00000 7.050
64.04000 8.308
64.08000 9.008
64.12000 11.090
64.16000 14.291
64.20000 8.103
64.24000 7.250
64.28000 10.087
64.32000 8.190
64.36000 8.052
64.40000 12.306
64.44000 9.085
64.48000 10.107
64.52000 8.110
64.56000 5.998
64.60000 8.153
64.64000 12.186
64.68000 5.994
64.72000 6.066
64.76000 8.219
64.80000 11.341
64.84000 8.081
64.88000 7.066
64.92000 6.106
64.96000 5.040
65.00000 8.101