File: XRD/XRD/11-09-2025/XY Data/01092025_BTO_omega_1_001_09_-5-563_-24-373.xy
20.00000 174.584
20.04000 179.989
20.08000 158.772
20.12000 156.731
20.16000 177.226
20.20000 163.897
20.24000 174.553
20.28000 180.499
20.32000 155.112
20.36000 136.886
20.40000 153.992
20.44000 171.862
20.48000 159.448
20.52000 164.232
20.56000 146.455
20.60000 140.184
20.64000 156.494
20.68000 140.006
20.72000 138.449
20.76000 153.292
20.80000 126.225
20.84000 138.660
20.88000 148.505
20.92000 140.538
20.96000 125.119
21.00000 112.307
21.04000 117.540
21.08000 123.446
21.12000 129.718
21.16000 117.269
21.20000 102.701
21.24000 121.035
21.28000 121.363
21.32000 90.753
21.36000 121.281
21.40000 111.218
21.44000 93.928
21.48000 75.773
21.52000 118.056
21.56000 88.089
21.60000 88.103
21.64000 94.669
21.68000 91.204
21.72000 103.957
21.76000 99.718
21.80000 88.538
21.84000 93.646
21.88000 74.789
21.92000 86.815
21.96000 94.197
22.00000 84.684
22.04000 85.540
22.08000 86.627
22.12000 94.367
22.16000 100.996
22.20000 78.777
22.24000 74.744
22.28000 77.908
22.32000 86.665
22.36000 78.707
22.40000 67.560
22.44000 63.696
22.48000 66.513
22.52000 57.342
22.56000 68.746
22.60000 65.831
22.64000 64.445
22.68000 65.643
22.72000 60.939
22.76000 64.570
22.80000 53.589
22.84000 65.594
22.88000 54.870
22.92000 58.629
22.96000 50.658
23.00000 54.500
23.04000 55.669
23.08000 50.214
23.12000 44.544
23.16000 47.426
23.20000 47.670
23.24000 49.385
23.28000 37.303
23.32000 47.545
23.36000 48.545
23.40000 47.525
23.44000 42.571
23.48000 39.432
23.52000 44.519
23.56000 50.461
23.60000 55.553
23.64000 31.284
23.68000 36.382
23.72000 32.191
23.76000 31.272
23.80000 29.305
23.84000 37.161
23.88000 37.499
23.92000 36.436
23.96000 31.362
24.00000 45.437
24.04000 26.377
24.08000 31.317
24.12000 27.259
24.16000 30.243
24.20000 20.201
24.24000 31.474
24.28000 34.210
24.32000 34.302
24.36000 33.172
24.40000 38.619
24.44000 27.189
24.48000 36.443
24.52000 31.270
24.56000 23.208
24.60000 21.412
24.64000 39.245
24.68000 30.688
24.72000 31.293
24.76000 26.366
24.80000 22.334
24.84000 23.209
24.88000 12.161
24.92000 22.198
24.96000 25.409
25.00000 20.340
25.04000 18.185
25.08000 22.358
25.12000 26.369
25.16000 30.218
25.20000 25.384
25.24000 21.130
25.28000 30.197
25.32000 21.295
25.36000 9.014
25.40000 25.433
25.44000 19.178
25.48000 16.277
25.52000 20.296
25.56000 19.329
25.60000 14.076
25.64000 17.135
25.68000 21.307
25.72000 21.481
25.76000 16.135
25.80000 15.260
25.84000 16.227
25.88000 20.349
25.92000 21.324
25.96000 14.198
26.00000 11.227
26.04000 9.128
26.08000 14.040
26.12000 21.313
26.16000 22.253
26.20000 7.095
26.24000 9.159
26.28000 12.168
26.32000 15.140
26.36000 9.252
26.40000 19.189
26.44000 10.150
26.48000 10.068
26.52000 15.185
26.56000 9.041
26.60000 17.253
26.64000 15.183
26.68000 18.206
26.72000 16.166
26.76000 12.106
26.80000 13.086
26.84000 17.248
26.88000 10.002
26.92000 16.125
26.96000 15.053
27.00000 16.142
27.04000 16.260
27.08000 12.236
27.12000 11.270
27.16000 14.305
27.20000 11.167
27.24000 15.143
27.28000 13.134
27.32000 10.995
27.36000 18.237
27.40000 12.049
27.44000 10.322
27.48000 12.139
27.52000 12.146
27.56000 14.476
27.60000 8.999
27.64000 14.100
27.68000 14.196
27.72000 16.193
27.76000 14.351
27.80000 9.234
27.84000 9.106
27.88000 13.206
27.92000 8.173
27.96000 7.032
28.00000 8.163
28.04000 12.351
28.08000 10.073
28.12000 14.203
28.16000 16.249
28.20000 18.206
28.24000 16.262
28.28000 16.322
28.32000 9.053
28.36000 11.211
28.40000 10.063
28.44000 13.126
28.48000 4.993
28.52000 8.070
28.56000 15.109
28.60000 8.020
28.64000 9.987
28.68000 11.033
28.72000 10.146
28.76000 12.101
28.80000 6.071
28.84000 12.127
28.88000 7.062
28.92000 9.251
28.96000 9.285
29.00000 8.138
29.04000 9.073
29.08000 9.148
29.12000 11.171
29.16000 9.959
29.20000 9.204
29.24000 12.117
29.28000 10.206
29.32000 14.176
29.36000 10.237
29.40000 9.163
29.44000 14.134
29.48000 12.994
29.52000 10.007
29.56000 8.073
29.60000 11.199
29.64000 13.155
29.68000 10.229
29.72000 7.028
29.76000 9.083
29.80000 11.075
29.84000 10.099
29.88000 9.022
29.92000 12.172
29.96000 16.201
30.00000 2.047
30.04000 8.061
30.08000 14.112
30.12000 5.082
30.16000 5.003
30.20000 7.994
30.24000 16.470
30.28000 10.083
30.32000 9.151
30.36000 11.194
30.40000 9.042
30.44000 9.167
30.48000 8.034
30.52000 7.184
30.56000 9.025
30.60000 8.110
30.64000 9.165
30.68000 20.333
30.72000 11.273
30.76000 9.187
30.80000 6.189
30.84000 9.086
30.88000 7.115
30.92000 4.014
30.96000 7.093
31.00000 15.113
31.04000 5.001
31.08000 13.112
31.12000 4.102
31.16000 8.155
31.20000 9.098
31.24000 8.043
31.28000 7.097
31.32000 9.125
31.36000 7.080
31.40000 9.197
31.44000 11.077
31.48000 4.031
31.52000 15.119
31.56000 9.934
31.60000 4.948
31.64000 6.034
31.68000 6.146
31.72000 7.124
31.76000 16.235
31.80000 7.112
31.84000 12.058
31.88000 8.143
31.92000 4.983
31.96000 5.132
32.00000 6.022
32.04000 5.109
32.08000 14.047
32.12000 14.134
32.16000 9.097
32.20000 16.243
32.24000 12.190
32.28000 13.250
32.32000 9.108
32.36000 11.181
32.40000 4.023
32.44000 11.067
32.48000 5.091
32.52000 8.074
32.56000 4.004
32.60000 5.024
32.64000 10.170
32.68000 18.172
32.72000 8.042
32.76000 8.019
32.80000 8.037
32.84000 5.076
32.88000 5.024
32.92000 8.079
32.96000 12.182
33.00000 2.997
33.04000 9.087
33.08000 9.163
33.12000 11.092
33.16000 7.038
33.20000 7.130
33.24000 8.123
33.28000 4.975
33.32000 4.014
33.36000 2.024
33.40000 7.080
33.44000 9.119
33.48000 8.184
33.52000 7.136
33.56000 4.103
33.60000 9.126
33.64000 7.146
33.68000 8.105
33.72000 7.053
33.76000 11.243
33.80000 7.066
33.84000 6.005
33.88000 8.145
33.92000 5.988
33.96000 7.017
34.00000 8.179
34.04000 7.137
34.08000 4.048
34.12000 8.197
34.16000 7.107
34.20000 9.114
34.24000 4.131
34.28000 5.017
34.32000 5.036
34.36000 7.005
34.40000 6.060
34.44000 4.030
34.48000 7.227
34.52000 11.256
34.56000 10.231
34.60000 7.098
34.64000 8.146
34.68000 6.067
34.72000 12.016
34.76000 6.068
34.80000 3.016
34.84000 5.214
34.88000 4.070
34.92000 15.154
34.96000 4.025
35.00000 6.134
35.04000 9.254
35.08000 6.148
35.12000 7.165
35.16000 10.298
35.20000 10.070
35.24000 7.201
35.28000 6.119
35.32000 11.182
35.36000 8.089
35.40000 3.013
35.44000 3.954
35.48000 3.074
35.52000 5.987
35.56000 6.104
35.60000 9.043
35.64000 7.165
35.68000 2.053
35.72000 6.030
35.76000 6.159
35.80000 8.112
35.84000 4.052
35.88000 7.032
35.92000 3.988
35.96000 3.021
36.00000 6.186
36.04000 3.994
36.08000 8.102
36.12000 5.082
36.16000 6.167
36.20000 4.976
36.24000 8.101
36.28000 8.163
36.32000 7.103
36.36000 6.043
36.40000 5.165
36.44000 7.129
36.48000 6.123
36.52000 11.170
36.56000 2.015
36.60000 8.088
36.64000 6.161
36.68000 9.040
36.72000 3.044
36.76000 6.095
36.80000 2.016
36.84000 6.226
36.88000 5.027
36.92000 4.961
36.96000 5.101
37.00000 4.001
37.04000 7.139
37.08000 10.986
37.12000 10.056
37.16000 4.004
37.20000 3.068
37.24000 1.053
37.28000 2.058
37.32000 2.983
37.36000 10.175
37.40000 7.092
37.44000 6.978
37.48000 0.000
37.52000 3.098
37.56000 4.116
37.60000 5.018
37.64000 6.014
37.68000 2.128
37.72000 5.011
37.76000 3.016
37.80000 2.051
37.84000 6.988
37.88000 5.025
37.92000 10.258
37.96000 3.118
38.00000 9.106
38.04000 2.981
38.08000 11.049
38.12000 8.145
38.16000 5.017
38.20000 7.248
38.24000 3.016
38.28000 2.031
38.32000 8.026
38.36000 7.056
38.40000 3.009
38.44000 5.063
38.48000 8.142
38.52000 3.065
38.56000 6.177
38.60000 4.148
38.64000 8.081
38.68000 7.973
38.72000 3.046
38.76000 4.062
38.80000 4.065
38.84000 7.049
38.88000 6.037
38.92000 4.027
38.96000 7.013
39.00000 4.065
39.04000 5.126
39.08000 5.135
39.12000 3.075
39.16000 5.058
39.20000 5.102
39.24000 2.964
39.28000 8.071
39.32000 3.950
39.36000 5.085
39.40000 9.305
39.44000 2.997
39.48000 8.122
39.52000 2.033
39.56000 3.042
39.60000 6.170
39.64000 8.017
39.68000 3.034
39.72000 6.115
39.76000 0.985
39.80000 9.081
39.84000 4.994
39.88000 1.070
39.92000 7.077
39.96000 3.132
40.00000 2.042
40.04000 8.162
40.08000 4.988
40.12000 4.075
40.16000 7.032
40.20000 4.020
40.24000 7.120
40.28000 0.980
40.32000 4.140
40.36000 5.058
40.40000 6.044
40.44000 5.032
40.48000 7.008
40.52000 7.049
40.56000 3.090
40.60000 5.033
40.64000 3.061
40.68000 6.079
40.72000 5.137
40.76000 5.988
40.80000 5.172
40.84000 6.062
40.88000 3.007
40.92000 2.003
40.96000 1.972
41.00000 0.000
41.04000 4.057
41.08000 4.087
41.12000 5.093
41.16000 1.013
41.20000 1.046
41.24000 1.026
41.28000 4.953
41.32000 5.064
41.36000 7.158
41.40000 4.092
41.44000 3.041
41.48000 8.087
41.52000 4.067
41.56000 6.111
41.60000 1.993
41.64000 3.058
41.68000 0.000
41.72000 5.039
41.76000 4.112
41.80000 4.069
41.84000 3.042
41.88000 3.056
41.92000 2.086
41.96000 4.059
42.00000 3.962
42.04000 5.056
42.08000 2.038
42.12000 8.160
42.16000 2.082
42.20000 6.050
42.24000 3.017
42.28000 6.069
42.32000 3.055
42.36000 8.046
42.40000 2.024
42.44000 4.997
42.48000 4.094
42.52000 1.007
42.56000 6.068
42.60000 0.983
42.64000 2.018
42.68000 3.015
42.72000 3.008
42.76000 2.985
42.80000 5.051
42.84000 3.131
42.88000 6.100
42.92000 1.995
42.96000 2.988
43.00000 4.022
43.04000 3.137
43.08000 1.988
43.12000 1.988
43.16000 2.072
43.20000 1.017
43.24000 4.019
43.28000 3.032
43.32000 1.007
43.36000 5.015
43.40000 3.029
43.44000 4.019
43.48000 3.031
43.52000 5.067
43.56000 1.006
43.60000 3.032
43.64000 1.021
43.68000 2.024
43.72000 0.000
43.76000 4.073
43.80000 2.962
43.84000 2.023
43.88000 8.122
43.92000 4.029
43.96000 3.953
44.00000 1.003
44.04000 6.127
44.08000 4.169
44.12000 7.201
44.16000 1.949
44.20000 2.997
44.24000 6.039
44.28000 2.017
44.32000 1.982
44.36000 2.974
44.40000 3.968
44.44000 2.978
44.48000 4.125
44.52000 4.135
44.56000 2.957
44.60000 4.096
44.64000 1.997
44.68000 8.010
44.72000 3.018
44.76000 4.108
44.80000 4.067
44.84000 5.052
44.88000 3.045
44.92000 2.974
44.96000 4.055
45.00000 6.060
45.04000 3.046
45.08000 3.034
45.12000 2.050
45.16000 4.087
45.20000 4.035
45.24000 3.025
45.28000 1.017
45.32000 1.012
45.36000 1.003
45.40000 3.000
45.44000 3.991
45.48000 3.010
45.52000 2.019
45.56000 2.981
45.60000 5.029
45.64000 1.030
45.68000 1.983
45.72000 4.025
45.76000 2.047
45.80000 3.101
45.84000 6.106
45.88000 6.040
45.92000 4.077
45.96000 9.059
46.00000 5.097
46.04000 3.078
46.08000 2.018
46.12000 5.069
46.16000 0.987
46.20000 1.990
46.24000 2.072
46.28000 5.016
46.32000 1.994
46.36000 3.045
46.40000 2.001
46.44000 2.986
46.48000 1.988
46.52000 4.089
46.56000 0.000
46.60000 4.910
46.64000 5.137
46.68000 4.025
46.72000 0.983
46.76000 4.089
46.80000 3.025
46.84000 2.056
46.88000 4.074
46.92000 4.036
46.96000 1.012
47.00000 1.985
47.04000 5.067
47.08000 2.998
47.12000 1.964
47.16000 6.089
47.20000 1.042
47.24000 2.039
47.28000 6.064
47.32000 5.097
47.36000 3.031
47.40000 2.050
47.44000 3.129
47.48000 1.980
47.52000 1.029
47.56000 2.072
47.60000 5.013
47.64000 2.036
47.68000 4.172
47.72000 6.095
47.76000 3.042
47.80000 0.000
47.84000 5.017
47.88000 5.155
47.92000 3.004
47.96000 2.071
48.00000 3.970
48.04000 2.997
48.08000 4.050
48.12000 1.007
48.16000 4.066
48.20000 1.017
48.24000 0.000
48.28000 3.021
48.32000 1.037
48.36000 2.010
48.40000 0.996
48.44000 5.049
48.48000 0.974
48.52000 4.130
48.56000 7.174
48.60000 2.097
48.64000 4.042
48.68000 5.103
48.72000 2.981
48.76000 1.972
48.80000 3.048
48.84000 3.029
48.88000 2.000
48.92000 2.052
48.96000 6.106
49.00000 0.000
49.04000 1.009
49.08000 4.038
49.12000 1.015
49.16000 0.000
49.20000 2.032
49.24000 2.009
49.28000 6.086
49.32000 4.134
49.36000 3.060
49.40000 6.027
49.44000 2.012
49.48000 5.996
49.52000 2.049
49.56000 3.027
49.60000 6.225
49.64000 5.989
49.68000 2.009
49.72000 1.973
49.76000 3.093
49.80000 0.997
49.84000 0.979
49.88000 6.083
49.92000 2.022
49.96000 0.000
50.00000 3.083
50.04000 8.050
50.08000 3.050
50.12000 1.997
50.16000 1.980
50.20000 1.007
50.24000 1.014
50.28000 5.036
50.32000 9.067
50.36000 1.046
50.40000 4.050
50.44000 2.012
50.48000 4.026
50.52000 4.137
50.56000 3.003
50.60000 5.052
50.64000 2.090
50.68000 3.015
50.72000 2.029
50.76000 5.029
50.80000 7.254
50.84000 3.046
50.88000 2.085
50.92000 2.027
50.96000 0.996
51.00000 6.060
51.04000 5.018
51.08000 0.992
51.12000 1.011
51.16000 3.139
51.20000 0.000
51.24000 1.007
51.28000 1.969
51.32000 1.991
51.36000 4.099
51.40000 2.983
51.44000 2.034
51.48000 2.030
51.52000 1.989
51.56000 1.999
51.60000 1.012
51.64000 1.008
51.68000 1.003
51.72000 4.015
51.76000 1.018
51.80000 2.061
51.84000 2.027
51.88000 5.056
51.92000 1.021
51.96000 3.006
52.00000 2.992
52.04000 3.002
52.08000 5.073
52.12000 3.968
52.16000 3.021
52.20000 1.016
52.24000 4.067
52.28000 1.008
52.32000 2.078
52.36000 4.069
52.40000 2.969
52.44000 2.032
52.48000 5.091
52.52000 0.986
52.56000 0.000
52.60000 2.059
52.64000 1.977
52.68000 2.057
52.72000 5.169
52.76000 1.998
52.80000 2.018
52.84000 2.957
52.88000 6.155
52.92000 6.050
52.96000 2.053
53.00000 2.023
53.04000 2.017
53.08000 2.013
53.12000 3.943
53.16000 7.150
53.20000 0.993
53.24000 5.100
53.28000 4.007
53.32000 4.040
53.36000 1.007
53.40000 1.055
53.44000 3.071
53.48000 2.023
53.52000 8.053
53.56000 2.044
53.60000 1.031
53.64000 3.029
53.68000 2.048
53.72000 2.025
53.76000 3.025
53.80000 4.113
53.84000 1.982
53.88000 2.000
53.92000 1.947
53.96000 1.008
54.00000 5.115
54.04000 2.100
54.08000 4.021
54.12000 3.059
54.16000 6.091
54.20000 0.989
54.24000 0.000
54.28000 1.991
54.32000 3.067
54.36000 1.073
54.40000 2.077
54.44000 4.034
54.48000 2.074
54.52000 3.941
54.56000 1.979
54.60000 3.048
54.64000 5.030
54.68000 4.074
54.72000 3.057
54.76000 3.019
54.80000 1.984
54.84000 0.000
54.88000 1.027
54.92000 4.079
54.96000 6.140
55.00000 1.051
55.04000 3.021
55.08000 1.001
55.12000 1.036
55.16000 1.061
55.20000 2.018
55.24000 2.006
55.28000 4.073
55.32000 2.033
55.36000 0.000
55.40000 3.078
55.44000 4.062
55.48000 1.044
55.52000 5.013
55.56000 2.053
55.60000 2.041
55.64000 0.997
55.68000 0.994
55.72000 0.000
55.76000 1.007
55.80000 3.054
55.84000 3.071
55.88000 0.976
55.92000 4.964
55.96000 1.034
56.00000 2.001
56.04000 2.021
56.08000 3.029
56.12000 0.000
56.16000 7.152
56.20000 1.014
56.24000 2.038
56.28000 0.000
56.32000 3.006
56.36000 2.007
56.40000 3.100
56.44000 2.125
56.48000 3.027
56.52000 0.974
56.56000 4.026
56.60000 0.000
56.64000 2.032
56.68000 2.036
56.72000 4.008
56.76000 5.176
56.80000 3.034
56.84000 1.006
56.88000 0.991
56.92000 2.065
56.96000 1.067
57.00000 7.043
57.04000 2.065
57.08000 0.000
57.12000 2.012
57.16000 7.201
57.20000 2.013
57.24000 1.044
57.28000 1.025
57.32000 1.020
57.36000 2.018
57.40000 0.000
57.44000 5.118
57.48000 3.019
57.52000 0.000
57.56000 0.000
57.60000 3.010
57.64000 5.098
57.68000 2.042
57.72000 1.043
57.76000 2.983
57.80000 3.008
57.84000 4.068
57.88000 1.981
57.92000 5.112
57.96000 5.026
58.00000 3.060
58.04000 0.000
58.08000 3.014
58.12000 2.021
58.16000 2.015
58.20000 0.981
58.24000 7.054
58.28000 0.000
58.32000 3.026
58.36000 4.022
58.40000 0.989
58.44000 2.020
58.48000 5.028
58.52000 2.008
58.56000 0.993
58.60000 3.010
58.64000 0.989
58.68000 2.062
58.72000 0.977
58.76000 4.193
58.80000 2.001
58.84000 2.021
58.88000 3.068
58.92000 3.043
58.96000 0.988
59.00000 3.053
59.04000 3.052
59.08000 3.071
59.12000 2.002
59.16000 0.000
59.20000 3.025
59.24000 3.066
59.28000 2.037
59.32000 4.024
59.36000 1.991
59.40000 0.000
59.44000 1.987
59.48000 3.042
59.52000 1.010
59.56000 1.012
59.60000 0.000
59.64000 1.021
59.68000 2.031
59.72000 3.100
59.76000 0.970
59.80000 2.067
59.84000 1.045
59.88000 3.044
59.92000 2.990
59.96000 1.994
60.00000 1.993
60.04000 3.031
60.08000 4.153
60.12000 2.046
60.16000 3.054
60.20000 0.000
60.24000 1.000
60.28000 2.072
60.32000 1.023
60.36000 2.024
60.40000 1.019
60.44000 3.009
60.48000 1.005
60.52000 1.998
60.56000 2.079
60.60000 1.039
60.64000 1.981
60.68000 0.000
60.72000 3.994
60.76000 3.993
60.80000 4.029
60.84000 2.047
60.88000 2.025
60.92000 4.015
60.96000 0.997
61.00000 0.983
61.04000 1.973
61.08000 0.991
61.12000 4.100
61.16000 4.044
61.20000 1.014
61.24000 4.985
61.28000 5.097
61.32000 4.110
61.36000 0.000
61.40000 1.013
61.44000 4.057
61.48000 1.002
61.52000 2.024
61.56000 3.041
61.60000 0.000
61.64000 6.051
61.68000 0.000
61.72000 3.089
61.76000 0.993
61.80000 2.027
61.84000 4.025
61.88000 2.000
61.92000 4.091
61.96000 0.990
62.00000 1.044
62.04000 1.002
62.08000 2.036
62.12000 2.038
62.16000 0.998
62.20000 4.015
62.24000 2.008
62.28000 0.000
62.32000 1.000
62.36000 3.065
62.40000 4.055
62.44000 1.028
62.48000 3.998
62.52000 2.019
62.56000 0.000
62.60000 3.964
62.64000 5.039
62.68000 3.021
62.72000 3.078
62.76000 1.003
62.80000 1.029
62.84000 1.034
62.88000 0.987
62.92000 2.964
62.96000 5.120
63.00000 1.039
63.04000 3.924
63.08000 6.020
63.12000 0.999
63.16000 0.000
63.20000 2.008
63.24000 1.022
63.28000 0.000
63.32000 0.000
63.36000 1.988
63.40000 2.086
63.44000 0.997
63.48000 5.064
63.52000 1.044
63.56000 1.000
63.60000 1.018
63.64000 2.070
63.68000 3.949
63.72000 4.048
63.76000 0.998
63.80000 1.034
63.84000 2.015
63.88000 5.040
63.92000 0.000
63.96000 3.025
64.00000 0.993
64.04000 4.104
64.08000 4.054
64.12000 0.000
64.16000 0.000
64.20000 1.971
64.24000 0.000
64.28000 1.997
64.32000 4.064
64.36000 1.012
64.40000 0.000
64.44000 3.033
64.48000 3.027
64.52000 2.007
64.56000 1.978
64.60000 3.006
64.64000 1.005
64.68000 0.000
64.72000 1.975
64.76000 1.005
64.80000 1.012
64.84000 3.109
64.88000 2.978
64.92000 1.020
64.96000 3.039
65.00000 1.046