File: XRD/XRD/11-09-2025/XY Data/01092025_BTO_omega_0_5_001_17_45-048_21-694.xy
20.00000 15.184
20.04000 13.347
20.08000 12.983
20.12000 13.054
20.16000 14.208
20.20000 14.225
20.24000 10.233
20.28000 13.033
20.32000 15.178
20.36000 14.220
20.40000 14.385
20.44000 20.041
20.48000 18.191
20.52000 18.264
20.56000 17.227
20.60000 21.378
20.64000 11.438
20.68000 17.138
20.72000 19.290
20.76000 15.154
20.80000 17.176
20.84000 10.080
20.88000 18.246
20.92000 17.228
20.96000 13.138
21.00000 17.155
21.04000 21.369
21.08000 27.613
21.12000 22.227
21.16000 12.101
21.20000 13.116
21.24000 11.023
21.28000 26.313
21.32000 12.350
21.36000 12.130
21.40000 12.155
21.44000 12.159
21.48000 20.004
21.52000 21.210
21.56000 20.449
21.60000 22.251
21.64000 10.280
21.68000 21.241
21.72000 17.254
21.76000 11.126
21.80000 20.232
21.84000 18.182
21.88000 17.308
21.92000 15.221
21.96000 17.426
22.00000 17.212
22.04000 17.350
22.08000 32.427
22.12000 23.289
22.16000 16.053
22.20000 10.065
22.24000 18.153
22.28000 15.218
22.32000 14.197
22.36000 20.456
22.40000 21.252
22.44000 13.131
22.48000 21.340
22.52000 12.144
22.56000 31.438
22.60000 22.407
22.64000 14.080
22.68000 18.398
22.72000 17.336
22.76000 20.407
22.80000 21.232
22.84000 19.369
22.88000 15.157
22.92000 22.297
22.96000 22.400
23.00000 19.245
23.04000 20.342
23.08000 20.224
23.12000 15.207
23.16000 22.153
23.20000 13.302
23.24000 22.420
23.28000 19.375
23.32000 20.144
23.36000 17.328
23.40000 20.269
23.44000 19.344
23.48000 22.492
23.52000 22.184
23.56000 24.269
23.60000 22.518
23.64000 21.312
23.68000 17.328
23.72000 25.202
23.76000 33.342
23.80000 23.108
23.84000 33.547
23.88000 27.430
23.92000 13.185
23.96000 14.101
24.00000 22.380
24.04000 23.284
24.08000 22.197
24.12000 22.276
24.16000 24.484
24.20000 23.313
24.24000 28.164
24.28000 25.287
24.32000 28.622
24.36000 19.408
24.40000 33.510
24.44000 28.418
24.48000 29.424
24.52000 30.553
24.56000 32.449
24.60000 26.223
24.64000 24.211
24.68000 27.252
24.72000 28.391
24.76000 27.292
24.80000 19.451
24.84000 26.459
24.88000 24.280
24.92000 29.272
24.96000 30.465
25.00000 35.502
25.04000 35.392
25.08000 26.352
25.12000 31.366
25.16000 25.256
25.20000 34.268
25.24000 27.296
25.28000 31.534
25.32000 33.593
25.36000 32.600
25.40000 26.427
25.44000 24.172
25.48000 35.216
25.52000 33.457
25.56000 41.434
25.60000 30.673
25.64000 49.786
25.68000 37.568
25.72000 44.885
25.76000 31.635
25.80000 40.664
25.84000 36.727
25.88000 33.755
25.92000 40.786
25.96000 35.637
26.00000 43.541
26.04000 41.783
26.08000 33.363
26.12000 37.493
26.16000 39.528
26.20000 34.625
26.24000 41.771
26.28000 53.489
26.32000 41.345
26.36000 44.484
26.40000 30.437
26.44000 49.573
26.48000 39.268
26.52000 41.629
26.56000 50.462
26.60000 32.565
26.64000 47.456
26.68000 46.847
26.72000 38.714
26.76000 47.782
26.80000 48.733
26.84000 47.612
26.88000 43.437
26.92000 43.667
26.96000 37.377
27.00000 47.490
27.04000 58.779
27.08000 39.752
27.12000 55.749
27.16000 46.526
27.20000 35.386
27.24000 51.866
27.28000 45.404
27.32000 46.761
27.36000 65.778
27.40000 61.880
27.44000 51.762
27.48000 54.912
27.52000 52.913
27.56000 49.686
27.60000 44.835
27.64000 61.715
27.68000 44.666
27.72000 49.607
27.76000 50.581
27.80000 42.719
27.84000 43.745
27.88000 42.676
27.92000 56.593
27.96000 57.801
28.00000 52.686
28.04000 41.447
28.08000 50.565
28.12000 53.054
28.16000 52.988
28.20000 47.806
28.24000 52.732
28.28000 56.362
28.32000 46.506
28.36000 46.821
28.40000 50.704
28.44000 53.863
28.48000 46.424
28.52000 54.949
28.56000 55.797
28.60000 62.091
28.64000 58.881
28.68000 40.702
28.72000 46.587
28.76000 54.714
28.80000 47.090
28.84000 49.820
28.88000 48.860
28.92000 46.636
28.96000 57.626
29.00000 42.685
29.04000 44.805
29.08000 38.626
29.12000 47.593
29.16000 49.676
29.20000 36.288
29.24000 47.026
29.28000 39.590
29.32000 50.712
29.36000 39.506
29.40000 53.558
29.44000 54.572
29.48000 41.426
29.52000 43.419
29.56000 55.999
29.60000 43.482
29.64000 35.435
29.68000 45.717
29.72000 44.422
29.76000 36.700
29.80000 35.685
29.84000 40.486
29.88000 31.360
29.92000 40.766
29.96000 41.830
30.00000 30.321
30.04000 38.382
30.08000 38.684
30.12000 43.665
30.16000 31.549
30.20000 38.688
30.24000 36.637
30.28000 32.556
30.32000 26.475
30.36000 29.516
30.40000 35.313
30.44000 27.187
30.48000 39.659
30.52000 33.348
30.56000 35.874
30.60000 33.293
30.64000 33.720
30.68000 30.407
30.72000 21.269
30.76000 22.375
30.80000 36.491
30.84000 33.392
30.88000 37.366
30.92000 34.342
30.96000 33.344
31.00000 24.293
31.04000 24.404
31.08000 36.380
31.12000 27.555
31.16000 31.455
31.20000 24.250
31.24000 34.632
31.28000 22.175
31.32000 31.506
31.36000 27.343
31.40000 23.361
31.44000 23.461
31.48000 31.456
31.52000 30.301
31.56000 22.223
31.60000 22.333
31.64000 20.201
31.68000 26.236
31.72000 36.780
31.76000 12.228
31.80000 23.394
31.84000 29.314
31.88000 28.426
31.92000 15.238
31.96000 28.305
32.00000 22.308
32.04000 32.162
32.08000 27.471
32.12000 39.513
32.16000 24.175
32.20000 23.106
32.24000 18.301
32.28000 23.234
32.32000 16.303
32.36000 22.304
32.40000 27.385
32.44000 24.319
32.48000 24.373
32.52000 31.314
32.56000 24.114
32.60000 25.251
32.64000 15.241
32.68000 31.587
32.72000 13.230
32.76000 20.187
32.80000 23.459
32.84000 25.499
32.88000 22.379
32.92000 22.208
32.96000 17.215
33.00000 25.540
33.04000 17.282
33.08000 14.217
33.12000 16.150
33.16000 16.139
33.20000 15.250
33.24000 10.293
33.28000 12.255
33.32000 19.220
33.36000 22.218
33.40000 16.169
33.44000 13.194
33.48000 24.332
33.52000 17.165
33.56000 17.145
33.60000 12.029
33.64000 14.080
33.68000 10.220
33.72000 13.217
33.76000 9.137
33.80000 17.288
33.84000 17.208
33.88000 17.297
33.92000 22.293
33.96000 11.128
34.00000 18.363
34.04000 16.200
34.08000 12.267
34.12000 13.177
34.16000 13.132
34.20000 13.299
34.24000 15.327
34.28000 18.083
34.32000 17.302
34.36000 17.203
34.40000 21.289
34.44000 11.095
34.48000 11.191
34.52000 21.244
34.56000 7.106
34.60000 22.454
34.64000 18.132
34.68000 19.247
34.72000 15.144
34.76000 13.246
34.80000 17.055
34.84000 14.244
34.88000 16.357
34.92000 11.040
34.96000 16.220
35.00000 9.195
35.04000 12.072
35.08000 13.194
35.12000 9.983
35.16000 11.210
35.20000 10.298
35.24000 11.084
35.28000 12.130
35.32000 15.218
35.36000 16.071
35.40000 17.370
35.44000 9.142
35.48000 14.178
35.52000 13.162
35.56000 14.192
35.60000 13.195
35.64000 19.232
35.68000 8.030
35.72000 16.241
35.76000 7.074
35.80000 23.283
35.84000 16.242
35.88000 16.305
35.92000 11.057
35.96000 17.999
36.00000 15.097
36.04000 10.101
36.08000 12.110
36.12000 11.063
36.16000 15.295
36.20000 10.010
36.24000 9.274
36.28000 18.306
36.32000 11.161
36.36000 14.224
36.40000 15.364
36.44000 10.082
36.48000 16.283
36.52000 21.344
36.56000 10.124
36.60000 23.326
36.64000 15.204
36.68000 21.263
36.72000 17.235
36.76000 15.209
36.80000 16.231
36.84000 13.085
36.88000 14.223
36.92000 21.260
36.96000 16.318
37.00000 16.339
37.04000 9.110
37.08000 21.479
37.12000 23.406
37.16000 18.131
37.20000 15.108
37.24000 8.035
37.28000 15.277
37.32000 16.179
37.36000 14.292
37.40000 13.303
37.44000 18.268
37.48000 18.148
37.52000 19.196
37.56000 19.150
37.60000 11.057
37.64000 15.129
37.68000 21.415
37.72000 14.328
37.76000 19.211
37.80000 15.186
37.84000 15.179
37.88000 14.108
37.92000 17.196
37.96000 18.139
38.00000 21.314
38.04000 19.151
38.08000 18.300
38.12000 13.312
38.16000 15.111
38.20000 18.145
38.24000 17.114
38.28000 20.174
38.32000 17.237
38.36000 12.109
38.40000 17.110
38.44000 15.199
38.48000 11.164
38.52000 21.271
38.56000 14.033
38.60000 21.288
38.64000 11.290
38.68000 11.041
38.72000 9.001
38.76000 21.225
38.80000 19.323
38.84000 16.105
38.88000 17.466
38.92000 10.171
38.96000 18.226
39.00000 16.140
39.04000 15.156
39.08000 20.192
39.12000 13.152
39.16000 15.262
39.20000 15.136
39.24000 16.080
39.28000 15.248
39.32000 17.178
39.36000 13.148
39.40000 15.144
39.44000 12.127
39.48000 17.202
39.52000 15.040
39.56000 22.228
39.60000 12.252
39.64000 10.140
39.68000 18.301
39.72000 25.357
39.76000 15.373
39.80000 9.123
39.84000 10.142
39.88000 21.370
39.92000 19.209
39.96000 16.290
40.00000 21.134
40.04000 24.465
40.08000 14.263
40.12000 20.167
40.16000 18.285
40.20000 17.199
40.24000 19.173
40.28000 17.435
40.32000 16.194
40.36000 19.154
40.40000 15.181
40.44000 12.012
40.48000 13.522
40.52000 17.340
40.56000 15.284
40.60000 25.603
40.64000 22.221
40.68000 16.276
40.72000 15.144
40.76000 15.231
40.80000 20.213
40.84000 25.445
40.88000 21.157
40.92000 16.270
40.96000 15.142
41.00000 17.348
41.04000 15.185
41.08000 10.972
41.12000 12.234
41.16000 27.295
41.20000 13.340
41.24000 22.078
41.28000 24.416
41.32000 20.414
41.36000 21.601
41.40000 13.067
41.44000 18.135
41.48000 24.302
41.52000 23.053
41.56000 16.212
41.60000 18.121
41.64000 15.051
41.68000 13.242
41.72000 17.388
41.76000 24.243
41.80000 19.195
41.84000 16.148
41.88000 17.346
41.92000 21.251
41.96000 15.371
42.00000 20.340
42.04000 14.133
42.08000 14.086
42.12000 17.217
42.16000 6.087
42.20000 17.302
42.24000 20.366
42.28000 22.195
42.32000 19.175
42.36000 21.210
42.40000 19.244
42.44000 22.553
42.48000 12.242
42.52000 29.474
42.56000 21.507
42.60000 17.080
42.64000 18.215
42.68000 23.208
42.72000 20.240
42.76000 19.330
42.80000 22.291
42.84000 19.097
42.88000 16.179
42.92000 11.178
42.96000 8.263
43.00000 23.307
43.04000 16.142
43.08000 10.095
43.12000 22.145
43.16000 15.986
43.20000 13.300
43.24000 19.474
43.28000 20.312
43.32000 17.191
43.36000 16.136
43.40000 10.131
43.44000 14.196
43.48000 19.161
43.52000 15.161
43.56000 9.151
43.60000 20.603
43.64000 18.128
43.68000 11.140
43.72000 25.358
43.76000 21.198
43.80000 23.264
43.84000 17.121
43.88000 15.306
43.92000 17.136
43.96000 22.145
44.00000 15.227
44.04000 17.314
44.08000 19.260
44.12000 18.214
44.16000 21.247
44.20000 18.178
44.24000 11.193
44.28000 16.295
44.32000 17.293
44.36000 22.262
44.40000 15.185
44.44000 21.103
44.48000 19.322
44.52000 14.262
44.56000 22.430
44.60000 23.052
44.64000 23.383
44.68000 10.169
44.72000 19.053
44.76000 11.307
44.80000 17.327
44.84000 15.130
44.88000 21.338
44.92000 14.119
44.96000 23.361
45.00000 22.130
45.04000 15.309
45.08000 24.232
45.12000 15.159
45.16000 17.227
45.20000 23.153
45.24000 21.271
45.28000 20.345
45.32000 17.254
45.36000 19.379
45.40000 16.159
45.44000 26.400
45.48000 19.154
45.52000 13.155
45.56000 18.312
45.60000 19.369
45.64000 17.231
45.68000 16.100
45.72000 24.097
45.76000 20.281
45.80000 19.302
45.84000 16.215
45.88000 20.343
45.92000 23.126
45.96000 20.293
46.00000 10.958
46.04000 13.200
46.08000 18.323
46.12000 24.354
46.16000 16.171
46.20000 20.438
46.24000 14.156
46.28000 23.234
46.32000 11.105
46.36000 17.178
46.40000 19.163
46.44000 13.046
46.48000 22.167
46.52000 16.239
46.56000 27.171
46.60000 16.182
46.64000 20.132
46.68000 18.413
46.72000 26.312
46.76000 25.302
46.80000 18.198
46.84000 18.229
46.88000 14.172
46.92000 10.246
46.96000 18.173
47.00000 14.264
47.04000 13.172
47.08000 16.131
47.12000 17.121
47.16000 25.448
47.20000 16.127
47.24000 20.308
47.28000 16.296
47.32000 13.290
47.36000 14.204
47.40000 16.264
47.44000 21.284
47.48000 12.074
47.52000 15.167
47.56000 17.237
47.60000 13.083
47.64000 16.480
47.68000 17.107
47.72000 15.181
47.76000 27.236
47.80000 13.116
47.84000 25.150
47.88000 18.231
47.92000 24.223
47.96000 13.077
48.00000 14.052
48.04000 18.376
48.08000 11.167
48.12000 23.257
48.16000 19.456
48.20000 21.314
48.24000 14.103
48.28000 11.152
48.32000 19.271
48.36000 18.329
48.40000 13.251
48.44000 19.403
48.48000 16.344
48.52000 17.996
48.56000 20.328
48.60000 18.309
48.64000 19.368
48.68000 10.090
48.72000 18.190
48.76000 22.174
48.80000 25.265
48.84000 15.320
48.88000 15.049
48.92000 14.227
48.96000 14.246
49.00000 13.146
49.04000 16.304
49.08000 17.101
49.12000 14.126
49.16000 14.310
49.20000 13.358
49.24000 9.108
49.28000 15.201
49.32000 25.375
49.36000 12.072
49.40000 13.274
49.44000 17.232
49.48000 10.314
49.52000 10.026
49.56000 16.253
49.60000 18.086
49.64000 26.373
49.68000 21.439
49.72000 12.112
49.76000 10.980
49.80000 20.286
49.84000 17.026
49.88000 20.315
49.92000 16.187
49.96000 18.104
50.00000 12.086
50.04000 10.219
50.08000 10.257
50.12000 12.025
50.16000 15.207
50.20000 14.193
50.24000 11.231
50.28000 10.120
50.32000 11.182
50.36000 14.160
50.40000 18.201
50.44000 10.182
50.48000 14.333
50.52000 22.144
50.56000 13.068
50.60000 13.185
50.64000 13.165
50.68000 14.197
50.72000 16.272
50.76000 15.306
50.80000 16.285
50.84000 17.295
50.88000 12.250
50.92000 14.163
50.96000 14.126
51.00000 15.194
51.04000 11.104
51.08000 11.150
51.12000 10.208
51.16000 10.153
51.20000 12.281
51.24000 13.334
51.28000 18.275
51.32000 20.200
51.36000 15.123
51.40000 18.168
51.44000 20.158
51.48000 17.364
51.52000 11.173
51.56000 11.098
51.60000 9.032
51.64000 20.280
51.68000 16.247
51.72000 17.146
51.76000 12.241
51.80000 14.320
51.84000 17.127
51.88000 19.446
51.92000 17.192
51.96000 16.295
52.00000 13.076
52.04000 16.332
52.08000 13.208
52.12000 6.023
52.16000 15.241
52.20000 15.342
52.24000 10.038
52.28000 12.221
52.32000 10.192
52.36000 17.269
52.40000 20.371
52.44000 12.299
52.48000 9.074
52.52000 15.114
52.56000 14.158
52.60000 10.194
52.64000 11.060
52.68000 20.199
52.72000 16.323
52.76000 25.258
52.80000 12.120
52.84000 19.268
52.88000 7.100
52.92000 10.081
52.96000 9.142
53.00000 16.046
53.04000 13.290
53.08000 22.267
53.12000 12.317
53.16000 20.279
53.20000 15.250
53.24000 9.210
53.28000 12.261
53.32000 13.316
53.36000 14.352
53.40000 15.043
53.44000 6.969
53.48000 10.104
53.52000 14.158
53.56000 15.186
53.60000 17.277
53.64000 15.345
53.68000 9.054
53.72000 15.459
53.76000 16.194
53.80000 22.343
53.84000 17.212
53.88000 10.177
53.92000 16.131
53.96000 7.986
54.00000 26.321
54.04000 11.274
54.08000 8.216
54.12000 16.260
54.16000 7.020
54.20000 10.128
54.24000 9.113
54.28000 9.199
54.32000 10.116
54.36000 11.194
54.40000 15.118
54.44000 14.186
54.48000 14.344
54.52000 10.229
54.56000 13.153
54.60000 11.108
54.64000 10.030
54.68000 19.181
54.72000 16.293
54.76000 13.133
54.80000 6.135
54.84000 10.049
54.88000 20.069
54.92000 16.274
54.96000 16.992
55.00000 18.182
55.04000 9.154
55.08000 8.161
55.12000 13.137
55.16000 17.327
55.20000 17.238
55.24000 8.104
55.28000 11.182
55.32000 15.218
55.36000 16.168
55.40000 9.007
55.44000 12.359
55.48000 8.174
55.52000 17.306
55.56000 15.147
55.60000 15.205
55.64000 8.189
55.68000 16.322
55.72000 12.168
55.76000 6.170
55.80000 11.182
55.84000 10.001
55.88000 18.434
55.92000 10.018
55.96000 17.367
56.00000 9.088
56.04000 18.227
56.08000 13.076
56.12000 11.241
56.16000 15.258
56.20000 7.157
56.24000 15.168
56.28000 17.260
56.32000 12.248
56.36000 13.112
56.40000 11.239
56.44000 16.148
56.48000 6.097
56.52000 15.154
56.56000 3.942
56.60000 5.027
56.64000 6.078
56.68000 13.192
56.72000 10.133
56.76000 7.115
56.80000 11.167
56.84000 6.125
56.88000 16.145
56.92000 15.220
56.96000 19.141
57.00000 18.217
57.04000 15.406
57.08000 14.160
57.12000 13.239
57.16000 11.280
57.20000 8.941
57.24000 13.017
57.28000 11.049
57.32000 11.140
57.36000 4.068
57.40000 9.151
57.44000 11.246
57.48000 15.198
57.52000 5.084
57.56000 14.337
57.60000 10.178
57.64000 16.311
57.68000 15.212
57.72000 8.073
57.76000 14.126
57.80000 9.050
57.84000 4.982
57.88000 7.150
57.92000 7.052
57.96000 12.274
58.00000 4.971
58.04000 15.250
58.08000 13.239
58.12000 9.096
58.16000 10.061
58.20000 14.353
58.24000 15.192
58.28000 12.100
58.32000 11.096
58.36000 9.088
58.40000 15.056
58.44000 10.120
58.48000 12.200
58.52000 11.450
58.56000 8.075
58.60000 12.144
58.64000 12.261
58.68000 12.176
58.72000 8.090
58.76000 16.059
58.80000 8.092
58.84000 6.112
58.88000 8.170
58.92000 9.078
58.96000 12.250
59.00000 7.137
59.04000 9.042
59.08000 3.148
59.12000 2.988
59.16000 8.049
59.20000 7.995
59.24000 11.112
59.28000 9.085
59.32000 10.066
59.36000 14.140
59.40000 12.167
59.44000 13.061
59.48000 4.972
59.52000 8.233
59.56000 9.112
59.60000 7.009
59.64000 7.039
59.68000 14.106
59.72000 8.291
59.76000 6.984
59.80000 9.088
59.84000 9.062
59.88000 8.192
59.92000 7.068
59.96000 9.135
60.00000 9.098
60.04000 2.039
60.08000 8.078
60.12000 6.064
60.16000 5.183
60.20000 7.121
60.24000 7.068
60.28000 11.097
60.32000 7.036
60.36000 11.066
60.40000 11.238
60.44000 8.154
60.48000 7.119
60.52000 8.006
60.56000 11.210
60.60000 11.065
60.64000 10.161
60.68000 18.188
60.72000 7.082
60.76000 7.131
60.80000 7.107
60.84000 4.029
60.88000 7.029
60.92000 8.093
60.96000 6.129
61.00000 5.131
61.04000 6.072
61.08000 10.163
61.12000 7.124
61.16000 8.167
61.20000 6.092
61.24000 4.022
61.28000 13.124
61.32000 9.156
61.36000 5.101
61.40000 4.124
61.44000 7.032
61.48000 7.155
61.52000 6.075
61.56000 9.205
61.60000 8.072
61.64000 7.137
61.68000 8.023
61.72000 13.260
61.76000 9.126
61.80000 9.199
61.84000 7.165
61.88000 8.055
61.92000 11.276
61.96000 5.051
62.00000 12.065
62.04000 10.180
62.08000 8.142
62.12000 11.119
62.16000 8.120
62.20000 7.109
62.24000 3.049
62.28000 11.245
62.32000 8.132
62.36000 8.111
62.40000 6.006
62.44000 6.080
62.48000 9.944
62.52000 3.087
62.56000 10.997
62.60000 5.121
62.64000 10.190
62.68000 10.080
62.72000 6.021
62.76000 9.144
62.80000 10.154
62.84000 12.074
62.88000 8.057
62.92000 6.982
62.96000 7.012
63.00000 6.081
63.04000 5.073
63.08000 3.998
63.12000 12.130
63.16000 8.056
63.20000 3.016
63.24000 6.030
63.28000 9.203
63.32000 10.223
63.36000 6.063
63.40000 6.131
63.44000 10.065
63.48000 12.215
63.52000 8.189
63.56000 3.957
63.60000 9.079
63.64000 9.011
63.68000 10.207
63.72000 4.006
63.76000 11.018
63.80000 9.183
63.84000 9.148
63.88000 9.278
63.92000 7.110
63.96000 11.071
64.00000 4.981
64.04000 11.144
64.08000 8.073
64.12000 5.066
64.16000 8.094
64.20000 8.027
64.24000 12.109
64.28000 7.054
64.32000 3.055
64.36000 6.156
64.40000 2.017
64.44000 6.185
64.48000 8.330
64.52000 15.340
64.56000 8.995
64.60000 9.255
64.64000 10.162
64.68000 7.123
64.72000 13.160
64.76000 1.988
64.80000 10.127
64.84000 8.180
64.88000 7.076
64.92000 3.013
64.96000 14.150
65.00000 6.085