File: XRD/XRD/11-09-2025/XY Data/01092025_BTO_omega_0_5_001_10_-22-275_11-350.xy
20.00000 12.219
20.04000 21.129
20.08000 20.200
20.12000 20.032
20.16000 12.000
20.20000 22.303
20.24000 25.463
20.28000 12.094
20.32000 22.368
20.36000 23.078
20.40000 33.242
20.44000 16.265
20.48000 20.416
20.52000 24.506
20.56000 22.265
20.60000 22.315
20.64000 23.350
20.68000 23.350
20.72000 20.425
20.76000 16.102
20.80000 20.206
20.84000 20.224
20.88000 18.258
20.92000 24.351
20.96000 15.108
21.00000 27.390
21.04000 21.354
21.08000 25.314
21.12000 23.063
21.16000 18.267
21.20000 31.550
21.24000 23.201
21.28000 24.410
21.32000 15.151
21.36000 21.197
21.40000 28.332
21.44000 32.413
21.48000 23.287
21.52000 17.172
21.56000 22.247
21.60000 22.300
21.64000 20.141
21.68000 17.270
21.72000 24.332
21.76000 17.106
21.80000 23.470
21.84000 24.320
21.88000 12.228
21.92000 18.399
21.96000 26.181
22.00000 26.315
22.04000 25.396
22.08000 28.407
22.12000 22.225
22.16000 19.154
22.20000 23.024
22.24000 29.349
22.28000 22.073
22.32000 23.247
22.36000 31.241
22.40000 27.402
22.44000 15.167
22.48000 30.638
22.52000 26.242
22.56000 26.229
22.60000 23.233
22.64000 19.329
22.68000 31.418
22.72000 31.376
22.76000 28.350
22.80000 24.319
22.84000 30.480
22.88000 21.262
22.92000 28.377
22.96000 26.290
23.00000 34.487
23.04000 29.379
23.08000 28.358
23.12000 28.282
23.16000 26.382
23.20000 24.169
23.24000 26.402
23.28000 28.504
23.32000 38.619
23.36000 31.533
23.40000 31.599
23.44000 23.238
23.48000 31.420
23.52000 24.344
23.56000 33.488
23.60000 27.522
23.64000 29.390
23.68000 34.334
23.72000 28.286
23.76000 25.279
23.80000 36.183
23.84000 34.384
23.88000 26.089
23.92000 32.258
23.96000 29.308
24.00000 19.204
24.04000 29.546
24.08000 34.368
24.12000 36.434
24.16000 27.352
24.20000 24.309
24.24000 30.252
24.28000 42.254
24.32000 35.774
24.36000 35.522
24.40000 40.468
24.44000 27.095
24.48000 30.495
24.52000 45.564
24.56000 45.932
24.60000 34.500
24.64000 38.395
24.68000 22.563
24.72000 29.512
24.76000 33.421
24.80000 30.223
24.84000 37.553
24.88000 32.420
24.92000 24.365
24.96000 31.343
25.00000 37.630
25.04000 30.363
25.08000 32.332
25.12000 39.424
25.16000 43.398
25.20000 45.671
25.24000 42.394
25.28000 36.653
25.32000 41.585
25.36000 38.517
25.40000 37.393
25.44000 33.392
25.48000 42.408
25.52000 44.374
25.56000 42.594
25.60000 36.338
25.64000 46.600
25.68000 42.611
25.72000 39.729
25.76000 52.986
25.80000 50.378
25.84000 30.404
25.88000 47.781
25.92000 47.098
25.96000 43.544
26.00000 50.763
26.04000 70.819
26.08000 45.198
26.12000 39.505
26.16000 46.574
26.20000 40.582
26.24000 59.430
26.28000 69.844
26.32000 57.736
26.36000 68.732
26.40000 48.537
26.44000 45.636
26.48000 53.516
26.52000 52.512
26.56000 44.389
26.60000 60.768
26.64000 59.760
26.68000 49.702
26.72000 54.617
26.76000 65.933
26.80000 73.670
26.84000 42.720
26.88000 54.573
26.92000 54.708
26.96000 59.053
27.00000 47.707
27.04000 58.633
27.08000 59.574
27.12000 57.805
27.16000 65.954
27.20000 59.950
27.24000 66.808
27.28000 55.722
27.32000 59.587
27.36000 52.499
27.40000 55.761
27.44000 42.550
27.48000 69.825
27.52000 79.146
27.56000 45.552
27.60000 51.499
27.64000 51.683
27.68000 61.835
27.72000 50.693
27.76000 53.460
27.80000 50.637
27.84000 47.640
27.88000 59.951
27.92000 53.838
27.96000 52.824
28.00000 53.813
28.04000 48.624
28.08000 56.659
28.12000 64.753
28.16000 52.653
28.20000 62.991
28.24000 49.783
28.28000 30.440
28.32000 61.676
28.36000 50.562
28.40000 39.458
28.44000 50.796
28.48000 48.525
28.52000 58.876
28.56000 53.698
28.60000 53.080
28.64000 48.565
28.68000 40.325
28.72000 49.375
28.76000 51.647
28.80000 60.917
28.84000 42.552
28.88000 37.706
28.92000 58.484
28.96000 38.742
29.00000 61.996
29.04000 50.423
29.08000 57.541
29.12000 40.359
29.16000 51.738
29.20000 42.309
29.24000 54.926
29.28000 46.585
29.32000 48.669
29.36000 50.453
29.40000 47.687
29.44000 46.769
29.48000 47.816
29.52000 41.424
29.56000 48.722
29.60000 41.704
29.64000 55.796
29.68000 53.806
29.72000 40.586
29.76000 42.874
29.80000 50.621
29.84000 39.627
29.88000 43.768
29.92000 29.321
29.96000 46.333
30.00000 33.311
30.04000 51.747
30.08000 40.549
30.12000 36.407
30.16000 44.381
30.20000 39.350
30.24000 33.221
30.28000 47.617
30.32000 43.742
30.36000 46.565
30.40000 34.345
30.44000 43.591
30.48000 52.954
30.52000 34.534
30.56000 34.481
30.60000 28.384
30.64000 36.530
30.68000 32.506
30.72000 39.352
30.76000 32.399
30.80000 36.211
30.84000 27.309
30.88000 33.587
30.92000 26.300
30.96000 37.669
31.00000 29.531
31.04000 39.213
31.08000 33.442
31.12000 36.386
31.16000 29.466
31.20000 40.651
31.24000 37.367
31.28000 36.435
31.32000 30.639
31.36000 36.585
31.40000 22.277
31.44000 24.281
31.48000 49.607
31.52000 32.391
31.56000 24.315
31.60000 29.330
31.64000 23.183
31.68000 31.468
31.72000 37.541
31.76000 40.507
31.80000 25.226
31.84000 43.481
31.88000 27.197
31.92000 32.530
31.96000 33.564
32.00000 38.515
32.04000 34.434
32.08000 26.342
32.12000 37.221
32.16000 35.425
32.20000 24.407
32.24000 23.177
32.28000 24.268
32.32000 26.230
32.36000 25.233
32.40000 22.283
32.44000 29.364
32.48000 27.336
32.52000 31.324
32.56000 33.588
32.60000 28.361
32.64000 35.488
32.68000 32.244
32.72000 24.346
32.76000 20.276
32.80000 29.215
32.84000 29.596
32.88000 27.454
32.92000 21.230
32.96000 28.368
33.00000 19.995
33.04000 16.166
33.08000 17.108
33.12000 21.367
33.16000 20.219
33.20000 22.275
33.24000 24.271
33.28000 20.154
33.32000 22.210
33.36000 22.425
33.40000 24.338
33.44000 12.202
33.48000 21.244
33.52000 16.216
33.56000 17.092
33.60000 22.140
33.64000 23.403
33.68000 25.376
33.72000 16.257
33.76000 18.107
33.80000 19.226
33.84000 17.230
33.88000 23.253
33.92000 24.611
33.96000 17.979
34.00000 12.178
34.04000 23.268
34.08000 14.136
34.12000 15.351
34.16000 14.309
34.20000 20.252
34.24000 14.302
34.28000 27.464
34.32000 19.180
34.36000 13.146
34.40000 12.182
34.44000 8.242
34.48000 19.275
34.52000 18.256
34.56000 17.369
34.60000 18.158
34.64000 10.153
34.68000 18.220
34.72000 23.188
34.76000 13.213
34.80000 22.507
34.84000 13.389
34.88000 22.326
34.92000 14.378
34.96000 15.195
35.00000 18.232
35.04000 21.105
35.08000 27.261
35.12000 19.236
35.16000 19.272
35.20000 10.134
35.24000 14.119
35.28000 23.423
35.32000 19.153
35.36000 19.279
35.40000 13.190
35.44000 16.149
35.48000 19.419
35.52000 22.264
35.56000 23.318
35.60000 22.299
35.64000 26.256
35.68000 21.230
35.72000 17.262
35.76000 19.225
35.80000 27.271
35.84000 14.079
35.88000 14.338
35.92000 16.090
35.96000 12.147
36.00000 22.319
36.04000 15.146
36.08000 17.431
36.12000 20.283
36.16000 13.260
36.20000 23.519
36.24000 20.304
36.28000 17.196
36.32000 16.149
36.36000 12.179
36.40000 21.208
36.44000 22.429
36.48000 23.284
36.52000 16.249
36.56000 21.099
36.60000 21.337
36.64000 19.117
36.68000 11.254
36.72000 14.107
36.76000 16.280
36.80000 17.174
36.84000 22.156
36.88000 23.375
36.92000 16.324
36.96000 21.274
37.00000 27.326
37.04000 17.264
37.08000 21.270
37.12000 22.379
37.16000 30.445
37.20000 23.295
37.24000 14.272
37.28000 14.422
37.32000 16.138
37.36000 15.207
37.40000 12.272
37.44000 28.376
37.48000 19.206
37.52000 20.385
37.56000 13.144
37.60000 21.173
37.64000 20.221
37.68000 20.196
37.72000 23.287
37.76000 23.443
37.80000 27.264
37.84000 15.212
37.88000 23.259
37.92000 14.129
37.96000 20.447
38.00000 30.332
38.04000 16.214
38.08000 23.409
38.12000 22.506
38.16000 17.233
38.20000 15.161
38.24000 22.427
38.28000 24.327
38.32000 23.535
38.36000 20.332
38.40000 21.427
38.44000 26.296
38.48000 21.166
38.52000 27.035
38.56000 17.195
38.60000 22.271
38.64000 21.193
38.68000 18.296
38.72000 21.574
38.76000 20.157
38.80000 20.294
38.84000 27.465
38.88000 10.074
38.92000 27.464
38.96000 19.420
39.00000 17.399
39.04000 14.179
39.08000 21.452
39.12000 15.099
39.16000 22.116
39.20000 20.117
39.24000 26.223
39.28000 15.122
39.32000 20.369
39.36000 20.205
39.40000 17.173
39.44000 24.432
39.48000 22.438
39.52000 23.507
39.56000 22.383
39.60000 24.324
39.64000 21.405
39.68000 22.336
39.72000 22.093
39.76000 24.452
39.80000 24.335
39.84000 26.107
39.88000 24.209
39.92000 32.560
39.96000 26.382
40.00000 27.396
40.04000 26.158
40.08000 23.526
40.12000 23.347
40.16000 16.284
40.20000 14.025
40.24000 22.275
40.28000 31.638
40.32000 20.196
40.36000 23.329
40.40000 20.277
40.44000 23.366
40.48000 11.124
40.52000 29.446
40.56000 26.387
40.60000 22.276
40.64000 28.431
40.68000 17.174
40.72000 17.199
40.76000 26.239
40.80000 25.267
40.84000 15.337
40.88000 19.255
40.92000 23.206
40.96000 17.466
41.00000 23.392
41.04000 18.030
41.08000 23.602
41.12000 32.571
41.16000 13.240
41.20000 21.251
41.24000 20.465
41.28000 20.185
41.32000 29.613
41.36000 16.213
41.40000 18.264
41.44000 17.189
41.48000 19.177
41.52000 19.107
41.56000 14.032
41.60000 23.449
41.64000 15.263
41.68000 26.220
41.72000 23.208
41.76000 28.328
41.80000 21.321
41.84000 20.458
41.88000 22.096
41.92000 22.217
41.96000 28.373
42.00000 23.478
42.04000 29.322
42.08000 25.317
42.12000 24.197
42.16000 25.235
42.20000 24.213
42.24000 20.367
42.28000 19.979
42.32000 16.238
42.36000 25.478
42.40000 26.329
42.44000 21.463
42.48000 27.412
42.52000 33.391
42.56000 16.270
42.60000 20.184
42.64000 23.393
42.68000 24.406
42.72000 14.165
42.76000 28.302
42.80000 20.253
42.84000 19.082
42.88000 18.258
42.92000 10.008
42.96000 18.075
43.00000 23.107
43.04000 22.193
43.08000 18.433
43.12000 21.129
43.16000 27.475
43.20000 25.392
43.24000 27.449
43.28000 24.226
43.32000 29.521
43.36000 23.215
43.40000 20.298
43.44000 13.192
43.48000 17.211
43.52000 17.341
43.56000 24.258
43.60000 16.279
43.64000 30.451
43.68000 23.208
43.72000 19.036
43.76000 16.092
43.80000 21.250
43.84000 21.184
43.88000 30.326
43.92000 21.236
43.96000 16.058
44.00000 18.267
44.04000 18.200
44.08000 21.229
44.12000 21.386
44.16000 30.268
44.20000 20.238
44.24000 27.310
44.28000 19.320
44.32000 20.268
44.36000 22.261
44.40000 28.501
44.44000 22.073
44.48000 13.250
44.52000 25.290
44.56000 17.172
44.60000 19.185
44.64000 27.332
44.68000 21.433
44.72000 30.421
44.76000 18.156
44.80000 21.284
44.84000 20.173
44.88000 18.168
44.92000 21.208
44.96000 19.173
45.00000 22.217
45.04000 22.254
45.08000 23.328
45.12000 17.195
45.16000 22.386
45.20000 10.030
45.24000 20.220
45.28000 19.180
45.32000 19.164
45.36000 21.196
45.40000 14.074
45.44000 17.116
45.48000 19.236
45.52000 23.534
45.56000 17.140
45.60000 21.206
45.64000 29.341
45.68000 24.437
45.72000 19.228
45.76000 22.266
45.80000 19.271
45.84000 26.401
45.88000 21.184
45.92000 20.252
45.96000 16.199
46.00000 17.344
46.04000 19.087
46.08000 18.199
46.12000 27.137
46.16000 23.354
46.20000 16.073
46.24000 32.505
46.28000 21.172
46.32000 20.359
46.36000 32.126
46.40000 19.338
46.44000 16.296
46.48000 25.433
46.52000 25.531
46.56000 19.303
46.60000 29.107
46.64000 20.150
46.68000 21.250
46.72000 23.423
46.76000 30.651
46.80000 25.286
46.84000 24.223
46.88000 16.049
46.92000 17.126
46.96000 27.305
47.00000 23.501
47.04000 29.222
47.08000 21.534
47.12000 17.251
47.16000 13.225
47.20000 15.192
47.24000 13.195
47.28000 17.198
47.32000 23.397
47.36000 23.111
47.40000 20.301
47.44000 30.646
47.48000 23.187
47.52000 17.209
47.56000 19.400
47.60000 15.132
47.64000 16.292
47.68000 12.227
47.72000 18.203
47.76000 20.325
47.80000 20.220
47.84000 21.401
47.88000 16.372
47.92000 19.162
47.96000 12.215
48.00000 14.073
48.04000 15.292
48.08000 20.074
48.12000 18.358
48.16000 15.374
48.20000 11.146
48.24000 30.318
48.28000 23.371
48.32000 18.306
48.36000 24.276
48.40000 22.029
48.44000 14.312
48.48000 19.285
48.52000 16.049
48.56000 23.154
48.60000 19.250
48.64000 20.050
48.68000 18.431
48.72000 21.206
48.76000 15.247
48.80000 18.137
48.84000 19.152
48.88000 10.058
48.92000 14.348
48.96000 18.173
49.00000 20.249
49.04000 16.198
49.08000 26.451
49.12000 18.159
49.16000 22.155
49.20000 21.243
49.24000 13.133
49.28000 17.135
49.32000 20.174
49.36000 24.108
49.40000 14.046
49.44000 13.141
49.48000 13.206
49.52000 22.350
49.56000 21.278
49.60000 12.123
49.64000 14.270
49.68000 22.418
49.72000 17.221
49.76000 19.191
49.80000 21.307
49.84000 18.101
49.88000 24.508
49.92000 21.128
49.96000 11.175
50.00000 18.210
50.04000 16.225
50.08000 18.222
50.12000 18.094
50.16000 16.081
50.20000 15.190
50.24000 12.127
50.28000 12.148
50.32000 15.164
50.36000 21.448
50.40000 16.122
50.44000 24.156
50.48000 23.384
50.52000 11.066
50.56000 13.189
50.60000 12.076
50.64000 18.182
50.68000 23.114
50.72000 12.998
50.76000 17.275
50.80000 18.429
50.84000 18.307
50.88000 19.321
50.92000 14.018
50.96000 12.271
51.00000 19.115
51.04000 21.305
51.08000 20.474
51.12000 17.155
51.16000 10.039
51.20000 12.226
51.24000 19.046
51.28000 17.312
51.32000 18.425
51.36000 12.279
51.40000 17.289
51.44000 10.122
51.48000 15.097
51.52000 15.273
51.56000 20.419
51.60000 17.301
51.64000 8.018
51.68000 8.934
51.72000 23.304
51.76000 17.097
51.80000 18.431
51.84000 21.258
51.88000 12.071
51.92000 22.530
51.96000 15.046
52.00000 13.010
52.04000 15.206
52.08000 8.118
52.12000 18.200
52.16000 21.405
52.20000 22.190
52.24000 15.157
52.28000 24.149
52.32000 22.402
52.36000 18.045
52.40000 16.216
52.44000 17.159
52.48000 10.239
52.52000 13.182
52.56000 23.297
52.60000 11.059
52.64000 12.210
52.68000 15.250
52.72000 8.120
52.76000 16.259
52.80000 14.218
52.84000 14.230
52.88000 8.001
52.92000 17.453
52.96000 14.143
53.00000 16.124
53.04000 17.276
53.08000 11.025
53.12000 13.205
53.16000 13.926
53.20000 21.403
53.24000 13.143
53.28000 13.138
53.32000 19.171
53.36000 13.280
53.40000 17.219
53.44000 13.108
53.48000 13.144
53.52000 19.280
53.56000 13.146
53.60000 11.166
53.64000 11.145
53.68000 16.268
53.72000 16.353
53.76000 13.169
53.80000 8.051
53.84000 18.204
53.88000 19.321
53.92000 9.267
53.96000 19.317
54.00000 11.117
54.04000 18.125
54.08000 13.138
54.12000 16.310
54.16000 17.338
54.20000 11.105
54.24000 11.166
54.28000 6.020
54.32000 13.139
54.36000 18.216
54.40000 17.267
54.44000 22.347
54.48000 12.140
54.52000 10.235
54.56000 10.130
54.60000 19.262
54.64000 11.291
54.68000 10.272
54.72000 11.135
54.76000 16.299
54.80000 17.103
54.84000 9.143
54.88000 8.155
54.92000 12.123
54.96000 15.332
55.00000 12.996
55.04000 16.216
55.08000 12.049
55.12000 13.211
55.16000 14.483
55.20000 12.116
55.24000 11.116
55.28000 12.146
55.32000 20.272
55.36000 9.096
55.40000 11.067
55.44000 13.134
55.48000 20.187
55.52000 11.118
55.56000 13.176
55.60000 9.130
55.64000 9.999
55.68000 13.047
55.72000 12.979
55.76000 11.106
55.80000 8.126
55.84000 5.040
55.88000 22.308
55.92000 10.096
55.96000 18.084
56.00000 10.195
56.04000 13.136
56.08000 17.204
56.12000 10.243
56.16000 12.191
56.20000 15.174
56.24000 10.184
56.28000 7.114
56.32000 12.203
56.36000 11.076
56.40000 13.104
56.44000 18.145
56.48000 15.094
56.52000 15.257
56.56000 11.191
56.60000 6.038
56.64000 16.233
56.68000 4.022
56.72000 12.254
56.76000 17.225
56.80000 15.198
56.84000 13.107
56.88000 10.140
56.92000 10.052
56.96000 13.236
57.00000 11.192
57.04000 10.124
57.08000 16.212
57.12000 12.161
57.16000 12.290
57.20000 12.014
57.24000 10.160
57.28000 19.228
57.32000 12.156
57.36000 12.274
57.40000 14.179
57.44000 16.251
57.48000 14.210
57.52000 16.247
57.56000 16.347
57.60000 14.210
57.64000 22.232
57.68000 11.087
57.72000 7.031
57.76000 18.265
57.80000 8.142
57.84000 12.264
57.88000 12.023
57.92000 18.151
57.96000 7.164
58.00000 13.045
58.04000 12.135
58.08000 14.212
58.12000 6.089
58.16000 17.350
58.20000 14.196
58.24000 14.192
58.28000 12.220
58.32000 9.021
58.36000 9.946
58.40000 17.149
58.44000 6.042
58.48000 11.016
58.52000 11.101
58.56000 10.073
58.60000 13.328
58.64000 6.051
58.68000 9.092
58.72000 6.094
58.76000 7.083
58.80000 8.142
58.84000 13.237
58.88000 11.002
58.92000 8.038
58.96000 8.125
59.00000 10.189
59.04000 11.151
59.08000 7.955
59.12000 8.099
59.16000 13.211
59.20000 5.159
59.24000 14.016
59.28000 9.051
59.32000 8.071
59.36000 7.187
59.40000 8.078
59.44000 7.033
59.48000 15.297
59.52000 16.202
59.56000 21.246
59.60000 4.076
59.64000 14.225
59.68000 15.261
59.72000 11.128
59.76000 14.114
59.80000 6.958
59.84000 9.164
59.88000 9.048
59.92000 6.038
59.96000 7.050
60.00000 8.164
60.04000 11.005
60.08000 11.160
60.12000 14.202
60.16000 14.162
60.20000 7.124
60.24000 8.015
60.28000 11.074
60.32000 5.166
60.36000 7.098
60.40000 14.236
60.44000 7.088
60.48000 11.106
60.52000 9.100
60.56000 13.116
60.60000 12.123
60.64000 18.168
60.68000 6.997
60.72000 15.135
60.76000 9.259
60.80000 9.151
60.84000 9.093
60.88000 10.264
60.92000 12.182
60.96000 7.118
61.00000 11.965
61.04000 13.024
61.08000 8.052
61.12000 11.099
61.16000 10.204
61.20000 6.110
61.24000 7.087
61.28000 11.003
61.32000 12.310
61.36000 11.153
61.40000 12.169
61.44000 7.089
61.48000 14.188
61.52000 9.111
61.56000 7.073
61.60000 7.112
61.64000 7.137
61.68000 13.198
61.72000 7.214
61.76000 10.224
61.80000 9.120
61.84000 8.169
61.88000 9.203
61.92000 8.079
61.96000 11.040
62.00000 9.128
62.04000 10.029
62.08000 8.214
62.12000 7.029
62.16000 13.151
62.20000 8.055
62.24000 8.159
62.28000 13.377
62.32000 9.132
62.36000 11.083
62.40000 8.012
62.44000 8.114
62.48000 5.046
62.52000 8.122
62.56000 5.986
62.60000 10.129
62.64000 8.102
62.68000 11.079
62.72000 10.162
62.76000 8.064
62.80000 10.084
62.84000 8.129
62.88000 12.135
62.92000 4.152
62.96000 7.080
63.00000 7.042
63.04000 7.120
63.08000 3.002
63.12000 6.179
63.16000 10.183
63.20000 5.045
63.24000 10.071
63.28000 9.170
63.32000 12.110
63.36000 9.199
63.40000 7.098
63.44000 11.192
63.48000 13.162
63.52000 9.169
63.56000 12.063
63.60000 9.153
63.64000 9.145
63.68000 9.032
63.72000 13.258
63.76000 5.010
63.80000 5.026
63.84000 9.053
63.88000 8.045
63.92000 8.040
63.96000 10.085
64.00000 8.990
64.04000 6.993
64.08000 4.088
64.12000 6.998
64.16000 11.090
64.20000 9.124
64.24000 5.033
64.28000 3.996
64.32000 9.127
64.36000 8.108
64.40000 13.055
64.44000 9.192
64.48000 11.213
64.52000 10.953
64.56000 9.160
64.60000 7.168
64.64000 6.044
64.68000 5.048
64.72000 9.143
64.76000 4.016
64.80000 4.011
64.84000 14.216
64.88000 7.121
64.92000 6.069
64.96000 9.081
65.00000 10.008