File: XRD/XRD/11-09-2025/XY Data/01092025_BTO_omega_1_001_37_7-794_9-773.xy
20.00000 15.118
20.04000 20.942
20.08000 14.514
20.12000 23.324
20.16000 18.425
20.20000 15.163
20.24000 22.212
20.28000 26.516
20.32000 13.022
20.36000 18.362
20.40000 15.222
20.44000 14.151
20.48000 24.093
20.52000 15.384
20.56000 18.367
20.60000 22.238
20.64000 20.459
20.68000 31.435
20.72000 15.326
20.76000 16.260
20.80000 10.260
20.84000 21.391
20.88000 20.180
20.92000 18.964
20.96000 17.206
21.00000 19.329
21.04000 23.507
21.08000 30.307
21.12000 24.082
21.16000 19.149
21.20000 20.103
21.24000 19.233
21.28000 21.216
21.32000 23.326
21.36000 18.389
21.40000 17.198
21.44000 22.263
21.48000 21.062
21.52000 22.047
21.56000 20.328
21.60000 29.563
21.64000 16.152
21.68000 18.260
21.72000 18.159
21.76000 26.273
21.80000 28.583
21.84000 15.135
21.88000 15.147
21.92000 20.352
21.96000 13.199
22.00000 21.240
22.04000 24.467
22.08000 17.027
22.12000 17.389
22.16000 26.330
22.20000 22.224
22.24000 26.425
22.28000 27.245
22.32000 18.159
22.36000 21.136
22.40000 23.218
22.44000 27.241
22.48000 19.328
22.52000 21.290
22.56000 22.317
22.60000 30.596
22.64000 26.016
22.68000 25.144
22.72000 16.135
22.76000 20.191
22.80000 14.234
22.84000 35.642
22.88000 13.123
22.92000 29.637
22.96000 27.485
23.00000 22.185
23.04000 24.131
23.08000 26.459
23.12000 27.428
23.16000 23.286
23.20000 19.155
23.24000 25.343
23.28000 19.433
23.32000 27.318
23.36000 19.155
23.40000 25.138
23.44000 18.153
23.48000 19.118
23.52000 29.435
23.56000 29.384
23.60000 25.352
23.64000 21.277
23.68000 29.498
23.72000 27.168
23.76000 34.524
23.80000 28.180
23.84000 27.440
23.88000 22.311
23.92000 28.270
23.96000 31.480
24.00000 28.348
24.04000 24.144
24.08000 24.660
24.12000 29.251
24.16000 21.301
24.20000 34.530
24.24000 33.215
24.28000 28.330
24.32000 28.483
24.36000 32.331
24.40000 23.177
24.44000 25.505
24.48000 22.161
24.52000 34.556
24.56000 28.427
24.60000 35.339
24.64000 22.185
24.68000 37.609
24.72000 29.614
24.76000 28.346
24.80000 26.278
24.84000 24.258
24.88000 34.390
24.92000 31.267
24.96000 32.307
25.00000 36.492
25.04000 34.327
25.08000 35.524
25.12000 38.283
25.16000 44.586
25.20000 35.503
25.24000 32.339
25.28000 30.321
25.32000 30.195
25.36000 28.322
25.40000 29.322
25.44000 41.576
25.48000 32.633
25.52000 30.497
25.56000 39.293
25.60000 31.341
25.64000 41.394
25.68000 37.380
25.72000 34.602
25.76000 39.568
25.80000 45.471
25.84000 37.583
25.88000 36.401
25.92000 45.447
25.96000 51.903
26.00000 38.166
26.04000 35.381
26.08000 33.501
26.12000 33.230
26.16000 32.491
26.20000 34.281
26.24000 48.552
26.28000 39.498
26.32000 50.392
26.36000 40.505
26.40000 41.439
26.44000 36.314
26.48000 46.540
26.52000 37.750
26.56000 41.577
26.60000 44.628
26.64000 42.613
26.68000 43.816
26.72000 48.710
26.76000 38.583
26.80000 39.317
26.84000 40.348
26.88000 51.061
26.92000 37.510
26.96000 52.096
27.00000 39.462
27.04000 59.540
27.08000 50.553
27.12000 36.336
27.16000 41.535
27.20000 39.578
27.24000 44.710
27.28000 47.737
27.32000 43.559
27.36000 47.548
27.40000 48.422
27.44000 56.803
27.48000 37.435
27.52000 49.654
27.56000 44.674
27.60000 50.482
27.64000 41.608
27.68000 50.451
27.72000 46.639
27.76000 46.717
27.80000 40.472
27.84000 39.426
27.88000 37.357
27.92000 36.370
27.96000 50.780
28.00000 52.675
28.04000 57.871
28.08000 43.551
28.12000 43.687
28.16000 53.715
28.20000 60.502
28.24000 49.740
28.28000 46.519
28.32000 43.546
28.36000 37.388
28.40000 48.612
28.44000 61.405
28.48000 44.592
28.52000 52.448
28.56000 50.614
28.60000 41.633
28.64000 47.223
28.68000 50.792
28.72000 51.602
28.76000 36.548
28.80000 39.359
28.84000 44.607
28.88000 43.642
28.92000 42.501
28.96000 36.406
29.00000 49.712
29.04000 49.446
29.08000 48.740
29.12000 41.523
29.16000 39.451
29.20000 32.256
29.24000 39.377
29.28000 35.433
29.32000 35.761
29.36000 40.443
29.40000 50.561
29.44000 45.624
29.48000 43.351
29.52000 51.631
29.56000 47.672
29.60000 50.743
29.64000 35.406
29.68000 50.779
29.72000 41.389
29.76000 31.522
29.80000 27.483
29.84000 41.350
29.88000 35.470
29.92000 40.755
29.96000 42.530
30.00000 27.184
30.04000 33.096
30.08000 34.323
30.12000 38.592
30.16000 28.312
30.20000 31.207
30.24000 40.635
30.28000 36.262
30.32000 41.443
30.36000 25.391
30.40000 49.848
30.44000 22.100
30.48000 37.804
30.52000 31.186
30.56000 27.162
30.60000 35.512
30.64000 28.582
30.68000 30.490
30.72000 28.198
30.76000 30.366
30.80000 32.581
30.84000 28.246
30.88000 24.362
30.92000 28.436
30.96000 34.126
31.00000 29.622
31.04000 31.403
31.08000 23.374
31.12000 29.519
31.16000 21.402
31.20000 21.220
31.24000 21.193
31.28000 22.506
31.32000 25.385
31.36000 28.388
31.40000 20.101
31.44000 22.135
31.48000 23.380
31.52000 20.167
31.56000 22.364
31.60000 21.133
31.64000 23.457
31.68000 28.439
31.72000 20.206
31.76000 18.145
31.80000 30.623
31.84000 25.378
31.88000 29.474
31.92000 24.441
31.96000 27.343
32.00000 19.517
32.04000 25.227
32.08000 26.473
32.12000 21.301
32.16000 28.390
32.20000 22.256
32.24000 22.350
32.28000 25.079
32.32000 23.256
32.36000 25.136
32.40000 30.492
32.44000 27.356
32.48000 26.211
32.52000 20.143
32.56000 25.493
32.60000 30.191
32.64000 22.066
32.68000 25.296
32.72000 19.389
32.76000 14.150
32.80000 19.112
32.84000 18.379
32.88000 20.177
32.92000 24.422
32.96000 23.403
33.00000 22.297
33.04000 11.260
33.08000 19.177
33.12000 24.272
33.16000 11.126
33.20000 18.090
33.24000 20.078
33.28000 20.096
33.32000 17.283
33.36000 23.279
33.40000 20.220
33.44000 7.237
33.48000 25.221
33.52000 18.359
33.56000 18.165
33.60000 12.093
33.64000 24.189
33.68000 22.548
33.72000 12.240
33.76000 14.215
33.80000 19.204
33.84000 11.171
33.88000 18.362
33.92000 13.159
33.96000 16.204
34.00000 18.270
34.04000 17.278
34.08000 9.105
34.12000 13.219
34.16000 15.050
34.20000 11.186
34.24000 16.249
34.28000 7.184
34.32000 19.317
34.36000 11.111
34.40000 18.282
34.44000 17.247
34.48000 22.162
34.52000 15.025
34.56000 17.195
34.60000 13.149
34.64000 17.362
34.68000 9.080
34.72000 22.195
34.76000 13.180
34.80000 10.093
34.84000 16.345
34.88000 13.027
34.92000 11.340
34.96000 20.252
35.00000 18.320
35.04000 17.177
35.08000 21.116
35.12000 17.146
35.16000 14.248
35.20000 13.202
35.24000 18.217
35.28000 12.180
35.32000 12.110
35.36000 15.218
35.40000 15.117
35.44000 20.158
35.48000 19.283
35.52000 18.189
35.56000 21.226
35.60000 12.153
35.64000 17.241
35.68000 20.395
35.72000 11.060
35.76000 15.277
35.80000 8.127
35.84000 22.381
35.88000 26.391
35.92000 25.340
35.96000 12.183
36.00000 14.167
36.04000 15.174
36.08000 15.033
36.12000 18.177
36.16000 8.153
36.20000 9.012
36.24000 11.202
36.28000 23.401
36.32000 18.070
36.36000 10.010
36.40000 16.214
36.44000 14.165
36.48000 21.283
36.52000 21.344
36.56000 17.376
36.60000 4.032
36.64000 20.274
36.68000 14.080
36.72000 17.167
36.76000 14.306
36.80000 18.249
36.84000 19.309
36.88000 9.989
36.92000 15.208
36.96000 26.276
37.00000 18.314
37.04000 20.201
37.08000 19.306
37.12000 11.307
37.16000 17.074
37.20000 15.441
37.24000 18.078
37.28000 18.246
37.32000 9.027
37.36000 9.052
37.40000 18.076
37.44000 9.117
37.48000 20.422
37.52000 21.440
37.56000 19.212
37.60000 19.206
37.64000 20.441
37.68000 10.290
37.72000 17.062
37.76000 13.186
37.80000 18.191
37.84000 15.289
37.88000 15.213
37.92000 16.184
37.96000 11.101
38.00000 21.072
38.04000 16.096
38.08000 19.249
38.12000 19.173
38.16000 14.138
38.20000 17.314
38.24000 13.007
38.28000 12.090
38.32000 20.309
38.36000 15.083
38.40000 15.272
38.44000 15.221
38.48000 18.091
38.52000 14.292
38.56000 17.134
38.60000 17.215
38.64000 19.037
38.68000 21.365
38.72000 16.157
38.76000 16.229
38.80000 11.112
38.84000 18.479
38.88000 18.269
38.92000 15.195
38.96000 16.308
39.00000 22.188
39.04000 14.070
39.08000 16.026
39.12000 18.053
39.16000 13.268
39.20000 11.112
39.24000 18.300
39.28000 22.217
39.32000 13.214
39.36000 14.089
39.40000 21.264
39.44000 8.182
39.48000 18.221
39.52000 19.105
39.56000 17.273
39.60000 21.367
39.64000 23.391
39.68000 15.240
39.72000 25.167
39.76000 17.253
39.80000 25.228
39.84000 23.397
39.88000 21.318
39.92000 20.312
39.96000 25.475
40.00000 14.353
40.04000 15.215
40.08000 24.300
40.12000 26.305
40.16000 21.422
40.20000 20.476
40.24000 15.145
40.28000 10.174
40.32000 16.973
40.36000 28.538
40.40000 15.097
40.44000 14.174
40.48000 15.985
40.52000 16.114
40.56000 14.166
40.60000 17.267
40.64000 29.475
40.68000 13.183
40.72000 13.054
40.76000 15.237
40.80000 24.308
40.84000 13.239
40.88000 20.331
40.92000 17.400
40.96000 22.394
41.00000 12.160
41.04000 15.219
41.08000 22.248
41.12000 23.329
41.16000 28.481
41.20000 20.292
41.24000 17.147
41.28000 15.315
41.32000 29.203
41.36000 20.559
41.40000 15.119
41.44000 20.144
41.48000 17.321
41.52000 18.254
41.56000 23.312
41.60000 11.233
41.64000 21.239
41.68000 16.356
41.72000 21.270
41.76000 23.200
41.80000 17.318
41.84000 19.408
41.88000 24.265
41.92000 22.509
41.96000 12.219
42.00000 15.154
42.04000 15.230
42.08000 12.248
42.12000 13.263
42.16000 19.252
42.20000 15.185
42.24000 27.363
42.28000 18.203
42.32000 20.287
42.36000 18.456
42.40000 12.013
42.44000 19.292
42.48000 22.323
42.52000 11.161
42.56000 19.120
42.60000 9.085
42.64000 22.286
42.68000 19.331
42.72000 25.246
42.76000 34.455
42.80000 21.430
42.84000 23.256
42.88000 13.153
42.92000 20.100
42.96000 15.307
43.00000 14.117
43.04000 26.394
43.08000 12.105
43.12000 11.087
43.16000 24.239
43.20000 24.262
43.24000 15.129
43.28000 22.377
43.32000 24.451
43.36000 16.272
43.40000 15.280
43.44000 16.326
43.48000 15.157
43.52000 22.289
43.56000 21.372
43.60000 20.180
43.64000 12.049
43.68000 14.089
43.72000 21.083
43.76000 13.004
43.80000 20.191
43.84000 17.310
43.88000 23.581
43.92000 17.243
43.96000 17.240
44.00000 14.279
44.04000 15.231
44.08000 14.260
44.12000 17.351
44.16000 22.109
44.20000 18.214
44.24000 14.234
44.28000 17.286
44.32000 13.147
44.36000 13.175
44.40000 16.502
44.44000 22.145
44.48000 18.419
44.52000 10.113
44.56000 14.150
44.60000 18.239
44.64000 20.312
44.68000 18.292
44.72000 18.100
44.76000 15.201
44.80000 15.285
44.84000 18.269
44.88000 12.235
44.92000 19.277
44.96000 14.200
45.00000 18.163
45.04000 17.261
45.08000 14.313
45.12000 13.165
45.16000 19.260
45.20000 15.207
45.24000 16.178
45.28000 15.983
45.32000 15.111
45.36000 21.457
45.40000 24.387
45.44000 20.242
45.48000 18.188
45.52000 13.197
45.56000 22.388
45.60000 25.291
45.64000 27.388
45.68000 13.192
45.72000 22.353
45.76000 17.118
45.80000 29.200
45.84000 14.320
45.88000 25.335
45.92000 18.030
45.96000 21.554
46.00000 20.342
46.04000 24.477
46.08000 24.345
46.12000 17.291
46.16000 19.334
46.20000 13.178
46.24000 24.179
46.28000 19.105
46.32000 19.317
46.36000 13.334
46.40000 16.208
46.44000 15.164
46.48000 25.436
46.52000 20.158
46.56000 16.139
46.60000 21.157
46.64000 21.156
46.68000 25.393
46.72000 10.127
46.76000 15.276
46.80000 19.268
46.84000 19.018
46.88000 22.486
46.92000 22.415
46.96000 10.266
47.00000 28.158
47.04000 18.166
47.08000 13.144
47.12000 17.145
47.16000 22.314
47.20000 11.236
47.24000 17.193
47.28000 20.375
47.32000 18.258
47.36000 21.317
47.40000 13.265
47.44000 21.244
47.48000 19.159
47.52000 15.216
47.56000 14.269
47.60000 25.247
47.64000 8.147
47.68000 12.252
47.72000 20.384
47.76000 15.290
47.80000 16.151
47.84000 13.103
47.88000 17.224
47.92000 17.216
47.96000 15.204
48.00000 24.312
48.04000 21.034
48.08000 15.265
48.12000 17.059
48.16000 9.204
48.20000 13.218
48.24000 19.139
48.28000 14.157
48.32000 18.070
48.36000 13.043
48.40000 16.386
48.44000 22.393
48.48000 13.127
48.52000 17.219
48.56000 16.234
48.60000 21.509
48.64000 17.437
48.68000 10.195
48.72000 16.011
48.76000 18.184
48.80000 18.378
48.84000 17.308
48.88000 17.220
48.92000 22.377
48.96000 23.420
49.00000 17.185
49.04000 17.099
49.08000 10.076
49.12000 18.440
49.16000 16.357
49.20000 10.121
49.24000 14.278
49.28000 11.307
49.32000 15.184
49.36000 14.206
49.40000 7.020
49.44000 17.140
49.48000 15.108
49.52000 10.153
49.56000 20.017
49.60000 19.175
49.64000 18.210
49.68000 17.188
49.72000 12.176
49.76000 17.189
49.80000 22.282
49.84000 18.221
49.88000 20.397
49.92000 23.232
49.96000 16.264
50.00000 14.187
50.04000 17.314
50.08000 16.333
50.12000 13.171
50.16000 14.222
50.20000 18.448
50.24000 16.165
50.28000 13.202
50.32000 12.211
50.36000 9.044
50.40000 20.255
50.44000 26.409
50.48000 28.132
50.52000 20.262
50.56000 20.058
50.60000 14.340
50.64000 11.035
50.68000 20.200
50.72000 13.955
50.76000 13.226
50.80000 16.192
50.84000 17.166
50.88000 15.219
50.92000 20.282
50.96000 14.169
51.00000 17.229
51.04000 17.212
51.08000 19.216
51.12000 18.144
51.16000 14.125
51.20000 13.036
51.24000 13.201
51.28000 15.201
51.32000 15.077
51.36000 16.337
51.40000 20.394
51.44000 20.185
51.48000 24.385
51.52000 15.226
51.56000 17.384
51.60000 14.248
51.64000 12.941
51.68000 13.180
51.72000 22.255
51.76000 20.305
51.80000 14.163
51.84000 13.207
51.88000 9.179
51.92000 13.045
51.96000 13.171
52.00000 17.328
52.04000 21.357
52.08000 13.222
52.12000 14.235
52.16000 8.117
52.20000 18.200
52.24000 16.023
52.28000 10.121
52.32000 11.069
52.36000 13.152
52.40000 8.176
52.44000 15.220
52.48000 17.236
52.52000 12.024
52.56000 16.206
52.60000 8.202
52.64000 18.270
52.68000 7.148
52.72000 21.344
52.76000 8.212
52.80000 17.182
52.84000 13.167
52.88000 8.046
52.92000 23.296
52.96000 14.311
53.00000 15.304
53.04000 6.129
53.08000 19.272
53.12000 16.256
53.16000 14.036
53.20000 22.326
53.24000 11.212
53.28000 14.046
53.32000 4.982
53.36000 12.338
53.40000 16.223
53.44000 22.386
53.48000 8.164
53.52000 13.134
53.56000 16.177
53.60000 20.337
53.64000 11.179
53.68000 13.937
53.72000 13.190
53.76000 17.304
53.80000 15.314
53.84000 20.362
53.88000 13.947
53.92000 10.165
53.96000 10.168
54.00000 13.178
54.04000 7.054
54.08000 13.123
54.12000 12.288
54.16000 19.340
54.20000 21.229
54.24000 14.221
54.28000 8.138
54.32000 11.111
54.36000 20.140
54.40000 14.216
54.44000 15.155
54.48000 9.114
54.52000 15.321
54.56000 10.005
54.60000 18.247
54.64000 9.030
54.68000 16.210
54.72000 22.317
54.76000 16.268
54.80000 18.200
54.84000 14.213
54.88000 11.238
54.92000 10.278
54.96000 19.197
55.00000 17.407
55.04000 10.110
55.08000 14.166
55.12000 18.168
55.16000 19.119
55.20000 10.015
55.24000 10.142
55.28000 12.228
55.32000 20.127
55.36000 8.994
55.40000 8.108
55.44000 5.082
55.48000 14.181
55.52000 12.187
55.56000 11.089
55.60000 10.073
55.64000 12.095
55.68000 16.280
55.72000 11.139
55.76000 18.465
55.80000 11.113
55.84000 13.210
55.88000 8.048
55.92000 12.368
55.96000 15.211
56.00000 10.253
56.04000 17.290
56.08000 11.216
56.12000 7.101
56.16000 8.148
56.20000 16.288
56.24000 18.179
56.28000 10.991
56.32000 11.170
56.36000 9.113
56.40000 9.130
56.44000 13.296
56.48000 12.099
56.52000 10.209
56.56000 12.288
56.60000 10.181
56.64000 19.145
56.68000 15.270
56.72000 9.168
56.76000 15.084
56.80000 13.280
56.84000 10.076
56.88000 10.070
56.92000 13.299
56.96000 18.169
57.00000 13.139
57.04000 16.182
57.08000 10.099
57.12000 7.081
57.16000 15.282
57.20000 8.199
57.24000 10.165
57.28000 16.235
57.32000 13.146
57.36000 13.226
57.40000 9.163
57.44000 14.209
57.48000 9.113
57.52000 8.127
57.56000 9.102
57.60000 15.127
57.64000 10.001
57.68000 17.005
57.72000 14.241
57.76000 10.040
57.80000 5.057
57.84000 19.306
57.88000 12.308
57.92000 17.313
57.96000 12.263
58.00000 14.130
58.04000 13.159
58.08000 9.125
58.12000 21.246
58.16000 9.072
58.20000 5.128
58.24000 10.170
58.28000 8.038
58.32000 16.272
58.36000 6.163
58.40000 14.303
58.44000 8.105
58.48000 11.974
58.52000 10.230
58.56000 12.210
58.60000 15.181
58.64000 7.075
58.68000 10.086
58.72000 14.067
58.76000 10.994
58.80000 14.193
58.84000 14.024
58.88000 14.288
58.92000 9.176
58.96000 9.081
59.00000 18.207
59.04000 11.170
59.08000 10.151
59.12000 10.011
59.16000 6.999
59.20000 8.058
59.24000 12.129
59.28000 17.165
59.32000 8.212
59.36000 13.227
59.40000 7.131
59.44000 9.981
59.48000 6.071
59.52000 12.086
59.56000 5.045
59.60000 15.123
59.64000 10.112
59.68000 5.923
59.72000 5.070
59.76000 8.085
59.80000 8.041
59.84000 9.152
59.88000 12.269
59.92000 9.129
59.96000 16.110
60.00000 13.045
60.04000 8.313
60.08000 6.126
60.12000 10.065
60.16000 8.143
60.20000 10.163
60.24000 8.129
60.28000 4.007
60.32000 15.335
60.36000 11.143
60.40000 13.019
60.44000 10.243
60.48000 9.127
60.52000 9.158
60.56000 5.092
60.60000 12.155
60.64000 11.283
60.68000 14.294
60.72000 11.217
60.76000 4.039
60.80000 12.200
60.84000 10.262
60.88000 9.033
60.92000 10.170
60.96000 10.084
61.00000 8.110
61.04000 12.239
61.08000 9.098
61.12000 8.980
61.16000 11.131
61.20000 4.062
61.24000 7.168
61.28000 12.052
61.32000 9.073
61.36000 7.999
61.40000 7.111
61.44000 7.129
61.48000 6.063
61.52000 7.185
61.56000 10.244
61.60000 5.102
61.64000 15.223
61.68000 7.122
61.72000 10.173
61.76000 9.113
61.80000 10.219
61.84000 12.149
61.88000 8.023
61.92000 8.154
61.96000 10.183
62.00000 9.221
62.04000 10.083
62.08000 9.165
62.12000 12.177
62.16000 8.105
62.20000 7.083
62.24000 8.080
62.28000 21.221
62.32000 11.153
62.36000 9.104
62.40000 10.985
62.44000 9.072
62.48000 10.050
62.52000 23.388
62.56000 7.030
62.60000 9.177
62.64000 4.049
62.68000 12.125
62.72000 20.211
62.76000 10.185
62.80000 14.136
62.84000 9.217
62.88000 11.029
62.92000 6.088
62.96000 7.134
63.00000 8.160
63.04000 7.106
63.08000 13.151
63.12000 8.091
63.16000 8.065
63.20000 5.041
63.24000 11.252
63.28000 8.093
63.32000 12.209
63.36000 9.180
63.40000 9.938
63.44000 9.159
63.48000 5.040
63.52000 9.125
63.56000 9.110
63.60000 6.958
63.64000 11.134
63.68000 7.075
63.72000 7.097
63.76000 14.030
63.80000 8.090
63.84000 7.216
63.88000 12.100
63.92000 9.034
63.96000 10.161
64.00000 10.187
64.04000 12.118
64.08000 10.162
64.12000 10.126
64.16000 8.128
64.20000 10.090
64.24000 15.182
64.28000 10.012
64.32000 12.270
64.36000 7.109
64.40000 13.224
64.44000 9.011
64.48000 10.152
64.52000 5.007
64.56000 7.076
64.60000 10.055
64.64000 8.110
64.68000 15.086
64.72000 3.970
64.76000 10.110
64.80000 13.271
64.84000 7.110
64.88000 9.039
64.92000 13.141
64.96000 7.006
65.00000 11.115