File: XRD/XRD/11-09-2025/XY Data/01092025_BTO_omega_0_5_001_27_11-126_48-746.xy
20.00000 11.093
20.04000 16.043
20.08000 10.200
20.12000 19.247
20.16000 12.164
20.20000 17.299
20.24000 9.184
20.28000 15.144
20.32000 19.440
20.36000 15.275
20.40000 8.179
20.44000 15.282
20.48000 17.267
20.52000 13.119
20.56000 12.183
20.60000 21.056
20.64000 19.216
20.68000 17.247
20.72000 13.096
20.76000 14.178
20.80000 17.297
20.84000 15.076
20.88000 17.303
20.92000 16.308
20.96000 17.933
21.00000 13.164
21.04000 13.372
21.08000 20.276
21.12000 21.221
21.16000 10.052
21.20000 8.027
21.24000 21.168
21.28000 10.161
21.32000 17.154
21.36000 12.268
21.40000 13.072
21.44000 16.218
21.48000 16.180
21.52000 8.089
21.56000 9.119
21.60000 15.170
21.64000 13.178
21.68000 12.143
21.72000 16.177
21.76000 14.261
21.80000 13.124
21.84000 13.247
21.88000 22.271
21.92000 14.255
21.96000 16.140
22.00000 13.322
22.04000 10.193
22.08000 20.279
22.12000 12.185
22.16000 8.109
22.20000 16.449
22.24000 13.189
22.28000 13.220
22.32000 11.984
22.36000 14.122
22.40000 16.131
22.44000 18.400
22.48000 18.255
22.52000 24.309
22.56000 17.205
22.60000 15.334
22.64000 25.503
22.68000 22.342
22.72000 17.228
22.76000 16.018
22.80000 19.261
22.84000 14.234
22.88000 27.404
22.92000 17.169
22.96000 10.109
23.00000 16.202
23.04000 16.356
23.08000 18.272
23.12000 12.059
23.16000 21.223
23.20000 13.208
23.24000 11.085
23.28000 13.182
23.32000 15.282
23.36000 21.271
23.40000 9.982
23.44000 20.179
23.48000 23.194
23.52000 19.219
23.56000 24.352
23.60000 25.490
23.64000 14.131
23.68000 11.020
23.72000 17.427
23.76000 20.986
23.80000 19.317
23.84000 26.411
23.88000 20.269
23.92000 18.127
23.96000 17.077
24.00000 20.258
24.04000 28.282
24.08000 16.025
24.12000 15.189
24.16000 13.120
24.20000 19.331
24.24000 21.314
24.28000 23.534
24.32000 23.367
24.36000 19.199
24.40000 16.205
24.44000 18.095
24.48000 31.396
24.52000 19.174
24.56000 26.400
24.60000 34.473
24.64000 25.244
24.68000 25.229
24.72000 21.203
24.76000 21.282
24.80000 18.340
24.84000 31.615
24.88000 17.286
24.92000 21.181
24.96000 20.442
25.00000 18.210
25.04000 33.330
25.08000 23.456
25.12000 20.196
25.16000 9.143
25.20000 18.142
25.24000 24.430
25.28000 24.372
25.32000 33.383
25.36000 25.445
25.40000 21.474
25.44000 17.273
25.48000 27.318
25.52000 29.371
25.56000 20.254
25.60000 24.327
25.64000 17.543
25.68000 18.297
25.72000 26.574
25.76000 31.383
25.80000 36.492
25.84000 17.090
25.88000 19.231
25.92000 23.484
25.96000 21.313
26.00000 37.582
26.04000 36.632
26.08000 38.575
26.12000 21.095
26.16000 37.448
26.20000 22.248
26.24000 35.407
26.28000 28.265
26.32000 25.284
26.36000 36.486
26.40000 33.398
26.44000 28.116
26.48000 31.359
26.52000 29.277
26.56000 33.619
26.60000 23.342
26.64000 37.412
26.68000 44.573
26.72000 26.310
26.76000 27.685
26.80000 31.613
26.84000 33.396
26.88000 23.270
26.92000 39.563
26.96000 28.583
27.00000 41.681
27.04000 29.547
27.08000 37.425
27.12000 41.486
27.16000 42.613
27.20000 31.435
27.24000 39.731
27.28000 37.455
27.32000 26.442
27.36000 42.689
27.40000 21.179
27.44000 24.073
27.48000 26.338
27.52000 31.418
27.56000 34.230
27.60000 41.864
27.64000 47.972
27.68000 40.483
27.72000 36.610
27.76000 53.883
27.80000 35.805
27.84000 28.466
27.88000 33.423
27.92000 29.527
27.96000 32.153
28.00000 34.559
28.04000 40.392
28.08000 39.530
28.12000 39.648
28.16000 22.307
28.20000 36.317
28.24000 32.563
28.28000 44.622
28.32000 45.756
28.36000 32.334
28.40000 32.529
28.44000 45.852
28.48000 36.553
28.52000 31.368
28.56000 34.274
28.60000 43.651
28.64000 35.339
28.68000 39.519
28.72000 30.273
28.76000 33.090
28.80000 33.480
28.84000 33.386
28.88000 28.413
28.92000 29.400
28.96000 31.388
29.00000 24.141
29.04000 38.564
29.08000 36.450
29.12000 37.360
29.16000 23.191
29.20000 40.485
29.24000 30.446
29.28000 37.763
29.32000 32.675
29.36000 33.387
29.40000 30.650
29.44000 41.481
29.48000 43.421
29.52000 33.287
29.56000 35.389
29.60000 37.526
29.64000 34.244
29.68000 29.251
29.72000 28.574
29.76000 40.793
29.80000 26.423
29.84000 39.504
29.88000 27.210
29.92000 33.507
29.96000 23.219
30.00000 23.086
30.04000 33.566
30.08000 20.278
30.12000 22.090
30.16000 25.367
30.20000 24.361
30.24000 26.213
30.28000 20.151
30.32000 34.813
30.36000 23.384
30.40000 30.341
30.44000 27.348
30.48000 30.569
30.52000 26.261
30.56000 26.272
30.60000 20.156
30.64000 25.275
30.68000 31.289
30.72000 23.237
30.76000 22.242
30.80000 14.238
30.84000 20.346
30.88000 26.378
30.92000 23.387
30.96000 22.382
31.00000 19.306
31.04000 19.232
31.08000 12.107
31.12000 17.139
31.16000 31.490
31.20000 16.383
31.24000 26.225
31.28000 34.483
31.32000 21.301
31.36000 20.202
31.40000 17.176
31.44000 16.192
31.48000 18.258
31.52000 17.348
31.56000 19.201
31.60000 22.257
31.64000 15.301
31.68000 31.538
31.72000 24.424
31.76000 12.135
31.80000 22.245
31.84000 16.158
31.88000 15.266
31.92000 20.197
31.96000 16.274
32.00000 13.270
32.04000 24.284
32.08000 15.351
32.12000 18.099
32.16000 15.063
32.20000 9.101
32.24000 20.272
32.28000 22.363
32.32000 15.093
32.36000 11.158
32.40000 14.168
32.44000 13.076
32.48000 23.317
32.52000 22.333
32.56000 17.162
32.60000 13.171
32.64000 16.137
32.68000 19.313
32.72000 15.344
32.76000 14.147
32.80000 9.241
32.84000 11.278
32.88000 14.123
32.92000 20.172
32.96000 15.313
33.00000 15.248
33.04000 15.087
33.08000 13.120
33.12000 18.488
33.16000 25.256
33.20000 10.122
33.24000 10.085
33.28000 9.144
33.32000 14.256
33.36000 16.222
33.40000 14.247
33.44000 9.112
33.48000 12.266
33.52000 12.229
33.56000 14.184
33.60000 19.080
33.64000 14.200
33.68000 9.034
33.72000 10.046
33.76000 12.286
33.80000 11.047
33.84000 8.032
33.88000 14.292
33.92000 12.354
33.96000 15.136
34.00000 9.048
34.04000 9.064
34.08000 12.135
34.12000 13.082
34.16000 14.158
34.20000 14.169
34.24000 11.189
34.28000 19.399
34.32000 8.052
34.36000 12.068
34.40000 12.170
34.44000 12.104
34.48000 13.255
34.52000 16.157
34.56000 9.120
34.60000 9.278
34.64000 10.181
34.68000 11.160
34.72000 14.177
34.76000 10.216
34.80000 6.131
34.84000 11.122
34.88000 20.393
34.92000 15.288
34.96000 4.039
35.00000 13.164
35.04000 13.249
35.08000 10.191
35.12000 12.230
35.16000 8.110
35.20000 11.097
35.24000 7.012
35.28000 16.369
35.32000 14.266
35.36000 7.085
35.40000 11.081
35.44000 7.123
35.48000 11.240
35.52000 14.224
35.56000 13.126
35.60000 7.070
35.64000 13.135
35.68000 9.049
35.72000 10.940
35.76000 6.082
35.80000 13.046
35.84000 12.299
35.88000 16.230
35.92000 7.938
35.96000 10.136
36.00000 13.163
36.04000 16.194
36.08000 11.171
36.12000 10.252
36.16000 18.080
36.20000 13.290
36.24000 8.998
36.28000 15.216
36.32000 8.009
36.36000 10.105
36.40000 9.142
36.44000 10.201
36.48000 8.131
36.52000 5.989
36.56000 11.074
36.60000 13.100
36.64000 8.045
36.68000 10.243
36.72000 15.280
36.76000 12.158
36.80000 6.078
36.84000 6.190
36.88000 19.374
36.92000 8.229
36.96000 13.179
37.00000 16.194
37.04000 19.192
37.08000 10.015
37.12000 10.166
37.16000 9.213
37.20000 11.118
37.24000 17.244
37.28000 13.060
37.32000 16.436
37.36000 18.068
37.40000 6.067
37.44000 14.339
37.48000 17.261
37.52000 9.264
37.56000 14.220
37.60000 9.120
37.64000 13.194
37.68000 17.229
37.72000 17.264
37.76000 7.154
37.80000 15.257
37.84000 10.150
37.88000 21.310
37.92000 8.147
37.96000 9.098
38.00000 13.039
38.04000 11.163
38.08000 14.284
38.12000 6.967
38.16000 7.105
38.20000 12.143
38.24000 16.186
38.28000 13.227
38.32000 16.337
38.36000 15.955
38.40000 11.075
38.44000 8.064
38.48000 14.147
38.52000 17.099
38.56000 15.105
38.60000 11.256
38.64000 17.341
38.68000 8.150
38.72000 16.285
38.76000 15.001
38.80000 14.172
38.84000 14.088
38.88000 6.001
38.92000 13.113
38.96000 17.210
39.00000 18.149
39.04000 12.171
39.08000 12.226
39.12000 12.045
39.16000 10.194
39.20000 16.215
39.24000 19.283
39.28000 15.360
39.32000 13.463
39.36000 13.166
39.40000 9.210
39.44000 16.351
39.48000 7.020
39.52000 15.166
39.56000 8.074
39.60000 9.102
39.64000 9.121
39.68000 14.243
39.72000 18.297
39.76000 11.099
39.80000 16.098
39.84000 10.202
39.88000 16.171
39.92000 19.334
39.96000 14.348
40.00000 12.162
40.04000 13.911
40.08000 8.165
40.12000 6.101
40.16000 17.222
40.20000 20.433
40.24000 7.046
40.28000 8.164
40.32000 12.270
40.36000 13.118
40.40000 8.079
40.44000 16.094
40.48000 17.206
40.52000 17.279
40.56000 13.011
40.60000 14.053
40.64000 12.125
40.68000 16.228
40.72000 18.254
40.76000 14.282
40.80000 19.176
40.84000 19.407
40.88000 12.308
40.92000 12.076
40.96000 16.211
41.00000 12.207
41.04000 13.017
41.08000 12.160
41.12000 20.407
41.16000 13.394
41.20000 17.346
41.24000 3.985
41.28000 18.084
41.32000 16.194
41.36000 19.556
41.40000 15.201
41.44000 12.216
41.48000 15.274
41.52000 14.083
41.56000 16.257
41.60000 18.246
41.64000 26.444
41.68000 10.053
41.72000 13.254
41.76000 12.165
41.80000 14.004
41.84000 19.370
41.88000 19.202
41.92000 13.042
41.96000 19.105
42.00000 17.267
42.04000 13.101
42.08000 17.264
42.12000 13.177
42.16000 17.317
42.20000 12.148
42.24000 11.286
42.28000 11.137
42.32000 9.287
42.36000 14.359
42.40000 17.478
42.44000 19.456
42.48000 20.215
42.52000 12.201
42.56000 23.291
42.60000 9.983
42.64000 15.172
42.68000 13.219
42.72000 9.109
42.76000 21.158
42.80000 13.288
42.84000 10.105
42.88000 10.182
42.92000 27.185
42.96000 14.197
43.00000 19.387
43.04000 16.404
43.08000 16.283
43.12000 16.091
43.16000 16.292
43.20000 12.234
43.24000 13.053
43.28000 13.127
43.32000 13.222
43.36000 19.313
43.40000 18.128
43.44000 15.424
43.48000 16.247
43.52000 21.334
43.56000 11.098
43.60000 12.245
43.64000 9.280
43.68000 16.240
43.72000 11.041
43.76000 15.250
43.80000 10.085
43.84000 9.141
43.88000 14.238
43.92000 18.307
43.96000 13.176
44.00000 10.137
44.04000 13.150
44.08000 13.122
44.12000 20.378
44.16000 16.166
44.20000 13.161
44.24000 13.170
44.28000 9.125
44.32000 12.262
44.36000 8.066
44.40000 15.181
44.44000 16.300
44.48000 11.095
44.52000 24.322
44.56000 26.251
44.60000 8.027
44.64000 13.172
44.68000 9.189
44.72000 10.166
44.76000 20.253
44.80000 16.090
44.84000 15.346
44.88000 17.449
44.92000 16.010
44.96000 18.215
45.00000 20.346
45.04000 10.069
45.08000 10.056
45.12000 15.263
45.16000 11.266
45.20000 13.138
45.24000 14.207
45.28000 19.399
45.32000 11.134
45.36000 14.271
45.40000 18.266
45.44000 14.300
45.48000 13.247
45.52000 20.212
45.56000 17.272
45.60000 11.022
45.64000 19.159
45.68000 17.132
45.72000 11.183
45.76000 18.268
45.80000 11.124
45.84000 13.093
45.88000 21.241
45.92000 13.286
45.96000 12.087
46.00000 13.128
46.04000 20.227
46.08000 11.159
46.12000 17.259
46.16000 16.268
46.20000 17.348
46.24000 13.087
46.28000 14.182
46.32000 14.012
46.36000 17.238
46.40000 13.029
46.44000 12.219
46.48000 14.096
46.52000 14.225
46.56000 10.171
46.60000 20.247
46.64000 18.421
46.68000 9.037
46.72000 17.302
46.76000 14.131
46.80000 9.085
46.84000 12.117
46.88000 11.020
46.92000 16.330
46.96000 18.122
47.00000 15.181
47.04000 17.085
47.08000 12.339
47.12000 10.077
47.16000 16.229
47.20000 14.427
47.24000 8.070
47.28000 12.134
47.32000 15.266
47.36000 16.956
47.40000 13.279
47.44000 13.267
47.48000 15.180
47.52000 14.162
47.56000 16.128
47.60000 12.132
47.64000 14.425
47.68000 12.297
47.72000 10.046
47.76000 15.184
47.80000 12.112
47.84000 5.098
47.88000 10.169
47.92000 15.164
47.96000 16.177
48.00000 11.242
48.04000 14.135
48.08000 11.135
48.12000 11.198
48.16000 11.050
48.20000 8.056
48.24000 21.256
48.28000 12.024
48.32000 14.202
48.36000 17.243
48.40000 9.040
48.44000 15.149
48.48000 17.136
48.52000 7.094
48.56000 12.301
48.60000 13.042
48.64000 13.197
48.68000 12.279
48.72000 14.170
48.76000 9.227
48.80000 16.242
48.84000 12.027
48.88000 11.201
48.92000 8.061
48.96000 16.291
49.00000 14.149
49.04000 18.247
49.08000 12.028
49.12000 10.266
49.16000 12.353
49.20000 18.339
49.24000 18.257
49.28000 15.251
49.32000 14.164
49.36000 12.161
49.40000 12.960
49.44000 18.132
49.48000 9.150
49.52000 12.162
49.56000 10.192
49.60000 13.146
49.64000 5.166
49.68000 11.102
49.72000 14.117
49.76000 18.308
49.80000 15.243
49.84000 20.280
49.88000 15.111
49.92000 11.092
49.96000 12.215
50.00000 16.353
50.04000 16.345
50.08000 12.262
50.12000 7.070
50.16000 6.060
50.20000 20.368
50.24000 7.011
50.28000 13.179
50.32000 14.228
50.36000 11.139
50.40000 8.105
50.44000 12.190
50.48000 18.299
50.52000 14.132
50.56000 16.379
50.60000 12.109
50.64000 20.203
50.68000 10.178
50.72000 9.044
50.76000 14.073
50.80000 10.100
50.84000 9.107
50.88000 11.023
50.92000 7.100
50.96000 12.173
51.00000 18.134
51.04000 11.145
51.08000 9.083
51.12000 13.224
51.16000 15.190
51.20000 11.281
51.24000 15.237
51.28000 10.100
51.32000 10.154
51.36000 16.354
51.40000 9.213
51.44000 13.262
51.48000 13.306
51.52000 9.065
51.56000 14.022
51.60000 7.046
51.64000 8.131
51.68000 4.021
51.72000 12.191
51.76000 9.115
51.80000 16.107
51.84000 12.249
51.88000 11.225
51.92000 17.136
51.96000 10.157
52.00000 11.325
52.04000 6.909
52.08000 11.128
52.12000 11.087
52.16000 10.199
52.20000 10.034
52.24000 12.036
52.28000 11.225
52.32000 10.128
52.36000 13.164
52.40000 8.157
52.44000 15.481
52.48000 17.225
52.52000 11.182
52.56000 11.085
52.60000 9.257
52.64000 12.330
52.68000 15.337
52.72000 16.177
52.76000 7.165
52.80000 11.120
52.84000 17.155
52.88000 9.113
52.92000 10.209
52.96000 12.101
53.00000 9.056
53.04000 13.176
53.08000 7.182
53.12000 10.121
53.16000 12.190
53.20000 12.136
53.24000 12.093
53.28000 10.102
53.32000 10.076
53.36000 11.078
53.40000 16.370
53.44000 9.042
53.48000 9.167
53.52000 12.225
53.56000 12.078
53.60000 10.115
53.64000 10.231
53.68000 14.144
53.72000 14.304
53.76000 9.367
53.80000 15.264
53.84000 9.151
53.88000 9.097
53.92000 13.170
53.96000 7.090
54.00000 9.300
54.04000 13.153
54.08000 11.252
54.12000 12.244
54.16000 7.015
54.20000 8.136
54.24000 12.191
54.28000 15.173
54.32000 7.124
54.36000 11.167
54.40000 11.063
54.44000 10.218
54.48000 8.013
54.52000 5.036
54.56000 9.314
54.60000 6.028
54.64000 11.173
54.68000 5.192
54.72000 14.013
54.76000 4.018
54.80000 7.071
54.84000 15.304
54.88000 11.098
54.92000 15.225
54.96000 12.217
55.00000 10.166
55.04000 6.104
55.08000 9.175
55.12000 6.224
55.16000 7.062
55.20000 7.034
55.24000 7.108
55.28000 11.243
55.32000 8.096
55.36000 9.098
55.40000 8.060
55.44000 14.281
55.48000 12.133
55.52000 10.175
55.56000 14.359
55.60000 11.239
55.64000 5.986
55.68000 13.245
55.72000 11.135
55.76000 11.034
55.80000 9.070
55.84000 10.157
55.88000 11.070
55.92000 14.228
55.96000 11.124
56.00000 8.061
56.04000 11.220
56.08000 11.168
56.12000 11.227
56.16000 6.992
56.20000 14.153
56.24000 10.235
56.28000 8.100
56.32000 14.150
56.36000 10.042
56.40000 7.191
56.44000 14.219
56.48000 1.032
56.52000 11.055
56.56000 8.140
56.60000 13.166
56.64000 7.130
56.68000 6.203
56.72000 17.241
56.76000 11.087
56.80000 7.046
56.84000 2.962
56.88000 8.258
56.92000 12.044
56.96000 7.278
57.00000 6.082
57.04000 11.127
57.08000 8.184
57.12000 7.045
57.16000 10.077
57.20000 10.202
57.24000 11.243
57.28000 6.994
57.32000 7.124
57.36000 8.090
57.40000 6.057
57.44000 5.090
57.48000 6.090
57.52000 11.112
57.56000 9.122
57.60000 11.117
57.64000 8.036
57.68000 8.121
57.72000 9.160
57.76000 13.107
57.80000 8.151
57.84000 7.250
57.88000 8.053
57.92000 4.117
57.96000 7.070
58.00000 7.161
58.04000 5.178
58.08000 8.152
58.12000 10.209
58.16000 7.181
58.20000 16.286
58.24000 4.066
58.28000 10.075
58.32000 12.268
58.36000 5.119
58.40000 10.107
58.44000 9.028
58.48000 12.097
58.52000 9.134
58.56000 10.125
58.60000 3.991
58.64000 8.223
58.68000 8.236
58.72000 5.066
58.76000 7.074
58.80000 13.162
58.84000 12.129
58.88000 7.122
58.92000 7.136
58.96000 9.028
59.00000 10.065
59.04000 7.018
59.08000 6.055
59.12000 8.057
59.16000 11.162
59.20000 9.056
59.24000 6.096
59.28000 8.226
59.32000 8.039
59.36000 5.223
59.40000 6.134
59.44000 5.040
59.48000 6.094
59.52000 8.010
59.56000 7.177
59.60000 10.018
59.64000 11.982
59.68000 6.070
59.72000 7.024
59.76000 5.077
59.80000 11.098
59.84000 8.096
59.88000 9.168
59.92000 6.048
59.96000 11.176
60.00000 5.013
60.04000 13.097
60.08000 7.154
60.12000 11.194
60.16000 10.099
60.20000 7.040
60.24000 3.045
60.28000 5.135
60.32000 2.982
60.36000 4.028
60.40000 12.272
60.44000 2.058
60.48000 5.019
60.52000 10.071
60.56000 7.030
60.60000 12.115
60.64000 12.006
60.68000 6.192
60.72000 6.106
60.76000 5.137
60.80000 9.101
60.84000 7.198
60.88000 11.126
60.92000 11.110
60.96000 8.040
61.00000 9.046
61.04000 10.226
61.08000 5.111
61.12000 4.027
61.16000 8.110
61.20000 5.987
61.24000 11.077
61.28000 8.061
61.32000 8.066
61.36000 4.025
61.40000 8.054
61.44000 7.115
61.48000 13.057
61.52000 7.111
61.56000 9.070
61.60000 10.063
61.64000 5.076
61.68000 6.079
61.72000 6.185
61.76000 6.088
61.80000 7.113
61.84000 8.135
61.88000 5.058
61.92000 8.127
61.96000 6.240
62.00000 7.004
62.04000 8.047
62.08000 5.066
62.12000 5.175
62.16000 7.101
62.20000 7.037
62.24000 8.226
62.28000 7.180
62.32000 8.222
62.36000 3.072
62.40000 9.206
62.44000 8.014
62.48000 8.110
62.52000 9.154
62.56000 5.189
62.60000 7.033
62.64000 7.238
62.68000 3.059
62.72000 1.044
62.76000 11.169
62.80000 6.000
62.84000 6.100
62.88000 9.083
62.92000 9.994
62.96000 3.051
63.00000 7.200
63.04000 11.081
63.08000 5.054
63.12000 9.181
63.16000 8.187
63.20000 7.131
63.24000 10.150
63.28000 8.129
63.32000 6.140
63.36000 9.055
63.40000 8.041
63.44000 2.954
63.48000 6.035
63.52000 5.010
63.56000 6.172
63.60000 6.063
63.64000 1.026
63.68000 7.125
63.72000 4.027
63.76000 3.034
63.80000 1.985
63.84000 5.012
63.88000 3.986
63.92000 7.052
63.96000 10.113
64.00000 9.225
64.04000 4.150
64.08000 11.187
64.12000 8.116
64.16000 6.218
64.20000 6.123
64.24000 5.053
64.28000 11.082
64.32000 5.217
64.36000 4.032
64.40000 5.037
64.44000 4.984
64.48000 7.041
64.52000 2.104
64.56000 7.143
64.60000 8.126
64.64000 4.042
64.68000 3.001
64.72000 4.079
64.76000 6.014
64.80000 7.077
64.84000 7.214
64.88000 10.067
64.92000 5.041
64.96000 3.986
65.00000 6.037