File: XRD/XRD/11-09-2025/XY Data/01092025_BTO_omega_0_5_001_03_37-500_0-000.xy
20.00000 14.192
20.04000 15.305
20.08000 14.260
20.12000 16.134
20.16000 20.623
20.20000 18.215
20.24000 14.153
20.28000 6.030
20.32000 9.040
20.36000 18.220
20.40000 13.272
20.44000 11.079
20.48000 21.380
20.52000 7.153
20.56000 8.091
20.60000 10.125
20.64000 8.983
20.68000 11.147
20.72000 13.111
20.76000 12.163
20.80000 20.226
20.84000 16.322
20.88000 20.080
20.92000 23.417
20.96000 18.307
21.00000 15.113
21.04000 13.193
21.08000 16.268
21.12000 16.233
21.16000 22.254
21.20000 14.125
21.24000 16.442
21.28000 17.329
21.32000 20.077
21.36000 12.175
21.40000 13.131
21.44000 11.181
21.48000 14.191
21.52000 14.120
21.56000 10.145
21.60000 13.220
21.64000 19.535
21.68000 6.021
21.72000 16.106
21.76000 12.161
21.80000 10.083
21.84000 14.200
21.88000 18.275
21.92000 21.278
21.96000 14.399
22.00000 11.126
22.04000 10.078
22.08000 13.147
22.12000 18.192
22.16000 14.357
22.20000 11.012
22.24000 11.101
22.28000 14.201
22.32000 16.278
22.36000 21.033
22.40000 17.299
22.44000 9.004
22.48000 12.260
22.52000 19.316
22.56000 5.989
22.60000 19.154
22.64000 15.155
22.68000 18.084
22.72000 13.250
22.76000 17.575
22.80000 11.144
22.84000 12.191
22.88000 9.036
22.92000 15.136
22.96000 13.161
23.00000 22.200
23.04000 11.159
23.08000 18.311
23.12000 21.309
23.16000 25.455
23.20000 18.233
23.24000 16.119
23.28000 20.351
23.32000 16.151
23.36000 15.348
23.40000 16.146
23.44000 8.206
23.48000 18.137
23.52000 13.084
23.56000 14.183
23.60000 10.166
23.64000 14.126
23.68000 17.092
23.72000 18.295
23.76000 17.135
23.80000 18.485
23.84000 21.338
23.88000 17.159
23.92000 17.259
23.96000 15.354
24.00000 15.219
24.04000 22.357
24.08000 11.989
24.12000 20.470
24.16000 17.244
24.20000 16.321
24.24000 13.153
24.28000 9.117
24.32000 15.116
24.36000 18.442
24.40000 26.258
24.44000 19.220
24.48000 21.248
24.52000 20.119
24.56000 17.042
24.60000 24.319
24.64000 15.065
24.68000 18.136
24.72000 14.371
24.76000 15.366
24.80000 18.117
24.84000 14.389
24.88000 19.044
24.92000 22.243
24.96000 17.257
25.00000 20.257
25.04000 16.322
25.08000 17.202
25.12000 20.321
25.16000 25.552
25.20000 23.369
25.24000 21.145
25.28000 27.465
25.32000 26.360
25.36000 24.375
25.40000 16.258
25.44000 21.304
25.48000 15.114
25.52000 23.254
25.56000 20.322
25.60000 22.277
25.64000 26.280
25.68000 14.185
25.72000 21.355
25.76000 21.284
25.80000 20.091
25.84000 22.353
25.88000 21.241
25.92000 17.318
25.96000 27.443
26.00000 25.323
26.04000 29.454
26.08000 19.185
26.12000 20.285
26.16000 26.378
26.20000 21.183
26.24000 22.225
26.28000 21.318
26.32000 35.474
26.36000 25.507
26.40000 21.258
26.44000 17.345
26.48000 31.359
26.52000 17.216
26.56000 31.473
26.60000 29.391
26.64000 22.369
26.68000 27.077
26.72000 25.144
26.76000 19.262
26.80000 24.320
26.84000 22.203
26.88000 21.407
26.92000 28.671
26.96000 42.706
27.00000 27.314
27.04000 23.328
27.08000 27.388
27.12000 27.353
27.16000 27.432
27.20000 24.273
27.24000 28.197
27.28000 18.144
27.32000 21.167
27.36000 24.517
27.40000 26.155
27.44000 26.238
27.48000 28.425
27.52000 30.288
27.56000 36.538
27.60000 30.243
27.64000 32.354
27.68000 29.510
27.72000 20.284
27.76000 28.436
27.80000 21.301
27.84000 39.242
27.88000 37.560
27.92000 23.238
27.96000 25.258
28.00000 28.376
28.04000 26.355
28.08000 34.805
28.12000 26.404
28.16000 25.487
28.20000 22.351
28.24000 29.598
28.28000 21.250
28.32000 28.533
28.36000 25.369
28.40000 27.334
28.44000 30.469
28.48000 26.227
28.52000 19.234
28.56000 23.256
28.60000 19.210
28.64000 26.293
28.68000 20.397
28.72000 30.412
28.76000 35.522
28.80000 18.339
28.84000 31.334
28.88000 30.336
28.92000 24.193
28.96000 21.162
29.00000 30.600
29.04000 19.105
29.08000 26.504
29.12000 35.506
29.16000 24.453
29.20000 16.276
29.24000 35.471
29.28000 30.205
29.32000 25.340
29.36000 16.077
29.40000 19.214
29.44000 20.292
29.48000 21.461
29.52000 20.160
29.56000 19.196
29.60000 21.213
29.64000 21.259
29.68000 20.196
29.72000 23.273
29.76000 19.324
29.80000 22.567
29.84000 25.488
29.88000 17.233
29.92000 19.238
29.96000 24.424
30.00000 24.286
30.04000 23.243
30.08000 14.113
30.12000 21.133
30.16000 18.045
30.20000 20.413
30.24000 25.299
30.28000 17.359
30.32000 16.197
30.36000 10.144
30.40000 17.149
30.44000 15.088
30.48000 20.253
30.52000 15.444
30.56000 17.385
30.60000 19.161
30.64000 14.132
30.68000 20.191
30.72000 20.256
30.76000 12.170
30.80000 20.164
30.84000 15.205
30.88000 24.387
30.92000 14.350
30.96000 15.212
31.00000 14.267
31.04000 21.238
31.08000 12.248
31.12000 23.156
31.16000 12.152
31.20000 20.447
31.24000 14.184
31.28000 16.066
31.32000 13.196
31.36000 14.189
31.40000 15.081
31.44000 9.242
31.48000 15.163
31.52000 16.149
31.56000 13.172
31.60000 11.155
31.64000 19.312
31.68000 17.189
31.72000 19.129
31.76000 7.042
31.80000 12.174
31.84000 12.182
31.88000 13.147
31.92000 5.117
31.96000 9.009
32.00000 13.302
32.04000 12.231
32.08000 17.043
32.12000 11.118
32.16000 13.178
32.20000 10.099
32.24000 9.193
32.28000 18.178
32.32000 15.975
32.36000 17.217
32.40000 16.187
32.44000 16.245
32.48000 10.077
32.52000 16.330
32.56000 15.105
32.60000 13.037
32.64000 8.214
32.68000 10.256
32.72000 8.047
32.76000 11.234
32.80000 12.210
32.84000 9.072
32.88000 12.293
32.92000 14.352
32.96000 15.125
33.00000 4.098
33.04000 15.211
33.08000 11.140
33.12000 11.144
33.16000 12.097
33.20000 12.096
33.24000 7.087
33.28000 6.067
33.32000 9.166
33.36000 11.037
33.40000 14.121
33.44000 3.026
33.48000 8.106
33.52000 8.012
33.56000 8.049
33.60000 5.019
33.64000 9.146
33.68000 7.162
33.72000 6.049
33.76000 14.285
33.80000 12.106
33.84000 9.206
33.88000 7.058
33.92000 11.124
33.96000 15.206
34.00000 8.078
34.04000 5.025
34.08000 12.073
34.12000 7.159
34.16000 12.097
34.20000 14.375
34.24000 7.104
34.28000 6.057
34.32000 8.069
34.36000 3.999
34.40000 14.000
34.44000 10.047
34.48000 6.043
34.52000 14.093
34.56000 9.066
34.60000 9.129
34.64000 7.105
34.68000 8.074
34.72000 7.088
34.76000 5.076
34.80000 6.082
34.84000 8.200
34.88000 8.158
34.92000 7.059
34.96000 10.143
35.00000 9.063
35.04000 12.126
35.08000 13.124
35.12000 3.061
35.16000 9.069
35.20000 4.121
35.24000 6.088
35.28000 11.116
35.32000 8.101
35.36000 12.032
35.40000 18.152
35.44000 6.035
35.48000 3.988
35.52000 9.032
35.56000 5.055
35.60000 12.090
35.64000 8.153
35.68000 4.135
35.72000 5.978
35.76000 8.143
35.80000 12.042
35.84000 8.067
35.88000 11.264
35.92000 11.109
35.96000 12.086
36.00000 2.996
36.04000 7.103
36.08000 7.997
36.12000 9.209
36.16000 14.157
36.20000 7.969
36.24000 7.231
36.28000 9.163
36.32000 10.149
36.36000 11.201
36.40000 3.026
36.44000 6.166
36.48000 10.215
36.52000 7.967
36.56000 9.129
36.60000 13.358
36.64000 3.962
36.68000 8.002
36.72000 5.995
36.76000 8.044
36.80000 5.075
36.84000 5.059
36.88000 4.074
36.92000 9.934
36.96000 9.072
37.00000 10.106
37.04000 9.037
37.08000 16.280
37.12000 5.032
37.16000 7.138
37.20000 8.207
37.24000 12.121
37.28000 10.132
37.32000 8.153
37.36000 6.964
37.40000 10.023
37.44000 9.094
37.48000 8.054
37.52000 17.182
37.56000 10.285
37.60000 5.057
37.64000 7.064
37.68000 9.143
37.72000 9.189
37.76000 5.071
37.80000 11.074
37.84000 12.256
37.88000 6.079
37.92000 8.106
37.96000 4.033
38.00000 7.175
38.04000 8.086
38.08000 8.076
38.12000 13.147
38.16000 9.172
38.20000 9.002
38.24000 11.130
38.28000 9.207
38.32000 13.016
38.36000 13.238
38.40000 5.098
38.44000 8.150
38.48000 11.134
38.52000 9.122
38.56000 8.165
38.60000 9.086
38.64000 9.073
38.68000 6.091
38.72000 7.032
38.76000 14.171
38.80000 3.009
38.84000 6.091
38.88000 6.947
38.92000 7.135
38.96000 13.186
39.00000 9.168
39.04000 5.064
39.08000 16.181
39.12000 6.011
39.16000 10.052
39.20000 2.004
39.24000 8.133
39.28000 8.160
39.32000 9.997
39.36000 11.202
39.40000 9.131
39.44000 9.057
39.48000 3.118
39.52000 9.164
39.56000 3.038
39.60000 12.163
39.64000 7.136
39.68000 13.306
39.72000 6.122
39.76000 12.034
39.80000 8.112
39.84000 12.169
39.88000 8.112
39.92000 15.118
39.96000 11.136
40.00000 4.064
40.04000 6.020
40.08000 8.161
40.12000 6.004
40.16000 5.088
40.20000 10.125
40.24000 10.115
40.28000 10.075
40.32000 6.195
40.36000 7.033
40.40000 6.143
40.44000 9.142
40.48000 6.013
40.52000 6.117
40.56000 8.144
40.60000 11.238
40.64000 13.145
40.68000 12.195
40.72000 12.189
40.76000 10.219
40.80000 12.081
40.84000 8.184
40.88000 11.259
40.92000 4.039
40.96000 10.053
41.00000 6.034
41.04000 6.060
41.08000 11.098
41.12000 10.143
41.16000 10.065
41.20000 13.239
41.24000 4.021
41.28000 9.159
41.32000 7.041
41.36000 7.093
41.40000 13.157
41.44000 13.078
41.48000 5.036
41.52000 8.214
41.56000 9.179
41.60000 5.092
41.64000 11.176
41.68000 16.330
41.72000 9.195
41.76000 9.024
41.80000 7.155
41.84000 11.175
41.88000 5.108
41.92000 10.200
41.96000 11.160
42.00000 13.121
42.04000 11.139
42.08000 3.140
42.12000 9.206
42.16000 8.141
42.20000 9.202
42.24000 9.923
42.28000 11.031
42.32000 18.016
42.36000 5.988
42.40000 3.002
42.44000 15.213
42.48000 10.087
42.52000 10.203
42.56000 7.991
42.60000 12.136
42.64000 11.051
42.68000 12.250
42.72000 7.002
42.76000 7.149
42.80000 8.053
42.84000 9.945
42.88000 8.157
42.92000 9.154
42.96000 7.013
43.00000 9.250
43.04000 7.099
43.08000 12.175
43.12000 16.252
43.16000 6.083
43.20000 6.990
43.24000 11.316
43.28000 3.956
43.32000 8.220
43.36000 8.158
43.40000 5.048
43.44000 12.065
43.48000 3.004
43.52000 7.113
43.56000 8.124
43.60000 6.145
43.64000 6.989
43.68000 10.211
43.72000 8.041
43.76000 7.009
43.80000 10.071
43.84000 4.124
43.88000 8.066
43.92000 10.107
43.96000 7.053
44.00000 6.037
44.04000 9.117
44.08000 10.141
44.12000 10.113
44.16000 7.096
44.20000 7.247
44.24000 6.092
44.28000 10.242
44.32000 12.142
44.36000 11.248
44.40000 11.306
44.44000 11.160
44.48000 13.994
44.52000 8.044
44.56000 8.099
44.60000 5.027
44.64000 11.263
44.68000 15.374
44.72000 10.144
44.76000 10.050
44.80000 12.174
44.84000 7.227
44.88000 13.154
44.92000 14.063
44.96000 8.979
45.00000 1.060
45.04000 11.211
45.08000 9.090
45.12000 4.068
45.16000 9.077
45.20000 9.117
45.24000 8.067
45.28000 15.149
45.32000 8.114
45.36000 13.112
45.40000 9.111
45.44000 13.201
45.48000 11.078
45.52000 3.073
45.56000 12.056
45.60000 8.174
45.64000 5.101
45.68000 8.008
45.72000 5.133
45.76000 11.278
45.80000 12.169
45.84000 9.063
45.88000 10.141
45.92000 12.230
45.96000 10.157
46.00000 12.152
46.04000 9.093
46.08000 5.113
46.12000 11.070
46.16000 8.128
46.20000 15.020
46.24000 6.177
46.28000 9.101
46.32000 5.065
46.36000 11.175
46.40000 9.210
46.44000 7.126
46.48000 11.051
46.52000 8.154
46.56000 15.220
46.60000 6.117
46.64000 8.113
46.68000 5.110
46.72000 7.132
46.76000 9.049
46.80000 10.056
46.84000 9.188
46.88000 6.140
46.92000 9.092
46.96000 4.072
47.00000 11.054
47.04000 12.142
47.08000 7.038
47.12000 8.167
47.16000 6.079
47.20000 8.238
47.24000 8.224
47.28000 3.012
47.32000 8.017
47.36000 14.124
47.40000 13.372
47.44000 7.027
47.48000 13.099
47.52000 10.198
47.56000 7.077
47.60000 7.148
47.64000 10.166
47.68000 12.082
47.72000 11.141
47.76000 13.188
47.80000 6.082
47.84000 4.051
47.88000 8.074
47.92000 2.957
47.96000 13.229
48.00000 8.185
48.04000 3.995
48.08000 8.019
48.12000 11.116
48.16000 11.290
48.20000 9.068
48.24000 9.134
48.28000 8.070
48.32000 15.233
48.36000 6.170
48.40000 3.955
48.44000 10.318
48.48000 4.985
48.52000 9.194
48.56000 6.094
48.60000 5.016
48.64000 7.081
48.68000 3.013
48.72000 8.102
48.76000 8.198
48.80000 7.098
48.84000 9.117
48.88000 5.085
48.92000 5.028
48.96000 6.004
49.00000 7.045
49.04000 10.191
49.08000 5.062
49.12000 7.081
49.16000 5.090
49.20000 4.040
49.24000 5.037
49.28000 6.147
49.32000 6.101
49.36000 10.127
49.40000 10.014
49.44000 9.090
49.48000 5.147
49.52000 7.117
49.56000 13.162
49.60000 5.079
49.64000 10.263
49.68000 5.098
49.72000 9.027
49.76000 5.069
49.80000 2.009
49.84000 5.082
49.88000 3.032
49.92000 13.153
49.96000 10.093
50.00000 4.027
50.04000 5.068
50.08000 6.049
50.12000 11.175
50.16000 9.108
50.20000 3.141
50.24000 10.172
50.28000 11.152
50.32000 7.032
50.36000 3.071
50.40000 6.035
50.44000 3.069
50.48000 8.057
50.52000 13.314
50.56000 11.185
50.60000 8.038
50.64000 6.116
50.68000 1.951
50.72000 8.119
50.76000 6.010
50.80000 4.115
50.84000 8.144
50.88000 7.060
50.92000 4.068
50.96000 7.125
51.00000 10.057
51.04000 9.147
51.08000 9.199
51.12000 4.056
51.16000 8.116
51.20000 5.085
51.24000 8.204
51.28000 9.099
51.32000 9.114
51.36000 10.946
51.40000 5.116
51.44000 10.070
51.48000 6.042
51.52000 8.116
51.56000 5.980
51.60000 7.107
51.64000 5.063
51.68000 10.255
51.72000 3.099
51.76000 8.138
51.80000 11.204
51.84000 8.111
51.88000 7.117
51.92000 6.185
51.96000 7.113
52.00000 7.162
52.04000 6.107
52.08000 4.033
52.12000 4.028
52.16000 5.057
52.20000 6.177
52.24000 6.055
52.28000 8.091
52.32000 6.048
52.36000 8.129
52.40000 4.990
52.44000 7.009
52.48000 8.167
52.52000 3.995
52.56000 8.072
52.60000 6.057
52.64000 9.160
52.68000 6.092
52.72000 7.143
52.76000 11.255
52.80000 4.045
52.84000 3.020
52.88000 7.129
52.92000 4.972
52.96000 6.052
53.00000 4.976
53.04000 9.093
53.08000 3.049
53.12000 10.089
53.16000 6.054
53.20000 4.105
53.24000 5.058
53.28000 6.128
53.32000 5.064
53.36000 5.082
53.40000 11.201
53.44000 8.056
53.48000 5.158
53.52000 12.124
53.56000 8.075
53.60000 8.083
53.64000 3.071
53.68000 6.047
53.72000 9.021
53.76000 6.006
53.80000 1.984
53.84000 8.229
53.88000 8.191
53.92000 8.071
53.96000 3.053
54.00000 5.089
54.04000 7.062
54.08000 7.171
54.12000 4.052
54.16000 4.970
54.20000 11.224
54.24000 5.050
54.28000 9.243
54.32000 6.011
54.36000 9.170
54.40000 3.100
54.44000 6.085
54.48000 7.120
54.52000 8.044
54.56000 7.094
54.60000 4.094
54.64000 4.984
54.68000 9.138
54.72000 6.091
54.76000 4.062
54.80000 4.988
54.84000 11.031
54.88000 9.110
54.92000 9.171
54.96000 5.068
55.00000 7.139
55.04000 8.068
55.08000 4.108
55.12000 6.140
55.16000 6.123
55.20000 5.127
55.24000 8.105
55.28000 13.192
55.32000 3.180
55.36000 6.091
55.40000 3.027
55.44000 5.062
55.48000 5.096
55.52000 4.027
55.56000 4.076
55.60000 5.131
55.64000 2.042
55.68000 12.999
55.72000 2.001
55.76000 7.169
55.80000 5.095
55.84000 3.137
55.88000 8.212
55.92000 3.038
55.96000 7.166
56.00000 7.038
56.04000 9.210
56.08000 0.992
56.12000 11.268
56.16000 7.125
56.20000 6.051
56.24000 7.100
56.28000 4.016
56.32000 8.114
56.36000 3.007
56.40000 10.211
56.44000 7.055
56.48000 5.088
56.52000 4.022
56.56000 1.989
56.60000 4.111
56.64000 3.042
56.68000 6.986
56.72000 3.003
56.76000 3.989
56.80000 3.065
56.84000 4.009
56.88000 5.187
56.92000 7.144
56.96000 10.168
57.00000 4.037
57.04000 4.047
57.08000 3.058
57.12000 5.074
57.16000 5.057
57.20000 7.204
57.24000 1.995
57.28000 10.266
57.32000 5.024
57.36000 4.082
57.40000 7.121
57.44000 8.100
57.48000 5.012
57.52000 5.159
57.56000 6.169
57.60000 3.995
57.64000 3.082
57.68000 5.094
57.72000 4.025
57.76000 6.163
57.80000 3.951
57.84000 5.056
57.88000 6.092
57.92000 4.017
57.96000 5.151
58.00000 4.043
58.04000 3.108
58.08000 7.064
58.12000 2.049
58.16000 2.043
58.20000 7.005
58.24000 7.161
58.28000 3.042
58.32000 4.022
58.36000 5.008
58.40000 9.017
58.44000 8.035
58.48000 5.029
58.52000 3.084
58.56000 5.087
58.60000 3.077
58.64000 7.013
58.68000 5.990
58.72000 5.065
58.76000 6.033
58.80000 2.014
58.84000 4.092
58.88000 3.046
58.92000 5.080
58.96000 3.942
59.00000 4.095
59.04000 4.006
59.08000 6.068
59.12000 3.038
59.16000 5.019
59.20000 4.971
59.24000 4.040
59.28000 6.043
59.32000 7.045
59.36000 7.064
59.40000 2.967
59.44000 7.196
59.48000 6.230
59.52000 1.967
59.56000 3.038
59.60000 3.039
59.64000 3.035
59.68000 6.140
59.72000 3.976
59.76000 6.060
59.80000 1.969
59.84000 4.012
59.88000 8.056
59.92000 3.054
59.96000 6.037
60.00000 2.982
60.04000 2.050
60.08000 0.987
60.12000 2.086
60.16000 3.026
60.20000 2.984
60.24000 3.126
60.28000 5.127
60.32000 0.978
60.36000 5.172
60.40000 2.115
60.44000 0.997
60.48000 0.000
60.52000 6.155
60.56000 1.016
60.60000 2.075
60.64000 4.064
60.68000 3.003
60.72000 2.077
60.76000 2.041
60.80000 1.041
60.84000 5.213
60.88000 9.220
60.92000 9.157
60.96000 5.055
61.00000 6.123
61.04000 6.081
61.08000 3.044
61.12000 1.998
61.16000 6.138
61.20000 4.018
61.24000 8.170
61.28000 3.024
61.32000 2.097
61.36000 4.005
61.40000 3.028
61.44000 3.009
61.48000 2.054
61.52000 4.011
61.56000 1.001
61.60000 5.141
61.64000 5.089
61.68000 0.993
61.72000 1.989
61.76000 6.175
61.80000 8.208
61.84000 3.042
61.88000 2.028
61.92000 6.961
61.96000 4.126
62.00000 5.033
62.04000 4.068
62.08000 5.157
62.12000 3.133
62.16000 2.029
62.20000 4.063
62.24000 6.047
62.28000 4.019
62.32000 0.000
62.36000 0.995
62.40000 3.991
62.44000 4.024
62.48000 5.034
62.52000 4.072
62.56000 2.968
62.60000 3.073
62.64000 3.100
62.68000 2.968
62.72000 4.121
62.76000 5.999
62.80000 3.019
62.84000 3.053
62.88000 2.088
62.92000 5.120
62.96000 2.010
63.00000 4.011
63.04000 7.056
63.08000 1.011
63.12000 3.069
63.16000 3.066
63.20000 5.028
63.24000 6.123
63.28000 4.073
63.32000 4.034
63.36000 2.064
63.40000 3.994
63.44000 5.133
63.48000 5.978
63.52000 3.013
63.56000 2.019
63.60000 3.972
63.64000 3.009
63.68000 4.083
63.72000 3.050
63.76000 3.047
63.80000 1.014
63.84000 2.026
63.88000 1.027
63.92000 5.147
63.96000 3.076
64.00000 4.991
64.04000 4.118
64.08000 1.997
64.12000 7.086
64.16000 1.008
64.20000 4.113
64.24000 0.000
64.28000 6.087
64.32000 5.157
64.36000 3.021
64.40000 1.014
64.44000 2.006
64.48000 5.082
64.52000 2.068
64.56000 2.993
64.60000 5.123
64.64000 1.041
64.68000 4.054
64.72000 2.021
64.76000 1.015
64.80000 2.033
64.84000 4.030
64.88000 4.128
64.92000 6.056
64.96000 5.029
65.00000 6.079