File: XRD/XRD/11-09-2025/XY Data/01092025_BTO_omega_0_5_001_12_-2-782_12-187.xy
20.00000 16.096
20.04000 21.149
20.08000 19.105
20.12000 14.160
20.16000 29.315
20.20000 18.326
20.24000 19.369
20.28000 22.106
20.32000 19.175
20.36000 24.321
20.40000 21.222
20.44000 23.292
20.48000 22.577
20.52000 21.548
20.56000 16.112
20.60000 21.321
20.64000 13.221
20.68000 29.342
20.72000 23.170
20.76000 22.365
20.80000 21.287
20.84000 24.534
20.88000 26.439
20.92000 20.315
20.96000 18.314
21.00000 22.465
21.04000 19.208
21.08000 27.429
21.12000 23.164
21.16000 20.279
21.20000 31.185
21.24000 25.140
21.28000 13.094
21.32000 21.451
21.36000 17.286
21.40000 16.540
21.44000 23.204
21.48000 28.316
21.52000 27.272
21.56000 16.264
21.60000 25.474
21.64000 32.297
21.68000 30.352
21.72000 20.234
21.76000 17.369
21.80000 22.426
21.84000 25.559
21.88000 19.098
21.92000 25.487
21.96000 15.211
22.00000 28.462
22.04000 22.192
22.08000 26.495
22.12000 37.201
22.16000 24.207
22.20000 17.278
22.24000 19.143
22.28000 24.189
22.32000 31.196
22.36000 25.575
22.40000 21.048
22.44000 22.367
22.48000 20.356
22.52000 32.371
22.56000 22.257
22.60000 21.168
22.64000 17.067
22.68000 23.310
22.72000 27.359
22.76000 30.435
22.80000 31.698
22.84000 35.351
22.88000 25.407
22.92000 22.339
22.96000 24.524
23.00000 20.450
23.04000 17.105
23.08000 33.488
23.12000 20.424
23.16000 22.188
23.20000 18.266
23.24000 26.372
23.28000 26.345
23.32000 34.484
23.36000 26.452
23.40000 30.410
23.44000 31.352
23.48000 35.590
23.52000 24.177
23.56000 30.248
23.60000 16.314
23.64000 22.384
23.68000 29.353
23.72000 26.406
23.76000 41.484
23.80000 29.361
23.84000 24.312
23.88000 31.260
23.92000 33.205
23.96000 27.295
24.00000 29.364
24.04000 24.226
24.08000 31.432
24.12000 31.484
24.16000 28.251
24.20000 34.332
24.24000 34.430
24.28000 35.462
24.32000 25.359
24.36000 41.513
24.40000 44.594
24.44000 31.452
24.48000 31.578
24.52000 28.267
24.56000 38.553
24.60000 37.530
24.64000 34.688
24.68000 51.927
24.72000 41.675
24.76000 37.533
24.80000 38.130
24.84000 44.785
24.88000 26.380
24.92000 41.620
24.96000 38.535
25.00000 38.419
25.04000 39.543
25.08000 45.644
25.12000 33.486
25.16000 33.542
25.20000 33.423
25.24000 43.521
25.28000 52.393
25.32000 43.759
25.36000 38.423
25.40000 51.595
25.44000 44.619
25.48000 41.551
25.52000 45.623
25.56000 44.731
25.60000 43.757
25.64000 52.691
25.68000 54.854
25.72000 48.960
25.76000 41.465
25.80000 45.493
25.84000 46.496
25.88000 50.405
25.92000 45.343
25.96000 54.779
26.00000 51.848
26.04000 49.863
26.08000 50.666
26.12000 39.592
26.16000 58.649
26.20000 34.391
26.24000 52.632
26.28000 48.673
26.32000 47.584
26.36000 45.470
26.40000 46.635
26.44000 61.479
26.48000 59.911
26.52000 55.659
26.56000 55.059
26.60000 50.448
26.64000 50.439
26.68000 68.054
26.72000 60.854
26.76000 58.813
26.80000 59.553
26.84000 56.123
26.88000 42.708
26.92000 50.296
26.96000 43.591
27.00000 63.833
27.04000 73.040
27.08000 61.515
27.12000 47.786
27.16000 59.959
27.20000 88.031
27.24000 62.029
27.28000 59.522
27.32000 68.426
27.36000 68.187
27.40000 54.427
27.44000 59.817
27.48000 61.042
27.52000 46.602
27.56000 52.064
27.60000 65.138
27.64000 66.864
27.68000 52.523
27.72000 78.097
27.76000 60.788
27.80000 50.723
27.84000 67.871
27.88000 49.858
27.92000 63.912
27.96000 62.833
28.00000 41.357
28.04000 63.781
28.08000 69.989
28.12000 59.596
28.16000 66.020
28.20000 59.779
28.24000 38.465
28.28000 49.797
28.32000 70.169
28.36000 61.888
28.40000 63.792
28.44000 55.661
28.48000 55.078
28.52000 54.929
28.56000 61.980
28.60000 73.885
28.64000 60.733
28.68000 56.534
28.72000 59.696
28.76000 51.894
28.80000 48.517
28.84000 55.572
28.88000 53.835
28.92000 53.763
28.96000 49.328
29.00000 51.758
29.04000 62.642
29.08000 52.944
29.12000 47.482
29.16000 52.511
29.20000 39.478
29.24000 53.873
29.28000 42.621
29.32000 56.066
29.36000 58.793
29.40000 45.515
29.44000 44.894
29.48000 47.308
29.52000 51.490
29.56000 41.479
29.60000 49.632
29.64000 47.760
29.68000 52.843
29.72000 50.466
29.76000 46.590
29.80000 34.589
29.84000 43.520
29.88000 38.632
29.92000 44.703
29.96000 68.886
30.00000 39.669
30.04000 49.797
30.08000 36.302
30.12000 48.502
30.16000 42.750
30.20000 26.451
30.24000 41.619
30.28000 44.822
30.32000 34.455
30.36000 39.500
30.40000 31.622
30.44000 44.636
30.48000 38.922
30.52000 39.649
30.56000 34.520
30.60000 42.377
30.64000 33.516
30.68000 31.666
30.72000 27.392
30.76000 23.402
30.80000 42.554
30.84000 38.402
30.88000 39.698
30.92000 38.449
30.96000 20.214
31.00000 33.250
31.04000 33.244
31.08000 37.613
31.12000 27.322
31.16000 23.359
31.20000 34.626
31.24000 21.310
31.28000 22.163
31.32000 46.336
31.36000 39.718
31.40000 31.402
31.44000 27.290
31.48000 32.387
31.52000 28.264
31.56000 33.513
31.60000 32.562
31.64000 28.478
31.68000 32.470
31.72000 19.120
31.76000 36.672
31.80000 30.536
31.84000 25.664
31.88000 31.258
31.92000 24.584
31.96000 27.316
32.00000 25.309
32.04000 35.295
32.08000 34.431
32.12000 31.375
32.16000 32.511
32.20000 23.304
32.24000 30.387
32.28000 32.312
32.32000 23.436
32.36000 38.473
32.40000 33.340
32.44000 29.175
32.48000 25.300
32.52000 26.288
32.56000 32.312
32.60000 30.454
32.64000 29.421
32.68000 25.331
32.72000 21.295
32.76000 20.317
32.80000 21.254
32.84000 24.368
32.88000 25.408
32.92000 12.262
32.96000 26.514
33.00000 22.377
33.04000 28.469
33.08000 24.469
33.12000 23.504
33.16000 21.335
33.20000 24.241
33.24000 29.318
33.28000 17.266
33.32000 19.306
33.36000 18.282
33.40000 17.234
33.44000 29.539
33.48000 20.214
33.52000 22.530
33.56000 19.246
33.60000 27.074
33.64000 22.495
33.68000 20.379
33.72000 27.259
33.76000 23.288
33.80000 13.276
33.84000 14.159
33.88000 21.441
33.92000 14.313
33.96000 25.335
34.00000 16.329
34.04000 17.410
34.08000 19.469
34.12000 20.288
34.16000 14.187
34.20000 16.143
34.24000 15.046
34.28000 12.216
34.32000 14.189
34.36000 19.301
34.40000 21.243
34.44000 15.055
34.48000 19.069
34.52000 18.259
34.56000 26.185
34.60000 8.995
34.64000 20.327
34.68000 19.193
34.72000 17.407
34.76000 18.176
34.80000 20.344
34.84000 26.465
34.88000 18.202
34.92000 20.367
34.96000 16.208
35.00000 15.057
35.04000 23.240
35.08000 19.319
35.12000 24.181
35.16000 21.445
35.20000 19.099
35.24000 10.166
35.28000 20.218
35.32000 16.230
35.36000 19.165
35.40000 22.315
35.44000 11.165
35.48000 16.253
35.52000 25.270
35.56000 22.366
35.60000 12.206
35.64000 18.201
35.68000 12.027
35.72000 15.255
35.76000 10.055
35.80000 13.199
35.84000 20.193
35.88000 18.220
35.92000 8.065
35.96000 25.332
36.00000 21.330
36.04000 15.150
36.08000 13.184
36.12000 18.176
36.16000 21.280
36.20000 18.356
36.24000 15.230
36.28000 20.276
36.32000 14.301
36.36000 21.309
36.40000 17.152
36.44000 27.298
36.48000 15.299
36.52000 22.428
36.56000 15.042
36.60000 18.182
36.64000 17.167
36.68000 16.232
36.72000 23.401
36.76000 22.299
36.80000 23.277
36.84000 26.441
36.88000 23.568
36.92000 17.221
36.96000 22.286
37.00000 18.384
37.04000 13.129
37.08000 21.219
37.12000 19.447
37.16000 20.167
37.20000 23.367
37.24000 22.424
37.28000 20.251
37.32000 14.167
37.36000 15.392
37.40000 24.271
37.44000 15.187
37.48000 20.156
37.52000 33.561
37.56000 18.217
37.60000 16.259
37.64000 24.510
37.68000 18.207
37.72000 17.476
37.76000 17.275
37.80000 14.117
37.84000 18.187
37.88000 34.322
37.92000 20.183
37.96000 13.076
38.00000 30.619
38.04000 19.555
38.08000 33.419
38.12000 27.190
38.16000 27.421
38.20000 20.270
38.24000 25.447
38.28000 29.290
38.32000 16.231
38.36000 26.465
38.40000 26.412
38.44000 19.346
38.48000 20.140
38.52000 18.113
38.56000 23.311
38.60000 23.277
38.64000 30.458
38.68000 10.060
38.72000 25.518
38.76000 23.134
38.80000 26.305
38.84000 22.291
38.88000 13.283
38.92000 12.019
38.96000 28.346
39.00000 20.324
39.04000 25.336
39.08000 16.225
39.12000 22.207
39.16000 20.257
39.20000 17.389
39.24000 23.303
39.28000 20.362
39.32000 15.082
39.36000 27.419
39.40000 25.323
39.44000 21.152
39.48000 18.256
39.52000 24.451
39.56000 16.180
39.60000 26.119
39.64000 22.024
39.68000 21.247
39.72000 31.485
39.76000 20.128
39.80000 28.367
39.84000 21.366
39.88000 26.502
39.92000 19.284
39.96000 14.136
40.00000 24.273
40.04000 28.280
40.08000 27.363
40.12000 24.328
40.16000 22.298
40.20000 16.228
40.24000 29.494
40.28000 20.362
40.32000 24.362
40.36000 19.212
40.40000 31.516
40.44000 15.131
40.48000 25.416
40.52000 22.306
40.56000 27.169
40.60000 21.147
40.64000 22.272
40.68000 22.305
40.72000 20.333
40.76000 22.424
40.80000 18.098
40.84000 25.168
40.88000 29.445
40.92000 19.054
40.96000 15.061
41.00000 24.484
41.04000 23.232
41.08000 24.358
41.12000 23.416
41.16000 24.529
41.20000 28.494
41.24000 26.281
41.28000 18.250
41.32000 22.323
41.36000 21.267
41.40000 20.374
41.44000 19.346
41.48000 17.466
41.52000 31.380
41.56000 25.197
41.60000 18.941
41.64000 25.285
41.68000 27.470
41.72000 19.221
41.76000 24.081
41.80000 19.307
41.84000 25.397
41.88000 25.117
41.92000 21.328
41.96000 20.272
42.00000 18.411
42.04000 22.414
42.08000 20.372
42.12000 25.463
42.16000 25.496
42.20000 15.151
42.24000 22.402
42.28000 22.351
42.32000 32.465
42.36000 24.209
42.40000 26.182
42.44000 24.296
42.48000 18.385
42.52000 14.161
42.56000 21.388
42.60000 18.541
42.64000 13.236
42.68000 19.350
42.72000 20.393
42.76000 17.209
42.80000 23.322
42.84000 31.155
42.88000 21.306
42.92000 21.302
42.96000 18.286
43.00000 21.450
43.04000 21.291
43.08000 30.387
43.12000 30.488
43.16000 28.347
43.20000 27.391
43.24000 23.267
43.28000 12.152
43.32000 22.441
43.36000 22.227
43.40000 18.282
43.44000 25.099
43.48000 17.282
43.52000 27.334
43.56000 23.145
43.60000 25.305
43.64000 20.381
43.68000 27.166
43.72000 22.355
43.76000 19.065
43.80000 16.126
43.84000 14.177
43.88000 36.426
43.92000 30.368
43.96000 23.463
44.00000 18.283
44.04000 24.457
44.08000 30.274
44.12000 25.146
44.16000 18.981
44.20000 28.609
44.24000 23.415
44.28000 18.291
44.32000 16.303
44.36000 21.253
44.40000 19.141
44.44000 21.288
44.48000 17.283
44.52000 27.168
44.56000 16.159
44.60000 23.363
44.64000 29.506
44.68000 38.377
44.72000 17.157
44.76000 18.334
44.80000 21.214
44.84000 27.515
44.88000 22.511
44.92000 16.293
44.96000 24.252
45.00000 11.152
45.04000 15.069
45.08000 19.201
45.12000 21.418
45.16000 18.228
45.20000 26.371
45.24000 19.163
45.28000 23.201
45.32000 21.386
45.36000 21.431
45.40000 32.460
45.44000 21.471
45.48000 24.280
45.52000 21.178
45.56000 20.030
45.60000 23.171
45.64000 17.253
45.68000 24.190
45.72000 16.074
45.76000 17.121
45.80000 25.523
45.84000 15.128
45.88000 20.475
45.92000 18.145
45.96000 23.337
46.00000 26.565
46.04000 18.298
46.08000 22.308
46.12000 16.085
46.16000 28.264
46.20000 13.088
46.24000 23.403
46.28000 25.212
46.32000 16.354
46.36000 28.456
46.40000 14.215
46.44000 15.205
46.48000 23.465
46.52000 21.635
46.56000 15.285
46.60000 28.305
46.64000 23.346
46.68000 18.299
46.72000 26.083
46.76000 22.387
46.80000 20.153
46.84000 19.289
46.88000 16.197
46.92000 25.461
46.96000 20.267
47.00000 27.364
47.04000 8.021
47.08000 19.232
47.12000 16.171
47.16000 19.357
47.20000 18.112
47.24000 26.293
47.28000 20.523
47.32000 30.584
47.36000 24.478
47.40000 18.112
47.44000 9.075
47.48000 28.459
47.52000 19.292
47.56000 15.101
47.60000 11.152
47.64000 26.625
47.68000 22.217
47.72000 22.503
47.76000 18.184
47.80000 21.330
47.84000 16.243
47.88000 18.246
47.92000 18.148
47.96000 20.407
48.00000 21.218
48.04000 23.444
48.08000 24.366
48.12000 24.182
48.16000 26.273
48.20000 17.365
48.24000 17.147
48.28000 20.131
48.32000 24.395
48.36000 20.263
48.40000 15.126
48.44000 13.214
48.48000 21.307
48.52000 26.435
48.56000 24.177
48.60000 18.186
48.64000 20.130
48.68000 24.205
48.72000 17.208
48.76000 19.324
48.80000 22.173
48.84000 10.157
48.88000 16.172
48.92000 24.306
48.96000 19.125
49.00000 21.429
49.04000 21.086
49.08000 25.319
49.12000 29.284
49.16000 16.100
49.20000 16.359
49.24000 13.167
49.28000 16.230
49.32000 21.337
49.36000 23.319
49.40000 18.191
49.44000 22.278
49.48000 16.274
49.52000 13.217
49.56000 17.255
49.60000 22.288
49.64000 30.247
49.68000 22.626
49.72000 14.265
49.76000 12.992
49.80000 23.248
49.84000 26.366
49.88000 15.101
49.92000 17.480
49.96000 12.241
50.00000 13.198
50.04000 14.183
50.08000 22.547
50.12000 20.287
50.16000 17.231
50.20000 17.330
50.24000 19.147
50.28000 18.441
50.32000 19.109
50.36000 22.054
50.40000 16.173
50.44000 14.235
50.48000 14.020
50.52000 21.342
50.56000 17.264
50.60000 19.200
50.64000 19.266
50.68000 31.459
50.72000 11.102
50.76000 13.185
50.80000 20.354
50.84000 17.450
50.88000 16.267
50.92000 16.140
50.96000 15.404
51.00000 16.112
51.04000 15.159
51.08000 15.224
51.12000 15.286
51.16000 11.015
51.20000 18.298
51.24000 7.054
51.28000 14.043
51.32000 19.253
51.36000 18.077
51.40000 14.171
51.44000 17.069
51.48000 21.195
51.52000 10.126
51.56000 13.997
51.60000 17.337
51.64000 12.084
51.68000 17.339
51.72000 16.137
51.76000 21.304
51.80000 21.323
51.84000 16.064
51.88000 14.317
51.92000 23.277
51.96000 19.425
52.00000 20.105
52.04000 12.199
52.08000 19.994
52.12000 15.185
52.16000 18.169
52.20000 12.275
52.24000 14.203
52.28000 9.085
52.32000 12.056
52.36000 18.130
52.40000 22.152
52.44000 19.262
52.48000 15.346
52.52000 16.207
52.56000 15.230
52.60000 14.159
52.64000 16.278
52.68000 11.235
52.72000 11.207
52.76000 14.280
52.80000 14.296
52.84000 15.242
52.88000 12.210
52.92000 11.034
52.96000 18.397
53.00000 14.135
53.04000 16.366
53.08000 14.162
53.12000 11.144
53.16000 17.160
53.20000 14.333
53.24000 15.301
53.28000 18.210
53.32000 12.232
53.36000 9.146
53.40000 19.194
53.44000 16.289
53.48000 18.306
53.52000 9.084
53.56000 14.215
53.60000 14.193
53.64000 19.438
53.68000 20.226
53.72000 16.109
53.76000 22.181
53.80000 13.137
53.84000 16.153
53.88000 12.174
53.92000 18.383
53.96000 11.950
54.00000 17.096
54.04000 15.240
54.08000 15.090
54.12000 12.081
54.16000 17.240
54.20000 8.148
54.24000 12.133
54.28000 15.227
54.32000 12.323
54.36000 20.367
54.40000 14.190
54.44000 11.103
54.48000 19.301
54.52000 10.211
54.56000 16.229
54.60000 10.273
54.64000 18.271
54.68000 16.194
54.72000 14.129
54.76000 18.178
54.80000 16.438
54.84000 11.109
54.88000 12.168
54.92000 10.207
54.96000 10.983
55.00000 12.081
55.04000 13.932
55.08000 13.142
55.12000 9.123
55.16000 13.078
55.20000 16.323
55.24000 10.121
55.28000 15.085
55.32000 10.956
55.36000 9.170
55.40000 15.030
55.44000 16.173
55.48000 11.059
55.52000 13.257
55.56000 10.079
55.60000 16.120
55.64000 10.222
55.68000 7.101
55.72000 14.177
55.76000 16.195
55.80000 9.211
55.84000 15.224
55.88000 12.106
55.92000 13.076
55.96000 5.023
56.00000 14.285
56.04000 15.177
56.08000 9.122
56.12000 9.071
56.16000 10.195
56.20000 10.068
56.24000 11.038
56.28000 9.168
56.32000 17.239
56.36000 9.092
56.40000 17.350
56.44000 10.094
56.48000 16.163
56.52000 9.124
56.56000 13.092
56.60000 13.193
56.64000 11.143
56.68000 17.224
56.72000 14.048
56.76000 13.106
56.80000 15.366
56.84000 14.186
56.88000 15.222
56.92000 8.105
56.96000 9.086
57.00000 9.057
57.04000 12.113
57.08000 9.015
57.12000 19.138
57.16000 11.143
57.20000 14.258
57.24000 6.951
57.28000 8.103
57.32000 13.253
57.36000 9.076
57.40000 14.286
57.44000 8.259
57.48000 11.151
57.52000 11.233
57.56000 14.360
57.60000 16.146
57.64000 15.155
57.68000 8.154
57.72000 12.262
57.76000 13.149
57.80000 13.210
57.84000 11.050
57.88000 13.239
57.92000 15.038
57.96000 7.985
58.00000 10.092
58.04000 10.191
58.08000 11.355
58.12000 19.075
58.16000 8.123
58.20000 13.312
58.24000 13.078
58.28000 18.123
58.32000 6.085
58.36000 15.121
58.40000 8.088
58.44000 5.076
58.48000 9.137
58.52000 5.098
58.56000 10.007
58.60000 14.208
58.64000 8.075
58.68000 12.086
58.72000 11.149
58.76000 9.233
58.80000 10.038
58.84000 16.131
58.88000 10.029
58.92000 9.995
58.96000 8.131
59.00000 16.164
59.04000 19.272
59.08000 11.104
59.12000 11.101
59.16000 10.220
59.20000 8.122
59.24000 13.233
59.28000 9.242
59.32000 21.418
59.36000 8.016
59.40000 7.090
59.44000 8.139
59.48000 10.113
59.52000 9.212
59.56000 9.978
59.60000 9.065
59.64000 13.110
59.68000 8.041
59.72000 14.001
59.76000 12.269
59.80000 13.201
59.84000 11.108
59.88000 7.158
59.92000 13.294
59.96000 5.088
60.00000 17.215
60.04000 10.070
60.08000 10.139
60.12000 11.130
60.16000 11.074
60.20000 14.141
60.24000 10.042
60.28000 8.075
60.32000 10.164
60.36000 10.009
60.40000 9.277
60.44000 3.127
60.48000 8.040
60.52000 14.264
60.56000 13.014
60.60000 7.135
60.64000 8.273
60.68000 12.114
60.72000 11.187
60.76000 18.262
60.80000 4.009
60.84000 15.246
60.88000 5.978
60.92000 10.068
60.96000 9.065
61.00000 7.086
61.04000 9.018
61.08000 13.265
61.12000 8.083
61.16000 7.082
61.20000 9.047
61.24000 7.090
61.28000 8.234
61.32000 8.113
61.36000 10.350
61.40000 13.255
61.44000 7.014
61.48000 11.066
61.52000 9.191
61.56000 9.097
61.60000 13.288
61.64000 18.295
61.68000 8.145
61.72000 5.080
61.76000 11.010
61.80000 8.962
61.84000 10.234
61.88000 7.063
61.92000 7.049
61.96000 11.233
62.00000 10.117
62.04000 8.216
62.08000 3.000
62.12000 8.152
62.16000 11.207
62.20000 6.041
62.24000 8.076
62.28000 10.100
62.32000 15.310
62.36000 8.048
62.40000 6.081
62.44000 8.217
62.48000 7.109
62.52000 8.151
62.56000 11.092
62.60000 4.006
62.64000 12.149
62.68000 9.210
62.72000 6.170
62.76000 13.290
62.80000 6.089
62.84000 10.100
62.88000 11.200
62.92000 8.020
62.96000 5.089
63.00000 9.170
63.04000 12.144
63.08000 7.088
63.12000 9.199
63.16000 7.939
63.20000 3.057
63.24000 8.216
63.28000 10.239
63.32000 6.071
63.36000 10.176
63.40000 7.067
63.44000 5.046
63.48000 13.175
63.52000 12.098
63.56000 5.193
63.60000 12.076
63.64000 6.023
63.68000 6.085
63.72000 10.007
63.76000 3.008
63.80000 8.002
63.84000 7.088
63.88000 6.008
63.92000 14.202
63.96000 10.092
64.00000 15.246
64.04000 6.050
64.08000 6.089
64.12000 6.118
64.16000 9.190
64.20000 6.987
64.24000 9.062
64.28000 18.203
64.32000 8.120
64.36000 5.114
64.40000 11.151
64.44000 8.022
64.48000 10.149
64.52000 6.125
64.56000 4.056
64.60000 8.110
64.64000 10.097
64.68000 8.148
64.72000 9.135
64.76000 10.290
64.80000 4.959
64.84000 2.954
64.88000 2.028
64.92000 4.070
64.96000 3.981
65.00000 7.876