File: XRD/XRD/11-09-2025/XY Data/01092025_BTO_omega_1_001_28_37-500_0-000.xy
20.00000 14.241
20.04000 12.251
20.08000 22.402
20.12000 20.150
20.16000 13.202
20.20000 15.234
20.24000 15.266
20.28000 20.275
20.32000 19.338
20.36000 15.286
20.40000 19.168
20.44000 13.059
20.48000 20.406
20.52000 19.192
20.56000 12.210
20.60000 15.216
20.64000 15.256
20.68000 12.128
20.72000 19.357
20.76000 24.569
20.80000 14.259
20.84000 16.427
20.88000 14.132
20.92000 18.276
20.96000 25.176
21.00000 7.092
21.04000 19.277
21.08000 16.375
21.12000 14.139
21.16000 15.129
21.20000 20.062
21.24000 11.985
21.28000 17.154
21.32000 10.144
21.36000 15.311
21.40000 10.225
21.44000 22.208
21.48000 13.097
21.52000 13.013
21.56000 13.137
21.60000 13.071
21.64000 17.237
21.68000 16.216
21.72000 14.200
21.76000 17.356
21.80000 21.705
21.84000 12.214
21.88000 10.052
21.92000 13.162
21.96000 13.378
22.00000 23.508
22.04000 15.062
22.08000 14.192
22.12000 23.146
22.16000 15.211
22.20000 19.234
22.24000 18.261
22.28000 22.329
22.32000 20.214
22.36000 15.130
22.40000 18.240
22.44000 21.253
22.48000 25.166
22.52000 15.009
22.56000 19.149
22.60000 22.282
22.64000 17.354
22.68000 24.312
22.72000 18.260
22.76000 29.096
22.80000 16.424
22.84000 17.260
22.88000 18.128
22.92000 19.088
22.96000 18.121
23.00000 10.146
23.04000 20.312
23.08000 14.102
23.12000 18.375
23.16000 22.412
23.20000 25.428
23.24000 21.216
23.28000 19.295
23.32000 21.311
23.36000 26.106
23.40000 20.098
23.44000 14.111
23.48000 12.220
23.52000 26.415
23.56000 18.206
23.60000 21.394
23.64000 15.149
23.68000 18.315
23.72000 15.072
23.76000 17.464
23.80000 20.240
23.84000 22.437
23.88000 18.250
23.92000 23.182
23.96000 22.159
24.00000 25.191
24.04000 16.172
24.08000 21.354
24.12000 31.367
24.16000 20.361
24.20000 21.202
24.24000 15.431
24.28000 20.258
24.32000 18.424
24.36000 12.277
24.40000 18.212
24.44000 21.214
24.48000 24.182
24.52000 19.503
24.56000 26.264
24.60000 25.372
24.64000 25.386
24.68000 23.651
24.72000 26.294
24.76000 22.332
24.80000 20.100
24.84000 22.329
24.88000 17.128
24.92000 22.248
24.96000 23.420
25.00000 30.303
25.04000 21.306
25.08000 29.102
25.12000 28.046
25.16000 30.287
25.20000 32.691
25.24000 24.372
25.28000 29.448
25.32000 29.256
25.36000 22.296
25.40000 29.541
25.44000 34.540
25.48000 19.404
25.52000 42.505
25.56000 28.360
25.60000 26.360
25.64000 33.465
25.68000 31.378
25.72000 35.636
25.76000 34.490
25.80000 31.276
25.84000 30.532
25.88000 22.059
25.92000 34.367
25.96000 31.343
26.00000 25.311
26.04000 33.375
26.08000 22.222
26.12000 25.618
26.16000 18.205
26.20000 25.294
26.24000 37.513
26.28000 25.110
26.32000 32.234
26.36000 42.536
26.40000 32.375
26.44000 30.393
26.48000 34.383
26.52000 36.550
26.56000 31.466
26.60000 26.392
26.64000 28.238
26.68000 27.470
26.72000 46.703
26.76000 45.697
26.80000 40.624
26.84000 34.619
26.88000 42.498
26.92000 45.750
26.96000 31.302
27.00000 29.160
27.04000 34.169
27.08000 33.338
27.12000 33.346
27.16000 29.388
27.20000 34.367
27.24000 37.309
27.28000 34.330
27.32000 31.461
27.36000 26.159
27.40000 33.474
27.44000 38.424
27.48000 30.291
27.52000 30.256
27.56000 32.670
27.60000 34.464
27.64000 42.868
27.68000 32.450
27.72000 41.723
27.76000 34.617
27.80000 42.466
27.84000 31.474
27.88000 22.067
27.92000 35.403
27.96000 44.843
28.00000 40.656
28.04000 39.582
28.08000 33.401
28.12000 26.229
28.16000 50.632
28.20000 37.551
28.24000 37.400
28.28000 48.776
28.32000 29.405
28.36000 30.558
28.40000 36.407
28.44000 27.300
28.48000 32.269
28.52000 27.399
28.56000 30.431
28.60000 33.694
28.64000 23.201
28.68000 41.461
28.72000 29.362
28.76000 39.684
28.80000 19.258
28.84000 37.438
28.88000 40.474
28.92000 39.320
28.96000 21.092
29.00000 40.536
29.04000 28.353
29.08000 30.223
29.12000 33.399
29.16000 22.139
29.20000 33.492
29.24000 29.320
29.28000 28.283
29.32000 27.425
29.36000 31.137
29.40000 29.477
29.44000 39.500
29.48000 27.278
29.52000 24.473
29.56000 32.368
29.60000 36.734
29.64000 24.355
29.68000 36.352
29.72000 23.252
29.76000 37.579
29.80000 26.208
29.84000 29.353
29.88000 17.189
29.92000 26.221
29.96000 26.338
30.00000 32.392
30.04000 31.300
30.08000 31.337
30.12000 27.564
30.16000 20.177
30.20000 23.271
30.24000 33.312
30.28000 33.304
30.32000 35.241
30.36000 24.153
30.40000 27.350
30.44000 23.432
30.48000 19.259
30.52000 24.356
30.56000 24.398
30.60000 22.263
30.64000 19.202
30.68000 30.155
30.72000 19.060
30.76000 17.067
30.80000 23.285
30.84000 12.083
30.88000 13.211
30.92000 24.365
30.96000 26.204
31.00000 30.367
31.04000 20.222
31.08000 21.203
31.12000 30.568
31.16000 11.153
31.20000 20.295
31.24000 25.373
31.28000 19.275
31.32000 21.111
31.36000 18.195
31.40000 16.171
31.44000 13.276
31.48000 17.292
31.52000 18.384
31.56000 27.583
31.60000 13.211
31.64000 15.335
31.68000 21.401
31.72000 15.167
31.76000 18.199
31.80000 12.241
31.84000 7.041
31.88000 23.273
31.92000 13.335
31.96000 15.298
32.00000 14.988
32.04000 11.946
32.08000 19.171
32.12000 16.456
32.16000 19.139
32.20000 16.274
32.24000 21.181
32.28000 13.030
32.32000 21.435
32.36000 23.407
32.40000 12.081
32.44000 14.153
32.48000 17.191
32.52000 19.338
32.56000 18.270
32.60000 19.210
32.64000 15.123
32.68000 11.260
32.72000 18.199
32.76000 14.076
32.80000 7.068
32.84000 16.169
32.88000 14.176
32.92000 19.456
32.96000 21.280
33.00000 11.182
33.04000 11.163
33.08000 12.033
33.12000 16.255
33.16000 14.205
33.20000 9.084
33.24000 16.254
33.28000 13.227
33.32000 11.257
33.36000 12.296
33.40000 14.155
33.44000 13.189
33.48000 19.206
33.52000 4.990
33.56000 17.249
33.60000 12.124
33.64000 9.210
33.68000 12.187
33.72000 16.262
33.76000 15.299
33.80000 16.123
33.84000 15.135
33.88000 15.210
33.92000 18.236
33.96000 8.074
34.00000 10.006
34.04000 7.159
34.08000 12.119
34.12000 14.971
34.16000 13.192
34.20000 11.077
34.24000 14.254
34.28000 8.027
34.32000 13.113
34.36000 17.200
34.40000 9.247
34.44000 16.236
34.48000 5.081
34.52000 11.208
34.56000 11.207
34.60000 8.098
34.64000 16.361
34.68000 10.232
34.72000 9.135
34.76000 14.246
34.80000 14.145
34.84000 13.302
34.88000 9.071
34.92000 6.163
34.96000 11.072
35.00000 8.174
35.04000 10.154
35.08000 8.064
35.12000 14.227
35.16000 8.229
35.20000 11.170
35.24000 7.029
35.28000 12.253
35.32000 10.042
35.36000 9.087
35.40000 7.083
35.44000 7.109
35.48000 10.118
35.52000 11.106
35.56000 15.164
35.60000 19.217
35.64000 11.187
35.68000 12.042
35.72000 10.105
35.76000 8.103
35.80000 5.193
35.84000 8.107
35.88000 15.068
35.92000 8.126
35.96000 10.170
36.00000 15.191
36.04000 10.242
36.08000 14.174
36.12000 14.142
36.16000 8.214
36.20000 14.168
36.24000 12.111
36.28000 9.106
36.32000 16.286
36.36000 12.202
36.40000 16.098
36.44000 7.090
36.48000 13.185
36.52000 13.056
36.56000 12.066
36.60000 6.152
36.64000 7.172
36.68000 10.140
36.72000 14.146
36.76000 12.095
36.80000 10.147
36.84000 11.052
36.88000 10.101
36.92000 7.047
36.96000 14.317
37.00000 7.048
37.04000 16.155
37.08000 13.269
37.12000 14.157
37.16000 12.163
37.20000 15.309
37.24000 18.267
37.28000 11.155
37.32000 14.134
37.36000 14.280
37.40000 12.262
37.44000 10.062
37.48000 8.053
37.52000 11.271
37.56000 17.250
37.60000 13.058
37.64000 14.204
37.68000 17.076
37.72000 10.133
37.76000 15.177
37.80000 11.114
37.84000 11.099
37.88000 5.013
37.92000 14.120
37.96000 17.222
38.00000 11.213
38.04000 6.187
38.08000 9.177
38.12000 16.041
38.16000 7.112
38.20000 7.070
38.24000 14.148
38.28000 11.047
38.32000 14.065
38.36000 16.231
38.40000 13.192
38.44000 10.037
38.48000 6.095
38.52000 10.109
38.56000 16.196
38.60000 8.071
38.64000 13.221
38.68000 10.993
38.72000 12.103
38.76000 19.430
38.80000 9.172
38.84000 10.137
38.88000 7.104
38.92000 14.216
38.96000 14.122
39.00000 13.980
39.04000 18.317
39.08000 23.257
39.12000 8.089
39.16000 4.040
39.20000 19.433
39.24000 12.157
39.28000 13.223
39.32000 14.043
39.36000 13.273
39.40000 10.066
39.44000 16.293
39.48000 13.130
39.52000 10.213
39.56000 14.160
39.60000 8.188
39.64000 14.257
39.68000 11.151
39.72000 17.217
39.76000 18.174
39.80000 13.208
39.84000 12.232
39.88000 10.115
39.92000 16.320
39.96000 7.258
40.00000 17.399
40.04000 14.260
40.08000 14.136
40.12000 17.119
40.16000 9.048
40.20000 17.249
40.24000 7.097
40.28000 13.124
40.32000 8.069
40.36000 14.205
40.40000 11.262
40.44000 13.286
40.48000 9.091
40.52000 11.118
40.56000 14.143
40.60000 12.176
40.64000 10.122
40.68000 19.147
40.72000 11.067
40.76000 10.051
40.80000 9.118
40.84000 8.250
40.88000 13.047
40.92000 22.236
40.96000 16.166
41.00000 12.338
41.04000 6.110
41.08000 12.171
41.12000 6.088
41.16000 13.146
41.20000 9.069
41.24000 15.049
41.28000 11.173
41.32000 15.040
41.36000 11.160
41.40000 19.292
41.44000 12.055
41.48000 16.128
41.52000 13.119
41.56000 18.129
41.60000 4.999
41.64000 12.184
41.68000 2.079
41.72000 13.216
41.76000 13.208
41.80000 17.345
41.84000 14.110
41.88000 9.176
41.92000 12.090
41.96000 10.001
42.00000 9.122
42.04000 11.175
42.08000 11.056
42.12000 17.134
42.16000 12.087
42.20000 10.207
42.24000 7.059
42.28000 18.179
42.32000 12.071
42.36000 14.011
42.40000 16.236
42.44000 12.299
42.48000 16.334
42.52000 13.062
42.56000 16.223
42.60000 18.261
42.64000 16.137
42.68000 20.286
42.72000 18.339
42.76000 16.108
42.80000 6.051
42.84000 13.205
42.88000 8.185
42.92000 14.151
42.96000 9.005
43.00000 15.174
43.04000 19.234
43.08000 12.084
43.12000 7.162
43.16000 16.276
43.20000 11.086
43.24000 12.134
43.28000 14.017
43.32000 13.272
43.36000 20.251
43.40000 4.065
43.44000 14.266
43.48000 12.166
43.52000 11.149
43.56000 8.042
43.60000 7.104
43.64000 12.085
43.68000 19.382
43.72000 18.362
43.76000 14.263
43.80000 14.407
43.84000 17.190
43.88000 18.168
43.92000 13.038
43.96000 15.422
44.00000 13.226
44.04000 11.231
44.08000 13.158
44.12000 14.113
44.16000 19.229
44.20000 20.287
44.24000 10.165
44.28000 10.231
44.32000 11.162
44.36000 7.095
44.40000 16.178
44.44000 15.242
44.48000 9.274
44.52000 8.272
44.56000 13.190
44.60000 17.269
44.64000 11.178
44.68000 11.075
44.72000 13.085
44.76000 20.334
44.80000 20.349
44.84000 10.180
44.88000 10.080
44.92000 19.506
44.96000 19.122
45.00000 12.175
45.04000 11.126
45.08000 10.162
45.12000 11.242
45.16000 10.216
45.20000 10.136
45.24000 9.080
45.28000 9.070
45.32000 9.212
45.36000 15.161
45.40000 10.069
45.44000 17.176
45.48000 11.400
45.52000 11.123
45.56000 15.227
45.60000 14.196
45.64000 10.156
45.68000 10.266
45.72000 8.045
45.76000 11.133
45.80000 13.297
45.84000 9.058
45.88000 9.193
45.92000 11.262
45.96000 9.178
46.00000 15.144
46.04000 18.358
46.08000 14.120
46.12000 5.134
46.16000 14.210
46.20000 14.409
46.24000 12.149
46.28000 16.300
46.32000 15.227
46.36000 19.340
46.40000 15.209
46.44000 17.236
46.48000 13.119
46.52000 13.215
46.56000 13.205
46.60000 15.086
46.64000 13.066
46.68000 8.984
46.72000 15.157
46.76000 12.258
46.80000 13.014
46.84000 16.253
46.88000 8.063
46.92000 11.069
46.96000 12.166
47.00000 11.145
47.04000 15.168
47.08000 10.196
47.12000 10.115
47.16000 16.242
47.20000 12.023
47.24000 5.003
47.28000 16.154
47.32000 12.109
47.36000 10.125
47.40000 7.103
47.44000 13.202
47.48000 8.203
47.52000 16.244
47.56000 18.069
47.60000 9.177
47.64000 21.227
47.68000 15.266
47.72000 12.215
47.76000 13.196
47.80000 11.139
47.84000 17.291
47.88000 11.180
47.92000 7.123
47.96000 10.103
48.00000 6.221
48.04000 11.166
48.08000 9.171
48.12000 16.255
48.16000 7.087
48.20000 11.103
48.24000 15.169
48.28000 14.122
48.32000 10.158
48.36000 11.163
48.40000 15.061
48.44000 7.104
48.48000 10.145
48.52000 15.207
48.56000 9.121
48.60000 11.906
48.64000 9.053
48.68000 10.152
48.72000 16.281
48.76000 7.117
48.80000 17.306
48.84000 12.112
48.88000 14.135
48.92000 9.034
48.96000 11.065
49.00000 12.181
49.04000 14.197
49.08000 10.066
49.12000 12.138
49.16000 13.117
49.20000 12.234
49.24000 6.124
49.28000 7.165
49.32000 9.166
49.36000 4.001
49.40000 11.121
49.44000 9.014
49.48000 11.075
49.52000 16.247
49.56000 6.097
49.60000 9.163
49.64000 18.254
49.68000 14.101
49.72000 14.214
49.76000 14.002
49.80000 16.201
49.84000 12.146
49.88000 8.021
49.92000 15.207
49.96000 11.975
50.00000 15.077
50.04000 14.167
50.08000 10.069
50.12000 4.023
50.16000 13.057
50.20000 9.342
50.24000 15.264
50.28000 17.321
50.32000 12.949
50.36000 10.137
50.40000 10.102
50.44000 14.225
50.48000 11.129
50.52000 9.214
50.56000 12.122
50.60000 11.130
50.64000 9.223
50.68000 10.023
50.72000 12.126
50.76000 7.146
50.80000 8.010
50.84000 11.171
50.88000 13.140
50.92000 9.099
50.96000 9.086
51.00000 13.153
51.04000 13.096
51.08000 12.220
51.12000 14.067
51.16000 7.162
51.20000 14.238
51.24000 12.033
51.28000 6.082
51.32000 10.210
51.36000 11.203
51.40000 9.220
51.44000 15.143
51.48000 12.148
51.52000 8.151
51.56000 8.123
51.60000 16.297
51.64000 12.056
51.68000 14.234
51.72000 10.022
51.76000 5.146
51.80000 14.145
51.84000 8.175
51.88000 14.147
51.92000 6.147
51.96000 8.093
52.00000 12.152
52.04000 5.966
52.08000 6.110
52.12000 11.073
52.16000 6.043
52.20000 12.257
52.24000 14.202
52.28000 9.160
52.32000 11.266
52.36000 15.309
52.40000 13.007
52.44000 9.194
52.48000 11.002
52.52000 6.044
52.56000 12.275
52.60000 9.102
52.64000 7.911
52.68000 10.145
52.72000 8.300
52.76000 11.052
52.80000 13.213
52.84000 13.113
52.88000 12.051
52.92000 6.035
52.96000 10.232
53.00000 6.053
53.04000 20.332
53.08000 11.086
53.12000 7.042
53.16000 12.084
53.20000 12.131
53.24000 7.179
53.28000 10.145
53.32000 9.163
53.36000 14.312
53.40000 11.191
53.44000 11.029
53.48000 12.218
53.52000 9.116
53.56000 13.294
53.60000 7.096
53.64000 12.294
53.68000 11.192
53.72000 14.163
53.76000 14.167
53.80000 12.020
53.84000 2.975
53.88000 13.212
53.92000 7.050
53.96000 11.384
54.00000 15.020
54.04000 7.107
54.08000 4.113
54.12000 5.050
54.16000 16.177
54.20000 6.071
54.24000 13.104
54.28000 12.005
54.32000 5.018
54.36000 9.063
54.40000 6.114
54.44000 14.096
54.48000 9.166
54.52000 15.111
54.56000 5.997
54.60000 13.166
54.64000 18.300
54.68000 4.048
54.72000 11.191
54.76000 7.932
54.80000 6.065
54.84000 13.215
54.88000 14.389
54.92000 11.037
54.96000 13.091
55.00000 15.374
55.04000 10.134
55.08000 10.097
55.12000 16.320
55.16000 12.188
55.20000 12.158
55.24000 8.996
55.28000 5.096
55.32000 12.127
55.36000 6.029
55.40000 16.082
55.44000 10.237
55.48000 5.051
55.52000 9.164
55.56000 10.128
55.60000 9.138
55.64000 10.106
55.68000 9.232
55.72000 8.062
55.76000 8.229
55.80000 12.156
55.84000 12.197
55.88000 7.173
55.92000 7.134
55.96000 6.113
56.00000 6.974
56.04000 11.261
56.08000 9.140
56.12000 9.032
56.16000 6.057
56.20000 6.109
56.24000 5.052
56.28000 6.026
56.32000 7.029
56.36000 8.254
56.40000 9.093
56.44000 2.052
56.48000 6.050
56.52000 13.983
56.56000 6.997
56.60000 10.054
56.64000 11.126
56.68000 9.122
56.72000 11.137
56.76000 11.072
56.80000 9.979
56.84000 6.096
56.88000 5.059
56.92000 7.086
56.96000 10.152
57.00000 5.067
57.04000 6.240
57.08000 8.088
57.12000 6.185
57.16000 7.185
57.20000 13.058
57.24000 12.197
57.28000 10.138
57.32000 8.232
57.36000 10.037
57.40000 10.108
57.44000 7.116
57.48000 14.321
57.52000 11.089
57.56000 9.082
57.60000 7.142
57.64000 7.121
57.68000 6.139
57.72000 13.068
57.76000 3.019
57.80000 7.175
57.84000 7.053
57.88000 11.125
57.92000 8.055
57.96000 2.022
58.00000 10.110
58.04000 10.153
58.08000 10.126
58.12000 7.040
58.16000 5.052
58.20000 8.139
58.24000 8.181
58.28000 3.989
58.32000 9.119
58.36000 9.106
58.40000 13.106
58.44000 7.121
58.48000 5.072
58.52000 10.081
58.56000 6.102
58.60000 5.928
58.64000 9.210
58.68000 14.193
58.72000 10.042
58.76000 7.009
58.80000 9.088
58.84000 10.001
58.88000 12.061
58.92000 11.084
58.96000 4.077
59.00000 3.991
59.04000 3.008
59.08000 4.004
59.12000 3.978
59.16000 5.072
59.20000 6.080
59.24000 9.156
59.28000 7.040
59.32000 4.013
59.36000 4.997
59.40000 7.188
59.44000 4.070
59.48000 8.111
59.52000 5.038
59.56000 6.966
59.60000 5.078
59.64000 6.106
59.68000 8.115
59.72000 8.095
59.76000 5.075
59.80000 11.191
59.84000 6.919
59.88000 3.027
59.92000 7.024
59.96000 10.111
60.00000 4.023
60.04000 7.041
60.08000 5.050
60.12000 2.978
60.16000 6.108
60.20000 11.244
60.24000 4.992
60.28000 9.195
60.32000 12.153
60.36000 5.939
60.40000 8.069
60.44000 9.127
60.48000 7.988
60.52000 10.107
60.56000 9.013
60.60000 4.070
60.64000 12.175
60.68000 9.186
60.72000 2.986
60.76000 7.085
60.80000 8.988
60.84000 4.032
60.88000 11.105
60.92000 8.129
60.96000 4.060
61.00000 10.074
61.04000 3.025
61.08000 10.149
61.12000 10.129
61.16000 6.094
61.20000 4.994
61.24000 5.073
61.28000 8.102
61.32000 8.097
61.36000 8.054
61.40000 1.024
61.44000 12.348
61.48000 9.167
61.52000 7.016
61.56000 5.112
61.60000 3.034
61.64000 10.142
61.68000 7.055
61.72000 9.108
61.76000 7.156
61.80000 8.107
61.84000 6.087
61.88000 8.098
61.92000 5.158
61.96000 7.160
62.00000 3.995
62.04000 3.060
62.08000 6.126
62.12000 4.072
62.16000 6.021
62.20000 7.126
62.24000 2.044
62.28000 6.028
62.32000 2.013
62.36000 6.995
62.40000 6.139
62.44000 8.077
62.48000 6.096
62.52000 12.310
62.56000 6.191
62.60000 10.000
62.64000 7.089
62.68000 7.017
62.72000 11.135
62.76000 9.160
62.80000 5.109
62.84000 6.103
62.88000 6.080
62.92000 3.083
62.96000 3.067
63.00000 5.108
63.04000 5.062
63.08000 6.061
63.12000 9.057
63.16000 1.996
63.20000 3.994
63.24000 6.111
63.28000 12.212
63.32000 2.983
63.36000 3.021
63.40000 3.002
63.44000 7.088
63.48000 7.028
63.52000 7.142
63.56000 6.988
63.60000 11.260
63.64000 5.986
63.68000 10.097
63.72000 9.072
63.76000 6.101
63.80000 9.063
63.84000 8.019
63.88000 8.073
63.92000 0.998
63.96000 3.025
64.00000 9.119
64.04000 8.051
64.08000 8.070
64.12000 4.048
64.16000 9.191
64.20000 2.014
64.24000 5.115
64.28000 6.109
64.32000 6.144
64.36000 7.117
64.40000 4.053
64.44000 6.125
64.48000 2.022
64.52000 8.964
64.56000 6.113
64.60000 8.059
64.64000 7.075
64.68000 6.160
64.72000 6.121
64.76000 14.102
64.80000 5.051
64.84000 8.116
64.88000 4.060
64.92000 11.190
64.96000 4.065
65.00000 2.023