File: XRD/XRD/11-09-2025/XY Data/01092025_BTO_omega_1_001_42_33-786_16-271.xy
20.00000 18.199
20.04000 20.217
20.08000 15.154
20.12000 13.112
20.16000 20.012
20.20000 19.000
20.24000 23.290
20.28000 13.277
20.32000 25.488
20.36000 20.309
20.40000 24.232
20.44000 15.197
20.48000 20.114
20.52000 24.374
20.56000 19.122
20.60000 19.307
20.64000 15.045
20.68000 17.346
20.72000 7.974
20.76000 19.299
20.80000 15.221
20.84000 23.276
20.88000 17.215
20.92000 23.514
20.96000 18.336
21.00000 29.544
21.04000 17.230
21.08000 16.148
21.12000 19.198
21.16000 24.239
21.20000 21.466
21.24000 22.645
21.28000 18.372
21.32000 21.307
21.36000 19.137
21.40000 10.991
21.44000 22.326
21.48000 16.241
21.52000 19.339
21.56000 21.312
21.60000 22.409
21.64000 15.413
21.68000 15.144
21.72000 22.166
21.76000 16.203
21.80000 21.384
21.84000 16.341
21.88000 19.223
21.92000 21.173
21.96000 20.183
22.00000 18.907
22.04000 21.378
22.08000 18.292
22.12000 17.253
22.16000 23.171
22.20000 21.279
22.24000 14.166
22.28000 17.175
22.32000 25.270
22.36000 22.221
22.40000 31.409
22.44000 12.249
22.48000 32.322
22.52000 35.434
22.56000 27.347
22.60000 13.255
22.64000 21.118
22.68000 16.053
22.72000 23.226
22.76000 31.411
22.80000 18.112
22.84000 18.321
22.88000 17.203
22.92000 25.455
22.96000 27.135
23.00000 19.047
23.04000 20.258
23.08000 18.140
23.12000 28.482
23.16000 22.265
23.20000 18.352
23.24000 29.266
23.28000 21.323
23.32000 25.153
23.36000 21.336
23.40000 30.559
23.44000 24.250
23.48000 20.264
23.52000 17.140
23.56000 29.538
23.60000 17.103
23.64000 29.363
23.68000 24.164
23.72000 29.344
23.76000 27.128
23.80000 24.360
23.84000 27.420
23.88000 20.018
23.92000 35.773
23.96000 22.192
24.00000 29.335
24.04000 25.151
24.08000 24.509
24.12000 27.505
24.16000 27.490
24.20000 20.257
24.24000 27.364
24.28000 39.632
24.32000 26.397
24.36000 27.469
24.40000 46.561
24.44000 37.459
24.48000 26.279
24.52000 31.376
24.56000 24.267
24.60000 22.318
24.64000 27.184
24.68000 39.343
24.72000 32.254
24.76000 37.559
24.80000 27.293
24.84000 29.397
24.88000 33.235
24.92000 37.541
24.96000 32.464
25.00000 32.329
25.04000 28.309
25.08000 38.808
25.12000 34.085
25.16000 39.498
25.20000 35.405
25.24000 31.549
25.28000 34.516
25.32000 38.743
25.36000 40.527
25.40000 34.296
25.44000 43.439
25.48000 43.444
25.52000 50.817
25.56000 40.565
25.60000 39.414
25.64000 29.244
25.68000 38.661
25.72000 45.843
25.76000 48.278
25.80000 40.607
25.84000 43.471
25.88000 44.845
25.92000 41.629
25.96000 39.516
26.00000 45.495
26.04000 53.692
26.08000 50.661
26.12000 45.712
26.16000 42.479
26.20000 55.540
26.24000 53.529
26.28000 47.805
26.32000 45.805
26.36000 48.835
26.40000 41.948
26.44000 42.736
26.48000 50.642
26.52000 59.323
26.56000 49.733
26.60000 56.897
26.64000 58.051
26.68000 45.333
26.72000 44.437
26.76000 47.522
26.80000 47.565
26.84000 52.548
26.88000 41.724
26.92000 49.597
26.96000 51.680
27.00000 50.930
27.04000 46.629
27.08000 49.525
27.12000 56.772
27.16000 49.519
27.20000 39.877
27.24000 44.585
27.28000 61.812
27.32000 46.510
27.36000 54.703
27.40000 61.932
27.44000 76.780
27.48000 51.715
27.52000 51.720
27.56000 46.391
27.60000 50.367
27.64000 62.536
27.68000 53.935
27.72000 52.462
27.76000 56.919
27.80000 52.810
27.84000 48.357
27.88000 52.580
27.92000 56.711
27.96000 59.023
28.00000 58.826
28.04000 52.737
28.08000 58.629
28.12000 46.724
28.16000 47.628
28.20000 62.630
28.24000 53.940
28.28000 59.896
28.32000 59.637
28.36000 44.731
28.40000 44.877
28.44000 39.494
28.48000 46.620
28.52000 66.931
28.56000 64.163
28.60000 48.830
28.64000 67.806
28.68000 51.872
28.72000 42.556
28.76000 36.745
28.80000 46.623
28.84000 51.035
28.88000 50.726
28.92000 40.490
28.96000 43.318
29.00000 32.263
29.04000 51.502
29.08000 43.512
29.12000 46.766
29.16000 40.768
29.20000 49.596
29.24000 51.649
29.28000 42.558
29.32000 47.606
29.36000 40.676
29.40000 39.436
29.44000 45.564
29.48000 46.787
29.52000 44.504
29.56000 40.624
29.60000 50.666
29.64000 45.554
29.68000 43.469
29.72000 33.591
29.76000 34.824
29.80000 40.290
29.84000 41.582
29.88000 37.228
29.92000 42.525
29.96000 45.468
30.00000 42.514
30.04000 41.606
30.08000 44.456
30.12000 36.395
30.16000 42.356
30.20000 30.223
30.24000 36.489
30.28000 40.477
30.32000 35.675
30.36000 34.278
30.40000 32.473
30.44000 34.362
30.48000 38.595
30.52000 37.635
30.56000 29.313
30.60000 35.559
30.64000 37.617
30.68000 28.190
30.72000 33.499
30.76000 33.338
30.80000 31.508
30.84000 39.376
30.88000 41.347
30.92000 34.470
30.96000 23.186
31.00000 40.374
31.04000 37.468
31.08000 24.283
31.12000 33.227
31.16000 29.421
31.20000 26.489
31.24000 27.419
31.28000 37.401
31.32000 29.693
31.36000 39.449
31.40000 29.570
31.44000 21.274
31.48000 31.335
31.52000 31.372
31.56000 23.376
31.60000 30.321
31.64000 18.283
31.68000 22.248
31.72000 30.295
31.76000 32.353
31.80000 35.657
31.84000 23.247
31.88000 23.264
31.92000 17.296
31.96000 28.483
32.00000 26.355
32.04000 28.453
32.08000 29.353
32.12000 33.528
32.16000 28.454
32.20000 25.327
32.24000 24.308
32.28000 24.295
32.32000 22.099
32.36000 26.246
32.40000 36.431
32.44000 25.354
32.48000 25.121
32.52000 17.132
32.56000 28.198
32.60000 27.325
32.64000 27.316
32.68000 23.265
32.72000 26.192
32.76000 21.326
32.80000 21.204
32.84000 21.317
32.88000 19.240
32.92000 19.350
32.96000 24.455
33.00000 19.245
33.04000 19.343
33.08000 16.180
33.12000 10.086
33.16000 21.379
33.20000 16.213
33.24000 15.048
33.28000 24.266
33.32000 11.115
33.36000 27.231
33.40000 18.277
33.44000 14.134
33.48000 31.340
33.52000 21.281
33.56000 15.159
33.60000 15.332
33.64000 13.265
33.68000 16.035
33.72000 19.288
33.76000 13.291
33.80000 23.301
33.84000 22.305
33.88000 18.183
33.92000 17.347
33.96000 15.012
34.00000 20.200
34.04000 22.245
34.08000 14.244
34.12000 22.475
34.16000 18.294
34.20000 15.308
34.24000 23.299
34.28000 14.091
34.32000 14.209
34.36000 15.186
34.40000 17.257
34.44000 18.151
34.48000 19.203
34.52000 15.345
34.56000 15.386
34.60000 11.241
34.64000 16.218
34.68000 14.083
34.72000 11.086
34.76000 18.153
34.80000 17.156
34.84000 12.043
34.88000 14.069
34.92000 18.292
34.96000 21.086
35.00000 13.116
35.04000 14.107
35.08000 20.153
35.12000 10.177
35.16000 18.226
35.20000 14.169
35.24000 15.229
35.28000 14.487
35.32000 14.292
35.36000 17.104
35.40000 18.179
35.44000 7.109
35.48000 12.197
35.52000 13.232
35.56000 12.220
35.60000 15.068
35.64000 13.210
35.68000 15.174
35.72000 14.194
35.76000 18.124
35.80000 13.130
35.84000 17.293
35.88000 13.129
35.92000 14.151
35.96000 15.215
36.00000 17.112
36.04000 17.145
36.08000 20.258
36.12000 14.078
36.16000 18.268
36.20000 21.408
36.24000 20.175
36.28000 16.121
36.32000 11.124
36.36000 24.250
36.40000 12.023
36.44000 22.487
36.48000 15.013
36.52000 18.362
36.56000 20.204
36.60000 13.229
36.64000 14.094
36.68000 15.526
36.72000 13.094
36.76000 3.038
36.80000 17.131
36.84000 19.374
36.88000 12.310
36.92000 15.198
36.96000 17.221
37.00000 19.254
37.04000 15.090
37.08000 11.198
37.12000 13.177
37.16000 11.195
37.20000 17.343
37.24000 16.268
37.28000 12.109
37.32000 14.226
37.36000 19.255
37.40000 20.365
37.44000 20.242
37.48000 14.209
37.52000 19.145
37.56000 14.112
37.60000 15.155
37.64000 18.206
37.68000 15.214
37.72000 16.185
37.76000 18.346
37.80000 13.095
37.84000 14.132
37.88000 16.185
37.92000 20.356
37.96000 12.197
38.00000 18.345
38.04000 15.136
38.08000 15.255
38.12000 15.289
38.16000 26.301
38.20000 16.178
38.24000 24.271
38.28000 14.308
38.32000 15.040
38.36000 13.176
38.40000 11.084
38.44000 23.338
38.48000 12.156
38.52000 17.181
38.56000 18.281
38.60000 24.265
38.64000 11.175
38.68000 14.111
38.72000 21.213
38.76000 18.198
38.80000 20.125
38.84000 12.110
38.88000 15.309
38.92000 29.322
38.96000 18.146
39.00000 25.206
39.04000 23.531
39.08000 18.307
39.12000 17.152
39.16000 17.162
39.20000 28.377
39.24000 21.301
39.28000 16.171
39.32000 20.004
39.36000 25.302
39.40000 15.338
39.44000 23.390
39.48000 19.243
39.52000 23.214
39.56000 24.158
39.60000 22.217
39.64000 25.437
39.68000 21.262
39.72000 11.105
39.76000 16.105
39.80000 17.290
39.84000 22.321
39.88000 19.166
39.92000 21.338
39.96000 18.144
40.00000 20.194
40.04000 14.128
40.08000 18.233
40.12000 21.373
40.16000 24.456
40.20000 18.417
40.24000 18.376
40.28000 24.408
40.32000 21.221
40.36000 22.270
40.40000 18.092
40.44000 16.179
40.48000 23.179
40.52000 17.270
40.56000 10.153
40.60000 24.545
40.64000 22.224
40.68000 15.106
40.72000 22.205
40.76000 19.323
40.80000 12.033
40.84000 21.353
40.88000 18.345
40.92000 17.208
40.96000 14.087
41.00000 19.244
41.04000 26.326
41.08000 19.339
41.12000 31.558
41.16000 18.300
41.20000 21.190
41.24000 20.113
41.28000 19.316
41.32000 20.188
41.36000 26.373
41.40000 25.503
41.44000 19.299
41.48000 24.187
41.52000 22.308
41.56000 26.422
41.60000 18.318
41.64000 13.109
41.68000 23.398
41.72000 18.329
41.76000 25.372
41.80000 26.413
41.84000 20.238
41.88000 15.257
41.92000 16.198
41.96000 15.261
42.00000 17.345
42.04000 27.206
42.08000 21.267
42.12000 29.087
42.16000 12.200
42.20000 22.268
42.24000 27.324
42.28000 20.087
42.32000 18.153
42.36000 15.252
42.40000 24.240
42.44000 19.537
42.48000 23.311
42.52000 26.171
42.56000 27.316
42.60000 20.382
42.64000 25.412
42.68000 24.397
42.72000 29.326
42.76000 20.262
42.80000 18.229
42.84000 18.142
42.88000 26.387
42.92000 17.407
42.96000 23.637
43.00000 15.093
43.04000 33.369
43.08000 15.249
43.12000 16.287
43.16000 18.157
43.20000 25.323
43.24000 17.127
43.28000 20.223
43.32000 12.169
43.36000 22.363
43.40000 13.144
43.44000 18.248
43.48000 26.290
43.52000 21.272
43.56000 16.235
43.60000 27.148
43.64000 20.463
43.68000 18.095
43.72000 19.235
43.76000 15.367
43.80000 25.188
43.84000 17.142
43.88000 22.374
43.92000 12.256
43.96000 26.572
44.00000 19.177
44.04000 12.250
44.08000 24.389
44.12000 16.166
44.16000 18.295
44.20000 26.222
44.24000 11.159
44.28000 23.111
44.32000 24.264
44.36000 18.247
44.40000 16.169
44.44000 21.300
44.48000 23.224
44.52000 12.236
44.56000 15.189
44.60000 23.387
44.64000 23.240
44.68000 20.167
44.72000 23.676
44.76000 20.295
44.80000 27.238
44.84000 14.114
44.88000 16.101
44.92000 18.298
44.96000 15.082
45.00000 15.225
45.04000 15.184
45.08000 11.195
45.12000 15.149
45.16000 31.411
45.20000 24.322
45.24000 15.188
45.28000 21.091
45.32000 12.352
45.36000 18.119
45.40000 9.104
45.44000 16.226
45.48000 17.291
45.52000 22.298
45.56000 18.212
45.60000 22.374
45.64000 13.253
45.68000 20.285
45.72000 23.323
45.76000 13.361
45.80000 17.130
45.84000 24.334
45.88000 15.226
45.92000 23.439
45.96000 23.407
46.00000 21.366
46.04000 22.462
46.08000 22.463
46.12000 16.179
46.16000 25.347
46.20000 30.282
46.24000 21.226
46.28000 21.244
46.32000 18.251
46.36000 18.405
46.40000 23.321
46.44000 25.486
46.48000 21.322
46.52000 22.220
46.56000 14.204
46.60000 21.228
46.64000 17.187
46.68000 15.045
46.72000 16.082
46.76000 19.049
46.80000 18.236
46.84000 17.217
46.88000 20.088
46.92000 12.092
46.96000 18.332
47.00000 16.343
47.04000 15.187
47.08000 11.119
47.12000 17.083
47.16000 24.297
47.20000 13.030
47.24000 20.274
47.28000 22.208
47.32000 25.443
47.36000 21.254
47.40000 17.251
47.44000 20.283
47.48000 15.090
47.52000 12.242
47.56000 15.062
47.60000 23.445
47.64000 17.343
47.68000 22.148
47.72000 19.312
47.76000 19.135
47.80000 21.437
47.84000 15.212
47.88000 17.235
47.92000 31.638
47.96000 18.318
48.00000 15.142
48.04000 17.375
48.08000 20.358
48.12000 25.498
48.16000 17.174
48.20000 11.290
48.24000 16.188
48.28000 20.293
48.32000 20.232
48.36000 16.252
48.40000 9.078
48.44000 19.327
48.48000 18.140
48.52000 15.236
48.56000 13.238
48.60000 13.206
48.64000 21.366
48.68000 20.147
48.72000 16.122
48.76000 11.092
48.80000 14.096
48.84000 24.204
48.88000 19.586
48.92000 18.372
48.96000 14.154
49.00000 15.163
49.04000 17.410
49.08000 17.272
49.12000 18.201
49.16000 20.189
49.20000 19.206
49.24000 17.234
49.28000 19.166
49.32000 17.324
49.36000 14.254
49.40000 17.144
49.44000 19.458
49.48000 7.069
49.52000 15.139
49.56000 23.265
49.60000 21.178
49.64000 24.487
49.68000 14.025
49.72000 28.536
49.76000 12.097
49.80000 14.216
49.84000 12.020
49.88000 18.241
49.92000 19.088
49.96000 16.025
50.00000 18.225
50.04000 13.166
50.08000 22.121
50.12000 17.320
50.16000 15.201
50.20000 10.049
50.24000 18.245
50.28000 15.234
50.32000 22.247
50.36000 17.086
50.40000 10.161
50.44000 11.206
50.48000 9.196
50.52000 8.021
50.56000 17.177
50.60000 19.291
50.64000 16.216
50.68000 11.100
50.72000 11.060
50.76000 19.276
50.80000 10.115
50.84000 16.177
50.88000 20.393
50.92000 15.279
50.96000 20.180
51.00000 26.388
51.04000 14.053
51.08000 9.106
51.12000 8.184
51.16000 18.220
51.20000 11.301
51.24000 12.051
51.28000 19.065
51.32000 15.124
51.36000 23.563
51.40000 16.157
51.44000 17.212
51.48000 16.242
51.52000 18.093
51.56000 17.323
51.60000 18.199
51.64000 13.237
51.68000 12.419
51.72000 13.192
51.76000 7.982
51.80000 8.103
51.84000 11.230
51.88000 10.158
51.92000 17.298
51.96000 19.270
52.00000 10.196
52.04000 17.304
52.08000 13.187
52.12000 14.130
52.16000 10.314
52.20000 23.321
52.24000 14.271
52.28000 18.252
52.32000 12.047
52.36000 13.282
52.40000 17.357
52.44000 19.278
52.48000 21.127
52.52000 15.320
52.56000 18.207
52.60000 15.218
52.64000 11.107
52.68000 27.451
52.72000 17.150
52.76000 16.270
52.80000 15.229
52.84000 20.273
52.88000 16.090
52.92000 18.208
52.96000 22.245
53.00000 16.188
53.04000 14.135
53.08000 9.102
53.12000 16.232
53.16000 15.114
53.20000 12.201
53.24000 17.109
53.28000 10.075
53.32000 8.216
53.36000 9.214
53.40000 9.189
53.44000 15.371
53.48000 13.194
53.52000 16.366
53.56000 14.166
53.60000 18.176
53.64000 10.261
53.68000 12.141
53.72000 16.205
53.76000 23.354
53.80000 13.201
53.84000 11.183
53.88000 19.211
53.92000 18.312
53.96000 19.428
54.00000 15.145
54.04000 14.291
54.08000 18.165
54.12000 11.120
54.16000 12.225
54.20000 14.084
54.24000 14.179
54.28000 14.250
54.32000 12.209
54.36000 10.185
54.40000 12.049
54.44000 11.083
54.48000 14.133
54.52000 17.104
54.56000 13.227
54.60000 10.141
54.64000 16.147
54.68000 10.081
54.72000 10.075
54.76000 11.127
54.80000 12.185
54.84000 10.330
54.88000 16.224
54.92000 17.166
54.96000 20.103
55.00000 15.231
55.04000 16.219
55.08000 21.474
55.12000 14.240
55.16000 17.216
55.20000 14.153
55.24000 17.193
55.28000 12.011
55.32000 13.130
55.36000 14.118
55.40000 13.149
55.44000 10.203
55.48000 15.126
55.52000 18.136
55.56000 12.202
55.60000 11.252
55.64000 6.987
55.68000 15.072
55.72000 14.360
55.76000 19.029
55.80000 14.155
55.84000 13.166
55.88000 6.130
55.92000 8.114
55.96000 19.161
56.00000 11.165
56.04000 8.052
56.08000 12.177
56.12000 20.129
56.16000 14.214
56.20000 14.324
56.24000 13.142
56.28000 18.203
56.32000 11.008
56.36000 11.140
56.40000 12.144
56.44000 6.066
56.48000 14.140
56.52000 11.063
56.56000 8.109
56.60000 10.194
56.64000 15.070
56.68000 9.098
56.72000 18.284
56.76000 10.140
56.80000 13.102
56.84000 12.090
56.88000 14.176
56.92000 15.179
56.96000 7.213
57.00000 19.339
57.04000 11.217
57.08000 11.127
57.12000 11.147
57.16000 9.951
57.20000 10.208
57.24000 10.032
57.28000 14.139
57.32000 19.138
57.36000 14.277
57.40000 16.205
57.44000 19.407
57.48000 14.287
57.52000 13.086
57.56000 9.042
57.60000 20.270
57.64000 9.210
57.68000 8.172
57.72000 11.024
57.76000 13.157
57.80000 19.283
57.84000 17.139
57.88000 5.051
57.92000 15.536
57.96000 14.172
58.00000 16.207
58.04000 16.029
58.08000 7.189
58.12000 10.190
58.16000 9.066
58.20000 9.132
58.24000 15.163
58.28000 16.333
58.32000 15.189
58.36000 14.175
58.40000 16.077
58.44000 16.307
58.48000 8.058
58.52000 11.182
58.56000 11.156
58.60000 15.167
58.64000 12.251
58.68000 10.170
58.72000 11.130
58.76000 8.003
58.80000 19.209
58.84000 5.135
58.88000 11.154
58.92000 9.153
58.96000 13.072
59.00000 10.118
59.04000 11.403
59.08000 10.119
59.12000 10.178
59.16000 13.077
59.20000 14.224
59.24000 12.168
59.28000 14.230
59.32000 12.147
59.36000 7.070
59.40000 17.193
59.44000 7.203
59.48000 7.041
59.52000 7.195
59.56000 7.040
59.60000 4.021
59.64000 18.208
59.68000 14.141
59.72000 8.105
59.76000 9.133
59.80000 11.186
59.84000 22.295
59.88000 13.104
59.92000 7.112
59.96000 14.353
60.00000 13.283
60.04000 18.122
60.08000 9.119
60.12000 7.031
60.16000 14.134
60.20000 9.147
60.24000 14.103
60.28000 11.060
60.32000 15.265
60.36000 10.246
60.40000 8.126
60.44000 14.110
60.48000 9.011
60.52000 7.133
60.56000 10.142
60.60000 11.155
60.64000 9.032
60.68000 11.103
60.72000 9.176
60.76000 6.037
60.80000 12.195
60.84000 11.088
60.88000 8.066
60.92000 14.160
60.96000 15.309
61.00000 10.244
61.04000 10.110
61.08000 15.100
61.12000 13.106
61.16000 13.215
61.20000 4.078
61.24000 8.101
61.28000 10.133
61.32000 6.956
61.36000 6.039
61.40000 12.072
61.44000 12.128
61.48000 19.097
61.52000 12.153
61.56000 8.086
61.60000 10.184
61.64000 11.092
61.68000 13.023
61.72000 17.318
61.76000 9.095
61.80000 9.289
61.84000 12.063
61.88000 6.113
61.92000 15.370
61.96000 13.156
62.00000 10.129
62.04000 9.139
62.08000 13.164
62.12000 9.142
62.16000 14.060
62.20000 7.115
62.24000 9.173
62.28000 5.229
62.32000 9.081
62.36000 4.029
62.40000 4.996
62.44000 10.104
62.48000 12.224
62.52000 5.026
62.56000 5.002
62.60000 16.120
62.64000 9.227
62.68000 16.346
62.72000 9.223
62.76000 9.071
62.80000 19.255
62.84000 7.059
62.88000 6.181
62.92000 5.170
62.96000 18.104
63.00000 6.009
63.04000 14.065
63.08000 9.130
63.12000 16.416
63.16000 12.978
63.20000 9.085
63.24000 9.215
63.28000 12.289
63.32000 8.009
63.36000 13.232
63.40000 9.067
63.44000 17.131
63.48000 12.299
63.52000 12.172
63.56000 10.205
63.60000 12.239
63.64000 13.053
63.68000 10.153
63.72000 17.124
63.76000 6.093
63.80000 4.103
63.84000 8.947
63.88000 11.107
63.92000 14.115
63.96000 5.056
64.00000 9.229
64.04000 12.132
64.08000 9.060
64.12000 12.203
64.16000 10.085
64.20000 6.052
64.24000 7.134
64.28000 12.087
64.32000 12.013
64.36000 8.141
64.40000 15.040
64.44000 6.058
64.48000 9.088
64.52000 5.038
64.56000 15.299
64.60000 12.145
64.64000 12.100
64.68000 10.062
64.72000 15.215
64.76000 12.169
64.80000 9.192
64.84000 12.108
64.88000 8.161
64.92000 3.062
64.96000 13.245
65.00000 11.155