File: XRD/XRD/11-09-2025/XY Data/01092025_BTO_omega_0_5_001_22_23-381_29-319.xy
20.00000 21.277
20.04000 11.098
20.08000 14.169
20.12000 17.223
20.16000 18.232
20.20000 18.210
20.24000 16.384
20.28000 15.021
20.32000 24.265
20.36000 24.106
20.40000 20.232
20.44000 20.450
20.48000 29.362
20.52000 15.360
20.56000 22.414
20.60000 18.163
20.64000 12.098
20.68000 20.409
20.72000 17.218
20.76000 11.222
20.80000 17.098
20.84000 13.019
20.88000 17.108
20.92000 19.288
20.96000 16.120
21.00000 21.224
21.04000 28.289
21.08000 26.402
21.12000 11.100
21.16000 26.402
21.20000 27.112
21.24000 19.343
21.28000 28.248
21.32000 20.381
21.36000 18.335
21.40000 20.235
21.44000 24.386
21.48000 17.299
21.52000 16.203
21.56000 18.136
21.60000 17.094
21.64000 21.386
21.68000 18.281
21.72000 26.238
21.76000 21.240
21.80000 10.130
21.84000 26.370
21.88000 12.175
21.92000 27.614
21.96000 15.129
22.00000 27.271
22.04000 24.262
22.08000 23.270
22.12000 20.194
22.16000 25.250
22.20000 25.137
22.24000 24.277
22.28000 18.274
22.32000 33.580
22.36000 25.184
22.40000 24.322
22.44000 14.088
22.48000 26.170
22.52000 15.261
22.56000 20.298
22.60000 18.292
22.64000 24.293
22.68000 21.246
22.72000 14.028
22.76000 27.186
22.80000 25.389
22.84000 26.446
22.88000 22.154
22.92000 21.283
22.96000 33.383
23.00000 27.607
23.04000 22.167
23.08000 19.405
23.12000 23.217
23.16000 20.199
23.20000 19.186
23.24000 27.423
23.28000 26.411
23.32000 29.481
23.36000 24.578
23.40000 25.291
23.44000 31.423
23.48000 34.540
23.52000 35.257
23.56000 27.341
23.60000 29.298
23.64000 30.451
23.68000 21.484
23.72000 38.597
23.76000 28.406
23.80000 25.321
23.84000 34.513
23.88000 32.159
23.92000 24.251
23.96000 25.253
24.00000 34.217
24.04000 33.244
24.08000 35.649
24.12000 29.331
24.16000 28.420
24.20000 28.369
24.24000 33.519
24.28000 31.337
24.32000 30.317
24.36000 31.551
24.40000 39.690
24.44000 22.259
24.48000 37.593
24.52000 28.357
24.56000 32.519
24.60000 37.830
24.64000 37.409
24.68000 42.430
24.72000 50.565
24.76000 35.241
24.80000 42.593
24.84000 40.436
24.88000 32.731
24.92000 35.241
24.96000 42.457
25.00000 32.567
25.04000 35.585
25.08000 47.476
25.12000 33.362
25.16000 44.333
25.20000 46.669
25.24000 42.552
25.28000 41.404
25.32000 45.718
25.36000 40.669
25.40000 51.850
25.44000 42.734
25.48000 34.669
25.52000 37.389
25.56000 48.604
25.60000 44.483
25.64000 57.453
25.68000 43.721
25.72000 48.716
25.76000 51.589
25.80000 49.598
25.84000 50.605
25.88000 42.562
25.92000 45.611
25.96000 54.559
26.00000 46.496
26.04000 66.085
26.08000 44.592
26.12000 47.843
26.16000 57.642
26.20000 63.137
26.24000 36.665
26.28000 52.576
26.32000 50.565
26.36000 41.383
26.40000 58.643
26.44000 50.652
26.48000 59.030
26.52000 63.554
26.56000 52.511
26.60000 40.660
26.64000 54.750
26.68000 65.771
26.72000 46.488
26.76000 57.790
26.80000 42.735
26.84000 60.480
26.88000 67.826
26.92000 60.921
26.96000 51.873
27.00000 72.896
27.04000 54.698
27.08000 58.677
27.12000 65.052
27.16000 69.590
27.20000 51.935
27.24000 61.045
27.28000 82.785
27.32000 64.767
27.36000 66.944
27.40000 63.265
27.44000 67.900
27.48000 66.939
27.52000 71.216
27.56000 75.039
27.60000 58.794
27.64000 64.745
27.68000 59.911
27.72000 74.236
27.76000 57.558
27.80000 77.230
27.84000 69.094
27.88000 55.624
27.92000 78.888
27.96000 58.958
28.00000 50.824
28.04000 61.834
28.08000 71.729
28.12000 72.887
28.16000 56.465
28.20000 65.252
28.24000 56.585
28.28000 52.821
28.32000 69.061
28.36000 77.970
28.40000 50.689
28.44000 53.943
28.48000 72.136
28.52000 53.589
28.56000 66.837
28.60000 53.785
28.64000 63.133
28.68000 69.675
28.72000 65.761
28.76000 62.548
28.80000 66.989
28.84000 67.172
28.88000 61.513
28.92000 57.108
28.96000 65.146
29.00000 54.854
29.04000 49.626
29.08000 54.851
29.12000 55.653
29.16000 50.703
29.20000 51.693
29.24000 72.205
29.28000 57.978
29.32000 44.626
29.36000 56.504
29.40000 57.604
29.44000 39.565
29.48000 59.932
29.52000 46.753
29.56000 46.747
29.60000 51.689
29.64000 45.707
29.68000 50.628
29.72000 55.828
29.76000 55.659
29.80000 53.794
29.84000 49.298
29.88000 44.420
29.92000 54.980
29.96000 50.910
30.00000 47.820
30.04000 35.351
30.08000 48.832
30.12000 37.397
30.16000 53.697
30.20000 33.396
30.24000 43.662
30.28000 39.633
30.32000 40.449
30.36000 43.383
30.40000 50.741
30.44000 38.448
30.48000 50.584
30.52000 37.491
30.56000 33.274
30.60000 45.561
30.64000 45.426
30.68000 45.865
30.72000 44.709
30.76000 32.419
30.80000 40.359
30.84000 48.879
30.88000 37.376
30.92000 44.400
30.96000 43.603
31.00000 26.441
31.04000 38.328
31.08000 30.375
31.12000 42.718
31.16000 44.547
31.20000 42.538
31.24000 33.433
31.28000 33.469
31.32000 41.479
31.36000 24.405
31.40000 37.431
31.44000 34.507
31.48000 44.583
31.52000 44.912
31.56000 30.702
31.60000 26.034
31.64000 37.474
31.68000 27.439
31.72000 19.007
31.76000 27.414
31.80000 26.457
31.84000 31.177
31.88000 26.326
31.92000 30.301
31.96000 24.291
32.00000 40.707
32.04000 22.166
32.08000 30.349
32.12000 27.221
32.16000 24.438
32.20000 25.319
32.24000 25.699
32.28000 27.196
32.32000 23.390
32.36000 17.130
32.40000 24.357
32.44000 23.270
32.48000 29.316
32.52000 20.194
32.56000 28.335
32.60000 29.400
32.64000 38.590
32.68000 26.408
32.72000 21.207
32.76000 29.384
32.80000 29.263
32.84000 21.079
32.88000 27.131
32.92000 16.215
32.96000 28.190
33.00000 22.268
33.04000 20.529
33.08000 25.101
33.12000 23.435
33.16000 27.338
33.20000 30.382
33.24000 19.257
33.28000 23.971
33.32000 23.231
33.36000 27.555
33.40000 18.365
33.44000 16.307
33.48000 25.328
33.52000 13.066
33.56000 22.410
33.60000 26.451
33.64000 24.169
33.68000 21.250
33.72000 13.248
33.76000 20.518
33.80000 23.261
33.84000 15.442
33.88000 16.018
33.92000 33.542
33.96000 16.118
34.00000 13.178
34.04000 19.433
34.08000 16.207
34.12000 19.244
34.16000 22.122
34.20000 18.229
34.24000 30.225
34.28000 17.179
34.32000 15.279
34.36000 24.276
34.40000 17.275
34.44000 19.370
34.48000 14.230
34.52000 14.158
34.56000 17.273
34.60000 19.192
34.64000 22.211
34.68000 14.068
34.72000 21.233
34.76000 21.127
34.80000 24.461
34.84000 16.105
34.88000 27.474
34.92000 16.123
34.96000 20.221
35.00000 20.349
35.04000 23.142
35.08000 15.121
35.12000 20.191
35.16000 16.143
35.20000 18.247
35.24000 13.181
35.28000 22.229
35.32000 19.158
35.36000 17.135
35.40000 24.412
35.44000 20.100
35.48000 24.176
35.52000 13.109
35.56000 17.159
35.60000 22.352
35.64000 6.092
35.68000 15.139
35.72000 15.105
35.76000 14.228
35.80000 19.220
35.84000 12.146
35.88000 23.185
35.92000 14.160
35.96000 19.156
36.00000 20.356
36.04000 14.148
36.08000 22.202
36.12000 14.169
36.16000 18.253
36.20000 18.277
36.24000 25.392
36.28000 14.255
36.32000 16.314
36.36000 13.073
36.40000 17.140
36.44000 19.164
36.48000 19.204
36.52000 23.255
36.56000 22.297
36.60000 19.419
36.64000 9.101
36.68000 22.269
36.72000 24.433
36.76000 18.147
36.80000 18.328
36.84000 14.177
36.88000 14.291
36.92000 19.169
36.96000 12.031
37.00000 20.509
37.04000 8.079
37.08000 20.155
37.12000 21.089
37.16000 18.125
37.20000 23.308
37.24000 28.461
37.28000 25.356
37.32000 17.304
37.36000 28.226
37.40000 15.057
37.44000 17.066
37.48000 14.177
37.52000 18.133
37.56000 20.221
37.60000 13.037
37.64000 16.303
37.68000 17.148
37.72000 23.383
37.76000 19.237
37.80000 21.466
37.84000 21.304
37.88000 20.484
37.92000 15.277
37.96000 19.100
38.00000 17.365
38.04000 15.128
38.08000 22.367
38.12000 25.368
38.16000 25.268
38.20000 18.231
38.24000 18.315
38.28000 15.154
38.32000 22.295
38.36000 32.236
38.40000 16.042
38.44000 20.073
38.48000 29.266
38.52000 19.323
38.56000 20.300
38.60000 26.152
38.64000 19.467
38.68000 16.139
38.72000 20.134
38.76000 35.655
38.80000 19.213
38.84000 22.287
38.88000 23.298
38.92000 21.136
38.96000 27.480
39.00000 27.369
39.04000 27.234
39.08000 16.243
39.12000 19.267
39.16000 20.287
39.20000 16.046
39.24000 21.230
39.28000 20.390
39.32000 19.305
39.36000 17.169
39.40000 17.205
39.44000 19.308
39.48000 24.299
39.52000 23.484
39.56000 31.367
39.60000 15.168
39.64000 29.237
39.68000 25.437
39.72000 20.374
39.76000 29.399
39.80000 35.552
39.84000 22.269
39.88000 21.057
39.92000 22.361
39.96000 23.172
40.00000 13.225
40.04000 20.292
40.08000 23.334
40.12000 25.314
40.16000 11.241
40.20000 26.508
40.24000 22.335
40.28000 29.538
40.32000 20.186
40.36000 15.327
40.40000 19.268
40.44000 23.440
40.48000 17.374
40.52000 18.428
40.56000 28.386
40.60000 18.283
40.64000 22.118
40.68000 19.092
40.72000 22.335
40.76000 22.256
40.80000 25.483
40.84000 16.208
40.88000 21.282
40.92000 12.120
40.96000 25.317
41.00000 21.177
41.04000 23.429
41.08000 27.402
41.12000 15.163
41.16000 16.168
41.20000 25.376
41.24000 22.033
41.28000 19.299
41.32000 17.226
41.36000 23.217
41.40000 16.295
41.44000 19.117
41.48000 29.413
41.52000 14.105
41.56000 23.357
41.60000 21.466
41.64000 24.492
41.68000 20.343
41.72000 24.315
41.76000 19.278
41.80000 22.512
41.84000 21.483
41.88000 25.458
41.92000 27.352
41.96000 24.411
42.00000 23.285
42.04000 20.165
42.08000 20.529
42.12000 20.409
42.16000 23.106
42.20000 23.116
42.24000 27.343
42.28000 19.135
42.32000 14.168
42.36000 24.274
42.40000 24.384
42.44000 18.320
42.48000 14.139
42.52000 12.170
42.56000 25.289
42.60000 14.273
42.64000 21.357
42.68000 23.258
42.72000 17.229
42.76000 18.197
42.80000 24.300
42.84000 16.418
42.88000 22.338
42.92000 22.193
42.96000 20.365
43.00000 19.163
43.04000 16.266
43.08000 21.153
43.12000 16.330
43.16000 19.333
43.20000 24.344
43.24000 18.125
43.28000 30.578
43.32000 23.340
43.36000 26.324
43.40000 22.364
43.44000 20.306
43.48000 25.381
43.52000 22.336
43.56000 31.391
43.60000 17.216
43.64000 16.131
43.68000 26.386
43.72000 25.093
43.76000 21.371
43.80000 19.400
43.84000 20.137
43.88000 23.384
43.92000 24.199
43.96000 25.454
44.00000 26.188
44.04000 26.353
44.08000 25.123
44.12000 19.386
44.16000 30.416
44.20000 18.213
44.24000 26.397
44.28000 20.291
44.32000 20.421
44.36000 27.436
44.40000 19.306
44.44000 19.216
44.48000 21.376
44.52000 25.323
44.56000 24.158
44.60000 27.394
44.64000 29.384
44.68000 19.184
44.72000 16.193
44.76000 24.221
44.80000 29.219
44.84000 26.277
44.88000 21.424
44.92000 19.208
44.96000 17.177
45.00000 24.103
45.04000 18.219
45.08000 18.256
45.12000 17.316
45.16000 24.269
45.20000 19.250
45.24000 23.247
45.28000 19.243
45.32000 18.197
45.36000 20.052
45.40000 25.440
45.44000 26.590
45.48000 16.182
45.52000 28.414
45.56000 18.122
45.60000 26.220
45.64000 26.267
45.68000 16.336
45.72000 23.456
45.76000 28.390
45.80000 21.165
45.84000 18.108
45.88000 19.099
45.92000 23.299
45.96000 22.192
46.00000 28.401
46.04000 20.170
46.08000 19.257
46.12000 25.365
46.16000 30.654
46.20000 21.117
46.24000 24.419
46.28000 18.307
46.32000 14.211
46.36000 15.206
46.40000 19.186
46.44000 19.391
46.48000 31.291
46.52000 20.287
46.56000 22.163
46.60000 21.189
46.64000 21.302
46.68000 15.322
46.72000 17.166
46.76000 18.017
46.80000 23.134
46.84000 25.140
46.88000 16.199
46.92000 22.142
46.96000 16.190
47.00000 16.195
47.04000 24.204
47.08000 25.469
47.12000 25.237
47.16000 17.179
47.20000 11.169
47.24000 23.086
47.28000 22.127
47.32000 20.360
47.36000 25.237
47.40000 24.186
47.44000 21.286
47.48000 21.228
47.52000 27.345
47.56000 20.272
47.60000 22.244
47.64000 18.226
47.68000 20.162
47.72000 16.356
47.76000 21.098
47.80000 18.377
47.84000 20.279
47.88000 22.274
47.92000 13.192
47.96000 22.302
48.00000 17.101
48.04000 18.146
48.08000 21.331
48.12000 30.300
48.16000 16.238
48.20000 33.612
48.24000 19.307
48.28000 19.242
48.32000 17.244
48.36000 19.281
48.40000 22.422
48.44000 21.261
48.48000 22.271
48.52000 18.297
48.56000 18.196
48.60000 14.148
48.64000 17.434
48.68000 15.163
48.72000 27.330
48.76000 20.367
48.80000 22.166
48.84000 11.037
48.88000 22.333
48.92000 25.402
48.96000 16.339
49.00000 16.185
49.04000 24.467
49.08000 22.490
49.12000 15.139
49.16000 11.112
49.20000 17.170
49.24000 11.136
49.28000 18.312
49.32000 13.235
49.36000 17.175
49.40000 16.300
49.44000 23.407
49.48000 12.167
49.52000 15.208
49.56000 21.480
49.60000 18.197
49.64000 14.096
49.68000 18.267
49.72000 20.176
49.76000 17.204
49.80000 16.248
49.84000 21.426
49.88000 22.764
49.92000 19.322
49.96000 11.161
50.00000 20.312
50.04000 17.305
50.08000 15.096
50.12000 18.469
50.16000 25.422
50.20000 16.158
50.24000 22.376
50.28000 25.404
50.32000 19.062
50.36000 18.212
50.40000 20.222
50.44000 21.347
50.48000 7.075
50.52000 13.122
50.56000 10.160
50.60000 24.196
50.64000 18.161
50.68000 10.065
50.72000 16.078
50.76000 16.317
50.80000 17.142
50.84000 17.206
50.88000 23.201
50.92000 17.225
50.96000 14.291
51.00000 18.412
51.04000 11.162
51.08000 15.094
51.12000 15.117
51.16000 12.083
51.20000 18.136
51.24000 14.164
51.28000 22.439
51.32000 14.200
51.36000 17.139
51.40000 17.274
51.44000 12.238
51.48000 13.135
51.52000 17.173
51.56000 15.126
51.60000 23.337
51.64000 18.322
51.68000 21.269
51.72000 19.368
51.76000 18.245
51.80000 13.990
51.84000 12.272
51.88000 13.302
51.92000 15.265
51.96000 14.181
52.00000 21.468
52.04000 23.358
52.08000 11.192
52.12000 14.114
52.16000 13.062
52.20000 14.163
52.24000 17.276
52.28000 17.013
52.32000 17.430
52.36000 13.121
52.40000 13.186
52.44000 18.143
52.48000 13.230
52.52000 15.235
52.56000 14.158
52.60000 20.005
52.64000 19.194
52.68000 15.226
52.72000 21.162
52.76000 15.192
52.80000 19.063
52.84000 6.133
52.88000 21.231
52.92000 16.207
52.96000 19.244
53.00000 18.278
53.04000 13.157
53.08000 21.398
53.12000 15.130
53.16000 14.088
53.20000 16.398
53.24000 10.156
53.28000 16.202
53.32000 20.108
53.36000 12.064
53.40000 17.249
53.44000 16.230
53.48000 14.140
53.52000 16.191
53.56000 16.282
53.60000 18.376
53.64000 16.134
53.68000 19.324
53.72000 17.400
53.76000 18.115
53.80000 16.242
53.84000 21.031
53.88000 12.154
53.92000 15.211
53.96000 14.251
54.00000 23.219
54.04000 13.212
54.08000 18.294
54.12000 10.158
54.16000 18.470
54.20000 11.141
54.24000 13.091
54.28000 7.107
54.32000 9.064
54.36000 17.323
54.40000 5.038
54.44000 12.087
54.48000 15.091
54.52000 22.127
54.56000 20.338
54.60000 11.093
54.64000 15.328
54.68000 9.186
54.72000 12.043
54.76000 18.109
54.80000 15.065
54.84000 16.151
54.88000 11.140
54.92000 15.250
54.96000 12.159
55.00000 10.044
55.04000 19.476
55.08000 12.359
55.12000 7.071
55.16000 16.382
55.20000 8.134
55.24000 14.264
55.28000 12.233
55.32000 19.295
55.36000 11.105
55.40000 8.152
55.44000 10.181
55.48000 14.112
55.52000 14.189
55.56000 15.070
55.60000 11.109
55.64000 10.038
55.68000 12.942
55.72000 15.185
55.76000 14.278
55.80000 9.099
55.84000 9.156
55.88000 17.336
55.92000 15.166
55.96000 12.058
56.00000 18.189
56.04000 16.345
56.08000 19.234
56.12000 12.087
56.16000 15.086
56.20000 15.132
56.24000 14.158
56.28000 14.145
56.32000 13.148
56.36000 14.261
56.40000 14.264
56.44000 13.216
56.48000 16.229
56.52000 13.177
56.56000 13.191
56.60000 10.110
56.64000 14.168
56.68000 10.225
56.72000 19.242
56.76000 9.027
56.80000 10.944
56.84000 16.401
56.88000 14.233
56.92000 10.118
56.96000 9.080
57.00000 15.199
57.04000 11.054
57.08000 11.921
57.12000 9.045
57.16000 8.083
57.20000 11.256
57.24000 13.189
57.28000 21.665
57.32000 13.216
57.36000 15.130
57.40000 11.183
57.44000 18.290
57.48000 13.194
57.52000 12.110
57.56000 15.193
57.60000 9.080
57.64000 16.222
57.68000 11.178
57.72000 10.261
57.76000 11.089
57.80000 8.978
57.84000 16.165
57.88000 11.116
57.92000 18.272
57.96000 13.194
58.00000 16.148
58.04000 9.179
58.08000 12.212
58.12000 16.066
58.16000 12.156
58.20000 8.164
58.24000 10.148
58.28000 7.047
58.32000 13.198
58.36000 14.363
58.40000 17.245
58.44000 8.114
58.48000 11.227
58.52000 9.130
58.56000 7.148
58.60000 4.080
58.64000 12.185
58.68000 10.284
58.72000 11.206
58.76000 12.167
58.80000 11.190
58.84000 21.282
58.88000 5.127
58.92000 10.162
58.96000 12.242
59.00000 12.120
59.04000 11.134
59.08000 8.181
59.12000 5.060
59.16000 12.096
59.20000 5.989
59.24000 15.048
59.28000 10.077
59.32000 6.053
59.36000 14.155
59.40000 9.039
59.44000 7.110
59.48000 12.216
59.52000 11.162
59.56000 8.116
59.60000 12.287
59.64000 9.120
59.68000 9.135
59.72000 9.165
59.76000 8.091
59.80000 15.126
59.84000 12.045
59.88000 8.204
59.92000 15.172
59.96000 14.105
60.00000 8.035
60.04000 6.180
60.08000 9.167
60.12000 10.089
60.16000 8.118
60.20000 9.127
60.24000 10.087
60.28000 6.048
60.32000 5.085
60.36000 4.963
60.40000 14.204
60.44000 14.165
60.48000 10.129
60.52000 13.296
60.56000 6.175
60.60000 7.077
60.64000 13.170
60.68000 7.100
60.72000 7.065
60.76000 12.134
60.80000 7.186
60.84000 10.037
60.88000 9.186
60.92000 8.015
60.96000 11.212
61.00000 7.248
61.04000 2.012
61.08000 10.180
61.12000 8.993
61.16000 6.094
61.20000 10.179
61.24000 11.138
61.28000 8.061
61.32000 11.038
61.36000 8.049
61.40000 15.155
61.44000 9.053
61.48000 11.090
61.52000 10.065
61.56000 9.211
61.60000 8.134
61.64000 4.154
61.68000 11.229
61.72000 11.188
61.76000 14.290
61.80000 9.089
61.84000 9.149
61.88000 7.028
61.92000 7.046
61.96000 8.014
62.00000 13.198
62.04000 6.151
62.08000 12.164
62.12000 12.127
62.16000 6.966
62.20000 8.976
62.24000 9.198
62.28000 8.045
62.32000 9.163
62.36000 6.056
62.40000 14.052
62.44000 9.170
62.48000 4.105
62.52000 6.988
62.56000 8.108
62.60000 11.122
62.64000 11.143
62.68000 6.112
62.72000 5.068
62.76000 7.068
62.80000 10.018
62.84000 8.047
62.88000 7.142
62.92000 12.159
62.96000 9.097
63.00000 12.068
63.04000 8.133
63.08000 7.018
63.12000 13.212
63.16000 4.072
63.20000 7.082
63.24000 17.200
63.28000 8.200
63.32000 2.021
63.36000 7.106
63.40000 6.126
63.44000 10.985
63.48000 4.074
63.52000 9.114
63.56000 7.045
63.60000 7.094
63.64000 7.106
63.68000 8.151
63.72000 5.114
63.76000 14.276
63.80000 10.170
63.84000 3.056
63.88000 5.075
63.92000 9.161
63.96000 9.202
64.00000 0.000
64.04000 5.082
64.08000 12.236
64.12000 9.241
64.16000 4.068
64.20000 7.039
64.24000 11.203
64.28000 12.031
64.32000 15.238
64.36000 7.045
64.40000 7.115
64.44000 10.006
64.48000 12.132
64.52000 9.083
64.56000 8.159
64.60000 9.055
64.64000 6.110
64.68000 10.130
64.72000 11.327
64.76000 9.202
64.80000 1.973
64.84000 9.021
64.88000 5.999
64.92000 7.055
64.96000 7.085
65.00000 7.185