File: XRD/XRD/11-09-2025/XY Data/01092025_BTO_omega_1_001_45_15-587_19-546.xy
20.00000 24.354
20.04000 15.231
20.08000 23.661
20.12000 18.349
20.16000 14.376
20.20000 11.194
20.24000 21.427
20.28000 19.118
20.32000 20.192
20.36000 13.162
20.40000 31.390
20.44000 20.219
20.48000 12.098
20.52000 26.228
20.56000 17.123
20.60000 21.244
20.64000 18.265
20.68000 12.146
20.72000 18.228
20.76000 16.218
20.80000 26.452
20.84000 24.186
20.88000 16.194
20.92000 18.122
20.96000 18.194
21.00000 24.308
21.04000 24.373
21.08000 20.967
21.12000 21.326
21.16000 23.195
21.20000 32.694
21.24000 27.317
21.28000 20.211
21.32000 9.137
21.36000 14.234
21.40000 17.144
21.44000 29.506
21.48000 23.346
21.52000 20.464
21.56000 10.137
21.60000 22.315
21.64000 24.268
21.68000 22.233
21.72000 17.062
21.76000 18.097
21.80000 21.158
21.84000 22.359
21.88000 8.117
21.92000 19.382
21.96000 24.213
22.00000 19.207
22.04000 16.183
22.08000 22.347
22.12000 18.393
22.16000 22.057
22.20000 23.273
22.24000 26.339
22.28000 16.106
22.32000 23.401
22.36000 23.194
22.40000 24.252
22.44000 29.354
22.48000 30.451
22.52000 16.235
22.56000 20.311
22.60000 24.147
22.64000 19.193
22.68000 15.208
22.72000 22.217
22.76000 19.251
22.80000 21.368
22.84000 20.298
22.88000 28.463
22.92000 16.136
22.96000 21.314
23.00000 22.254
23.04000 23.436
23.08000 30.427
23.12000 30.261
23.16000 27.576
23.20000 23.314
23.24000 23.543
23.28000 21.262
23.32000 21.364
23.36000 22.073
23.40000 21.483
23.44000 25.387
23.48000 24.211
23.52000 25.102
23.56000 31.405
23.60000 17.189
23.64000 27.320
23.68000 30.284
23.72000 34.386
23.76000 24.227
23.80000 22.212
23.84000 28.447
23.88000 28.303
23.92000 22.267
23.96000 21.211
24.00000 35.425
24.04000 19.340
24.08000 32.437
24.12000 21.239
24.16000 25.306
24.20000 31.551
24.24000 28.295
24.28000 26.239
24.32000 24.199
24.36000 26.504
24.40000 40.729
24.44000 22.223
24.48000 34.300
24.52000 35.285
24.56000 23.604
24.60000 24.237
24.64000 33.634
24.68000 32.259
24.72000 27.434
24.76000 37.659
24.80000 36.617
24.84000 33.424
24.88000 35.683
24.92000 32.765
24.96000 18.196
25.00000 39.552
25.04000 36.512
25.08000 33.547
25.12000 37.473
25.16000 39.494
25.20000 31.339
25.24000 44.521
25.28000 26.340
25.32000 25.236
25.36000 33.324
25.40000 26.326
25.44000 25.303
25.48000 39.581
25.52000 37.346
25.56000 37.425
25.60000 37.369
25.64000 36.619
25.68000 47.546
25.72000 34.486
25.76000 37.201
25.80000 34.319
25.84000 30.173
25.88000 36.331
25.92000 47.836
25.96000 46.496
26.00000 41.497
26.04000 44.529
26.08000 37.441
26.12000 38.604
26.16000 39.511
26.20000 49.907
26.24000 49.594
26.28000 47.307
26.32000 43.744
26.36000 54.583
26.40000 48.491
26.44000 35.466
26.48000 49.184
26.52000 48.562
26.56000 45.537
26.60000 58.842
26.64000 46.524
26.68000 38.802
26.72000 40.763
26.76000 37.500
26.80000 41.862
26.84000 54.419
26.88000 54.433
26.92000 60.007
26.96000 40.672
27.00000 56.664
27.04000 55.887
27.08000 48.707
27.12000 48.468
27.16000 48.516
27.20000 44.684
27.24000 50.534
27.28000 43.423
27.32000 45.492
27.36000 53.643
27.40000 44.575
27.44000 45.664
27.48000 52.075
27.52000 38.341
27.56000 41.591
27.60000 58.688
27.64000 46.395
27.68000 57.534
27.72000 50.716
27.76000 41.499
27.80000 37.584
27.84000 58.776
27.88000 45.713
27.92000 48.005
27.96000 47.456
28.00000 45.559
28.04000 57.579
28.08000 46.458
28.12000 46.789
28.16000 53.724
28.20000 48.603
28.24000 62.683
28.28000 41.538
28.32000 59.568
28.36000 56.808
28.40000 38.611
28.44000 58.589
28.48000 45.394
28.52000 56.989
28.56000 47.740
28.60000 45.615
28.64000 56.945
28.68000 50.700
28.72000 42.380
28.76000 56.837
28.80000 40.600
28.84000 54.781
28.88000 49.492
28.92000 49.605
28.96000 46.529
29.00000 33.595
29.04000 41.492
29.08000 42.707
29.12000 35.215
29.16000 45.532
29.20000 38.602
29.24000 40.556
29.28000 48.663
29.32000 36.555
29.36000 48.476
29.40000 43.676
29.44000 38.514
29.48000 34.416
29.52000 52.358
29.56000 41.660
29.60000 37.312
29.64000 45.761
29.68000 31.426
29.72000 33.519
29.76000 38.456
29.80000 40.468
29.84000 44.596
29.88000 37.514
29.92000 35.404
29.96000 44.590
30.00000 35.353
30.04000 34.049
30.08000 36.381
30.12000 40.461
30.16000 35.667
30.20000 34.337
30.24000 26.482
30.28000 38.290
30.32000 38.516
30.36000 30.415
30.40000 35.498
30.44000 34.240
30.48000 36.341
30.52000 43.571
30.56000 47.556
30.60000 37.339
30.64000 41.675
30.68000 27.142
30.72000 34.400
30.76000 26.191
30.80000 30.220
30.84000 37.813
30.88000 27.484
30.92000 28.419
30.96000 26.203
31.00000 30.275
31.04000 28.757
31.08000 19.313
31.12000 32.538
31.16000 35.258
31.20000 33.670
31.24000 25.206
31.28000 31.426
31.32000 32.421
31.36000 25.384
31.40000 23.240
31.44000 29.528
31.48000 24.428
31.52000 25.235
31.56000 21.388
31.60000 22.428
31.64000 31.398
31.68000 31.276
31.72000 34.398
31.76000 22.200
31.80000 32.472
31.84000 22.194
31.88000 31.346
31.92000 27.318
31.96000 16.269
32.00000 25.353
32.04000 26.475
32.08000 26.325
32.12000 23.314
32.16000 28.543
32.20000 27.461
32.24000 25.165
32.28000 25.268
32.32000 21.459
32.36000 36.252
32.40000 28.277
32.44000 21.299
32.48000 26.514
32.52000 22.289
32.56000 25.185
32.60000 27.427
32.64000 26.201
32.68000 29.557
32.72000 28.435
32.76000 15.237
32.80000 24.316
32.84000 20.341
32.88000 19.178
32.92000 14.164
32.96000 22.032
33.00000 14.247
33.04000 19.126
33.08000 14.179
33.12000 20.144
33.16000 20.366
33.20000 16.149
33.24000 23.367
33.28000 17.125
33.32000 18.295
33.36000 12.205
33.40000 20.277
33.44000 22.330
33.48000 24.408
33.52000 15.249
33.56000 18.371
33.60000 17.138
33.64000 17.108
33.68000 25.344
33.72000 20.143
33.76000 18.196
33.80000 13.097
33.84000 15.264
33.88000 21.301
33.92000 28.238
33.96000 10.112
34.00000 14.217
34.04000 19.385
34.08000 18.470
34.12000 15.157
34.16000 10.070
34.20000 14.069
34.24000 15.291
34.28000 21.286
34.32000 14.090
34.36000 18.167
34.40000 14.318
34.44000 10.232
34.48000 12.044
34.52000 16.237
34.56000 19.315
34.60000 20.223
34.64000 22.153
34.68000 23.114
34.72000 11.110
34.76000 13.202
34.80000 23.248
34.84000 17.433
34.88000 11.121
34.92000 18.313
34.96000 8.052
35.00000 10.032
35.04000 15.118
35.08000 19.199
35.12000 10.137
35.16000 20.296
35.20000 12.191
35.24000 14.327
35.28000 17.316
35.32000 19.990
35.36000 11.137
35.40000 24.137
35.44000 11.141
35.48000 17.038
35.52000 21.163
35.56000 12.249
35.60000 12.236
35.64000 15.424
35.68000 18.304
35.72000 17.002
35.76000 15.296
35.80000 10.178
35.84000 17.221
35.88000 18.284
35.92000 13.079
35.96000 16.314
36.00000 10.311
36.04000 15.033
36.08000 20.335
36.12000 24.158
36.16000 15.349
36.20000 13.178
36.24000 19.446
36.28000 15.081
36.32000 11.126
36.36000 16.210
36.40000 15.252
36.44000 14.253
36.48000 18.402
36.52000 16.182
36.56000 24.203
36.60000 13.335
36.64000 15.189
36.68000 16.145
36.72000 11.167
36.76000 20.272
36.80000 11.150
36.84000 19.199
36.88000 13.236
36.92000 15.192
36.96000 25.310
37.00000 17.267
37.04000 19.546
37.08000 18.310
37.12000 14.174
37.16000 17.172
37.20000 18.274
37.24000 20.366
37.28000 19.366
37.32000 21.305
37.36000 17.142
37.40000 22.255
37.44000 23.307
37.48000 20.108
37.52000 14.146
37.56000 11.136
37.60000 10.926
37.64000 16.436
37.68000 17.170
37.72000 12.195
37.76000 16.155
37.80000 25.306
37.84000 13.203
37.88000 16.248
37.92000 24.268
37.96000 19.159
38.00000 17.197
38.04000 10.151
38.08000 18.227
38.12000 23.441
38.16000 21.359
38.20000 27.588
38.24000 11.189
38.28000 19.309
38.32000 16.219
38.36000 14.274
38.40000 9.134
38.44000 13.126
38.48000 19.432
38.52000 14.155
38.56000 18.188
38.60000 28.483
38.64000 19.118
38.68000 16.285
38.72000 15.251
38.76000 18.358
38.80000 20.188
38.84000 17.406
38.88000 15.120
38.92000 20.292
38.96000 16.037
39.00000 13.123
39.04000 26.316
39.08000 22.130
39.12000 14.148
39.16000 22.104
39.20000 22.218
39.24000 16.323
39.28000 22.249
39.32000 28.432
39.36000 14.128
39.40000 21.343
39.44000 25.189
39.48000 13.145
39.52000 17.308
39.56000 15.100
39.60000 19.198
39.64000 21.447
39.68000 16.265
39.72000 19.369
39.76000 11.174
39.80000 20.181
39.84000 20.429
39.88000 19.310
39.92000 24.297
39.96000 17.319
40.00000 19.145
40.04000 21.247
40.08000 18.221
40.12000 18.429
40.16000 18.307
40.20000 17.261
40.24000 18.427
40.28000 26.368
40.32000 15.152
40.36000 20.294
40.40000 16.123
40.44000 18.134
40.48000 13.236
40.52000 18.259
40.56000 15.211
40.60000 20.267
40.64000 15.223
40.68000 18.238
40.72000 28.235
40.76000 20.153
40.80000 15.080
40.84000 17.218
40.88000 17.263
40.92000 17.313
40.96000 26.068
41.00000 21.342
41.04000 22.235
41.08000 14.203
41.12000 22.487
41.16000 27.353
41.20000 27.444
41.24000 16.284
41.28000 17.254
41.32000 13.245
41.36000 22.349
41.40000 10.191
41.44000 15.088
41.48000 17.354
41.52000 18.163
41.56000 27.266
41.60000 20.245
41.64000 9.133
41.68000 19.272
41.72000 14.134
41.76000 14.348
41.80000 17.214
41.84000 24.262
41.88000 14.131
41.92000 20.157
41.96000 17.062
42.00000 19.267
42.04000 16.153
42.08000 18.262
42.12000 19.183
42.16000 24.295
42.20000 17.218
42.24000 19.272
42.28000 19.299
42.32000 24.320
42.36000 22.309
42.40000 13.256
42.44000 16.510
42.48000 17.252
42.52000 27.457
42.56000 14.215
42.60000 19.243
42.64000 27.363
42.68000 16.187
42.72000 17.424
42.76000 21.185
42.80000 20.336
42.84000 18.272
42.88000 23.256
42.92000 12.038
42.96000 22.229
43.00000 24.394
43.04000 24.349
43.08000 20.350
43.12000 22.339
43.16000 28.369
43.20000 15.125
43.24000 19.327
43.28000 23.332
43.32000 17.255
43.36000 16.157
43.40000 16.244
43.44000 14.219
43.48000 23.234
43.52000 28.260
43.56000 22.281
43.60000 7.103
43.64000 18.137
43.68000 23.510
43.72000 17.214
43.76000 18.193
43.80000 11.238
43.84000 18.250
43.88000 19.335
43.92000 23.211
43.96000 24.266
44.00000 24.141
44.04000 15.154
44.08000 14.243
44.12000 19.369
44.16000 20.087
44.20000 19.074
44.24000 16.173
44.28000 19.365
44.32000 14.142
44.36000 15.307
44.40000 20.381
44.44000 16.999
44.48000 18.337
44.52000 19.105
44.56000 27.596
44.60000 19.343
44.64000 23.315
44.68000 22.332
44.72000 14.319
44.76000 23.259
44.80000 28.434
44.84000 16.143
44.88000 17.029
44.92000 24.510
44.96000 20.287
45.00000 20.312
45.04000 15.007
45.08000 22.307
45.12000 13.152
45.16000 16.157
45.20000 17.270
45.24000 16.352
45.28000 27.502
45.32000 15.143
45.36000 11.083
45.40000 20.337
45.44000 12.115
45.48000 22.397
45.52000 20.174
45.56000 22.424
45.60000 18.303
45.64000 19.352
45.68000 17.990
45.72000 19.135
45.76000 15.279
45.80000 26.361
45.84000 16.191
45.88000 23.418
45.92000 21.279
45.96000 19.344
46.00000 17.151
46.04000 15.253
46.08000 16.358
46.12000 13.347
46.16000 21.257
46.20000 14.167
46.24000 28.622
46.28000 17.074
46.32000 21.336
46.36000 19.176
46.40000 15.367
46.44000 24.423
46.48000 16.164
46.52000 22.165
46.56000 16.130
46.60000 27.332
46.64000 17.270
46.68000 20.279
46.72000 15.352
46.76000 17.342
46.80000 27.340
46.84000 18.237
46.88000 26.422
46.92000 18.137
46.96000 17.246
47.00000 15.264
47.04000 21.408
47.08000 23.342
47.12000 20.263
47.16000 20.125
47.20000 16.122
47.24000 18.206
47.28000 16.123
47.32000 14.147
47.36000 14.294
47.40000 17.138
47.44000 19.406
47.48000 20.552
47.52000 28.404
47.56000 15.114
47.60000 17.167
47.64000 17.287
47.68000 23.297
47.72000 16.191
47.76000 17.440
47.80000 18.213
47.84000 16.173
47.88000 18.170
47.92000 23.218
47.96000 17.386
48.00000 20.317
48.04000 15.153
48.08000 11.198
48.12000 22.348
48.16000 20.278
48.20000 13.081
48.24000 23.274
48.28000 7.030
48.32000 22.158
48.36000 9.212
48.40000 24.371
48.44000 17.428
48.48000 19.272
48.52000 11.112
48.56000 18.395
48.60000 13.206
48.64000 11.117
48.68000 16.240
48.72000 15.172
48.76000 13.082
48.80000 16.249
48.84000 19.147
48.88000 22.146
48.92000 30.528
48.96000 14.229
49.00000 8.032
49.04000 12.102
49.08000 14.382
49.12000 15.217
49.16000 11.049
49.20000 15.304
49.24000 26.397
49.28000 13.139
49.32000 20.295
49.36000 15.210
49.40000 12.191
49.44000 12.020
49.48000 21.243
49.52000 18.481
49.56000 18.172
49.60000 13.184
49.64000 12.188
49.68000 8.114
49.72000 22.372
49.76000 31.415
49.80000 12.202
49.84000 11.111
49.88000 16.318
49.92000 17.350
49.96000 18.437
50.00000 17.251
50.04000 10.059
50.08000 17.161
50.12000 19.294
50.16000 19.185
50.20000 17.244
50.24000 19.349
50.28000 15.205
50.32000 19.202
50.36000 13.168
50.40000 11.129
50.44000 15.414
50.48000 3.092
50.52000 16.337
50.56000 17.223
50.60000 14.192
50.64000 8.099
50.68000 11.102
50.72000 17.303
50.76000 21.090
50.80000 18.137
50.84000 11.271
50.88000 16.224
50.92000 24.344
50.96000 26.391
51.00000 20.233
51.04000 13.190
51.08000 11.038
51.12000 18.168
51.16000 17.344
51.20000 11.015
51.24000 20.362
51.28000 26.246
51.32000 16.179
51.36000 16.091
51.40000 19.248
51.44000 11.084
51.48000 23.191
51.52000 20.328
51.56000 14.332
51.60000 7.152
51.64000 19.226
51.68000 20.114
51.72000 10.222
51.76000 20.131
51.80000 20.298
51.84000 18.207
51.88000 12.280
51.92000 17.403
51.96000 22.271
52.00000 9.050
52.04000 12.177
52.08000 21.473
52.12000 11.113
52.16000 24.263
52.20000 11.072
52.24000 12.086
52.28000 15.103
52.32000 18.233
52.36000 16.096
52.40000 12.036
52.44000 19.171
52.48000 10.128
52.52000 20.148
52.56000 18.169
52.60000 23.098
52.64000 18.222
52.68000 15.229
52.72000 10.010
52.76000 14.093
52.80000 17.276
52.84000 10.054
52.88000 14.151
52.92000 12.058
52.96000 17.309
53.00000 17.249
53.04000 19.216
53.08000 15.310
53.12000 15.129
53.16000 18.276
53.20000 26.310
53.24000 12.029
53.28000 25.362
53.32000 18.249
53.36000 16.048
53.40000 13.123
53.44000 16.130
53.48000 22.441
53.52000 15.037
53.56000 11.250
53.60000 12.044
53.64000 15.086
53.68000 13.307
53.72000 10.083
53.76000 20.294
53.80000 20.249
53.84000 17.239
53.88000 15.131
53.92000 24.227
53.96000 21.041
54.00000 13.131
54.04000 13.140
54.08000 8.165
54.12000 14.380
54.16000 7.107
54.20000 16.005
54.24000 13.195
54.28000 17.180
54.32000 11.177
54.36000 14.262
54.40000 13.052
54.44000 17.167
54.48000 13.207
54.52000 10.103
54.56000 15.079
54.60000 9.103
54.64000 10.193
54.68000 18.394
54.72000 14.306
54.76000 13.238
54.80000 15.252
54.84000 9.056
54.88000 13.280
54.92000 7.189
54.96000 20.178
55.00000 11.997
55.04000 14.165
55.08000 4.985
55.12000 8.149
55.16000 12.107
55.20000 11.066
55.24000 13.161
55.28000 9.110
55.32000 10.217
55.36000 13.029
55.40000 9.222
55.44000 12.118
55.48000 5.029
55.52000 16.094
55.56000 14.255
55.60000 18.390
55.64000 10.040
55.68000 13.230
55.72000 19.190
55.76000 12.217
55.80000 14.238
55.84000 11.124
55.88000 10.117
55.92000 13.092
55.96000 14.214
56.00000 21.336
56.04000 13.154
56.08000 19.098
56.12000 9.138
56.16000 10.075
56.20000 13.178
56.24000 11.126
56.28000 10.078
56.32000 10.049
56.36000 10.006
56.40000 15.134
56.44000 20.152
56.48000 16.156
56.52000 18.282
56.56000 11.142
56.60000 10.078
56.64000 11.166
56.68000 12.084
56.72000 16.113
56.76000 12.219
56.80000 6.989
56.84000 14.176
56.88000 16.208
56.92000 5.970
56.96000 13.183
57.00000 10.106
57.04000 17.286
57.08000 13.081
57.12000 10.144
57.16000 18.277
57.20000 16.211
57.24000 11.007
57.28000 19.095
57.32000 10.105
57.36000 8.107
57.40000 12.120
57.44000 14.248
57.48000 16.258
57.52000 12.000
57.56000 12.044
57.60000 4.089
57.64000 17.218
57.68000 18.266
57.72000 15.208
57.76000 13.194
57.80000 6.006
57.84000 17.194
57.88000 14.420
57.92000 16.123
57.96000 14.183
58.00000 21.215
58.04000 13.215
58.08000 13.209
58.12000 10.044
58.16000 18.050
58.20000 13.108
58.24000 14.262
58.28000 11.107
58.32000 7.039
58.36000 13.197
58.40000 14.250
58.44000 18.118
58.48000 7.051
58.52000 12.151
58.56000 16.241
58.60000 10.067
58.64000 16.144
58.68000 9.038
58.72000 11.067
58.76000 10.244
58.80000 15.163
58.84000 8.180
58.88000 6.066
58.92000 15.221
58.96000 15.200
59.00000 14.231
59.04000 11.156
59.08000 9.190
59.12000 10.054
59.16000 18.223
59.20000 12.261
59.24000 13.176
59.28000 12.293
59.32000 9.146
59.36000 12.108
59.40000 10.007
59.44000 19.296
59.48000 10.036
59.52000 11.151
59.56000 12.194
59.60000 14.120
59.64000 11.062
59.68000 6.114
59.72000 9.085
59.76000 10.186
59.80000 10.189
59.84000 12.179
59.88000 15.349
59.92000 9.236
59.96000 11.132
60.00000 11.210
60.04000 8.104
60.08000 14.084
60.12000 11.225
60.16000 10.145
60.20000 8.152
60.24000 14.089
60.28000 15.338
60.32000 16.185
60.36000 15.292
60.40000 10.189
60.44000 11.122
60.48000 12.033
60.52000 8.198
60.56000 9.059
60.60000 9.163
60.64000 14.454
60.68000 12.028
60.72000 9.093
60.76000 10.059
60.80000 12.188
60.84000 11.147
60.88000 11.182
60.92000 6.080
60.96000 13.208
61.00000 17.356
61.04000 7.167
61.08000 8.156
61.12000 8.126
61.16000 11.209
61.20000 7.067
61.24000 7.120
61.28000 9.957
61.32000 10.033
61.36000 10.100
61.40000 7.076
61.44000 10.308
61.48000 8.161
61.52000 8.130
61.56000 10.985
61.60000 9.010
61.64000 7.007
61.68000 16.227
61.72000 3.973
61.76000 10.109
61.80000 13.074
61.84000 11.433
61.88000 6.082
61.92000 5.993
61.96000 5.074
62.00000 10.074
62.04000 10.159
62.08000 9.218
62.12000 12.234
62.16000 6.104
62.20000 13.112
62.24000 14.329
62.28000 8.020
62.32000 13.282
62.36000 13.215
62.40000 11.188
62.44000 8.100
62.48000 10.078
62.52000 15.146
62.56000 6.988
62.60000 14.250
62.64000 11.043
62.68000 11.205
62.72000 12.145
62.76000 12.093
62.80000 11.180
62.84000 10.200
62.88000 12.149
62.92000 11.158
62.96000 7.050
63.00000 10.054
63.04000 5.095
63.08000 8.102
63.12000 12.061
63.16000 9.123
63.20000 10.168
63.24000 14.110
63.28000 8.029
63.32000 15.231
63.36000 13.215
63.40000 7.051
63.44000 12.311
63.48000 7.136
63.52000 17.130
63.56000 8.184
63.60000 12.182
63.64000 6.979
63.68000 8.063
63.72000 5.118
63.76000 10.156
63.80000 5.060
63.84000 11.038
63.88000 8.090
63.92000 9.101
63.96000 9.033
64.00000 6.096
64.04000 11.060
64.08000 9.045
64.12000 11.160
64.16000 8.095
64.20000 7.049
64.24000 12.176
64.28000 11.173
64.32000 12.095
64.36000 16.216
64.40000 6.975
64.44000 13.204
64.48000 11.204
64.52000 13.180
64.56000 8.275
64.60000 14.211
64.64000 11.220
64.68000 15.244
64.72000 1.015
64.76000 7.058
64.80000 11.115
64.84000 11.084
64.88000 12.042
64.92000 6.028
64.96000 10.196
65.00000 11.201