File: XRD/XRD/11-09-2025/XY Data/01092025_BTO_omega_1_001_35_-11-262_5-424.xy
20.00000 16.115
20.04000 15.202
20.08000 21.443
20.12000 28.268
20.16000 18.165
20.20000 17.231
20.24000 16.178
20.28000 12.241
20.32000 15.044
20.36000 18.225
20.40000 22.375
20.44000 22.266
20.48000 20.302
20.52000 18.119
20.56000 17.229
20.60000 20.172
20.64000 18.202
20.68000 21.341
20.72000 25.152
20.76000 18.159
20.80000 18.319
20.84000 20.168
20.88000 18.426
20.92000 17.998
20.96000 12.233
21.00000 18.152
21.04000 21.304
21.08000 25.391
21.12000 21.385
21.16000 23.365
21.20000 27.217
21.24000 22.399
21.28000 25.239
21.32000 21.255
21.36000 24.499
21.40000 17.183
21.44000 24.140
21.48000 26.113
21.52000 24.479
21.56000 26.322
21.60000 18.093
21.64000 19.202
21.68000 16.252
21.72000 22.035
21.76000 14.275
21.80000 29.331
21.84000 9.983
21.88000 16.205
21.92000 20.388
21.96000 14.320
22.00000 15.213
22.04000 26.198
22.08000 21.330
22.12000 20.602
22.16000 21.346
22.20000 15.149
22.24000 18.132
22.28000 24.353
22.32000 20.140
22.36000 21.246
22.40000 18.266
22.44000 25.269
22.48000 17.275
22.52000 23.262
22.56000 16.107
22.60000 21.133
22.64000 21.377
22.68000 19.175
22.72000 15.179
22.76000 25.249
22.80000 24.403
22.84000 22.389
22.88000 17.390
22.92000 22.203
22.96000 21.128
23.00000 19.366
23.04000 20.076
23.08000 13.186
23.12000 21.288
23.16000 22.331
23.20000 24.161
23.24000 21.283
23.28000 31.444
23.32000 22.434
23.36000 22.426
23.40000 16.151
23.44000 21.380
23.48000 19.337
23.52000 32.479
23.56000 28.448
23.60000 30.454
23.64000 25.230
23.68000 15.219
23.72000 20.188
23.76000 19.294
23.80000 24.273
23.84000 25.266
23.88000 25.447
23.92000 28.243
23.96000 26.250
24.00000 28.331
24.04000 29.442
24.08000 33.362
24.12000 23.259
24.16000 23.260
24.20000 30.406
24.24000 24.169
24.28000 24.245
24.32000 28.331
24.36000 27.506
24.40000 31.086
24.44000 32.583
24.48000 27.362
24.52000 24.230
24.56000 24.555
24.60000 23.430
24.64000 24.205
24.68000 35.490
24.72000 34.603
24.76000 29.312
24.80000 29.481
24.84000 22.361
24.88000 31.487
24.92000 27.326
24.96000 35.572
25.00000 27.298
25.04000 36.471
25.08000 29.340
25.12000 32.455
25.16000 33.408
25.20000 44.570
25.24000 25.335
25.28000 28.512
25.32000 38.506
25.36000 35.240
25.40000 31.169
25.44000 32.238
25.48000 36.399
25.52000 44.296
25.56000 38.434
25.60000 36.297
25.64000 28.366
25.68000 35.415
25.72000 29.667
25.76000 34.311
25.80000 25.277
25.84000 45.428
25.88000 32.695
25.92000 42.534
25.96000 38.436
26.00000 46.888
26.04000 40.397
26.08000 35.540
26.12000 39.582
26.16000 40.566
26.20000 44.403
26.24000 40.616
26.28000 31.158
26.32000 40.388
26.36000 38.514
26.40000 43.561
26.44000 25.236
26.48000 39.558
26.52000 36.634
26.56000 40.466
26.60000 42.619
26.64000 39.397
26.68000 32.487
26.72000 49.604
26.76000 48.433
26.80000 43.556
26.84000 34.377
26.88000 48.429
26.92000 42.502
26.96000 40.695
27.00000 48.901
27.04000 54.421
27.08000 47.669
27.12000 46.707
27.16000 39.537
27.20000 49.380
27.24000 37.344
27.28000 27.334
27.32000 34.514
27.36000 54.482
27.40000 52.615
27.44000 49.521
27.48000 36.224
27.52000 34.546
27.56000 34.298
27.60000 34.413
27.64000 29.411
27.68000 50.773
27.72000 45.518
27.76000 45.594
27.80000 42.231
27.84000 47.690
27.88000 56.498
27.92000 35.613
27.96000 56.845
28.00000 48.587
28.04000 34.436
28.08000 36.486
28.12000 43.800
28.16000 36.235
28.20000 33.387
28.24000 42.591
28.28000 34.450
28.32000 36.861
28.36000 53.517
28.40000 49.627
28.44000 43.558
28.48000 33.599
28.52000 55.753
28.56000 35.748
28.60000 34.455
28.64000 42.529
28.68000 35.581
28.72000 41.815
28.76000 39.537
28.80000 42.517
28.84000 36.505
28.88000 32.263
28.92000 30.434
28.96000 40.389
29.00000 41.314
29.04000 33.565
29.08000 53.444
29.12000 30.469
29.16000 53.770
29.20000 38.627
29.24000 30.383
29.28000 35.317
29.32000 33.642
29.36000 39.571
29.40000 33.317
29.44000 28.403
29.48000 36.536
29.52000 36.582
29.56000 43.502
29.60000 31.575
29.64000 30.326
29.68000 34.384
29.72000 32.172
29.76000 26.391
29.80000 35.520
29.84000 24.372
29.88000 38.532
29.92000 47.482
29.96000 33.591
30.00000 28.195
30.04000 35.505
30.08000 32.651
30.12000 30.452
30.16000 47.744
30.20000 27.323
30.24000 28.504
30.28000 26.244
30.32000 34.522
30.36000 27.074
30.40000 24.343
30.44000 35.373
30.48000 30.454
30.52000 23.270
30.56000 34.633
30.60000 25.404
30.64000 26.348
30.68000 29.554
30.72000 17.213
30.76000 25.357
30.80000 24.390
30.84000 35.219
30.88000 30.360
30.92000 25.495
30.96000 27.601
31.00000 20.312
31.04000 28.484
31.08000 24.446
31.12000 15.205
31.16000 29.183
31.20000 27.384
31.24000 27.458
31.28000 22.386
31.32000 24.326
31.36000 25.410
31.40000 18.025
31.44000 21.221
31.48000 20.377
31.52000 24.424
31.56000 29.443
31.60000 27.562
31.64000 27.447
31.68000 20.188
31.72000 20.208
31.76000 23.218
31.80000 23.166
31.84000 31.474
31.88000 17.277
31.92000 21.298
31.96000 23.277
32.00000 23.387
32.04000 19.212
32.08000 29.406
32.12000 30.511
32.16000 23.328
32.20000 24.266
32.24000 23.157
32.28000 27.396
32.32000 26.233
32.36000 24.218
32.40000 25.512
32.44000 23.242
32.48000 32.641
32.52000 28.195
32.56000 25.504
32.60000 23.260
32.64000 22.277
32.68000 21.443
32.72000 23.201
32.76000 21.176
32.80000 19.362
32.84000 22.404
32.88000 24.376
32.92000 28.482
32.96000 16.215
33.00000 23.089
33.04000 20.584
33.08000 23.263
33.12000 25.195
33.16000 18.293
33.20000 14.216
33.24000 10.226
33.28000 13.087
33.32000 16.130
33.36000 12.090
33.40000 16.276
33.44000 13.234
33.48000 22.090
33.52000 13.170
33.56000 16.237
33.60000 22.263
33.64000 15.351
33.68000 12.211
33.72000 10.091
33.76000 17.159
33.80000 15.071
33.84000 18.155
33.88000 16.155
33.92000 13.151
33.96000 20.322
34.00000 17.144
34.04000 16.129
34.08000 15.048
34.12000 11.140
34.16000 9.146
34.20000 13.286
34.24000 23.426
34.28000 14.135
34.32000 12.240
34.36000 8.052
34.40000 10.164
34.44000 12.063
34.48000 9.135
34.52000 18.025
34.56000 22.439
34.60000 15.292
34.64000 16.252
34.68000 11.196
34.72000 15.407
34.76000 19.265
34.80000 22.211
34.84000 17.140
34.88000 12.262
34.92000 12.196
34.96000 11.216
35.00000 10.144
35.04000 17.091
35.08000 10.183
35.12000 12.142
35.16000 14.099
35.20000 15.171
35.24000 17.347
35.28000 19.218
35.32000 11.080
35.36000 14.067
35.40000 12.268
35.44000 18.165
35.48000 20.195
35.52000 21.030
35.56000 16.133
35.60000 15.169
35.64000 12.130
35.68000 13.110
35.72000 20.176
35.76000 14.219
35.80000 24.183
35.84000 12.124
35.88000 13.120
35.92000 18.274
35.96000 14.129
36.00000 12.205
36.04000 13.098
36.08000 17.298
36.12000 15.239
36.16000 17.326
36.20000 19.167
36.24000 15.273
36.28000 10.150
36.32000 11.177
36.36000 14.116
36.40000 18.400
36.44000 22.069
36.48000 17.301
36.52000 16.246
36.56000 13.163
36.60000 15.165
36.64000 6.062
36.68000 20.103
36.72000 14.416
36.76000 17.133
36.80000 13.160
36.84000 20.378
36.88000 12.141
36.92000 18.053
36.96000 15.143
37.00000 12.055
37.04000 11.052
37.08000 18.182
37.12000 13.150
37.16000 18.153
37.20000 8.138
37.24000 10.121
37.28000 13.224
37.32000 11.129
37.36000 11.180
37.40000 17.155
37.44000 18.237
37.48000 14.218
37.52000 15.144
37.56000 15.276
37.60000 13.246
37.64000 12.089
37.68000 17.206
37.72000 18.198
37.76000 21.570
37.80000 16.094
37.84000 11.991
37.88000 22.309
37.92000 14.097
37.96000 14.170
38.00000 30.313
38.04000 16.202
38.08000 15.275
38.12000 13.076
38.16000 16.067
38.20000 11.151
38.24000 13.250
38.28000 7.118
38.32000 17.241
38.36000 12.248
38.40000 19.223
38.44000 18.061
38.48000 14.315
38.52000 16.235
38.56000 17.206
38.60000 17.298
38.64000 11.242
38.68000 10.119
38.72000 20.345
38.76000 16.097
38.80000 20.330
38.84000 18.215
38.88000 23.160
38.92000 27.483
38.96000 18.166
39.00000 21.434
39.04000 16.373
39.08000 16.160
39.12000 15.316
39.16000 16.137
39.20000 15.221
39.24000 11.147
39.28000 17.116
39.32000 27.324
39.36000 19.398
39.40000 22.366
39.44000 12.312
39.48000 9.115
39.52000 21.418
39.56000 17.317
39.60000 18.292
39.64000 22.272
39.68000 14.234
39.72000 26.145
39.76000 15.379
39.80000 13.129
39.84000 16.344
39.88000 25.263
39.92000 14.244
39.96000 23.293
40.00000 19.298
40.04000 10.018
40.08000 17.235
40.12000 15.192
40.16000 17.287
40.20000 26.338
40.24000 17.248
40.28000 13.194
40.32000 21.138
40.36000 22.467
40.40000 14.116
40.44000 18.469
40.48000 18.291
40.52000 13.276
40.56000 15.322
40.60000 17.243
40.64000 17.285
40.68000 22.145
40.72000 16.270
40.76000 15.226
40.80000 6.120
40.84000 14.252
40.88000 14.132
40.92000 9.232
40.96000 19.383
41.00000 22.341
41.04000 8.152
41.08000 13.314
41.12000 22.419
41.16000 17.278
41.20000 14.174
41.24000 16.224
41.28000 21.136
41.32000 14.085
41.36000 15.139
41.40000 16.226
41.44000 10.162
41.48000 12.089
41.52000 15.193
41.56000 7.101
41.60000 17.263
41.64000 22.432
41.68000 16.293
41.72000 18.391
41.76000 18.129
41.80000 16.320
41.84000 9.154
41.88000 20.211
41.92000 27.269
41.96000 16.205
42.00000 18.356
42.04000 13.220
42.08000 20.578
42.12000 21.089
42.16000 11.206
42.20000 14.295
42.24000 19.493
42.28000 12.038
42.32000 20.171
42.36000 16.194
42.40000 23.220
42.44000 17.292
42.48000 15.019
42.52000 20.251
42.56000 27.126
42.60000 13.162
42.64000 16.256
42.68000 27.591
42.72000 19.249
42.76000 18.253
42.80000 13.039
42.84000 20.463
42.88000 19.282
42.92000 21.086
42.96000 19.413
43.00000 15.015
43.04000 16.953
43.08000 14.186
43.12000 30.500
43.16000 7.127
43.20000 26.238
43.24000 25.222
43.28000 19.350
43.32000 16.130
43.36000 19.068
43.40000 11.135
43.44000 20.262
43.48000 15.183
43.52000 16.218
43.56000 12.297
43.60000 18.226
43.64000 20.197
43.68000 25.538
43.72000 19.133
43.76000 25.596
43.80000 18.252
43.84000 11.102
43.88000 15.194
43.92000 14.196
43.96000 21.364
44.00000 11.064
44.04000 20.234
44.08000 16.232
44.12000 26.250
44.16000 21.268
44.20000 23.262
44.24000 15.275
44.28000 20.225
44.32000 24.180
44.36000 16.086
44.40000 18.200
44.44000 15.243
44.48000 13.027
44.52000 15.071
44.56000 18.229
44.60000 20.202
44.64000 13.127
44.68000 13.187
44.72000 19.422
44.76000 18.190
44.80000 13.265
44.84000 24.233
44.88000 22.370
44.92000 17.246
44.96000 15.169
45.00000 13.264
45.04000 26.127
45.08000 13.224
45.12000 19.385
45.16000 15.172
45.20000 7.991
45.24000 18.247
45.28000 18.243
45.32000 25.392
45.36000 22.288
45.40000 17.097
45.44000 19.290
45.48000 20.297
45.52000 17.122
45.56000 19.274
45.60000 19.339
45.64000 17.341
45.68000 10.048
45.72000 14.224
45.76000 15.004
45.80000 15.206
45.84000 17.120
45.88000 16.256
45.92000 21.306
45.96000 6.006
46.00000 18.369
46.04000 23.247
46.08000 17.224
46.12000 18.223
46.16000 14.431
46.20000 21.183
46.24000 16.298
46.28000 18.270
46.32000 15.086
46.36000 14.188
46.40000 31.359
46.44000 24.108
46.48000 25.332
46.52000 25.243
46.56000 16.273
46.60000 34.642
46.64000 18.325
46.68000 18.135
46.72000 20.025
46.76000 17.440
46.80000 14.203
46.84000 15.213
46.88000 14.098
46.92000 19.463
46.96000 13.025
47.00000 18.121
47.04000 25.106
47.08000 14.056
47.12000 16.286
47.16000 13.221
47.20000 22.323
47.24000 18.142
47.28000 9.108
47.32000 13.209
47.36000 14.222
47.40000 19.368
47.44000 18.182
47.48000 8.031
47.52000 21.267
47.56000 10.131
47.60000 16.118
47.64000 13.137
47.68000 21.233
47.72000 14.250
47.76000 19.156
47.80000 9.121
47.84000 17.418
47.88000 15.135
47.92000 14.197
47.96000 14.093
48.00000 16.219
48.04000 9.074
48.08000 13.145
48.12000 18.211
48.16000 14.128
48.20000 17.110
48.24000 15.118
48.28000 18.425
48.32000 15.272
48.36000 15.264
48.40000 16.247
48.44000 17.236
48.48000 19.158
48.52000 13.056
48.56000 18.249
48.60000 14.143
48.64000 17.285
48.68000 16.220
48.72000 10.090
48.76000 20.266
48.80000 14.072
48.84000 14.173
48.88000 19.231
48.92000 15.953
48.96000 16.128
49.00000 17.164
49.04000 17.074
49.08000 15.224
49.12000 26.217
49.16000 21.135
49.20000 15.232
49.24000 9.089
49.28000 6.074
49.32000 17.144
49.36000 10.119
49.40000 11.301
49.44000 11.064
49.48000 13.247
49.52000 16.142
49.56000 14.241
49.60000 15.315
49.64000 13.206
49.68000 16.299
49.72000 12.117
49.76000 16.476
49.80000 10.072
49.84000 16.328
49.88000 13.205
49.92000 15.278
49.96000 12.254
50.00000 22.209
50.04000 13.127
50.08000 20.259
50.12000 11.068
50.16000 15.334
50.20000 8.132
50.24000 10.161
50.28000 12.454
50.32000 12.099
50.36000 14.097
50.40000 16.047
50.44000 11.094
50.48000 13.309
50.52000 16.140
50.56000 16.232
50.60000 16.212
50.64000 14.294
50.68000 15.136
50.72000 18.417
50.76000 9.088
50.80000 20.243
50.84000 2.999
50.88000 12.257
50.92000 14.270
50.96000 12.200
51.00000 13.133
51.04000 12.192
51.08000 17.247
51.12000 16.158
51.16000 9.110
51.20000 12.071
51.24000 16.279
51.28000 15.381
51.32000 12.043
51.36000 13.189
51.40000 13.162
51.44000 12.121
51.48000 22.370
51.52000 15.185
51.56000 17.241
51.60000 9.071
51.64000 20.255
51.68000 14.267
51.72000 15.181
51.76000 17.437
51.80000 17.223
51.84000 17.211
51.88000 18.268
51.92000 16.240
51.96000 12.225
52.00000 11.169
52.04000 17.201
52.08000 13.152
52.12000 11.154
52.16000 16.195
52.20000 14.012
52.24000 9.090
52.28000 17.201
52.32000 16.265
52.36000 12.132
52.40000 14.183
52.44000 15.175
52.48000 11.104
52.52000 18.166
52.56000 17.156
52.60000 15.272
52.64000 18.444
52.68000 13.160
52.72000 17.181
52.76000 16.131
52.80000 13.072
52.84000 13.086
52.88000 10.229
52.92000 11.266
52.96000 15.264
53.00000 19.158
53.04000 7.009
53.08000 12.292
53.12000 13.268
53.16000 13.289
53.20000 6.088
53.24000 18.309
53.28000 18.194
53.32000 10.081
53.36000 12.199
53.40000 18.254
53.44000 12.091
53.48000 12.176
53.52000 19.125
53.56000 10.077
53.60000 16.129
53.64000 8.078
53.68000 15.229
53.72000 15.240
53.76000 14.197
53.80000 15.168
53.84000 18.262
53.88000 15.186
53.92000 17.195
53.96000 9.088
54.00000 16.227
54.04000 12.177
54.08000 14.126
54.12000 20.320
54.16000 15.303
54.20000 15.120
54.24000 14.228
54.28000 7.179
54.32000 13.023
54.36000 21.298
54.40000 11.082
54.44000 15.177
54.48000 12.161
54.52000 16.258
54.56000 16.108
54.60000 11.987
54.64000 19.282
54.68000 12.209
54.72000 13.147
54.76000 12.169
54.80000 19.162
54.84000 12.198
54.88000 9.148
54.92000 10.145
54.96000 19.265
55.00000 10.101
55.04000 11.177
55.08000 12.227
55.12000 14.199
55.16000 8.045
55.20000 11.093
55.24000 14.049
55.28000 10.013
55.32000 10.045
55.36000 14.168
55.40000 11.133
55.44000 11.087
55.48000 22.178
55.52000 11.175
55.56000 15.226
55.60000 12.199
55.64000 18.450
55.68000 9.020
55.72000 15.341
55.76000 13.251
55.80000 11.160
55.84000 17.233
55.88000 11.194
55.92000 11.190
55.96000 10.276
56.00000 6.110
56.04000 15.315
56.08000 7.031
56.12000 18.232
56.16000 11.046
56.20000 19.480
56.24000 11.369
56.28000 13.270
56.32000 11.345
56.36000 13.081
56.40000 14.360
56.44000 17.148
56.48000 16.184
56.52000 13.187
56.56000 16.185
56.60000 6.123
56.64000 14.356
56.68000 19.154
56.72000 12.176
56.76000 18.301
56.80000 9.074
56.84000 13.180
56.88000 13.065
56.92000 15.140
56.96000 13.223
57.00000 7.124
57.04000 7.083
57.08000 20.429
57.12000 9.110
57.16000 9.113
57.20000 15.197
57.24000 19.172
57.28000 14.227
57.32000 10.076
57.36000 24.111
57.40000 14.169
57.44000 15.078
57.48000 12.133
57.52000 12.021
57.56000 19.165
57.60000 13.112
57.64000 13.285
57.68000 13.198
57.72000 12.118
57.76000 16.346
57.80000 7.048
57.84000 15.180
57.88000 15.121
57.92000 18.151
57.96000 12.086
58.00000 11.138
58.04000 10.112
58.08000 17.221
58.12000 13.099
58.16000 10.150
58.20000 7.072
58.24000 8.223
58.28000 10.103
58.32000 6.088
58.36000 9.243
58.40000 14.269
58.44000 9.070
58.48000 10.115
58.52000 12.414
58.56000 10.124
58.60000 6.146
58.64000 8.083
58.68000 14.212
58.72000 8.083
58.76000 17.231
58.80000 17.277
58.84000 12.106
58.88000 12.312
58.92000 14.224
58.96000 10.078
59.00000 10.191
59.04000 4.033
59.08000 10.054
59.12000 9.108
59.16000 5.066
59.20000 18.143
59.24000 4.038
59.28000 8.102
59.32000 17.210
59.36000 15.153
59.40000 10.015
59.44000 11.195
59.48000 8.156
59.52000 8.065
59.56000 13.182
59.60000 10.084
59.64000 8.012
59.68000 13.252
59.72000 14.132
59.76000 6.048
59.80000 13.028
59.84000 7.141
59.88000 7.142
59.92000 10.200
59.96000 7.142
60.00000 12.060
60.04000 12.119
60.08000 15.195
60.12000 10.153
60.16000 12.196
60.20000 13.209
60.24000 12.045
60.28000 10.206
60.32000 10.057
60.36000 7.050
60.40000 17.338
60.44000 11.091
60.48000 5.108
60.52000 8.071
60.56000 9.174
60.60000 8.113
60.64000 5.084
60.68000 11.090
60.72000 10.056
60.76000 9.187
60.80000 13.156
60.84000 10.149
60.88000 8.117
60.92000 5.055
60.96000 14.059
61.00000 10.221
61.04000 8.036
61.08000 10.201
61.12000 8.103
61.16000 8.095
61.20000 14.155
61.24000 13.204
61.28000 12.141
61.32000 19.055
61.36000 8.087
61.40000 8.095
61.44000 13.083
61.48000 5.005
61.52000 6.077
61.56000 6.121
61.60000 8.113
61.64000 10.221
61.68000 13.080
61.72000 13.308
61.76000 5.037
61.80000 9.016
61.84000 9.097
61.88000 4.979
61.92000 3.056
61.96000 9.022
62.00000 10.059
62.04000 11.032
62.08000 12.104
62.12000 14.128
62.16000 7.068
62.20000 4.096
62.24000 12.399
62.28000 7.082
62.32000 7.041
62.36000 8.082
62.40000 12.077
62.44000 7.109
62.48000 9.066
62.52000 9.079
62.56000 13.298
62.60000 9.172
62.64000 9.220
62.68000 7.126
62.72000 10.077
62.76000 11.109
62.80000 11.043
62.84000 11.175
62.88000 14.249
62.92000 10.306
62.96000 8.183
63.00000 13.312
63.04000 6.144
63.08000 8.143
63.12000 15.137
63.16000 12.182
63.20000 11.034
63.24000 12.298
63.28000 13.175
63.32000 17.039
63.36000 11.073
63.40000 7.181
63.44000 11.071
63.48000 5.113
63.52000 9.190
63.56000 10.173
63.60000 10.100
63.64000 10.031
63.68000 12.083
63.72000 8.063
63.76000 13.237
63.80000 5.005
63.84000 11.063
63.88000 10.068
63.92000 3.045
63.96000 10.112
64.00000 11.137
64.04000 11.184
64.08000 13.258
64.12000 14.182
64.16000 8.063
64.20000 7.073
64.24000 9.127
64.28000 11.071
64.32000 7.171
64.36000 3.994
64.40000 10.188
64.44000 5.082
64.48000 9.103
64.52000 11.064
64.56000 11.203
64.60000 10.147
64.64000 7.986
64.68000 17.157
64.72000 5.013
64.76000 7.120
64.80000 7.123
64.84000 9.135
64.88000 9.167
64.92000 11.140
64.96000 4.075
65.00000 4.960