File: XRD/XRD/11-09-2025/XY Data/01092025_BTO_omega_1_001_25_0-000_0-000.xy
20.00000 22.036
20.04000 23.156
20.08000 25.142
20.12000 19.301
20.16000 15.116
20.20000 9.031
20.24000 17.069
20.28000 19.266
20.32000 15.189
20.36000 15.447
20.40000 17.184
20.44000 21.177
20.48000 24.106
20.52000 9.123
20.56000 14.186
20.60000 18.413
20.64000 19.234
20.68000 18.114
20.72000 15.242
20.76000 13.235
20.80000 28.465
20.84000 12.122
20.88000 24.244
20.92000 18.220
20.96000 17.212
21.00000 12.324
21.04000 19.245
21.08000 19.363
21.12000 17.267
21.16000 18.414
21.20000 16.228
21.24000 16.224
21.28000 19.312
21.32000 13.400
21.36000 21.311
21.40000 19.183
21.44000 15.261
21.48000 16.378
21.52000 14.114
21.56000 13.176
21.60000 20.337
21.64000 21.355
21.68000 13.273
21.72000 25.222
21.76000 18.128
21.80000 22.320
21.84000 19.273
21.88000 17.327
21.92000 14.027
21.96000 26.375
22.00000 13.152
22.04000 17.267
22.08000 25.246
22.12000 20.288
22.16000 19.174
22.20000 20.409
22.24000 21.255
22.28000 20.053
22.32000 20.369
22.36000 14.213
22.40000 20.337
22.44000 17.073
22.48000 18.178
22.52000 23.251
22.56000 30.541
22.60000 27.441
22.64000 22.253
22.68000 17.229
22.72000 14.245
22.76000 24.197
22.80000 20.305
22.84000 21.305
22.88000 16.168
22.92000 23.234
22.96000 26.253
23.00000 18.164
23.04000 17.069
23.08000 16.137
23.12000 27.302
23.16000 18.240
23.20000 17.160
23.24000 15.138
23.28000 31.385
23.32000 18.165
23.36000 21.121
23.40000 27.439
23.44000 16.133
23.48000 20.399
23.52000 21.392
23.56000 23.185
23.60000 30.355
23.64000 22.302
23.68000 21.394
23.72000 26.326
23.76000 29.202
23.80000 21.211
23.84000 22.256
23.88000 19.377
23.92000 23.507
23.96000 23.275
24.00000 22.304
24.04000 21.159
24.08000 19.075
24.12000 27.285
24.16000 22.257
24.20000 26.213
24.24000 23.235
24.28000 25.284
24.32000 25.344
24.36000 20.189
24.40000 17.176
24.44000 19.305
24.48000 32.167
24.52000 33.448
24.56000 28.288
24.60000 20.106
24.64000 22.301
24.68000 25.506
24.72000 28.516
24.76000 32.433
24.80000 24.195
24.84000 34.546
24.88000 27.264
24.92000 24.134
24.96000 23.216
25.00000 17.399
25.04000 19.988
25.08000 35.388
25.12000 31.414
25.16000 24.476
25.20000 36.558
25.24000 34.505
25.28000 42.560
25.32000 34.190
25.36000 23.281
25.40000 32.429
25.44000 28.309
25.48000 28.198
25.52000 34.300
25.56000 27.518
25.60000 23.267
25.64000 36.331
25.68000 36.283
25.72000 20.340
25.76000 39.402
25.80000 33.579
25.84000 23.442
25.88000 36.700
25.92000 24.413
25.96000 28.247
26.00000 33.143
26.04000 28.674
26.08000 43.587
26.12000 28.150
26.16000 47.592
26.20000 26.361
26.24000 40.784
26.28000 36.703
26.32000 28.286
26.36000 40.703
26.40000 40.418
26.44000 32.309
26.48000 31.583
26.52000 32.365
26.56000 32.371
26.60000 45.525
26.64000 32.330
26.68000 34.416
26.72000 41.272
26.76000 39.633
26.80000 34.460
26.84000 38.701
26.88000 48.429
26.92000 27.167
26.96000 43.322
27.00000 33.383
27.04000 28.435
27.08000 34.571
27.12000 29.416
27.16000 31.194
27.20000 36.520
27.24000 47.630
27.28000 40.676
27.32000 36.586
27.36000 24.202
27.40000 44.415
27.44000 25.617
27.48000 35.010
27.52000 37.346
27.56000 51.740
27.60000 30.397
27.64000 28.394
27.68000 39.103
27.72000 42.501
27.76000 50.695
27.80000 31.239
27.84000 25.467
27.88000 40.560
27.92000 38.622
27.96000 45.457
28.00000 37.374
28.04000 41.359
28.08000 47.397
28.12000 38.696
28.16000 35.606
28.20000 31.519
28.24000 34.399
28.28000 39.508
28.32000 39.508
28.36000 29.211
28.40000 33.191
28.44000 37.424
28.48000 41.501
28.52000 33.271
28.56000 35.639
28.60000 38.324
28.64000 28.383
28.68000 35.698
28.72000 35.452
28.76000 35.479
28.80000 33.543
28.84000 25.167
28.88000 32.384
28.92000 30.265
28.96000 33.632
29.00000 34.359
29.04000 38.179
29.08000 43.607
29.12000 34.353
29.16000 35.441
29.20000 32.236
29.24000 30.216
29.28000 39.453
29.32000 27.153
29.36000 52.281
29.40000 22.225
29.44000 25.427
29.48000 24.289
29.52000 24.376
29.56000 36.319
29.60000 32.361
29.64000 36.408
29.68000 29.533
29.72000 28.343
29.76000 26.370
29.80000 30.183
29.84000 27.103
29.88000 26.235
29.92000 19.237
29.96000 17.188
30.00000 25.301
30.04000 25.343
30.08000 29.303
30.12000 26.111
30.16000 22.050
30.20000 27.388
30.24000 30.344
30.28000 22.138
30.32000 23.262
30.36000 25.308
30.40000 26.523
30.44000 25.262
30.48000 19.257
30.52000 34.480
30.56000 22.427
30.60000 22.359
30.64000 28.555
30.68000 26.467
30.72000 22.441
30.76000 24.203
30.80000 21.654
30.84000 24.420
30.88000 20.091
30.92000 25.455
30.96000 26.508
31.00000 25.278
31.04000 14.236
31.08000 16.361
31.12000 27.547
31.16000 23.316
31.20000 20.309
31.24000 24.344
31.28000 20.957
31.32000 16.206
31.36000 17.287
31.40000 18.280
31.44000 17.218
31.48000 30.227
31.52000 21.354
31.56000 23.168
31.60000 22.289
31.64000 19.187
31.68000 22.230
31.72000 17.311
31.76000 28.354
31.80000 23.312
31.84000 25.439
31.88000 18.280
31.92000 21.284
31.96000 19.051
32.00000 10.122
32.04000 23.305
32.08000 22.241
32.12000 21.472
32.16000 24.185
32.20000 21.175
32.24000 17.251
32.28000 27.486
32.32000 16.289
32.36000 15.345
32.40000 15.104
32.44000 15.228
32.48000 29.592
32.52000 25.319
32.56000 17.213
32.60000 24.221
32.64000 22.278
32.68000 22.346
32.72000 16.250
32.76000 18.228
32.80000 15.215
32.84000 23.191
32.88000 19.158
32.92000 22.059
32.96000 14.063
33.00000 18.114
33.04000 12.203
33.08000 17.177
33.12000 13.205
33.16000 17.211
33.20000 14.104
33.24000 21.416
33.28000 8.127
33.32000 19.448
33.36000 15.385
33.40000 10.032
33.44000 16.132
33.48000 20.103
33.52000 12.221
33.56000 13.097
33.60000 15.921
33.64000 20.170
33.68000 15.232
33.72000 15.098
33.76000 13.065
33.80000 6.112
33.84000 15.172
33.88000 15.008
33.92000 14.170
33.96000 13.230
34.00000 15.235
34.04000 13.269
34.08000 17.166
34.12000 14.104
34.16000 8.128
34.20000 14.090
34.24000 9.050
34.28000 18.347
34.32000 19.261
34.36000 22.148
34.40000 13.125
34.44000 11.107
34.48000 15.184
34.52000 10.176
34.56000 12.361
34.60000 7.107
34.64000 5.120
34.68000 13.950
34.72000 12.214
34.76000 9.004
34.80000 18.182
34.84000 10.248
34.88000 12.183
34.92000 8.182
34.96000 10.172
35.00000 14.149
35.04000 16.055
35.08000 15.338
35.12000 17.132
35.16000 10.081
35.20000 13.131
35.24000 15.415
35.28000 16.306
35.32000 18.159
35.36000 12.182
35.40000 9.170
35.44000 5.968
35.48000 8.078
35.52000 15.215
35.56000 9.200
35.60000 14.069
35.64000 10.034
35.68000 12.194
35.72000 9.001
35.76000 12.231
35.80000 8.013
35.84000 15.348
35.88000 15.125
35.92000 18.052
35.96000 6.979
36.00000 19.280
36.04000 12.175
36.08000 8.107
36.12000 15.205
36.16000 13.139
36.20000 16.271
36.24000 6.168
36.28000 13.164
36.32000 14.192
36.36000 18.067
36.40000 7.174
36.44000 16.070
36.48000 14.159
36.52000 10.206
36.56000 11.115
36.60000 14.106
36.64000 12.200
36.68000 8.005
36.72000 11.191
36.76000 14.350
36.80000 10.255
36.84000 15.159
36.88000 10.155
36.92000 17.202
36.96000 12.229
37.00000 15.244
37.04000 12.225
37.08000 13.066
37.12000 18.345
37.16000 15.273
37.20000 13.231
37.24000 15.143
37.28000 21.323
37.32000 16.157
37.36000 16.074
37.40000 12.255
37.44000 5.107
37.48000 12.104
37.52000 12.286
37.56000 14.183
37.60000 19.067
37.64000 14.019
37.68000 20.183
37.72000 15.205
37.76000 11.901
37.80000 16.229
37.84000 11.080
37.88000 17.220
37.92000 16.234
37.96000 17.328
38.00000 6.991
38.04000 21.195
38.08000 14.293
38.12000 23.269
38.16000 17.224
38.20000 9.199
38.24000 16.313
38.28000 10.088
38.32000 20.443
38.36000 15.022
38.40000 15.297
38.44000 20.202
38.48000 11.159
38.52000 10.172
38.56000 9.105
38.60000 10.082
38.64000 16.156
38.68000 9.082
38.72000 11.227
38.76000 20.454
38.80000 18.311
38.84000 17.213
38.88000 10.207
38.92000 13.201
38.96000 16.327
39.00000 16.076
39.04000 14.125
39.08000 15.231
39.12000 16.174
39.16000 17.415
39.20000 12.126
39.24000 21.339
39.28000 13.220
39.32000 17.203
39.36000 20.395
39.40000 13.108
39.44000 12.254
39.48000 20.201
39.52000 12.242
39.56000 12.097
39.60000 17.340
39.64000 16.386
39.68000 9.130
39.72000 12.166
39.76000 18.269
39.80000 12.232
39.84000 14.154
39.88000 16.223
39.92000 10.204
39.96000 11.072
40.00000 15.128
40.04000 16.251
40.08000 13.176
40.12000 7.140
40.16000 22.180
40.20000 23.312
40.24000 13.171
40.28000 15.313
40.32000 15.068
40.36000 16.061
40.40000 8.177
40.44000 14.106
40.48000 18.172
40.52000 9.166
40.56000 12.219
40.60000 11.067
40.64000 7.145
40.68000 15.194
40.72000 14.070
40.76000 20.250
40.80000 17.316
40.84000 13.221
40.88000 17.383
40.92000 9.142
40.96000 10.274
41.00000 17.265
41.04000 13.100
41.08000 22.492
41.12000 18.214
41.16000 16.280
41.20000 15.235
41.24000 11.348
41.28000 12.189
41.32000 21.354
41.36000 11.248
41.40000 11.199
41.44000 18.318
41.48000 10.117
41.52000 10.984
41.56000 10.125
41.60000 16.519
41.64000 12.335
41.68000 13.164
41.72000 13.144
41.76000 13.070
41.80000 7.152
41.84000 19.123
41.88000 15.213
41.92000 20.305
41.96000 22.527
42.00000 16.192
42.04000 13.000
42.08000 13.173
42.12000 10.186
42.16000 10.129
42.20000 11.230
42.24000 14.270
42.28000 6.161
42.32000 13.170
42.36000 20.092
42.40000 20.366
42.44000 19.231
42.48000 19.213
42.52000 17.241
42.56000 16.330
42.60000 21.339
42.64000 22.381
42.68000 16.297
42.72000 19.333
42.76000 14.417
42.80000 13.087
42.84000 12.206
42.88000 21.384
42.92000 9.096
42.96000 19.168
43.00000 13.213
43.04000 20.167
43.08000 17.216
43.12000 13.165
43.16000 15.097
43.20000 7.038
43.24000 13.055
43.28000 7.103
43.32000 13.147
43.36000 19.369
43.40000 16.239
43.44000 9.103
43.48000 9.065
43.52000 15.179
43.56000 13.236
43.60000 17.183
43.64000 20.190
43.68000 11.960
43.72000 13.225
43.76000 24.428
43.80000 14.138
43.84000 19.335
43.88000 12.140
43.92000 9.027
43.96000 11.087
44.00000 12.130
44.04000 20.258
44.08000 15.213
44.12000 14.237
44.16000 10.116
44.20000 10.136
44.24000 13.088
44.28000 19.272
44.32000 15.210
44.36000 23.504
44.40000 16.095
44.44000 11.236
44.48000 16.191
44.52000 19.226
44.56000 13.173
44.60000 12.188
44.64000 12.258
44.68000 10.119
44.72000 11.228
44.76000 21.288
44.80000 16.113
44.84000 9.096
44.88000 15.201
44.92000 13.348
44.96000 18.203
45.00000 13.166
45.04000 20.210
45.08000 13.098
45.12000 17.159
45.16000 8.137
45.20000 11.047
45.24000 18.363
45.28000 18.113
45.32000 13.103
45.36000 17.386
45.40000 13.326
45.44000 10.287
45.48000 25.334
45.52000 18.304
45.56000 16.456
45.60000 16.135
45.64000 13.094
45.68000 12.161
45.72000 21.224
45.76000 21.267
45.80000 16.143
45.84000 17.174
45.88000 13.218
45.92000 12.253
45.96000 8.127
46.00000 12.119
46.04000 12.315
46.08000 21.180
46.12000 17.290
46.16000 14.202
46.20000 15.154
46.24000 17.186
46.28000 14.294
46.32000 14.065
46.36000 19.256
46.40000 17.287
46.44000 19.119
46.48000 16.255
46.52000 22.322
46.56000 17.235
46.60000 15.180
46.64000 13.187
46.68000 11.095
46.72000 16.171
46.76000 13.240
46.80000 11.138
46.84000 22.257
46.88000 17.132
46.92000 16.269
46.96000 17.182
47.00000 19.391
47.04000 17.171
47.08000 14.126
47.12000 14.020
47.16000 16.131
47.20000 10.134
47.24000 13.243
47.28000 12.200
47.32000 16.131
47.36000 13.085
47.40000 8.929
47.44000 9.174
47.48000 11.041
47.52000 16.300
47.56000 18.224
47.60000 18.138
47.64000 19.137
47.68000 9.170
47.72000 14.254
47.76000 13.158
47.80000 17.370
47.84000 17.162
47.88000 16.177
47.92000 11.059
47.96000 15.222
48.00000 12.152
48.04000 18.177
48.08000 10.097
48.12000 11.019
48.16000 18.237
48.20000 20.393
48.24000 15.245
48.28000 8.039
48.32000 6.964
48.36000 16.283
48.40000 16.168
48.44000 14.445
48.48000 9.089
48.52000 18.243
48.56000 2.066
48.60000 13.109
48.64000 20.261
48.68000 7.060
48.72000 19.241
48.76000 7.168
48.80000 8.198
48.84000 11.280
48.88000 14.184
48.92000 6.022
48.96000 13.157
49.00000 12.052
49.04000 12.118
49.08000 9.159
49.12000 17.221
49.16000 10.126
49.20000 11.290
49.24000 14.260
49.28000 10.156
49.32000 12.113
49.36000 13.210
49.40000 12.314
49.44000 16.347
49.48000 6.065
49.52000 9.200
49.56000 10.263
49.60000 15.095
49.64000 15.121
49.68000 11.219
49.72000 19.176
49.76000 12.159
49.80000 17.278
49.84000 18.137
49.88000 18.343
49.92000 9.175
49.96000 18.407
50.00000 14.275
50.04000 12.229
50.08000 7.106
50.12000 11.084
50.16000 19.294
50.20000 12.129
50.24000 11.198
50.28000 13.176
50.32000 12.062
50.36000 12.022
50.40000 7.147
50.44000 11.231
50.48000 13.226
50.52000 12.265
50.56000 11.272
50.60000 15.259
50.64000 20.186
50.68000 21.219
50.72000 10.044
50.76000 18.143
50.80000 9.187
50.84000 17.160
50.88000 13.225
50.92000 11.174
50.96000 14.247
51.00000 8.980
51.04000 15.136
51.08000 16.151
51.12000 10.113
51.16000 11.161
51.20000 17.188
51.24000 12.231
51.28000 13.182
51.32000 12.067
51.36000 12.160
51.40000 11.125
51.44000 9.067
51.48000 12.301
51.52000 7.040
51.56000 11.219
51.60000 12.172
51.64000 9.949
51.68000 10.035
51.72000 14.141
51.76000 13.211
51.80000 13.200
51.84000 16.185
51.88000 8.055
51.92000 17.405
51.96000 18.115
52.00000 7.112
52.04000 16.275
52.08000 10.134
52.12000 17.209
52.16000 16.168
52.20000 11.044
52.24000 13.070
52.28000 9.046
52.32000 8.180
52.36000 7.092
52.40000 15.272
52.44000 9.197
52.48000 11.179
52.52000 9.183
52.56000 9.148
52.60000 14.084
52.64000 11.283
52.68000 10.992
52.72000 14.209
52.76000 16.187
52.80000 9.287
52.84000 8.026
52.88000 12.069
52.92000 10.098
52.96000 12.220
53.00000 12.175
53.04000 15.216
53.08000 18.198
53.12000 16.221
53.16000 7.175
53.20000 13.279
53.24000 10.147
53.28000 7.198
53.32000 9.077
53.36000 7.221
53.40000 10.162
53.44000 15.147
53.48000 18.251
53.52000 15.237
53.56000 5.987
53.60000 12.250
53.64000 15.227
53.68000 9.097
53.72000 14.235
53.76000 18.200
53.80000 10.014
53.84000 9.108
53.88000 13.156
53.92000 9.027
53.96000 17.219
54.00000 9.159
54.04000 10.213
54.08000 15.986
54.12000 14.346
54.16000 13.268
54.20000 16.211
54.24000 8.112
54.28000 12.234
54.32000 11.257
54.36000 7.092
54.40000 13.254
54.44000 10.108
54.48000 7.281
54.52000 12.011
54.56000 4.104
54.60000 7.092
54.64000 8.238
54.68000 9.126
54.72000 9.147
54.76000 8.077
54.80000 11.140
54.84000 10.113
54.88000 8.216
54.92000 10.142
54.96000 4.973
55.00000 7.127
55.04000 12.105
55.08000 8.089
55.12000 13.128
55.16000 10.081
55.20000 6.097
55.24000 10.178
55.28000 11.151
55.32000 8.059
55.36000 11.115
55.40000 7.062
55.44000 14.163
55.48000 11.199
55.52000 6.122
55.56000 9.096
55.60000 13.003
55.64000 7.078
55.68000 10.071
55.72000 19.183
55.76000 7.098
55.80000 11.242
55.84000 5.061
55.88000 3.088
55.92000 12.287
55.96000 12.248
56.00000 16.547
56.04000 8.167
56.08000 13.174
56.12000 10.154
56.16000 11.085
56.20000 10.215
56.24000 8.099
56.28000 13.148
56.32000 13.083
56.36000 10.110
56.40000 10.129
56.44000 10.299
56.48000 13.136
56.52000 8.114
56.56000 9.101
56.60000 11.116
56.64000 15.224
56.68000 6.080
56.72000 9.164
56.76000 9.234
56.80000 9.200
56.84000 10.219
56.88000 13.259
56.92000 7.100
56.96000 5.014
57.00000 14.130
57.04000 9.125
57.08000 9.121
57.12000 9.142
57.16000 3.995
57.20000 10.158
57.24000 9.119
57.28000 8.090
57.32000 12.110
57.36000 6.092
57.40000 6.964
57.44000 13.184
57.48000 7.006
57.52000 10.277
57.56000 7.046
57.60000 11.188
57.64000 12.205
57.68000 12.280
57.72000 19.373
57.76000 10.278
57.80000 15.171
57.84000 9.195
57.88000 10.230
57.92000 9.254
57.96000 8.932
58.00000 5.075
58.04000 11.131
58.08000 8.095
58.12000 16.073
58.16000 12.253
58.20000 7.995
58.24000 5.094
58.28000 10.217
58.32000 9.125
58.36000 12.056
58.40000 6.108
58.44000 6.064
58.48000 10.151
58.52000 4.047
58.56000 7.060
58.60000 15.152
58.64000 11.097
58.68000 8.037
58.72000 12.073
58.76000 4.018
58.80000 9.044
58.84000 8.171
58.88000 8.043
58.92000 12.153
58.96000 8.085
59.00000 8.089
59.04000 8.083
59.08000 8.147
59.12000 6.063
59.16000 2.018
59.20000 8.066
59.24000 13.216
59.28000 9.177
59.32000 8.068
59.36000 10.040
59.40000 12.078
59.44000 8.055
59.48000 10.064
59.52000 9.133
59.56000 12.210
59.60000 8.059
59.64000 6.179
59.68000 8.015
59.72000 8.041
59.76000 4.130
59.80000 7.156
59.84000 14.279
59.88000 6.060
59.92000 9.068
59.96000 11.220
60.00000 7.231
60.04000 7.093
60.08000 6.083
60.12000 9.060
60.16000 11.144
60.20000 9.176
60.24000 11.170
60.28000 12.021
60.32000 12.122
60.36000 7.098
60.40000 6.013
60.44000 7.084
60.48000 6.085
60.52000 6.111
60.56000 12.253
60.60000 12.110
60.64000 9.020
60.68000 9.117
60.72000 8.183
60.76000 5.084
60.80000 7.054
60.84000 6.077
60.88000 13.100
60.92000 9.056
60.96000 9.175
61.00000 8.024
61.04000 8.010
61.08000 13.262
61.12000 4.102
61.16000 6.981
61.20000 11.194
61.24000 9.096
61.28000 3.062
61.32000 7.172
61.36000 7.989
61.40000 13.275
61.44000 11.254
61.48000 8.158
61.52000 5.987
61.56000 4.001
61.60000 5.104
61.64000 11.110
61.68000 3.060
61.72000 12.301
61.76000 6.126
61.80000 9.181
61.84000 18.189
61.88000 2.010
61.92000 4.084
61.96000 4.036
62.00000 6.998
62.04000 8.222
62.08000 7.095
62.12000 7.017
62.16000 13.214
62.20000 9.130
62.24000 12.123
62.28000 6.124
62.32000 11.114
62.36000 7.123
62.40000 9.122
62.44000 9.050
62.48000 10.125
62.52000 8.081
62.56000 5.119
62.60000 8.048
62.64000 9.120
62.68000 10.086
62.72000 8.164
62.76000 4.078
62.80000 9.005
62.84000 9.129
62.88000 8.079
62.92000 12.194
62.96000 13.329
63.00000 5.951
63.04000 8.093
63.08000 5.978
63.12000 9.074
63.16000 15.176
63.20000 7.084
63.24000 8.016
63.28000 8.062
63.32000 6.047
63.36000 3.997
63.40000 5.053
63.44000 6.063
63.48000 6.106
63.52000 6.089
63.56000 12.064
63.60000 3.008
63.64000 2.025
63.68000 12.261
63.72000 10.118
63.76000 8.093
63.80000 9.066
63.84000 6.104
63.88000 4.062
63.92000 4.038
63.96000 10.983
64.00000 9.166
64.04000 2.045
64.08000 9.016
64.12000 8.028
64.16000 10.924
64.20000 4.034
64.24000 6.138
64.28000 8.117
64.32000 4.034
64.36000 5.113
64.40000 6.129
64.44000 8.980
64.48000 10.197
64.52000 9.097
64.56000 14.002
64.60000 6.053
64.64000 5.035
64.68000 7.037
64.72000 7.036
64.76000 4.100
64.80000 5.082
64.84000 6.102
64.88000 11.281
64.92000 5.032
64.96000 4.059
65.00000 9.060