File: XRD/XRD/11-09-2025/XY Data/01092025_BTO_omega_0_5_001_18_-44-550_22-700.xy
20.00000 12.370
20.04000 13.206
20.08000 12.132
20.12000 5.091
20.16000 18.398
20.20000 11.117
20.24000 9.194
20.28000 5.993
20.32000 11.085
20.36000 11.063
20.40000 12.081
20.44000 12.192
20.48000 12.212
20.52000 9.134
20.56000 10.127
20.60000 9.116
20.64000 7.077
20.68000 12.064
20.72000 10.121
20.76000 9.184
20.80000 14.214
20.84000 11.164
20.88000 10.022
20.92000 11.255
20.96000 14.360
21.00000 8.131
21.04000 11.047
21.08000 15.272
21.12000 8.188
21.16000 12.273
21.20000 6.074
21.24000 11.107
21.28000 12.013
21.32000 14.036
21.36000 13.207
21.40000 14.021
21.44000 9.128
21.48000 9.178
21.52000 9.160
21.56000 12.174
21.60000 9.069
21.64000 5.150
21.68000 11.114
21.72000 8.097
21.76000 11.162
21.80000 7.170
21.84000 10.269
21.88000 16.123
21.92000 5.037
21.96000 11.175
22.00000 10.069
22.04000 8.063
22.08000 10.167
22.12000 14.078
22.16000 9.161
22.20000 9.206
22.24000 6.014
22.28000 12.262
22.32000 8.055
22.36000 14.153
22.40000 9.190
22.44000 6.992
22.48000 10.111
22.52000 8.050
22.56000 12.180
22.60000 10.081
22.64000 10.209
22.68000 11.130
22.72000 5.125
22.76000 13.287
22.80000 7.205
22.84000 12.138
22.88000 10.159
22.92000 8.159
22.96000 9.250
23.00000 7.993
23.04000 10.280
23.08000 7.057
23.12000 5.039
23.16000 6.071
23.20000 7.034
23.24000 7.193
23.28000 10.976
23.32000 9.009
23.36000 5.169
23.40000 7.050
23.44000 3.017
23.48000 10.146
23.52000 9.166
23.56000 12.957
23.60000 8.145
23.64000 6.106
23.68000 9.237
23.72000 10.101
23.76000 5.059
23.80000 2.006
23.84000 2.034
23.88000 14.346
23.92000 6.082
23.96000 8.185
24.00000 3.049
24.04000 9.104
24.08000 8.137
24.12000 7.186
24.16000 6.151
24.20000 8.134
24.24000 5.097
24.28000 4.063
24.32000 11.233
24.36000 13.101
24.40000 2.976
24.44000 4.028
24.48000 10.151
24.52000 11.113
24.56000 10.167
24.60000 10.179
24.64000 4.130
24.68000 7.067
24.72000 10.042
24.76000 6.990
24.80000 8.152
24.84000 10.204
24.88000 5.192
24.92000 7.174
24.96000 5.112
25.00000 9.135
25.04000 7.148
25.08000 5.068
25.12000 6.183
25.16000 7.117
25.20000 12.105
25.24000 11.173
25.28000 10.159
25.32000 5.071
25.36000 8.988
25.40000 5.982
25.44000 9.033
25.48000 9.012
25.52000 12.104
25.56000 6.177
25.60000 6.059
25.64000 8.206
25.68000 11.103
25.72000 7.112
25.76000 10.023
25.80000 6.037
25.84000 12.127
25.88000 9.148
25.92000 15.001
25.96000 3.100
26.00000 8.052
26.04000 6.260
26.08000 11.237
26.12000 10.015
26.16000 6.100
26.20000 5.119
26.24000 8.130
26.28000 3.027
26.32000 7.043
26.36000 6.071
26.40000 11.243
26.44000 7.055
26.48000 6.134
26.52000 3.039
26.56000 5.073
26.60000 6.061
26.64000 6.932
26.68000 10.155
26.72000 15.148
26.76000 4.042
26.80000 7.095
26.84000 7.124
26.88000 13.299
26.92000 12.168
26.96000 2.031
27.00000 10.192
27.04000 7.073
27.08000 4.063
27.12000 6.166
27.16000 5.146
27.20000 8.134
27.24000 6.046
27.28000 7.084
27.32000 6.137
27.36000 4.052
27.40000 5.064
27.44000 8.137
27.48000 6.095
27.52000 8.098
27.56000 6.171
27.60000 8.123
27.64000 12.132
27.68000 5.105
27.72000 4.072
27.76000 3.103
27.80000 3.967
27.84000 1.989
27.88000 4.985
27.92000 8.121
27.96000 7.150
28.00000 5.059
28.04000 7.020
28.08000 9.200
28.12000 5.104
28.16000 4.015
28.20000 6.124
28.24000 7.076
28.28000 8.054
28.32000 8.040
28.36000 6.076
28.40000 10.213
28.44000 6.019
28.48000 3.056
28.52000 3.019
28.56000 11.091
28.60000 6.021
28.64000 7.081
28.68000 7.072
28.72000 0.988
28.76000 5.022
28.80000 8.145
28.84000 6.164
28.88000 7.077
28.92000 12.194
28.96000 4.161
29.00000 7.133
29.04000 10.220
29.08000 3.041
29.12000 7.022
29.16000 4.052
29.20000 7.075
29.24000 3.011
29.28000 6.096
29.32000 5.035
29.36000 9.157
29.40000 6.070
29.44000 5.099
29.48000 6.156
29.52000 6.086
29.56000 2.041
29.60000 5.082
29.64000 9.184
29.68000 4.961
29.72000 10.097
29.76000 1.007
29.80000 4.990
29.84000 7.209
29.88000 6.062
29.92000 5.052
29.96000 10.214
30.00000 4.152
30.04000 6.060
30.08000 4.008
30.12000 3.028
30.16000 6.083
30.20000 3.067
30.24000 8.164
30.28000 3.028
30.32000 5.035
30.36000 8.096
30.40000 4.097
30.44000 7.159
30.48000 8.159
30.52000 8.133
30.56000 3.975
30.60000 6.141
30.64000 1.008
30.68000 8.023
30.72000 11.211
30.76000 5.976
30.80000 3.048
30.84000 1.972
30.88000 4.980
30.92000 7.135
30.96000 2.047
31.00000 6.139
31.04000 7.073
31.08000 6.105
31.12000 3.054
31.16000 6.072
31.20000 2.058
31.24000 7.163
31.28000 9.088
31.32000 5.128
31.36000 4.039
31.40000 6.106
31.44000 2.015
31.48000 3.029
31.52000 6.995
31.56000 8.057
31.60000 4.108
31.64000 5.096
31.68000 4.027
31.72000 5.023
31.76000 7.092
31.80000 10.224
31.84000 6.039
31.88000 4.040
31.92000 8.122
31.96000 5.109
32.00000 4.043
32.04000 1.008
32.08000 7.104
32.12000 4.030
32.16000 8.126
32.20000 3.062
32.24000 4.078
32.28000 6.091
32.32000 1.014
32.36000 0.983
32.40000 5.993
32.44000 3.044
32.48000 7.150
32.52000 6.104
32.56000 6.016
32.60000 7.070
32.64000 4.065
32.68000 2.033
32.72000 3.077
32.76000 6.106
32.80000 0.000
32.84000 5.108
32.88000 3.048
32.92000 2.972
32.96000 7.103
33.00000 10.055
33.04000 7.193
33.08000 4.074
33.12000 5.062
33.16000 5.065
33.20000 6.168
33.24000 4.995
33.28000 4.067
33.32000 2.034
33.36000 2.114
33.40000 4.075
33.44000 2.003
33.48000 2.067
33.52000 3.011
33.56000 2.990
33.60000 5.056
33.64000 7.167
33.68000 3.117
33.72000 3.039
33.76000 5.969
33.80000 5.129
33.84000 3.140
33.88000 2.994
33.92000 3.046
33.96000 2.990
34.00000 1.036
34.04000 5.955
34.08000 3.022
34.12000 8.018
34.16000 3.095
34.20000 4.966
34.24000 2.086
34.28000 2.059
34.32000 6.058
34.36000 3.003
34.40000 7.017
34.44000 4.113
34.48000 1.002
34.52000 8.158
34.56000 4.066
34.60000 2.022
34.64000 3.091
34.68000 4.008
34.72000 6.115
34.76000 3.036
34.80000 5.037
34.84000 6.117
34.88000 5.081
34.92000 1.989
34.96000 3.065
35.00000 3.079
35.04000 7.036
35.08000 5.992
35.12000 2.035
35.16000 4.063
35.20000 0.994
35.24000 2.009
35.28000 7.219
35.32000 5.024
35.36000 2.015
35.40000 5.040
35.44000 3.017
35.48000 2.055
35.52000 6.013
35.56000 3.034
35.60000 3.034
35.64000 2.053
35.68000 3.023
35.72000 6.140
35.76000 5.177
35.80000 2.059
35.84000 2.038
35.88000 7.106
35.92000 6.057
35.96000 2.056
36.00000 2.050
36.04000 3.998
36.08000 3.007
36.12000 2.973
36.16000 6.034
36.20000 2.988
36.24000 5.110
36.28000 5.049
36.32000 4.131
36.36000 4.080
36.40000 5.074
36.44000 7.223
36.48000 2.003
36.52000 7.049
36.56000 7.059
36.60000 3.087
36.64000 3.003
36.68000 1.012
36.72000 5.062
36.76000 3.037
36.80000 2.992
36.84000 6.133
36.88000 3.067
36.92000 2.983
36.96000 8.139
37.00000 2.029
37.04000 1.971
37.08000 6.970
37.12000 5.107
37.16000 4.024
37.20000 5.104
37.24000 4.038
37.28000 0.997
37.32000 4.076
37.36000 2.024
37.40000 4.005
37.44000 1.045
37.48000 3.003
37.52000 3.007
37.56000 1.973
37.60000 8.029
37.64000 2.023
37.68000 3.019
37.72000 7.011
37.76000 1.003
37.80000 6.088
37.84000 1.018
37.88000 1.011
37.92000 5.065
37.96000 4.003
38.00000 5.034
38.04000 0.993
38.08000 2.989
38.12000 2.956
38.16000 5.993
38.20000 4.051
38.24000 3.069
38.28000 1.020
38.32000 1.983
38.36000 0.986
38.40000 3.001
38.44000 5.062
38.48000 4.087
38.52000 3.077
38.56000 6.056
38.60000 6.078
38.64000 8.115
38.68000 1.978
38.72000 3.030
38.76000 3.021
38.80000 2.058
38.84000 2.002
38.88000 5.136
38.92000 4.066
38.96000 5.018
39.00000 2.072
39.04000 7.091
39.08000 6.164
39.12000 3.073
39.16000 0.000
39.20000 5.131
39.24000 4.065
39.28000 5.052
39.32000 4.067
39.36000 2.063
39.40000 1.051
39.44000 5.018
39.48000 7.009
39.52000 2.043
39.56000 0.000
39.60000 5.068
39.64000 4.063
39.68000 4.117
39.72000 1.017
39.76000 3.015
39.80000 2.071
39.84000 4.021
39.88000 5.087
39.92000 2.051
39.96000 4.086
40.00000 3.992
40.04000 10.096
40.08000 7.987
40.12000 2.112
40.16000 2.004
40.20000 3.980
40.24000 6.033
40.28000 2.066
40.32000 5.018
40.36000 4.098
40.40000 7.109
40.44000 5.081
40.48000 3.000
40.52000 4.080
40.56000 7.118
40.60000 3.035
40.64000 2.072
40.68000 3.968
40.72000 1.009
40.76000 1.992
40.80000 0.000
40.84000 5.060
40.88000 1.993
40.92000 3.035
40.96000 3.053
41.00000 1.001
41.04000 4.057
41.08000 6.233
41.12000 4.012
41.16000 2.039
41.20000 5.048
41.24000 3.024
41.28000 3.063
41.32000 2.029
41.36000 1.977
41.40000 4.123
41.44000 5.043
41.48000 5.091
41.52000 4.100
41.56000 4.985
41.60000 3.009
41.64000 2.002
41.68000 1.010
41.72000 4.062
41.76000 4.191
41.80000 5.090
41.84000 2.039
41.88000 6.063
41.92000 6.059
41.96000 0.987
42.00000 2.035
42.04000 2.119
42.08000 3.038
42.12000 5.980
42.16000 4.059
42.20000 3.057
42.24000 4.034
42.28000 2.988
42.32000 4.027
42.36000 2.015
42.40000 4.117
42.44000 1.999
42.48000 6.024
42.52000 0.990
42.56000 3.142
42.60000 2.031
42.64000 3.057
42.68000 5.106
42.72000 2.033
42.76000 6.017
42.80000 3.087
42.84000 3.069
42.88000 6.098
42.92000 4.225
42.96000 5.053
43.00000 4.039
43.04000 4.016
43.08000 4.039
43.12000 2.001
43.16000 2.032
43.20000 1.006
43.24000 0.000
43.28000 4.023
43.32000 3.066
43.36000 4.072
43.40000 6.061
43.44000 4.034
43.48000 7.036
43.52000 3.993
43.56000 4.067
43.60000 3.000
43.64000 10.147
43.68000 4.033
43.72000 6.101
43.76000 2.013
43.80000 0.984
43.84000 1.004
43.88000 0.981
43.92000 2.016
43.96000 5.140
44.00000 0.992
44.04000 1.028
44.08000 3.061
44.12000 4.020
44.16000 2.005
44.20000 3.054
44.24000 0.000
44.28000 2.010
44.32000 6.097
44.36000 2.069
44.40000 2.065
44.44000 2.026
44.48000 1.013
44.52000 5.008
44.56000 2.012
44.60000 3.017
44.64000 2.979
44.68000 6.096
44.72000 2.024
44.76000 2.012
44.80000 1.973
44.84000 2.054
44.88000 2.966
44.92000 2.056
44.96000 2.980
45.00000 3.012
45.04000 2.029
45.08000 4.001
45.12000 2.006
45.16000 4.071
45.20000 5.159
45.24000 5.053
45.28000 3.061
45.32000 3.056
45.36000 0.994
45.40000 1.032
45.44000 2.004
45.48000 2.973
45.52000 2.985
45.56000 1.978
45.60000 7.100
45.64000 5.015
45.68000 5.090
45.72000 3.043
45.76000 8.106
45.80000 3.025
45.84000 4.044
45.88000 4.029
45.92000 3.041
45.96000 6.067
46.00000 1.990
46.04000 3.080
46.08000 3.105
46.12000 2.071
46.16000 7.995
46.20000 2.044
46.24000 6.096
46.28000 2.997
46.32000 2.026
46.36000 4.061
46.40000 4.069
46.44000 6.040
46.48000 4.107
46.52000 2.023
46.56000 0.975
46.60000 4.009
46.64000 6.033
46.68000 2.004
46.72000 3.962
46.76000 2.001
46.80000 1.034
46.84000 4.981
46.88000 4.022
46.92000 6.114
46.96000 1.994
47.00000 2.028
47.04000 5.041
47.08000 7.217
47.12000 3.027
47.16000 0.000
47.20000 2.981
47.24000 4.064
47.28000 0.000
47.32000 3.017
47.36000 3.011
47.40000 3.062
47.44000 3.027
47.48000 4.046
47.52000 5.029
47.56000 2.937
47.60000 2.111
47.64000 4.015
47.68000 4.934
47.72000 1.053
47.76000 5.048
47.80000 4.111
47.84000 5.028
47.88000 3.066
47.92000 5.062
47.96000 3.056
48.00000 4.012
48.04000 0.999
48.08000 4.091
48.12000 3.006
48.16000 5.068
48.20000 4.048
48.24000 5.089
48.28000 0.000
48.32000 4.052
48.36000 5.094
48.40000 3.032
48.44000 4.041
48.48000 3.013
48.52000 3.015
48.56000 0.977
48.60000 4.023
48.64000 1.052
48.68000 1.981
48.72000 5.076
48.76000 7.076
48.80000 3.965
48.84000 5.149
48.88000 1.967
48.92000 1.000
48.96000 1.007
49.00000 7.158
49.04000 0.000
49.08000 3.092
49.12000 2.015
49.16000 3.019
49.20000 3.067
49.24000 2.977
49.28000 3.045
49.32000 4.068
49.36000 4.111
49.40000 3.089
49.44000 1.998
49.48000 4.076
49.52000 5.097
49.56000 1.979
49.60000 0.999
49.64000 7.065
49.68000 3.007
49.72000 3.974
49.76000 4.104
49.80000 4.063
49.84000 2.983
49.88000 4.079
49.92000 6.104
49.96000 4.068
50.00000 5.114
50.04000 6.071
50.08000 4.029
50.12000 3.012
50.16000 7.075
50.20000 4.058
50.24000 0.994
50.28000 7.120
50.32000 6.020
50.36000 1.963
50.40000 2.956
50.44000 4.037
50.48000 2.981
50.52000 1.028
50.56000 3.012
50.60000 3.944
50.64000 2.059
50.68000 8.043
50.72000 4.047
50.76000 3.077
50.80000 4.035
50.84000 2.033
50.88000 5.165
50.92000 3.062
50.96000 4.058
51.00000 2.951
51.04000 4.100
51.08000 0.986
51.12000 7.087
51.16000 4.075
51.20000 4.105
51.24000 2.007
51.28000 2.976
51.32000 1.994
51.36000 5.147
51.40000 4.976
51.44000 5.986
51.48000 3.046
51.52000 3.102
51.56000 3.986
51.60000 3.071
51.64000 3.048
51.68000 4.005
51.72000 1.067
51.76000 2.986
51.80000 5.098
51.84000 4.957
51.88000 5.180
51.92000 6.134
51.96000 1.018
52.00000 5.055
52.04000 3.023
52.08000 4.015
52.12000 3.080
52.16000 2.029
52.20000 5.100
52.24000 4.034
52.28000 7.023
52.32000 3.034
52.36000 2.032
52.40000 3.116
52.44000 2.059
52.48000 4.040
52.52000 7.038
52.56000 3.112
52.60000 1.984
52.64000 4.016
52.68000 5.020
52.72000 6.078
52.76000 8.097
52.80000 6.104
52.84000 9.088
52.88000 4.041
52.92000 4.122
52.96000 5.990
53.00000 4.072
53.04000 6.003
53.08000 7.124
53.12000 8.290
53.16000 3.045
53.20000 3.958
53.24000 3.015
53.28000 4.980
53.32000 4.061
53.36000 3.054
53.40000 3.110
53.44000 3.012
53.48000 4.129
53.52000 1.970
53.56000 5.020
53.60000 5.101
53.64000 2.082
53.68000 7.127
53.72000 5.010
53.76000 4.043
53.80000 7.112
53.84000 3.064
53.88000 6.059
53.92000 2.985
53.96000 5.013
54.00000 5.993
54.04000 3.000
54.08000 7.054
54.12000 2.035
54.16000 4.009
54.20000 3.083
54.24000 6.157
54.28000 3.053
54.32000 2.038
54.36000 6.042
54.40000 2.063
54.44000 4.154
54.48000 0.000
54.52000 3.008
54.56000 4.077
54.60000 2.950
54.64000 2.101
54.68000 2.013
54.72000 5.097
54.76000 2.051
54.80000 1.078
54.84000 4.061
54.88000 3.075
54.92000 3.053
54.96000 3.006
55.00000 2.049
55.04000 0.975
55.08000 3.020
55.12000 0.991
55.16000 1.005
55.20000 0.997
55.24000 3.033
55.28000 2.023
55.32000 4.111
55.36000 4.058
55.40000 3.063
55.44000 5.180
55.48000 1.065
55.52000 1.023
55.56000 4.979
55.60000 3.067
55.64000 5.121
55.68000 3.980
55.72000 4.020
55.76000 0.994
55.80000 0.978
55.84000 7.099
55.88000 1.994
55.92000 1.061
55.96000 5.132
56.00000 2.009
56.04000 2.984
56.08000 7.005
56.12000 3.090
56.16000 3.002
56.20000 2.004
56.24000 3.155
56.28000 2.965
56.32000 5.084
56.36000 3.029
56.40000 5.187
56.44000 3.039
56.48000 3.059
56.52000 1.038
56.56000 2.986
56.60000 4.045
56.64000 1.002
56.68000 0.000
56.72000 3.022
56.76000 1.020
56.80000 5.026
56.84000 4.024
56.88000 2.015
56.92000 3.019
56.96000 3.046
57.00000 3.050
57.04000 2.999
57.08000 5.114
57.12000 4.028
57.16000 4.071
57.20000 4.066
57.24000 2.006
57.28000 5.067
57.32000 3.967
57.36000 3.019
57.40000 2.041
57.44000 4.104
57.48000 2.025
57.52000 3.012
57.56000 4.057
57.60000 2.003
57.64000 7.089
57.68000 2.053
57.72000 1.995
57.76000 1.998
57.80000 3.000
57.84000 1.052
57.88000 4.049
57.92000 3.077
57.96000 3.026
58.00000 1.000
58.04000 5.084
58.08000 1.126
58.12000 1.031
58.16000 2.104
58.20000 1.023
58.24000 0.000
58.28000 2.040
58.32000 1.056
58.36000 5.083
58.40000 1.992
58.44000 3.065
58.48000 3.025
58.52000 1.014
58.56000 1.003
58.60000 1.000
58.64000 1.015
58.68000 4.048
58.72000 0.000
58.76000 1.007
58.80000 2.078
58.84000 3.033
58.88000 2.021
58.92000 1.014
58.96000 4.083
59.00000 5.045
59.04000 5.022
59.08000 4.069
59.12000 7.150
59.16000 2.007
59.20000 1.994
59.24000 6.139
59.28000 1.032
59.32000 5.113
59.36000 3.060
59.40000 3.020
59.44000 0.994
59.48000 2.006
59.52000 1.018
59.56000 5.076
59.60000 4.055
59.64000 7.086
59.68000 3.006
59.72000 1.941
59.76000 0.989
59.80000 4.070
59.84000 1.961
59.88000 1.993
59.92000 1.998
59.96000 3.023
60.00000 0.993
60.04000 3.104
60.08000 2.981
60.12000 4.079
60.16000 2.028
60.20000 2.042
60.24000 3.072
60.28000 0.000
60.32000 4.069
60.36000 6.073
60.40000 5.070
60.44000 2.001
60.48000 1.001
60.52000 1.002
60.56000 0.986
60.60000 0.980
60.64000 4.042
60.68000 4.044
60.72000 3.055
60.76000 1.021
60.80000 5.073
60.84000 2.043
60.88000 2.108
60.92000 4.101
60.96000 4.979
61.00000 5.034
61.04000 1.004
61.08000 4.055
61.12000 3.953
61.16000 2.059
61.20000 4.002
61.24000 2.051
61.28000 3.032
61.32000 0.000
61.36000 0.000
61.40000 4.041
61.44000 0.000
61.48000 3.143
61.52000 0.000
61.56000 3.044
61.60000 5.095
61.64000 3.043
61.68000 0.988
61.72000 1.025
61.76000 3.969
61.80000 1.995
61.84000 2.988
61.88000 0.000
61.92000 2.954
61.96000 6.136
62.00000 3.031
62.04000 4.095
62.08000 2.059
62.12000 0.000
62.16000 0.996
62.20000 3.113
62.24000 2.035
62.28000 4.954
62.32000 4.010
62.36000 3.120
62.40000 1.987
62.44000 2.026
62.48000 3.096
62.52000 1.035
62.56000 2.052
62.60000 1.008
62.64000 1.044
62.68000 2.937
62.72000 3.009
62.76000 0.999
62.80000 0.000
62.84000 1.003
62.88000 0.985
62.92000 0.983
62.96000 3.068
63.00000 3.002
63.04000 4.086
63.08000 5.205
63.12000 1.017
63.16000 0.995
63.20000 3.060
63.24000 2.014
63.28000 3.988
63.32000 2.978
63.36000 3.046
63.40000 1.009
63.44000 2.023
63.48000 6.054
63.52000 3.001
63.56000 4.173
63.60000 0.000
63.64000 0.000
63.68000 4.097
63.72000 3.997
63.76000 2.977
63.80000 2.011
63.84000 2.057
63.88000 2.985
63.92000 3.987
63.96000 3.020
64.00000 4.140
64.04000 3.020
64.08000 3.025
64.12000 1.984
64.16000 3.016
64.20000 4.087
64.24000 2.022
64.28000 5.144
64.32000 5.112
64.36000 0.989
64.40000 0.983
64.44000 4.000
64.48000 7.096
64.52000 0.980
64.56000 7.061
64.60000 4.117
64.64000 3.051
64.68000 1.991
64.72000 2.059
64.76000 3.122
64.80000 0.992
64.84000 2.119
64.88000 1.045
64.92000 0.000
64.96000 1.973
65.00000 3.047