File: XRD/XRD/11-09-2025/XY Data/01092025_BTO_omega_1_001_34_11-262_5-424.xy
20.00000 23.296
20.04000 16.124
20.08000 20.315
20.12000 18.109
20.16000 13.213
20.20000 16.282
20.24000 17.171
20.28000 30.411
20.32000 18.245
20.36000 27.628
20.40000 24.308
20.44000 19.334
20.48000 17.186
20.52000 30.429
20.56000 23.134
20.60000 21.344
20.64000 10.284
20.68000 17.387
20.72000 16.183
20.76000 13.093
20.80000 13.260
20.84000 24.400
20.88000 22.282
20.92000 23.210
20.96000 16.153
21.00000 20.425
21.04000 16.350
21.08000 16.203
21.12000 18.373
21.16000 18.313
21.20000 10.126
21.24000 17.177
21.28000 17.364
21.32000 18.139
21.36000 15.199
21.40000 17.111
21.44000 16.267
21.48000 19.263
21.52000 22.368
21.56000 21.148
21.60000 20.110
21.64000 20.261
21.68000 19.150
21.72000 20.083
21.76000 15.243
21.80000 20.249
21.84000 18.202
21.88000 18.291
21.92000 14.160
21.96000 24.390
22.00000 19.101
22.04000 14.259
22.08000 15.106
22.12000 18.226
22.16000 26.390
22.20000 22.411
22.24000 22.403
22.28000 28.616
22.32000 21.312
22.36000 21.073
22.40000 24.316
22.44000 32.236
22.48000 24.524
22.52000 16.304
22.56000 18.166
22.60000 19.154
22.64000 30.582
22.68000 16.211
22.72000 24.329
22.76000 23.604
22.80000 31.302
22.84000 27.347
22.88000 24.540
22.92000 23.161
22.96000 28.239
23.00000 22.290
23.04000 34.396
23.08000 30.323
23.12000 27.452
23.16000 24.412
23.20000 21.450
23.24000 31.582
23.28000 27.486
23.32000 24.968
23.36000 22.250
23.40000 16.073
23.44000 16.089
23.48000 28.478
23.52000 24.367
23.56000 28.434
23.60000 22.228
23.64000 24.336
23.68000 25.284
23.72000 30.484
23.76000 27.259
23.80000 27.470
23.84000 20.201
23.88000 29.720
23.92000 35.390
23.96000 26.301
24.00000 27.232
24.04000 20.272
24.08000 30.532
24.12000 28.176
24.16000 24.405
24.20000 30.430
24.24000 29.493
24.28000 26.264
24.32000 25.416
24.36000 27.661
24.40000 40.279
24.44000 25.410
24.48000 27.533
24.52000 27.469
24.56000 23.349
24.60000 33.449
24.64000 20.110
24.68000 20.263
24.72000 35.486
24.76000 36.407
24.80000 34.276
24.84000 42.572
24.88000 41.539
24.92000 29.201
24.96000 29.426
25.00000 31.554
25.04000 28.589
25.08000 37.357
25.12000 27.300
25.16000 24.271
25.20000 38.400
25.24000 37.253
25.28000 33.183
25.32000 33.499
25.36000 28.314
25.40000 32.421
25.44000 43.402
25.48000 34.570
25.52000 42.685
25.56000 34.415
25.60000 37.602
25.64000 47.813
25.68000 35.613
25.72000 39.365
25.76000 42.272
25.80000 39.636
25.84000 33.480
25.88000 31.516
25.92000 40.820
25.96000 41.456
26.00000 39.501
26.04000 38.130
26.08000 38.606
26.12000 42.326
26.16000 30.211
26.20000 43.804
26.24000 32.546
26.28000 39.630
26.32000 48.645
26.36000 30.501
26.40000 41.532
26.44000 35.434
26.48000 44.690
26.52000 33.370
26.56000 54.604
26.60000 30.288
26.64000 41.643
26.68000 45.417
26.72000 35.497
26.76000 37.286
26.80000 36.629
26.84000 46.569
26.88000 58.991
26.92000 64.035
26.96000 42.521
27.00000 39.360
27.04000 62.528
27.08000 54.348
27.12000 50.548
27.16000 47.310
27.20000 54.824
27.24000 48.873
27.28000 55.800
27.32000 39.427
27.36000 52.514
27.40000 43.729
27.44000 63.901
27.48000 40.381
27.52000 56.825
27.56000 43.382
27.60000 51.819
27.64000 51.260
27.68000 37.397
27.72000 54.713
27.76000 53.571
27.80000 52.694
27.84000 37.465
27.88000 51.756
27.92000 43.704
27.96000 49.623
28.00000 61.828
28.04000 39.300
28.08000 44.547
28.12000 53.582
28.16000 44.314
28.20000 50.812
28.24000 52.602
28.28000 44.520
28.32000 51.958
28.36000 50.562
28.40000 42.743
28.44000 52.728
28.48000 39.249
28.52000 41.613
28.56000 43.708
28.60000 50.695
28.64000 38.613
28.68000 42.701
28.72000 41.335
28.76000 38.602
28.80000 49.526
28.84000 24.329
28.88000 43.444
28.92000 39.494
28.96000 56.011
29.00000 47.490
29.04000 45.087
29.08000 26.451
29.12000 28.623
29.16000 48.721
29.20000 43.637
29.24000 52.536
29.28000 36.473
29.32000 42.593
29.36000 42.361
29.40000 41.475
29.44000 33.519
29.48000 47.817
29.52000 45.444
29.56000 39.871
29.60000 51.771
29.64000 41.370
29.68000 34.362
29.72000 42.551
29.76000 54.857
29.80000 40.428
29.84000 22.330
29.88000 28.421
29.92000 36.278
29.96000 30.342
30.00000 33.559
30.04000 28.333
30.08000 36.486
30.12000 34.496
30.16000 33.106
30.20000 34.438
30.24000 35.218
30.28000 36.244
30.32000 25.496
30.36000 33.458
30.40000 26.202
30.44000 32.324
30.48000 21.127
30.52000 39.467
30.56000 21.096
30.60000 36.529
30.64000 27.247
30.68000 29.396
30.72000 29.535
30.76000 31.159
30.80000 25.341
30.84000 17.090
30.88000 34.245
30.92000 25.664
30.96000 25.137
31.00000 25.359
31.04000 27.237
31.08000 35.335
31.12000 34.453
31.16000 21.283
31.20000 24.185
31.24000 33.546
31.28000 31.324
31.32000 29.354
31.36000 21.209
31.40000 29.391
31.44000 18.053
31.48000 33.441
31.52000 26.349
31.56000 18.202
31.60000 37.410
31.64000 15.049
31.68000 22.512
31.72000 19.135
31.76000 20.316
31.80000 22.247
31.84000 21.213
31.88000 20.079
31.92000 23.277
31.96000 37.439
32.00000 33.592
32.04000 28.476
32.08000 26.522
32.12000 25.423
32.16000 27.533
32.20000 30.514
32.24000 30.453
32.28000 25.226
32.32000 19.230
32.36000 30.345
32.40000 31.411
32.44000 33.048
32.48000 23.403
32.52000 25.456
32.56000 19.375
32.60000 25.466
32.64000 25.396
32.68000 31.295
32.72000 19.222
32.76000 27.524
32.80000 23.338
32.84000 25.480
32.88000 31.253
32.92000 30.289
32.96000 16.081
33.00000 12.158
33.04000 8.094
33.08000 22.394
33.12000 18.334
33.16000 18.184
33.20000 20.236
33.24000 23.135
33.28000 18.265
33.32000 19.328
33.36000 15.272
33.40000 20.075
33.44000 19.258
33.48000 19.076
33.52000 19.336
33.56000 21.334
33.60000 14.198
33.64000 26.246
33.68000 16.260
33.72000 13.102
33.76000 15.237
33.80000 18.264
33.84000 16.165
33.88000 15.197
33.92000 7.097
33.96000 12.096
34.00000 19.248
34.04000 11.281
34.08000 15.100
34.12000 18.135
34.16000 15.187
34.20000 17.268
34.24000 17.278
34.28000 16.459
34.32000 12.209
34.36000 10.168
34.40000 15.082
34.44000 13.186
34.48000 20.314
34.52000 16.227
34.56000 19.079
34.60000 14.146
34.64000 16.198
34.68000 14.033
34.72000 13.253
34.76000 8.052
34.80000 19.313
34.84000 17.249
34.88000 16.147
34.92000 15.177
34.96000 17.142
35.00000 19.334
35.04000 18.035
35.08000 16.354
35.12000 17.402
35.16000 14.097
35.20000 19.436
35.24000 15.148
35.28000 17.136
35.32000 14.247
35.36000 16.078
35.40000 15.177
35.44000 11.059
35.48000 7.149
35.52000 12.178
35.56000 17.232
35.60000 18.376
35.64000 16.324
35.68000 23.307
35.72000 16.246
35.76000 15.250
35.80000 21.253
35.84000 14.334
35.88000 11.206
35.92000 16.165
35.96000 11.112
36.00000 19.379
36.04000 13.212
36.08000 13.203
36.12000 19.307
36.16000 7.125
36.20000 16.317
36.24000 14.195
36.28000 22.442
36.32000 8.103
36.36000 15.243
36.40000 15.194
36.44000 19.340
36.48000 19.260
36.52000 16.030
36.56000 20.281
36.60000 13.171
36.64000 16.153
36.68000 27.325
36.72000 23.477
36.76000 18.242
36.80000 21.249
36.84000 16.140
36.88000 11.085
36.92000 14.263
36.96000 15.161
37.00000 16.197
37.04000 14.027
37.08000 17.194
37.12000 18.523
37.16000 15.982
37.20000 15.157
37.24000 21.206
37.28000 12.177
37.32000 23.342
37.36000 19.130
37.40000 13.110
37.44000 20.258
37.48000 14.184
37.52000 13.159
37.56000 19.144
37.60000 19.445
37.64000 17.235
37.68000 15.094
37.72000 14.145
37.76000 18.145
37.80000 13.200
37.84000 9.302
37.88000 19.348
37.92000 15.156
37.96000 15.218
38.00000 15.097
38.04000 15.090
38.08000 23.356
38.12000 14.167
38.16000 23.417
38.20000 18.249
38.24000 12.117
38.28000 18.292
38.32000 22.322
38.36000 12.140
38.40000 19.170
38.44000 20.334
38.48000 15.236
38.52000 13.415
38.56000 20.480
38.60000 21.172
38.64000 20.315
38.68000 20.265
38.72000 15.196
38.76000 20.405
38.80000 18.273
38.84000 12.080
38.88000 19.280
38.92000 15.263
38.96000 16.414
39.00000 11.106
39.04000 16.271
39.08000 19.207
39.12000 13.348
39.16000 16.359
39.20000 23.251
39.24000 16.302
39.28000 16.213
39.32000 23.372
39.36000 13.219
39.40000 19.018
39.44000 22.314
39.48000 18.148
39.52000 22.180
39.56000 23.470
39.60000 17.238
39.64000 19.427
39.68000 19.304
39.72000 15.028
39.76000 24.271
39.80000 17.316
39.84000 18.183
39.88000 15.144
39.92000 30.388
39.96000 19.178
40.00000 21.146
40.04000 17.329
40.08000 16.106
40.12000 22.459
40.16000 13.125
40.20000 26.384
40.24000 11.157
40.28000 15.124
40.32000 16.494
40.36000 29.210
40.40000 23.344
40.44000 22.337
40.48000 17.363
40.52000 16.213
40.56000 15.180
40.60000 18.240
40.64000 24.117
40.68000 20.317
40.72000 11.053
40.76000 17.188
40.80000 16.200
40.84000 11.158
40.88000 15.104
40.92000 16.282
40.96000 14.062
41.00000 15.186
41.04000 23.304
41.08000 15.055
41.12000 19.183
41.16000 26.050
41.20000 15.185
41.24000 19.234
41.28000 16.126
41.32000 14.281
41.36000 17.266
41.40000 19.055
41.44000 13.167
41.48000 17.258
41.52000 28.455
41.56000 17.427
41.60000 11.233
41.64000 21.228
41.68000 17.182
41.72000 18.058
41.76000 17.219
41.80000 19.288
41.84000 16.414
41.88000 18.207
41.92000 16.984
41.96000 14.175
42.00000 17.139
42.04000 23.358
42.08000 20.317
42.12000 14.180
42.16000 10.079
42.20000 26.304
42.24000 11.052
42.28000 18.211
42.32000 21.309
42.36000 14.162
42.40000 16.239
42.44000 20.252
42.48000 19.188
42.52000 15.203
42.56000 18.268
42.60000 20.147
42.64000 11.102
42.68000 20.241
42.72000 25.268
42.76000 16.278
42.80000 20.098
42.84000 22.473
42.88000 13.257
42.92000 15.404
42.96000 21.187
43.00000 15.265
43.04000 23.216
43.08000 27.312
43.12000 16.136
43.16000 17.287
43.20000 23.114
43.24000 13.258
43.28000 15.292
43.32000 15.116
43.36000 19.226
43.40000 15.307
43.44000 21.437
43.48000 13.081
43.52000 18.179
43.56000 14.033
43.60000 18.135
43.64000 12.158
43.68000 21.024
43.72000 18.180
43.76000 18.314
43.80000 12.105
43.84000 16.915
43.88000 17.214
43.92000 14.152
43.96000 19.312
44.00000 16.187
44.04000 11.106
44.08000 13.010
44.12000 11.270
44.16000 22.295
44.20000 16.142
44.24000 14.283
44.28000 20.270
44.32000 15.096
44.36000 17.228
44.40000 15.266
44.44000 23.189
44.48000 23.173
44.52000 19.104
44.56000 15.183
44.60000 11.139
44.64000 22.190
44.68000 12.083
44.72000 16.088
44.76000 17.221
44.80000 21.179
44.84000 23.384
44.88000 18.129
44.92000 18.199
44.96000 19.095
45.00000 18.243
45.04000 20.080
45.08000 9.034
45.12000 16.275
45.16000 19.205
45.20000 16.122
45.24000 17.077
45.28000 17.062
45.32000 24.340
45.36000 14.198
45.40000 17.214
45.44000 23.171
45.48000 22.314
45.52000 21.128
45.56000 16.216
45.60000 15.173
45.64000 13.276
45.68000 17.201
45.72000 17.220
45.76000 26.297
45.80000 19.311
45.84000 18.097
45.88000 19.302
45.92000 20.271
45.96000 19.275
46.00000 18.276
46.04000 17.314
46.08000 14.132
46.12000 20.169
46.16000 17.370
46.20000 23.316
46.24000 23.217
46.28000 27.222
46.32000 20.145
46.36000 18.226
46.40000 18.254
46.44000 15.272
46.48000 24.227
46.52000 10.119
46.56000 20.233
46.60000 12.159
46.64000 17.035
46.68000 19.376
46.72000 17.188
46.76000 18.033
46.80000 20.271
46.84000 15.198
46.88000 18.028
46.92000 22.224
46.96000 22.454
47.00000 16.234
47.04000 11.311
47.08000 22.603
47.12000 17.250
47.16000 19.189
47.20000 14.343
47.24000 14.310
47.28000 28.569
47.32000 20.293
47.36000 11.128
47.40000 20.249
47.44000 16.310
47.48000 10.111
47.52000 16.118
47.56000 22.368
47.60000 22.164
47.64000 16.155
47.68000 16.278
47.72000 17.244
47.76000 14.007
47.80000 21.340
47.84000 22.310
47.88000 19.108
47.92000 21.187
47.96000 20.203
48.00000 13.242
48.04000 27.212
48.08000 18.198
48.12000 13.389
48.16000 18.246
48.20000 15.336
48.24000 19.241
48.28000 18.270
48.32000 15.227
48.36000 19.138
48.40000 15.214
48.44000 11.043
48.48000 17.117
48.52000 20.294
48.56000 23.215
48.60000 17.305
48.64000 20.364
48.68000 16.093
48.72000 20.275
48.76000 12.074
48.80000 10.060
48.84000 11.060
48.88000 21.280
48.92000 15.226
48.96000 11.008
49.00000 18.150
49.04000 14.114
49.08000 13.164
49.12000 19.216
49.16000 21.376
49.20000 13.128
49.24000 25.492
49.28000 18.274
49.32000 19.209
49.36000 13.032
49.40000 19.364
49.44000 19.285
49.48000 19.181
49.52000 13.135
49.56000 16.215
49.60000 13.252
49.64000 13.139
49.68000 13.301
49.72000 13.176
49.76000 17.183
49.80000 13.192
49.84000 16.179
49.88000 8.008
49.92000 14.417
49.96000 18.272
50.00000 19.194
50.04000 9.195
50.08000 18.389
50.12000 10.185
50.16000 12.215
50.20000 18.244
50.24000 17.282
50.28000 17.175
50.32000 19.223
50.36000 14.394
50.40000 12.136
50.44000 21.468
50.48000 14.120
50.52000 12.170
50.56000 16.307
50.60000 11.097
50.64000 18.063
50.68000 19.270
50.72000 16.291
50.76000 16.135
50.80000 17.106
50.84000 14.186
50.88000 15.332
50.92000 14.195
50.96000 15.093
51.00000 12.081
51.04000 22.365
51.08000 25.312
51.12000 13.029
51.16000 16.271
51.20000 8.092
51.24000 13.150
51.28000 11.184
51.32000 15.079
51.36000 7.090
51.40000 9.153
51.44000 15.353
51.48000 15.224
51.52000 17.140
51.56000 10.021
51.60000 10.178
51.64000 17.428
51.68000 11.119
51.72000 14.176
51.76000 16.353
51.80000 14.134
51.84000 20.204
51.88000 18.197
51.92000 14.162
51.96000 11.030
52.00000 16.237
52.04000 20.232
52.08000 17.249
52.12000 21.384
52.16000 15.237
52.20000 14.185
52.24000 8.167
52.28000 16.217
52.32000 19.221
52.36000 15.131
52.40000 10.114
52.44000 20.011
52.48000 18.238
52.52000 18.251
52.56000 13.215
52.60000 19.535
52.64000 17.437
52.68000 18.081
52.72000 19.552
52.76000 10.201
52.80000 13.148
52.84000 12.202
52.88000 12.078
52.92000 11.050
52.96000 14.184
53.00000 12.172
53.04000 16.238
53.08000 18.287
53.12000 19.292
53.16000 16.096
53.20000 7.101
53.24000 22.387
53.28000 13.230
53.32000 12.073
53.36000 18.232
53.40000 16.110
53.44000 17.159
53.48000 17.061
53.52000 13.183
53.56000 14.059
53.60000 14.049
53.64000 18.205
53.68000 20.206
53.72000 16.300
53.76000 18.249
53.80000 14.211
53.84000 10.139
53.88000 13.105
53.92000 9.135
53.96000 16.241
54.00000 11.057
54.04000 18.235
54.08000 11.090
54.12000 25.591
54.16000 16.324
54.20000 15.202
54.24000 16.302
54.28000 14.119
54.32000 15.188
54.36000 8.093
54.40000 9.199
54.44000 15.187
54.48000 14.115
54.52000 14.213
54.56000 18.349
54.60000 10.150
54.64000 15.274
54.68000 12.118
54.72000 10.056
54.76000 19.319
54.80000 15.269
54.84000 9.042
54.88000 12.127
54.92000 17.385
54.96000 9.066
55.00000 14.077
55.04000 7.077
55.08000 8.048
55.12000 13.089
55.16000 16.195
55.20000 10.078
55.24000 11.149
55.28000 17.463
55.32000 21.087
55.36000 14.106
55.40000 11.163
55.44000 14.286
55.48000 10.151
55.52000 14.124
55.56000 15.147
55.60000 12.240
55.64000 8.116
55.68000 9.136
55.72000 14.419
55.76000 17.216
55.80000 19.210
55.84000 17.179
55.88000 8.066
55.92000 15.325
55.96000 11.993
56.00000 18.297
56.04000 20.379
56.08000 16.147
56.12000 18.353
56.16000 7.128
56.20000 10.137
56.24000 10.203
56.28000 13.171
56.32000 15.214
56.36000 8.184
56.40000 14.214
56.44000 9.112
56.48000 9.185
56.52000 11.087
56.56000 16.111
56.60000 15.098
56.64000 19.236
56.68000 12.152
56.72000 16.254
56.76000 14.300
56.80000 17.249
56.84000 14.282
56.88000 6.109
56.92000 20.214
56.96000 12.142
57.00000 14.240
57.04000 15.175
57.08000 12.037
57.12000 8.103
57.16000 14.155
57.20000 12.236
57.24000 15.093
57.28000 17.277
57.32000 12.207
57.36000 11.224
57.40000 8.088
57.44000 9.162
57.48000 8.039
57.52000 8.070
57.56000 15.110
57.60000 9.118
57.64000 11.187
57.68000 21.348
57.72000 13.196
57.76000 9.131
57.80000 17.413
57.84000 12.124
57.88000 15.316
57.92000 12.182
57.96000 5.997
58.00000 12.087
58.04000 9.029
58.08000 19.239
58.12000 5.085
58.16000 13.314
58.20000 14.129
58.24000 14.036
58.28000 10.021
58.32000 10.204
58.36000 7.161
58.40000 14.102
58.44000 9.131
58.48000 21.260
58.52000 9.975
58.56000 6.983
58.60000 13.138
58.64000 15.252
58.68000 12.209
58.72000 9.069
58.76000 13.199
58.80000 11.145
58.84000 12.238
58.88000 12.212
58.92000 15.254
58.96000 10.229
59.00000 7.145
59.04000 9.119
59.08000 14.200
59.12000 18.316
59.16000 15.278
59.20000 10.142
59.24000 9.114
59.28000 12.205
59.32000 6.021
59.36000 13.303
59.40000 12.121
59.44000 6.070
59.48000 10.078
59.52000 15.259
59.56000 8.150
59.60000 12.264
59.64000 10.041
59.68000 10.208
59.72000 6.183
59.76000 21.184
59.80000 14.146
59.84000 10.155
59.88000 15.111
59.92000 12.165
59.96000 7.040
60.00000 11.175
60.04000 9.245
60.08000 17.121
60.12000 8.096
60.16000 8.025
60.20000 9.298
60.24000 7.089
60.28000 11.075
60.32000 12.144
60.36000 11.087
60.40000 7.023
60.44000 10.064
60.48000 6.079
60.52000 10.071
60.56000 12.132
60.60000 16.301
60.64000 6.136
60.68000 11.202
60.72000 8.017
60.76000 12.302
60.80000 9.126
60.84000 8.063
60.88000 12.133
60.92000 6.043
60.96000 4.116
61.00000 9.037
61.04000 13.229
61.08000 7.179
61.12000 16.263
61.16000 9.987
61.20000 8.027
61.24000 13.153
61.28000 9.062
61.32000 9.051
61.36000 7.036
61.40000 6.082
61.44000 5.093
61.48000 9.178
61.52000 10.183
61.56000 3.982
61.60000 16.350
61.64000 11.151
61.68000 5.085
61.72000 14.168
61.76000 14.303
61.80000 8.112
61.84000 12.158
61.88000 6.076
61.92000 8.170
61.96000 7.004
62.00000 12.239
62.04000 11.168
62.08000 10.088
62.12000 9.054
62.16000 14.199
62.20000 4.111
62.24000 8.155
62.28000 12.102
62.32000 8.044
62.36000 11.110
62.40000 13.007
62.44000 13.123
62.48000 19.091
62.52000 12.229
62.56000 11.234
62.60000 9.093
62.64000 16.217
62.68000 13.326
62.72000 13.209
62.76000 9.172
62.80000 10.084
62.84000 11.088
62.88000 11.111
62.92000 10.087
62.96000 11.097
63.00000 5.959
63.04000 14.320
63.08000 12.076
63.12000 2.979
63.16000 13.175
63.20000 9.091
63.24000 7.107
63.28000 10.114
63.32000 11.110
63.36000 10.080
63.40000 11.088
63.44000 12.061
63.48000 5.075
63.52000 7.081
63.56000 7.128
63.60000 10.242
63.64000 11.179
63.68000 8.096
63.72000 15.188
63.76000 10.103
63.80000 12.093
63.84000 9.198
63.88000 10.036
63.92000 11.126
63.96000 5.055
64.00000 10.187
64.04000 12.972
64.08000 8.032
64.12000 8.030
64.16000 7.161
64.20000 16.330
64.24000 9.101
64.28000 5.068
64.32000 9.036
64.36000 9.957
64.40000 7.172
64.44000 8.113
64.48000 11.222
64.52000 8.191
64.56000 10.121
64.60000 12.070
64.64000 4.037
64.68000 7.038
64.72000 12.174
64.76000 9.143
64.80000 7.071
64.84000 11.978
64.88000 7.245
64.92000 4.945
64.96000 7.041
65.00000 10.118