File: XRD/XRD/11-09-2025/XY Data/01092025_BTO_omega_1_001_12_-45-048_-21-694.xy
20.00000 146.291
20.04000 124.620
20.08000 125.448
20.12000 114.965
20.16000 147.041
20.20000 123.093
20.24000 120.383
20.28000 141.517
20.32000 113.398
20.36000 120.238
20.40000 131.713
20.44000 115.567
20.48000 100.079
20.52000 131.900
20.56000 137.164
20.60000 125.171
20.64000 96.046
20.68000 90.927
20.72000 101.802
20.76000 101.715
20.80000 98.755
20.84000 84.921
20.88000 101.736
20.92000 108.308
20.96000 97.279
21.00000 106.867
21.04000 92.211
21.08000 79.459
21.12000 75.633
21.16000 99.800
21.20000 109.851
21.24000 67.716
21.28000 69.505
21.32000 76.905
21.36000 78.562
21.40000 84.074
21.44000 81.541
21.48000 68.367
21.52000 81.771
21.56000 71.547
21.60000 75.606
21.64000 73.180
21.68000 64.805
21.72000 76.855
21.76000 69.778
21.80000 63.763
21.84000 51.607
21.88000 53.633
21.92000 56.833
21.96000 57.561
22.00000 47.103
22.04000 54.754
22.08000 58.692
22.12000 45.495
22.16000 38.269
22.20000 40.387
22.24000 58.647
22.28000 50.567
22.32000 63.582
22.36000 43.555
22.40000 35.583
22.44000 50.637
22.48000 54.559
22.52000 38.438
22.56000 45.142
22.60000 39.345
22.64000 39.290
22.68000 51.496
22.72000 35.435
22.76000 40.365
22.80000 33.144
22.84000 40.319
22.88000 31.249
22.92000 28.205
22.96000 24.255
23.00000 47.524
23.04000 30.301
23.08000 34.399
23.12000 34.542
23.16000 25.432
23.20000 24.310
23.24000 39.607
23.28000 38.435
23.32000 25.411
23.36000 28.327
23.40000 38.230
23.44000 31.473
23.48000 35.188
23.52000 31.429
23.56000 27.385
23.60000 41.410
23.64000 26.267
23.68000 29.340
23.72000 27.324
23.76000 34.378
23.80000 30.192
23.84000 33.136
23.88000 20.154
23.92000 18.201
23.96000 28.364
24.00000 19.180
24.04000 26.399
24.08000 23.325
24.12000 23.150
24.16000 31.129
24.20000 25.099
24.24000 23.302
24.28000 21.119
24.32000 27.302
24.36000 21.310
24.40000 23.271
24.44000 23.203
24.48000 11.090
24.52000 18.382
24.56000 15.174
24.60000 25.258
24.64000 16.154
24.68000 16.349
24.72000 19.088
24.76000 19.297
24.80000 23.388
24.84000 13.348
24.88000 10.039
24.92000 13.113
24.96000 20.283
25.00000 21.268
25.04000 14.256
25.08000 20.455
25.12000 18.399
25.16000 11.207
25.20000 18.203
25.24000 20.225
25.28000 19.156
25.32000 12.287
25.36000 15.133
25.40000 23.248
25.44000 19.547
25.48000 16.232
25.52000 7.083
25.56000 15.142
25.60000 18.169
25.64000 19.172
25.68000 20.197
25.72000 15.152
25.76000 17.348
25.80000 14.071
25.84000 13.110
25.88000 14.153
25.92000 19.310
25.96000 14.132
26.00000 13.168
26.04000 7.105
26.08000 9.000
26.12000 16.014
26.16000 17.067
26.20000 19.213
26.24000 17.472
26.28000 19.364
26.32000 11.138
26.36000 9.073
26.40000 14.232
26.44000 19.299
26.48000 18.307
26.52000 13.194
26.56000 12.110
26.60000 10.159
26.64000 11.200
26.68000 13.292
26.72000 12.173
26.76000 9.010
26.80000 9.958
26.84000 13.211
26.88000 19.284
26.92000 13.249
26.96000 10.008
27.00000 10.232
27.04000 12.125
27.08000 12.164
27.12000 10.103
27.16000 11.149
27.20000 12.211
27.24000 12.259
27.28000 13.038
27.32000 14.176
27.36000 10.278
27.40000 11.181
27.44000 19.100
27.48000 12.256
27.52000 11.196
27.56000 15.246
27.60000 4.992
27.64000 13.215
27.68000 13.205
27.72000 17.254
27.76000 15.070
27.80000 13.185
27.84000 9.153
27.88000 7.104
27.92000 11.173
27.96000 12.138
28.00000 8.322
28.04000 7.949
28.08000 13.332
28.12000 15.315
28.16000 7.201
28.20000 12.116
28.24000 6.148
28.28000 7.036
28.32000 7.059
28.36000 15.165
28.40000 9.131
28.44000 10.138
28.48000 16.135
28.52000 7.147
28.56000 12.152
28.60000 12.043
28.64000 11.168
28.68000 5.109
28.72000 7.098
28.76000 8.024
28.80000 15.247
28.84000 8.169
28.88000 8.171
28.92000 9.053
28.96000 12.370
29.00000 15.244
29.04000 9.066
29.08000 11.025
29.12000 17.199
29.16000 3.097
29.20000 7.044
29.24000 11.229
29.28000 9.069
29.32000 6.161
29.36000 9.057
29.40000 13.202
29.44000 4.019
29.48000 7.235
29.52000 14.164
29.56000 11.159
29.60000 7.101
29.64000 7.164
29.68000 14.231
29.72000 7.046
29.76000 11.207
29.80000 9.187
29.84000 10.066
29.88000 5.144
29.92000 10.160
29.96000 6.022
30.00000 10.283
30.04000 11.043
30.08000 6.082
30.12000 8.963
30.16000 8.040
30.20000 6.120
30.24000 6.074
30.28000 9.134
30.32000 11.294
30.36000 16.414
30.40000 7.048
30.44000 7.100
30.48000 8.041
30.52000 13.159
30.56000 11.347
30.60000 5.061
30.64000 7.043
30.68000 5.044
30.72000 11.015
30.76000 14.379
30.80000 5.062
30.84000 4.033
30.88000 10.176
30.92000 8.990
30.96000 15.239
31.00000 12.081
31.04000 11.211
31.08000 11.242
31.12000 8.143
31.16000 7.150
31.20000 5.023
31.24000 13.196
31.28000 7.130
31.32000 9.087
31.36000 14.230
31.40000 9.045
31.44000 7.135
31.48000 8.080
31.52000 8.147
31.56000 11.122
31.60000 12.115
31.64000 6.145
31.68000 11.187
31.72000 7.187
31.76000 8.085
31.80000 6.094
31.84000 11.110
31.88000 8.131
31.92000 13.238
31.96000 8.212
32.00000 5.042
32.04000 13.166
32.08000 10.017
32.12000 13.085
32.16000 12.134
32.20000 8.068
32.24000 4.946
32.28000 6.110
32.32000 10.076
32.36000 9.107
32.40000 10.039
32.44000 8.966
32.48000 7.027
32.52000 9.015
32.56000 8.128
32.60000 3.098
32.64000 2.996
32.68000 10.052
32.72000 6.106
32.76000 9.144
32.80000 10.141
32.84000 5.045
32.88000 2.031
32.92000 7.046
32.96000 8.037
33.00000 9.136
33.04000 8.048
33.08000 5.025
33.12000 7.022
33.16000 9.230
33.20000 11.088
33.24000 6.165
33.28000 8.098
33.32000 8.096
33.36000 3.040
33.40000 10.100
33.44000 5.036
33.48000 4.084
33.52000 6.019
33.56000 6.117
33.60000 7.946
33.64000 6.124
33.68000 8.122
33.72000 8.071
33.76000 6.972
33.80000 4.009
33.84000 9.090
33.88000 5.058
33.92000 9.143
33.96000 7.159
34.00000 12.216
34.04000 8.146
34.08000 8.031
34.12000 4.030
34.16000 6.089
34.20000 10.227
34.24000 5.167
34.28000 2.998
34.32000 6.201
34.36000 2.029
34.40000 5.074
34.44000 4.046
34.48000 7.128
34.52000 9.181
34.56000 6.056
34.60000 8.098
34.64000 11.159
34.68000 6.189
34.72000 0.990
34.76000 6.072
34.80000 4.038
34.84000 7.176
34.88000 5.033
34.92000 5.037
34.96000 5.994
35.00000 6.086
35.04000 7.066
35.08000 4.035
35.12000 7.129
35.16000 4.055
35.20000 4.039
35.24000 5.085
35.28000 8.214
35.32000 5.012
35.36000 6.027
35.40000 3.005
35.44000 5.118
35.48000 5.051
35.52000 5.052
35.56000 4.076
35.60000 6.102
35.64000 7.199
35.68000 5.071
35.72000 6.157
35.76000 4.101
35.80000 6.988
35.84000 1.000
35.88000 6.101
35.92000 3.155
35.96000 7.063
36.00000 10.200
36.04000 8.981
36.08000 7.103
36.12000 2.110
36.16000 6.043
36.20000 6.052
36.24000 6.150
36.28000 5.989
36.32000 11.162
36.36000 6.103
36.40000 3.032
36.44000 2.069
36.48000 4.033
36.52000 3.052
36.56000 8.214
36.60000 5.078
36.64000 6.031
36.68000 8.048
36.72000 7.168
36.76000 7.075
36.80000 6.984
36.84000 6.070
36.88000 2.030
36.92000 4.062
36.96000 5.117
37.00000 5.109
37.04000 4.090
37.08000 10.230
37.12000 0.991
37.16000 6.062
37.20000 4.011
37.24000 3.049
37.28000 6.158
37.32000 4.035
37.36000 0.999
37.40000 4.027
37.44000 8.081
37.48000 1.037
37.52000 7.116
37.56000 1.026
37.60000 4.087
37.64000 4.012
37.68000 6.184
37.72000 8.108
37.76000 4.987
37.80000 5.147
37.84000 3.034
37.88000 6.089
37.92000 4.104
37.96000 5.052
38.00000 4.073
38.04000 7.115
38.08000 5.121
38.12000 7.051
38.16000 3.073
38.20000 5.081
38.24000 3.964
38.28000 5.997
38.32000 2.023
38.36000 5.068
38.40000 6.135
38.44000 4.152
38.48000 4.097
38.52000 2.058
38.56000 7.096
38.60000 3.006
38.64000 2.012
38.68000 5.103
38.72000 3.970
38.76000 7.067
38.80000 6.054
38.84000 7.148
38.88000 1.992
38.92000 3.019
38.96000 8.057
39.00000 5.080
39.04000 8.142
39.08000 9.063
39.12000 3.074
39.16000 4.069
39.20000 3.032
39.24000 10.264
39.28000 4.019
39.32000 3.028
39.36000 8.047
39.40000 2.961
39.44000 4.015
39.48000 2.004
39.52000 4.072
39.56000 8.258
39.60000 10.226
39.64000 9.093
39.68000 6.054
39.72000 4.016
39.76000 5.141
39.80000 3.021
39.84000 3.059
39.88000 4.021
39.92000 5.047
39.96000 7.182
40.00000 2.020
40.04000 4.002
40.08000 5.976
40.12000 5.130
40.16000 6.080
40.20000 5.117
40.24000 3.027
40.28000 4.038
40.32000 4.094
40.36000 4.945
40.40000 4.113
40.44000 7.185
40.48000 2.002
40.52000 5.118
40.56000 1.994
40.60000 5.037
40.64000 4.030
40.68000 3.032
40.72000 6.190
40.76000 5.068
40.80000 7.199
40.84000 1.988
40.88000 5.106
40.92000 2.005
40.96000 6.077
41.00000 7.087
41.04000 3.042
41.08000 5.074
41.12000 1.988
41.16000 6.155
41.20000 3.983
41.24000 8.040
41.28000 3.067
41.32000 5.076
41.36000 4.144
41.40000 3.065
41.44000 2.049
41.48000 2.982
41.52000 5.990
41.56000 4.091
41.60000 3.050
41.64000 10.010
41.68000 4.041
41.72000 1.050
41.76000 3.055
41.80000 6.201
41.84000 6.123
41.88000 1.020
41.92000 3.074
41.96000 2.002
42.00000 6.062
42.04000 2.084
42.08000 4.023
42.12000 4.025
42.16000 4.027
42.20000 5.080
42.24000 0.000
42.28000 2.039
42.32000 6.084
42.36000 1.024
42.40000 3.037
42.44000 5.000
42.48000 4.070
42.52000 4.150
42.56000 5.072
42.60000 5.053
42.64000 2.010
42.68000 4.075
42.72000 3.070
42.76000 3.009
42.80000 2.039
42.84000 4.980
42.88000 7.076
42.92000 0.998
42.96000 3.026
43.00000 2.068
43.04000 0.990
43.08000 4.057
43.12000 3.051
43.16000 3.043
43.20000 2.067
43.24000 9.076
43.28000 0.997
43.32000 3.063
43.36000 5.094
43.40000 0.000
43.44000 3.029
43.48000 6.087
43.52000 3.979
43.56000 1.998
43.60000 1.996
43.64000 5.017
43.68000 5.095
43.72000 2.991
43.76000 2.046
43.80000 7.205
43.84000 3.045
43.88000 2.014
43.92000 7.945
43.96000 2.030
44.00000 6.089
44.04000 3.086
44.08000 2.007
44.12000 3.058
44.16000 1.034
44.20000 7.112
44.24000 4.054
44.28000 2.066
44.32000 2.102
44.36000 2.053
44.40000 3.999
44.44000 7.078
44.48000 1.048
44.52000 0.000
44.56000 4.065
44.60000 2.030
44.64000 2.017
44.68000 3.078
44.72000 2.969
44.76000 4.008
44.80000 3.008
44.84000 9.088
44.88000 5.027
44.92000 7.232
44.96000 2.096
45.00000 2.005
45.04000 3.061
45.08000 4.035
45.12000 2.026
45.16000 7.101
45.20000 6.050
45.24000 1.994
45.28000 6.153
45.32000 9.203
45.36000 6.018
45.40000 2.014
45.44000 5.087
45.48000 3.016
45.52000 6.056
45.56000 1.089
45.60000 0.000
45.64000 1.001
45.68000 5.028
45.72000 1.017
45.76000 1.976
45.80000 3.053
45.84000 2.057
45.88000 4.106
45.92000 3.036
45.96000 3.989
46.00000 6.072
46.04000 8.052
46.08000 3.035
46.12000 3.040
46.16000 4.073
46.20000 4.065
46.24000 1.000
46.28000 4.057
46.32000 3.006
46.36000 5.035
46.40000 2.058
46.44000 1.040
46.48000 3.054
46.52000 0.000
46.56000 2.030
46.60000 0.984
46.64000 6.041
46.68000 4.034
46.72000 1.015
46.76000 6.042
46.80000 6.049
46.84000 5.109
46.88000 3.062
46.92000 5.043
46.96000 1.068
47.00000 1.003
47.04000 1.047
47.08000 4.055
47.12000 5.090
47.16000 3.009
47.20000 2.061
47.24000 2.045
47.28000 3.030
47.32000 0.996
47.36000 3.980
47.40000 1.022
47.44000 2.010
47.48000 1.039
47.52000 3.042
47.56000 3.058
47.60000 1.060
47.64000 6.092
47.68000 5.087
47.72000 2.027
47.76000 4.036
47.80000 1.024
47.84000 3.083
47.88000 6.094
47.92000 4.081
47.96000 2.069
48.00000 5.037
48.04000 3.021
48.08000 4.072
48.12000 3.051
48.16000 5.127
48.20000 4.041
48.24000 3.019
48.28000 4.034
48.32000 3.092
48.36000 3.089
48.40000 4.047
48.44000 3.019
48.48000 2.995
48.52000 2.034
48.56000 4.067
48.60000 2.966
48.64000 1.992
48.68000 0.000
48.72000 1.018
48.76000 1.016
48.80000 3.003
48.84000 1.000
48.88000 4.072
48.92000 4.041
48.96000 6.011
49.00000 3.065
49.04000 2.994
49.08000 0.984
49.12000 3.034
49.16000 2.061
49.20000 4.082
49.24000 3.058
49.28000 5.114
49.32000 0.000
49.36000 1.997
49.40000 3.017
49.44000 0.990
49.48000 4.020
49.52000 5.107
49.56000 1.000
49.60000 2.061
49.64000 1.016
49.68000 4.028
49.72000 2.023
49.76000 3.970
49.80000 8.060
49.84000 4.037
49.88000 3.088
49.92000 2.069
49.96000 0.981
50.00000 5.193
50.04000 0.000
50.08000 1.032
50.12000 2.068
50.16000 3.010
50.20000 1.974
50.24000 6.036
50.28000 2.985
50.32000 4.039
50.36000 3.037
50.40000 1.994
50.44000 2.017
50.48000 3.017
50.52000 2.037
50.56000 3.974
50.60000 4.115
50.64000 5.039
50.68000 1.108
50.72000 1.024
50.76000 4.013
50.80000 2.013
50.84000 3.097
50.88000 0.994
50.92000 3.993
50.96000 4.085
51.00000 1.032
51.04000 0.979
51.08000 3.008
51.12000 4.052
51.16000 0.998
51.20000 4.104
51.24000 2.054
51.28000 0.000
51.32000 1.997
51.36000 0.990
51.40000 5.078
51.44000 3.114
51.48000 4.037
51.52000 5.019
51.56000 0.000
51.60000 6.153
51.64000 1.017
51.68000 6.966
51.72000 3.032
51.76000 5.089
51.80000 4.017
51.84000 1.002
51.88000 5.062
51.92000 2.997
51.96000 3.025
52.00000 1.019
52.04000 3.079
52.08000 1.987
52.12000 2.058
52.16000 4.986
52.20000 6.093
52.24000 6.123
52.28000 1.012
52.32000 4.033
52.36000 0.000
52.40000 1.995
52.44000 0.985
52.48000 1.978
52.52000 4.082
52.56000 2.061
52.60000 0.998
52.64000 3.119
52.68000 1.035
52.72000 2.026
52.76000 2.055
52.80000 4.027
52.84000 3.007
52.88000 4.054
52.92000 5.065
52.96000 5.075
53.00000 3.042
53.04000 5.010
53.08000 2.007
53.12000 2.043
53.16000 2.004
53.20000 0.000
53.24000 0.000
53.28000 0.000
53.32000 2.032
53.36000 4.090
53.40000 0.000
53.44000 3.993
53.48000 3.041
53.52000 2.022
53.56000 4.976
53.60000 2.007
53.64000 1.988
53.68000 2.002
53.72000 3.003
53.76000 2.025
53.80000 2.028
53.84000 0.000
53.88000 2.098
53.92000 2.963
53.96000 5.153
54.00000 0.982
54.04000 0.995
54.08000 2.977
54.12000 1.011
54.16000 2.099
54.20000 1.069
54.24000 5.009
54.28000 4.145
54.32000 3.035
54.36000 1.016
54.40000 1.014
54.44000 2.061
54.48000 0.000
54.52000 3.004
54.56000 3.987
54.60000 2.016
54.64000 2.061
54.68000 2.042
54.72000 2.981
54.76000 4.054
54.80000 2.041
54.84000 5.060
54.88000 1.020
54.92000 4.154
54.96000 4.004
55.00000 0.000
55.04000 0.000
55.08000 4.072
55.12000 3.043
55.16000 4.060
55.20000 2.030
55.24000 0.974
55.28000 3.032
55.32000 1.035
55.36000 4.099
55.40000 7.003
55.44000 5.971
55.48000 3.038
55.52000 1.012
55.56000 3.150
55.60000 4.060
55.64000 2.004
55.68000 1.028
55.72000 3.023
55.76000 0.000
55.80000 1.012
55.84000 3.057
55.88000 3.017
55.92000 2.035
55.96000 3.063
56.00000 6.090
56.04000 2.041
56.08000 3.076
56.12000 2.014
56.16000 2.004
56.20000 3.028
56.24000 0.000
56.28000 4.015
56.32000 1.006
56.36000 5.002
56.40000 3.045
56.44000 3.028
56.48000 1.976
56.52000 2.043
56.56000 3.008
56.60000 4.079
56.64000 1.023
56.68000 0.000
56.72000 3.090
56.76000 1.039
56.80000 0.000
56.84000 0.998
56.88000 1.050
56.92000 3.054
56.96000 1.028
57.00000 0.975
57.04000 0.000
57.08000 0.997
57.12000 3.032
57.16000 1.031
57.20000 5.073
57.24000 1.023
57.28000 0.000
57.32000 2.071
57.36000 5.068
57.40000 2.011
57.44000 0.000
57.48000 5.064
57.52000 1.993
57.56000 4.991
57.60000 0.990
57.64000 2.064
57.68000 3.032
57.72000 4.011
57.76000 3.985
57.80000 3.044
57.84000 0.000
57.88000 4.040
57.92000 1.010
57.96000 3.039
58.00000 0.000
58.04000 1.983
58.08000 4.050
58.12000 2.976
58.16000 2.973
58.20000 0.970
58.24000 0.000
58.28000 1.011
58.32000 2.955
58.36000 2.021
58.40000 3.026
58.44000 0.000
58.48000 5.046
58.52000 1.988
58.56000 0.000
58.60000 5.010
58.64000 0.982
58.68000 2.085
58.72000 0.980
58.76000 1.014
58.80000 4.036
58.84000 2.005
58.88000 5.080
58.92000 7.100
58.96000 4.024
59.00000 4.017
59.04000 2.035
59.08000 2.026
59.12000 3.006
59.16000 4.036
59.20000 0.000
59.24000 1.025
59.28000 0.981
59.32000 2.028
59.36000 3.006
59.40000 2.988
59.44000 2.007
59.48000 3.985
59.52000 3.055
59.56000 0.969
59.60000 3.058
59.64000 0.000
59.68000 2.028
59.72000 0.000
59.76000 3.001
59.80000 3.050
59.84000 2.026
59.88000 3.029
59.92000 2.032
59.96000 0.000
60.00000 2.940
60.04000 3.025
60.08000 3.080
60.12000 0.000
60.16000 1.001
60.20000 1.992
60.24000 1.009
60.28000 0.000
60.32000 2.074
60.36000 0.000
60.40000 1.016
60.44000 0.000
60.48000 1.041
60.52000 3.014
60.56000 0.000
60.60000 1.064
60.64000 3.018
60.68000 2.003
60.72000 0.000
60.76000 3.029
60.80000 1.034
60.84000 2.054
60.88000 1.049
60.92000 2.030
60.96000 0.000
61.00000 0.999
61.04000 2.093
61.08000 0.989
61.12000 1.982
61.16000 0.000
61.20000 1.005
61.24000 2.004
61.28000 1.058
61.32000 0.000
61.36000 2.023
61.40000 3.092
61.44000 3.037
61.48000 1.980
61.52000 2.019
61.56000 1.033
61.60000 2.029
61.64000 1.008
61.68000 0.968
61.72000 1.027
61.76000 1.048
61.80000 0.000
61.84000 3.166
61.88000 0.000
61.92000 3.057
61.96000 1.030
62.00000 3.065
62.04000 2.016
62.08000 3.075
62.12000 3.081
62.16000 0.985
62.20000 3.019
62.24000 1.988
62.28000 2.008
62.32000 3.118
62.36000 0.986
62.40000 2.058
62.44000 0.996
62.48000 0.985
62.52000 1.039
62.56000 2.017
62.60000 3.056
62.64000 0.000
62.68000 3.017
62.72000 0.977
62.76000 3.045
62.80000 0.981
62.84000 2.078
62.88000 1.043
62.92000 1.017
62.96000 1.970
63.00000 1.995
63.04000 2.061
63.08000 0.000
63.12000 0.981
63.16000 0.970
63.20000 1.018
63.24000 3.037
63.28000 4.001
63.32000 4.002
63.36000 4.066
63.40000 2.050
63.44000 3.983
63.48000 3.036
63.52000 1.051
63.56000 1.042
63.60000 0.000
63.64000 1.018
63.68000 1.977
63.72000 4.080
63.76000 6.136
63.80000 4.067
63.84000 1.010
63.88000 2.058
63.92000 0.987
63.96000 0.000
64.00000 0.000
64.04000 2.984
64.08000 3.101
64.12000 1.018
64.16000 1.003
64.20000 3.010
64.24000 1.034
64.28000 3.090
64.32000 0.000
64.36000 0.000
64.40000 3.035
64.44000 0.998
64.48000 2.029
64.52000 6.125
64.56000 3.064
64.60000 2.031
64.64000 3.018
64.68000 4.136
64.72000 2.085
64.76000 1.028
64.80000 3.022
64.84000 0.000
64.88000 3.100
64.92000 1.023
64.96000 1.025
65.00000 2.022