File: XRD/XRD/11-09-2025/XY Data/01092025_BTO_omega_0_5_001_16_15-587_19-546.xy
20.00000 15.135
20.04000 18.142
20.08000 18.252
20.12000 20.267
20.16000 16.045
20.20000 18.168
20.24000 20.239
20.28000 15.185
20.32000 26.346
20.36000 17.092
20.40000 24.435
20.44000 22.377
20.48000 21.156
20.52000 14.159
20.56000 19.237
20.60000 19.208
20.64000 18.169
20.68000 23.254
20.72000 28.510
20.76000 16.244
20.80000 16.340
20.84000 13.307
20.88000 16.329
20.92000 18.405
20.96000 16.198
21.00000 19.408
21.04000 24.426
21.08000 28.421
21.12000 23.350
21.16000 25.278
21.20000 24.523
21.24000 19.173
21.28000 20.341
21.32000 19.343
21.36000 19.210
21.40000 18.169
21.44000 17.162
21.48000 22.150
21.52000 20.306
21.56000 22.453
21.60000 18.206
21.64000 19.365
21.68000 19.244
21.72000 24.351
21.76000 24.390
21.80000 24.432
21.84000 17.364
21.88000 18.190
21.92000 26.478
21.96000 24.435
22.00000 26.309
22.04000 22.392
22.08000 26.350
22.12000 17.380
22.16000 19.211
22.20000 16.324
22.24000 22.304
22.28000 12.043
22.32000 17.244
22.36000 28.425
22.40000 33.355
22.44000 19.282
22.48000 26.347
22.52000 22.274
22.56000 30.392
22.60000 27.443
22.64000 18.153
22.68000 25.387
22.72000 22.409
22.76000 27.289
22.80000 26.286
22.84000 23.391
22.88000 27.489
22.92000 21.378
22.96000 21.266
23.00000 28.214
23.04000 24.408
23.08000 34.553
23.12000 16.280
23.16000 14.166
23.20000 35.645
23.24000 31.302
23.28000 28.327
23.32000 23.202
23.36000 25.231
23.40000 33.509
23.44000 28.186
23.48000 25.343
23.52000 22.274
23.56000 28.797
23.60000 26.269
23.64000 35.534
23.68000 30.455
23.72000 37.556
23.76000 25.396
23.80000 32.253
23.84000 30.314
23.88000 39.726
23.92000 29.396
23.96000 36.216
24.00000 33.418
24.04000 35.938
24.08000 39.213
24.12000 26.558
24.16000 31.388
24.20000 25.315
24.24000 32.468
24.28000 27.450
24.32000 30.263
24.36000 33.362
24.40000 34.437
24.44000 35.449
24.48000 31.189
24.52000 45.631
24.56000 36.719
24.60000 29.617
24.64000 38.441
24.68000 43.534
24.72000 32.520
24.76000 38.676
24.80000 35.556
24.84000 37.574
24.88000 35.327
24.92000 36.348
24.96000 34.367
25.00000 30.388
25.04000 41.614
25.08000 49.635
25.12000 45.695
25.16000 44.349
25.20000 39.504
25.24000 40.537
25.28000 54.593
25.32000 37.489
25.36000 46.584
25.40000 50.463
25.44000 46.719
25.48000 43.603
25.52000 40.669
25.56000 50.598
25.60000 36.482
25.64000 62.989
25.68000 46.563
25.72000 45.700
25.76000 51.847
25.80000 61.620
25.84000 53.704
25.88000 58.736
25.92000 52.508
25.96000 54.861
26.00000 42.405
26.04000 47.555
26.08000 46.377
26.12000 47.486
26.16000 60.014
26.20000 52.578
26.24000 53.669
26.28000 54.129
26.32000 42.670
26.36000 56.606
26.40000 51.766
26.44000 63.141
26.48000 42.409
26.52000 55.637
26.56000 58.098
26.60000 57.594
26.64000 58.927
26.68000 66.213
26.72000 50.998
26.76000 54.633
26.80000 56.452
26.84000 55.679
26.88000 52.692
26.92000 62.007
26.96000 64.893
27.00000 66.106
27.04000 69.149
27.08000 63.873
27.12000 61.694
27.16000 63.783
27.20000 58.963
27.24000 56.907
27.28000 62.895
27.32000 57.671
27.36000 71.896
27.40000 72.212
27.44000 54.679
27.48000 73.108
27.52000 55.706
27.56000 64.820
27.60000 64.854
27.64000 54.874
27.68000 62.981
27.72000 51.638
27.76000 59.943
27.80000 72.290
27.84000 41.699
27.88000 57.811
27.92000 72.047
27.96000 62.871
28.00000 69.811
28.04000 55.990
28.08000 66.079
28.12000 53.769
28.16000 65.357
28.20000 62.841
28.24000 54.880
28.28000 66.921
28.32000 44.600
28.36000 69.134
28.40000 68.672
28.44000 63.864
28.48000 58.893
28.52000 48.639
28.56000 53.681
28.60000 60.732
28.64000 63.664
28.68000 60.743
28.72000 55.394
28.76000 56.512
28.80000 60.996
28.84000 52.787
28.88000 58.038
28.92000 54.978
28.96000 55.871
29.00000 46.541
29.04000 50.703
29.08000 62.817
29.12000 57.649
29.16000 60.043
29.20000 54.455
29.24000 58.451
29.28000 64.763
29.32000 58.800
29.36000 52.565
29.40000 58.759
29.44000 55.722
29.48000 54.835
29.52000 42.491
29.56000 43.406
29.60000 54.022
29.64000 57.694
29.68000 44.597
29.72000 42.453
29.76000 44.517
29.80000 51.703
29.84000 34.450
29.88000 46.581
29.92000 51.861
29.96000 59.683
30.00000 39.624
30.04000 57.798
30.08000 47.628
30.12000 38.361
30.16000 47.519
30.20000 33.586
30.24000 31.524
30.28000 43.505
30.32000 48.673
30.36000 33.262
30.40000 46.434
30.44000 38.674
30.48000 37.416
30.52000 42.246
30.56000 46.701
30.60000 38.906
30.64000 44.752
30.68000 38.617
30.72000 35.373
30.76000 33.386
30.80000 35.382
30.84000 32.424
30.88000 33.775
30.92000 22.436
30.96000 40.494
31.00000 37.339
31.04000 33.173
31.08000 28.519
31.12000 27.368
31.16000 36.407
31.20000 37.363
31.24000 34.427
31.28000 36.497
31.32000 29.650
31.36000 32.906
31.40000 26.277
31.44000 27.423
31.48000 32.419
31.52000 37.715
31.56000 25.180
31.60000 32.311
31.64000 24.498
31.68000 28.297
31.72000 31.797
31.76000 35.474
31.80000 29.232
31.84000 28.290
31.88000 21.272
31.92000 34.569
31.96000 24.587
32.00000 37.378
32.04000 33.476
32.08000 36.226
32.12000 34.429
32.16000 25.201
32.20000 35.579
32.24000 24.195
32.28000 28.337
32.32000 29.448
32.36000 26.402
32.40000 26.239
32.44000 24.398
32.48000 28.331
32.52000 24.325
32.56000 29.438
32.60000 29.416
32.64000 37.597
32.68000 39.667
32.72000 16.171
32.76000 29.341
32.80000 24.146
32.84000 19.331
32.88000 32.340
32.92000 16.216
32.96000 19.202
33.00000 24.055
33.04000 31.490
33.08000 23.415
33.12000 14.262
33.16000 15.979
33.20000 18.326
33.24000 16.297
33.28000 14.133
33.32000 23.285
33.36000 21.043
33.40000 24.230
33.44000 24.461
33.48000 23.206
33.52000 22.315
33.56000 14.262
33.60000 17.406
33.64000 17.344
33.68000 27.288
33.72000 23.281
33.76000 25.162
33.80000 22.480
33.84000 12.057
33.88000 19.236
33.92000 18.366
33.96000 16.263
34.00000 25.439
34.04000 15.231
34.08000 16.253
34.12000 11.036
34.16000 23.217
34.20000 29.270
34.24000 21.227
34.28000 23.206
34.32000 22.352
34.36000 20.291
34.40000 22.374
34.44000 15.093
34.48000 20.226
34.52000 19.071
34.56000 20.209
34.60000 18.326
34.64000 12.108
34.68000 17.298
34.72000 16.209
34.76000 13.209
34.80000 14.169
34.84000 14.291
34.88000 28.491
34.92000 23.441
34.96000 21.163
35.00000 15.096
35.04000 25.424
35.08000 20.206
35.12000 19.388
35.16000 18.307
35.20000 14.322
35.24000 19.397
35.28000 19.305
35.32000 18.123
35.36000 21.309
35.40000 14.076
35.44000 14.099
35.48000 16.195
35.52000 16.961
35.56000 21.341
35.60000 21.208
35.64000 12.287
35.68000 15.267
35.72000 22.194
35.76000 23.287
35.80000 14.354
35.84000 10.107
35.88000 16.224
35.92000 13.251
35.96000 15.150
36.00000 23.354
36.04000 16.156
36.08000 25.336
36.12000 18.175
36.16000 18.258
36.20000 19.325
36.24000 16.178
36.28000 15.134
36.32000 23.199
36.36000 14.177
36.40000 16.319
36.44000 19.327
36.48000 13.198
36.52000 23.270
36.56000 21.138
36.60000 26.410
36.64000 16.066
36.68000 17.103
36.72000 13.243
36.76000 13.155
36.80000 16.064
36.84000 24.153
36.88000 11.204
36.92000 19.167
36.96000 18.266
37.00000 16.190
37.04000 21.171
37.08000 19.119
37.12000 19.289
37.16000 23.279
37.20000 15.187
37.24000 19.270
37.28000 21.352
37.32000 22.316
37.36000 19.281
37.40000 21.212
37.44000 16.170
37.48000 25.451
37.52000 18.252
37.56000 25.390
37.60000 21.410
37.64000 29.420
37.68000 20.346
37.72000 22.364
37.76000 24.415
37.80000 18.165
37.84000 21.438
37.88000 12.203
37.92000 26.507
37.96000 22.347
38.00000 17.218
38.04000 15.233
38.08000 29.456
38.12000 13.218
38.16000 28.334
38.20000 18.287
38.24000 20.338
38.28000 15.310
38.32000 25.581
38.36000 17.210
38.40000 18.235
38.44000 17.276
38.48000 17.217
38.52000 22.287
38.56000 23.298
38.60000 14.259
38.64000 17.340
38.68000 16.143
38.72000 25.144
38.76000 18.291
38.80000 23.090
38.84000 23.244
38.88000 21.381
38.92000 21.306
38.96000 20.022
39.00000 21.184
39.04000 28.301
39.08000 20.246
39.12000 26.261
39.16000 23.381
39.20000 28.231
39.24000 21.351
39.28000 19.282
39.32000 15.263
39.36000 19.288
39.40000 24.280
39.44000 16.147
39.48000 23.402
39.52000 16.140
39.56000 17.343
39.60000 17.109
39.64000 31.575
39.68000 19.328
39.72000 17.065
39.76000 26.302
39.80000 19.219
39.84000 20.109
39.88000 21.189
39.92000 19.243
39.96000 21.245
40.00000 18.087
40.04000 25.355
40.08000 20.044
40.12000 21.196
40.16000 19.121
40.20000 25.417
40.24000 23.260
40.28000 26.368
40.32000 28.384
40.36000 18.191
40.40000 22.157
40.44000 20.136
40.48000 20.269
40.52000 17.298
40.56000 16.231
40.60000 26.334
40.64000 23.331
40.68000 22.127
40.72000 24.253
40.76000 20.284
40.80000 21.278
40.84000 19.325
40.88000 17.305
40.92000 28.653
40.96000 12.178
41.00000 19.493
41.04000 26.642
41.08000 27.262
41.12000 16.190
41.16000 23.246
41.20000 13.251
41.24000 25.321
41.28000 23.311
41.32000 22.200
41.36000 14.203
41.40000 25.360
41.44000 19.266
41.48000 29.558
41.52000 26.560
41.56000 25.365
41.60000 22.410
41.64000 15.135
41.68000 20.335
41.72000 18.345
41.76000 21.246
41.80000 20.345
41.84000 18.210
41.88000 25.275
41.92000 24.465
41.96000 29.443
42.00000 18.395
42.04000 13.996
42.08000 15.236
42.12000 19.360
42.16000 26.295
42.20000 19.099
42.24000 20.459
42.28000 19.411
42.32000 23.235
42.36000 23.301
42.40000 23.269
42.44000 22.168
42.48000 21.384
42.52000 22.324
42.56000 16.062
42.60000 31.453
42.64000 21.259
42.68000 17.215
42.72000 25.224
42.76000 18.206
42.80000 25.242
42.84000 30.491
42.88000 26.329
42.92000 25.307
42.96000 26.320
43.00000 9.127
43.04000 20.215
43.08000 22.145
43.12000 17.313
43.16000 15.312
43.20000 21.422
43.24000 21.132
43.28000 26.185
43.32000 22.352
43.36000 24.483
43.40000 26.283
43.44000 24.252
43.48000 18.168
43.52000 21.305
43.56000 18.212
43.60000 26.537
43.64000 13.239
43.68000 21.314
43.72000 18.284
43.76000 18.989
43.80000 16.228
43.84000 24.498
43.88000 17.215
43.92000 19.297
43.96000 20.183
44.00000 22.251
44.04000 24.085
44.08000 22.283
44.12000 11.394
44.16000 15.212
44.20000 23.096
44.24000 23.412
44.28000 23.422
44.32000 28.323
44.36000 22.271
44.40000 23.450
44.44000 20.178
44.48000 18.357
44.52000 17.112
44.56000 13.220
44.60000 28.235
44.64000 14.040
44.68000 19.066
44.72000 30.384
44.76000 18.037
44.80000 23.412
44.84000 20.233
44.88000 10.162
44.92000 26.316
44.96000 25.345
45.00000 10.047
45.04000 16.971
45.08000 28.631
45.12000 18.209
45.16000 23.063
45.20000 26.202
45.24000 26.307
45.28000 19.319
45.32000 21.408
45.36000 18.301
45.40000 15.076
45.44000 17.276
45.48000 21.308
45.52000 15.398
45.56000 19.137
45.60000 22.387
45.64000 35.303
45.68000 34.416
45.72000 21.148
45.76000 15.251
45.80000 24.421
45.84000 30.193
45.88000 28.647
45.92000 21.539
45.96000 14.170
46.00000 21.360
46.04000 20.261
46.08000 22.344
46.12000 27.485
46.16000 24.266
46.20000 31.302
46.24000 11.264
46.28000 19.274
46.32000 18.338
46.36000 20.294
46.40000 18.199
46.44000 18.244
46.48000 17.225
46.52000 23.112
46.56000 14.165
46.60000 26.164
46.64000 17.297
46.68000 20.358
46.72000 27.281
46.76000 20.249
46.80000 29.520
46.84000 32.553
46.88000 22.259
46.92000 13.183
46.96000 17.268
47.00000 18.424
47.04000 13.217
47.08000 19.293
47.12000 22.372
47.16000 22.208
47.20000 12.047
47.24000 13.188
47.28000 18.082
47.32000 27.460
47.36000 16.042
47.40000 18.126
47.44000 17.108
47.48000 19.041
47.52000 14.312
47.56000 23.175
47.60000 20.264
47.64000 24.271
47.68000 15.209
47.72000 15.281
47.76000 11.113
47.80000 21.094
47.84000 23.412
47.88000 20.281
47.92000 25.377
47.96000 16.187
48.00000 21.025
48.04000 12.040
48.08000 25.317
48.12000 22.512
48.16000 17.138
48.20000 31.241
48.24000 20.436
48.28000 16.183
48.32000 18.129
48.36000 15.187
48.40000 18.135
48.44000 19.415
48.48000 21.357
48.52000 23.279
48.56000 18.277
48.60000 13.298
48.64000 14.295
48.68000 16.132
48.72000 15.238
48.76000 16.167
48.80000 10.043
48.84000 25.332
48.88000 17.212
48.92000 21.370
48.96000 11.194
49.00000 20.189
49.04000 13.207
49.08000 16.284
49.12000 25.228
49.16000 16.227
49.20000 32.485
49.24000 20.437
49.28000 16.125
49.32000 15.146
49.36000 11.104
49.40000 15.127
49.44000 20.299
49.48000 16.086
49.52000 18.170
49.56000 15.996
49.60000 16.050
49.64000 24.434
49.68000 18.205
49.72000 18.140
49.76000 15.094
49.80000 9.164
49.84000 15.133
49.88000 17.051
49.92000 13.372
49.96000 18.295
50.00000 12.297
50.04000 21.343
50.08000 12.082
50.12000 18.176
50.16000 14.198
50.20000 22.383
50.24000 11.129
50.28000 17.186
50.32000 15.258
50.36000 25.290
50.40000 16.254
50.44000 15.352
50.48000 14.157
50.52000 20.203
50.56000 16.113
50.60000 18.415
50.64000 25.412
50.68000 16.100
50.72000 15.315
50.76000 21.117
50.80000 14.149
50.84000 13.325
50.88000 12.133
50.92000 23.375
50.96000 21.114
51.00000 20.151
51.04000 11.092
51.08000 14.161
51.12000 17.191
51.16000 19.300
51.20000 23.195
51.24000 14.299
51.28000 15.251
51.32000 13.077
51.36000 12.121
51.40000 18.316
51.44000 16.431
51.48000 20.071
51.52000 18.227
51.56000 13.036
51.60000 24.505
51.64000 15.176
51.68000 18.397
51.72000 18.156
51.76000 23.330
51.80000 16.369
51.84000 12.022
51.88000 15.162
51.92000 13.218
51.96000 12.138
52.00000 15.261
52.04000 9.106
52.08000 14.204
52.12000 13.214
52.16000 15.370
52.20000 14.124
52.24000 11.108
52.28000 8.209
52.32000 17.231
52.36000 14.211
52.40000 20.386
52.44000 11.184
52.48000 20.244
52.52000 16.188
52.56000 22.470
52.60000 14.117
52.64000 9.104
52.68000 20.333
52.72000 12.334
52.76000 11.151
52.80000 14.262
52.84000 14.193
52.88000 20.186
52.92000 18.105
52.96000 16.278
53.00000 21.529
53.04000 15.103
53.08000 15.178
53.12000 15.338
53.16000 19.238
53.20000 13.217
53.24000 18.293
53.28000 14.152
53.32000 14.324
53.36000 16.203
53.40000 14.045
53.44000 16.159
53.48000 16.220
53.52000 10.165
53.56000 14.986
53.60000 13.271
53.64000 7.098
53.68000 6.182
53.72000 11.206
53.76000 15.138
53.80000 20.198
53.84000 17.226
53.88000 13.219
53.92000 14.158
53.96000 19.372
54.00000 12.191
54.04000 22.318
54.08000 9.088
54.12000 14.257
54.16000 22.166
54.20000 12.042
54.24000 12.193
54.28000 15.216
54.32000 12.143
54.36000 8.105
54.40000 12.231
54.44000 9.301
54.48000 12.990
54.52000 12.183
54.56000 14.150
54.60000 11.064
54.64000 8.240
54.68000 12.173
54.72000 17.244
54.76000 11.954
54.80000 21.161
54.84000 13.286
54.88000 11.253
54.92000 13.335
54.96000 10.170
55.00000 8.099
55.04000 17.328
55.08000 12.245
55.12000 16.224
55.16000 13.051
55.20000 10.209
55.24000 19.163
55.28000 11.177
55.32000 20.232
55.36000 15.964
55.40000 10.184
55.44000 17.099
55.48000 14.183
55.52000 17.223
55.56000 9.171
55.60000 7.994
55.64000 14.152
55.68000 7.120
55.72000 13.424
55.76000 15.086
55.80000 13.113
55.84000 9.292
55.88000 12.251
55.92000 16.073
55.96000 11.132
56.00000 13.283
56.04000 14.220
56.08000 14.172
56.12000 7.151
56.16000 12.171
56.20000 11.050
56.24000 10.024
56.28000 8.172
56.32000 23.219
56.36000 22.327
56.40000 8.125
56.44000 20.172
56.48000 18.145
56.52000 18.340
56.56000 5.053
56.60000 11.061
56.64000 12.113
56.68000 11.191
56.72000 10.118
56.76000 8.065
56.80000 16.166
56.84000 12.118
56.88000 9.221
56.92000 6.177
56.96000 12.022
57.00000 16.374
57.04000 7.087
57.08000 8.988
57.12000 10.205
57.16000 10.111
57.20000 10.177
57.24000 14.204
57.28000 16.330
57.32000 13.152
57.36000 12.169
57.40000 10.070
57.44000 12.196
57.48000 8.109
57.52000 12.206
57.56000 11.120
57.60000 9.124
57.64000 10.195
57.68000 8.173
57.72000 7.122
57.76000 8.125
57.80000 16.448
57.84000 10.209
57.88000 14.133
57.92000 8.071
57.96000 10.272
58.00000 12.182
58.04000 14.129
58.08000 12.268
58.12000 9.060
58.16000 14.332
58.20000 7.013
58.24000 12.081
58.28000 9.066
58.32000 7.079
58.36000 9.137
58.40000 8.954
58.44000 9.117
58.48000 12.184
58.52000 14.180
58.56000 13.257
58.60000 9.115
58.64000 5.017
58.68000 9.099
58.72000 10.227
58.76000 11.215
58.80000 6.046
58.84000 8.037
58.88000 7.046
58.92000 8.999
58.96000 11.141
59.00000 9.090
59.04000 11.079
59.08000 10.156
59.12000 11.114
59.16000 14.299
59.20000 15.059
59.24000 14.971
59.28000 5.027
59.32000 13.167
59.36000 6.025
59.40000 12.225
59.44000 8.126
59.48000 13.061
59.52000 8.198
59.56000 14.376
59.60000 5.042
59.64000 11.073
59.68000 15.210
59.72000 5.048
59.76000 10.126
59.80000 10.137
59.84000 13.281
59.88000 13.143
59.92000 12.023
59.96000 13.070
60.00000 9.018
60.04000 16.220
60.08000 13.171
60.12000 14.192
60.16000 14.257
60.20000 10.107
60.24000 9.020
60.28000 16.219
60.32000 10.168
60.36000 5.962
60.40000 9.100
60.44000 7.039
60.48000 10.172
60.52000 4.042
60.56000 8.060
60.60000 12.052
60.64000 14.263
60.68000 8.184
60.72000 9.094
60.76000 11.058
60.80000 9.079
60.84000 12.225
60.88000 8.085
60.92000 10.019
60.96000 9.326
61.00000 13.206
61.04000 6.034
61.08000 14.157
61.12000 9.115
61.16000 9.091
61.20000 11.220
61.24000 13.204
61.28000 5.102
61.32000 6.125
61.36000 11.192
61.40000 11.271
61.44000 7.007
61.48000 8.076
61.52000 9.159
61.56000 4.994
61.60000 8.083
61.64000 6.038
61.68000 7.025
61.72000 7.144
61.76000 16.179
61.80000 15.194
61.84000 11.027
61.88000 11.160
61.92000 9.009
61.96000 13.084
62.00000 8.199
62.04000 10.129
62.08000 6.084
62.12000 9.046
62.16000 10.052
62.20000 10.164
62.24000 5.023
62.28000 8.995
62.32000 8.070
62.36000 10.245
62.40000 8.009
62.44000 4.013
62.48000 7.029
62.52000 10.112
62.56000 17.155
62.60000 9.124
62.64000 4.059
62.68000 6.072
62.72000 5.025
62.76000 10.114
62.80000 9.078
62.84000 8.041
62.88000 15.195
62.92000 6.027
62.96000 17.264
63.00000 9.053
63.04000 8.068
63.08000 7.014
63.12000 8.078
63.16000 11.284
63.20000 13.087
63.24000 6.073
63.28000 4.018
63.32000 7.093
63.36000 14.105
63.40000 3.046
63.44000 10.188
63.48000 7.974
63.52000 7.059
63.56000 6.979
63.60000 4.005
63.64000 7.121
63.68000 12.140
63.72000 8.100
63.76000 9.171
63.80000 5.103
63.84000 3.018
63.88000 11.160
63.92000 6.982
63.96000 6.081
64.00000 6.081
64.04000 1.008
64.08000 8.237
64.12000 3.996
64.16000 2.997
64.20000 5.988
64.24000 9.081
64.28000 5.004
64.32000 9.054
64.36000 8.148
64.40000 9.178
64.44000 6.088
64.48000 14.237
64.52000 7.050
64.56000 9.122
64.60000 5.017
64.64000 11.164
64.68000 7.065
64.72000 2.971
64.76000 8.075
64.80000 13.184
64.84000 7.033
64.88000 7.167
64.92000 7.095
64.96000 9.140
65.00000 11.998