File: XRD/XRD/11-09-2025/XY Data/01092025_BTO_omega_0_5_001_23_8-345_36-560.xy
20.00000 15.061
20.04000 26.305
20.08000 16.257
20.12000 23.075
20.16000 22.348
20.20000 29.631
20.24000 15.149
20.28000 16.199
20.32000 15.172
20.36000 22.221
20.40000 18.322
20.44000 15.207
20.48000 21.415
20.52000 20.202
20.56000 22.404
20.60000 23.389
20.64000 17.470
20.68000 20.251
20.72000 16.158
20.76000 16.037
20.80000 11.067
20.84000 19.257
20.88000 18.257
20.92000 20.197
20.96000 30.427
21.00000 12.009
21.04000 22.319
21.08000 17.301
21.12000 23.314
21.16000 26.156
21.20000 23.237
21.24000 18.270
21.28000 12.098
21.32000 21.439
21.36000 11.031
21.40000 21.371
21.44000 19.185
21.48000 25.226
21.52000 23.483
21.56000 15.373
21.60000 24.325
21.64000 27.381
21.68000 20.204
21.72000 23.324
21.76000 15.304
21.80000 24.217
21.84000 22.226
21.88000 19.159
21.92000 21.269
21.96000 25.317
22.00000 18.169
22.04000 24.399
22.08000 14.444
22.12000 18.325
22.16000 27.497
22.20000 22.139
22.24000 22.412
22.28000 24.413
22.32000 19.284
22.36000 26.304
22.40000 21.247
22.44000 27.553
22.48000 28.225
22.52000 22.267
22.56000 25.205
22.60000 24.085
22.64000 24.457
22.68000 22.223
22.72000 26.345
22.76000 30.500
22.80000 25.272
22.84000 25.121
22.88000 25.363
22.92000 22.347
22.96000 19.117
23.00000 31.369
23.04000 18.349
23.08000 31.395
23.12000 31.569
23.16000 30.389
23.20000 26.392
23.24000 24.277
23.28000 30.416
23.32000 13.982
23.36000 35.536
23.40000 31.417
23.44000 23.257
23.48000 27.292
23.52000 26.258
23.56000 30.273
23.60000 33.452
23.64000 30.432
23.68000 34.420
23.72000 35.509
23.76000 21.349
23.80000 26.318
23.84000 21.433
23.88000 36.528
23.92000 33.622
23.96000 25.354
24.00000 29.500
24.04000 33.415
24.08000 32.538
24.12000 34.574
24.16000 40.783
24.20000 32.463
24.24000 29.321
24.28000 34.425
24.32000 32.416
24.36000 34.507
24.40000 28.338
24.44000 40.354
24.48000 40.662
24.52000 34.181
24.56000 43.490
24.60000 35.483
24.64000 35.481
24.68000 30.450
24.72000 38.417
24.76000 32.606
24.80000 28.242
24.84000 31.194
24.88000 49.435
24.92000 41.649
24.96000 42.454
25.00000 41.512
25.04000 37.465
25.08000 43.487
25.12000 40.454
25.16000 47.567
25.20000 44.590
25.24000 41.615
25.28000 46.720
25.32000 45.687
25.36000 50.844
25.40000 42.448
25.44000 35.599
25.48000 36.555
25.52000 38.733
25.56000 43.357
25.60000 45.668
25.64000 40.619
25.68000 51.630
25.72000 48.631
25.76000 46.693
25.80000 44.466
25.84000 57.907
25.88000 45.534
25.92000 45.482
25.96000 46.621
26.00000 59.631
26.04000 51.994
26.08000 51.654
26.12000 53.719
26.16000 55.508
26.20000 59.562
26.24000 53.935
26.28000 57.975
26.32000 49.418
26.36000 54.126
26.40000 53.655
26.44000 56.825
26.48000 56.762
26.52000 55.589
26.56000 50.357
26.60000 36.592
26.64000 49.673
26.68000 58.808
26.72000 66.193
26.76000 56.854
26.80000 54.612
26.84000 41.530
26.88000 50.727
26.92000 59.818
26.96000 58.679
27.00000 57.891
27.04000 60.587
27.08000 56.738
27.12000 57.856
27.16000 61.879
27.20000 58.992
27.24000 50.726
27.28000 77.279
27.32000 78.949
27.36000 57.087
27.40000 68.884
27.44000 50.798
27.48000 66.951
27.52000 56.636
27.56000 66.844
27.60000 53.607
27.64000 50.501
27.68000 57.818
27.72000 54.722
27.76000 62.301
27.80000 55.862
27.84000 53.880
27.88000 76.612
27.92000 60.909
27.96000 75.283
28.00000 57.692
28.04000 55.307
28.08000 59.780
28.12000 72.034
28.16000 68.011
28.20000 59.778
28.24000 62.773
28.28000 67.063
28.32000 60.839
28.36000 52.977
28.40000 51.606
28.44000 52.340
28.48000 73.135
28.52000 57.429
28.56000 66.011
28.60000 60.002
28.64000 66.687
28.68000 47.670
28.72000 62.851
28.76000 59.625
28.80000 44.570
28.84000 55.587
28.88000 58.068
28.92000 47.442
28.96000 62.984
29.00000 43.694
29.04000 49.630
29.08000 62.164
29.12000 53.612
29.16000 57.811
29.20000 56.731
29.24000 48.635
29.28000 61.098
29.32000 57.549
29.36000 55.664
29.40000 59.757
29.44000 50.492
29.48000 61.641
29.52000 54.832
29.56000 52.677
29.60000 50.345
29.64000 49.864
29.68000 53.847
29.72000 55.762
29.76000 50.712
29.80000 48.487
29.84000 60.923
29.88000 40.603
29.92000 36.500
29.96000 41.519
30.00000 42.585
30.04000 57.701
30.08000 51.793
30.12000 46.326
30.16000 40.690
30.20000 40.571
30.24000 46.930
30.28000 53.891
30.32000 39.435
30.36000 49.673
30.40000 50.805
30.44000 44.588
30.48000 45.613
30.52000 32.454
30.56000 42.295
30.60000 45.671
30.64000 36.259
30.68000 37.662
30.72000 48.861
30.76000 34.501
30.80000 44.684
30.84000 34.536
30.88000 35.040
30.92000 40.598
30.96000 39.431
31.00000 32.318
31.04000 37.405
31.08000 30.548
31.12000 38.666
31.16000 28.442
31.20000 29.338
31.24000 35.478
31.28000 25.149
31.32000 35.502
31.36000 26.164
31.40000 29.444
31.44000 29.338
31.48000 30.291
31.52000 19.381
31.56000 26.329
31.60000 28.481
31.64000 30.481
31.68000 30.428
31.72000 31.433
31.76000 25.489
31.80000 31.471
31.84000 23.475
31.88000 28.503
31.92000 42.597
31.96000 35.051
32.00000 23.275
32.04000 18.303
32.08000 23.263
32.12000 26.368
32.16000 39.884
32.20000 28.299
32.24000 24.235
32.28000 25.352
32.32000 26.282
32.36000 25.191
32.40000 35.368
32.44000 29.614
32.48000 24.328
32.52000 29.390
32.56000 27.504
32.60000 26.206
32.64000 33.633
32.68000 25.214
32.72000 18.285
32.76000 28.311
32.80000 19.279
32.84000 26.282
32.88000 19.195
32.92000 19.317
32.96000 20.183
33.00000 27.288
33.04000 14.311
33.08000 24.335
33.12000 28.336
33.16000 17.140
33.20000 23.205
33.24000 17.421
33.28000 25.185
33.32000 20.265
33.36000 21.281
33.40000 15.079
33.44000 12.999
33.48000 17.073
33.52000 18.144
33.56000 21.279
33.60000 14.025
33.64000 20.327
33.68000 19.259
33.72000 21.225
33.76000 21.253
33.80000 7.115
33.84000 28.252
33.88000 16.351
33.92000 24.260
33.96000 11.094
34.00000 14.174
34.04000 19.206
34.08000 18.284
34.12000 20.286
34.16000 21.387
34.20000 21.441
34.24000 16.122
34.28000 9.026
34.32000 21.401
34.36000 25.290
34.40000 14.156
34.44000 16.252
34.48000 21.349
34.52000 10.164
34.56000 17.142
34.60000 20.214
34.64000 11.167
34.68000 22.291
34.72000 13.952
34.76000 17.341
34.80000 19.237
34.84000 20.344
34.88000 17.073
34.92000 20.132
34.96000 22.190
35.00000 19.218
35.04000 23.466
35.08000 16.124
35.12000 16.236
35.16000 18.372
35.20000 21.380
35.24000 21.250
35.28000 15.273
35.32000 15.252
35.36000 23.296
35.40000 13.179
35.44000 13.178
35.48000 19.211
35.52000 19.260
35.56000 26.286
35.60000 20.323
35.64000 22.478
35.68000 20.309
35.72000 11.241
35.76000 11.121
35.80000 17.212
35.84000 19.312
35.88000 21.133
35.92000 16.183
35.96000 14.325
36.00000 14.254
36.04000 23.461
36.08000 19.320
36.12000 17.305
36.16000 18.228
36.20000 16.142
36.24000 26.284
36.28000 16.307
36.32000 18.101
36.36000 16.307
36.40000 11.061
36.44000 25.297
36.48000 21.204
36.52000 16.211
36.56000 18.339
36.60000 22.299
36.64000 17.324
36.68000 17.307
36.72000 20.237
36.76000 16.153
36.80000 14.218
36.84000 24.389
36.88000 27.276
36.92000 15.235
36.96000 25.240
37.00000 16.373
37.04000 14.263
37.08000 24.229
37.12000 18.233
37.16000 18.311
37.20000 13.957
37.24000 20.241
37.28000 16.312
37.32000 20.328
37.36000 23.326
37.40000 16.258
37.44000 19.410
37.48000 29.330
37.52000 15.156
37.56000 19.041
37.60000 21.303
37.64000 24.322
37.68000 13.174
37.72000 20.286
37.76000 23.468
37.80000 27.621
37.84000 19.096
37.88000 14.161
37.92000 20.180
37.96000 19.212
38.00000 17.126
38.04000 19.409
38.08000 15.136
38.12000 20.297
38.16000 22.480
38.20000 23.304
38.24000 15.202
38.28000 14.291
38.32000 21.226
38.36000 15.110
38.40000 16.263
38.44000 14.212
38.48000 20.284
38.52000 23.226
38.56000 22.167
38.60000 23.294
38.64000 18.171
38.68000 20.138
38.72000 19.243
38.76000 23.233
38.80000 20.234
38.84000 13.131
38.88000 20.297
38.92000 22.989
38.96000 29.304
39.00000 19.269
39.04000 27.608
39.08000 11.934
39.12000 19.351
39.16000 21.492
39.20000 13.276
39.24000 21.521
39.28000 15.161
39.32000 18.306
39.36000 23.433
39.40000 16.313
39.44000 19.239
39.48000 20.326
39.52000 28.235
39.56000 21.420
39.60000 22.281
39.64000 23.299
39.68000 19.289
39.72000 24.258
39.76000 32.511
39.80000 24.182
39.84000 18.392
39.88000 20.318
39.92000 25.182
39.96000 26.331
40.00000 26.273
40.04000 30.286
40.08000 20.273
40.12000 22.294
40.16000 20.104
40.20000 13.309
40.24000 21.299
40.28000 20.362
40.32000 19.064
40.36000 25.127
40.40000 17.304
40.44000 34.533
40.48000 19.296
40.52000 21.340
40.56000 20.241
40.60000 29.153
40.64000 17.169
40.68000 25.133
40.72000 34.676
40.76000 19.247
40.80000 19.290
40.84000 18.137
40.88000 20.261
40.92000 25.250
40.96000 20.239
41.00000 20.356
41.04000 20.433
41.08000 25.316
41.12000 21.219
41.16000 22.510
41.20000 28.259
41.24000 23.196
41.28000 24.311
41.32000 21.273
41.36000 26.372
41.40000 27.332
41.44000 19.345
41.48000 19.338
41.52000 16.191
41.56000 21.145
41.60000 16.261
41.64000 26.280
41.68000 22.270
41.72000 32.359
41.76000 23.359
41.80000 22.251
41.84000 31.660
41.88000 24.207
41.92000 30.666
41.96000 20.107
42.00000 16.150
42.04000 30.640
42.08000 29.273
42.12000 25.283
42.16000 20.065
42.20000 23.413
42.24000 18.268
42.28000 30.285
42.32000 29.566
42.36000 21.320
42.40000 20.053
42.44000 19.250
42.48000 15.114
42.52000 25.351
42.56000 31.649
42.60000 25.189
42.64000 18.259
42.68000 30.273
42.72000 28.183
42.76000 14.226
42.80000 21.228
42.84000 27.453
42.88000 20.375
42.92000 17.122
42.96000 24.270
43.00000 26.306
43.04000 29.186
43.08000 18.282
43.12000 13.154
43.16000 22.187
43.20000 25.337
43.24000 32.235
43.28000 18.350
43.32000 21.270
43.36000 18.079
43.40000 15.004
43.44000 22.351
43.48000 24.446
43.52000 24.349
43.56000 25.383
43.60000 27.097
43.64000 20.204
43.68000 28.312
43.72000 24.168
43.76000 24.444
43.80000 19.349
43.84000 25.255
43.88000 29.524
43.92000 24.357
43.96000 24.248
44.00000 24.292
44.04000 29.268
44.08000 14.246
44.12000 17.206
44.16000 24.420
44.20000 31.222
44.24000 28.324
44.28000 13.216
44.32000 26.315
44.36000 17.286
44.40000 14.004
44.44000 20.272
44.48000 18.254
44.52000 20.122
44.56000 21.273
44.60000 19.282
44.64000 27.512
44.68000 25.562
44.72000 24.479
44.76000 19.291
44.80000 25.279
44.84000 26.246
44.88000 26.342
44.92000 27.347
44.96000 17.153
45.00000 17.305
45.04000 22.308
45.08000 26.528
45.12000 25.333
45.16000 25.430
45.20000 22.434
45.24000 21.471
45.28000 22.566
45.32000 18.254
45.36000 21.114
45.40000 22.362
45.44000 20.398
45.48000 25.398
45.52000 12.265
45.56000 25.300
45.60000 23.346
45.64000 26.471
45.68000 32.400
45.72000 14.290
45.76000 22.335
45.80000 31.360
45.84000 19.199
45.88000 18.184
45.92000 27.261
45.96000 16.281
46.00000 24.453
46.04000 27.352
46.08000 27.262
46.12000 22.198
46.16000 18.227
46.20000 15.212
46.24000 21.359
46.28000 17.204
46.32000 14.112
46.36000 31.312
46.40000 18.308
46.44000 17.173
46.48000 19.260
46.52000 25.382
46.56000 27.238
46.60000 25.026
46.64000 22.213
46.68000 16.385
46.72000 24.306
46.76000 22.279
46.80000 16.122
46.84000 14.253
46.88000 17.308
46.92000 19.299
46.96000 25.367
47.00000 19.438
47.04000 26.572
47.08000 20.227
47.12000 14.292
47.16000 20.182
47.20000 13.134
47.24000 23.169
47.28000 20.220
47.32000 29.707
47.36000 17.352
47.40000 22.161
47.44000 24.263
47.48000 18.253
47.52000 21.218
47.56000 20.187
47.60000 26.226
47.64000 18.047
47.68000 19.971
47.72000 14.172
47.76000 21.321
47.80000 20.417
47.84000 18.401
47.88000 24.428
47.92000 23.417
47.96000 19.198
48.00000 21.306
48.04000 21.419
48.08000 18.191
48.12000 18.381
48.16000 17.192
48.20000 21.354
48.24000 23.255
48.28000 14.265
48.32000 18.416
48.36000 22.213
48.40000 11.159
48.44000 22.211
48.48000 18.350
48.52000 22.560
48.56000 22.442
48.60000 19.378
48.64000 26.183
48.68000 21.331
48.72000 28.372
48.76000 22.099
48.80000 15.283
48.84000 17.217
48.88000 23.325
48.92000 21.244
48.96000 23.361
49.00000 17.201
49.04000 18.217
49.08000 15.107
49.12000 17.253
49.16000 19.181
49.20000 14.213
49.24000 14.044
49.28000 24.259
49.32000 12.275
49.36000 16.148
49.40000 16.161
49.44000 20.274
49.48000 26.297
49.52000 27.183
49.56000 22.142
49.60000 8.135
49.64000 20.318
49.68000 15.327
49.72000 16.262
49.76000 16.196
49.80000 23.429
49.84000 15.169
49.88000 12.206
49.92000 18.316
49.96000 14.150
50.00000 16.136
50.04000 12.130
50.08000 19.353
50.12000 10.130
50.16000 22.386
50.20000 13.287
50.24000 11.274
50.28000 20.250
50.32000 27.360
50.36000 17.157
50.40000 16.402
50.44000 15.150
50.48000 19.283
50.52000 21.273
50.56000 18.050
50.60000 18.319
50.64000 25.350
50.68000 11.153
50.72000 18.197
50.76000 13.200
50.80000 18.356
50.84000 22.500
50.88000 24.368
50.92000 23.300
50.96000 20.090
51.00000 13.339
51.04000 15.061
51.08000 19.128
51.12000 17.156
51.16000 16.145
51.20000 25.414
51.24000 23.214
51.28000 16.060
51.32000 24.396
51.36000 14.275
51.40000 22.299
51.44000 24.346
51.48000 23.520
51.52000 12.163
51.56000 19.257
51.60000 7.105
51.64000 10.991
51.68000 16.124
51.72000 16.245
51.76000 8.168
51.80000 19.309
51.84000 28.487
51.88000 11.228
51.92000 17.232
51.96000 18.199
52.00000 14.186
52.04000 20.176
52.08000 17.213
52.12000 16.151
52.16000 11.088
52.20000 21.278
52.24000 7.091
52.28000 13.112
52.32000 17.147
52.36000 14.172
52.40000 11.177
52.44000 16.224
52.48000 11.116
52.52000 20.994
52.56000 21.271
52.60000 19.193
52.64000 15.164
52.68000 22.414
52.72000 12.082
52.76000 19.084
52.80000 22.299
52.84000 12.146
52.88000 15.261
52.92000 18.237
52.96000 11.191
53.00000 23.223
53.04000 20.324
53.08000 12.189
53.12000 16.189
53.16000 12.088
53.20000 23.367
53.24000 18.123
53.28000 11.139
53.32000 12.042
53.36000 19.153
53.40000 14.257
53.44000 11.102
53.48000 13.161
53.52000 16.178
53.56000 13.184
53.60000 12.248
53.64000 11.331
53.68000 10.085
53.72000 15.127
53.76000 8.067
53.80000 18.237
53.84000 22.302
53.88000 16.256
53.92000 10.037
53.96000 13.189
54.00000 17.307
54.04000 11.100
54.08000 20.441
54.12000 14.111
54.16000 13.304
54.20000 12.022
54.24000 12.165
54.28000 16.368
54.32000 15.243
54.36000 6.060
54.40000 20.177
54.44000 20.276
54.48000 18.162
54.52000 22.481
54.56000 12.902
54.60000 12.255
54.64000 15.254
54.68000 18.208
54.72000 16.193
54.76000 16.332
54.80000 12.104
54.84000 15.349
54.88000 8.084
54.92000 18.268
54.96000 11.139
55.00000 10.137
55.04000 16.224
55.08000 8.043
55.12000 10.106
55.16000 13.130
55.20000 10.032
55.24000 22.292
55.28000 16.181
55.32000 15.261
55.36000 15.204
55.40000 21.154
55.44000 17.195
55.48000 11.197
55.52000 21.459
55.56000 10.164
55.60000 11.087
55.64000 11.089
55.68000 16.387
55.72000 16.213
55.76000 10.199
55.80000 14.344
55.84000 15.279
55.88000 10.071
55.92000 10.119
55.96000 14.117
56.00000 14.411
56.04000 20.262
56.08000 7.052
56.12000 12.120
56.16000 14.001
56.20000 11.115
56.24000 11.087
56.28000 12.191
56.32000 18.208
56.36000 16.215
56.40000 14.149
56.44000 11.327
56.48000 7.094
56.52000 10.204
56.56000 16.158
56.60000 10.320
56.64000 14.207
56.68000 13.151
56.72000 12.125
56.76000 14.190
56.80000 13.299
56.84000 11.183
56.88000 7.072
56.92000 9.105
56.96000 14.459
57.00000 10.197
57.04000 12.147
57.08000 11.248
57.12000 9.019
57.16000 4.087
57.20000 12.172
57.24000 12.145
57.28000 13.130
57.32000 15.058
57.36000 12.375
57.40000 9.142
57.44000 12.166
57.48000 12.125
57.52000 13.253
57.56000 15.168
57.60000 10.230
57.64000 23.335
57.68000 13.195
57.72000 9.026
57.76000 9.196
57.80000 10.001
57.84000 10.190
57.88000 11.206
57.92000 13.047
57.96000 10.111
58.00000 13.121
58.04000 11.179
58.08000 12.560
58.12000 8.137
58.16000 8.009
58.20000 6.076
58.24000 9.035
58.28000 16.323
58.32000 10.104
58.36000 10.071
58.40000 9.221
58.44000 5.055
58.48000 16.262
58.52000 9.221
58.56000 10.077
58.60000 15.241
58.64000 17.080
58.68000 7.094
58.72000 10.072
58.76000 10.109
58.80000 14.207
58.84000 14.146
58.88000 8.987
58.92000 10.030
58.96000 11.043
59.00000 10.051
59.04000 16.400
59.08000 7.065
59.12000 7.140
59.16000 11.202
59.20000 15.143
59.24000 12.148
59.28000 7.134
59.32000 11.127
59.36000 8.932
59.40000 4.056
59.44000 5.045
59.48000 14.123
59.52000 17.983
59.56000 5.026
59.60000 4.004
59.64000 6.071
59.68000 13.064
59.72000 8.009
59.76000 13.125
59.80000 12.291
59.84000 8.185
59.88000 13.288
59.92000 5.054
59.96000 13.219
60.00000 9.134
60.04000 10.070
60.08000 6.999
60.12000 10.260
60.16000 7.090
60.20000 6.078
60.24000 6.098
60.28000 9.161
60.32000 13.163
60.36000 12.234
60.40000 11.228
60.44000 9.150
60.48000 9.221
60.52000 13.057
60.56000 7.053
60.60000 5.956
60.64000 7.083
60.68000 6.071
60.72000 6.078
60.76000 10.239
60.80000 9.100
60.84000 8.066
60.88000 17.274
60.92000 7.057
60.96000 11.250
61.00000 10.170
61.04000 16.338
61.08000 12.141
61.12000 15.163
61.16000 13.212
61.20000 13.184
61.24000 7.198
61.28000 12.161
61.32000 14.148
61.36000 6.037
61.40000 13.078
61.44000 7.075
61.48000 10.138
61.52000 6.037
61.56000 4.066
61.60000 5.057
61.64000 4.114
61.68000 6.201
61.72000 6.081
61.76000 6.128
61.80000 10.334
61.84000 8.189
61.88000 6.087
61.92000 14.063
61.96000 9.202
62.00000 6.139
62.04000 14.372
62.08000 4.018
62.12000 13.259
62.16000 4.031
62.20000 3.055
62.24000 6.106
62.28000 9.085
62.32000 9.094
62.36000 9.091
62.40000 7.152
62.44000 11.236
62.48000 7.221
62.52000 7.110
62.56000 6.068
62.60000 10.073
62.64000 12.145
62.68000 17.296
62.72000 7.116
62.76000 13.116
62.80000 6.106
62.84000 11.185
62.88000 9.125
62.92000 5.066
62.96000 9.170
63.00000 18.394
63.04000 12.181
63.08000 3.029
63.12000 8.152
63.16000 12.190
63.20000 9.202
63.24000 8.073
63.28000 9.063
63.32000 11.174
63.36000 6.069
63.40000 1.981
63.44000 8.228
63.48000 15.155
63.52000 13.165
63.56000 8.063
63.60000 7.080
63.64000 10.052
63.68000 7.184
63.72000 5.002
63.76000 13.050
63.80000 11.186
63.84000 7.121
63.88000 10.049
63.92000 7.992
63.96000 12.133
64.00000 7.098
64.04000 8.012
64.08000 12.303
64.12000 8.143
64.16000 6.047
64.20000 10.072
64.24000 7.044
64.28000 3.939
64.32000 15.153
64.36000 3.959
64.40000 6.053
64.44000 4.059
64.48000 5.088
64.52000 4.068
64.56000 8.124
64.60000 9.066
64.64000 6.150
64.68000 10.084
64.72000 8.088
64.76000 7.080
64.80000 5.051
64.84000 8.961
64.88000 7.001
64.92000 14.115
64.96000 14.162
65.00000 7.072