File: XRD/XRD/11-09-2025/XY Data/01092025_BTO_omega_0_5_001_06_-11-138_5-675.xy
20.00000 19.364
20.04000 29.479
20.08000 24.179
20.12000 13.144
20.16000 19.137
20.20000 27.523
20.24000 22.177
20.28000 24.394
20.32000 15.274
20.36000 21.108
20.40000 21.337
20.44000 26.557
20.48000 20.255
20.52000 18.047
20.56000 14.071
20.60000 13.132
20.64000 14.310
20.68000 23.347
20.72000 29.531
20.76000 15.169
20.80000 12.044
20.84000 28.379
20.88000 19.249
20.92000 25.015
20.96000 19.147
21.00000 15.471
21.04000 20.430
21.08000 21.193
21.12000 26.177
21.16000 30.430
21.20000 22.301
21.24000 29.154
21.28000 18.040
21.32000 21.546
21.36000 18.254
21.40000 23.110
21.44000 27.480
21.48000 24.204
21.52000 19.259
21.56000 14.077
21.60000 24.228
21.64000 17.091
21.68000 25.321
21.72000 16.198
21.76000 27.216
21.80000 24.329
21.84000 24.434
21.88000 23.371
21.92000 28.233
21.96000 22.319
22.00000 36.421
22.04000 21.413
22.08000 27.325
22.12000 23.477
22.16000 32.237
22.20000 26.290
22.24000 20.198
22.28000 23.315
22.32000 11.162
22.36000 22.370
22.40000 31.388
22.44000 27.442
22.48000 27.503
22.52000 25.288
22.56000 30.484
22.60000 20.443
22.64000 20.387
22.68000 32.294
22.72000 23.330
22.76000 21.258
22.80000 43.527
22.84000 27.061
22.88000 25.437
22.92000 30.424
22.96000 18.157
23.00000 32.498
23.04000 20.153
23.08000 18.247
23.12000 27.508
23.16000 38.716
23.20000 28.440
23.24000 21.311
23.28000 18.252
23.32000 25.181
23.36000 20.409
23.40000 26.211
23.44000 27.235
23.48000 28.103
23.52000 34.332
23.56000 24.184
23.60000 22.300
23.64000 30.345
23.68000 41.631
23.72000 31.467
23.76000 28.118
23.80000 30.323
23.84000 18.400
23.88000 30.208
23.92000 17.071
23.96000 31.361
24.00000 25.386
24.04000 36.546
24.08000 26.303
24.12000 32.503
24.16000 37.297
24.20000 29.374
24.24000 36.428
24.28000 27.564
24.32000 23.139
24.36000 27.289
24.40000 43.491
24.44000 36.399
24.48000 27.251
24.52000 32.604
24.56000 29.526
24.60000 36.565
24.64000 35.159
24.68000 40.212
24.72000 22.142
24.76000 31.534
24.80000 48.318
24.84000 33.395
24.88000 37.504
24.92000 43.764
24.96000 21.293
25.00000 44.526
25.04000 36.582
25.08000 34.485
25.12000 47.703
25.16000 37.456
25.20000 38.568
25.24000 33.381
25.28000 43.571
25.32000 47.761
25.36000 51.789
25.40000 50.700
25.44000 42.228
25.48000 51.618
25.52000 44.666
25.56000 47.518
25.60000 48.665
25.64000 35.659
25.68000 43.464
25.72000 51.835
25.76000 37.508
25.80000 45.837
25.84000 50.745
25.88000 42.598
25.92000 46.686
25.96000 50.559
26.00000 48.678
26.04000 59.466
26.08000 48.582
26.12000 45.621
26.16000 40.731
26.20000 61.969
26.24000 37.484
26.28000 45.713
26.32000 65.089
26.36000 50.750
26.40000 59.837
26.44000 64.899
26.48000 39.454
26.52000 71.212
26.56000 52.796
26.60000 50.685
26.64000 44.250
26.68000 42.806
26.72000 67.993
26.76000 51.957
26.80000 53.771
26.84000 56.022
26.88000 55.671
26.92000 53.938
26.96000 49.603
27.00000 52.559
27.04000 57.776
27.08000 42.632
27.12000 58.654
27.16000 57.821
27.20000 55.617
27.24000 54.709
27.28000 59.950
27.32000 46.580
27.36000 65.076
27.40000 49.822
27.44000 65.770
27.48000 56.852
27.52000 54.944
27.56000 50.792
27.60000 62.671
27.64000 68.873
27.68000 58.735
27.72000 61.934
27.76000 53.978
27.80000 62.184
27.84000 66.918
27.88000 54.809
27.92000 55.804
27.96000 55.488
28.00000 66.474
28.04000 70.007
28.08000 64.053
28.12000 53.524
28.16000 60.805
28.20000 53.548
28.24000 60.944
28.28000 64.882
28.32000 54.680
28.36000 55.660
28.40000 51.580
28.44000 57.519
28.48000 57.063
28.52000 47.622
28.56000 65.859
28.60000 63.021
28.64000 48.611
28.68000 51.496
28.72000 53.877
28.76000 52.646
28.80000 55.446
28.84000 55.514
28.88000 41.575
28.92000 50.983
28.96000 52.898
29.00000 51.598
29.04000 42.536
29.08000 44.768
29.12000 68.695
29.16000 53.469
29.20000 55.363
29.24000 49.963
29.28000 42.595
29.32000 32.474
29.36000 46.592
29.40000 52.498
29.44000 42.327
29.48000 49.830
29.52000 30.457
29.56000 37.446
29.60000 57.007
29.64000 42.155
29.68000 35.568
29.72000 38.824
29.76000 50.063
29.80000 47.396
29.84000 36.488
29.88000 40.451
29.92000 41.892
29.96000 39.329
30.00000 48.867
30.04000 38.449
30.08000 37.641
30.12000 36.736
30.16000 36.381
30.20000 39.560
30.24000 34.412
30.28000 45.584
30.32000 34.623
30.36000 27.379
30.40000 42.319
30.44000 34.768
30.48000 36.367
30.52000 40.666
30.56000 36.394
30.60000 36.545
30.64000 41.527
30.68000 33.166
30.72000 37.567
30.76000 38.672
30.80000 40.557
30.84000 26.526
30.88000 41.557
30.92000 32.451
30.96000 31.482
31.00000 26.280
31.04000 33.349
31.08000 36.402
31.12000 23.326
31.16000 29.250
31.20000 29.450
31.24000 50.552
31.28000 41.262
31.32000 27.527
31.36000 40.664
31.40000 38.582
31.44000 36.261
31.48000 24.328
31.52000 28.430
31.56000 31.238
31.60000 29.532
31.64000 33.469
31.68000 25.081
31.72000 30.371
31.76000 27.370
31.80000 19.412
31.84000 28.735
31.88000 28.483
31.92000 20.204
31.96000 27.313
32.00000 26.527
32.04000 34.494
32.08000 39.550
32.12000 22.363
32.16000 25.179
32.20000 34.633
32.24000 26.415
32.28000 20.319
32.32000 28.563
32.36000 26.452
32.40000 29.324
32.44000 25.485
32.48000 28.067
32.52000 30.108
32.56000 37.530
32.60000 27.307
32.64000 21.349
32.68000 28.420
32.72000 33.503
32.76000 24.386
32.80000 24.264
32.84000 28.323
32.88000 27.708
32.92000 29.460
32.96000 20.166
33.00000 25.212
33.04000 26.248
33.08000 17.189
33.12000 22.150
33.16000 26.319
33.20000 15.094
33.24000 17.116
33.28000 19.161
33.32000 21.254
33.36000 21.252
33.40000 23.390
33.44000 28.148
33.48000 20.210
33.52000 19.221
33.56000 13.057
33.60000 32.532
33.64000 19.173
33.68000 19.207
33.72000 22.210
33.76000 21.314
33.80000 18.553
33.84000 25.422
33.88000 22.177
33.92000 26.237
33.96000 16.101
34.00000 24.276
34.04000 15.147
34.08000 16.210
34.12000 22.452
34.16000 20.316
34.20000 23.412
34.24000 25.430
34.28000 16.330
34.32000 20.175
34.36000 15.222
34.40000 21.341
34.44000 20.300
34.48000 27.470
34.52000 22.131
34.56000 18.159
34.60000 23.574
34.64000 16.132
34.68000 16.129
34.72000 19.316
34.76000 18.184
34.80000 17.148
34.84000 21.256
34.88000 25.155
34.92000 26.445
34.96000 16.059
35.00000 14.314
35.04000 14.093
35.08000 20.287
35.12000 12.088
35.16000 24.403
35.20000 15.039
35.24000 25.129
35.28000 12.253
35.32000 13.218
35.36000 16.218
35.40000 13.111
35.44000 20.134
35.48000 17.373
35.52000 16.122
35.56000 13.189
35.60000 17.167
35.64000 13.017
35.68000 20.237
35.72000 26.426
35.76000 18.271
35.80000 16.287
35.84000 18.248
35.88000 16.113
35.92000 20.233
35.96000 26.322
36.00000 18.142
36.04000 24.273
36.08000 20.094
36.12000 18.064
36.16000 14.250
36.20000 22.450
36.24000 14.082
36.28000 25.405
36.32000 19.163
36.36000 13.149
36.40000 20.219
36.44000 17.314
36.48000 16.190
36.52000 17.257
36.56000 20.230
36.60000 14.133
36.64000 18.317
36.68000 16.165
36.72000 22.306
36.76000 15.196
36.80000 28.393
36.84000 23.271
36.88000 16.124
36.92000 14.110
36.96000 11.013
37.00000 23.297
37.04000 20.202
37.08000 20.312
37.12000 19.164
37.16000 16.100
37.20000 18.115
37.24000 17.196
37.28000 21.292
37.32000 23.291
37.36000 22.297
37.40000 11.180
37.44000 19.060
37.48000 19.355
37.52000 18.093
37.56000 19.079
37.60000 24.473
37.64000 21.277
37.68000 11.195
37.72000 23.354
37.76000 28.318
37.80000 14.242
37.84000 22.340
37.88000 11.109
37.92000 18.163
37.96000 17.215
38.00000 16.150
38.04000 18.426
38.08000 26.316
38.12000 16.083
38.16000 27.440
38.20000 18.431
38.24000 30.559
38.28000 20.275
38.32000 29.476
38.36000 27.347
38.40000 29.411
38.44000 15.303
38.48000 28.496
38.52000 34.292
38.56000 29.361
38.60000 22.392
38.64000 18.210
38.68000 24.282
38.72000 19.329
38.76000 28.514
38.80000 29.470
38.84000 21.207
38.88000 22.101
38.92000 19.167
38.96000 22.217
39.00000 17.305
39.04000 24.460
39.08000 24.463
39.12000 20.358
39.16000 28.374
39.20000 27.276
39.24000 18.306
39.28000 31.476
39.32000 21.257
39.36000 23.022
39.40000 24.246
39.44000 24.320
39.48000 20.268
39.52000 28.435
39.56000 22.320
39.60000 19.441
39.64000 23.268
39.68000 18.393
39.72000 25.454
39.76000 24.389
39.80000 32.262
39.84000 20.206
39.88000 24.223
39.92000 23.278
39.96000 21.328
40.00000 19.283
40.04000 15.100
40.08000 27.605
40.12000 28.385
40.16000 21.405
40.20000 14.201
40.24000 19.371
40.28000 17.219
40.32000 16.213
40.36000 11.154
40.40000 24.304
40.44000 26.260
40.48000 24.185
40.52000 26.469
40.56000 15.258
40.60000 26.767
40.64000 24.518
40.68000 27.491
40.72000 16.142
40.76000 16.283
40.80000 25.204
40.84000 25.233
40.88000 23.319
40.92000 19.301
40.96000 17.127
41.00000 16.162
41.04000 27.260
41.08000 22.399
41.12000 25.296
41.16000 19.404
41.20000 21.393
41.24000 23.318
41.28000 28.284
41.32000 17.308
41.36000 22.393
41.40000 18.242
41.44000 14.073
41.48000 28.358
41.52000 25.377
41.56000 23.109
41.60000 19.322
41.64000 19.137
41.68000 25.095
41.72000 23.323
41.76000 26.042
41.80000 20.304
41.84000 18.068
41.88000 22.377
41.92000 24.502
41.96000 21.461
42.00000 17.181
42.04000 18.093
42.08000 19.958
42.12000 21.390
42.16000 23.301
42.20000 22.400
42.24000 19.090
42.28000 19.076
42.32000 15.302
42.36000 18.320
42.40000 21.246
42.44000 26.352
42.48000 17.229
42.52000 17.184
42.56000 16.163
42.60000 23.227
42.64000 21.350
42.68000 14.123
42.72000 19.494
42.76000 20.282
42.80000 20.196
42.84000 16.169
42.88000 24.341
42.92000 29.314
42.96000 20.356
43.00000 16.277
43.04000 20.281
43.08000 22.251
43.12000 30.249
43.16000 19.272
43.20000 21.284
43.24000 18.188
43.28000 15.317
43.32000 14.355
43.36000 18.286
43.40000 18.293
43.44000 21.475
43.48000 26.400
43.52000 15.216
43.56000 19.209
43.60000 28.416
43.64000 23.247
43.68000 25.466
43.72000 17.127
43.76000 24.270
43.80000 17.261
43.84000 19.350
43.88000 22.271
43.92000 21.282
43.96000 22.147
44.00000 19.108
44.04000 31.616
44.08000 16.265
44.12000 19.232
44.16000 29.340
44.20000 21.265
44.24000 27.128
44.28000 17.174
44.32000 26.275
44.36000 28.023
44.40000 23.211
44.44000 15.249
44.48000 25.448
44.52000 16.082
44.56000 22.365
44.60000 13.138
44.64000 21.188
44.68000 24.302
44.72000 21.253
44.76000 14.124
44.80000 25.288
44.84000 16.152
44.88000 28.529
44.92000 26.139
44.96000 25.366
45.00000 21.332
45.04000 20.207
45.08000 27.360
45.12000 16.143
45.16000 10.199
45.20000 25.371
45.24000 17.278
45.28000 17.134
45.32000 22.154
45.36000 23.358
45.40000 20.436
45.44000 22.102
45.48000 27.432
45.52000 25.138
45.56000 22.285
45.60000 26.405
45.64000 32.370
45.68000 19.192
45.72000 25.200
45.76000 26.447
45.80000 23.396
45.84000 26.227
45.88000 17.184
45.92000 29.401
45.96000 24.312
46.00000 19.145
46.04000 24.310
46.08000 28.509
46.12000 20.351
46.16000 18.220
46.20000 22.178
46.24000 23.405
46.28000 24.274
46.32000 22.405
46.36000 16.192
46.40000 26.468
46.44000 17.255
46.48000 28.188
46.52000 27.500
46.56000 23.339
46.60000 27.399
46.64000 18.286
46.68000 23.369
46.72000 13.190
46.76000 21.241
46.80000 24.372
46.84000 21.360
46.88000 26.360
46.92000 23.471
46.96000 14.164
47.00000 18.386
47.04000 19.207
47.08000 17.223
47.12000 16.246
47.16000 27.306
47.20000 27.462
47.24000 21.097
47.28000 20.441
47.32000 15.235
47.36000 16.432
47.40000 18.236
47.44000 14.208
47.48000 23.506
47.52000 15.188
47.56000 18.217
47.60000 15.203
47.64000 18.256
47.68000 22.213
47.72000 25.428
47.76000 20.209
47.80000 16.088
47.84000 19.274
47.88000 16.258
47.92000 20.521
47.96000 17.305
48.00000 24.581
48.04000 24.110
48.08000 16.254
48.12000 19.307
48.16000 18.237
48.20000 19.378
48.24000 18.231
48.28000 20.449
48.32000 15.234
48.36000 14.200
48.40000 18.257
48.44000 18.195
48.48000 24.387
48.52000 24.406
48.56000 28.456
48.60000 25.413
48.64000 21.239
48.68000 20.358
48.72000 17.174
48.76000 15.192
48.80000 14.172
48.84000 12.106
48.88000 13.267
48.92000 20.223
48.96000 20.970
49.00000 19.459
49.04000 16.209
49.08000 23.296
49.12000 13.269
49.16000 19.326
49.20000 11.158
49.24000 19.277
49.28000 20.314
49.32000 18.099
49.36000 11.125
49.40000 20.313
49.44000 14.102
49.48000 19.110
49.52000 17.114
49.56000 17.216
49.60000 14.112
49.64000 16.201
49.68000 27.251
49.72000 21.121
49.76000 19.278
49.80000 21.427
49.84000 16.183
49.88000 12.014
49.92000 16.257
49.96000 23.271
50.00000 19.097
50.04000 20.082
50.08000 12.164
50.12000 18.337
50.16000 22.359
50.20000 19.312
50.24000 26.446
50.28000 20.384
50.32000 18.290
50.36000 10.065
50.40000 17.118
50.44000 20.393
50.48000 19.240
50.52000 20.139
50.56000 18.194
50.60000 17.187
50.64000 10.053
50.68000 16.140
50.72000 8.075
50.76000 13.048
50.80000 20.393
50.84000 16.359
50.88000 14.156
50.92000 11.168
50.96000 26.206
51.00000 9.074
51.04000 16.101
51.08000 15.163
51.12000 21.432
51.16000 14.218
51.20000 12.065
51.24000 14.273
51.28000 16.185
51.32000 19.479
51.36000 17.060
51.40000 13.388
51.44000 16.252
51.48000 11.141
51.52000 11.162
51.56000 13.269
51.60000 11.280
51.64000 16.168
51.68000 12.195
51.72000 16.162
51.76000 12.054
51.80000 14.214
51.84000 17.202
51.88000 24.171
51.92000 13.335
51.96000 11.201
52.00000 15.217
52.04000 19.038
52.08000 18.260
52.12000 20.228
52.16000 9.135
52.20000 14.389
52.24000 13.032
52.28000 9.093
52.32000 19.372
52.36000 18.358
52.40000 13.144
52.44000 24.155
52.48000 18.155
52.52000 14.048
52.56000 9.141
52.60000 9.147
52.64000 14.165
52.68000 9.099
52.72000 12.149
52.76000 15.235
52.80000 12.175
52.84000 15.089
52.88000 14.955
52.92000 14.152
52.96000 19.354
53.00000 13.129
53.04000 15.277
53.08000 18.187
53.12000 12.148
53.16000 16.113
53.20000 15.362
53.24000 20.242
53.28000 22.202
53.32000 20.254
53.36000 11.187
53.40000 20.328
53.44000 19.112
53.48000 17.176
53.52000 24.465
53.56000 13.014
53.60000 15.324
53.64000 9.230
53.68000 19.295
53.72000 14.177
53.76000 12.151
53.80000 17.292
53.84000 16.338
53.88000 20.091
53.92000 13.173
53.96000 20.174
54.00000 12.162
54.04000 22.234
54.08000 14.225
54.12000 28.299
54.16000 16.224
54.20000 9.134
54.24000 13.052
54.28000 16.103
54.32000 17.283
54.36000 16.293
54.40000 7.172
54.44000 16.320
54.48000 21.074
54.52000 15.366
54.56000 12.149
54.60000 13.050
54.64000 6.036
54.68000 10.139
54.72000 13.288
54.76000 11.199
54.80000 6.161
54.84000 14.232
54.88000 18.333
54.92000 10.112
54.96000 13.117
55.00000 13.218
55.04000 10.145
55.08000 14.103
55.12000 17.199
55.16000 10.112
55.20000 10.114
55.24000 12.030
55.28000 12.269
55.32000 19.134
55.36000 19.276
55.40000 17.165
55.44000 11.212
55.48000 16.186
55.52000 16.128
55.56000 9.267
55.60000 20.204
55.64000 14.149
55.68000 9.186
55.72000 11.180
55.76000 18.090
55.80000 17.243
55.84000 12.139
55.88000 11.080
55.92000 10.283
55.96000 15.132
56.00000 10.229
56.04000 11.174
56.08000 13.093
56.12000 14.154
56.16000 7.043
56.20000 10.071
56.24000 16.005
56.28000 12.187
56.32000 13.223
56.36000 14.281
56.40000 13.178
56.44000 17.324
56.48000 13.102
56.52000 8.118
56.56000 8.032
56.60000 8.161
56.64000 10.154
56.68000 12.234
56.72000 10.142
56.76000 10.137
56.80000 13.123
56.84000 16.076
56.88000 7.150
56.92000 10.145
56.96000 10.144
57.00000 16.150
57.04000 3.008
57.08000 9.972
57.12000 11.175
57.16000 19.271
57.20000 10.204
57.24000 6.091
57.28000 11.991
57.32000 11.096
57.36000 12.070
57.40000 6.945
57.44000 12.123
57.48000 11.131
57.52000 13.213
57.56000 9.166
57.60000 10.162
57.64000 13.053
57.68000 14.099
57.72000 15.171
57.76000 15.266
57.80000 9.069
57.84000 11.113
57.88000 10.091
57.92000 10.137
57.96000 19.149
58.00000 10.118
58.04000 7.066
58.08000 9.132
58.12000 14.249
58.16000 10.127
58.20000 11.182
58.24000 13.254
58.28000 8.096
58.32000 8.114
58.36000 11.188
58.40000 14.220
58.44000 13.163
58.48000 8.114
58.52000 8.239
58.56000 13.338
58.60000 10.094
58.64000 18.501
58.68000 7.015
58.72000 9.030
58.76000 12.977
58.80000 15.100
58.84000 15.268
58.88000 9.135
58.92000 15.349
58.96000 14.108
59.00000 11.170
59.04000 13.274
59.08000 8.101
59.12000 14.163
59.16000 12.090
59.20000 11.099
59.24000 9.069
59.28000 10.072
59.32000 10.085
59.36000 8.109
59.40000 12.162
59.44000 14.061
59.48000 15.207
59.52000 13.964
59.56000 9.046
59.60000 6.986
59.64000 9.172
59.68000 10.046
59.72000 10.036
59.76000 13.171
59.80000 13.171
59.84000 8.123
59.88000 11.242
59.92000 13.195
59.96000 13.274
60.00000 9.173
60.04000 8.147
60.08000 9.154
60.12000 12.131
60.16000 12.076
60.20000 9.180
60.24000 15.132
60.28000 10.242
60.32000 7.094
60.36000 6.124
60.40000 10.070
60.44000 8.123
60.48000 8.997
60.52000 9.074
60.56000 8.111
60.60000 7.114
60.64000 6.035
60.68000 9.225
60.72000 11.160
60.76000 12.193
60.80000 7.005
60.84000 11.130
60.88000 15.198
60.92000 7.192
60.96000 5.955
61.00000 11.147
61.04000 12.080
61.08000 12.078
61.12000 6.114
61.16000 13.080
61.20000 10.172
61.24000 16.300
61.28000 12.085
61.32000 7.003
61.36000 15.128
61.40000 10.139
61.44000 11.184
61.48000 10.901
61.52000 5.033
61.56000 11.163
61.60000 12.063
61.64000 11.298
61.68000 9.076
61.72000 13.130
61.76000 11.190
61.80000 9.060
61.84000 10.175
61.88000 7.275
61.92000 12.172
61.96000 4.085
62.00000 8.084
62.04000 10.149
62.08000 14.267
62.12000 7.121
62.16000 6.999
62.20000 4.990
62.24000 11.072
62.28000 12.118
62.32000 8.151
62.36000 8.138
62.40000 6.042
62.44000 6.016
62.48000 10.206
62.52000 7.047
62.56000 10.230
62.60000 7.000
62.64000 5.987
62.68000 13.083
62.72000 10.117
62.76000 10.115
62.80000 10.018
62.84000 8.041
62.88000 6.032
62.92000 11.048
62.96000 4.060
63.00000 12.084
63.04000 7.130
63.08000 11.155
63.12000 7.050
63.16000 7.203
63.20000 13.082
63.24000 4.966
63.28000 11.192
63.32000 10.178
63.36000 5.957
63.40000 15.146
63.44000 2.994
63.48000 7.063
63.52000 13.094
63.56000 11.102
63.60000 7.991
63.64000 8.086
63.68000 10.021
63.72000 10.187
63.76000 14.222
63.80000 5.031
63.84000 16.230
63.88000 10.203
63.92000 8.142
63.96000 7.055
64.00000 10.096
64.04000 10.968
64.08000 13.306
64.12000 6.104
64.16000 14.223
64.20000 11.077
64.24000 9.028
64.28000 7.199
64.32000 9.195
64.36000 10.154
64.40000 15.052
64.44000 11.999
64.48000 6.083
64.52000 3.058
64.56000 5.052
64.60000 13.054
64.64000 7.103
64.68000 7.950
64.72000 13.273
64.76000 12.245
64.80000 6.159
64.84000 8.017
64.88000 9.121
64.92000 11.202
64.96000 10.033
65.00000 10.164