File: XRD/XRD/11-09-2025/XY Data/01092025_BTO_omega_1_001_10_5-563_-24-373.xy
20.00000 175.267
20.04000 160.769
20.08000 184.968
20.12000 173.580
20.16000 182.320
20.20000 169.689
20.24000 172.956
20.28000 157.309
20.32000 138.225
20.36000 163.486
20.40000 181.783
20.44000 162.779
20.48000 171.526
20.52000 166.198
20.56000 155.533
20.60000 150.011
20.64000 148.583
20.68000 146.528
20.72000 144.246
20.76000 143.345
20.80000 124.292
20.84000 150.891
20.88000 150.614
20.92000 135.131
20.96000 130.060
21.00000 125.307
21.04000 131.324
21.08000 134.183
21.12000 124.141
21.16000 132.119
21.20000 129.655
21.24000 135.191
21.28000 135.572
21.32000 124.211
21.36000 121.938
21.40000 124.156
21.44000 121.387
21.48000 117.551
21.52000 100.083
21.56000 94.494
21.60000 118.922
21.64000 114.801
21.68000 136.238
21.72000 107.906
21.76000 96.925
21.80000 90.154
21.84000 99.026
21.88000 99.938
21.92000 95.507
21.96000 89.588
22.00000 83.744
22.04000 106.081
22.08000 88.665
22.12000 110.154
22.16000 95.988
22.20000 74.623
22.24000 82.848
22.28000 74.704
22.32000 65.641
22.36000 79.951
22.40000 86.600
22.44000 73.692
22.48000 79.941
22.52000 80.902
22.56000 67.870
22.60000 78.697
22.64000 67.634
22.68000 65.453
22.72000 75.812
22.76000 63.676
22.80000 62.583
22.84000 75.869
22.88000 57.490
22.92000 58.709
22.96000 61.589
23.00000 69.834
23.04000 49.295
23.08000 57.592
23.12000 49.714
23.16000 46.591
23.20000 54.444
23.24000 43.522
23.28000 53.590
23.32000 63.817
23.36000 56.742
23.40000 42.425
23.44000 40.738
23.48000 40.102
23.52000 52.610
23.56000 41.514
23.60000 43.335
23.64000 59.834
23.68000 44.661
23.72000 44.201
23.76000 33.456
23.80000 39.452
23.84000 37.524
23.88000 50.394
23.92000 30.446
23.96000 32.363
24.00000 37.183
24.04000 37.506
24.08000 37.472
24.12000 39.542
24.16000 45.422
24.20000 34.459
24.24000 21.302
24.28000 44.660
24.32000 33.353
24.36000 42.359
24.40000 34.375
24.44000 32.089
24.48000 28.534
24.52000 19.318
24.56000 33.542
24.60000 23.281
24.64000 25.315
24.68000 21.256
24.72000 19.936
24.76000 27.211
24.80000 29.378
24.84000 25.280
24.88000 26.210
24.92000 27.163
24.96000 23.296
25.00000 22.149
25.04000 18.321
25.08000 25.506
25.12000 24.313
25.16000 26.354
25.20000 25.182
25.24000 23.266
25.28000 22.207
25.32000 19.062
25.36000 24.275
25.40000 23.406
25.44000 27.360
25.48000 24.280
25.52000 22.111
25.56000 19.447
25.60000 17.267
25.64000 19.314
25.68000 22.237
25.72000 15.273
25.76000 19.298
25.80000 25.365
25.84000 18.270
25.88000 19.204
25.92000 18.219
25.96000 11.128
26.00000 20.161
26.04000 23.454
26.08000 12.214
26.12000 19.172
26.16000 22.240
26.20000 24.290
26.24000 13.189
26.28000 15.221
26.32000 16.175
26.36000 11.161
26.40000 21.081
26.44000 14.087
26.48000 18.404
26.52000 15.207
26.56000 10.097
26.60000 17.221
26.64000 13.401
26.68000 18.207
26.72000 14.297
26.76000 16.141
26.80000 17.176
26.84000 9.144
26.88000 16.155
26.92000 16.290
26.96000 10.138
27.00000 9.224
27.04000 12.089
27.08000 7.162
27.12000 12.114
27.16000 17.382
27.20000 18.114
27.24000 22.224
27.28000 16.214
27.32000 17.451
27.36000 8.017
27.40000 19.312
27.44000 10.011
27.48000 9.994
27.52000 11.043
27.56000 7.117
27.60000 6.015
27.64000 14.203
27.68000 12.048
27.72000 11.092
27.76000 10.111
27.80000 13.236
27.84000 13.030
27.88000 10.136
27.92000 13.032
27.96000 16.461
28.00000 13.109
28.04000 18.203
28.08000 16.213
28.12000 14.085
28.16000 12.284
28.20000 12.289
28.24000 17.193
28.28000 10.108
28.32000 11.100
28.36000 10.020
28.40000 11.114
28.44000 3.008
28.48000 14.211
28.52000 15.193
28.56000 6.988
28.60000 11.119
28.64000 11.163
28.68000 12.187
28.72000 8.070
28.76000 8.147
28.80000 12.060
28.84000 10.122
28.88000 9.302
28.92000 17.248
28.96000 11.140
29.00000 8.254
29.04000 6.113
29.08000 11.191
29.12000 12.115
29.16000 13.231
29.20000 12.114
29.24000 15.174
29.28000 6.117
29.32000 19.349
29.36000 14.270
29.40000 10.102
29.44000 12.207
29.48000 15.292
29.52000 13.328
29.56000 10.282
29.60000 5.955
29.64000 17.270
29.68000 13.235
29.72000 9.119
29.76000 4.086
29.80000 7.157
29.84000 16.319
29.88000 6.105
29.92000 8.081
29.96000 7.103
30.00000 8.032
30.04000 15.204
30.08000 8.075
30.12000 12.087
30.16000 5.996
30.20000 12.178
30.24000 11.236
30.28000 6.137
30.32000 8.052
30.36000 8.101
30.40000 11.182
30.44000 9.030
30.48000 18.069
30.52000 10.157
30.56000 6.007
30.60000 7.165
30.64000 11.109
30.68000 5.029
30.72000 11.123
30.76000 13.110
30.80000 4.072
30.84000 10.110
30.88000 6.100
30.92000 12.189
30.96000 9.123
31.00000 11.144
31.04000 14.230
31.08000 8.137
31.12000 10.977
31.16000 8.067
31.20000 6.035
31.24000 6.048
31.28000 10.090
31.32000 7.125
31.36000 13.139
31.40000 8.248
31.44000 9.048
31.48000 2.015
31.52000 8.124
31.56000 11.240
31.60000 8.084
31.64000 5.161
31.68000 10.039
31.72000 11.048
31.76000 11.065
31.80000 8.083
31.84000 7.096
31.88000 8.166
31.92000 6.999
31.96000 5.032
32.00000 6.045
32.04000 7.188
32.08000 10.241
32.12000 3.989
32.16000 9.236
32.20000 7.062
32.24000 9.143
32.28000 6.170
32.32000 12.188
32.36000 9.024
32.40000 9.169
32.44000 10.280
32.48000 9.108
32.52000 13.270
32.56000 11.089
32.60000 9.121
32.64000 8.148
32.68000 9.094
32.72000 9.123
32.76000 4.050
32.80000 10.045
32.84000 8.133
32.88000 8.038
32.92000 3.132
32.96000 7.135
33.00000 12.045
33.04000 6.207
33.08000 9.108
33.12000 8.208
33.16000 7.155
33.20000 7.080
33.24000 6.012
33.28000 8.116
33.32000 15.154
33.36000 8.043
33.40000 4.060
33.44000 5.028
33.48000 7.090
33.52000 7.116
33.56000 4.983
33.60000 11.072
33.64000 3.026
33.68000 7.164
33.72000 11.130
33.76000 7.086
33.80000 8.128
33.84000 5.011
33.88000 8.116
33.92000 9.193
33.96000 5.091
34.00000 5.123
34.04000 9.121
34.08000 6.053
34.12000 7.128
34.16000 6.118
34.20000 4.061
34.24000 6.110
34.28000 7.058
34.32000 11.124
34.36000 9.067
34.40000 9.131
34.44000 4.017
34.48000 3.018
34.52000 4.071
34.56000 2.970
34.60000 8.067
34.64000 3.018
34.68000 12.183
34.72000 6.054
34.76000 7.144
34.80000 6.164
34.84000 9.147
34.88000 6.017
34.92000 4.039
34.96000 9.125
35.00000 8.168
35.04000 4.134
35.08000 5.011
35.12000 6.136
35.16000 6.075
35.20000 8.278
35.24000 4.049
35.28000 7.210
35.32000 11.202
35.36000 7.076
35.40000 6.208
35.44000 7.082
35.48000 4.092
35.52000 10.164
35.56000 9.101
35.60000 6.043
35.64000 5.098
35.68000 8.053
35.72000 5.067
35.76000 3.066
35.80000 7.106
35.84000 5.035
35.88000 6.171
35.92000 4.090
35.96000 9.221
36.00000 3.086
36.04000 6.171
36.08000 8.126
36.12000 7.076
36.16000 4.991
36.20000 6.066
36.24000 5.078
36.28000 8.072
36.32000 5.945
36.36000 6.019
36.40000 8.065
36.44000 9.100
36.48000 6.032
36.52000 5.034
36.56000 5.989
36.60000 10.116
36.64000 3.099
36.68000 5.106
36.72000 8.147
36.76000 5.049
36.80000 6.057
36.84000 6.081
36.88000 3.974
36.92000 3.044
36.96000 7.099
37.00000 6.029
37.04000 6.047
37.08000 3.099
37.12000 3.055
37.16000 8.233
37.20000 10.166
37.24000 4.946
37.28000 6.097
37.32000 2.088
37.36000 8.120
37.40000 4.027
37.44000 1.001
37.48000 7.062
37.52000 4.087
37.56000 10.050
37.60000 3.053
37.64000 5.065
37.68000 5.039
37.72000 0.000
37.76000 4.044
37.80000 1.006
37.84000 3.040
37.88000 4.049
37.92000 6.052
37.96000 7.099
38.00000 7.166
38.04000 6.165
38.08000 7.059
38.12000 3.065
38.16000 6.045
38.20000 4.022
38.24000 10.091
38.28000 5.028
38.32000 5.071
38.36000 3.086
38.40000 3.043
38.44000 6.143
38.48000 4.097
38.52000 5.059
38.56000 2.000
38.60000 2.052
38.64000 4.041
38.68000 4.043
38.72000 7.039
38.76000 10.107
38.80000 3.036
38.84000 3.122
38.88000 7.055
38.92000 5.100
38.96000 5.042
39.00000 3.045
39.04000 3.011
39.08000 6.079
39.12000 4.034
39.16000 8.097
39.20000 6.168
39.24000 2.010
39.28000 4.005
39.32000 6.117
39.36000 4.166
39.40000 4.043
39.44000 6.001
39.48000 4.041
39.52000 5.086
39.56000 5.038
39.60000 6.021
39.64000 4.066
39.68000 7.044
39.72000 5.064
39.76000 9.124
39.80000 5.110
39.84000 3.071
39.88000 8.042
39.92000 4.067
39.96000 11.134
40.00000 5.099
40.04000 5.025
40.08000 1.038
40.12000 0.989
40.16000 5.113
40.20000 5.077
40.24000 5.999
40.28000 5.054
40.32000 6.023
40.36000 4.045
40.40000 0.000
40.44000 1.976
40.48000 3.020
40.52000 6.051
40.56000 6.128
40.60000 7.133
40.64000 3.023
40.68000 3.013
40.72000 7.140
40.76000 6.065
40.80000 5.027
40.84000 1.999
40.88000 2.047
40.92000 3.039
40.96000 4.061
41.00000 3.055
41.04000 2.997
41.08000 6.189
41.12000 6.037
41.16000 8.056
41.20000 10.105
41.24000 8.193
41.28000 3.035
41.32000 7.055
41.36000 5.072
41.40000 4.032
41.44000 0.000
41.48000 2.065
41.52000 6.056
41.56000 2.032
41.60000 6.122
41.64000 3.090
41.68000 6.039
41.72000 6.008
41.76000 3.077
41.80000 3.063
41.84000 7.146
41.88000 2.000
41.92000 7.010
41.96000 3.058
42.00000 3.014
42.04000 5.162
42.08000 2.988
42.12000 3.054
42.16000 5.113
42.20000 7.093
42.24000 6.124
42.28000 4.020
42.32000 6.158
42.36000 0.000
42.40000 4.080
42.44000 4.130
42.48000 5.032
42.52000 3.949
42.56000 7.114
42.60000 2.070
42.64000 3.088
42.68000 3.030
42.72000 1.082
42.76000 0.995
42.80000 6.079
42.84000 5.028
42.88000 3.060
42.92000 8.146
42.96000 3.965
43.00000 3.061
43.04000 5.168
43.08000 3.090
43.12000 6.998
43.16000 0.988
43.20000 7.147
43.24000 2.063
43.28000 2.046
43.32000 5.063
43.36000 4.041
43.40000 4.059
43.44000 7.062
43.48000 3.047
43.52000 5.127
43.56000 6.144
43.60000 2.035
43.64000 4.981
43.68000 3.951
43.72000 0.000
43.76000 3.080
43.80000 1.094
43.84000 4.097
43.88000 3.014
43.92000 4.046
43.96000 7.111
44.00000 6.020
44.04000 4.076
44.08000 6.058
44.12000 2.964
44.16000 5.062
44.20000 3.007
44.24000 3.065
44.28000 0.000
44.32000 3.001
44.36000 2.043
44.40000 5.030
44.44000 3.035
44.48000 8.075
44.52000 3.965
44.56000 3.992
44.60000 2.010
44.64000 5.039
44.68000 1.983
44.72000 3.053
44.76000 2.009
44.80000 2.016
44.84000 3.032
44.88000 5.125
44.92000 3.037
44.96000 2.982
45.00000 3.007
45.04000 3.096
45.08000 2.011
45.12000 2.015
45.16000 4.026
45.20000 3.077
45.24000 2.029
45.28000 3.035
45.32000 5.072
45.36000 3.003
45.40000 2.020
45.44000 1.064
45.48000 6.108
45.52000 6.111
45.56000 3.045
45.60000 0.994
45.64000 1.993
45.68000 0.000
45.72000 1.003
45.76000 5.100
45.80000 10.124
45.84000 3.011
45.88000 4.101
45.92000 4.018
45.96000 4.001
46.00000 3.051
46.04000 3.094
46.08000 6.079
46.12000 4.077
46.16000 3.032
46.20000 2.987
46.24000 2.029
46.28000 1.029
46.32000 4.031
46.36000 2.986
46.40000 5.080
46.44000 1.997
46.48000 2.997
46.52000 4.059
46.56000 0.978
46.60000 5.134
46.64000 3.044
46.68000 0.000
46.72000 6.156
46.76000 3.049
46.80000 4.012
46.84000 2.021
46.88000 2.019
46.92000 3.039
46.96000 0.000
47.00000 3.062
47.04000 0.000
47.08000 2.995
47.12000 3.053
47.16000 1.980
47.20000 3.005
47.24000 3.061
47.28000 4.050
47.32000 7.131
47.36000 3.057
47.40000 3.019
47.44000 2.041
47.48000 5.131
47.52000 6.096
47.56000 0.000
47.60000 3.988
47.64000 3.079
47.68000 3.987
47.72000 2.048
47.76000 4.093
47.80000 4.051
47.84000 2.029
47.88000 4.021
47.92000 3.116
47.96000 4.114
48.00000 3.070
48.04000 2.036
48.08000 3.018
48.12000 5.038
48.16000 2.030
48.20000 2.037
48.24000 3.057
48.28000 1.979
48.32000 1.982
48.36000 1.019
48.40000 1.984
48.44000 0.000
48.48000 1.008
48.52000 4.072
48.56000 5.156
48.60000 5.082
48.64000 2.014
48.68000 2.004
48.72000 3.059
48.76000 3.041
48.80000 3.022
48.84000 4.060
48.88000 4.107
48.92000 2.021
48.96000 4.139
49.00000 3.040
49.04000 4.085
49.08000 3.957
49.12000 2.022
49.16000 5.007
49.20000 4.080
49.24000 1.017
49.28000 2.988
49.32000 3.020
49.36000 6.033
49.40000 0.000
49.44000 4.065
49.48000 0.996
49.52000 4.018
49.56000 5.066
49.60000 5.017
49.64000 0.000
49.68000 3.071
49.72000 3.010
49.76000 2.072
49.80000 2.060
49.84000 3.104
49.88000 6.993
49.92000 4.119
49.96000 2.018
50.00000 3.063
50.04000 2.996
50.08000 2.009
50.12000 3.984
50.16000 2.001
50.20000 2.046
50.24000 4.047
50.28000 4.037
50.32000 3.042
50.36000 3.066
50.40000 2.044
50.44000 6.028
50.48000 3.003
50.52000 2.992
50.56000 4.016
50.60000 0.000
50.64000 1.982
50.68000 3.006
50.72000 2.066
50.76000 4.044
50.80000 5.069
50.84000 2.046
50.88000 4.935
50.92000 3.048
50.96000 6.014
51.00000 7.932
51.04000 2.981
51.08000 7.138
51.12000 5.092
51.16000 4.004
51.20000 1.021
51.24000 3.051
51.28000 3.034
51.32000 2.995
51.36000 2.986
51.40000 5.147
51.44000 3.099
51.48000 4.018
51.52000 4.022
51.56000 3.003
51.60000 1.982
51.64000 3.943
51.68000 4.154
51.72000 5.093
51.76000 0.991
51.80000 2.031
51.84000 2.065
51.88000 4.035
51.92000 2.036
51.96000 2.986
52.00000 0.987
52.04000 6.036
52.08000 1.986
52.12000 2.003
52.16000 2.998
52.20000 3.084
52.24000 3.053
52.28000 3.095
52.32000 4.072
52.36000 2.063
52.40000 7.144
52.44000 3.037
52.48000 2.029
52.52000 2.072
52.56000 4.023
52.60000 4.108
52.64000 4.006
52.68000 2.070
52.72000 2.974
52.76000 1.007
52.80000 3.048
52.84000 2.972
52.88000 4.065
52.92000 2.074
52.96000 5.004
53.00000 5.016
53.04000 4.025
53.08000 4.126
53.12000 7.047
53.16000 0.990
53.20000 2.017
53.24000 1.020
53.28000 2.019
53.32000 0.000
53.36000 3.061
53.40000 2.998
53.44000 3.036
53.48000 1.060
53.52000 3.059
53.56000 1.009
53.60000 2.006
53.64000 2.022
53.68000 0.994
53.72000 1.963
53.76000 0.000
53.80000 0.996
53.84000 1.008
53.88000 3.999
53.92000 2.006
53.96000 1.003
54.00000 1.016
54.04000 3.032
54.08000 0.981
54.12000 2.987
54.16000 3.005
54.20000 3.004
54.24000 3.057
54.28000 0.993
54.32000 1.040
54.36000 1.004
54.40000 4.007
54.44000 2.031
54.48000 5.145
54.52000 3.055
54.56000 2.063
54.60000 0.999
54.64000 3.056
54.68000 6.070
54.72000 0.980
54.76000 0.986
54.80000 0.000
54.84000 1.991
54.88000 2.068
54.92000 3.100
54.96000 3.004
55.00000 2.995
55.04000 1.021
55.08000 0.993
55.12000 1.973
55.16000 3.023
55.20000 4.073
55.24000 0.000
55.28000 2.010
55.32000 1.037
55.36000 1.012
55.40000 2.010
55.44000 0.000
55.48000 0.000
55.52000 3.057
55.56000 5.121
55.60000 2.082
55.64000 0.000
55.68000 1.029
55.72000 2.065
55.76000 3.086
55.80000 1.034
55.84000 4.001
55.88000 1.047
55.92000 3.005
55.96000 1.003
56.00000 1.018
56.04000 8.055
56.08000 0.990
56.12000 1.033
56.16000 4.083
56.20000 4.084
56.24000 3.001
56.28000 3.001
56.32000 5.229
56.36000 1.961
56.40000 2.042
56.44000 0.000
56.48000 0.997
56.52000 2.078
56.56000 1.009
56.60000 0.000
56.64000 2.008
56.68000 0.000
56.72000 3.016
56.76000 0.992
56.80000 2.024
56.84000 2.973
56.88000 1.022
56.92000 2.083
56.96000 4.024
57.00000 4.037
57.04000 1.996
57.08000 3.024
57.12000 4.947
57.16000 3.018
57.20000 1.021
57.24000 4.077
57.28000 7.115
57.32000 3.011
57.36000 3.042
57.40000 1.002
57.44000 1.045
57.48000 2.018
57.52000 3.074
57.56000 1.014
57.60000 1.007
57.64000 1.082
57.68000 2.138
57.72000 0.000
57.76000 4.047
57.80000 2.042
57.84000 3.984
57.88000 4.076
57.92000 0.998
57.96000 2.051
58.00000 3.027
58.04000 0.992
58.08000 1.069
58.12000 1.026
58.16000 3.052
58.20000 4.066
58.24000 4.045
58.28000 2.062
58.32000 4.985
58.36000 2.002
58.40000 5.064
58.44000 2.033
58.48000 2.001
58.52000 2.062
58.56000 3.001
58.60000 4.099
58.64000 5.133
58.68000 0.999
58.72000 2.028
58.76000 2.072
58.80000 2.029
58.84000 1.024
58.88000 2.011
58.92000 0.000
58.96000 4.025
59.00000 1.003
59.04000 2.037
59.08000 5.060
59.12000 2.077
59.16000 0.988
59.20000 1.997
59.24000 0.000
59.28000 0.000
59.32000 1.978
59.36000 2.012
59.40000 3.102
59.44000 5.081
59.48000 3.065
59.52000 4.068
59.56000 2.055
59.60000 1.041
59.64000 1.028
59.68000 1.989
59.72000 3.060
59.76000 0.000
59.80000 0.000
59.84000 2.016
59.88000 4.090
59.92000 4.002
59.96000 3.070
60.00000 0.000
60.04000 4.112
60.08000 2.987
60.12000 1.012
60.16000 1.982
60.20000 2.033
60.24000 5.045
60.28000 3.039
60.32000 0.995
60.36000 0.000
60.40000 3.014
60.44000 0.000
60.48000 2.002
60.52000 6.004
60.56000 0.000
60.60000 2.030
60.64000 6.192
60.68000 1.022
60.72000 1.015
60.76000 5.001
60.80000 1.037
60.84000 0.997
60.88000 2.001
60.92000 3.027
60.96000 0.990
61.00000 3.044
61.04000 0.000
61.08000 2.017
61.12000 3.024
61.16000 0.000
61.20000 1.985
61.24000 6.038
61.28000 1.048
61.32000 1.002
61.36000 1.028
61.40000 3.065
61.44000 1.053
61.48000 4.002
61.52000 4.087
61.56000 1.012
61.60000 0.984
61.64000 1.985
61.68000 3.979
61.72000 2.032
61.76000 1.002
61.80000 0.000
61.84000 4.060
61.88000 3.009
61.92000 0.000
61.96000 2.979
62.00000 0.997
62.04000 2.000
62.08000 3.007
62.12000 0.000
62.16000 6.052
62.20000 4.005
62.24000 2.032
62.28000 2.013
62.32000 1.006
62.36000 2.976
62.40000 6.973
62.44000 2.003
62.48000 1.989
62.52000 0.000
62.56000 1.995
62.60000 2.065
62.64000 2.000
62.68000 4.017
62.72000 0.000
62.76000 1.008
62.80000 0.000
62.84000 2.958
62.88000 2.973
62.92000 1.017
62.96000 2.969
63.00000 3.019
63.04000 1.048
63.08000 1.004
63.12000 1.026
63.16000 1.044
63.20000 0.000
63.24000 1.007
63.28000 2.082
63.32000 2.029
63.36000 2.053
63.40000 3.012
63.44000 4.010
63.48000 1.986
63.52000 3.084
63.56000 2.002
63.60000 3.020
63.64000 3.064
63.68000 1.011
63.72000 3.044
63.76000 3.067
63.80000 2.045
63.84000 2.996
63.88000 1.046
63.92000 1.980
63.96000 1.051
64.00000 3.044
64.04000 0.000
64.08000 3.123
64.12000 0.990
64.16000 0.000
64.20000 3.992
64.24000 2.018
64.28000 1.025
64.32000 0.000
64.36000 2.043
64.40000 3.089
64.44000 1.020
64.48000 1.028
64.52000 0.000
64.56000 4.009
64.60000 2.031
64.64000 3.011
64.68000 1.975
64.72000 3.000
64.76000 1.981
64.80000 4.023
64.84000 1.035
64.88000 3.068
64.92000 3.048
64.96000 3.014
65.00000 0.000