File: XRD/XRD/11-09-2025/XY Data/01092025_BTO_omega_1_001_33_-50-000_0-000.xy
20.00000 11.264
20.04000 11.127
20.08000 8.166
20.12000 10.035
20.16000 16.021
20.20000 11.127
20.24000 6.086
20.28000 13.246
20.32000 10.125
20.36000 16.182
20.40000 16.202
20.44000 12.219
20.48000 18.158
20.52000 18.379
20.56000 5.057
20.60000 7.143
20.64000 15.226
20.68000 14.172
20.72000 12.283
20.76000 9.152
20.80000 9.020
20.84000 14.116
20.88000 13.145
20.92000 13.328
20.96000 10.195
21.00000 6.124
21.04000 17.308
21.08000 6.061
21.12000 12.261
21.16000 10.168
21.20000 12.271
21.24000 11.053
21.28000 14.090
21.32000 13.103
21.36000 10.076
21.40000 14.265
21.44000 14.106
21.48000 8.233
21.52000 9.170
21.56000 13.075
21.60000 14.254
21.64000 7.065
21.68000 12.102
21.72000 11.207
21.76000 8.133
21.80000 8.199
21.84000 8.075
21.88000 13.162
21.92000 6.090
21.96000 11.237
22.00000 4.065
22.04000 11.129
22.08000 10.151
22.12000 3.968
22.16000 12.173
22.20000 14.110
22.24000 11.294
22.28000 8.060
22.32000 6.076
22.36000 6.072
22.40000 8.127
22.44000 2.995
22.48000 7.025
22.52000 6.056
22.56000 5.061
22.60000 3.018
22.64000 12.212
22.68000 10.263
22.72000 8.126
22.76000 7.029
22.80000 8.073
22.84000 7.070
22.88000 5.090
22.92000 11.235
22.96000 9.093
23.00000 9.048
23.04000 5.967
23.08000 7.163
23.12000 5.119
23.16000 5.049
23.20000 14.264
23.24000 11.220
23.28000 9.203
23.32000 6.087
23.36000 5.017
23.40000 3.103
23.44000 7.125
23.48000 5.050
23.52000 6.108
23.56000 9.264
23.60000 3.082
23.64000 7.075
23.68000 9.151
23.72000 8.102
23.76000 9.082
23.80000 12.074
23.84000 6.032
23.88000 6.145
23.92000 7.128
23.96000 12.146
24.00000 7.038
24.04000 5.006
24.08000 12.190
24.12000 7.141
24.16000 12.241
24.20000 5.164
24.24000 4.172
24.28000 5.031
24.32000 6.073
24.36000 12.227
24.40000 7.056
24.44000 6.072
24.48000 7.047
24.52000 4.981
24.56000 12.062
24.60000 7.183
24.64000 14.165
24.68000 8.028
24.72000 9.214
24.76000 7.120
24.80000 8.111
24.84000 5.180
24.88000 3.031
24.92000 12.306
24.96000 8.042
25.00000 9.125
25.04000 15.150
25.08000 11.136
25.12000 10.090
25.16000 4.073
25.20000 7.047
25.24000 4.066
25.28000 9.060
25.32000 9.172
25.36000 3.983
25.40000 8.129
25.44000 8.018
25.48000 10.159
25.52000 9.185
25.56000 6.112
25.60000 8.088
25.64000 11.040
25.68000 4.042
25.72000 7.177
25.76000 9.164
25.80000 0.987
25.84000 7.027
25.88000 9.011
25.92000 6.300
25.96000 6.003
26.00000 8.041
26.04000 3.099
26.08000 3.078
26.12000 6.981
26.16000 7.194
26.20000 4.092
26.24000 11.063
26.28000 7.015
26.32000 7.087
26.36000 8.046
26.40000 3.017
26.44000 5.047
26.48000 6.143
26.52000 5.129
26.56000 6.195
26.60000 1.020
26.64000 12.075
26.68000 7.036
26.72000 4.038
26.76000 7.072
26.80000 3.987
26.84000 9.018
26.88000 9.199
26.92000 9.198
26.96000 13.181
27.00000 1.987
27.04000 3.097
27.08000 5.054
27.12000 8.176
27.16000 5.172
27.20000 4.041
27.24000 9.064
27.28000 7.097
27.32000 9.196
27.36000 6.099
27.40000 12.325
27.44000 3.044
27.48000 7.131
27.52000 6.029
27.56000 5.076
27.60000 5.066
27.64000 9.065
27.68000 9.230
27.72000 2.017
27.76000 5.081
27.80000 7.156
27.84000 1.997
27.88000 7.103
27.92000 2.019
27.96000 11.173
28.00000 8.055
28.04000 7.049
28.08000 3.994
28.12000 3.017
28.16000 15.123
28.20000 5.048
28.24000 7.151
28.28000 4.040
28.32000 2.999
28.36000 8.224
28.40000 0.998
28.44000 7.091
28.48000 6.132
28.52000 9.140
28.56000 5.981
28.60000 7.031
28.64000 5.028
28.68000 3.061
28.72000 10.284
28.76000 6.054
28.80000 7.156
28.84000 5.100
28.88000 13.361
28.92000 5.028
28.96000 8.073
29.00000 1.987
29.04000 6.153
29.08000 4.167
29.12000 2.980
29.16000 2.031
29.20000 5.030
29.24000 4.002
29.28000 1.000
29.32000 5.148
29.36000 4.092
29.40000 6.153
29.44000 9.127
29.48000 2.042
29.52000 8.114
29.56000 4.024
29.60000 5.112
29.64000 3.065
29.68000 4.986
29.72000 1.964
29.76000 2.031
29.80000 6.150
29.84000 8.012
29.88000 2.037
29.92000 4.141
29.96000 4.959
30.00000 6.035
30.04000 4.998
30.08000 1.060
30.12000 4.037
30.16000 13.234
30.20000 2.998
30.24000 8.179
30.28000 6.145
30.32000 1.001
30.36000 6.123
30.40000 8.079
30.44000 8.077
30.48000 4.002
30.52000 0.000
30.56000 4.058
30.60000 5.052
30.64000 2.049
30.68000 4.063
30.72000 0.000
30.76000 4.028
30.80000 5.032
30.84000 4.033
30.88000 5.019
30.92000 3.002
30.96000 4.133
31.00000 1.997
31.04000 6.025
31.08000 4.982
31.12000 8.143
31.16000 1.018
31.20000 2.977
31.24000 3.080
31.28000 5.163
31.32000 7.965
31.36000 7.079
31.40000 3.036
31.44000 2.066
31.48000 4.025
31.52000 6.079
31.56000 2.038
31.60000 5.135
31.64000 2.995
31.68000 2.023
31.72000 11.031
31.76000 2.027
31.80000 3.045
31.84000 6.116
31.88000 5.108
31.92000 4.098
31.96000 4.156
32.00000 7.156
32.04000 6.156
32.08000 1.009
32.12000 1.997
32.16000 4.056
32.20000 7.132
32.24000 7.067
32.28000 2.041
32.32000 8.012
32.36000 4.007
32.40000 5.116
32.44000 3.095
32.48000 2.012
32.52000 9.114
32.56000 4.044
32.60000 5.028
32.64000 4.017
32.68000 4.073
32.72000 7.153
32.76000 0.981
32.80000 3.973
32.84000 6.140
32.88000 2.062
32.92000 2.047
32.96000 5.025
33.00000 4.035
33.04000 3.101
33.08000 4.068
33.12000 3.038
33.16000 4.011
33.20000 5.110
33.24000 2.077
33.28000 13.069
33.32000 3.004
33.36000 3.008
33.40000 3.028
33.44000 2.084
33.48000 4.113
33.52000 7.051
33.56000 3.039
33.60000 3.032
33.64000 5.076
33.68000 3.027
33.72000 2.014
33.76000 1.000
33.80000 4.058
33.84000 1.007
33.88000 7.147
33.92000 2.035
33.96000 3.018
34.00000 5.077
34.04000 3.154
34.08000 1.027
34.12000 6.067
34.16000 3.020
34.20000 1.050
34.24000 9.129
34.28000 2.956
34.32000 0.975
34.36000 3.080
34.40000 5.114
34.44000 4.968
34.48000 3.104
34.52000 0.988
34.56000 2.994
34.60000 5.056
34.64000 2.006
34.68000 0.983
34.72000 4.119
34.76000 7.156
34.80000 3.053
34.84000 3.029
34.88000 6.160
34.92000 3.006
34.96000 5.074
35.00000 2.034
35.04000 0.974
35.08000 4.055
35.12000 3.017
35.16000 1.955
35.20000 5.120
35.24000 3.060
35.28000 2.071
35.32000 4.071
35.36000 3.036
35.40000 2.010
35.44000 5.112
35.48000 6.077
35.52000 0.974
35.56000 5.000
35.60000 1.017
35.64000 3.013
35.68000 2.988
35.72000 1.009
35.76000 1.045
35.80000 2.016
35.84000 2.059
35.88000 2.047
35.92000 0.974
35.96000 2.099
36.00000 7.073
36.04000 4.045
36.08000 4.042
36.12000 1.980
36.16000 6.086
36.20000 1.019
36.24000 2.022
36.28000 3.972
36.32000 3.031
36.36000 4.037
36.40000 3.033
36.44000 2.069
36.48000 3.009
36.52000 1.988
36.56000 2.999
36.60000 4.168
36.64000 2.019
36.68000 4.086
36.72000 4.982
36.76000 0.983
36.80000 6.051
36.84000 0.000
36.88000 2.004
36.92000 1.074
36.96000 3.023
37.00000 5.028
37.04000 1.067
37.08000 2.017
37.12000 6.135
37.16000 2.059
37.20000 0.999
37.24000 4.062
37.28000 3.038
37.32000 5.134
37.36000 2.064
37.40000 2.011
37.44000 1.033
37.48000 3.016
37.52000 1.987
37.56000 3.002
37.60000 2.051
37.64000 6.124
37.68000 4.090
37.72000 3.117
37.76000 1.055
37.80000 4.087
37.84000 5.109
37.88000 1.019
37.92000 3.104
37.96000 2.046
38.00000 2.081
38.04000 0.000
38.08000 4.049
38.12000 3.056
38.16000 2.987
38.20000 8.137
38.24000 0.987
38.28000 7.198
38.32000 3.998
38.36000 0.990
38.40000 3.029
38.44000 1.982
38.48000 1.005
38.52000 2.041
38.56000 3.049
38.60000 4.034
38.64000 4.065
38.68000 1.992
38.72000 2.036
38.76000 5.056
38.80000 4.000
38.84000 2.092
38.88000 0.984
38.92000 2.015
38.96000 4.098
39.00000 6.161
39.04000 0.000
39.08000 1.028
39.12000 3.033
39.16000 3.027
39.20000 5.053
39.24000 0.000
39.28000 1.973
39.32000 1.018
39.36000 5.093
39.40000 2.023
39.44000 4.057
39.48000 1.960
39.52000 0.000
39.56000 5.106
39.60000 2.020
39.64000 4.068
39.68000 3.072
39.72000 4.027
39.76000 5.033
39.80000 1.031
39.84000 1.983
39.88000 0.975
39.92000 4.077
39.96000 3.061
40.00000 6.124
40.04000 4.033
40.08000 4.026
40.12000 3.077
40.16000 3.000
40.20000 2.001
40.24000 2.021
40.28000 4.037
40.32000 2.015
40.36000 4.105
40.40000 6.098
40.44000 2.011
40.48000 5.098
40.52000 2.025
40.56000 2.005
40.60000 4.127
40.64000 4.010
40.68000 4.012
40.72000 5.062
40.76000 5.056
40.80000 0.000
40.84000 3.009
40.88000 5.083
40.92000 3.100
40.96000 0.000
41.00000 3.020
41.04000 3.083
41.08000 0.990
41.12000 0.000
41.16000 3.084
41.20000 2.069
41.24000 2.078
41.28000 3.049
41.32000 7.225
41.36000 4.084
41.40000 1.994
41.44000 3.031
41.48000 4.072
41.52000 4.012
41.56000 2.029
41.60000 0.993
41.64000 2.052
41.68000 2.024
41.72000 5.038
41.76000 1.999
41.80000 2.044
41.84000 1.005
41.88000 1.026
41.92000 1.041
41.96000 5.089
42.00000 5.029
42.04000 2.027
42.08000 2.009
42.12000 3.029
42.16000 7.200
42.20000 1.986
42.24000 4.025
42.28000 3.031
42.32000 3.041
42.36000 2.044
42.40000 4.032
42.44000 5.016
42.48000 0.000
42.52000 4.000
42.56000 4.099
42.60000 2.063
42.64000 4.060
42.68000 0.000
42.72000 1.995
42.76000 3.098
42.80000 0.995
42.84000 5.111
42.88000 1.021
42.92000 3.017
42.96000 0.000
43.00000 3.111
43.04000 1.010
43.08000 1.987
43.12000 3.065
43.16000 2.046
43.20000 4.007
43.24000 3.009
43.28000 1.992
43.32000 2.034
43.36000 5.046
43.40000 6.022
43.44000 2.964
43.48000 2.005
43.52000 4.051
43.56000 1.976
43.60000 3.037
43.64000 4.080
43.68000 4.999
43.72000 2.045
43.76000 1.050
43.80000 0.000
43.84000 4.062
43.88000 3.059
43.92000 2.012
43.96000 3.027
44.00000 5.038
44.04000 5.083
44.08000 4.031
44.12000 1.002
44.16000 4.064
44.20000 3.051
44.24000 2.048
44.28000 5.086
44.32000 2.939
44.36000 2.016
44.40000 2.047
44.44000 3.031
44.48000 6.045
44.52000 5.121
44.56000 3.087
44.60000 3.013
44.64000 2.018
44.68000 2.961
44.72000 0.982
44.76000 4.049
44.80000 2.020
44.84000 3.005
44.88000 1.004
44.92000 1.977
44.96000 4.102
45.00000 2.029
45.04000 0.989
45.08000 1.032
45.12000 0.994
45.16000 5.039
45.20000 0.991
45.24000 3.035
45.28000 0.998
45.32000 0.996
45.36000 3.149
45.40000 2.040
45.44000 2.025
45.48000 3.961
45.52000 3.023
45.56000 1.010
45.60000 3.089
45.64000 0.983
45.68000 3.046
45.72000 0.991
45.76000 2.017
45.80000 3.037
45.84000 4.047
45.88000 1.022
45.92000 4.003
45.96000 2.965
46.00000 3.062
46.04000 4.070
46.08000 2.071
46.12000 4.025
46.16000 2.011
46.20000 2.989
46.24000 4.115
46.28000 1.006
46.32000 3.071
46.36000 2.978
46.40000 1.975
46.44000 2.050
46.48000 0.000
46.52000 2.124
46.56000 5.091
46.60000 1.019
46.64000 7.139
46.68000 2.015
46.72000 6.034
46.76000 2.030
46.80000 3.033
46.84000 0.000
46.88000 4.096
46.92000 4.017
46.96000 1.016
47.00000 2.028
47.04000 1.031
47.08000 1.006
47.12000 4.059
47.16000 5.122
47.20000 3.069
47.24000 0.992
47.28000 0.000
47.32000 3.048
47.36000 2.019
47.40000 2.000
47.44000 4.049
47.48000 4.036
47.52000 1.997
47.56000 3.083
47.60000 3.101
47.64000 3.014
47.68000 3.019
47.72000 3.060
47.76000 7.163
47.80000 6.047
47.84000 5.077
47.88000 2.012
47.92000 2.071
47.96000 4.030
48.00000 1.064
48.04000 0.000
48.08000 4.092
48.12000 3.051
48.16000 2.007
48.20000 2.014
48.24000 2.027
48.28000 2.012
48.32000 6.038
48.36000 3.040
48.40000 4.017
48.44000 0.996
48.48000 2.025
48.52000 4.082
48.56000 6.076
48.60000 3.001
48.64000 1.005
48.68000 3.947
48.72000 4.082
48.76000 2.051
48.80000 1.008
48.84000 3.020
48.88000 1.022
48.92000 0.000
48.96000 2.054
49.00000 5.099
49.04000 3.075
49.08000 2.965
49.12000 1.012
49.16000 2.998
49.20000 1.016
49.24000 0.000
49.28000 3.010
49.32000 3.028
49.36000 10.182
49.40000 2.109
49.44000 4.019
49.48000 3.027
49.52000 3.986
49.56000 1.040
49.60000 3.060
49.64000 0.000
49.68000 2.014
49.72000 8.081
49.76000 2.073
49.80000 2.051
49.84000 1.018
49.88000 1.004
49.92000 2.057
49.96000 7.142
50.00000 5.070
50.04000 3.055
50.08000 1.047
50.12000 0.000
50.16000 4.073
50.20000 1.996
50.24000 1.017
50.28000 2.975
50.32000 0.000
50.36000 5.077
50.40000 3.018
50.44000 4.048
50.48000 2.000
50.52000 3.073
50.56000 0.000
50.60000 4.150
50.64000 2.052
50.68000 2.017
50.72000 5.026
50.76000 0.000
50.80000 4.001
50.84000 1.008
50.88000 2.044
50.92000 2.023
50.96000 7.006
51.00000 2.017
51.04000 1.044
51.08000 4.047
51.12000 5.029
51.16000 2.039
51.20000 2.010
51.24000 4.131
51.28000 3.046
51.32000 4.040
51.36000 1.002
51.40000 3.083
51.44000 4.052
51.48000 3.150
51.52000 1.988
51.56000 2.052
51.60000 0.999
51.64000 4.073
51.68000 0.000
51.72000 1.985
51.76000 4.037
51.80000 0.994
51.84000 2.028
51.88000 4.021
51.92000 3.013
51.96000 3.013
52.00000 5.125
52.04000 5.046
52.08000 2.061
52.12000 2.040
52.16000 6.050
52.20000 2.003
52.24000 2.011
52.28000 3.053
52.32000 1.989
52.36000 3.086
52.40000 4.080
52.44000 0.000
52.48000 1.025
52.52000 0.998
52.56000 4.169
52.60000 4.146
52.64000 2.012
52.68000 4.169
52.72000 2.952
52.76000 5.234
52.80000 1.040
52.84000 2.099
52.88000 3.019
52.92000 5.040
52.96000 3.079
53.00000 3.079
53.04000 1.984
53.08000 4.116
53.12000 3.067
53.16000 3.111
53.20000 3.014
53.24000 2.003
53.28000 1.996
53.32000 6.090
53.36000 3.019
53.40000 3.103
53.44000 1.986
53.48000 1.039
53.52000 5.080
53.56000 1.010
53.60000 5.073
53.64000 6.063
53.68000 5.133
53.72000 6.070
53.76000 3.042
53.80000 2.005
53.84000 7.071
53.88000 1.033
53.92000 4.020
53.96000 9.272
54.00000 0.000
54.04000 7.126
54.08000 2.968
54.12000 0.000
54.16000 1.017
54.20000 2.984
54.24000 6.038
54.28000 2.074
54.32000 4.057
54.36000 3.042
54.40000 1.024
54.44000 3.056
54.48000 5.077
54.52000 5.143
54.56000 1.063
54.60000 4.011
54.64000 4.962
54.68000 1.994
54.72000 3.016
54.76000 2.019
54.80000 2.016
54.84000 5.164
54.88000 4.021
54.92000 1.043
54.96000 0.988
55.00000 4.056
55.04000 2.137
55.08000 1.032
55.12000 3.039
55.16000 3.044
55.20000 0.000
55.24000 4.055
55.28000 5.083
55.32000 5.057
55.36000 3.087
55.40000 4.060
55.44000 2.098
55.48000 0.000
55.52000 1.018
55.56000 3.026
55.60000 0.980
55.64000 1.004
55.68000 1.010
55.72000 0.997
55.76000 5.070
55.80000 7.069
55.84000 1.978
55.88000 2.007
55.92000 3.026
55.96000 0.980
56.00000 6.141
56.04000 3.035
56.08000 4.022
56.12000 3.049
56.16000 2.026
56.20000 3.019
56.24000 3.085
56.28000 0.995
56.32000 2.029
56.36000 2.003
56.40000 3.096
56.44000 2.068
56.48000 0.995
56.52000 0.000
56.56000 2.049
56.60000 2.052
56.64000 0.000
56.68000 0.000
56.72000 3.038
56.76000 1.010
56.80000 0.000
56.84000 5.127
56.88000 3.052
56.92000 2.003
56.96000 3.028
57.00000 0.979
57.04000 0.986
57.08000 2.016
57.12000 4.951
57.16000 0.000
57.20000 1.027
57.24000 5.086
57.28000 2.993
57.32000 2.059
57.36000 1.031
57.40000 3.029
57.44000 5.028
57.48000 3.067
57.52000 4.060
57.56000 0.000
57.60000 3.018
57.64000 6.192
57.68000 3.036
57.72000 4.020
57.76000 1.985
57.80000 0.989
57.84000 0.000
57.88000 3.040
57.92000 2.000
57.96000 3.112
58.00000 1.010
58.04000 3.092
58.08000 1.987
58.12000 2.026
58.16000 4.053
58.20000 1.043
58.24000 1.033
58.28000 3.007
58.32000 3.998
58.36000 0.000
58.40000 0.000
58.44000 1.048
58.48000 2.045
58.52000 7.087
58.56000 2.111
58.60000 0.985
58.64000 2.982
58.68000 2.030
58.72000 2.058
58.76000 2.006
58.80000 4.054
58.84000 0.999
58.88000 1.003
58.92000 0.993
58.96000 0.990
59.00000 1.037
59.04000 1.995
59.08000 1.010
59.12000 2.062
59.16000 0.993
59.20000 5.067
59.24000 2.001
59.28000 1.000
59.32000 1.070
59.36000 1.977
59.40000 1.009
59.44000 2.079
59.48000 3.051
59.52000 1.007
59.56000 2.074
59.60000 4.055
59.64000 2.088
59.68000 2.037
59.72000 2.002
59.76000 3.991
59.80000 0.000
59.84000 3.980
59.88000 0.995
59.92000 3.034
59.96000 1.042
60.00000 1.056
60.04000 2.047
60.08000 0.000
60.12000 0.000
60.16000 0.000
60.20000 3.041
60.24000 2.997
60.28000 0.000
60.32000 1.993
60.36000 2.077
60.40000 1.001
60.44000 3.054
60.48000 3.063
60.52000 0.999
60.56000 1.006
60.60000 0.000
60.64000 0.000
60.68000 1.018
60.72000 2.036
60.76000 2.015
60.80000 1.024
60.84000 1.018
60.88000 2.021
60.92000 0.000
60.96000 2.082
61.00000 2.081
61.04000 0.995
61.08000 0.988
61.12000 0.994
61.16000 1.997
61.20000 0.000
61.24000 1.036
61.28000 2.984
61.32000 4.053
61.36000 3.009
61.40000 1.973
61.44000 3.043
61.48000 4.013
61.52000 2.050
61.56000 3.026
61.60000 0.000
61.64000 1.016
61.68000 2.954
61.72000 1.016
61.76000 2.009
61.80000 2.001
61.84000 3.131
61.88000 0.990
61.92000 4.063
61.96000 1.024
62.00000 0.982
62.04000 3.044
62.08000 0.000
62.12000 0.991
62.16000 1.013
62.20000 1.036
62.24000 1.021
62.28000 2.002
62.32000 1.018
62.36000 2.053
62.40000 0.990
62.44000 4.041
62.48000 2.041
62.52000 1.047
62.56000 1.043
62.60000 3.025
62.64000 0.982
62.68000 0.993
62.72000 2.033
62.76000 0.977
62.80000 3.008
62.84000 0.000
62.88000 1.038
62.92000 2.972
62.96000 3.023
63.00000 2.040
63.04000 5.088
63.08000 0.000
63.12000 2.039
63.16000 2.033
63.20000 4.021
63.24000 2.024
63.28000 0.997
63.32000 3.084
63.36000 1.028
63.40000 0.974
63.44000 2.047
63.48000 1.023
63.52000 4.097
63.56000 2.980
63.60000 0.000
63.64000 1.022
63.68000 1.048
63.72000 1.977
63.76000 2.092
63.80000 3.066
63.84000 2.052
63.88000 4.980
63.92000 0.000
63.96000 2.997
64.00000 1.012
64.04000 5.032
64.08000 2.032
64.12000 1.031
64.16000 1.008
64.20000 3.115
64.24000 1.995
64.28000 2.041
64.32000 2.083
64.36000 1.040
64.40000 1.006
64.44000 0.995
64.48000 0.000
64.52000 4.113
64.56000 0.000
64.60000 2.066
64.64000 0.000
64.68000 0.000
64.72000 0.000
64.76000 1.057
64.80000 0.000
64.84000 3.063
64.88000 1.020
64.92000 3.080
64.96000 0.000
65.00000 3.103