File: XRD/XRD/11-09-2025/XY Data/01092025_BTO_omega_1_001_40_2-782_12-187.xy
20.00000 14.219
20.04000 18.212
20.08000 25.136
20.12000 12.101
20.16000 17.160
20.20000 20.415
20.24000 25.211
20.28000 15.225
20.32000 17.088
20.36000 21.274
20.40000 22.337
20.44000 9.116
20.48000 19.143
20.52000 33.688
20.56000 17.216
20.60000 18.247
20.64000 20.094
20.68000 11.118
20.72000 14.194
20.76000 18.260
20.80000 23.426
20.84000 21.179
20.88000 14.300
20.92000 22.412
20.96000 30.324
21.00000 17.218
21.04000 25.319
21.08000 14.040
21.12000 16.251
21.16000 20.096
21.20000 14.174
21.24000 20.227
21.28000 16.376
21.32000 26.199
21.36000 31.398
21.40000 16.151
21.44000 26.311
21.48000 25.332
21.52000 17.252
21.56000 15.204
21.60000 24.198
21.64000 24.757
21.68000 16.300
21.72000 19.368
21.76000 21.302
21.80000 22.273
21.84000 22.276
21.88000 23.316
21.92000 28.268
21.96000 21.261
22.00000 17.247
22.04000 23.384
22.08000 22.120
22.12000 32.278
22.16000 31.250
22.20000 20.214
22.24000 32.399
22.28000 13.271
22.32000 18.238
22.36000 17.340
22.40000 20.323
22.44000 24.287
22.48000 17.146
22.52000 21.254
22.56000 33.601
22.60000 17.423
22.64000 20.360
22.68000 22.261
22.72000 23.363
22.76000 22.445
22.80000 26.354
22.84000 18.269
22.88000 19.193
22.92000 20.346
22.96000 17.185
23.00000 23.322
23.04000 16.193
23.08000 28.290
23.12000 31.591
23.16000 26.405
23.20000 31.413
23.24000 18.279
23.28000 23.430
23.32000 27.238
23.36000 34.338
23.40000 17.194
23.44000 18.422
23.48000 30.309
23.52000 23.467
23.56000 28.362
23.60000 22.394
23.64000 25.672
23.68000 23.255
23.72000 31.241
23.76000 26.217
23.80000 24.426
23.84000 26.465
23.88000 23.312
23.92000 24.448
23.96000 34.036
24.00000 32.184
24.04000 23.287
24.08000 25.242
24.12000 20.472
24.16000 23.398
24.20000 31.644
24.24000 36.646
24.28000 29.364
24.32000 26.249
24.36000 23.290
24.40000 28.367
24.44000 22.355
24.48000 31.407
24.52000 15.223
24.56000 28.191
24.60000 36.490
24.64000 33.384
24.68000 29.392
24.72000 20.303
24.76000 28.439
24.80000 39.541
24.84000 24.239
24.88000 32.718
24.92000 44.690
24.96000 27.414
25.00000 29.139
25.04000 36.517
25.08000 25.302
25.12000 30.566
25.16000 35.380
25.20000 29.422
25.24000 33.481
25.28000 33.505
25.32000 34.534
25.36000 39.392
25.40000 21.413
25.44000 42.664
25.48000 33.410
25.52000 29.502
25.56000 34.436
25.60000 45.334
25.64000 42.589
25.68000 41.534
25.72000 28.256
25.76000 37.448
25.80000 42.533
25.84000 47.732
25.88000 37.487
25.92000 37.664
25.96000 40.880
26.00000 43.628
26.04000 45.554
26.08000 32.486
26.12000 36.586
26.16000 46.404
26.20000 53.851
26.24000 38.512
26.28000 56.872
26.32000 46.521
26.36000 42.689
26.40000 29.368
26.44000 52.824
26.48000 49.533
26.52000 41.362
26.56000 40.398
26.60000 42.857
26.64000 47.830
26.68000 33.377
26.72000 39.370
26.76000 35.455
26.80000 36.638
26.84000 44.495
26.88000 42.582
26.92000 36.658
26.96000 65.231
27.00000 38.500
27.04000 52.419
27.08000 54.645
27.12000 53.417
27.16000 51.656
27.20000 54.645
27.24000 34.506
27.28000 46.708
27.32000 46.620
27.36000 47.494
27.40000 44.480
27.44000 57.933
27.48000 48.743
27.52000 36.818
27.56000 55.568
27.60000 52.095
27.64000 46.312
27.68000 48.645
27.72000 43.398
27.76000 50.531
27.80000 57.550
27.84000 40.740
27.88000 48.728
27.92000 38.519
27.96000 52.746
28.00000 43.565
28.04000 44.448
28.08000 37.702
28.12000 33.565
28.16000 49.759
28.20000 55.760
28.24000 46.545
28.28000 39.706
28.32000 38.691
28.36000 50.739
28.40000 61.804
28.44000 32.404
28.48000 38.466
28.52000 47.420
28.56000 50.824
28.60000 47.804
28.64000 39.493
28.68000 43.509
28.72000 51.514
28.76000 39.309
28.80000 34.246
28.84000 32.541
28.88000 44.349
28.92000 33.532
28.96000 36.546
29.00000 44.757
29.04000 44.873
29.08000 49.867
29.12000 37.484
29.16000 42.514
29.20000 43.633
29.24000 42.709
29.28000 54.594
29.32000 46.889
29.36000 38.836
29.40000 50.475
29.44000 45.597
29.48000 42.238
29.52000 39.739
29.56000 51.547
29.60000 25.325
29.64000 33.393
29.68000 35.537
29.72000 29.326
29.76000 44.637
29.80000 43.585
29.84000 36.461
29.88000 38.872
29.92000 39.554
29.96000 34.438
30.00000 24.286
30.04000 37.460
30.08000 30.436
30.12000 33.249
30.16000 27.503
30.20000 31.509
30.24000 41.378
30.28000 33.532
30.32000 35.494
30.36000 27.366
30.40000 25.301
30.44000 36.343
30.48000 28.399
30.52000 42.620
30.56000 29.531
30.60000 41.424
30.64000 35.338
30.68000 30.183
30.72000 24.249
30.76000 19.213
30.80000 33.484
30.84000 20.185
30.88000 20.223
30.92000 26.355
30.96000 25.209
31.00000 15.199
31.04000 22.342
31.08000 20.297
31.12000 31.336
31.16000 27.270
31.20000 23.193
31.24000 31.513
31.28000 23.407
31.32000 25.411
31.36000 21.295
31.40000 34.740
31.44000 32.523
31.48000 37.407
31.52000 16.188
31.56000 23.319
31.60000 30.390
31.64000 22.306
31.68000 24.274
31.72000 22.208
31.76000 23.376
31.80000 19.372
31.84000 18.326
31.88000 14.192
31.92000 18.095
31.96000 28.302
32.00000 26.282
32.04000 24.329
32.08000 31.584
32.12000 26.157
32.16000 14.941
32.20000 17.358
32.24000 23.374
32.28000 32.390
32.32000 28.224
32.36000 25.434
32.40000 29.638
32.44000 25.517
32.48000 32.446
32.52000 25.230
32.56000 23.447
32.60000 28.295
32.64000 23.133
32.68000 18.096
32.72000 28.259
32.76000 24.392
32.80000 27.584
32.84000 24.406
32.88000 13.266
32.92000 17.355
32.96000 21.385
33.00000 20.215
33.04000 21.214
33.08000 26.355
33.12000 18.446
33.16000 18.322
33.20000 20.375
33.24000 16.390
33.28000 15.131
33.32000 20.197
33.36000 14.144
33.40000 17.305
33.44000 20.228
33.48000 19.168
33.52000 20.272
33.56000 13.249
33.60000 23.259
33.64000 21.318
33.68000 22.411
33.72000 14.054
33.76000 15.118
33.80000 10.297
33.84000 16.397
33.88000 13.074
33.92000 21.183
33.96000 12.109
34.00000 25.339
34.04000 8.238
34.08000 11.967
34.12000 12.178
34.16000 18.356
34.20000 11.205
34.24000 8.116
34.28000 15.218
34.32000 24.339
34.36000 17.114
34.40000 11.064
34.44000 9.987
34.48000 13.089
34.52000 20.341
34.56000 19.131
34.60000 16.120
34.64000 9.118
34.68000 18.261
34.72000 8.232
34.76000 19.223
34.80000 16.200
34.84000 17.247
34.88000 14.175
34.92000 7.992
34.96000 22.335
35.00000 13.246
35.04000 14.164
35.08000 17.025
35.12000 22.206
35.16000 12.147
35.20000 10.080
35.24000 17.303
35.28000 12.210
35.32000 15.297
35.36000 13.087
35.40000 16.235
35.44000 16.154
35.48000 17.068
35.52000 20.284
35.56000 23.195
35.60000 22.357
35.64000 14.195
35.68000 18.318
35.72000 19.364
35.76000 15.199
35.80000 21.216
35.84000 19.268
35.88000 18.155
35.92000 18.200
35.96000 11.090
36.00000 11.100
36.04000 19.510
36.08000 26.564
36.12000 18.264
36.16000 17.284
36.20000 13.379
36.24000 20.223
36.28000 17.334
36.32000 18.382
36.36000 15.087
36.40000 24.399
36.44000 6.016
36.48000 7.116
36.52000 18.295
36.56000 9.159
36.60000 17.174
36.64000 15.125
36.68000 11.182
36.72000 11.190
36.76000 15.113
36.80000 11.110
36.84000 13.254
36.88000 18.253
36.92000 17.064
36.96000 17.205
37.00000 13.253
37.04000 19.321
37.08000 19.273
37.12000 15.202
37.16000 17.292
37.20000 12.181
37.24000 23.139
37.28000 16.232
37.32000 20.346
37.36000 16.357
37.40000 17.340
37.44000 14.264
37.48000 16.376
37.52000 14.266
37.56000 19.326
37.60000 15.285
37.64000 15.186
37.68000 15.199
37.72000 14.043
37.76000 20.138
37.80000 13.404
37.84000 18.182
37.88000 17.097
37.92000 14.294
37.96000 14.143
38.00000 19.488
38.04000 19.270
38.08000 18.251
38.12000 18.334
38.16000 18.172
38.20000 12.111
38.24000 16.206
38.28000 14.163
38.32000 18.259
38.36000 12.143
38.40000 21.210
38.44000 16.277
38.48000 18.318
38.52000 21.076
38.56000 16.184
38.60000 20.206
38.64000 13.211
38.68000 17.133
38.72000 27.532
38.76000 17.197
38.80000 17.212
38.84000 19.956
38.88000 16.281
38.92000 16.053
38.96000 20.193
39.00000 21.323
39.04000 25.612
39.08000 17.331
39.12000 16.101
39.16000 19.204
39.20000 15.179
39.24000 16.014
39.28000 13.113
39.32000 19.199
39.36000 15.222
39.40000 13.263
39.44000 21.569
39.48000 16.240
39.52000 17.272
39.56000 18.199
39.60000 21.123
39.64000 17.163
39.68000 15.398
39.72000 19.180
39.76000 24.268
39.80000 16.187
39.84000 21.132
39.88000 25.562
39.92000 14.170
39.96000 15.356
40.00000 15.309
40.04000 19.287
40.08000 26.205
40.12000 18.234
40.16000 14.173
40.20000 18.256
40.24000 18.243
40.28000 15.188
40.32000 18.484
40.36000 23.276
40.40000 19.074
40.44000 14.040
40.48000 15.161
40.52000 13.992
40.56000 12.130
40.60000 17.217
40.64000 15.226
40.68000 15.204
40.72000 25.159
40.76000 16.161
40.80000 22.322
40.84000 13.245
40.88000 18.125
40.92000 23.307
40.96000 15.955
41.00000 23.358
41.04000 18.245
41.08000 20.442
41.12000 13.206
41.16000 17.598
41.20000 20.236
41.24000 19.256
41.28000 26.232
41.32000 16.232
41.36000 17.205
41.40000 8.177
41.44000 21.371
41.48000 14.196
41.52000 20.218
41.56000 10.158
41.60000 22.431
41.64000 17.247
41.68000 12.150
41.72000 21.324
41.76000 12.016
41.80000 16.305
41.84000 25.395
41.88000 23.368
41.92000 18.181
41.96000 18.281
42.00000 19.239
42.04000 25.245
42.08000 22.194
42.12000 22.523
42.16000 23.382
42.20000 13.097
42.24000 20.494
42.28000 17.990
42.32000 17.248
42.36000 25.418
42.40000 14.121
42.44000 21.354
42.48000 23.173
42.52000 22.150
42.56000 18.176
42.60000 12.176
42.64000 15.238
42.68000 14.175
42.72000 21.427
42.76000 16.439
42.80000 25.228
42.84000 18.229
42.88000 13.197
42.92000 21.469
42.96000 24.295
43.00000 22.280
43.04000 25.472
43.08000 18.234
43.12000 17.103
43.16000 17.148
43.20000 15.186
43.24000 17.082
43.28000 18.186
43.32000 18.178
43.36000 13.110
43.40000 17.100
43.44000 21.193
43.48000 15.327
43.52000 19.287
43.56000 18.298
43.60000 29.515
43.64000 15.155
43.68000 25.214
43.72000 16.156
43.76000 18.361
43.80000 20.047
43.84000 18.125
43.88000 15.280
43.92000 24.520
43.96000 17.232
44.00000 16.313
44.04000 24.211
44.08000 16.214
44.12000 17.309
44.16000 15.267
44.20000 20.264
44.24000 13.185
44.28000 18.099
44.32000 19.098
44.36000 19.029
44.40000 16.355
44.44000 28.548
44.48000 12.142
44.52000 16.264
44.56000 13.314
44.60000 25.344
44.64000 14.420
44.68000 18.270
44.72000 18.171
44.76000 20.155
44.80000 13.162
44.84000 20.387
44.88000 26.300
44.92000 21.216
44.96000 16.202
45.00000 23.090
45.04000 20.268
45.08000 15.958
45.12000 17.323
45.16000 23.327
45.20000 14.185
45.24000 12.209
45.28000 15.021
45.32000 18.209
45.36000 23.294
45.40000 17.207
45.44000 23.408
45.48000 17.192
45.52000 12.144
45.56000 22.402
45.60000 15.227
45.64000 15.477
45.68000 22.174
45.72000 23.238
45.76000 18.187
45.80000 17.130
45.84000 21.115
45.88000 20.219
45.92000 22.359
45.96000 11.151
46.00000 27.492
46.04000 20.190
46.08000 11.228
46.12000 19.231
46.16000 19.332
46.20000 17.207
46.24000 20.395
46.28000 24.378
46.32000 26.216
46.36000 15.378
46.40000 14.233
46.44000 22.410
46.48000 25.183
46.52000 21.322
46.56000 27.457
46.60000 21.179
46.64000 18.352
46.68000 12.147
46.72000 17.357
46.76000 14.200
46.80000 19.188
46.84000 27.399
46.88000 19.330
46.92000 14.280
46.96000 29.283
47.00000 19.194
47.04000 18.347
47.08000 19.138
47.12000 9.980
47.16000 11.124
47.20000 20.170
47.24000 22.216
47.28000 12.182
47.32000 13.072
47.36000 19.074
47.40000 20.011
47.44000 22.354
47.48000 14.198
47.52000 16.171
47.56000 17.286
47.60000 23.165
47.64000 15.968
47.68000 15.308
47.72000 13.087
47.76000 19.144
47.80000 13.144
47.84000 15.096
47.88000 20.305
47.92000 15.090
47.96000 13.081
48.00000 24.449
48.04000 21.107
48.08000 22.386
48.12000 14.116
48.16000 19.133
48.20000 15.065
48.24000 19.326
48.28000 13.082
48.32000 18.414
48.36000 15.088
48.40000 15.244
48.44000 20.136
48.48000 18.209
48.52000 11.007
48.56000 11.191
48.60000 11.993
48.64000 19.261
48.68000 19.197
48.72000 17.267
48.76000 18.241
48.80000 12.270
48.84000 17.146
48.88000 22.116
48.92000 16.243
48.96000 13.102
49.00000 20.294
49.04000 12.257
49.08000 13.175
49.12000 16.139
49.16000 13.146
49.20000 16.159
49.24000 16.237
49.28000 13.172
49.32000 13.146
49.36000 15.257
49.40000 19.259
49.44000 11.075
49.48000 20.278
49.52000 18.112
49.56000 22.332
49.60000 18.116
49.64000 15.249
49.68000 14.125
49.72000 20.210
49.76000 11.189
49.80000 14.979
49.84000 19.296
49.88000 16.265
49.92000 19.336
49.96000 20.371
50.00000 14.186
50.04000 21.080
50.08000 18.297
50.12000 15.360
50.16000 17.265
50.20000 17.058
50.24000 14.082
50.28000 18.211
50.32000 12.106
50.36000 19.239
50.40000 13.224
50.44000 13.097
50.48000 11.251
50.52000 8.999
50.56000 9.056
50.60000 16.213
50.64000 20.297
50.68000 16.392
50.72000 16.336
50.76000 11.964
50.80000 16.104
50.84000 13.060
50.88000 13.434
50.92000 13.196
50.96000 14.077
51.00000 11.124
51.04000 17.158
51.08000 17.030
51.12000 13.252
51.16000 13.183
51.20000 11.241
51.24000 12.048
51.28000 29.515
51.32000 17.415
51.36000 9.081
51.40000 17.165
51.44000 18.258
51.48000 15.243
51.52000 13.121
51.56000 16.188
51.60000 17.356
51.64000 25.453
51.68000 10.092
51.72000 15.199
51.76000 19.279
51.80000 15.101
51.84000 17.093
51.88000 18.269
51.92000 20.215
51.96000 19.297
52.00000 11.172
52.04000 20.218
52.08000 14.192
52.12000 24.326
52.16000 18.232
52.20000 10.318
52.24000 16.192
52.28000 16.144
52.32000 25.296
52.36000 15.189
52.40000 9.058
52.44000 15.106
52.48000 14.132
52.52000 23.612
52.56000 13.109
52.60000 16.168
52.64000 12.134
52.68000 15.227
52.72000 22.148
52.76000 12.104
52.80000 15.148
52.84000 15.245
52.88000 18.123
52.92000 17.164
52.96000 17.216
53.00000 18.260
53.04000 10.126
53.08000 15.306
53.12000 17.093
53.16000 15.324
53.20000 13.192
53.24000 13.028
53.28000 18.175
53.32000 11.114
53.36000 9.107
53.40000 17.197
53.44000 11.144
53.48000 11.021
53.52000 22.330
53.56000 14.221
53.60000 10.174
53.64000 14.348
53.68000 8.215
53.72000 13.303
53.76000 14.257
53.80000 12.118
53.84000 16.194
53.88000 17.199
53.92000 18.156
53.96000 12.234
54.00000 13.134
54.04000 7.971
54.08000 14.285
54.12000 12.272
54.16000 19.258
54.20000 18.353
54.24000 10.289
54.28000 13.114
54.32000 12.221
54.36000 15.133
54.40000 11.050
54.44000 19.469
54.48000 17.273
54.52000 9.097
54.56000 14.252
54.60000 16.039
54.64000 14.404
54.68000 6.148
54.72000 12.098
54.76000 16.067
54.80000 11.074
54.84000 21.033
54.88000 16.272
54.92000 12.286
54.96000 10.173
55.00000 14.209
55.04000 12.274
55.08000 7.016
55.12000 9.173
55.16000 16.268
55.20000 17.240
55.24000 10.141
55.28000 8.140
55.32000 10.028
55.36000 9.083
55.40000 13.104
55.44000 18.089
55.48000 12.067
55.52000 12.212
55.56000 13.218
55.60000 11.256
55.64000 13.009
55.68000 15.203
55.72000 24.514
55.76000 16.496
55.80000 8.075
55.84000 9.056
55.88000 17.332
55.92000 13.196
55.96000 10.090
56.00000 18.304
56.04000 14.110
56.08000 13.155
56.12000 14.247
56.16000 11.122
56.20000 12.194
56.24000 11.193
56.28000 22.367
56.32000 13.297
56.36000 11.340
56.40000 20.280
56.44000 18.234
56.48000 14.297
56.52000 11.167
56.56000 10.230
56.60000 20.315
56.64000 12.020
56.68000 14.091
56.72000 16.117
56.76000 11.194
56.80000 14.031
56.84000 10.036
56.88000 10.162
56.92000 17.283
56.96000 13.013
57.00000 12.086
57.04000 10.053
57.08000 14.215
57.12000 12.117
57.16000 19.362
57.20000 10.308
57.24000 22.372
57.28000 6.104
57.32000 13.243
57.36000 5.120
57.40000 10.066
57.44000 15.127
57.48000 11.109
57.52000 11.216
57.56000 12.208
57.60000 15.294
57.64000 13.294
57.68000 14.195
57.72000 10.089
57.76000 14.260
57.80000 16.189
57.84000 13.142
57.88000 11.043
57.92000 16.298
57.96000 12.269
58.00000 13.294
58.04000 11.205
58.08000 16.147
58.12000 15.414
58.16000 11.139
58.20000 17.124
58.24000 13.313
58.28000 13.174
58.32000 14.199
58.36000 15.234
58.40000 10.167
58.44000 12.146
58.48000 9.133
58.52000 15.190
58.56000 16.067
58.60000 7.163
58.64000 14.426
58.68000 9.183
58.72000 13.226
58.76000 8.125
58.80000 15.149
58.84000 9.285
58.88000 6.093
58.92000 12.115
58.96000 10.083
59.00000 8.058
59.04000 9.112
59.08000 7.153
59.12000 12.114
59.16000 12.228
59.20000 12.145
59.24000 10.171
59.28000 15.239
59.32000 10.084
59.36000 19.264
59.40000 8.267
59.44000 10.109
59.48000 6.144
59.52000 11.032
59.56000 10.052
59.60000 12.168
59.64000 5.096
59.68000 3.081
59.72000 8.132
59.76000 11.211
59.80000 9.135
59.84000 11.175
59.88000 9.217
59.92000 13.156
59.96000 5.075
60.00000 15.175
60.04000 11.206
60.08000 5.991
60.12000 15.286
60.16000 13.226
60.20000 13.177
60.24000 11.173
60.28000 15.140
60.32000 7.114
60.36000 6.039
60.40000 16.200
60.44000 7.145
60.48000 5.039
60.52000 12.162
60.56000 3.049
60.60000 15.325
60.64000 9.194
60.68000 13.022
60.72000 7.085
60.76000 11.162
60.80000 5.959
60.84000 10.074
60.88000 16.194
60.92000 13.150
60.96000 12.155
61.00000 4.949
61.04000 9.175
61.08000 15.446
61.12000 4.019
61.16000 11.019
61.20000 8.143
61.24000 13.083
61.28000 10.175
61.32000 12.120
61.36000 13.101
61.40000 10.100
61.44000 13.227
61.48000 13.264
61.52000 12.160
61.56000 7.180
61.60000 7.118
61.64000 12.054
61.68000 14.050
61.72000 11.111
61.76000 6.160
61.80000 10.109
61.84000 14.021
61.88000 8.091
61.92000 11.125
61.96000 12.106
62.00000 9.135
62.04000 10.053
62.08000 9.219
62.12000 10.333
62.16000 10.174
62.20000 15.989
62.24000 10.220
62.28000 14.220
62.32000 10.212
62.36000 10.222
62.40000 11.069
62.44000 9.152
62.48000 14.117
62.52000 9.044
62.56000 9.089
62.60000 11.073
62.64000 9.104
62.68000 10.136
62.72000 7.042
62.76000 8.159
62.80000 9.046
62.84000 11.216
62.88000 13.091
62.92000 13.133
62.96000 7.083
63.00000 12.294
63.04000 8.114
63.08000 8.125
63.12000 11.082
63.16000 6.003
63.20000 11.119
63.24000 5.037
63.28000 10.180
63.32000 8.019
63.36000 13.094
63.40000 10.395
63.44000 13.172
63.48000 4.063
63.52000 12.123
63.56000 8.192
63.60000 6.996
63.64000 9.068
63.68000 9.055
63.72000 4.021
63.76000 10.066
63.80000 9.125
63.84000 12.147
63.88000 6.144
63.92000 5.974
63.96000 13.197
64.00000 7.120
64.04000 6.059
64.08000 9.195
64.12000 11.225
64.16000 11.185
64.20000 6.067
64.24000 14.075
64.28000 7.058
64.32000 4.086
64.36000 8.145
64.40000 14.123
64.44000 13.143
64.48000 7.175
64.52000 7.144
64.56000 10.146
64.60000 10.069
64.64000 13.009
64.68000 7.068
64.72000 7.067
64.76000 9.205
64.80000 4.047
64.84000 12.165
64.88000 17.264
64.92000 11.036
64.96000 10.027
65.00000 6.948