File: XRD/XRD/11-09-2025/XY Data/01092025_BTO_omega_0_5_001_01_12-500_0-000.xy
20.00000 11.997
20.04000 9.029
20.08000 15.160
20.12000 18.261
20.16000 19.131
20.20000 16.189
20.24000 13.255
20.28000 14.144
20.32000 11.169
20.36000 20.123
20.40000 12.143
20.44000 18.185
20.48000 14.306
20.52000 12.069
20.56000 11.129
20.60000 20.246
20.64000 14.459
20.68000 21.059
20.72000 13.265
20.76000 9.065
20.80000 22.270
20.84000 21.261
20.88000 18.417
20.92000 21.157
20.96000 17.210
21.00000 11.210
21.04000 15.242
21.08000 19.341
21.12000 12.025
21.16000 17.274
21.20000 10.179
21.24000 20.291
21.28000 21.257
21.32000 20.171
21.36000 16.338
21.40000 14.161
21.44000 16.257
21.48000 19.204
21.52000 16.280
21.56000 14.059
21.60000 14.244
21.64000 15.222
21.68000 15.142
21.72000 20.319
21.76000 23.380
21.80000 14.310
21.84000 17.278
21.88000 15.153
21.92000 21.299
21.96000 18.165
22.00000 8.971
22.04000 9.073
22.08000 17.149
22.12000 19.203
22.16000 17.267
22.20000 15.232
22.24000 18.213
22.28000 18.323
22.32000 8.053
22.36000 20.034
22.40000 18.132
22.44000 11.052
22.48000 18.071
22.52000 12.073
22.56000 15.307
22.60000 17.245
22.64000 14.070
22.68000 14.132
22.72000 12.219
22.76000 17.204
22.80000 16.244
22.84000 15.079
22.88000 23.432
22.92000 19.088
22.96000 24.093
23.00000 19.226
23.04000 15.264
23.08000 13.143
23.12000 16.125
23.16000 22.377
23.20000 16.196
23.24000 19.346
23.28000 13.180
23.32000 14.103
23.36000 18.423
23.40000 16.108
23.44000 17.228
23.48000 17.956
23.52000 13.189
23.56000 27.383
23.60000 20.300
23.64000 22.193
23.68000 26.582
23.72000 13.116
23.76000 17.409
23.80000 15.345
23.84000 8.123
23.88000 22.514
23.92000 23.198
23.96000 16.189
24.00000 18.258
24.04000 18.135
24.08000 24.501
24.12000 17.204
24.16000 15.117
24.20000 27.405
24.24000 23.326
24.28000 25.372
24.32000 16.230
24.36000 26.442
24.40000 20.337
24.44000 18.403
24.48000 27.349
24.52000 16.258
24.56000 28.285
24.60000 20.396
24.64000 17.159
24.68000 16.069
24.72000 22.485
24.76000 19.242
24.80000 14.393
24.84000 24.507
24.88000 28.398
24.92000 22.136
24.96000 17.181
25.00000 22.401
25.04000 21.262
25.08000 27.297
25.12000 20.292
25.16000 22.367
25.20000 18.167
25.24000 20.347
25.28000 24.219
25.32000 22.356
25.36000 20.180
25.40000 25.344
25.44000 30.249
25.48000 27.412
25.52000 32.244
25.56000 27.440
25.60000 23.176
25.64000 31.483
25.68000 26.489
25.72000 23.181
25.76000 38.632
25.80000 23.214
25.84000 32.440
25.88000 29.610
25.92000 26.240
25.96000 30.153
26.00000 26.340
26.04000 36.410
26.08000 19.447
26.12000 32.356
26.16000 31.443
26.20000 27.160
26.24000 31.349
26.28000 24.329
26.32000 22.279
26.36000 37.698
26.40000 34.502
26.44000 31.506
26.48000 33.411
26.52000 30.499
26.56000 31.388
26.60000 32.783
26.64000 30.388
26.68000 25.272
26.72000 32.434
26.76000 30.714
26.80000 44.407
26.84000 35.435
26.88000 29.445
26.92000 26.265
26.96000 24.219
27.00000 23.450
27.04000 41.432
27.08000 36.719
27.12000 34.471
27.16000 34.334
27.20000 32.467
27.24000 28.186
27.28000 46.585
27.32000 36.466
27.36000 37.585
27.40000 35.630
27.44000 29.482
27.48000 31.268
27.52000 31.288
27.56000 49.608
27.60000 40.349
27.64000 34.165
27.68000 36.533
27.72000 36.606
27.76000 42.644
27.80000 38.467
27.84000 23.191
27.88000 34.641
27.92000 30.603
27.96000 46.607
28.00000 39.646
28.04000 39.558
28.08000 29.432
28.12000 32.350
28.16000 35.402
28.20000 38.507
28.24000 29.315
28.28000 36.361
28.32000 46.634
28.36000 30.406
28.40000 26.168
28.44000 36.527
28.48000 24.361
28.52000 36.680
28.56000 33.471
28.60000 23.535
28.64000 34.321
28.68000 31.338
28.72000 22.307
28.76000 22.122
28.80000 38.531
28.84000 32.555
28.88000 27.519
28.92000 30.215
28.96000 21.372
29.00000 28.314
29.04000 29.152
29.08000 23.391
29.12000 26.322
29.16000 27.134
29.20000 35.515
29.24000 19.342
29.28000 17.242
29.32000 34.509
29.36000 24.446
29.40000 23.304
29.44000 25.083
29.48000 25.388
29.52000 16.164
29.56000 29.343
29.60000 29.579
29.64000 24.331
29.68000 32.236
29.72000 21.451
29.76000 16.174
29.80000 24.301
29.84000 33.369
29.88000 24.388
29.92000 26.380
29.96000 24.285
30.00000 23.207
30.04000 26.389
30.08000 21.459
30.12000 20.103
30.16000 25.427
30.20000 27.451
30.24000 14.256
30.28000 24.337
30.32000 23.184
30.36000 25.468
30.40000 21.303
30.44000 26.212
30.48000 23.302
30.52000 24.360
30.56000 27.354
30.60000 15.227
30.64000 21.133
30.68000 16.136
30.72000 20.262
30.76000 20.547
30.80000 21.141
30.84000 19.194
30.88000 15.143
30.92000 23.265
30.96000 19.102
31.00000 22.332
31.04000 20.283
31.08000 24.348
31.12000 14.300
31.16000 15.165
31.20000 22.192
31.24000 19.408
31.28000 18.211
31.32000 18.306
31.36000 17.162
31.40000 28.225
31.44000 14.051
31.48000 10.056
31.52000 19.251
31.56000 20.257
31.60000 15.222
31.64000 24.267
31.68000 24.280
31.72000 6.011
31.76000 16.222
31.80000 16.256
31.84000 16.146
31.88000 19.023
31.92000 12.224
31.96000 21.251
32.00000 18.155
32.04000 14.019
32.08000 19.124
32.12000 16.260
32.16000 14.202
32.20000 14.249
32.24000 17.136
32.28000 19.120
32.32000 15.133
32.36000 21.409
32.40000 23.191
32.44000 9.208
32.48000 17.186
32.52000 11.096
32.56000 11.105
32.60000 8.159
32.64000 17.314
32.68000 12.256
32.72000 14.215
32.76000 11.048
32.80000 19.146
32.84000 19.350
32.88000 10.079
32.92000 13.206
32.96000 10.130
33.00000 9.068
33.04000 18.308
33.08000 13.296
33.12000 10.273
33.16000 10.040
33.20000 16.128
33.24000 10.061
33.28000 19.248
33.32000 6.122
33.36000 12.054
33.40000 10.209
33.44000 15.469
33.48000 9.095
33.52000 11.038
33.56000 12.199
33.60000 13.180
33.64000 9.233
33.68000 9.106
33.72000 9.129
33.76000 12.125
33.80000 9.064
33.84000 11.103
33.88000 11.306
33.92000 13.257
33.96000 15.245
34.00000 14.199
34.04000 13.042
34.08000 12.195
34.12000 10.210
34.16000 12.158
34.20000 13.266
34.24000 9.082
34.28000 8.071
34.32000 14.147
34.36000 8.083
34.40000 9.074
34.44000 8.099
34.48000 11.266
34.52000 9.164
34.56000 13.284
34.60000 10.053
34.64000 12.080
34.68000 10.053
34.72000 10.207
34.76000 9.012
34.80000 12.155
34.84000 10.210
34.88000 4.063
34.92000 8.062
34.96000 12.181
35.00000 6.125
35.04000 8.216
35.08000 13.129
35.12000 14.155
35.16000 10.162
35.20000 22.038
35.24000 8.004
35.28000 5.074
35.32000 15.200
35.36000 9.057
35.40000 7.120
35.44000 19.216
35.48000 12.226
35.52000 11.130
35.56000 9.048
35.60000 10.154
35.64000 14.253
35.68000 6.040
35.72000 9.109
35.76000 16.167
35.80000 12.201
35.84000 5.032
35.88000 11.046
35.92000 8.193
35.96000 12.174
36.00000 11.335
36.04000 15.016
36.08000 21.310
36.12000 3.970
36.16000 15.215
36.20000 14.100
36.24000 15.029
36.28000 11.144
36.32000 10.234
36.36000 14.138
36.40000 8.172
36.44000 9.072
36.48000 13.183
36.52000 13.095
36.56000 14.115
36.60000 11.079
36.64000 11.093
36.68000 8.146
36.72000 12.194
36.76000 9.044
36.80000 9.108
36.84000 12.403
36.88000 7.158
36.92000 8.131
36.96000 8.056
37.00000 7.005
37.04000 8.082
37.08000 14.252
37.12000 12.067
37.16000 11.123
37.20000 10.155
37.24000 9.007
37.28000 9.012
37.32000 13.191
37.36000 15.053
37.40000 10.296
37.44000 18.275
37.48000 18.359
37.52000 11.107
37.56000 11.175
37.60000 13.163
37.64000 13.183
37.68000 13.161
37.72000 11.063
37.76000 9.248
37.80000 7.090
37.84000 3.030
37.88000 10.196
37.92000 12.165
37.96000 13.240
38.00000 15.219
38.04000 13.984
38.08000 11.172
38.12000 9.067
38.16000 6.141
38.20000 17.318
38.24000 9.125
38.28000 14.210
38.32000 13.113
38.36000 14.202
38.40000 9.096
38.44000 14.240
38.48000 10.265
38.52000 17.164
38.56000 12.091
38.60000 9.195
38.64000 12.178
38.68000 9.138
38.72000 12.238
38.76000 8.240
38.80000 8.087
38.84000 16.245
38.88000 15.241
38.92000 12.169
38.96000 12.127
39.00000 8.181
39.04000 11.199
39.08000 11.090
39.12000 15.243
39.16000 11.268
39.20000 7.136
39.24000 10.053
39.28000 10.337
39.32000 18.103
39.36000 11.284
39.40000 9.161
39.44000 13.096
39.48000 15.352
39.52000 16.086
39.56000 15.115
39.60000 12.215
39.64000 12.152
39.68000 10.040
39.72000 11.298
39.76000 13.057
39.80000 12.024
39.84000 13.353
39.88000 13.210
39.92000 11.225
39.96000 11.163
40.00000 13.146
40.04000 18.232
40.08000 16.167
40.12000 13.979
40.16000 16.416
40.20000 9.139
40.24000 10.078
40.28000 9.155
40.32000 16.291
40.36000 9.111
40.40000 6.104
40.44000 15.211
40.48000 7.105
40.52000 14.245
40.56000 9.027
40.60000 8.190
40.64000 8.201
40.68000 16.290
40.72000 7.055
40.76000 17.232
40.80000 12.146
40.84000 9.150
40.88000 12.201
40.92000 11.053
40.96000 12.360
41.00000 9.117
41.04000 12.110
41.08000 12.112
41.12000 16.074
41.16000 14.219
41.20000 12.065
41.24000 16.364
41.28000 15.312
41.32000 9.014
41.36000 12.147
41.40000 17.267
41.44000 13.130
41.48000 10.029
41.52000 10.034
41.56000 7.026
41.60000 10.272
41.64000 5.025
41.68000 17.203
41.72000 10.105
41.76000 11.128
41.80000 10.158
41.84000 12.139
41.88000 9.156
41.92000 4.126
41.96000 8.159
42.00000 11.065
42.04000 12.137
42.08000 12.225
42.12000 7.116
42.16000 14.164
42.20000 14.291
42.24000 8.186
42.28000 9.114
42.32000 13.223
42.36000 9.122
42.40000 12.120
42.44000 16.342
42.48000 14.075
42.52000 7.151
42.56000 11.258
42.60000 12.022
42.64000 6.135
42.68000 18.176
42.72000 10.269
42.76000 12.096
42.80000 13.219
42.84000 12.282
42.88000 14.205
42.92000 10.140
42.96000 10.312
43.00000 13.143
43.04000 13.032
43.08000 11.273
43.12000 17.299
43.16000 10.120
43.20000 9.056
43.24000 9.012
43.28000 11.042
43.32000 12.202
43.36000 13.078
43.40000 9.097
43.44000 6.176
43.48000 13.185
43.52000 15.203
43.56000 18.394
43.60000 13.178
43.64000 9.146
43.68000 9.042
43.72000 11.205
43.76000 9.139
43.80000 11.239
43.84000 13.180
43.88000 12.031
43.92000 15.262
43.96000 15.126
44.00000 10.064
44.04000 12.186
44.08000 9.249
44.12000 10.142
44.16000 10.034
44.20000 14.239
44.24000 13.154
44.28000 12.175
44.32000 15.263
44.36000 9.095
44.40000 12.110
44.44000 11.244
44.48000 13.163
44.52000 10.080
44.56000 9.063
44.60000 14.299
44.64000 8.225
44.68000 16.069
44.72000 20.172
44.76000 10.176
44.80000 16.158
44.84000 13.113
44.88000 14.084
44.92000 9.126
44.96000 11.177
45.00000 15.327
45.04000 12.059
45.08000 18.301
45.12000 13.383
45.16000 10.252
45.20000 16.188
45.24000 14.035
45.28000 8.218
45.32000 10.115
45.36000 19.208
45.40000 10.333
45.44000 15.302
45.48000 15.305
45.52000 7.044
45.56000 12.215
45.60000 12.188
45.64000 9.054
45.68000 10.094
45.72000 13.174
45.76000 8.052
45.80000 9.106
45.84000 9.028
45.88000 8.008
45.92000 7.101
45.96000 14.183
46.00000 17.284
46.04000 16.252
46.08000 14.079
46.12000 10.220
46.16000 18.284
46.20000 14.161
46.24000 12.201
46.28000 7.121
46.32000 15.140
46.36000 14.131
46.40000 11.038
46.44000 11.167
46.48000 12.128
46.52000 9.156
46.56000 11.056
46.60000 13.231
46.64000 12.146
46.68000 11.107
46.72000 11.030
46.76000 11.121
46.80000 12.010
46.84000 15.124
46.88000 14.131
46.92000 8.053
46.96000 10.147
47.00000 13.201
47.04000 10.176
47.08000 4.016
47.12000 12.161
47.16000 8.044
47.20000 11.224
47.24000 16.261
47.28000 6.035
47.32000 20.506
47.36000 10.061
47.40000 6.184
47.44000 13.428
47.48000 8.164
47.52000 8.147
47.56000 4.084
47.60000 15.265
47.64000 4.112
47.68000 8.053
47.72000 11.127
47.76000 15.278
47.80000 17.336
47.84000 6.139
47.88000 16.236
47.92000 8.099
47.96000 11.014
48.00000 10.183
48.04000 11.133
48.08000 9.148
48.12000 6.096
48.16000 9.116
48.20000 15.179
48.24000 11.240
48.28000 10.371
48.32000 10.099
48.36000 17.159
48.40000 6.133
48.44000 10.078
48.48000 7.146
48.52000 11.291
48.56000 10.108
48.60000 9.321
48.64000 8.113
48.68000 12.212
48.72000 8.045
48.76000 13.216
48.80000 11.185
48.84000 12.006
48.88000 8.094
48.92000 10.144
48.96000 12.128
49.00000 6.184
49.04000 5.134
49.08000 9.132
49.12000 6.092
49.16000 8.051
49.20000 10.124
49.24000 14.325
49.28000 19.224
49.32000 14.087
49.36000 6.151
49.40000 9.048
49.44000 14.136
49.48000 10.160
49.52000 6.075
49.56000 11.164
49.60000 15.227
49.64000 6.140
49.68000 9.168
49.72000 17.146
49.76000 3.999
49.80000 12.102
49.84000 7.201
49.88000 12.095
49.92000 5.003
49.96000 10.085
50.00000 12.066
50.04000 9.101
50.08000 12.305
50.12000 10.207
50.16000 9.082
50.20000 16.137
50.24000 11.179
50.28000 14.243
50.32000 15.261
50.36000 9.111
50.40000 6.051
50.44000 15.152
50.48000 12.221
50.52000 8.180
50.56000 8.111
50.60000 5.010
50.64000 9.167
50.68000 11.165
50.72000 5.982
50.76000 8.045
50.80000 7.043
50.84000 9.083
50.88000 9.172
50.92000 9.108
50.96000 8.023
51.00000 10.138
51.04000 12.244
51.08000 11.198
51.12000 12.217
51.16000 16.105
51.20000 10.241
51.24000 12.212
51.28000 6.051
51.32000 6.083
51.36000 17.038
51.40000 8.092
51.44000 11.114
51.48000 6.057
51.52000 3.045
51.56000 7.968
51.60000 14.126
51.64000 10.126
51.68000 10.138
51.72000 12.168
51.76000 5.137
51.80000 7.149
51.84000 6.089
51.88000 10.077
51.92000 6.076
51.96000 8.074
52.00000 9.149
52.04000 8.232
52.08000 10.095
52.12000 7.113
52.16000 7.023
52.20000 10.085
52.24000 13.143
52.28000 6.021
52.32000 12.260
52.36000 4.084
52.40000 8.155
52.44000 14.194
52.48000 0.000
52.52000 4.989
52.56000 4.030
52.60000 4.106
52.64000 8.042
52.68000 15.309
52.72000 7.134
52.76000 14.161
52.80000 7.025
52.84000 5.100
52.88000 6.074
52.92000 9.023
52.96000 7.247
53.00000 5.086
53.04000 3.023
53.08000 11.133
53.12000 7.039
53.16000 8.104
53.20000 3.121
53.24000 10.237
53.28000 10.117
53.32000 7.019
53.36000 9.058
53.40000 9.082
53.44000 4.070
53.48000 10.051
53.52000 8.205
53.56000 4.064
53.60000 11.255
53.64000 8.139
53.68000 3.993
53.72000 12.090
53.76000 8.054
53.80000 7.965
53.84000 4.972
53.88000 14.230
53.92000 6.159
53.96000 12.108
54.00000 5.125
54.04000 15.983
54.08000 10.097
54.12000 8.149
54.16000 4.076
54.20000 3.077
54.24000 7.267
54.28000 11.087
54.32000 9.104
54.36000 14.217
54.40000 5.034
54.44000 9.049
54.48000 5.068
54.52000 13.157
54.56000 6.157
54.60000 3.982
54.64000 6.999
54.68000 11.099
54.72000 8.085
54.76000 4.029
54.80000 8.066
54.84000 6.099
54.88000 7.032
54.92000 6.063
54.96000 5.122
55.00000 12.181
55.04000 8.036
55.08000 7.144
55.12000 5.050
55.16000 17.349
55.20000 5.993
55.24000 9.115
55.28000 9.184
55.32000 9.287
55.36000 12.174
55.40000 10.099
55.44000 13.109
55.48000 9.133
55.52000 3.976
55.56000 5.053
55.60000 8.306
55.64000 5.123
55.68000 13.216
55.72000 14.133
55.76000 4.111
55.80000 5.046
55.84000 8.012
55.88000 6.091
55.92000 5.991
55.96000 16.215
56.00000 7.103
56.04000 6.107
56.08000 11.069
56.12000 7.223
56.16000 5.092
56.20000 6.075
56.24000 9.201
56.28000 7.031
56.32000 5.004
56.36000 6.047
56.40000 9.994
56.44000 6.051
56.48000 9.038
56.52000 2.023
56.56000 6.981
56.60000 10.304
56.64000 10.290
56.68000 5.032
56.72000 9.141
56.76000 6.060
56.80000 8.989
56.84000 15.243
56.88000 7.220
56.92000 5.035
56.96000 9.096
57.00000 13.163
57.04000 6.131
57.08000 9.073
57.12000 8.056
57.16000 11.149
57.20000 6.016
57.24000 7.034
57.28000 10.130
57.32000 11.141
57.36000 5.191
57.40000 8.200
57.44000 3.007
57.48000 7.095
57.52000 10.094
57.56000 3.997
57.60000 7.152
57.64000 4.010
57.68000 10.106
57.72000 10.080
57.76000 7.147
57.80000 7.005
57.84000 7.008
57.88000 10.956
57.92000 7.078
57.96000 4.065
58.00000 10.136
58.04000 3.068
58.08000 11.134
58.12000 11.042
58.16000 5.981
58.20000 6.042
58.24000 6.049
58.28000 3.056
58.32000 5.080
58.36000 5.032
58.40000 9.069
58.44000 6.108
58.48000 10.173
58.52000 4.093
58.56000 3.114
58.60000 10.160
58.64000 10.011
58.68000 6.033
58.72000 12.120
58.76000 7.039
58.80000 7.154
58.84000 0.981
58.88000 5.074
58.92000 11.098
58.96000 10.209
59.00000 4.023
59.04000 9.140
59.08000 7.202
59.12000 2.983
59.16000 5.067
59.20000 5.022
59.24000 7.051
59.28000 1.989
59.32000 5.119
59.36000 6.053
59.40000 4.041
59.44000 7.118
59.48000 5.017
59.52000 6.098
59.56000 6.037
59.60000 9.065
59.64000 11.270
59.68000 3.049
59.72000 3.046
59.76000 6.953
59.80000 7.054
59.84000 5.055
59.88000 4.047
59.92000 7.089
59.96000 5.059
60.00000 2.018
60.04000 8.087
60.08000 6.200
60.12000 8.118
60.16000 6.136
60.20000 6.092
60.24000 5.032
60.28000 11.116
60.32000 7.152
60.36000 0.977
60.40000 8.109
60.44000 6.170
60.48000 6.989
60.52000 5.927
60.56000 5.114
60.60000 7.152
60.64000 3.021
60.68000 8.019
60.72000 5.039
60.76000 4.042
60.80000 5.064
60.84000 3.934
60.88000 7.101
60.92000 7.087
60.96000 6.034
61.00000 5.016
61.04000 7.065
61.08000 4.058
61.12000 9.166
61.16000 4.035
61.20000 3.050
61.24000 9.095
61.28000 4.072
61.32000 6.109
61.36000 8.053
61.40000 7.074
61.44000 4.012
61.48000 4.038
61.52000 4.031
61.56000 2.999
61.60000 4.066
61.64000 6.115
61.68000 4.125
61.72000 5.989
61.76000 9.999
61.80000 2.022
61.84000 3.959
61.88000 7.051
61.92000 5.974
61.96000 6.087
62.00000 2.053
62.04000 3.002
62.08000 10.167
62.12000 8.964
62.16000 4.030
62.20000 10.090
62.24000 3.001
62.28000 2.982
62.32000 6.163
62.36000 4.036
62.40000 6.093
62.44000 4.056
62.48000 7.089
62.52000 5.021
62.56000 7.211
62.60000 5.067
62.64000 5.076
62.68000 9.107
62.72000 4.078
62.76000 7.044
62.80000 0.981
62.84000 3.025
62.88000 4.102
62.92000 3.002
62.96000 5.151
63.00000 3.031
63.04000 6.143
63.08000 6.003
63.12000 3.043
63.16000 5.119
63.20000 4.018
63.24000 1.047
63.28000 6.054
63.32000 6.103
63.36000 5.059
63.40000 6.074
63.44000 6.207
63.48000 2.054
63.52000 4.969
63.56000 4.144
63.60000 2.011
63.64000 8.089
63.68000 5.092
63.72000 2.026
63.76000 4.066
63.80000 4.111
63.84000 7.173
63.88000 3.020
63.92000 9.192
63.96000 7.049
64.00000 5.041
64.04000 4.023
64.08000 3.977
64.12000 1.010
64.16000 6.071
64.20000 9.081
64.24000 5.065
64.28000 8.185
64.32000 7.040
64.36000 2.974
64.40000 5.965
64.44000 4.987
64.48000 6.962
64.52000 4.109
64.56000 4.011
64.60000 2.982
64.64000 3.049
64.68000 3.023
64.72000 0.990
64.76000 3.912
64.80000 4.987
64.84000 4.074
64.88000 1.030
64.92000 3.040
64.96000 6.087
65.00000 3.991