File: XRD/XRD/11-09-2025/XY Data/01092025_BTO_omega_0_5_001_13_33-786_16-271.xy
20.00000 20.310
20.04000 23.402
20.08000 12.275
20.12000 27.292
20.16000 21.306
20.20000 20.408
20.24000 16.357
20.28000 13.138
20.32000 15.278
20.36000 18.229
20.40000 13.211
20.44000 20.384
20.48000 20.275
20.52000 19.297
20.56000 17.326
20.60000 15.191
20.64000 21.180
20.68000 24.491
20.72000 19.436
20.76000 20.275
20.80000 19.155
20.84000 26.531
20.88000 12.161
20.92000 23.502
20.96000 17.214
21.00000 14.093
21.04000 18.190
21.08000 22.229
21.12000 11.304
21.16000 13.255
21.20000 21.284
21.24000 18.102
21.28000 24.309
21.32000 22.186
21.36000 23.118
21.40000 25.135
21.44000 21.072
21.48000 15.180
21.52000 35.531
21.56000 19.226
21.60000 20.293
21.64000 21.364
21.68000 28.401
21.72000 26.318
21.76000 21.376
21.80000 16.256
21.84000 21.301
21.88000 22.233
21.92000 20.410
21.96000 17.231
22.00000 24.209
22.04000 21.148
22.08000 23.055
22.12000 21.373
22.16000 22.228
22.20000 23.393
22.24000 23.384
22.28000 31.422
22.32000 15.321
22.36000 25.365
22.40000 21.409
22.44000 25.353
22.48000 27.363
22.52000 22.217
22.56000 40.641
22.60000 16.066
22.64000 15.122
22.68000 30.564
22.72000 26.162
22.76000 32.362
22.80000 37.347
22.84000 15.262
22.88000 24.167
22.92000 18.352
22.96000 28.386
23.00000 32.281
23.04000 26.334
23.08000 19.284
23.12000 23.522
23.16000 21.394
23.20000 22.390
23.24000 31.275
23.28000 20.229
23.32000 23.387
23.36000 31.700
23.40000 29.572
23.44000 35.463
23.48000 21.321
23.52000 23.475
23.56000 18.088
23.60000 33.515
23.64000 26.428
23.68000 37.442
23.72000 31.361
23.76000 24.369
23.80000 26.376
23.84000 26.400
23.88000 20.288
23.92000 27.217
23.96000 29.377
24.00000 24.178
24.04000 36.606
24.08000 19.262
24.12000 29.507
24.16000 31.506
24.20000 26.301
24.24000 30.516
24.28000 28.517
24.32000 45.400
24.36000 29.452
24.40000 35.507
24.44000 39.507
24.48000 41.321
24.52000 32.552
24.56000 27.401
24.60000 22.258
24.64000 38.428
24.68000 34.329
24.72000 39.400
24.76000 34.473
24.80000 48.766
24.84000 31.658
24.88000 38.894
24.92000 34.448
24.96000 40.448
25.00000 23.439
25.04000 40.485
25.08000 32.614
25.12000 38.421
25.16000 31.230
25.20000 51.734
25.24000 44.710
25.28000 44.467
25.32000 42.464
25.36000 47.296
25.40000 40.561
25.44000 49.620
25.48000 52.691
25.52000 43.720
25.56000 49.458
25.60000 42.800
25.64000 38.497
25.68000 52.498
25.72000 52.590
25.76000 52.433
25.80000 53.765
25.84000 47.606
25.88000 46.544
25.92000 45.519
25.96000 52.672
26.00000 48.409
26.04000 62.224
26.08000 43.526
26.12000 60.640
26.16000 47.549
26.20000 47.651
26.24000 57.928
26.28000 53.665
26.32000 59.635
26.36000 48.485
26.40000 52.460
26.44000 64.830
26.48000 52.636
26.52000 65.719
26.56000 61.017
26.60000 54.609
26.64000 68.193
26.68000 66.932
26.72000 58.950
26.76000 65.911
26.80000 58.838
26.84000 57.812
26.88000 56.875
26.92000 53.619
26.96000 56.611
27.00000 60.641
27.04000 63.886
27.08000 61.792
27.12000 55.785
27.16000 64.960
27.20000 58.553
27.24000 46.589
27.28000 68.080
27.32000 54.115
27.36000 60.719
27.40000 66.887
27.44000 70.640
27.48000 64.901
27.52000 69.841
27.56000 48.426
27.60000 59.720
27.64000 52.810
27.68000 54.484
27.72000 60.555
27.76000 62.875
27.80000 56.662
27.84000 67.948
27.88000 57.057
27.92000 74.574
27.96000 69.064
28.00000 76.446
28.04000 67.267
28.08000 69.648
28.12000 68.322
28.16000 68.234
28.20000 52.970
28.24000 60.948
28.28000 60.632
28.32000 53.712
28.36000 85.878
28.40000 68.781
28.44000 63.725
28.48000 57.817
28.52000 67.873
28.56000 60.706
28.60000 67.656
28.64000 73.618
28.68000 53.578
28.72000 55.644
28.76000 60.930
28.80000 66.400
28.84000 55.998
28.88000 61.704
28.92000 68.056
28.96000 70.723
29.00000 58.901
29.04000 51.768
29.08000 57.151
29.12000 49.811
29.16000 55.036
29.20000 56.534
29.24000 57.868
29.28000 62.614
29.32000 60.976
29.36000 48.847
29.40000 70.824
29.44000 44.662
29.48000 60.760
29.52000 46.794
29.56000 49.647
29.60000 57.996
29.64000 55.625
29.68000 45.726
29.72000 57.799
29.76000 46.564
29.80000 43.706
29.84000 52.903
29.88000 50.748
29.92000 43.707
29.96000 48.950
30.00000 49.737
30.04000 37.753
30.08000 35.410
30.12000 50.480
30.16000 40.726
30.20000 44.698
30.24000 48.903
30.28000 35.472
30.32000 38.431
30.36000 51.040
30.40000 35.566
30.44000 36.590
30.48000 35.376
30.52000 34.461
30.56000 42.363
30.60000 52.939
30.64000 46.310
30.68000 30.232
30.72000 37.401
30.76000 27.442
30.80000 26.444
30.84000 38.801
30.88000 37.642
30.92000 36.412
30.96000 38.361
31.00000 41.383
31.04000 38.339
31.08000 37.156
31.12000 34.695
31.16000 29.450
31.20000 43.502
31.24000 24.243
31.28000 36.655
31.32000 41.671
31.36000 44.565
31.40000 29.357
31.44000 33.558
31.48000 26.228
31.52000 28.302
31.56000 24.473
31.60000 26.332
31.64000 34.393
31.68000 26.270
31.72000 31.590
31.76000 27.236
31.80000 37.420
31.84000 28.620
31.88000 29.369
31.92000 32.345
31.96000 29.584
32.00000 35.699
32.04000 23.336
32.08000 26.377
32.12000 23.275
32.16000 23.331
32.20000 31.400
32.24000 35.173
32.28000 25.338
32.32000 24.255
32.36000 35.439
32.40000 17.164
32.44000 29.275
32.48000 25.479
32.52000 18.224
32.56000 31.342
32.60000 21.121
32.64000 21.214
32.68000 14.299
32.72000 27.352
32.76000 21.122
32.80000 32.581
32.84000 24.127
32.88000 26.167
32.92000 18.283
32.96000 22.377
33.00000 32.694
33.04000 29.587
33.08000 12.134
33.12000 22.323
33.16000 24.163
33.20000 34.260
33.24000 32.471
33.28000 21.279
33.32000 16.060
33.36000 25.339
33.40000 23.456
33.44000 20.322
33.48000 26.434
33.52000 22.465
33.56000 25.138
33.60000 26.353
33.64000 28.248
33.68000 18.165
33.72000 25.361
33.76000 20.094
33.80000 11.149
33.84000 23.225
33.88000 14.348
33.92000 21.246
33.96000 24.375
34.00000 29.273
34.04000 16.329
34.08000 13.226
34.12000 22.249
34.16000 16.176
34.20000 27.342
34.24000 19.364
34.28000 23.104
34.32000 22.361
34.36000 12.206
34.40000 22.281
34.44000 19.197
34.48000 16.119
34.52000 17.115
34.56000 14.036
34.60000 17.225
34.64000 19.213
34.68000 19.199
34.72000 20.227
34.76000 22.200
34.80000 18.368
34.84000 16.203
34.88000 14.113
34.92000 18.192
34.96000 17.309
35.00000 16.967
35.04000 11.031
35.08000 19.145
35.12000 16.209
35.16000 29.503
35.20000 16.015
35.24000 11.261
35.28000 18.164
35.32000 19.292
35.36000 23.412
35.40000 15.252
35.44000 17.181
35.48000 22.044
35.52000 14.220
35.56000 20.389
35.60000 20.224
35.64000 18.287
35.68000 9.222
35.72000 8.999
35.76000 17.314
35.80000 15.228
35.84000 22.068
35.88000 24.476
35.92000 16.219
35.96000 18.271
36.00000 18.183
36.04000 23.174
36.08000 22.394
36.12000 15.075
36.16000 25.312
36.20000 12.168
36.24000 18.085
36.28000 21.334
36.32000 19.366
36.36000 20.039
36.40000 18.395
36.44000 17.065
36.48000 14.356
36.52000 16.122
36.56000 24.315
36.60000 14.199
36.64000 28.467
36.68000 16.314
36.72000 12.059
36.76000 21.565
36.80000 23.356
36.84000 19.276
36.88000 13.069
36.92000 22.174
36.96000 15.208
37.00000 18.314
37.04000 12.085
37.08000 13.014
37.12000 14.232
37.16000 25.339
37.20000 20.099
37.24000 18.177
37.28000 21.381
37.32000 17.271
37.36000 18.285
37.40000 18.265
37.44000 25.340
37.48000 16.195
37.52000 22.122
37.56000 20.313
37.60000 18.266
37.64000 11.145
37.68000 14.190
37.72000 19.245
37.76000 23.297
37.80000 24.340
37.84000 19.425
37.88000 19.372
37.92000 17.235
37.96000 19.328
38.00000 20.199
38.04000 19.414
38.08000 19.224
38.12000 16.097
38.16000 15.215
38.20000 19.474
38.24000 19.224
38.28000 22.343
38.32000 16.155
38.36000 21.254
38.40000 21.366
38.44000 26.174
38.48000 26.545
38.52000 17.025
38.56000 26.380
38.60000 23.305
38.64000 21.445
38.68000 19.293
38.72000 21.319
38.76000 25.387
38.80000 20.356
38.84000 12.294
38.88000 27.286
38.92000 22.235
38.96000 16.406
39.00000 25.338
39.04000 20.222
39.08000 19.312
39.12000 21.222
39.16000 21.120
39.20000 17.188
39.24000 18.228
39.28000 23.519
39.32000 16.068
39.36000 22.356
39.40000 22.153
39.44000 16.225
39.48000 19.158
39.52000 21.645
39.56000 30.342
39.60000 17.330
39.64000 25.242
39.68000 18.130
39.72000 16.252
39.76000 16.190
39.80000 22.429
39.84000 26.286
39.88000 27.166
39.92000 23.167
39.96000 16.156
40.00000 16.088
40.04000 19.301
40.08000 17.169
40.12000 15.169
40.16000 30.628
40.20000 19.210
40.24000 19.138
40.28000 18.007
40.32000 18.305
40.36000 24.290
40.40000 24.330
40.44000 23.388
40.48000 23.246
40.52000 23.369
40.56000 26.235
40.60000 16.162
40.64000 18.396
40.68000 17.106
40.72000 17.284
40.76000 23.331
40.80000 14.062
40.84000 17.019
40.88000 23.300
40.92000 24.483
40.96000 20.271
41.00000 19.250
41.04000 20.187
41.08000 18.133
41.12000 26.396
41.16000 26.366
41.20000 11.185
41.24000 13.191
41.28000 28.306
41.32000 30.404
41.36000 23.165
41.40000 34.469
41.44000 24.281
41.48000 24.488
41.52000 25.151
41.56000 20.366
41.60000 24.248
41.64000 19.230
41.68000 25.297
41.72000 15.234
41.76000 14.158
41.80000 31.509
41.84000 17.082
41.88000 30.598
41.92000 20.321
41.96000 14.204
42.00000 14.168
42.04000 21.333
42.08000 23.316
42.12000 23.382
42.16000 24.292
42.20000 19.200
42.24000 36.586
42.28000 24.196
42.32000 18.253
42.36000 25.235
42.40000 20.209
42.44000 17.159
42.48000 21.031
42.52000 23.542
42.56000 27.534
42.60000 21.333
42.64000 18.121
42.68000 23.423
42.72000 22.312
42.76000 25.329
42.80000 27.323
42.84000 16.319
42.88000 20.400
42.92000 19.215
42.96000 16.202
43.00000 26.358
43.04000 24.486
43.08000 20.288
43.12000 24.302
43.16000 19.201
43.20000 26.557
43.24000 21.279
43.28000 14.264
43.32000 24.261
43.36000 25.376
43.40000 24.146
43.44000 15.246
43.48000 22.135
43.52000 17.376
43.56000 24.309
43.60000 18.234
43.64000 26.450
43.68000 26.170
43.72000 33.263
43.76000 25.201
43.80000 27.417
43.84000 17.193
43.88000 29.267
43.92000 20.272
43.96000 19.344
44.00000 21.363
44.04000 21.388
44.08000 22.184
44.12000 19.258
44.16000 17.168
44.20000 32.408
44.24000 29.464
44.28000 18.341
44.32000 17.247
44.36000 12.040
44.40000 22.318
44.44000 17.274
44.48000 19.409
44.52000 24.334
44.56000 17.356
44.60000 22.335
44.64000 22.350
44.68000 26.352
44.72000 26.376
44.76000 22.293
44.80000 19.340
44.84000 20.236
44.88000 20.231
44.92000 24.382
44.96000 18.267
45.00000 16.283
45.04000 20.270
45.08000 15.125
45.12000 19.248
45.16000 15.224
45.20000 18.231
45.24000 20.584
45.28000 24.343
45.32000 32.477
45.36000 33.546
45.40000 18.396
45.44000 20.306
45.48000 22.291
45.52000 31.507
45.56000 26.392
45.60000 20.387
45.64000 19.093
45.68000 18.231
45.72000 23.304
45.76000 19.195
45.80000 21.153
45.84000 25.320
45.88000 23.176
45.92000 19.456
45.96000 25.409
46.00000 27.288
46.04000 18.213
46.08000 15.179
46.12000 19.254
46.16000 22.279
46.20000 22.300
46.24000 27.382
46.28000 17.536
46.32000 12.158
46.36000 31.502
46.40000 19.185
46.44000 25.404
46.48000 25.311
46.52000 27.465
46.56000 24.218
46.60000 18.354
46.64000 20.286
46.68000 20.232
46.72000 16.142
46.76000 17.106
46.80000 23.475
46.84000 20.443
46.88000 21.210
46.92000 21.361
46.96000 19.183
47.00000 22.439
47.04000 28.249
47.08000 22.356
47.12000 21.204
47.16000 29.433
47.20000 20.363
47.24000 11.056
47.28000 25.342
47.32000 17.089
47.36000 23.147
47.40000 18.397
47.44000 15.130
47.48000 19.185
47.52000 25.258
47.56000 14.174
47.60000 15.392
47.64000 17.294
47.68000 17.096
47.72000 20.293
47.76000 11.101
47.80000 17.176
47.84000 22.561
47.88000 22.333
47.92000 23.419
47.96000 13.113
48.00000 17.203
48.04000 19.121
48.08000 30.651
48.12000 20.206
48.16000 16.313
48.20000 20.173
48.24000 21.298
48.28000 17.295
48.32000 23.401
48.36000 21.345
48.40000 19.265
48.44000 15.020
48.48000 18.369
48.52000 24.322
48.56000 19.329
48.60000 22.326
48.64000 19.152
48.68000 21.377
48.72000 15.386
48.76000 13.139
48.80000 15.235
48.84000 21.327
48.88000 21.213
48.92000 22.147
48.96000 14.241
49.00000 13.301
49.04000 24.052
49.08000 26.141
49.12000 21.434
49.16000 10.123
49.20000 12.162
49.24000 20.327
49.28000 15.263
49.32000 15.072
49.36000 22.395
49.40000 21.373
49.44000 15.189
49.48000 13.078
49.52000 24.545
49.56000 24.369
49.60000 19.450
49.64000 26.307
49.68000 12.101
49.72000 18.136
49.76000 22.376
49.80000 17.213
49.84000 12.148
49.88000 12.157
49.92000 11.091
49.96000 16.197
50.00000 11.131
50.04000 17.142
50.08000 17.214
50.12000 13.103
50.16000 12.131
50.20000 21.409
50.24000 9.048
50.28000 20.211
50.32000 17.287
50.36000 12.198
50.40000 21.317
50.44000 21.219
50.48000 22.344
50.52000 12.210
50.56000 7.195
50.60000 20.397
50.64000 16.309
50.68000 17.311
50.72000 18.359
50.76000 21.370
50.80000 21.379
50.84000 12.108
50.88000 24.399
50.92000 18.447
50.96000 13.130
51.00000 18.330
51.04000 17.291
51.08000 13.146
51.12000 14.246
51.16000 22.121
51.20000 18.245
51.24000 10.192
51.28000 19.169
51.32000 13.026
51.36000 19.098
51.40000 18.261
51.44000 11.234
51.48000 12.080
51.52000 27.331
51.56000 16.220
51.60000 16.140
51.64000 18.356
51.68000 15.291
51.72000 22.391
51.76000 26.330
51.80000 15.155
51.84000 17.176
51.88000 17.187
51.92000 14.199
51.96000 17.277
52.00000 13.164
52.04000 13.078
52.08000 13.172
52.12000 11.107
52.16000 15.317
52.20000 16.089
52.24000 14.366
52.28000 14.179
52.32000 10.150
52.36000 14.113
52.40000 15.211
52.44000 17.296
52.48000 11.131
52.52000 17.151
52.56000 14.155
52.60000 12.217
52.64000 16.250
52.68000 14.209
52.72000 21.343
52.76000 12.077
52.80000 12.176
52.84000 23.526
52.88000 13.336
52.92000 12.100
52.96000 8.040
53.00000 15.175
53.04000 15.244
53.08000 9.048
53.12000 11.196
53.16000 12.084
53.20000 14.153
53.24000 18.138
53.28000 13.257
53.32000 14.163
53.36000 14.303
53.40000 14.180
53.44000 16.196
53.48000 15.419
53.52000 16.087
53.56000 16.216
53.60000 13.156
53.64000 15.182
53.68000 16.165
53.72000 16.259
53.76000 18.209
53.80000 18.456
53.84000 15.282
53.88000 9.173
53.92000 9.072
53.96000 17.048
54.00000 10.159
54.04000 12.067
54.08000 13.231
54.12000 16.074
54.16000 13.006
54.20000 16.340
54.24000 12.093
54.28000 19.149
54.32000 6.034
54.36000 13.271
54.40000 17.086
54.44000 13.231
54.48000 15.172
54.52000 14.142
54.56000 15.221
54.60000 16.185
54.64000 7.024
54.68000 12.133
54.72000 14.341
54.76000 14.136
54.80000 12.083
54.84000 14.211
54.88000 8.087
54.92000 7.122
54.96000 13.094
55.00000 15.022
55.04000 11.053
55.08000 15.098
55.12000 10.112
55.16000 8.053
55.20000 15.183
55.24000 8.189
55.28000 16.223
55.32000 13.319
55.36000 19.354
55.40000 9.116
55.44000 19.317
55.48000 13.249
55.52000 8.161
55.56000 16.100
55.60000 13.075
55.64000 13.073
55.68000 13.253
55.72000 9.156
55.76000 12.243
55.80000 7.998
55.84000 12.107
55.88000 12.212
55.92000 18.201
55.96000 12.239
56.00000 13.175
56.04000 9.014
56.08000 9.123
56.12000 14.206
56.16000 16.315
56.20000 18.060
56.24000 14.176
56.28000 10.133
56.32000 10.098
56.36000 11.037
56.40000 12.113
56.44000 14.127
56.48000 13.122
56.52000 16.373
56.56000 10.308
56.60000 9.157
56.64000 14.164
56.68000 13.230
56.72000 11.214
56.76000 14.231
56.80000 14.347
56.84000 13.295
56.88000 4.033
56.92000 12.984
56.96000 8.052
57.00000 8.976
57.04000 12.113
57.08000 16.248
57.12000 10.219
57.16000 13.103
57.20000 13.131
57.24000 11.166
57.28000 8.075
57.32000 18.347
57.36000 9.045
57.40000 11.075
57.44000 13.243
57.48000 9.063
57.52000 13.179
57.56000 15.259
57.60000 9.145
57.64000 12.109
57.68000 13.171
57.72000 13.318
57.76000 10.249
57.80000 7.070
57.84000 10.125
57.88000 16.251
57.92000 9.079
57.96000 13.297
58.00000 11.098
58.04000 12.177
58.08000 10.166
58.12000 14.177
58.16000 11.240
58.20000 13.107
58.24000 13.134
58.28000 7.075
58.32000 9.116
58.36000 18.311
58.40000 8.170
58.44000 10.089
58.48000 11.108
58.52000 12.098
58.56000 7.989
58.60000 15.357
58.64000 16.216
58.68000 16.194
58.72000 3.943
58.76000 12.206
58.80000 8.151
58.84000 10.311
58.88000 9.163
58.92000 7.203
58.96000 16.249
59.00000 8.141
59.04000 15.317
59.08000 8.132
59.12000 8.138
59.16000 16.423
59.20000 9.170
59.24000 7.213
59.28000 7.051
59.32000 5.980
59.36000 15.249
59.40000 10.202
59.44000 9.210
59.48000 8.091
59.52000 12.108
59.56000 7.099
59.60000 6.037
59.64000 8.091
59.68000 11.173
59.72000 7.255
59.76000 8.067
59.80000 18.318
59.84000 6.095
59.88000 12.043
59.92000 9.190
59.96000 14.148
60.00000 13.330
60.04000 8.961
60.08000 6.065
60.12000 11.948
60.16000 16.168
60.20000 8.140
60.24000 7.110
60.28000 8.059
60.32000 5.057
60.36000 14.082
60.40000 10.997
60.44000 11.082
60.48000 10.013
60.52000 7.099
60.56000 6.151
60.60000 9.187
60.64000 4.073
60.68000 6.020
60.72000 10.142
60.76000 11.199
60.80000 12.029
60.84000 12.167
60.88000 7.056
60.92000 14.092
60.96000 10.011
61.00000 9.123
61.04000 8.001
61.08000 11.321
61.12000 10.275
61.16000 14.203
61.20000 11.029
61.24000 11.153
61.28000 8.110
61.32000 13.009
61.36000 11.254
61.40000 9.149
61.44000 10.039
61.48000 4.009
61.52000 7.108
61.56000 9.131
61.60000 8.131
61.64000 14.125
61.68000 4.001
61.72000 5.109
61.76000 8.198
61.80000 8.141
61.84000 9.075
61.88000 6.102
61.92000 5.976
61.96000 16.219
62.00000 2.058
62.04000 4.067
62.08000 9.217
62.12000 10.229
62.16000 11.137
62.20000 10.110
62.24000 8.150
62.28000 6.030
62.32000 7.143
62.36000 4.995
62.40000 6.131
62.44000 6.087
62.48000 12.276
62.52000 9.106
62.56000 9.066
62.60000 2.996
62.64000 4.009
62.68000 5.036
62.72000 4.102
62.76000 5.132
62.80000 7.103
62.84000 9.035
62.88000 9.063
62.92000 3.974
62.96000 8.014
63.00000 7.144
63.04000 7.979
63.08000 10.091
63.12000 8.098
63.16000 7.239
63.20000 15.244
63.24000 6.128
63.28000 3.066
63.32000 11.166
63.36000 11.230
63.40000 9.058
63.44000 9.129
63.48000 9.080
63.52000 8.063
63.56000 7.070
63.60000 12.187
63.64000 7.040
63.68000 8.235
63.72000 13.155
63.76000 11.131
63.80000 9.080
63.84000 7.162
63.88000 4.118
63.92000 11.147
63.96000 7.026
64.00000 9.108
64.04000 7.044
64.08000 11.227
64.12000 10.127
64.16000 9.059
64.20000 9.047
64.24000 3.092
64.28000 8.043
64.32000 6.049
64.36000 7.140
64.40000 14.116
64.44000 4.039
64.48000 10.054
64.52000 8.137
64.56000 5.022
64.60000 11.109
64.64000 5.984
64.68000 13.119
64.72000 14.133
64.76000 4.123
64.80000 7.070
64.84000 7.061
64.88000 6.061
64.92000 4.075
64.96000 10.297
65.00000 6.011