File: XRD/XRD/11-09-2025/XY Data/01092025_BTO_omega_1_001_21_7-794_-9-773.xy
20.00000 17.249
20.04000 15.305
20.08000 17.128
20.12000 22.396
20.16000 8.971
20.20000 18.252
20.24000 16.217
20.28000 12.148
20.32000 20.342
20.36000 16.106
20.40000 23.576
20.44000 17.213
20.48000 13.983
20.52000 23.320
20.56000 26.323
20.60000 22.241
20.64000 13.211
20.68000 15.292
20.72000 18.300
20.76000 18.147
20.80000 14.080
20.84000 16.211
20.88000 14.133
20.92000 18.271
20.96000 22.304
21.00000 22.474
21.04000 18.146
21.08000 18.150
21.12000 17.132
21.16000 25.220
21.20000 21.358
21.24000 18.283
21.28000 9.175
21.32000 10.154
21.36000 16.405
21.40000 15.155
21.44000 13.131
21.48000 16.191
21.52000 13.207
21.56000 10.055
21.60000 17.270
21.64000 17.316
21.68000 15.103
21.72000 26.501
21.76000 18.065
21.80000 17.198
21.84000 11.063
21.88000 21.131
21.92000 17.357
21.96000 22.266
22.00000 19.229
22.04000 17.194
22.08000 8.228
22.12000 20.254
22.16000 16.322
22.20000 20.236
22.24000 14.231
22.28000 15.131
22.32000 16.285
22.36000 14.167
22.40000 11.164
22.44000 13.113
22.48000 16.330
22.52000 9.175
22.56000 18.499
22.60000 12.264
22.64000 15.398
22.68000 20.384
22.72000 13.137
22.76000 12.051
22.80000 18.152
22.84000 5.057
22.88000 16.118
22.92000 16.280
22.96000 10.203
23.00000 15.034
23.04000 17.195
23.08000 13.175
23.12000 16.229
23.16000 12.273
23.20000 15.168
23.24000 14.137
23.28000 8.035
23.32000 9.010
23.36000 17.189
23.40000 10.083
23.44000 10.120
23.48000 15.246
23.52000 18.368
23.56000 22.314
23.60000 13.115
23.64000 13.140
23.68000 10.115
23.72000 19.230
23.76000 16.904
23.80000 12.111
23.84000 9.022
23.88000 11.147
23.92000 17.425
23.96000 12.223
24.00000 9.075
24.04000 9.026
24.08000 11.189
24.12000 12.109
24.16000 14.135
24.20000 13.234
24.24000 14.213
24.28000 12.132
24.32000 13.278
24.36000 18.338
24.40000 13.121
24.44000 14.070
24.48000 12.038
24.52000 13.152
24.56000 17.250
24.60000 12.143
24.64000 12.022
24.68000 6.194
24.72000 12.165
24.76000 9.192
24.80000 11.035
24.84000 13.295
24.88000 5.077
24.92000 9.127
24.96000 18.257
25.00000 16.287
25.04000 13.228
25.08000 14.339
25.12000 14.287
25.16000 15.164
25.20000 15.446
25.24000 10.157
25.28000 10.152
25.32000 10.077
25.36000 13.011
25.40000 9.139
25.44000 16.244
25.48000 12.364
25.52000 9.210
25.56000 9.254
25.60000 12.102
25.64000 7.011
25.68000 7.013
25.72000 11.078
25.76000 11.241
25.80000 8.080
25.84000 13.227
25.88000 17.267
25.92000 12.164
25.96000 11.099
26.00000 11.166
26.04000 8.121
26.08000 11.158
26.12000 9.056
26.16000 9.209
26.20000 15.020
26.24000 10.115
26.28000 6.062
26.32000 13.257
26.36000 7.098
26.40000 11.099
26.44000 14.131
26.48000 14.224
26.52000 16.277
26.56000 9.263
26.60000 17.188
26.64000 4.947
26.68000 8.198
26.72000 5.144
26.76000 13.050
26.80000 6.146
26.84000 3.063
26.88000 14.224
26.92000 9.067
26.96000 9.168
27.00000 5.086
27.04000 11.202
27.08000 9.115
27.12000 11.084
27.16000 11.190
27.20000 8.085
27.24000 15.289
27.28000 15.155
27.32000 5.147
27.36000 13.091
27.40000 11.076
27.44000 8.965
27.48000 8.111
27.52000 18.257
27.56000 9.183
27.60000 9.097
27.64000 11.235
27.68000 4.998
27.72000 11.158
27.76000 6.067
27.80000 5.073
27.84000 7.046
27.88000 12.269
27.92000 12.147
27.96000 5.123
28.00000 11.298
28.04000 7.184
28.08000 10.114
28.12000 10.153
28.16000 9.076
28.20000 6.041
28.24000 8.035
28.28000 6.091
28.32000 13.171
28.36000 12.095
28.40000 14.122
28.44000 11.079
28.48000 14.208
28.52000 11.121
28.56000 11.188
28.60000 5.055
28.64000 12.258
28.68000 17.373
28.72000 5.116
28.76000 8.191
28.80000 10.119
28.84000 4.015
28.88000 12.250
28.92000 7.160
28.96000 10.241
29.00000 13.123
29.04000 7.094
29.08000 9.050
29.12000 8.107
29.16000 10.087
29.20000 8.247
29.24000 6.993
29.28000 9.082
29.32000 5.045
29.36000 8.033
29.40000 7.125
29.44000 6.111
29.48000 2.084
29.52000 12.215
29.56000 8.107
29.60000 7.057
29.64000 7.057
29.68000 5.092
29.72000 7.075
29.76000 6.123
29.80000 11.274
29.84000 8.947
29.88000 7.099
29.92000 9.299
29.96000 4.022
30.00000 9.136
30.04000 8.099
30.08000 13.198
30.12000 13.216
30.16000 6.178
30.20000 6.004
30.24000 6.088
30.28000 8.102
30.32000 10.111
30.36000 5.106
30.40000 5.059
30.44000 10.095
30.48000 10.083
30.52000 4.989
30.56000 6.078
30.60000 6.025
30.64000 6.160
30.68000 6.126
30.72000 13.191
30.76000 7.147
30.80000 6.110
30.84000 6.138
30.88000 7.058
30.92000 8.197
30.96000 7.070
31.00000 11.086
31.04000 7.153
31.08000 6.099
31.12000 6.091
31.16000 8.021
31.20000 11.271
31.24000 12.194
31.28000 10.093
31.32000 10.226
31.36000 5.992
31.40000 2.994
31.44000 3.043
31.48000 11.128
31.52000 4.017
31.56000 11.103
31.60000 7.126
31.64000 14.224
31.68000 7.146
31.72000 5.001
31.76000 6.045
31.80000 10.256
31.84000 5.011
31.88000 14.076
31.92000 10.193
31.96000 6.136
32.00000 6.153
32.04000 6.185
32.08000 10.036
32.12000 7.139
32.16000 11.200
32.20000 9.157
32.24000 7.018
32.28000 10.136
32.32000 8.037
32.36000 6.193
32.40000 4.961
32.44000 9.046
32.48000 5.123
32.52000 8.133
32.56000 8.094
32.60000 11.182
32.64000 5.173
32.68000 10.204
32.72000 5.006
32.76000 8.152
32.80000 11.273
32.84000 6.174
32.88000 7.096
32.92000 6.988
32.96000 5.062
33.00000 6.063
33.04000 2.045
33.08000 5.161
33.12000 0.996
33.16000 2.099
33.20000 5.094
33.24000 6.127
33.28000 8.088
33.32000 4.086
33.36000 10.037
33.40000 13.193
33.44000 1.008
33.48000 5.075
33.52000 4.068
33.56000 7.122
33.60000 8.091
33.64000 5.989
33.68000 11.066
33.72000 7.108
33.76000 7.161
33.80000 6.193
33.84000 4.130
33.88000 2.048
33.92000 7.162
33.96000 9.163
34.00000 3.991
34.04000 4.045
34.08000 6.187
34.12000 8.125
34.16000 10.184
34.20000 6.986
34.24000 5.115
34.28000 6.099
34.32000 4.027
34.36000 6.168
34.40000 7.050
34.44000 2.045
34.48000 12.225
34.52000 4.066
34.56000 7.175
34.60000 3.113
34.64000 4.025
34.68000 3.999
34.72000 5.123
34.76000 5.031
34.80000 8.151
34.84000 3.054
34.88000 5.089
34.92000 7.090
34.96000 6.115
35.00000 8.014
35.04000 5.148
35.08000 4.088
35.12000 2.073
35.16000 5.097
35.20000 4.000
35.24000 5.063
35.28000 10.060
35.32000 5.077
35.36000 3.057
35.40000 3.045
35.44000 6.054
35.48000 1.043
35.52000 6.023
35.56000 4.036
35.60000 8.071
35.64000 5.043
35.68000 4.060
35.72000 4.054
35.76000 5.073
35.80000 8.084
35.84000 6.998
35.88000 9.117
35.92000 7.165
35.96000 9.189
36.00000 6.124
36.04000 3.989
36.08000 2.044
36.12000 5.142
36.16000 6.136
36.20000 2.024
36.24000 0.991
36.28000 6.108
36.32000 4.041
36.36000 5.006
36.40000 7.083
36.44000 2.059
36.48000 6.118
36.52000 2.000
36.56000 4.049
36.60000 0.998
36.64000 4.118
36.68000 5.966
36.72000 2.040
36.76000 7.102
36.80000 6.063
36.84000 3.052
36.88000 4.999
36.92000 5.153
36.96000 6.020
37.00000 1.980
37.04000 9.091
37.08000 1.051
37.12000 7.063
37.16000 4.026
37.20000 5.026
37.24000 5.098
37.28000 5.049
37.32000 6.964
37.36000 7.112
37.40000 5.028
37.44000 5.106
37.48000 4.051
37.52000 4.000
37.56000 6.005
37.60000 5.011
37.64000 3.025
37.68000 5.066
37.72000 5.100
37.76000 4.133
37.80000 5.036
37.84000 4.086
37.88000 4.043
37.92000 2.073
37.96000 4.027
38.00000 8.043
38.04000 3.059
38.08000 1.966
38.12000 6.029
38.16000 6.120
38.20000 2.019
38.24000 4.018
38.28000 5.134
38.32000 0.974
38.36000 2.989
38.40000 3.069
38.44000 1.065
38.48000 0.000
38.52000 5.088
38.56000 10.057
38.60000 4.066
38.64000 7.190
38.68000 4.032
38.72000 6.982
38.76000 5.074
38.80000 5.078
38.84000 7.069
38.88000 1.990
38.92000 3.113
38.96000 2.070
39.00000 0.993
39.04000 3.028
39.08000 3.011
39.12000 3.021
39.16000 4.141
39.20000 5.074
39.24000 4.014
39.28000 5.086
39.32000 2.046
39.36000 5.028
39.40000 1.025
39.44000 5.949
39.48000 1.016
39.52000 2.050
39.56000 5.011
39.60000 4.002
39.64000 2.095
39.68000 3.070
39.72000 6.176
39.76000 4.053
39.80000 1.042
39.84000 6.000
39.88000 4.045
39.92000 5.073
39.96000 5.083
40.00000 5.999
40.04000 2.072
40.08000 5.051
40.12000 2.016
40.16000 0.981
40.20000 6.094
40.24000 4.020
40.28000 2.021
40.32000 1.985
40.36000 3.989
40.40000 3.062
40.44000 2.051
40.48000 5.116
40.52000 4.004
40.56000 4.031
40.60000 2.020
40.64000 1.023
40.68000 5.009
40.72000 6.038
40.76000 4.986
40.80000 3.055
40.84000 5.057
40.88000 5.064
40.92000 0.988
40.96000 3.109
41.00000 4.076
41.04000 1.049
41.08000 1.015
41.12000 2.063
41.16000 5.020
41.20000 3.956
41.24000 1.007
41.28000 3.050
41.32000 2.036
41.36000 7.095
41.40000 5.051
41.44000 4.031
41.48000 3.036
41.52000 5.043
41.56000 4.168
41.60000 2.068
41.64000 2.002
41.68000 6.051
41.72000 3.064
41.76000 7.099
41.80000 3.057
41.84000 2.996
41.88000 0.000
41.92000 4.019
41.96000 2.058
42.00000 3.066
42.04000 2.063
42.08000 1.045
42.12000 1.016
42.16000 3.050
42.20000 4.001
42.24000 7.091
42.28000 7.074
42.32000 3.068
42.36000 6.140
42.40000 2.054
42.44000 2.083
42.48000 2.023
42.52000 4.069
42.56000 0.000
42.60000 5.045
42.64000 2.050
42.68000 0.997
42.72000 2.992
42.76000 3.155
42.80000 2.035
42.84000 1.991
42.88000 4.089
42.92000 0.000
42.96000 6.030
43.00000 4.093
43.04000 2.006
43.08000 4.122
43.12000 0.000
43.16000 4.063
43.20000 3.052
43.24000 5.086
43.28000 3.034
43.32000 4.058
43.36000 8.066
43.40000 3.033
43.44000 5.079
43.48000 1.021
43.52000 0.000
43.56000 1.025
43.60000 2.011
43.64000 1.017
43.68000 3.078
43.72000 2.025
43.76000 4.115
43.80000 1.992
43.84000 1.009
43.88000 4.139
43.92000 2.068
43.96000 4.039
44.00000 4.038
44.04000 0.000
44.08000 1.048
44.12000 4.042
44.16000 1.995
44.20000 2.005
44.24000 5.116
44.28000 3.056
44.32000 2.091
44.36000 4.017
44.40000 3.044
44.44000 4.028
44.48000 2.059
44.52000 2.970
44.56000 0.000
44.60000 0.000
44.64000 6.023
44.68000 3.030
44.72000 3.053
44.76000 0.985
44.80000 9.082
44.84000 3.088
44.88000 3.067
44.92000 2.977
44.96000 1.070
45.00000 3.024
45.04000 0.984
45.08000 6.103
45.12000 1.000
45.16000 2.984
45.20000 2.035
45.24000 0.000
45.28000 2.044
45.32000 1.012
45.36000 2.044
45.40000 3.022
45.44000 2.014
45.48000 1.976
45.52000 4.113
45.56000 1.986
45.60000 5.127
45.64000 2.046
45.68000 4.031
45.72000 4.064
45.76000 3.059
45.80000 4.051
45.84000 2.987
45.88000 1.999
45.92000 3.007
45.96000 0.000
46.00000 4.065
46.04000 2.933
46.08000 5.034
46.12000 2.029
46.16000 5.982
46.20000 1.996
46.24000 3.046
46.28000 4.052
46.32000 6.060
46.36000 3.000
46.40000 3.036
46.44000 6.173
46.48000 4.112
46.52000 2.034
46.56000 3.019
46.60000 3.072
46.64000 3.037
46.68000 2.065
46.72000 0.000
46.76000 1.019
46.80000 4.070
46.84000 5.074
46.88000 2.008
46.92000 5.036
46.96000 1.017
47.00000 2.025
47.04000 1.055
47.08000 4.017
47.12000 3.997
47.16000 5.132
47.20000 2.055
47.24000 3.082
47.28000 0.000
47.32000 1.028
47.36000 3.028
47.40000 2.986
47.44000 3.063
47.48000 0.000
47.52000 3.045
47.56000 2.035
47.60000 2.026
47.64000 1.006
47.68000 1.045
47.72000 2.050
47.76000 6.061
47.80000 2.000
47.84000 2.985
47.88000 2.986
47.92000 1.034
47.96000 1.002
48.00000 2.014
48.04000 0.985
48.08000 2.042
48.12000 4.056
48.16000 1.059
48.20000 1.006
48.24000 3.043
48.28000 3.095
48.32000 1.000
48.36000 2.001
48.40000 4.982
48.44000 2.060
48.48000 4.080
48.52000 3.042
48.56000 2.035
48.60000 4.051
48.64000 3.021
48.68000 1.997
48.72000 3.055
48.76000 3.034
48.80000 2.992
48.84000 0.000
48.88000 2.018
48.92000 1.054
48.96000 0.969
49.00000 1.032
49.04000 2.022
49.08000 1.035
49.12000 3.085
49.16000 1.029
49.20000 2.071
49.24000 3.043
49.28000 0.995
49.32000 2.044
49.36000 3.026
49.40000 0.000
49.44000 0.000
49.48000 4.039
49.52000 3.007
49.56000 3.063
49.60000 4.043
49.64000 1.975
49.68000 6.125
49.72000 4.056
49.76000 0.000
49.80000 1.030
49.84000 5.041
49.88000 3.024
49.92000 0.993
49.96000 2.005
50.00000 5.114
50.04000 0.000
50.08000 0.987
50.12000 0.988
50.16000 5.048
50.20000 6.170
50.24000 5.080
50.28000 2.049
50.32000 3.020
50.36000 3.011
50.40000 2.979
50.44000 3.022
50.48000 1.010
50.52000 1.998
50.56000 3.013
50.60000 5.021
50.64000 0.000
50.68000 1.050
50.72000 1.007
50.76000 0.000
50.80000 3.039
50.84000 1.016
50.88000 1.984
50.92000 2.001
50.96000 1.003
51.00000 3.020
51.04000 0.000
51.08000 3.117
51.12000 1.979
51.16000 3.097
51.20000 1.994
51.24000 2.003
51.28000 1.044
51.32000 3.096
51.36000 2.026
51.40000 3.070
51.44000 2.032
51.48000 1.046
51.52000 1.037
51.56000 0.983
51.60000 0.000
51.64000 0.997
51.68000 0.000
51.72000 1.085
51.76000 4.063
51.80000 3.114
51.84000 2.015
51.88000 2.094
51.92000 2.005
51.96000 1.998
52.00000 0.000
52.04000 0.989
52.08000 0.000
52.12000 1.008
52.16000 0.000
52.20000 3.032
52.24000 2.007
52.28000 1.030
52.32000 0.000
52.36000 3.012
52.40000 0.000
52.44000 6.149
52.48000 2.015
52.52000 0.993
52.56000 3.022
52.60000 0.986
52.64000 2.006
52.68000 1.988
52.72000 2.029
52.76000 2.021
52.80000 2.040
52.84000 1.009
52.88000 1.017
52.92000 2.033
52.96000 2.118
53.00000 2.026
53.04000 1.011
53.08000 0.000
53.12000 2.975
53.16000 2.063
53.20000 2.039
53.24000 0.987
53.28000 1.031
53.32000 1.022
53.36000 1.984
53.40000 1.015
53.44000 2.019
53.48000 3.037
53.52000 4.965
53.56000 2.020
53.60000 0.000
53.64000 3.011
53.68000 0.000
53.72000 0.000
53.76000 3.019
53.80000 2.036
53.84000 0.994
53.88000 1.017
53.92000 0.986
53.96000 4.013
54.00000 0.000
54.04000 0.978
54.08000 2.007
54.12000 1.020
54.16000 0.993
54.20000 1.022
54.24000 3.992
54.28000 0.000
54.32000 2.022
54.36000 0.998
54.40000 3.008
54.44000 3.999
54.48000 2.039
54.52000 0.998
54.56000 3.066
54.60000 1.997
54.64000 1.018
54.68000 0.000
54.72000 1.030
54.76000 2.984
54.80000 2.137
54.84000 0.000
54.88000 1.054
54.92000 2.092
54.96000 1.002
55.00000 3.027
55.04000 3.034
55.08000 1.998
55.12000 1.037
55.16000 0.000
55.20000 0.000
55.24000 1.016
55.28000 1.035
55.32000 2.055
55.36000 4.042
55.40000 0.996
55.44000 0.000
55.48000 0.000
55.52000 1.006
55.56000 0.000
55.60000 1.044
55.64000 3.017
55.68000 2.033
55.72000 2.030
55.76000 2.016
55.80000 1.997
55.84000 0.000
55.88000 1.046
55.92000 3.966
55.96000 0.000
56.00000 0.000
56.04000 1.037
56.08000 4.010
56.12000 2.962
56.16000 0.000
56.20000 2.006
56.24000 0.000
56.28000 0.999
56.32000 6.082
56.36000 5.077
56.40000 3.050
56.44000 1.002
56.48000 1.020
56.52000 2.967
56.56000 1.998
56.60000 5.040
56.64000 0.000
56.68000 0.000
56.72000 2.041
56.76000 2.012
56.80000 2.010
56.84000 5.086
56.88000 0.000
56.92000 1.014
56.96000 2.991
57.00000 1.967
57.04000 2.023
57.08000 1.080
57.12000 1.070
57.16000 4.060
57.20000 0.000
57.24000 0.000
57.28000 1.000
57.32000 1.982
57.36000 3.993
57.40000 2.043
57.44000 1.023
57.48000 0.000
57.52000 5.037
57.56000 1.026
57.60000 2.032
57.64000 0.000
57.68000 2.053
57.72000 1.972
57.76000 0.000
57.80000 0.000
57.84000 0.000
57.88000 2.013
57.92000 1.013
57.96000 0.000
58.00000 0.000
58.04000 1.013
58.08000 0.000
58.12000 2.942
58.16000 3.051
58.20000 2.083
58.24000 0.984
58.28000 2.985
58.32000 1.013
58.36000 1.973
58.40000 4.035
58.44000 0.000
58.48000 1.983
58.52000 1.029
58.56000 2.991
58.60000 0.000
58.64000 0.000
58.68000 1.007
58.72000 1.010
58.76000 0.988
58.80000 5.097
58.84000 1.000
58.88000 0.000
58.92000 0.000
58.96000 2.045
59.00000 1.996
59.04000 2.079
59.08000 0.000
59.12000 2.040
59.16000 0.000
59.20000 3.017
59.24000 1.015
59.28000 1.006
59.32000 4.042
59.36000 0.968
59.40000 0.998
59.44000 1.064
59.48000 0.000
59.52000 3.010
59.56000 1.982
59.60000 3.050
59.64000 3.029
59.68000 1.993
59.72000 2.073
59.76000 0.980
59.80000 4.042
59.84000 0.995
59.88000 0.000
59.92000 1.023
59.96000 0.981
60.00000 2.037
60.04000 0.000
60.08000 2.034
60.12000 2.057
60.16000 2.063
60.20000 3.023
60.24000 0.989
60.28000 0.994
60.32000 2.090
60.36000 2.033
60.40000 2.990
60.44000 0.000
60.48000 1.971
60.52000 1.058
60.56000 2.045
60.60000 1.035
60.64000 0.000
60.68000 1.041
60.72000 0.000
60.76000 0.000
60.80000 2.032
60.84000 1.025
60.88000 1.006
60.92000 3.048
60.96000 0.000
61.00000 0.000
61.04000 1.977
61.08000 0.994
61.12000 1.034
61.16000 2.073
61.20000 1.970
61.24000 0.000
61.28000 2.112
61.32000 0.000
61.36000 0.000
61.40000 0.000
61.44000 0.993
61.48000 0.000
61.52000 1.011
61.56000 0.982
61.60000 2.053
61.64000 1.966
61.68000 0.000
61.72000 0.000
61.76000 3.014
61.80000 0.993
61.84000 0.978
61.88000 0.996
61.92000 2.020
61.96000 0.000
62.00000 0.000
62.04000 1.000
62.08000 0.000
62.12000 0.000
62.16000 0.000
62.20000 0.000
62.24000 2.053
62.28000 1.008
62.32000 2.045
62.36000 0.000
62.40000 1.009
62.44000 0.000
62.48000 3.080
62.52000 1.987
62.56000 1.995
62.60000 1.989
62.64000 4.120
62.68000 0.000
62.72000 0.000
62.76000 0.000
62.80000 4.049
62.84000 1.005
62.88000 0.998
62.92000 0.000
62.96000 1.024
63.00000 0.980
63.04000 2.059
63.08000 0.976
63.12000 2.066
63.16000 2.044
63.20000 1.011
63.24000 1.014
63.28000 1.020
63.32000 3.001
63.36000 0.000
63.40000 1.057
63.44000 1.042
63.48000 1.040
63.52000 2.990
63.56000 1.023
63.60000 0.983
63.64000 1.006
63.68000 1.985
63.72000 3.023
63.76000 2.021
63.80000 1.975
63.84000 2.012
63.88000 2.022
63.92000 3.042
63.96000 4.004
64.00000 1.011
64.04000 1.003
64.08000 1.057
64.12000 2.001
64.16000 1.004
64.20000 0.983
64.24000 1.002
64.28000 3.091
64.32000 0.991
64.36000 0.000
64.40000 0.982
64.44000 2.036
64.48000 2.004
64.52000 1.011
64.56000 0.000
64.60000 1.027
64.64000 0.000
64.68000 1.020
64.72000 1.011
64.76000 0.000
64.80000 2.038
64.84000 1.034
64.88000 0.988
64.92000 2.028
64.96000 0.992
65.00000 0.000