File: XRD/08-10-2025 Dep 7/XY Data/BTO_Mapping_Theta2Theta_08-10-2025_001_48_-3-136_-29-836.xy
20.00000 486.142
20.04000 467.265
20.08000 480.643
20.12000 482.232
20.16000 474.442
20.20000 473.320
20.24000 453.410
20.28000 493.311
20.32000 459.453
20.36000 464.297
20.40000 488.270
20.44000 473.252
20.48000 474.869
20.52000 461.002
20.56000 471.541
20.60000 465.399
20.64000 471.058
20.68000 472.638
20.72000 459.868
20.76000 463.950
20.80000 474.401
20.84000 452.138
20.88000 482.827
20.92000 474.589
20.96000 478.218
21.00000 469.929
21.04000 469.742
21.08000 463.018
21.12000 475.791
21.16000 444.341
21.20000 457.330
21.24000 456.680
21.28000 459.933
21.32000 481.004
21.36000 470.718
21.40000 466.383
21.44000 460.223
21.48000 471.786
21.52000 472.935
21.56000 470.093
21.60000 457.500
21.64000 473.642
21.68000 464.438
21.72000 462.859
21.76000 467.092
21.80000 483.839
21.84000 493.260
21.88000 512.249
21.92000 522.774
21.96000 547.867
22.00000 550.042
22.04000 568.684
22.08000 564.620
22.12000 552.190
22.16000 529.841
22.20000 496.994
22.24000 512.645
22.28000 500.548
22.32000 499.944
22.36000 476.682
22.40000 478.972
22.44000 469.225
22.48000 461.305
22.52000 458.862
22.56000 437.284
22.60000 454.495
22.64000 463.974
22.68000 431.202
22.72000 459.389
22.76000 445.160
22.80000 435.152
22.84000 430.802
22.88000 435.980
22.92000 442.287
22.96000 427.264
23.00000 434.062
23.04000 451.204
23.08000 457.812
23.12000 440.656
23.16000 424.045
23.20000 434.109
23.24000 451.891
23.28000 427.237
23.32000 447.838
23.36000 417.146
23.40000 428.076
23.44000 433.750
23.48000 422.869
23.52000 427.684
23.56000 422.482
23.60000 430.493
23.64000 438.381
23.68000 455.114
23.72000 428.056
23.76000 470.260
23.80000 469.321
23.84000 457.962
23.88000 475.247
23.92000 493.628
23.96000 519.147
24.00000 481.017
24.04000 482.274
24.08000 471.458
24.12000 479.666
24.16000 467.074
24.20000 450.321
24.24000 455.245
24.28000 446.361
24.32000 438.022
24.36000 423.742
24.40000 406.458
24.44000 406.064
24.48000 416.741
24.52000 410.226
24.56000 421.003
24.60000 426.973
24.64000 423.709
24.68000 402.583
24.72000 416.372
24.76000 415.878
24.80000 409.566
24.84000 397.656
24.88000 394.400
24.92000 398.616
24.96000 414.447
25.00000 387.350
25.04000 409.952
25.08000 393.905
25.12000 404.881
25.16000 407.175
25.20000 386.752
25.24000 419.039
25.28000 423.944
25.32000 405.495
25.36000 396.009
25.40000 409.377
25.44000 394.630
25.48000 403.227
25.52000 406.653
25.56000 390.241
25.60000 418.989
25.64000 381.159
25.68000 398.815
25.72000 407.561
25.76000 396.040
25.80000 393.924
25.84000 389.785
25.88000 392.742
25.92000 389.485
25.96000 382.535
26.00000 386.712
26.04000 384.141
26.08000 381.716
26.12000 400.641
26.16000 380.845
26.20000 399.952
26.24000 388.643
26.28000 375.528
26.32000 397.132
26.36000 386.612
26.40000 398.408
26.44000 380.916
26.48000 365.195
26.52000 379.389
26.56000 374.807
26.60000 389.043
26.64000 384.143
26.68000 399.590
26.72000 381.557
26.76000 386.434
26.80000 386.532
26.84000 395.032
26.88000 388.637
26.92000 391.327
26.96000 364.580
27.00000 384.276
27.04000 373.377
27.08000 380.027
27.12000 356.306
27.16000 371.342
27.20000 381.681
27.24000 373.101
27.28000 361.597
27.32000 374.551
27.36000 370.144
27.40000 379.732
27.44000 375.647
27.48000 375.036
27.52000 382.773
27.56000 378.834
27.60000 389.213
27.64000 367.763
27.68000 378.196
27.72000 383.033
27.76000 379.472
27.80000 373.956
27.84000 377.143
27.88000 376.896
27.92000 365.562
27.96000 350.976
28.00000 365.635
28.04000 353.596
28.08000 355.251
28.12000 349.107
28.16000 370.565
28.20000 373.581
28.24000 374.536
28.28000 356.168
28.32000 364.706
28.36000 364.218
28.40000 359.098
28.44000 368.651
28.48000 362.097
28.52000 372.053
28.56000 364.213
28.60000 360.681
28.64000 359.431
28.68000 359.837
28.72000 368.063
28.76000 343.224
28.80000 363.046
28.84000 338.871
28.88000 358.001
28.92000 361.701
28.96000 351.301
29.00000 364.708
29.04000 368.405
29.08000 351.978
29.12000 357.707
29.16000 356.436
29.20000 362.364
29.24000 344.848
29.28000 349.229
29.32000 360.151
29.36000 352.968
29.40000 341.947
29.44000 352.826
29.48000 361.195
29.52000 354.954
29.56000 343.216
29.60000 342.872
29.64000 345.951
29.68000 336.338
29.72000 369.210
29.76000 342.849
29.80000 366.372
29.84000 378.733
29.88000 380.468
29.92000 380.755
29.96000 385.163
30.00000 370.585
30.04000 376.451
30.08000 357.650
30.12000 365.254
30.16000 367.113
30.20000 364.927
30.24000 370.973
30.28000 364.498
30.32000 370.370
30.36000 357.636
30.40000 339.161
30.44000 358.738
30.48000 357.785
30.52000 357.084
30.56000 363.175
30.60000 364.095
30.64000 358.172
30.68000 369.638
30.72000 356.475
30.76000 363.674
30.80000 368.269
30.84000 384.483
30.88000 393.633
30.92000 414.020
30.96000 433.573
31.00000 445.879
31.04000 509.676
31.08000 563.711
31.12000 675.961
31.16000 782.468
31.20000 905.826
31.24000 1014.690
31.28000 1120.117
31.32000 1205.553
31.36000 1227.648
31.40000 1198.728
31.44000 1110.157
31.48000 979.655
31.52000 835.609
31.56000 734.370
31.60000 601.990
31.64000 515.942
31.68000 483.290
31.72000 432.034
31.76000 398.400
31.80000 391.797
31.84000 374.583
31.88000 365.907
31.92000 359.154
31.96000 334.762
32.00000 344.545
32.04000 343.493
32.08000 344.396
32.12000 326.154
32.16000 336.460
32.20000 326.249
32.24000 337.453
32.28000 335.104
32.32000 330.308
32.36000 329.141
32.40000 331.687
32.44000 322.854
32.48000 316.653
32.52000 303.910
32.56000 312.906
32.60000 310.480
32.64000 309.360
32.68000 300.324
32.72000 311.437
32.76000 303.637
32.80000 316.744
32.84000 311.927
32.88000 332.119
32.92000 318.673
32.96000 309.045
33.00000 333.712
33.04000 308.375
33.08000 313.033
33.12000 302.797
33.16000 298.010
33.20000 302.405
33.24000 296.742
33.28000 310.084
33.32000 307.409
33.36000 301.586
33.40000 297.433
33.44000 290.273
33.48000 306.283
33.52000 297.990
33.56000 301.813
33.60000 312.452
33.64000 291.285
33.68000 286.047
33.72000 298.146
33.76000 311.357
33.80000 293.144
33.84000 294.534
33.88000 307.068
33.92000 307.069
33.96000 320.268
34.00000 318.564
34.04000 302.899
34.08000 318.027
34.12000 332.790
34.16000 351.963
34.20000 353.653
34.24000 363.547
34.28000 351.500
34.32000 352.645
34.36000 355.285
34.40000 349.797
34.44000 352.128
34.48000 333.655
34.52000 330.685
34.56000 323.336
34.60000 328.390
34.64000 321.588
34.68000 317.607
34.72000 315.309
34.76000 306.753
34.80000 294.445
34.84000 281.395
34.88000 280.668
34.92000 283.340
34.96000 273.664
35.00000 290.195
35.04000 266.573
35.08000 287.596
35.12000 272.048
35.16000 263.174
35.20000 267.972
35.24000 274.735
35.28000 259.357
35.32000 252.122
35.36000 280.757
35.40000 270.339
35.44000 270.446
35.48000 277.883
35.52000 259.150
35.56000 269.451
35.60000 277.663
35.64000 259.071
35.68000 262.959
35.72000 267.760
35.76000 263.999
35.80000 272.257
35.84000 266.031
35.88000 268.846
35.92000 249.782
35.96000 264.240
36.00000 254.397
36.04000 263.931
36.08000 255.306
36.12000 261.616
36.16000 253.205
36.20000 254.974
36.24000 264.237
36.28000 263.143
36.32000 257.294
36.36000 254.593
36.40000 253.538
36.44000 266.070
36.48000 267.389
36.52000 258.799
36.56000 267.263
36.60000 266.321
36.64000 253.763
36.68000 255.899
36.72000 272.118
36.76000 270.422
36.80000 274.526
36.84000 283.118
36.88000 290.962
36.92000 294.511
36.96000 286.150
37.00000 312.320
37.04000 297.287
37.08000 283.967
37.12000 275.508
37.16000 274.405
37.20000 282.332
37.24000 283.865
37.28000 256.332
37.32000 268.464
37.36000 255.850
37.40000 253.675
37.44000 272.296
37.48000 255.794
37.52000 260.031
37.56000 259.588
37.60000 266.046
37.64000 249.650
37.68000 264.017
37.72000 244.771
37.76000 255.844
37.80000 263.455
37.84000 252.116
37.88000 256.457
37.92000 256.416
37.96000 263.231
38.00000 260.737
38.04000 266.461
38.08000 281.537
38.12000 272.689
38.16000 277.675
38.20000 295.215
38.24000 301.227
38.28000 329.240
38.32000 332.765
38.36000 406.507
38.40000 496.359
38.44000 571.941
38.48000 694.572
38.52000 848.344
38.56000 966.379
38.60000 1113.274
38.64000 1191.870
38.68000 1274.361
38.72000 1272.602
38.76000 1231.178
38.80000 1097.761
38.84000 967.214
38.88000 820.561
38.92000 658.831
38.96000 510.929
39.00000 417.385
39.04000 340.556
39.08000 321.714
39.12000 283.430
39.16000 271.903
39.20000 256.177
39.24000 253.481
39.28000 237.362
39.32000 255.253
39.36000 240.529
39.40000 240.055
39.44000 234.600
39.48000 235.257
39.52000 238.701
39.56000 242.794
39.60000 241.035
39.64000 219.125
39.68000 229.595
39.72000 233.496
39.76000 240.302
39.80000 237.570
39.84000 234.716
39.88000 218.185
39.92000 225.882
39.96000 235.108
40.00000 224.120
40.04000 228.677
40.08000 225.901
40.12000 233.768
40.16000 234.763
40.20000 224.138
40.24000 226.683
40.28000 222.538
40.32000 223.005
40.36000 211.796
40.40000 217.912
40.44000 216.920
40.48000 215.642
40.52000 217.353
40.56000 218.336
40.60000 223.792
40.64000 213.927
40.68000 210.628
40.72000 218.275
40.76000 224.215
40.80000 222.446
40.84000 214.558
40.88000 204.390
40.92000 208.090
40.96000 207.063
41.00000 209.315
41.04000 213.157
41.08000 206.125
41.12000 210.118
41.16000 217.200
41.20000 207.313
41.24000 211.267
41.28000 220.555
41.32000 212.042
41.36000 218.350
41.40000 215.473
41.44000 213.463
41.48000 210.579
41.52000 215.797
41.56000 206.298
41.60000 207.424
41.64000 218.703
41.68000 210.493
41.72000 229.665
41.76000 208.328
41.80000 209.222
41.84000 209.458
41.88000 209.415
41.92000 209.895
41.96000 221.153
42.00000 207.939
42.04000 203.889
42.08000 210.992
42.12000 218.444
42.16000 210.206
42.20000 220.192
42.24000 211.759
42.28000 217.484
42.32000 220.771
42.36000 212.590
42.40000 219.042
42.44000 209.707
42.48000 208.163
42.52000 203.674
42.56000 204.206
42.60000 220.477
42.64000 211.978
42.68000 216.288
42.72000 212.835
42.76000 210.599
42.80000 197.852
42.84000 199.426
42.88000 199.692
42.92000 204.987
42.96000 187.949
43.00000 201.089
43.04000 195.856
43.08000 192.362
43.12000 198.666
43.16000 188.995
43.20000 203.619
43.24000 196.769
43.28000 198.589
43.32000 194.018
43.36000 197.768
43.40000 193.318
43.44000 193.231
43.48000 185.534
43.52000 189.087
43.56000 196.894
43.60000 201.750
43.64000 200.367
43.68000 180.228
43.72000 199.858
43.76000 187.730
43.80000 184.218
43.84000 185.101
43.88000 190.960
43.92000 181.684
43.96000 196.792
44.00000 183.396
44.04000 195.857
44.08000 193.718
44.12000 193.951
44.16000 205.058
44.20000 185.338
44.24000 197.068
44.28000 196.463
44.32000 198.193
44.36000 194.414
44.40000 209.543
44.44000 217.176
44.48000 208.812
44.52000 209.944
44.56000 210.647
44.60000 221.636
44.64000 235.903
44.68000 240.554
44.72000 239.346
44.76000 237.077
44.80000 240.659
44.84000 262.924
44.88000 262.961
44.92000 264.991
44.96000 278.333
45.00000 283.960
45.04000 282.179
45.08000 282.744
45.12000 268.630
45.16000 260.770
45.20000 245.585
45.24000 249.374
45.28000 238.343
45.32000 231.113
45.36000 230.157
45.40000 222.939
45.44000 208.714
45.48000 211.215
45.52000 206.167
45.56000 211.234
45.60000 201.913
45.64000 188.651
45.68000 200.454
45.72000 189.486
45.76000 194.534
45.80000 189.953
45.84000 191.862
45.88000 172.956
45.92000 176.612
45.96000 179.792
46.00000 187.296
46.04000 184.298
46.08000 191.375
46.12000 184.328
46.16000 177.932
46.20000 180.881
46.24000 190.681
46.28000 185.148
46.32000 172.079
46.36000 177.134
46.40000 171.862
46.44000 175.703
46.48000 184.589
46.52000 172.520
46.56000 176.984
46.60000 165.410
46.64000 182.869
46.68000 183.565
46.72000 169.564
46.76000 174.056
46.80000 168.434
46.84000 175.521
46.88000 175.596
46.92000 163.013
46.96000 174.714
47.00000 181.559
47.04000 174.701
47.08000 173.235
47.12000 177.960
47.16000 163.413
47.20000 168.909
47.24000 177.385
47.28000 172.104
47.32000 162.954
47.36000 164.827
47.40000 179.011
47.44000 179.317
47.48000 164.403
47.52000 162.709
47.56000 164.141
47.60000 158.528
47.64000 165.835
47.68000 166.921
47.72000 156.072
47.76000 148.334
47.80000 164.901
47.84000 164.723
47.88000 156.493
47.92000 161.052
47.96000 167.195
48.00000 164.632
48.04000 158.141
48.08000 157.142
48.12000 157.588
48.16000 156.518
48.20000 158.006
48.24000 157.414
48.28000 163.007
48.32000 162.903
48.36000 165.518
48.40000 160.031
48.44000 169.668
48.48000 153.620
48.52000 154.290
48.56000 147.698
48.60000 151.174
48.64000 165.043
48.68000 167.717
48.72000 160.786
48.76000 159.005
48.80000 162.022
48.84000 165.595
48.88000 155.848
48.92000 148.857
48.96000 160.122
49.00000 163.973
49.04000 157.767
49.08000 167.274
49.12000 143.637
49.16000 156.721
49.20000 172.702
49.24000 153.226
49.28000 147.059
49.32000 160.199
49.36000 145.278
49.40000 138.259
49.44000 149.423
49.48000 151.919
49.52000 153.458
49.56000 150.885
49.60000 151.003
49.64000 152.469
49.68000 153.224
49.72000 141.628
49.76000 153.314
49.80000 158.818
49.84000 154.219
49.88000 158.849
49.92000 162.878
49.96000 152.028
50.00000 161.656
50.04000 160.083
50.08000 149.570
50.12000 149.786
50.16000 166.282
50.20000 153.206
50.24000 152.595
50.28000 156.921
50.32000 162.709
50.36000 155.113
50.40000 174.744
50.44000 160.776
50.48000 180.757
50.52000 180.932
50.56000 185.876
50.60000 186.769
50.64000 174.746
50.68000 176.032
50.72000 179.881
50.76000 168.106
50.80000 169.642
50.84000 163.268
50.88000 175.136
50.92000 155.908
50.96000 156.476
51.00000 165.073
51.04000 147.881
51.08000 148.309
51.12000 155.693
51.16000 153.299
51.20000 155.659
51.24000 141.462
51.28000 151.690
51.32000 156.963
51.36000 140.650
51.40000 146.530
51.44000 153.251
51.48000 144.666
51.52000 156.288
51.56000 150.239
51.60000 149.147
51.64000 137.352
51.68000 145.108
51.72000 144.877
51.76000 136.644
51.80000 141.589
51.84000 147.048
51.88000 153.964
51.92000 139.469
51.96000 146.043
52.00000 144.849
52.04000 138.963
52.08000 136.084
52.12000 139.147
52.16000 137.215
52.20000 140.936
52.24000 142.267
52.28000 138.244
52.32000 147.314
52.36000 145.028
52.40000 131.772
52.44000 143.039
52.48000 140.512
52.52000 147.088
52.56000 132.098
52.60000 144.054
52.64000 137.339
52.68000 142.440
52.72000 133.756
52.76000 131.824
52.80000 136.976
52.84000 147.010
52.88000 139.471
52.92000 145.445
52.96000 135.977
53.00000 151.550
53.04000 142.540
53.08000 146.190
53.12000 152.819
53.16000 149.574
53.20000 162.720
53.24000 156.947
53.28000 169.428
53.32000 162.434
53.36000 154.535
53.40000 166.030
53.44000 167.244
53.48000 164.438
53.52000 163.583
53.56000 151.910
53.60000 151.860
53.64000 161.526
53.68000 153.664
53.72000 154.894
53.76000 144.691
53.80000 144.770
53.84000 153.098
53.88000 144.788
53.92000 155.006
53.96000 151.180
54.00000 152.756
54.04000 146.729
54.08000 155.148
54.12000 131.699
54.16000 143.832
54.20000 135.705
54.24000 148.655
54.28000 142.965
54.32000 135.651
54.36000 145.216
54.40000 140.877
54.44000 144.519
54.48000 139.389
54.52000 142.559
54.56000 148.610
54.60000 142.736
54.64000 149.912
54.68000 148.420
54.72000 160.666
54.76000 143.976
54.80000 150.321
54.84000 147.364
54.88000 142.215
54.92000 152.366
54.96000 148.105
55.00000 148.580
55.04000 147.539
55.08000 140.982
55.12000 149.656
55.16000 155.585
55.20000 145.963
55.24000 174.943
55.28000 166.397
55.32000 165.728
55.36000 182.633
55.40000 202.722
55.44000 220.147
55.48000 250.805
55.52000 281.048
55.56000 334.027
55.60000 382.224
55.64000 452.779
55.68000 532.234
55.72000 566.919
55.76000 640.836
55.80000 693.630
55.84000 724.432
55.88000 763.016
55.92000 748.683
55.96000 698.160
56.00000 685.911
56.04000 637.075
56.08000 542.244
56.12000 476.919
56.16000 411.173
56.20000 358.632
56.24000 309.314
56.28000 274.815
56.32000 236.696
56.36000 208.337
56.40000 193.573
56.44000 183.127
56.48000 172.397
56.52000 150.226
56.56000 145.076
56.60000 147.706
56.64000 148.039
56.68000 139.814
56.72000 142.595
56.76000 133.721
56.80000 126.992
56.84000 129.313
56.88000 141.681
56.92000 133.576
56.96000 126.265
57.00000 120.597
57.04000 138.644
57.08000 128.045
57.12000 130.898
57.16000 126.748
57.20000 133.106
57.24000 133.861
57.28000 126.718
57.32000 129.335
57.36000 128.317
57.40000 123.338
57.44000 132.870
57.48000 126.325
57.52000 135.334
57.56000 126.476
57.60000 130.961
57.64000 133.047
57.68000 136.246
57.72000 126.637
57.76000 128.289
57.80000 128.727
57.84000 125.776
57.88000 123.623
57.92000 128.239
57.96000 118.365
58.00000 115.212
58.04000 122.420
58.08000 121.700
58.12000 124.048
58.16000 122.983
58.20000 126.721
58.24000 115.253
58.28000 119.402
58.32000 126.006
58.36000 127.763
58.40000 127.913
58.44000 128.072
58.48000 117.113
58.52000 122.705
58.56000 128.461
58.60000 120.661
58.64000 117.424
58.68000 119.185
58.72000 125.583
58.76000 125.839
58.80000 123.897
58.84000 128.832
58.88000 124.214
58.92000 118.419
58.96000 119.371
59.00000 121.495
59.04000 119.371
59.08000 117.590
59.12000 116.311
59.16000 124.852
59.20000 119.819
59.24000 124.367
59.28000 116.670
59.32000 117.172
59.36000 119.203
59.40000 123.512
59.44000 116.796
59.48000 125.848
59.52000 117.500
59.56000 125.437
59.60000 119.407
59.64000 118.886
59.68000 110.665
59.72000 112.358
59.76000 114.605
59.80000 118.376
59.84000 123.061
59.88000 119.588
59.92000 116.021
59.96000 118.847
60.00000 115.230
60.04000 123.384
60.08000 120.213
60.12000 115.446
60.16000 116.032
60.20000 114.768
60.24000 104.446
60.28000 125.977
60.32000 104.469
60.36000 128.769
60.40000 120.510
60.44000 118.008
60.48000 117.447
60.52000 119.490
60.56000 108.322
60.60000 112.937
60.64000 111.560
60.68000 120.649
60.72000 120.919
60.76000 113.947
60.80000 117.950
60.84000 111.586
60.88000 118.881
60.92000 121.528
60.96000 129.354
61.00000 119.641
61.04000 120.831
61.08000 122.885
61.12000 122.894
61.16000 114.248
61.20000 123.694
61.24000 122.200
61.28000 120.857
61.32000 113.785
61.36000 120.347
61.40000 125.900
61.44000 122.593
61.48000 123.819
61.52000 147.175
61.56000 189.006
61.60000 245.165
61.64000 280.390
61.68000 284.675
61.72000 308.613
61.76000 278.746
61.80000 218.650
61.84000 191.605
61.88000 148.959
61.92000 125.185
61.96000 127.969
62.00000 113.828
62.04000 116.877
62.08000 128.494
62.12000 126.308
62.16000 120.493
62.20000 124.668
62.24000 125.762
62.28000 125.443
62.32000 123.570
62.36000 133.914
62.40000 119.710
62.44000 123.301
62.48000 125.882
62.52000 126.648
62.56000 124.124
62.60000 121.531
62.64000 121.851
62.68000 128.029
62.72000 127.862
62.76000 133.706
62.80000 130.443
62.84000 129.834
62.88000 127.287
62.92000 131.659
62.96000 133.264
63.00000 124.793
63.04000 139.666
63.08000 133.780
63.12000 130.052
63.16000 138.437
63.20000 130.395
63.24000 122.950
63.28000 125.800
63.32000 125.776
63.36000 127.530
63.40000 126.640
63.44000 126.896
63.48000 131.269
63.52000 125.623
63.56000 143.223
63.60000 133.510
63.64000 132.397
63.68000 129.811
63.72000 133.903
63.76000 133.709
63.80000 129.967
63.84000 132.634
63.88000 143.599
63.92000 146.358
63.96000 133.960
64.00000 140.955
64.04000 138.455
64.08000 134.018
64.12000 146.202
64.16000 144.410
64.20000 150.110
64.24000 142.297
64.28000 151.061
64.32000 144.400
64.36000 152.069
64.40000 160.290
64.44000 152.310
64.48000 152.607
64.52000 155.421
64.56000 150.872
64.60000 151.784
64.64000 160.421
64.68000 163.273
64.72000 165.562
64.76000 175.402
64.80000 176.390
64.84000 176.747
64.88000 180.784
64.92000 171.538
64.96000 185.531
65.00000 189.132
65.04000 198.445
65.08000 212.698
65.12000 187.883
65.16000 212.613
65.20000 218.379
65.24000 227.675
65.28000 240.591
65.32000 252.584
65.36000 256.201
65.40000 270.601
65.44000 272.501
65.48000 279.818
65.52000 304.770
65.56000 321.968
65.60000 351.720
65.64000 416.975
65.68000 576.217
65.72000 863.829
65.76000 1358.232
65.80000 1791.032
65.84000 1941.231
65.88000 1982.209
65.92000 1864.312
65.96000 1556.765
66.00000 1038.366
66.04000 653.925
66.08000 460.501
66.12000 392.998
66.16000 354.343
66.20000 378.093
66.24000 384.150
66.28000 451.706
66.32000 532.675
66.36000 611.413
66.40000 621.096
66.44000 621.571
66.48000 613.090
66.52000 526.179
66.56000 423.566
66.60000 372.290
66.64000 349.914
66.68000 352.028
66.72000 344.241
66.76000 344.785
66.80000 343.322
66.84000 345.880
66.88000 362.685
66.92000 360.750
66.96000 371.502
67.00000 370.961
67.04000 378.712
67.08000 380.810
67.12000 383.549
67.16000 379.800
67.20000 385.392
67.24000 378.753
67.28000 400.376
67.32000 389.281
67.36000 403.487
67.40000 379.302
67.44000 395.129
67.48000 419.617
67.52000 430.804
67.56000 425.136
67.60000 424.400
67.64000 422.316
67.68000 448.759
67.72000 451.413
67.76000 445.419
67.80000 450.279
67.84000 460.457
67.88000 460.888
67.92000 458.316
67.96000 485.422
68.00000 478.914
68.04000 487.939
68.08000 496.642
68.12000 512.051
68.16000 521.512
68.20000 534.648
68.24000 542.574
68.28000 544.479
68.32000 569.292
68.36000 597.082
68.40000 601.721
68.44000 651.817
68.48000 664.974
68.52000 677.827
68.56000 730.576
68.60000 818.914
68.64000 966.928
68.68000 1100.576
68.72000 1292.665
68.76000 1474.793
68.80000 1663.583
68.84000 1855.010
68.88000 2317.916
68.92000 3672.833
68.96000 9205.455
69.00000 21415.297
69.04000 34540.129
69.08000 41456.813
69.12000 44417.160
69.16000 47402.934
69.20000 46584.488
69.24000 37386.883
69.28000 27645.244
69.32000 22859.916
69.36000 21514.238
69.40000 17834.549
69.44000 10840.015
69.48000 4937.783
69.52000 2208.715
69.56000 1376.384
69.60000 1075.554
69.64000 912.026
69.68000 800.799
69.72000 729.170
69.76000 677.091
69.80000 619.649
69.84000 581.827
69.88000 567.179
69.92000 532.625
69.96000 530.999
70.00000 512.518