File: XRD/08-10-2025 Dep 7/XY Data/BTO_Mapping_Theta2Theta_08-10-2025_001_40_-24-271_-17-634.xy
20.00000 475.276
20.04000 480.562
20.08000 486.821
20.12000 484.661
20.16000 467.929
20.20000 473.066
20.24000 472.175
20.28000 474.570
20.32000 463.152
20.36000 462.411
20.40000 465.381
20.44000 472.349
20.48000 488.362
20.52000 477.944
20.56000 475.935
20.60000 466.768
20.64000 464.148
20.68000 456.284
20.72000 469.050
20.76000 475.872
20.80000 466.495
20.84000 488.220
20.88000 463.499
20.92000 474.428
20.96000 463.098
21.00000 485.056
21.04000 484.074
21.08000 486.157
21.12000 488.023
21.16000 457.376
21.20000 464.585
21.24000 473.920
21.28000 481.519
21.32000 473.427
21.36000 491.561
21.40000 459.343
21.44000 481.436
21.48000 465.047
21.52000 476.635
21.56000 476.961
21.60000 483.038
21.64000 474.270
21.68000 494.946
21.72000 521.648
21.76000 548.009
21.80000 582.376
21.84000 625.342
21.88000 651.894
21.92000 696.947
21.96000 748.137
22.00000 765.547
22.04000 738.079
22.08000 738.690
22.12000 711.062
22.16000 654.898
22.20000 607.646
22.24000 575.301
22.28000 539.089
22.32000 511.242
22.36000 492.298
22.40000 492.041
22.44000 478.775
22.48000 480.765
22.52000 465.351
22.56000 460.620
22.60000 455.336
22.64000 442.700
22.68000 470.195
22.72000 448.819
22.76000 454.499
22.80000 451.147
22.84000 442.385
22.88000 442.990
22.92000 426.320
22.96000 421.659
23.00000 429.034
23.04000 448.219
23.08000 440.749
23.12000 422.351
23.16000 426.460
23.20000 444.243
23.24000 442.558
23.28000 432.196
23.32000 433.084
23.36000 433.305
23.40000 433.535
23.44000 436.755
23.48000 427.613
23.52000 425.529
23.56000 435.467
23.60000 426.925
23.64000 433.416
23.68000 428.569
23.72000 439.309
23.76000 444.112
23.80000 427.201
23.84000 427.482
23.88000 429.787
23.92000 428.786
23.96000 440.744
24.00000 438.065
24.04000 422.680
24.08000 420.307
24.12000 428.897
24.16000 434.917
24.20000 443.973
24.24000 423.099
24.28000 421.102
24.32000 430.866
24.36000 425.452
24.40000 414.241
24.44000 407.310
24.48000 418.625
24.52000 419.564
24.56000 410.102
24.60000 411.649
24.64000 423.719
24.68000 400.243
24.72000 400.857
24.76000 425.949
24.80000 408.986
24.84000 406.121
24.88000 428.578
24.92000 396.930
24.96000 411.017
25.00000 385.853
25.04000 397.475
25.08000 404.007
25.12000 403.300
25.16000 401.814
25.20000 391.669
25.24000 397.315
25.28000 395.918
25.32000 401.086
25.36000 397.830
25.40000 405.166
25.44000 401.140
25.48000 412.402
25.52000 404.449
25.56000 406.288
25.60000 392.224
25.64000 400.317
25.68000 391.804
25.72000 395.495
25.76000 400.626
25.80000 376.252
25.84000 370.449
25.88000 406.034
25.92000 398.776
25.96000 407.072
26.00000 410.693
26.04000 396.354
26.08000 390.972
26.12000 385.702
26.16000 377.622
26.20000 375.209
26.24000 371.103
26.28000 385.912
26.32000 394.411
26.36000 369.150
26.40000 388.236
26.44000 420.512
26.48000 380.183
26.52000 382.253
26.56000 393.347
26.60000 374.643
26.64000 393.541
26.68000 389.080
26.72000 389.729
26.76000 370.562
26.80000 379.921
26.84000 377.029
26.88000 382.904
26.92000 370.834
26.96000 367.258
27.00000 366.497
27.04000 373.008
27.08000 367.267
27.12000 367.391
27.16000 361.413
27.20000 375.817
27.24000 377.388
27.28000 407.452
27.32000 382.869
27.36000 370.919
27.40000 364.710
27.44000 361.468
27.48000 366.280
27.52000 374.437
27.56000 363.539
27.60000 391.444
27.64000 372.114
27.68000 374.307
27.72000 374.992
27.76000 370.533
27.80000 368.127
27.84000 368.990
27.88000 368.662
27.92000 360.869
27.96000 373.425
28.00000 381.404
28.04000 378.324
28.08000 370.785
28.12000 364.599
28.16000 373.596
28.20000 376.227
28.24000 361.034
28.28000 367.645
28.32000 380.236
28.36000 368.186
28.40000 351.459
28.44000 367.911
28.48000 358.056
28.52000 353.624
28.56000 356.162
28.60000 349.591
28.64000 355.261
28.68000 367.730
28.72000 372.088
28.76000 354.949
28.80000 348.646
28.84000 379.571
28.88000 368.978
28.92000 352.517
28.96000 356.260
29.00000 353.451
29.04000 367.611
29.08000 346.912
29.12000 346.009
29.16000 356.157
29.20000 353.121
29.24000 352.055
29.28000 354.276
29.32000 335.511
29.36000 357.682
29.40000 352.594
29.44000 350.724
29.48000 364.771
29.52000 365.279
29.56000 339.899
29.60000 363.314
29.64000 369.077
29.68000 381.329
29.72000 381.615
29.76000 394.936
29.80000 396.049
29.84000 422.159
29.88000 434.889
29.92000 432.586
29.96000 448.118
30.00000 449.417
30.04000 438.034
30.08000 434.885
30.12000 425.524
30.16000 416.791
30.20000 416.919
30.24000 414.120
30.28000 374.756
30.32000 389.514
30.36000 365.906
30.40000 394.469
30.44000 388.629
30.48000 381.847
30.52000 386.341
30.56000 381.848
30.60000 374.848
30.64000 400.235
30.68000 408.002
30.72000 377.631
30.76000 398.513
30.80000 422.515
30.84000 433.272
30.88000 465.439
30.92000 506.584
30.96000 561.739
31.00000 659.814
31.04000 851.052
31.08000 1056.626
31.12000 1331.350
31.16000 1681.807
31.20000 2016.853
31.24000 2344.569
31.28000 2630.962
31.32000 2746.999
31.36000 2771.010
31.40000 2611.143
31.44000 2307.259
31.48000 1931.746
31.52000 1569.398
31.56000 1232.403
31.60000 981.022
31.64000 774.307
31.68000 632.587
31.72000 527.462
31.76000 478.803
31.80000 422.774
31.84000 403.583
31.88000 372.334
31.92000 368.492
31.96000 372.558
32.00000 349.600
32.04000 348.727
32.08000 336.641
32.12000 340.917
32.16000 323.342
32.20000 329.083
32.24000 336.998
32.28000 336.581
32.32000 330.122
32.36000 331.175
32.40000 330.622
32.44000 321.169
32.48000 326.084
32.52000 330.830
32.56000 339.156
32.60000 334.142
32.64000 322.836
32.68000 342.948
32.72000 308.253
32.76000 326.285
32.80000 337.945
32.84000 326.010
32.88000 335.036
32.92000 332.196
32.96000 323.676
33.00000 334.620
33.04000 312.906
33.08000 322.130
33.12000 311.864
33.16000 293.381
33.20000 318.260
33.24000 302.239
33.28000 293.215
33.32000 288.313
33.36000 307.402
33.40000 302.539
33.44000 292.486
33.48000 298.666
33.52000 285.958
33.56000 293.741
33.60000 304.124
33.64000 298.964
33.68000 292.057
33.72000 297.316
33.76000 308.307
33.80000 295.895
33.84000 303.583
33.88000 292.671
33.92000 308.144
33.96000 300.285
34.00000 294.285
34.04000 305.564
34.08000 306.678
34.12000 308.653
34.16000 292.209
34.20000 305.538
34.24000 284.839
34.28000 303.804
34.32000 298.939
34.36000 307.920
34.40000 310.170
34.44000 315.513
34.48000 306.428
34.52000 310.947
34.56000 309.985
34.60000 307.451
34.64000 293.082
34.68000 288.555
34.72000 282.437
34.76000 292.260
34.80000 277.301
34.84000 270.743
34.88000 279.648
34.92000 286.783
34.96000 277.548
35.00000 282.472
35.04000 275.470
35.08000 272.438
35.12000 272.736
35.16000 275.836
35.20000 272.995
35.24000 260.985
35.28000 264.316
35.32000 271.036
35.36000 269.965
35.40000 270.350
35.44000 266.742
35.48000 262.952
35.52000 259.019
35.56000 260.538
35.60000 271.812
35.64000 258.147
35.68000 268.406
35.72000 276.398
35.76000 254.551
35.80000 256.839
35.84000 270.666
35.88000 250.354
35.92000 244.721
35.96000 267.712
36.00000 259.971
36.04000 258.389
36.08000 262.541
36.12000 267.174
36.16000 252.939
36.20000 262.607
36.24000 253.108
36.28000 253.123
36.32000 257.479
36.36000 254.939
36.40000 263.988
36.44000 261.889
36.48000 262.581
36.52000 258.429
36.56000 242.683
36.60000 252.562
36.64000 268.907
36.68000 264.301
36.72000 259.089
36.76000 247.353
36.80000 263.838
36.84000 270.585
36.88000 267.463
36.92000 263.073
36.96000 275.661
37.00000 273.433
37.04000 243.338
37.08000 268.735
37.12000 275.018
37.16000 264.571
37.20000 263.475
37.24000 254.075
37.28000 261.454
37.32000 249.497
37.36000 262.678
37.40000 257.890
37.44000 256.125
37.48000 246.009
37.52000 242.368
37.56000 235.326
37.60000 259.299
37.64000 248.109
37.68000 251.675
37.72000 240.418
37.76000 254.763
37.80000 249.368
37.84000 251.583
37.88000 267.152
37.92000 253.471
37.96000 248.274
38.00000 239.369
38.04000 240.584
38.08000 262.059
38.12000 258.653
38.16000 283.527
38.20000 280.859
38.24000 275.402
38.28000 300.044
38.32000 327.235
38.36000 360.284
38.40000 388.690
38.44000 420.406
38.48000 478.765
38.52000 530.983
38.56000 571.173
38.60000 620.341
38.64000 599.493
38.68000 595.489
38.72000 587.687
38.76000 563.775
38.80000 532.513
38.84000 478.469
38.88000 414.606
38.92000 381.434
38.96000 326.454
39.00000 308.035
39.04000 279.178
39.08000 266.599
39.12000 253.064
39.16000 256.084
39.20000 242.744
39.24000 240.836
39.28000 239.672
39.32000 227.303
39.36000 242.876
39.40000 234.955
39.44000 235.311
39.48000 232.897
39.52000 236.164
39.56000 213.064
39.60000 233.774
39.64000 238.406
39.68000 231.808
39.72000 245.953
39.76000 218.257
39.80000 236.089
39.84000 220.897
39.88000 231.163
39.92000 226.099
39.96000 220.093
40.00000 214.615
40.04000 224.607
40.08000 221.292
40.12000 224.876
40.16000 243.653
40.20000 221.257
40.24000 212.934
40.28000 219.003
40.32000 221.280
40.36000 222.209
40.40000 228.341
40.44000 223.055
40.48000 208.608
40.52000 225.103
40.56000 222.886
40.60000 220.268
40.64000 214.971
40.68000 226.833
40.72000 209.188
40.76000 207.131
40.80000 212.379
40.84000 205.448
40.88000 219.517
40.92000 212.636
40.96000 209.457
41.00000 212.644
41.04000 207.679
41.08000 207.491
41.12000 211.688
41.16000 218.465
41.20000 216.045
41.24000 212.139
41.28000 203.305
41.32000 207.764
41.36000 204.371
41.40000 206.625
41.44000 213.291
41.48000 216.462
41.52000 205.911
41.56000 203.068
41.60000 204.848
41.64000 202.163
41.68000 204.592
41.72000 195.875
41.76000 213.727
41.80000 218.317
41.84000 226.491
41.88000 216.847
41.92000 201.163
41.96000 207.730
42.00000 213.833
42.04000 220.099
42.08000 219.873
42.12000 211.583
42.16000 210.705
42.20000 200.402
42.24000 196.357
42.28000 209.551
42.32000 204.291
42.36000 211.122
42.40000 198.716
42.44000 210.338
42.48000 210.795
42.52000 204.695
42.56000 201.720
42.60000 194.116
42.64000 195.384
42.68000 189.089
42.72000 207.693
42.76000 207.725
42.80000 198.814
42.84000 201.284
42.88000 214.382
42.92000 207.234
42.96000 205.349
43.00000 204.659
43.04000 199.162
43.08000 216.746
43.12000 231.158
43.16000 205.676
43.20000 213.207
43.24000 216.489
43.28000 202.705
43.32000 201.197
43.36000 200.334
43.40000 205.027
43.44000 207.732
43.48000 204.517
43.52000 203.840
43.56000 200.378
43.60000 204.491
43.64000 198.564
43.68000 203.860
43.72000 192.388
43.76000 201.523
43.80000 198.832
43.84000 205.343
43.88000 211.314
43.92000 194.434
43.96000 200.168
44.00000 199.768
44.04000 195.987
44.08000 209.538
44.12000 198.497
44.16000 196.171
44.20000 208.678
44.24000 191.955
44.28000 200.537
44.32000 216.915
44.36000 214.786
44.40000 217.016
44.44000 226.117
44.48000 217.421
44.52000 230.785
44.56000 242.190
44.60000 261.989
44.64000 293.793
44.68000 309.798
44.72000 343.957
44.76000 362.048
44.80000 394.976
44.84000 415.194
44.88000 429.613
44.92000 458.339
44.96000 453.442
45.00000 450.485
45.04000 455.094
45.08000 415.447
45.12000 365.942
45.16000 350.596
45.20000 327.935
45.24000 312.323
45.28000 291.313
45.32000 287.574
45.36000 275.211
45.40000 245.777
45.44000 244.867
45.48000 237.396
45.52000 232.147
45.56000 221.039
45.60000 226.605
45.64000 214.978
45.68000 218.331
45.72000 206.502
45.76000 200.107
45.80000 194.200
45.84000 197.388
45.88000 191.130
45.92000 195.488
45.96000 190.473
46.00000 188.889
46.04000 189.572
46.08000 191.409
46.12000 174.672
46.16000 182.959
46.20000 187.479
46.24000 174.508
46.28000 182.586
46.32000 179.900
46.36000 182.457
46.40000 174.514
46.44000 176.797
46.48000 184.037
46.52000 174.400
46.56000 175.511
46.60000 173.366
46.64000 170.249
46.68000 181.796
46.72000 174.138
46.76000 176.964
46.80000 182.801
46.84000 166.115
46.88000 175.171
46.92000 167.035
46.96000 178.007
47.00000 176.646
47.04000 167.889
47.08000 174.117
47.12000 164.173
47.16000 164.902
47.20000 162.407
47.24000 166.119
47.28000 169.115
47.32000 160.094
47.36000 162.923
47.40000 160.425
47.44000 165.229
47.48000 167.046
47.52000 161.942
47.56000 165.393
47.60000 168.153
47.64000 170.036
47.68000 165.188
47.72000 158.166
47.76000 148.756
47.80000 158.567
47.84000 160.255
47.88000 159.700
47.92000 158.788
47.96000 164.465
48.00000 166.750
48.04000 165.088
48.08000 173.595
48.12000 170.514
48.16000 166.383
48.20000 161.470
48.24000 162.660
48.28000 173.107
48.32000 162.459
48.36000 164.790
48.40000 159.509
48.44000 159.622
48.48000 162.575
48.52000 166.972
48.56000 157.890
48.60000 152.001
48.64000 157.911
48.68000 155.350
48.72000 151.165
48.76000 172.886
48.80000 165.119
48.84000 156.522
48.88000 167.275
48.92000 157.241
48.96000 151.315
49.00000 154.324
49.04000 155.551
49.08000 152.638
49.12000 146.933
49.16000 154.424
49.20000 146.241
49.24000 154.671
49.28000 165.822
49.32000 155.478
49.36000 154.799
49.40000 166.628
49.44000 161.296
49.48000 154.298
49.52000 132.580
49.56000 160.680
49.60000 162.754
49.64000 152.038
49.68000 148.543
49.72000 156.862
49.76000 169.728
49.80000 159.420
49.84000 167.912
49.88000 162.254
49.92000 157.520
49.96000 159.172
50.00000 159.188
50.04000 161.264
50.08000 174.266
50.12000 175.806
50.16000 169.312
50.20000 190.008
50.24000 193.415
50.28000 192.015
50.32000 190.493
50.36000 211.095
50.40000 226.491
50.44000 237.200
50.48000 241.403
50.52000 245.413
50.56000 254.547
50.60000 261.177
50.64000 247.982
50.68000 232.052
50.72000 237.180
50.76000 218.410
50.80000 215.601
50.84000 197.878
50.88000 187.822
50.92000 189.939
50.96000 179.718
51.00000 164.942
51.04000 166.640
51.08000 155.900
51.12000 159.353
51.16000 160.125
51.20000 153.773
51.24000 151.216
51.28000 158.552
51.32000 148.144
51.36000 150.208
51.40000 157.865
51.44000 148.455
51.48000 147.329
51.52000 140.728
51.56000 145.982
51.60000 143.841
51.64000 147.648
51.68000 135.683
51.72000 149.678
51.76000 147.911
51.80000 139.422
51.84000 143.065
51.88000 135.220
51.92000 149.844
51.96000 145.459
52.00000 144.020
52.04000 134.207
52.08000 130.657
52.12000 147.017
52.16000 141.001
52.20000 148.176
52.24000 148.083
52.28000 151.751
52.32000 140.523
52.36000 135.748
52.40000 136.931
52.44000 148.266
52.48000 132.936
52.52000 141.956
52.56000 141.620
52.60000 141.221
52.64000 137.882
52.68000 144.760
52.72000 139.271
52.76000 146.823
52.80000 138.712
52.84000 147.146
52.88000 141.724
52.92000 132.911
52.96000 138.461
53.00000 140.641
53.04000 150.630
53.08000 165.638
53.12000 163.887
53.16000 141.907
53.20000 157.968
53.24000 167.453
53.28000 151.504
53.32000 156.223
53.36000 168.186
53.40000 152.483
53.44000 144.709
53.48000 152.982
53.52000 144.659
53.56000 157.970
53.60000 148.154
53.64000 146.848
53.68000 140.977
53.72000 139.590
53.76000 149.147
53.80000 143.506
53.84000 142.902
53.88000 140.803
53.92000 138.486
53.96000 131.146
54.00000 127.844
54.04000 146.609
54.08000 145.786
54.12000 147.336
54.16000 149.351
54.20000 136.147
54.24000 147.603
54.28000 150.187
54.32000 138.796
54.36000 146.971
54.40000 134.859
54.44000 138.259
54.48000 137.539
54.52000 155.649
54.56000 142.330
54.60000 145.806
54.64000 139.404
54.68000 143.627
54.72000 133.108
54.76000 146.442
54.80000 141.246
54.84000 152.849
54.88000 147.622
54.92000 150.647
54.96000 145.853
55.00000 151.411
55.04000 149.486
55.08000 157.454
55.12000 149.364
55.16000 156.096
55.20000 172.842
55.24000 181.629
55.28000 201.315
55.32000 216.932
55.36000 240.583
55.40000 269.331
55.44000 300.957
55.48000 348.929
55.52000 394.897
55.56000 432.788
55.60000 487.656
55.64000 557.681
55.68000 572.402
55.72000 631.471
55.76000 653.444
55.80000 681.658
55.84000 679.315
55.88000 659.460
55.92000 624.432
55.96000 572.775
56.00000 545.872
56.04000 503.360
56.08000 449.342
56.12000 379.252
56.16000 314.761
56.20000 297.314
56.24000 259.895
56.28000 224.613
56.32000 209.125
56.36000 186.970
56.40000 182.154
56.44000 172.836
56.48000 165.591
56.52000 150.435
56.56000 157.164
56.60000 140.792
56.64000 146.562
56.68000 138.524
56.72000 147.067
56.76000 146.628
56.80000 138.170
56.84000 132.813
56.88000 148.994
56.92000 132.374
56.96000 145.830
57.00000 126.724
57.04000 131.546
57.08000 124.989
57.12000 122.687
57.16000 131.128
57.20000 126.901
57.24000 132.841
57.28000 134.151
57.32000 132.760
57.36000 131.495
57.40000 132.439
57.44000 131.988
57.48000 137.647
57.52000 127.356
57.56000 125.294
57.60000 122.695
57.64000 122.529
57.68000 131.968
57.72000 128.285
57.76000 127.027
57.80000 131.366
57.84000 116.562
57.88000 123.846
57.92000 129.888
57.96000 126.054
58.00000 125.810
58.04000 126.568
58.08000 133.764
58.12000 127.121
58.16000 123.459
58.20000 119.000
58.24000 134.525
58.28000 116.413
58.32000 116.623
58.36000 122.479
58.40000 121.614
58.44000 118.692
58.48000 128.948
58.52000 127.703
58.56000 125.927
58.60000 117.905
58.64000 119.600
58.68000 122.107
58.72000 107.797
58.76000 119.629
58.80000 122.126
58.84000 118.669
58.88000 129.568
58.92000 123.093
58.96000 117.851
59.00000 120.138
59.04000 122.855
59.08000 109.416
59.12000 126.805
59.16000 107.274
59.20000 117.187
59.24000 125.144
59.28000 126.835
59.32000 108.005
59.36000 114.888
59.40000 123.324
59.44000 127.128
59.48000 116.305
59.52000 116.450
59.56000 113.852
59.60000 125.147
59.64000 128.515
59.68000 118.073
59.72000 114.329
59.76000 117.711
59.80000 121.754
59.84000 122.837
59.88000 125.292
59.92000 112.870
59.96000 119.476
60.00000 125.875
60.04000 118.759
60.08000 115.294
60.12000 115.312
60.16000 121.054
60.20000 116.500
60.24000 123.804
60.28000 113.489
60.32000 122.488
60.36000 115.638
60.40000 113.634
60.44000 121.482
60.48000 108.495
60.52000 113.149
60.56000 124.210
60.60000 122.003
60.64000 123.248
60.68000 115.238
60.72000 122.453
60.76000 119.349
60.80000 118.549
60.84000 113.064
60.88000 121.508
60.92000 122.178
60.96000 111.102
61.00000 125.983
61.04000 115.042
61.08000 116.193
61.12000 112.092
61.16000 121.980
61.20000 123.565
61.24000 120.113
61.28000 125.762
61.32000 129.089
61.36000 117.371
61.40000 117.463
61.44000 130.853
61.48000 135.929
61.52000 149.965
61.56000 189.721
61.60000 256.763
61.64000 297.797
61.68000 327.289
61.72000 341.210
61.76000 323.641
61.80000 277.719
61.84000 217.284
61.88000 163.971
61.92000 142.904
61.96000 148.474
62.00000 130.003
62.04000 133.190
62.08000 124.932
62.12000 131.351
62.16000 126.029
62.20000 144.849
62.24000 137.321
62.28000 125.683
62.32000 132.505
62.36000 133.112
62.40000 129.050
62.44000 137.155
62.48000 126.683
62.52000 133.844
62.56000 133.384
62.60000 135.081
62.64000 124.784
62.68000 129.574
62.72000 128.557
62.76000 128.144
62.80000 137.808
62.84000 138.034
62.88000 135.564
62.92000 127.410
62.96000 128.641
63.00000 131.776
63.04000 127.677
63.08000 132.223
63.12000 127.147
63.16000 129.302
63.20000 140.035
63.24000 132.632
63.28000 136.637
63.32000 141.165
63.36000 137.330
63.40000 143.365
63.44000 134.787
63.48000 141.282
63.52000 134.873
63.56000 133.492
63.60000 140.807
63.64000 142.507
63.68000 136.108
63.72000 146.137
63.76000 145.443
63.80000 147.199
63.84000 150.726
63.88000 149.269
63.92000 149.396
63.96000 133.926
64.00000 153.298
64.04000 143.236
64.08000 150.761
64.12000 148.886
64.16000 151.075
64.20000 141.830
64.24000 159.584
64.28000 151.709
64.32000 145.372
64.36000 155.708
64.40000 156.623
64.44000 167.069
64.48000 161.586
64.52000 170.981
64.56000 162.426
64.60000 181.753
64.64000 176.885
64.68000 171.094
64.72000 171.200
64.76000 183.642
64.80000 191.945
64.84000 195.669
64.88000 194.909
64.92000 209.165
64.96000 211.222
65.00000 221.502
65.04000 241.964
65.08000 254.799
65.12000 254.990
65.16000 289.269
65.20000 282.553
65.24000 329.872
65.28000 338.182
65.32000 345.741
65.36000 351.383
65.40000 363.919
65.44000 380.399
65.48000 383.817
65.52000 396.306
65.56000 433.146
65.60000 461.022
65.64000 514.048
65.68000 668.396
65.72000 925.834
65.76000 1498.859
65.80000 2041.055
65.84000 2384.718
65.88000 2481.449
65.92000 2387.623
65.96000 2089.469
66.00000 1507.501
66.04000 956.552
66.08000 624.839
66.12000 487.028
66.16000 434.175
66.20000 416.811
66.24000 411.909
66.28000 477.412
66.32000 591.247
66.36000 667.626
66.40000 725.921
66.44000 745.752
66.48000 707.641
66.52000 648.264
66.56000 541.799
66.60000 439.751
66.64000 410.264
66.68000 390.704
66.72000 379.278
66.76000 377.482
66.80000 369.899
66.84000 380.370
66.88000 383.899
66.92000 391.345
66.96000 378.118
67.00000 382.381
67.04000 390.273
67.08000 405.529
67.12000 407.777
67.16000 414.848
67.20000 411.580
67.24000 426.222
67.28000 415.559
67.32000 430.899
67.36000 436.108
67.40000 430.214
67.44000 426.154
67.48000 432.811
67.52000 458.848
67.56000 456.884
67.60000 461.524
67.64000 454.846
67.68000 479.351
67.72000 489.179
67.76000 493.377
67.80000 497.059
67.84000 517.224
67.88000 497.261
67.92000 499.770
67.96000 506.709
68.00000 511.856
68.04000 526.444
68.08000 543.702
68.12000 559.733
68.16000 555.380
68.20000 558.523
68.24000 577.696
68.28000 607.739
68.32000 610.761
68.36000 628.230
68.40000 651.725
68.44000 700.870
68.48000 712.952
68.52000 733.597
68.56000 806.531
68.60000 891.246
68.64000 1018.836
68.68000 1253.286
68.72000 1415.198
68.76000 1616.223
68.80000 1851.666
68.84000 2139.749
68.88000 2673.128
68.92000 3987.794
68.96000 8443.357
69.00000 20639.682
69.04000 37152.469
69.08000 49075.750
69.12000 54117.102
69.16000 57488.949
69.20000 58825.910
69.24000 51298.512
69.28000 39291.059
69.32000 30363.402
69.36000 27075.646
69.40000 24009.385
69.44000 16747.564
69.48000 8664.630
69.52000 3811.233
69.56000 1934.583
69.60000 1349.069
69.64000 1103.353
69.68000 936.470
69.72000 844.250
69.76000 762.566
69.80000 705.146
69.84000 656.303
69.88000 625.608
69.92000 574.018
69.96000 556.006
70.00000 528.828