File: XRD/08-10-2025 Dep 7/XY Data/BTO_Mapping_Theta2Theta_08-10-2025_001_50_3-090_-9-511.xy
20.00000 487.799
20.04000 465.618
20.08000 460.477
20.12000 472.887
20.16000 478.569
20.20000 474.300
20.24000 481.980
20.28000 467.277
20.32000 477.168
20.36000 483.571
20.40000 472.699
20.44000 455.005
20.48000 458.257
20.52000 461.696
20.56000 469.557
20.60000 468.018
20.64000 473.835
20.68000 464.677
20.72000 462.613
20.76000 466.888
20.80000 462.899
20.84000 488.931
20.88000 474.622
20.92000 471.638
20.96000 454.378
21.00000 466.013
21.04000 485.860
21.08000 480.685
21.12000 447.895
21.16000 469.667
21.20000 475.491
21.24000 469.187
21.28000 459.242
21.32000 462.702
21.36000 481.314
21.40000 480.526
21.44000 474.460
21.48000 477.703
21.52000 458.356
21.56000 470.817
21.60000 456.965
21.64000 458.287
21.68000 486.935
21.72000 469.667
21.76000 496.603
21.80000 463.512
21.84000 489.018
21.88000 483.848
21.92000 511.201
21.96000 528.707
22.00000 545.697
22.04000 546.495
22.08000 560.473
22.12000 545.956
22.16000 544.990
22.20000 554.280
22.24000 523.187
22.28000 516.100
22.32000 486.949
22.36000 487.661
22.40000 454.389
22.44000 465.225
22.48000 493.575
22.52000 455.966
22.56000 470.012
22.60000 479.298
22.64000 435.051
22.68000 450.243
22.72000 453.563
22.76000 421.388
22.80000 462.833
22.84000 449.872
22.88000 438.728
22.92000 434.552
22.96000 446.721
23.00000 433.945
23.04000 444.004
23.08000 434.767
23.12000 460.582
23.16000 444.207
23.20000 435.659
23.24000 453.140
23.28000 447.700
23.32000 437.851
23.36000 439.089
23.40000 440.630
23.44000 440.610
23.48000 432.395
23.52000 435.047
23.56000 431.637
23.60000 445.349
23.64000 457.180
23.68000 452.966
23.72000 457.624
23.76000 476.826
23.80000 487.410
23.84000 485.965
23.88000 481.784
23.92000 497.123
23.96000 510.627
24.00000 508.382
24.04000 499.286
24.08000 513.093
24.12000 495.569
24.16000 469.727
24.20000 457.830
24.24000 462.499
24.28000 434.664
24.32000 454.638
24.36000 428.463
24.40000 419.910
24.44000 426.733
24.48000 420.074
24.52000 433.827
24.56000 401.420
24.60000 424.447
24.64000 403.929
24.68000 414.768
24.72000 414.065
24.76000 408.834
24.80000 417.808
24.84000 409.566
24.88000 418.684
24.92000 415.157
24.96000 415.171
25.00000 401.773
25.04000 400.368
25.08000 398.449
25.12000 391.322
25.16000 413.758
25.20000 393.930
25.24000 413.401
25.28000 391.000
25.32000 394.415
25.36000 397.380
25.40000 399.355
25.44000 396.039
25.48000 391.860
25.52000 378.534
25.56000 405.930
25.60000 402.518
25.64000 406.739
25.68000 414.490
25.72000 377.900
25.76000 393.858
25.80000 398.215
25.84000 393.234
25.88000 407.513
25.92000 392.431
25.96000 390.050
26.00000 383.896
26.04000 383.751
26.08000 394.810
26.12000 391.353
26.16000 393.640
26.20000 402.270
26.24000 405.222
26.28000 399.706
26.32000 408.255
26.36000 386.698
26.40000 395.348
26.44000 386.728
26.48000 392.495
26.52000 373.779
26.56000 383.302
26.60000 380.473
26.64000 374.219
26.68000 379.073
26.72000 379.352
26.76000 379.737
26.80000 399.977
26.84000 386.618
26.88000 396.053
26.92000 385.168
26.96000 385.280
27.00000 392.202
27.04000 386.181
27.08000 375.627
27.12000 387.978
27.16000 390.763
27.20000 379.792
27.24000 385.112
27.28000 372.650
27.32000 384.876
27.36000 378.236
27.40000 401.193
27.44000 377.303
27.48000 368.352
27.52000 391.242
27.56000 398.419
27.60000 347.539
27.64000 392.539
27.68000 372.727
27.72000 371.580
27.76000 375.331
27.80000 360.374
27.84000 381.216
27.88000 366.803
27.92000 354.183
27.96000 360.123
28.00000 382.739
28.04000 348.623
28.08000 354.206
28.12000 360.106
28.16000 365.931
28.20000 371.315
28.24000 366.469
28.28000 352.907
28.32000 368.237
28.36000 372.259
28.40000 370.770
28.44000 363.743
28.48000 358.051
28.52000 359.155
28.56000 358.191
28.60000 358.727
28.64000 343.497
28.68000 344.240
28.72000 354.578
28.76000 349.324
28.80000 368.413
28.84000 350.558
28.88000 349.652
28.92000 357.853
28.96000 373.956
29.00000 361.710
29.04000 352.860
29.08000 347.485
29.12000 350.119
29.16000 343.372
29.20000 351.415
29.24000 362.434
29.28000 348.432
29.32000 337.593
29.36000 373.669
29.40000 338.053
29.44000 342.840
29.48000 358.709
29.52000 350.758
29.56000 355.911
29.60000 351.139
29.64000 352.534
29.68000 376.115
29.72000 357.264
29.76000 367.541
29.80000 348.478
29.84000 359.807
29.88000 375.928
29.92000 363.294
29.96000 397.067
30.00000 371.454
30.04000 372.068
30.08000 391.517
30.12000 375.407
30.16000 361.989
30.20000 374.839
30.24000 355.559
30.28000 347.007
30.32000 362.773
30.36000 353.225
30.40000 349.151
30.44000 341.497
30.48000 341.418
30.52000 339.771
30.56000 352.589
30.60000 364.088
30.64000 367.258
30.68000 361.854
30.72000 379.701
30.76000 364.379
30.80000 353.964
30.84000 378.602
30.88000 392.842
30.92000 392.873
30.96000 411.187
31.00000 440.144
31.04000 463.127
31.08000 521.299
31.12000 577.654
31.16000 680.368
31.20000 745.175
31.24000 826.165
31.28000 979.669
31.32000 1052.425
31.36000 1123.650
31.40000 1116.156
31.44000 1078.929
31.48000 1003.014
31.52000 881.406
31.56000 757.820
31.60000 633.688
31.64000 557.993
31.68000 498.402
31.72000 461.717
31.76000 427.800
31.80000 396.350
31.84000 371.465
31.88000 372.750
31.92000 356.848
31.96000 345.766
32.00000 349.263
32.04000 361.622
32.08000 327.003
32.12000 345.139
32.16000 344.210
32.20000 333.703
32.24000 356.567
32.28000 351.775
32.32000 329.074
32.36000 324.807
32.40000 323.051
32.44000 330.694
32.48000 323.415
32.52000 330.325
32.56000 339.274
32.60000 325.734
32.64000 329.955
32.68000 326.355
32.72000 319.743
32.76000 324.051
32.80000 315.283
32.84000 303.474
32.88000 326.088
32.92000 334.799
32.96000 300.044
33.00000 306.886
33.04000 320.444
33.08000 307.365
33.12000 303.698
33.16000 297.699
33.20000 295.206
33.24000 291.322
33.28000 303.163
33.32000 316.645
33.36000 308.364
33.40000 317.115
33.44000 293.383
33.48000 300.899
33.52000 298.291
33.56000 285.592
33.60000 293.207
33.64000 294.583
33.68000 300.680
33.72000 306.439
33.76000 306.768
33.80000 301.458
33.84000 298.602
33.88000 312.174
33.92000 318.208
33.96000 310.412
34.00000 329.526
34.04000 319.345
34.08000 324.921
34.12000 329.191
34.16000 327.106
34.20000 323.203
34.24000 334.039
34.28000 356.719
34.32000 358.397
34.36000 349.130
34.40000 348.748
34.44000 337.290
34.48000 333.499
34.52000 357.109
34.56000 344.792
34.60000 334.364
34.64000 326.003
34.68000 312.008
34.72000 307.463
34.76000 296.981
34.80000 283.871
34.84000 294.253
34.88000 301.543
34.92000 280.813
34.96000 295.389
35.00000 277.986
35.04000 285.086
35.08000 266.511
35.12000 291.280
35.16000 282.810
35.20000 280.712
35.24000 262.853
35.28000 288.886
35.32000 270.331
35.36000 252.496
35.40000 269.897
35.44000 267.623
35.48000 253.887
35.52000 269.959
35.56000 269.048
35.60000 273.852
35.64000 261.502
35.68000 248.804
35.72000 273.357
35.76000 257.468
35.80000 266.565
35.84000 261.066
35.88000 245.369
35.92000 263.085
35.96000 268.224
36.00000 252.794
36.04000 265.183
36.08000 261.763
36.12000 261.155
36.16000 267.716
36.20000 254.011
36.24000 257.185
36.28000 256.835
36.32000 252.714
36.36000 253.075
36.40000 258.528
36.44000 258.753
36.48000 267.111
36.52000 252.292
36.56000 265.905
36.60000 262.789
36.64000 271.893
36.68000 258.468
36.72000 257.465
36.76000 260.024
36.80000 273.272
36.84000 274.626
36.88000 281.902
36.92000 289.511
36.96000 278.733
37.00000 292.257
37.04000 282.283
37.08000 282.538
37.12000 284.242
37.16000 285.541
37.20000 283.310
37.24000 272.797
37.28000 261.413
37.32000 260.539
37.36000 267.616
37.40000 264.570
37.44000 269.870
37.48000 257.216
37.52000 255.427
37.56000 252.180
37.60000 251.813
37.64000 261.819
37.68000 254.768
37.72000 248.840
37.76000 241.388
37.80000 271.952
37.84000 256.477
37.88000 246.437
37.92000 246.478
37.96000 259.443
38.00000 252.850
38.04000 264.753
38.08000 244.514
38.12000 260.403
38.16000 264.035
38.20000 279.307
38.24000 281.690
38.28000 286.764
38.32000 317.088
38.36000 361.034
38.40000 401.435
38.44000 484.113
38.48000 571.558
38.52000 662.849
38.56000 807.542
38.60000 960.756
38.64000 1062.117
38.68000 1165.155
38.72000 1182.948
38.76000 1160.590
38.80000 1078.630
38.84000 919.889
38.88000 793.676
38.92000 643.829
38.96000 511.457
39.00000 429.133
39.04000 339.996
39.08000 295.371
39.12000 278.488
39.16000 265.074
39.20000 248.160
39.24000 229.857
39.28000 255.729
39.32000 224.735
39.36000 238.186
39.40000 242.260
39.44000 249.975
39.48000 244.053
39.52000 241.645
39.56000 252.063
39.60000 238.016
39.64000 235.131
39.68000 218.176
39.72000 230.793
39.76000 236.088
39.80000 223.159
39.84000 238.480
39.88000 228.560
39.92000 218.400
39.96000 232.374
40.00000 225.411
40.04000 226.098
40.08000 218.856
40.12000 222.748
40.16000 228.688
40.20000 226.155
40.24000 226.460
40.28000 226.678
40.32000 220.917
40.36000 212.349
40.40000 209.787
40.44000 227.434
40.48000 214.920
40.52000 209.799
40.56000 217.911
40.60000 221.565
40.64000 208.865
40.68000 209.888
40.72000 225.173
40.76000 220.522
40.80000 200.815
40.84000 215.451
40.88000 216.431
40.92000 207.068
40.96000 214.419
41.00000 222.236
41.04000 217.397
41.08000 219.681
41.12000 205.112
41.16000 211.971
41.20000 215.967
41.24000 204.730
41.28000 211.691
41.32000 233.105
41.36000 213.924
41.40000 214.847
41.44000 210.856
41.48000 207.848
41.52000 215.396
41.56000 197.390
41.60000 209.960
41.64000 222.075
41.68000 200.239
41.72000 211.739
41.76000 213.389
41.80000 226.343
41.84000 214.543
41.88000 208.632
41.92000 211.754
41.96000 207.595
42.00000 216.485
42.04000 219.104
42.08000 216.576
42.12000 219.343
42.16000 218.894
42.20000 223.358
42.24000 206.232
42.28000 212.819
42.32000 205.191
42.36000 210.069
42.40000 212.702
42.44000 208.390
42.48000 219.427
42.52000 221.450
42.56000 219.225
42.60000 216.349
42.64000 211.342
42.68000 219.215
42.72000 216.591
42.76000 211.293
42.80000 212.666
42.84000 206.113
42.88000 197.047
42.92000 196.632
42.96000 204.996
43.00000 199.928
43.04000 209.233
43.08000 197.452
43.12000 204.661
43.16000 207.739
43.20000 208.611
43.24000 205.108
43.28000 206.240
43.32000 204.599
43.36000 196.089
43.40000 204.321
43.44000 197.405
43.48000 201.424
43.52000 197.205
43.56000 199.420
43.60000 194.784
43.64000 201.617
43.68000 200.696
43.72000 193.183
43.76000 183.550
43.80000 190.279
43.84000 201.327
43.88000 206.565
43.92000 191.608
43.96000 195.184
44.00000 181.607
44.04000 198.870
44.08000 187.600
44.12000 195.370
44.16000 202.460
44.20000 188.269
44.24000 192.564
44.28000 195.148
44.32000 203.134
44.36000 196.123
44.40000 222.621
44.44000 212.657
44.48000 212.306
44.52000 214.178
44.56000 209.925
44.60000 216.328
44.64000 224.892
44.68000 227.620
44.72000 214.884
44.76000 240.288
44.80000 235.732
44.84000 233.098
44.88000 256.685
44.92000 247.682
44.96000 260.197
45.00000 259.159
45.04000 280.819
45.08000 269.950
45.12000 268.326
45.16000 249.170
45.20000 246.866
45.24000 241.171
45.28000 240.354
45.32000 227.831
45.36000 237.843
45.40000 206.262
45.44000 214.085
45.48000 219.061
45.52000 211.464
45.56000 201.719
45.60000 207.152
45.64000 209.786
45.68000 209.726
45.72000 195.559
45.76000 197.464
45.80000 194.455
45.84000 200.892
45.88000 198.554
45.92000 195.328
45.96000 191.187
46.00000 183.577
46.04000 181.013
46.08000 180.068
46.12000 173.912
46.16000 183.468
46.20000 178.129
46.24000 170.779
46.28000 181.799
46.32000 178.760
46.36000 183.815
46.40000 179.299
46.44000 180.477
46.48000 181.459
46.52000 176.518
46.56000 176.885
46.60000 176.952
46.64000 183.421
46.68000 181.653
46.72000 173.440
46.76000 173.497
46.80000 162.224
46.84000 182.653
46.88000 171.945
46.92000 177.176
46.96000 170.556
47.00000 163.384
47.04000 173.316
47.08000 163.102
47.12000 174.082
47.16000 167.395
47.20000 171.389
47.24000 173.343
47.28000 169.828
47.32000 172.416
47.36000 165.180
47.40000 163.628
47.44000 161.682
47.48000 155.100
47.52000 149.157
47.56000 153.268
47.60000 171.787
47.64000 165.016
47.68000 166.618
47.72000 163.781
47.76000 167.246
47.80000 164.989
47.84000 163.282
47.88000 155.259
47.92000 158.121
47.96000 155.267
48.00000 169.383
48.04000 161.146
48.08000 176.499
48.12000 160.788
48.16000 162.034
48.20000 156.662
48.24000 156.029
48.28000 158.944
48.32000 157.012
48.36000 161.937
48.40000 159.657
48.44000 160.596
48.48000 176.283
48.52000 162.182
48.56000 168.682
48.60000 156.157
48.64000 153.406
48.68000 162.651
48.72000 161.532
48.76000 162.086
48.80000 156.085
48.84000 156.756
48.88000 159.125
48.92000 161.991
48.96000 156.700
49.00000 160.477
49.04000 154.793
49.08000 157.070
49.12000 149.805
49.16000 156.680
49.20000 163.561
49.24000 147.183
49.28000 153.026
49.32000 156.578
49.36000 150.089
49.40000 154.759
49.44000 157.582
49.48000 146.215
49.52000 147.090
49.56000 155.356
49.60000 152.181
49.64000 151.992
49.68000 157.063
49.72000 149.934
49.76000 156.734
49.80000 153.325
49.84000 163.692
49.88000 161.180
49.92000 148.939
49.96000 141.765
50.00000 144.251
50.04000 155.828
50.08000 148.696
50.12000 161.820
50.16000 152.843
50.20000 155.040
50.24000 161.175
50.28000 165.959
50.32000 163.894
50.36000 167.084
50.40000 154.088
50.44000 164.589
50.48000 164.451
50.52000 159.868
50.56000 162.974
50.60000 158.946
50.64000 158.386
50.68000 170.460
50.72000 172.123
50.76000 159.750
50.80000 164.776
50.84000 154.191
50.88000 160.837
50.92000 150.370
50.96000 149.362
51.00000 158.363
51.04000 148.123
51.08000 150.621
51.12000 164.499
51.16000 151.474
51.20000 154.153
51.24000 151.937
51.28000 150.363
51.32000 143.740
51.36000 142.567
51.40000 151.457
51.44000 145.246
51.48000 134.130
51.52000 137.061
51.56000 144.624
51.60000 153.572
51.64000 147.030
51.68000 143.890
51.72000 138.742
51.76000 144.501
51.80000 144.808
51.84000 136.820
51.88000 147.698
51.92000 143.129
51.96000 142.189
52.00000 142.492
52.04000 139.575
52.08000 139.061
52.12000 136.015
52.16000 147.140
52.20000 136.110
52.24000 138.449
52.28000 142.063
52.32000 145.093
52.36000 132.923
52.40000 137.189
52.44000 142.481
52.48000 139.724
52.52000 138.861
52.56000 141.324
52.60000 139.577
52.64000 144.709
52.68000 140.797
52.72000 140.922
52.76000 143.170
52.80000 137.637
52.84000 147.064
52.88000 151.119
52.92000 145.114
52.96000 149.425
53.00000 142.135
53.04000 149.117
53.08000 145.995
53.12000 151.332
53.16000 147.636
53.20000 149.519
53.24000 152.000
53.28000 157.858
53.32000 159.812
53.36000 165.436
53.40000 156.609
53.44000 149.955
53.48000 165.117
53.52000 161.640
53.56000 152.757
53.60000 151.790
53.64000 149.623
53.68000 141.517
53.72000 148.529
53.76000 146.408
53.80000 142.198
53.84000 139.628
53.88000 149.896
53.92000 140.600
53.96000 143.328
54.00000 140.332
54.04000 133.388
54.08000 143.569
54.12000 143.044
54.16000 137.212
54.20000 147.240
54.24000 137.494
54.28000 127.049
54.32000 146.644
54.36000 131.406
54.40000 135.547
54.44000 141.155
54.48000 132.124
54.52000 136.618
54.56000 151.731
54.60000 145.358
54.64000 146.765
54.68000 142.550
54.72000 133.437
54.76000 137.456
54.80000 142.422
54.84000 143.088
54.88000 139.665
54.92000 155.422
54.96000 146.374
55.00000 153.020
55.04000 140.864
55.08000 150.903
55.12000 146.850
55.16000 154.664
55.20000 162.814
55.24000 164.265
55.28000 167.490
55.32000 175.876
55.36000 181.081
55.40000 185.617
55.44000 215.443
55.48000 206.993
55.52000 233.831
55.56000 267.904
55.60000 303.218
55.64000 333.257
55.68000 384.450
55.72000 461.905
55.76000 512.573
55.80000 570.604
55.84000 639.984
55.88000 688.727
55.92000 689.965
55.96000 696.492
56.00000 677.783
56.04000 621.803
56.08000 579.874
56.12000 507.645
56.16000 449.537
56.20000 389.697
56.24000 323.830
56.28000 261.137
56.32000 248.783
56.36000 227.437
56.40000 208.124
56.44000 177.877
56.48000 164.099
56.52000 157.202
56.56000 139.383
56.60000 156.900
56.64000 151.800
56.68000 150.459
56.72000 150.085
56.76000 135.010
56.80000 143.647
56.84000 135.921
56.88000 137.025
56.92000 133.317
56.96000 134.230
57.00000 133.293
57.04000 129.608
57.08000 143.415
57.12000 129.430
57.16000 128.411
57.20000 130.070
57.24000 135.282
57.28000 122.130
57.32000 124.208
57.36000 124.669
57.40000 121.002
57.44000 130.230
57.48000 115.365
57.52000 133.293
57.56000 127.260
57.60000 129.995
57.64000 126.577
57.68000 118.208
57.72000 130.832
57.76000 125.310
57.80000 123.836
57.84000 132.417
57.88000 127.545
57.92000 124.309
57.96000 121.386
58.00000 126.053
58.04000 119.001
58.08000 123.633
58.12000 125.693
58.16000 127.471
58.20000 126.731
58.24000 113.485
58.28000 123.170
58.32000 127.811
58.36000 121.313
58.40000 119.013
58.44000 122.817
58.48000 119.910
58.52000 118.612
58.56000 118.986
58.60000 129.364
58.64000 125.207
58.68000 115.106
58.72000 114.726
58.76000 114.648
58.80000 120.009
58.84000 127.340
58.88000 125.415
58.92000 113.012
58.96000 118.094
59.00000 133.250
59.04000 119.762
59.08000 111.827
59.12000 106.132
59.16000 114.548
59.20000 127.380
59.24000 121.237
59.28000 111.976
59.32000 108.607
59.36000 117.526
59.40000 124.528
59.44000 113.551
59.48000 125.371
59.52000 117.836
59.56000 118.670
59.60000 126.463
59.64000 117.832
59.68000 123.636
59.72000 122.635
59.76000 115.451
59.80000 124.743
59.84000 115.921
59.88000 124.397
59.92000 110.712
59.96000 115.368
60.00000 114.406
60.04000 118.641
60.08000 119.545
60.12000 116.432
60.16000 108.925
60.20000 114.896
60.24000 113.684
60.28000 114.239
60.32000 118.005
60.36000 118.526
60.40000 112.305
60.44000 109.252
60.48000 110.095
60.52000 105.591
60.56000 110.926
60.60000 113.434
60.64000 127.443
60.68000 121.097
60.72000 113.712
60.76000 120.317
60.80000 112.439
60.84000 115.639
60.88000 125.341
60.92000 117.110
60.96000 114.808
61.00000 125.301
61.04000 118.746
61.08000 131.783
61.12000 131.246
61.16000 117.850
61.20000 123.357
61.24000 123.900
61.28000 125.461
61.32000 127.541
61.36000 120.105
61.40000 128.065
61.44000 129.107
61.48000 122.270
61.52000 157.656
61.56000 196.159
61.60000 230.329
61.64000 256.018
61.68000 293.819
61.72000 278.745
61.76000 263.991
61.80000 214.745
61.84000 171.002
61.88000 141.505
61.92000 140.473
61.96000 135.813
62.00000 132.146
62.04000 122.396
62.08000 126.838
62.12000 130.329
62.16000 119.006
62.20000 136.180
62.24000 137.405
62.28000 124.697
62.32000 132.246
62.36000 125.258
62.40000 128.525
62.44000 124.351
62.48000 128.927
62.52000 129.049
62.56000 127.564
62.60000 121.095
62.64000 126.760
62.68000 122.688
62.72000 127.529
62.76000 134.531
62.80000 131.331
62.84000 125.353
62.88000 124.076
62.92000 125.266
62.96000 125.238
63.00000 136.381
63.04000 115.959
63.08000 136.048
63.12000 132.112
63.16000 126.293
63.20000 130.425
63.24000 129.396
63.28000 137.328
63.32000 130.915
63.36000 137.371
63.40000 128.185
63.44000 135.990
63.48000 123.484
63.52000 127.962
63.56000 142.841
63.60000 142.794
63.64000 141.017
63.68000 135.928
63.72000 147.246
63.76000 148.087
63.80000 135.645
63.84000 138.953
63.88000 134.356
63.92000 140.562
63.96000 133.304
64.00000 140.262
64.04000 145.469
64.08000 131.451
64.12000 152.582
64.16000 148.999
64.20000 141.352
64.24000 150.635
64.28000 148.991
64.32000 154.796
64.36000 147.806
64.40000 156.123
64.44000 147.468
64.48000 158.057
64.52000 154.945
64.56000 161.818
64.60000 149.571
64.64000 158.734
64.68000 153.452
64.72000 168.409
64.76000 171.994
64.80000 170.657
64.84000 171.732
64.88000 176.192
64.92000 192.073
64.96000 179.428
65.00000 186.967
65.04000 191.397
65.08000 200.222
65.12000 204.687
65.16000 192.027
65.20000 200.076
65.24000 214.307
65.28000 232.440
65.32000 227.407
65.36000 247.906
65.40000 247.872
65.44000 255.471
65.48000 276.603
65.52000 301.001
65.56000 324.774
65.60000 348.161
65.64000 399.705
65.68000 537.084
65.72000 821.118
65.76000 1279.230
65.80000 1711.781
65.84000 1856.657
65.88000 1835.575
65.92000 1742.621
65.96000 1465.786
66.00000 1003.243
66.04000 607.505
66.08000 444.540
66.12000 369.627
66.16000 352.527
66.20000 344.031
66.24000 372.707
66.28000 435.705
66.32000 509.182
66.36000 555.741
66.40000 591.852
66.44000 588.541
66.48000 580.906
66.52000 510.469
66.56000 446.240
66.60000 391.228
66.64000 337.363
66.68000 352.662
66.72000 341.798
66.76000 355.103
66.80000 339.361
66.84000 335.666
66.88000 355.935
66.92000 346.281
66.96000 333.482
67.00000 348.900
67.04000 351.675
67.08000 361.278
67.12000 388.831
67.16000 378.304
67.20000 398.332
67.24000 389.683
67.28000 386.307
67.32000 371.876
67.36000 374.521
67.40000 405.313
67.44000 392.833
67.48000 405.165
67.52000 406.520
67.56000 400.199
67.60000 417.593
67.64000 417.354
67.68000 416.342
67.72000 442.925
67.76000 443.095
67.80000 457.115
67.84000 464.164
67.88000 455.875
67.92000 473.045
67.96000 468.155
68.00000 484.369
68.04000 483.184
68.08000 511.151
68.12000 514.720
68.16000 527.904
68.20000 516.198
68.24000 529.415
68.28000 542.557
68.32000 553.822
68.36000 585.203
68.40000 583.019
68.44000 623.167
68.48000 649.826
68.52000 678.107
68.56000 723.292
68.60000 807.881
68.64000 915.232
68.68000 1066.479
68.72000 1253.174
68.76000 1406.513
68.80000 1556.453
68.84000 1777.891
68.88000 2177.969
68.92000 3504.302
68.96000 8476.960
69.00000 20038.285
69.04000 32365.805
69.08000 39157.902
69.12000 41526.523
69.16000 44546.547
69.20000 43886.836
69.24000 35127.273
69.28000 25841.141
69.32000 21436.592
69.36000 19966.389
69.40000 16806.354
69.44000 10107.869
69.48000 4638.072
69.52000 2117.815
69.56000 1307.971
69.60000 1009.377
69.64000 878.180
69.68000 824.034
69.72000 710.737
69.76000 651.719
69.80000 621.163
69.84000 585.960
69.88000 537.044
69.92000 534.259
69.96000 512.677
70.00000 496.782