File: XRD/08-10-2025 Dep 7/XY Data/BTO_Mapping_Theta2Theta_08-10-2025_001_60_27-406_-12-202.xy
20.00000 463.032
20.04000 489.941
20.08000 493.975
20.12000 473.816
20.16000 483.426
20.20000 490.556
20.24000 474.654
20.28000 477.602
20.32000 485.802
20.36000 469.704
20.40000 466.907
20.44000 467.204
20.48000 481.273
20.52000 482.494
20.56000 476.631
20.60000 458.003
20.64000 487.205
20.68000 468.437
20.72000 468.770
20.76000 464.222
20.80000 460.386
20.84000 498.723
20.88000 485.522
20.92000 466.320
20.96000 476.109
21.00000 476.482
21.04000 466.842
21.08000 458.013
21.12000 473.890
21.16000 474.236
21.20000 464.781
21.24000 456.592
21.28000 492.041
21.32000 481.662
21.36000 472.724
21.40000 468.623
21.44000 446.802
21.48000 472.281
21.52000 459.564
21.56000 478.346
21.60000 479.001
21.64000 485.433
21.68000 497.687
21.72000 475.727
21.76000 490.526
21.80000 479.712
21.84000 512.083
21.88000 487.825
21.92000 506.481
21.96000 504.508
22.00000 504.243
22.04000 489.079
22.08000 501.008
22.12000 523.260
22.16000 497.102
22.20000 500.049
22.24000 492.456
22.28000 486.818
22.32000 484.998
22.36000 474.327
22.40000 480.961
22.44000 472.532
22.48000 477.517
22.52000 464.166
22.56000 454.932
22.60000 455.499
22.64000 461.636
22.68000 460.523
22.72000 458.087
22.76000 454.422
22.80000 466.401
22.84000 457.625
22.88000 450.220
22.92000 450.988
22.96000 474.801
23.00000 478.774
23.04000 460.632
23.08000 458.825
23.12000 447.966
23.16000 451.411
23.20000 451.480
23.24000 453.504
23.28000 462.767
23.32000 455.402
23.36000 448.403
23.40000 462.095
23.44000 447.829
23.48000 441.330
23.52000 450.371
23.56000 484.896
23.60000 465.220
23.64000 480.411
23.68000 502.758
23.72000 488.737
23.76000 502.724
23.80000 526.362
23.84000 523.101
23.88000 551.871
23.92000 555.069
23.96000 562.364
24.00000 570.174
24.04000 558.196
24.08000 552.616
24.12000 522.915
24.16000 514.208
24.20000 494.288
24.24000 467.439
24.28000 484.198
24.32000 462.374
24.36000 482.025
24.40000 453.904
24.44000 434.613
24.48000 437.580
24.52000 428.049
24.56000 427.591
24.60000 440.797
24.64000 407.931
24.68000 407.423
24.72000 427.735
24.76000 424.202
24.80000 428.949
24.84000 421.959
24.88000 410.654
24.92000 415.607
24.96000 416.962
25.00000 414.438
25.04000 401.688
25.08000 425.946
25.12000 403.094
25.16000 404.445
25.20000 419.657
25.24000 410.787
25.28000 410.855
25.32000 403.676
25.36000 401.781
25.40000 399.863
25.44000 417.134
25.48000 410.864
25.52000 414.204
25.56000 410.960
25.60000 403.785
25.64000 404.769
25.68000 406.292
25.72000 397.450
25.76000 405.710
25.80000 391.832
25.84000 416.294
25.88000 380.163
25.92000 384.251
25.96000 400.711
26.00000 397.659
26.04000 394.959
26.08000 389.008
26.12000 414.816
26.16000 408.544
26.20000 388.466
26.24000 385.148
26.28000 389.966
26.32000 399.923
26.36000 370.778
26.40000 384.310
26.44000 393.839
26.48000 386.538
26.52000 387.823
26.56000 402.908
26.60000 382.863
26.64000 381.992
26.68000 398.099
26.72000 390.822
26.76000 399.447
26.80000 377.395
26.84000 382.899
26.88000 388.137
26.92000 381.758
26.96000 391.085
27.00000 390.085
27.04000 403.580
27.08000 381.645
27.12000 379.482
27.16000 373.830
27.20000 372.527
27.24000 379.544
27.28000 382.833
27.32000 372.413
27.36000 377.692
27.40000 377.536
27.44000 383.574
27.48000 381.444
27.52000 379.480
27.56000 406.668
27.60000 389.158
27.64000 373.824
27.68000 379.959
27.72000 393.800
27.76000 365.630
27.80000 377.764
27.84000 371.530
27.88000 373.021
27.92000 382.963
27.96000 383.170
28.00000 376.503
28.04000 368.865
28.08000 370.631
28.12000 387.338
28.16000 374.340
28.20000 376.005
28.24000 374.782
28.28000 378.399
28.32000 368.408
28.36000 371.526
28.40000 361.695
28.44000 391.596
28.48000 371.111
28.52000 359.578
28.56000 373.830
28.60000 361.055
28.64000 370.935
28.68000 364.718
28.72000 361.690
28.76000 367.226
28.80000 364.940
28.84000 375.324
28.88000 370.093
28.92000 391.286
28.96000 354.245
29.00000 358.943
29.04000 375.934
29.08000 362.150
29.12000 365.015
29.16000 370.945
29.20000 366.803
29.24000 353.652
29.28000 353.818
29.32000 370.456
29.36000 365.817
29.40000 360.106
29.44000 359.635
29.48000 362.861
29.52000 361.411
29.56000 362.937
29.60000 363.335
29.64000 366.099
29.68000 366.993
29.72000 361.517
29.76000 386.013
29.80000 375.918
29.84000 394.341
29.88000 374.511
29.92000 387.938
29.96000 375.691
30.00000 380.770
30.04000 375.277
30.08000 392.302
30.12000 376.399
30.16000 391.115
30.20000 387.531
30.24000 370.404
30.28000 372.653
30.32000 381.989
30.36000 371.387
30.40000 352.381
30.44000 364.285
30.48000 386.860
30.52000 379.186
30.56000 373.817
30.60000 369.671
30.64000 395.796
30.68000 391.580
30.72000 388.421
30.76000 399.643
30.80000 395.423
30.84000 395.149
30.88000 424.690
30.92000 442.460
30.96000 461.589
31.00000 502.673
31.04000 510.877
31.08000 581.046
31.12000 643.878
31.16000 736.538
31.20000 806.281
31.24000 829.329
31.28000 946.594
31.32000 1006.422
31.36000 1034.658
31.40000 1022.918
31.44000 979.071
31.48000 903.658
31.52000 817.732
31.56000 693.284
31.60000 623.457
31.64000 549.600
31.68000 497.832
31.72000 463.577
31.76000 413.827
31.80000 415.066
31.84000 395.227
31.88000 364.913
31.92000 372.613
31.96000 371.709
32.00000 370.569
32.04000 371.265
32.08000 359.047
32.12000 347.675
32.16000 361.090
32.20000 350.848
32.24000 358.712
32.28000 354.534
32.32000 341.578
32.36000 320.716
32.40000 345.960
32.44000 337.641
32.48000 334.195
32.52000 325.417
32.56000 344.032
32.60000 337.226
32.64000 323.402
32.68000 325.419
32.72000 323.686
32.76000 323.759
32.80000 326.709
32.84000 314.319
32.88000 344.238
32.92000 320.391
32.96000 317.047
33.00000 325.583
33.04000 323.900
33.08000 296.890
33.12000 306.911
33.16000 299.393
33.20000 316.823
33.24000 306.602
33.28000 299.528
33.32000 292.961
33.36000 305.436
33.40000 310.757
33.44000 284.743
33.48000 286.895
33.52000 318.530
33.56000 304.955
33.60000 299.125
33.64000 294.297
33.68000 301.916
33.72000 298.669
33.76000 315.049
33.80000 306.744
33.84000 313.933
33.88000 301.066
33.92000 323.273
33.96000 311.936
34.00000 308.229
34.04000 318.255
34.08000 315.912
34.12000 332.076
34.16000 321.798
34.20000 331.491
34.24000 330.161
34.28000 341.305
34.32000 330.116
34.36000 324.808
34.40000 332.427
34.44000 330.141
34.48000 353.580
34.52000 333.131
34.56000 314.382
34.60000 308.645
34.64000 330.931
34.68000 301.326
34.72000 299.698
34.76000 289.007
34.80000 281.965
34.84000 282.922
34.88000 293.553
34.92000 288.387
34.96000 271.076
35.00000 280.187
35.04000 275.921
35.08000 261.554
35.12000 265.382
35.16000 270.149
35.20000 269.612
35.24000 272.968
35.28000 256.128
35.32000 270.282
35.36000 264.172
35.40000 270.401
35.44000 276.385
35.48000 257.088
35.52000 266.872
35.56000 272.689
35.60000 256.116
35.64000 266.233
35.68000 251.110
35.72000 264.972
35.76000 267.978
35.80000 255.705
35.84000 258.848
35.88000 271.664
35.92000 280.322
35.96000 253.999
36.00000 258.574
36.04000 260.438
36.08000 258.085
36.12000 250.375
36.16000 255.909
36.20000 265.506
36.24000 266.875
36.28000 267.279
36.32000 260.672
36.36000 262.670
36.40000 258.393
36.44000 253.889
36.48000 254.722
36.52000 266.692
36.56000 260.637
36.60000 262.552
36.64000 261.118
36.68000 266.866
36.72000 252.820
36.76000 273.011
36.80000 256.473
36.84000 251.196
36.88000 262.921
36.92000 283.084
36.96000 273.384
37.00000 256.064
37.04000 279.356
37.08000 279.328
37.12000 264.942
37.16000 273.580
37.20000 258.508
37.24000 265.662
37.28000 257.825
37.32000 253.378
37.36000 254.156
37.40000 252.673
37.44000 253.427
37.48000 258.467
37.52000 247.528
37.56000 255.288
37.60000 247.813
37.64000 244.090
37.68000 242.447
37.72000 251.370
37.76000 259.975
37.80000 254.707
37.84000 253.945
37.88000 261.647
37.92000 261.735
37.96000 250.085
38.00000 268.990
38.04000 268.533
38.08000 265.554
38.12000 289.106
38.16000 286.969
38.20000 279.230
38.24000 273.356
38.28000 291.756
38.32000 313.922
38.36000 329.341
38.40000 368.408
38.44000 401.636
38.48000 466.999
38.52000 542.638
38.56000 623.716
38.60000 700.740
38.64000 766.387
38.68000 809.597
38.72000 789.694
38.76000 762.679
38.80000 679.603
38.84000 592.208
38.88000 501.247
38.92000 421.821
38.96000 378.540
39.00000 338.131
39.04000 301.127
39.08000 275.560
39.12000 268.394
39.16000 262.625
39.20000 266.095
39.24000 252.892
39.28000 251.912
39.32000 251.112
39.36000 253.427
39.40000 236.676
39.44000 251.646
39.48000 235.641
39.52000 240.398
39.56000 252.853
39.60000 235.771
39.64000 237.410
39.68000 238.736
39.72000 244.624
39.76000 232.916
39.80000 236.775
39.84000 236.778
39.88000 238.683
39.92000 242.659
39.96000 226.747
40.00000 229.031
40.04000 227.514
40.08000 236.092
40.12000 232.548
40.16000 212.789
40.20000 231.096
40.24000 238.440
40.28000 238.412
40.32000 225.796
40.36000 229.353
40.40000 229.778
40.44000 222.566
40.48000 223.462
40.52000 231.136
40.56000 220.567
40.60000 211.497
40.64000 230.584
40.68000 228.179
40.72000 222.087
40.76000 221.037
40.80000 220.187
40.84000 227.451
40.88000 219.197
40.92000 224.346
40.96000 213.424
41.00000 234.434
41.04000 220.677
41.08000 227.794
41.12000 205.559
41.16000 208.901
41.20000 206.135
41.24000 226.594
41.28000 199.218
41.32000 214.363
41.36000 205.477
41.40000 213.126
41.44000 210.054
41.48000 211.101
41.52000 217.777
41.56000 207.882
41.60000 205.642
41.64000 221.579
41.68000 210.053
41.72000 230.412
41.76000 225.787
41.80000 209.964
41.84000 212.508
41.88000 213.623
41.92000 207.491
41.96000 223.990
42.00000 244.286
42.04000 229.188
42.08000 222.205
42.12000 227.871
42.16000 219.659
42.20000 225.391
42.24000 233.648
42.28000 230.798
42.32000 222.644
42.36000 224.758
42.40000 226.307
42.44000 227.038
42.48000 239.030
42.52000 218.630
42.56000 211.820
42.60000 213.106
42.64000 210.550
42.68000 212.968
42.72000 216.958
42.76000 209.740
42.80000 211.027
42.84000 211.045
42.88000 223.649
42.92000 217.743
42.96000 217.428
43.00000 210.221
43.04000 209.853
43.08000 192.881
43.12000 200.006
43.16000 196.378
43.20000 219.980
43.24000 201.700
43.28000 209.662
43.32000 207.874
43.36000 206.922
43.40000 207.622
43.44000 192.544
43.48000 201.800
43.52000 206.503
43.56000 202.495
43.60000 206.818
43.64000 203.073
43.68000 194.061
43.72000 192.827
43.76000 191.856
43.80000 190.729
43.84000 199.237
43.88000 197.734
43.92000 196.551
43.96000 191.702
44.00000 177.406
44.04000 210.994
44.08000 203.203
44.12000 196.172
44.16000 201.151
44.20000 198.503
44.24000 215.582
44.28000 195.360
44.32000 201.341
44.36000 197.610
44.40000 210.411
44.44000 225.446
44.48000 208.974
44.52000 216.051
44.56000 205.857
44.60000 211.042
44.64000 211.178
44.68000 226.048
44.72000 232.154
44.76000 235.153
44.80000 246.128
44.84000 245.063
44.88000 226.861
44.92000 246.110
44.96000 231.620
45.00000 239.969
45.04000 225.860
45.08000 234.002
45.12000 234.110
45.16000 247.574
45.20000 244.064
45.24000 245.555
45.28000 227.538
45.32000 209.750
45.36000 237.830
45.40000 210.591
45.44000 215.291
45.48000 206.086
45.52000 207.498
45.56000 201.608
45.60000 198.184
45.64000 194.412
45.68000 199.073
45.72000 192.725
45.76000 188.154
45.80000 187.940
45.84000 180.184
45.88000 182.353
45.92000 181.233
45.96000 184.063
46.00000 189.568
46.04000 179.295
46.08000 166.985
46.12000 190.719
46.16000 176.635
46.20000 180.106
46.24000 180.995
46.28000 178.582
46.32000 179.079
46.36000 175.920
46.40000 177.314
46.44000 180.067
46.48000 172.898
46.52000 175.800
46.56000 181.469
46.60000 174.065
46.64000 183.446
46.68000 176.388
46.72000 185.015
46.76000 177.369
46.80000 175.123
46.84000 171.912
46.88000 179.698
46.92000 179.862
46.96000 180.927
47.00000 178.864
47.04000 168.606
47.08000 165.082
47.12000 169.523
47.16000 167.056
47.20000 163.933
47.24000 161.690
47.28000 169.933
47.32000 175.837
47.36000 158.429
47.40000 167.292
47.44000 175.759
47.48000 166.934
47.52000 175.244
47.56000 168.532
47.60000 168.857
47.64000 168.529
47.68000 164.205
47.72000 173.610
47.76000 172.413
47.80000 158.109
47.84000 165.625
47.88000 154.830
47.92000 165.460
47.96000 179.299
48.00000 167.499
48.04000 161.592
48.08000 162.752
48.12000 172.710
48.16000 165.136
48.20000 165.869
48.24000 164.518
48.28000 166.012
48.32000 156.997
48.36000 168.680
48.40000 166.981
48.44000 158.711
48.48000 163.364
48.52000 166.042
48.56000 158.580
48.60000 159.451
48.64000 150.105
48.68000 160.338
48.72000 162.711
48.76000 160.047
48.80000 152.981
48.84000 160.707
48.88000 155.738
48.92000 166.652
48.96000 164.832
49.00000 154.370
49.04000 149.835
49.08000 145.979
49.12000 160.609
49.16000 157.856
49.20000 153.268
49.24000 162.437
49.28000 156.615
49.32000 141.305
49.36000 160.833
49.40000 144.036
49.44000 159.074
49.48000 152.027
49.52000 163.722
49.56000 161.215
49.60000 150.740
49.64000 148.423
49.68000 153.324
49.72000 154.576
49.76000 156.321
49.80000 153.678
49.84000 166.133
49.88000 173.161
49.92000 163.505
49.96000 158.631
50.00000 156.125
50.04000 154.212
50.08000 148.279
50.12000 165.219
50.16000 160.945
50.20000 150.978
50.24000 159.177
50.28000 160.859
50.32000 161.564
50.36000 166.947
50.40000 167.440
50.44000 160.275
50.48000 154.779
50.52000 168.086
50.56000 167.582
50.60000 168.705
50.64000 172.170
50.68000 172.978
50.72000 173.788
50.76000 166.902
50.80000 164.000
50.84000 169.614
50.88000 170.648
50.92000 170.586
50.96000 165.453
51.00000 156.386
51.04000 156.794
51.08000 159.270
51.12000 144.529
51.16000 144.137
51.20000 156.566
51.24000 135.165
51.28000 152.227
51.32000 150.103
51.36000 138.897
51.40000 144.339
51.44000 148.412
51.48000 152.225
51.52000 137.371
51.56000 147.791
51.60000 142.142
51.64000 131.773
51.68000 131.169
51.72000 150.232
51.76000 139.311
51.80000 150.933
51.84000 144.193
51.88000 137.473
51.92000 124.781
51.96000 148.804
52.00000 138.909
52.04000 137.322
52.08000 134.468
52.12000 141.061
52.16000 142.298
52.20000 137.266
52.24000 143.447
52.28000 141.538
52.32000 141.387
52.36000 144.244
52.40000 146.956
52.44000 139.502
52.48000 147.020
52.52000 143.138
52.56000 146.643
52.60000 147.319
52.64000 134.313
52.68000 148.550
52.72000 133.093
52.76000 139.333
52.80000 141.626
52.84000 149.371
52.88000 146.914
52.92000 147.696
52.96000 149.985
53.00000 145.460
53.04000 142.375
53.08000 145.944
53.12000 153.705
53.16000 141.391
53.20000 148.273
53.24000 139.050
53.28000 145.335
53.32000 157.301
53.36000 166.017
53.40000 141.332
53.44000 139.165
53.48000 131.976
53.52000 145.424
53.56000 147.129
53.60000 143.041
53.64000 150.355
53.68000 144.083
53.72000 155.667
53.76000 143.406
53.80000 143.998
53.84000 148.722
53.88000 142.694
53.92000 136.196
53.96000 138.684
54.00000 148.195
54.04000 145.275
54.08000 129.905
54.12000 146.193
54.16000 139.182
54.20000 139.627
54.24000 144.762
54.28000 135.593
54.32000 142.653
54.36000 148.252
54.40000 140.932
54.44000 138.276
54.48000 152.823
54.52000 143.831
54.56000 148.091
54.60000 152.149
54.64000 137.872
54.68000 150.820
54.72000 147.225
54.76000 145.220
54.80000 139.630
54.84000 144.237
54.88000 141.864
54.92000 138.448
54.96000 155.504
55.00000 159.833
55.04000 142.911
55.08000 153.485
55.12000 141.798
55.16000 150.452
55.20000 161.584
55.24000 157.974
55.28000 172.263
55.32000 173.969
55.36000 171.574
55.40000 175.434
55.44000 185.658
55.48000 195.738
55.52000 200.579
55.56000 219.064
55.60000 239.778
55.64000 256.854
55.68000 275.238
55.72000 306.753
55.76000 324.846
55.80000 350.184
55.84000 366.208
55.88000 353.611
55.92000 351.158
55.96000 366.262
56.00000 341.287
56.04000 343.376
56.08000 325.680
56.12000 292.393
56.16000 267.156
56.20000 249.511
56.24000 232.784
56.28000 217.744
56.32000 213.892
56.36000 198.333
56.40000 178.391
56.44000 178.249
56.48000 171.710
56.52000 156.689
56.56000 156.660
56.60000 165.762
56.64000 156.708
56.68000 136.654
56.72000 134.100
56.76000 140.475
56.80000 137.092
56.84000 141.183
56.88000 141.128
56.92000 134.890
56.96000 132.232
57.00000 135.196
57.04000 137.549
57.08000 137.678
57.12000 131.940
57.16000 133.355
57.20000 122.985
57.24000 131.007
57.28000 124.882
57.32000 131.868
57.36000 126.439
57.40000 136.649
57.44000 132.459
57.48000 129.452
57.52000 131.477
57.56000 128.400
57.60000 126.985
57.64000 137.152
57.68000 128.084
57.72000 121.921
57.76000 130.629
57.80000 122.434
57.84000 110.647
57.88000 118.199
57.92000 123.882
57.96000 131.359
58.00000 133.224
58.04000 130.286
58.08000 116.143
58.12000 129.014
58.16000 122.872
58.20000 118.616
58.24000 119.582
58.28000 124.869
58.32000 125.526
58.36000 129.168
58.40000 125.332
58.44000 116.267
58.48000 118.635
58.52000 128.508
58.56000 123.919
58.60000 121.518
58.64000 116.746
58.68000 127.192
58.72000 130.587
58.76000 125.771
58.80000 123.848
58.84000 125.209
58.88000 123.390
58.92000 120.277
58.96000 124.433
59.00000 124.304
59.04000 118.792
59.08000 124.482
59.12000 122.399
59.16000 132.770
59.20000 121.126
59.24000 119.028
59.28000 115.737
59.32000 118.145
59.36000 122.522
59.40000 118.223
59.44000 117.955
59.48000 116.118
59.52000 114.198
59.56000 124.910
59.60000 116.086
59.64000 121.332
59.68000 111.622
59.72000 118.297
59.76000 112.973
59.80000 113.100
59.84000 132.635
59.88000 127.353
59.92000 126.216
59.96000 122.039
60.00000 118.192
60.04000 117.480
60.08000 115.588
60.12000 117.092
60.16000 125.569
60.20000 126.677
60.24000 112.718
60.28000 119.591
60.32000 123.899
60.36000 116.339
60.40000 125.061
60.44000 110.199
60.48000 117.545
60.52000 112.260
60.56000 114.429
60.60000 127.953
60.64000 110.401
60.68000 120.420
60.72000 118.485
60.76000 120.813
60.80000 122.598
60.84000 117.692
60.88000 119.846
60.92000 116.336
60.96000 123.565
61.00000 127.248
61.04000 117.533
61.08000 117.412
61.12000 130.105
61.16000 122.998
61.20000 126.103
61.24000 122.903
61.28000 138.575
61.32000 125.600
61.36000 137.086
61.40000 131.097
61.44000 122.163
61.48000 139.951
61.52000 177.843
61.56000 209.645
61.60000 265.969
61.64000 279.250
61.68000 285.850
61.72000 288.154
61.76000 265.913
61.80000 205.583
61.84000 159.871
61.88000 144.402
61.92000 140.541
61.96000 142.957
62.00000 132.881
62.04000 125.855
62.08000 133.325
62.12000 128.026
62.16000 130.805
62.20000 122.832
62.24000 126.751
62.28000 127.006
62.32000 125.921
62.36000 129.372
62.40000 118.884
62.44000 129.648
62.48000 132.053
62.52000 127.753
62.56000 127.611
62.60000 128.428
62.64000 125.404
62.68000 132.052
62.72000 134.267
62.76000 133.702
62.80000 130.128
62.84000 131.567
62.88000 131.781
62.92000 133.824
62.96000 135.667
63.00000 131.616
63.04000 134.757
63.08000 133.217
63.12000 139.348
63.16000 135.073
63.20000 137.603
63.24000 129.741
63.28000 149.483
63.32000 135.648
63.36000 134.365
63.40000 140.202
63.44000 140.556
63.48000 135.469
63.52000 134.693
63.56000 127.223
63.60000 140.857
63.64000 154.317
63.68000 141.135
63.72000 141.185
63.76000 141.559
63.80000 143.174
63.84000 141.560
63.88000 140.978
63.92000 142.210
63.96000 142.619
64.00000 156.259
64.04000 144.295
64.08000 150.668
64.12000 156.047
64.16000 146.760
64.20000 161.221
64.24000 151.863
64.28000 146.888
64.32000 156.627
64.36000 156.368
64.40000 166.424
64.44000 168.817
64.48000 152.781
64.52000 173.835
64.56000 160.682
64.60000 176.638
64.64000 169.214
64.68000 163.012
64.72000 163.741
64.76000 174.156
64.80000 189.169
64.84000 180.277
64.88000 186.740
64.92000 184.116
64.96000 194.929
65.00000 191.465
65.04000 193.804
65.08000 190.891
65.12000 192.363
65.16000 209.206
65.20000 210.286
65.24000 220.339
65.28000 232.028
65.32000 230.871
65.36000 243.310
65.40000 257.929
65.44000 280.320
65.48000 273.835
65.52000 292.573
65.56000 314.638
65.60000 366.066
65.64000 432.449
65.68000 623.930
65.72000 1035.709
65.76000 1474.763
65.80000 1802.997
65.84000 1943.197
65.88000 1905.116
65.92000 1759.828
65.96000 1303.668
66.00000 853.803
66.04000 562.982
66.08000 427.560
66.12000 382.424
66.16000 359.411
66.20000 372.754
66.24000 397.444
66.28000 475.137
66.32000 563.822
66.36000 620.025
66.40000 621.422
66.44000 605.063
66.48000 582.151
66.52000 503.993
66.56000 422.920
66.60000 378.541
66.64000 375.970
66.68000 351.577
66.72000 359.187
66.76000 364.634
66.80000 365.175
66.84000 344.121
66.88000 355.282
66.92000 353.907
66.96000 367.018
67.00000 366.934
67.04000 369.428
67.08000 393.332
67.12000 376.444
67.16000 378.501
67.20000 406.798
67.24000 389.256
67.28000 392.550
67.32000 416.144
67.36000 389.130
67.40000 421.635
67.44000 427.412
67.48000 398.487
67.52000 417.724
67.56000 410.154
67.60000 434.864
67.64000 450.362
67.68000 440.254
67.72000 452.834
67.76000 457.173
67.80000 450.029
67.84000 478.831
67.88000 480.931
67.92000 485.660
67.96000 496.303
68.00000 503.532
68.04000 497.387
68.08000 500.434
68.12000 540.562
68.16000 557.883
68.20000 546.213
68.24000 548.093
68.28000 583.438
68.32000 582.607
68.36000 611.300
68.40000 632.842
68.44000 650.247
68.48000 681.957
68.52000 768.516
68.56000 795.270
68.60000 896.469
68.64000 1036.359
68.68000 1179.331
68.72000 1335.660
68.76000 1515.641
68.80000 1729.569
68.84000 2001.518
68.88000 2589.280
68.92000 4823.772
68.96000 12289.173
69.00000 25516.721
69.04000 36415.723
69.08000 41513.637
69.12000 44072.469
69.16000 46819.164
69.20000 43200.770
69.24000 32535.574
69.28000 24577.951
69.32000 21488.201
69.36000 20028.730
69.40000 15244.355
69.44000 8191.666
69.48000 3509.393
69.52000 1781.903
69.56000 1257.366
69.60000 999.282
69.64000 880.629
69.68000 777.509
69.72000 708.944
69.76000 662.186
69.80000 601.510
69.84000 564.010
69.88000 544.546
69.92000 549.672
69.96000 518.858
70.00000 488.484