File: XRD/08-10-2025 Dep 7/XY Data/BTO_Mapping_Theta2Theta_08-10-2025_001_28_-24-271_17-634.xy
20.00000 508.380
20.04000 477.914
20.08000 473.290
20.12000 465.863
20.16000 459.851
20.20000 467.160
20.24000 467.333
20.28000 456.127
20.32000 495.846
20.36000 460.609
20.40000 465.934
20.44000 454.080
20.48000 457.874
20.52000 467.489
20.56000 473.671
20.60000 471.317
20.64000 456.051
20.68000 470.176
20.72000 462.047
20.76000 459.051
20.80000 464.309
20.84000 474.972
20.88000 458.672
20.92000 461.280
20.96000 481.437
21.00000 467.580
21.04000 468.268
21.08000 473.982
21.12000 466.699
21.16000 463.046
21.20000 468.788
21.24000 478.243
21.28000 460.439
21.32000 459.627
21.36000 452.158
21.40000 451.279
21.44000 451.799
21.48000 465.979
21.52000 455.807
21.56000 481.336
21.60000 469.721
21.64000 472.303
21.68000 480.487
21.72000 482.759
21.76000 490.029
21.80000 491.193
21.84000 501.899
21.88000 513.339
21.92000 534.806
21.96000 545.176
22.00000 556.548
22.04000 565.446
22.08000 562.183
22.12000 561.408
22.16000 559.326
22.20000 544.367
22.24000 531.982
22.28000 517.839
22.32000 507.822
22.36000 499.002
22.40000 487.755
22.44000 486.613
22.48000 466.995
22.52000 455.097
22.56000 457.824
22.60000 436.740
22.64000 445.998
22.68000 434.184
22.72000 420.288
22.76000 432.319
22.80000 431.023
22.84000 443.105
22.88000 433.910
22.92000 443.855
22.96000 423.699
23.00000 422.659
23.04000 427.026
23.08000 430.090
23.12000 429.077
23.16000 434.922
23.20000 436.418
23.24000 408.951
23.28000 424.692
23.32000 438.894
23.36000 431.061
23.40000 426.130
23.44000 424.626
23.48000 422.865
23.52000 435.952
23.56000 432.838
23.60000 436.505
23.64000 424.811
23.68000 432.301
23.72000 443.345
23.76000 433.154
23.80000 436.784
23.84000 448.834
23.88000 453.557
23.92000 442.829
23.96000 453.475
24.00000 454.912
24.04000 446.717
24.08000 454.120
24.12000 435.993
24.16000 444.755
24.20000 428.780
24.24000 421.948
24.28000 429.927
24.32000 420.276
24.36000 433.948
24.40000 412.008
24.44000 422.892
24.48000 411.665
24.52000 411.983
24.56000 397.742
24.60000 395.000
24.64000 406.492
24.68000 409.369
24.72000 399.789
24.76000 413.543
24.80000 412.739
24.84000 401.457
24.88000 407.327
24.92000 400.597
24.96000 395.501
25.00000 420.981
25.04000 397.688
25.08000 402.170
25.12000 393.339
25.16000 396.940
25.20000 414.014
25.24000 407.534
25.28000 401.399
25.32000 383.467
25.36000 389.337
25.40000 401.971
25.44000 394.502
25.48000 387.684
25.52000 389.029
25.56000 390.716
25.60000 388.597
25.64000 368.727
25.68000 385.006
25.72000 391.560
25.76000 394.981
25.80000 388.969
25.84000 380.038
25.88000 393.337
25.92000 407.266
25.96000 375.175
26.00000 382.983
26.04000 401.765
26.08000 397.200
26.12000 371.694
26.16000 401.175
26.20000 387.295
26.24000 375.249
26.28000 373.382
26.32000 405.587
26.36000 377.975
26.40000 382.499
26.44000 384.542
26.48000 381.630
26.52000 385.423
26.56000 389.076
26.60000 382.426
26.64000 390.399
26.68000 369.603
26.72000 379.544
26.76000 387.428
26.80000 383.161
26.84000 377.883
26.88000 367.876
26.92000 370.769
26.96000 364.883
27.00000 376.302
27.04000 372.221
27.08000 375.167
27.12000 370.546
27.16000 389.670
27.20000 375.097
27.24000 366.000
27.28000 355.306
27.32000 368.744
27.36000 378.337
27.40000 370.490
27.44000 384.023
27.48000 369.844
27.52000 367.913
27.56000 369.865
27.60000 377.513
27.64000 381.192
27.68000 373.698
27.72000 375.154
27.76000 366.141
27.80000 368.831
27.84000 385.231
27.88000 385.589
27.92000 366.754
27.96000 354.625
28.00000 381.870
28.04000 369.248
28.08000 368.307
28.12000 378.319
28.16000 354.292
28.20000 355.388
28.24000 362.702
28.28000 384.164
28.32000 354.548
28.36000 346.786
28.40000 367.238
28.44000 352.334
28.48000 356.078
28.52000 337.643
28.56000 360.547
28.60000 357.756
28.64000 368.456
28.68000 358.816
28.72000 350.211
28.76000 360.895
28.80000 337.365
28.84000 356.169
28.88000 362.030
28.92000 354.370
28.96000 361.096
29.00000 365.882
29.04000 358.955
29.08000 342.945
29.12000 348.426
29.16000 344.583
29.20000 357.327
29.24000 343.532
29.28000 361.380
29.32000 359.562
29.36000 344.323
29.40000 358.373
29.44000 353.398
29.48000 340.390
29.52000 345.485
29.56000 344.895
29.60000 364.173
29.64000 357.627
29.68000 359.560
29.72000 362.958
29.76000 371.500
29.80000 378.193
29.84000 378.984
29.88000 388.558
29.92000 383.987
29.96000 387.723
30.00000 420.961
30.04000 396.433
30.08000 408.539
30.12000 393.870
30.16000 399.787
30.20000 407.325
30.24000 383.894
30.28000 355.859
30.32000 375.437
30.36000 361.908
30.40000 373.899
30.44000 354.296
30.48000 362.224
30.52000 379.138
30.56000 359.863
30.60000 361.533
30.64000 373.124
30.68000 380.419
30.72000 375.547
30.76000 360.444
30.80000 360.051
30.84000 379.551
30.88000 392.002
30.92000 415.838
30.96000 435.171
31.00000 476.887
31.04000 529.474
31.08000 608.005
31.12000 737.005
31.16000 917.186
31.20000 1122.604
31.24000 1344.559
31.28000 1584.981
31.32000 1794.940
31.36000 1876.727
31.40000 1876.792
31.44000 1727.984
31.48000 1592.153
31.52000 1360.873
31.56000 1124.878
31.60000 892.631
31.64000 716.177
31.68000 596.688
31.72000 494.234
31.76000 459.916
31.80000 412.135
31.84000 392.280
31.88000 361.986
31.92000 360.275
31.96000 358.584
32.00000 356.778
32.04000 346.127
32.08000 343.569
32.12000 333.224
32.16000 334.108
32.20000 336.316
32.24000 334.992
32.28000 319.906
32.32000 318.413
32.36000 328.926
32.40000 319.098
32.44000 336.162
32.48000 325.181
32.52000 322.689
32.56000 315.627
32.60000 323.623
32.64000 309.762
32.68000 307.202
32.72000 315.645
32.76000 302.110
32.80000 336.372
32.84000 314.240
32.88000 323.431
32.92000 333.377
32.96000 310.386
33.00000 323.761
33.04000 311.503
33.08000 308.413
33.12000 292.957
33.16000 299.871
33.20000 305.935
33.24000 303.864
33.28000 292.909
33.32000 308.608
33.36000 295.538
33.40000 313.726
33.44000 291.410
33.48000 283.228
33.52000 283.841
33.56000 287.076
33.60000 303.459
33.64000 303.095
33.68000 307.774
33.72000 310.936
33.76000 295.768
33.80000 303.497
33.84000 305.862
33.88000 299.566
33.92000 310.889
33.96000 300.860
34.00000 317.279
34.04000 307.283
34.08000 304.828
34.12000 335.475
34.16000 333.472
34.20000 306.221
34.24000 315.120
34.28000 341.524
34.32000 329.016
34.36000 318.506
34.40000 324.268
34.44000 342.259
34.48000 327.100
34.52000 321.436
34.56000 315.356
34.60000 318.464
34.64000 310.726
34.68000 297.493
34.72000 308.176
34.76000 296.841
34.80000 304.143
34.84000 286.283
34.88000 281.429
34.92000 288.143
34.96000 282.810
35.00000 274.595
35.04000 280.542
35.08000 265.923
35.12000 262.985
35.16000 263.217
35.20000 272.766
35.24000 269.179
35.28000 274.110
35.32000 259.345
35.36000 278.389
35.40000 272.261
35.44000 277.470
35.48000 267.141
35.52000 259.421
35.56000 275.760
35.60000 262.528
35.64000 274.425
35.68000 270.326
35.72000 252.581
35.76000 262.720
35.80000 262.854
35.84000 267.574
35.88000 264.910
35.92000 248.599
35.96000 254.614
36.00000 263.253
36.04000 262.558
36.08000 252.836
36.12000 257.453
36.16000 269.817
36.20000 257.570
36.24000 254.962
36.28000 248.139
36.32000 258.419
36.36000 247.823
36.40000 259.336
36.44000 266.369
36.48000 257.572
36.52000 263.770
36.56000 249.928
36.60000 254.305
36.64000 255.579
36.68000 259.735
36.72000 274.630
36.76000 262.159
36.80000 263.103
36.84000 270.742
36.88000 266.843
36.92000 285.118
36.96000 263.518
37.00000 266.354
37.04000 271.788
37.08000 276.779
37.12000 270.407
37.16000 272.884
37.20000 252.230
37.24000 264.354
37.28000 261.552
37.32000 256.727
37.36000 260.389
37.40000 261.044
37.44000 248.258
37.48000 248.463
37.52000 262.103
37.56000 263.618
37.60000 263.407
37.64000 260.803
37.68000 266.025
37.72000 258.326
37.76000 256.981
37.80000 258.239
37.84000 259.362
37.88000 255.994
37.92000 255.263
37.96000 246.802
38.00000 258.585
38.04000 250.532
38.08000 250.314
38.12000 242.299
38.16000 255.623
38.20000 268.695
38.24000 270.374
38.28000 285.709
38.32000 324.650
38.36000 350.965
38.40000 408.364
38.44000 450.543
38.48000 550.998
38.52000 657.149
38.56000 751.901
38.60000 855.786
38.64000 952.344
38.68000 1011.728
38.72000 1035.907
38.76000 1038.495
38.80000 982.555
38.84000 859.683
38.88000 735.900
38.92000 606.836
38.96000 505.449
39.00000 416.031
39.04000 353.906
39.08000 325.975
39.12000 273.795
39.16000 266.741
39.20000 263.149
39.24000 245.072
39.28000 245.646
39.32000 244.635
39.36000 232.070
39.40000 234.262
39.44000 245.933
39.48000 227.742
39.52000 233.989
39.56000 225.161
39.60000 229.173
39.64000 232.802
39.68000 244.415
39.72000 233.454
39.76000 230.719
39.80000 225.162
39.84000 227.872
39.88000 236.894
39.92000 242.321
39.96000 250.975
40.00000 226.433
40.04000 226.985
40.08000 241.899
40.12000 228.797
40.16000 222.223
40.20000 221.511
40.24000 216.694
40.28000 220.863
40.32000 218.007
40.36000 215.866
40.40000 216.986
40.44000 219.768
40.48000 216.853
40.52000 226.926
40.56000 215.363
40.60000 207.311
40.64000 208.771
40.68000 198.176
40.72000 216.650
40.76000 217.913
40.80000 219.234
40.84000 209.087
40.88000 214.260
40.92000 208.452
40.96000 211.720
41.00000 222.001
41.04000 209.505
41.08000 217.021
41.12000 212.911
41.16000 215.405
41.20000 214.398
41.24000 218.474
41.28000 209.579
41.32000 200.414
41.36000 202.845
41.40000 209.218
41.44000 206.258
41.48000 212.606
41.52000 203.943
41.56000 205.951
41.60000 201.080
41.64000 210.828
41.68000 194.991
41.72000 202.893
41.76000 197.228
41.80000 193.686
41.84000 208.142
41.88000 212.273
41.92000 211.876
41.96000 203.324
42.00000 199.300
42.04000 200.696
42.08000 196.173
42.12000 188.584
42.16000 208.178
42.20000 201.736
42.24000 206.630
42.28000 208.281
42.32000 207.230
42.36000 200.062
42.40000 207.596
42.44000 196.102
42.48000 211.595
42.52000 206.680
42.56000 200.774
42.60000 194.180
42.64000 196.379
42.68000 196.525
42.72000 210.226
42.76000 199.408
42.80000 192.340
42.84000 196.089
42.88000 184.718
42.92000 200.600
42.96000 192.851
43.00000 212.595
43.04000 198.259
43.08000 215.209
43.12000 200.457
43.16000 193.407
43.20000 192.611
43.24000 201.761
43.28000 202.779
43.32000 196.717
43.36000 188.412
43.40000 193.446
43.44000 191.796
43.48000 197.816
43.52000 195.746
43.56000 198.968
43.60000 190.850
43.64000 192.097
43.68000 199.212
43.72000 200.621
43.76000 189.087
43.80000 185.122
43.84000 199.603
43.88000 185.410
43.92000 186.420
43.96000 192.338
44.00000 195.334
44.04000 191.468
44.08000 186.290
44.12000 189.250
44.16000 189.032
44.20000 201.823
44.24000 198.845
44.28000 197.100
44.32000 187.721
44.36000 208.362
44.40000 199.539
44.44000 201.241
44.48000 195.971
44.52000 199.815
44.56000 196.238
44.60000 209.030
44.64000 217.379
44.68000 205.063
44.72000 228.549
44.76000 232.336
44.80000 232.450
44.84000 253.047
44.88000 247.209
44.92000 258.248
44.96000 266.150
45.00000 271.784
45.04000 274.983
45.08000 284.315
45.12000 265.245
45.16000 266.037
45.20000 269.258
45.24000 266.683
45.28000 254.349
45.32000 251.197
45.36000 246.807
45.40000 236.143
45.44000 226.255
45.48000 224.547
45.52000 227.628
45.56000 236.942
45.60000 214.738
45.64000 208.927
45.68000 211.617
45.72000 203.111
45.76000 194.422
45.80000 200.126
45.84000 199.363
45.88000 199.402
45.92000 195.419
45.96000 188.692
46.00000 187.758
46.04000 173.432
46.08000 180.437
46.12000 183.490
46.16000 174.903
46.20000 178.211
46.24000 167.591
46.28000 172.808
46.32000 175.779
46.36000 177.269
46.40000 183.679
46.44000 177.201
46.48000 188.732
46.52000 176.479
46.56000 174.187
46.60000 174.405
46.64000 169.945
46.68000 167.151
46.72000 177.509
46.76000 170.851
46.80000 170.750
46.84000 180.349
46.88000 169.169
46.92000 154.050
46.96000 164.689
47.00000 163.716
47.04000 174.459
47.08000 162.584
47.12000 168.039
47.16000 167.045
47.20000 166.395
47.24000 153.689
47.28000 161.604
47.32000 162.622
47.36000 165.310
47.40000 167.727
47.44000 167.854
47.48000 164.962
47.52000 171.252
47.56000 159.967
47.60000 162.040
47.64000 160.792
47.68000 155.513
47.72000 170.580
47.76000 151.910
47.80000 158.160
47.84000 149.996
47.88000 164.373
47.92000 148.158
47.96000 156.941
48.00000 163.608
48.04000 157.468
48.08000 168.598
48.12000 154.463
48.16000 172.237
48.20000 169.415
48.24000 153.746
48.28000 174.972
48.32000 172.734
48.36000 163.468
48.40000 172.046
48.44000 164.491
48.48000 159.783
48.52000 161.028
48.56000 157.903
48.60000 156.746
48.64000 160.187
48.68000 157.232
48.72000 162.989
48.76000 171.992
48.80000 167.213
48.84000 162.874
48.88000 150.477
48.92000 163.837
48.96000 151.204
49.00000 167.256
49.04000 153.301
49.08000 164.500
49.12000 159.055
49.16000 158.130
49.20000 157.032
49.24000 161.568
49.28000 149.194
49.32000 154.992
49.36000 150.632
49.40000 148.243
49.44000 152.472
49.48000 159.194
49.52000 142.607
49.56000 154.977
49.60000 156.258
49.64000 150.035
49.68000 156.383
49.72000 152.423
49.76000 153.724
49.80000 147.165
49.84000 163.633
49.88000 157.768
49.92000 148.768
49.96000 153.194
50.00000 149.988
50.04000 147.737
50.08000 151.555
50.12000 160.113
50.16000 158.333
50.20000 157.144
50.24000 175.479
50.28000 168.492
50.32000 170.589
50.36000 178.071
50.40000 182.400
50.44000 167.608
50.48000 187.727
50.52000 192.460
50.56000 194.656
50.60000 202.059
50.64000 197.413
50.68000 197.023
50.72000 194.743
50.76000 200.293
50.80000 189.511
50.84000 183.454
50.88000 171.096
50.92000 175.858
50.96000 177.971
51.00000 171.789
51.04000 170.636
51.08000 152.456
51.12000 153.120
51.16000 158.895
51.20000 157.863
51.24000 157.112
51.28000 149.044
51.32000 143.131
51.36000 142.661
51.40000 144.056
51.44000 146.573
51.48000 156.936
51.52000 151.521
51.56000 146.343
51.60000 136.039
51.64000 145.228
51.68000 144.938
51.72000 144.052
51.76000 150.578
51.80000 134.181
51.84000 143.838
51.88000 134.790
51.92000 146.697
51.96000 152.677
52.00000 150.185
52.04000 151.561
52.08000 140.860
52.12000 129.632
52.16000 134.484
52.20000 145.079
52.24000 145.144
52.28000 145.709
52.32000 141.700
52.36000 140.477
52.40000 145.473
52.44000 138.658
52.48000 142.484
52.52000 140.988
52.56000 143.782
52.60000 139.906
52.64000 139.637
52.68000 149.717
52.72000 144.055
52.76000 143.233
52.80000 144.846
52.84000 134.268
52.88000 146.612
52.92000 142.899
52.96000 137.518
53.00000 144.080
53.04000 146.079
53.08000 153.582
53.12000 143.879
53.16000 143.479
53.20000 147.275
53.24000 150.367
53.28000 155.739
53.32000 158.240
53.36000 167.546
53.40000 164.917
53.44000 156.841
53.48000 156.069
53.52000 156.039
53.56000 143.166
53.60000 145.469
53.64000 146.630
53.68000 141.448
53.72000 144.272
53.76000 136.268
53.80000 141.680
53.84000 137.689
53.88000 140.194
53.92000 141.942
53.96000 141.787
54.00000 149.914
54.04000 140.551
54.08000 140.022
54.12000 138.114
54.16000 143.199
54.20000 135.323
54.24000 141.889
54.28000 138.550
54.32000 132.737
54.36000 139.507
54.40000 137.948
54.44000 142.857
54.48000 138.883
54.52000 147.449
54.56000 137.842
54.60000 130.710
54.64000 145.009
54.68000 140.034
54.72000 143.576
54.76000 140.077
54.80000 152.140
54.84000 149.107
54.88000 165.177
54.92000 152.917
54.96000 151.489
55.00000 140.775
55.04000 152.338
55.08000 145.194
55.12000 150.956
55.16000 150.690
55.20000 147.383
55.24000 154.021
55.28000 158.364
55.32000 166.315
55.36000 181.925
55.40000 184.469
55.44000 207.291
55.48000 233.577
55.52000 256.908
55.56000 294.330
55.60000 340.978
55.64000 388.909
55.68000 452.881
55.72000 519.570
55.76000 555.305
55.80000 619.541
55.84000 660.045
55.88000 689.066
55.92000 698.537
55.96000 662.774
56.00000 635.502
56.04000 604.234
56.08000 508.049
56.12000 460.804
56.16000 398.874
56.20000 363.610
56.24000 300.584
56.28000 281.540
56.32000 230.657
56.36000 213.292
56.40000 194.527
56.44000 177.688
56.48000 165.480
56.52000 156.585
56.56000 145.379
56.60000 160.410
56.64000 149.371
56.68000 145.576
56.72000 135.134
56.76000 137.242
56.80000 127.918
56.84000 139.019
56.88000 143.490
56.92000 138.182
56.96000 131.662
57.00000 128.829
57.04000 125.756
57.08000 125.997
57.12000 128.432
57.16000 129.646
57.20000 132.378
57.24000 134.316
57.28000 125.871
57.32000 124.655
57.36000 125.319
57.40000 135.875
57.44000 120.564
57.48000 129.960
57.52000 135.263
57.56000 123.412
57.60000 129.340
57.64000 123.510
57.68000 119.651
57.72000 108.544
57.76000 122.489
57.80000 131.288
57.84000 123.089
57.88000 118.935
57.92000 122.456
57.96000 131.884
58.00000 129.212
58.04000 134.129
58.08000 117.330
58.12000 126.528
58.16000 111.128
58.20000 122.039
58.24000 128.108
58.28000 128.040
58.32000 120.754
58.36000 116.047
58.40000 112.182
58.44000 117.689
58.48000 121.666
58.52000 121.636
58.56000 117.931
58.60000 125.379
58.64000 122.147
58.68000 135.693
58.72000 121.312
58.76000 122.989
58.80000 122.237
58.84000 115.578
58.88000 110.449
58.92000 110.022
58.96000 112.481
59.00000 122.081
59.04000 116.517
59.08000 119.014
59.12000 115.880
59.16000 117.366
59.20000 117.634
59.24000 122.200
59.28000 113.557
59.32000 110.338
59.36000 115.544
59.40000 114.305
59.44000 117.106
59.48000 122.795
59.52000 127.314
59.56000 124.702
59.60000 117.484
59.64000 113.179
59.68000 111.569
59.72000 112.006
59.76000 115.447
59.80000 123.623
59.84000 123.670
59.88000 128.337
59.92000 111.818
59.96000 119.797
60.00000 112.960
60.04000 128.589
60.08000 128.727
60.12000 127.513
60.16000 120.439
60.20000 119.162
60.24000 115.310
60.28000 115.496
60.32000 117.165
60.36000 117.628
60.40000 115.366
60.44000 124.086
60.48000 119.099
60.52000 120.107
60.56000 122.197
60.60000 111.197
60.64000 122.224
60.68000 119.489
60.72000 119.768
60.76000 116.529
60.80000 117.745
60.84000 111.664
60.88000 121.121
60.92000 121.915
60.96000 109.150
61.00000 114.161
61.04000 122.273
61.08000 118.983
61.12000 120.975
61.16000 129.079
61.20000 126.619
61.24000 119.811
61.28000 130.993
61.32000 125.075
61.36000 112.339
61.40000 118.100
61.44000 126.031
61.48000 138.695
61.52000 141.171
61.56000 175.811
61.60000 225.976
61.64000 275.462
61.68000 295.279
61.72000 320.185
61.76000 299.254
61.80000 276.797
61.84000 210.501
61.88000 163.869
61.92000 152.125
61.96000 148.919
62.00000 127.059
62.04000 130.754
62.08000 124.626
62.12000 129.125
62.16000 123.802
62.20000 117.583
62.24000 126.842
62.28000 137.345
62.32000 121.206
62.36000 127.748
62.40000 129.427
62.44000 131.691
62.48000 133.419
62.52000 137.992
62.56000 133.839
62.60000 127.657
62.64000 127.237
62.68000 127.599
62.72000 134.404
62.76000 127.610
62.80000 139.003
62.84000 133.150
62.88000 132.566
62.92000 126.269
62.96000 130.273
63.00000 137.671
63.04000 133.268
63.08000 135.056
63.12000 132.849
63.16000 132.525
63.20000 134.783
63.24000 132.958
63.28000 135.719
63.32000 132.636
63.36000 137.327
63.40000 135.550
63.44000 126.549
63.48000 135.850
63.52000 135.623
63.56000 145.559
63.60000 133.855
63.64000 138.011
63.68000 141.326
63.72000 140.245
63.76000 142.098
63.80000 134.701
63.84000 147.209
63.88000 143.424
63.92000 138.360
63.96000 139.127
64.00000 145.432
64.04000 138.980
64.08000 157.114
64.12000 152.962
64.16000 136.878
64.20000 152.843
64.24000 149.072
64.28000 138.461
64.32000 150.963
64.36000 145.488
64.40000 144.569
64.44000 163.226
64.48000 155.848
64.52000 156.519
64.56000 161.381
64.60000 171.916
64.64000 154.306
64.68000 166.610
64.72000 165.102
64.76000 177.958
64.80000 188.806
64.84000 173.547
64.88000 183.128
64.92000 182.480
64.96000 191.235
65.00000 206.346
65.04000 200.398
65.08000 208.868
65.12000 215.933
65.16000 221.442
65.20000 237.789
65.24000 248.746
65.28000 256.330
65.32000 261.490
65.36000 272.171
65.40000 306.718
65.44000 301.356
65.48000 315.773
65.52000 351.697
65.56000 375.429
65.60000 402.974
65.64000 407.369
65.68000 514.089
65.72000 712.233
65.76000 1187.264
65.80000 1695.167
65.84000 2021.879
65.88000 2097.747
65.92000 2111.469
65.96000 1891.077
66.00000 1392.203
66.04000 871.417
66.08000 566.667
66.12000 453.140
66.16000 405.938
66.20000 363.242
66.24000 373.784
66.28000 430.225
66.32000 506.154
66.36000 578.179
66.40000 648.686
66.44000 652.394
66.48000 650.026
66.52000 606.555
66.56000 519.274
66.60000 433.508
66.64000 371.413
66.68000 384.927
66.72000 350.302
66.76000 357.870
66.80000 365.669
66.84000 360.637
66.88000 349.957
66.92000 347.120
66.96000 371.392
67.00000 383.142
67.04000 380.938
67.08000 392.000
67.12000 378.510
67.16000 387.538
67.20000 386.752
67.24000 398.195
67.28000 401.596
67.32000 397.162
67.36000 405.071
67.40000 401.305
67.44000 430.374
67.48000 442.508
67.52000 427.863
67.56000 440.736
67.60000 433.753
67.64000 439.520
67.68000 458.654
67.72000 433.786
67.76000 450.699
67.80000 474.240
67.84000 469.490
67.88000 465.688
67.92000 486.390
67.96000 483.856
68.00000 507.295
68.04000 518.620
68.08000 519.226
68.12000 518.434
68.16000 536.208
68.20000 519.957
68.24000 557.944
68.28000 571.596
68.32000 572.328
68.36000 600.518
68.40000 633.343
68.44000 643.985
68.48000 660.367
68.52000 702.419
68.56000 728.497
68.60000 811.150
68.64000 924.402
68.68000 1107.042
68.72000 1271.563
68.76000 1438.049
68.80000 1624.218
68.84000 1834.008
68.88000 2206.876
68.92000 2956.389
68.96000 5857.284
69.00000 15358.671
69.04000 29955.482
69.08000 41192.902
69.12000 45962.316
69.16000 49017.309
69.20000 51227.961
69.24000 46225.793
69.28000 35013.004
69.32000 26834.594
69.36000 23704.486
69.40000 21619.031
69.44000 15769.803
69.48000 8234.714
69.52000 3698.936
69.56000 1795.598
69.60000 1261.789
69.64000 1034.293
69.68000 871.338
69.72000 795.341
69.76000 744.155
69.80000 685.876
69.84000 644.008
69.88000 581.951
69.92000 570.010
69.96000 546.324
70.00000 522.469