File: XRD/08-10-2025 Dep 7/XY Data/BTO_Mapping_Theta2Theta_08-10-2025_001_34_-9-781_-2-079.xy
20.00000 455.225
20.04000 475.053
20.08000 490.826
20.12000 479.731
20.16000 481.579
20.20000 460.700
20.24000 489.125
20.28000 475.190
20.32000 461.347
20.36000 461.212
20.40000 473.559
20.44000 487.280
20.48000 470.990
20.52000 460.831
20.56000 476.770
20.60000 482.967
20.64000 468.526
20.68000 464.419
20.72000 478.708
20.76000 441.055
20.80000 472.074
20.84000 456.913
20.88000 471.166
20.92000 495.923
20.96000 462.037
21.00000 463.058
21.04000 455.595
21.08000 467.102
21.12000 477.290
21.16000 460.911
21.20000 480.723
21.24000 463.885
21.28000 453.860
21.32000 451.556
21.36000 440.152
21.40000 460.726
21.44000 449.102
21.48000 474.255
21.52000 464.825
21.56000 469.384
21.60000 448.856
21.64000 458.200
21.68000 449.022
21.72000 474.080
21.76000 492.619
21.80000 486.151
21.84000 498.970
21.88000 509.629
21.92000 521.520
21.96000 554.372
22.00000 556.656
22.04000 538.213
22.08000 544.277
22.12000 535.040
22.16000 533.532
22.20000 520.657
22.24000 526.562
22.28000 491.014
22.32000 508.783
22.36000 490.811
22.40000 462.941
22.44000 467.889
22.48000 499.940
22.52000 459.068
22.56000 451.587
22.60000 463.042
22.64000 444.691
22.68000 442.836
22.72000 438.571
22.76000 435.675
22.80000 447.434
22.84000 430.317
22.88000 446.963
22.92000 449.317
22.96000 436.988
23.00000 444.666
23.04000 427.747
23.08000 421.926
23.12000 424.875
23.16000 440.619
23.20000 426.345
23.24000 436.975
23.28000 437.380
23.32000 399.389
23.36000 423.935
23.40000 438.873
23.44000 419.801
23.48000 444.325
23.52000 429.474
23.56000 438.443
23.60000 426.719
23.64000 414.406
23.68000 453.615
23.72000 452.265
23.76000 456.081
23.80000 442.110
23.84000 443.577
23.88000 445.867
23.92000 469.547
23.96000 472.856
24.00000 455.327
24.04000 453.217
24.08000 462.085
24.12000 458.930
24.16000 459.532
24.20000 431.172
24.24000 445.468
24.28000 436.928
24.32000 441.776
24.36000 435.635
24.40000 427.650
24.44000 435.980
24.48000 399.182
24.52000 405.639
24.56000 411.004
24.60000 432.325
24.64000 417.899
24.68000 398.522
24.72000 413.301
24.76000 413.899
24.80000 425.897
24.84000 407.556
24.88000 411.655
24.92000 416.469
24.96000 390.565
25.00000 411.494
25.04000 416.216
25.08000 423.268
25.12000 395.459
25.16000 386.434
25.20000 406.089
25.24000 409.934
25.28000 391.513
25.32000 398.485
25.36000 400.948
25.40000 389.105
25.44000 390.081
25.48000 392.658
25.52000 402.750
25.56000 388.212
25.60000 402.739
25.64000 385.158
25.68000 377.914
25.72000 372.253
25.76000 393.755
25.80000 399.595
25.84000 377.998
25.88000 390.360
25.92000 388.123
25.96000 385.499
26.00000 386.802
26.04000 404.691
26.08000 398.430
26.12000 396.368
26.16000 368.392
26.20000 377.327
26.24000 382.475
26.28000 397.759
26.32000 384.146
26.36000 368.211
26.40000 372.192
26.44000 399.335
26.48000 382.514
26.52000 373.330
26.56000 378.558
26.60000 376.639
26.64000 380.169
26.68000 389.645
26.72000 368.960
26.76000 375.585
26.80000 385.973
26.84000 374.476
26.88000 365.109
26.92000 370.311
26.96000 381.112
27.00000 383.457
27.04000 370.958
27.08000 380.496
27.12000 377.355
27.16000 358.782
27.20000 387.126
27.24000 384.918
27.28000 395.779
27.32000 391.155
27.36000 379.911
27.40000 369.601
27.44000 375.949
27.48000 373.823
27.52000 369.039
27.56000 375.727
27.60000 344.066
27.64000 364.217
27.68000 365.718
27.72000 376.793
27.76000 371.606
27.80000 377.016
27.84000 378.353
27.88000 376.027
27.92000 378.987
27.96000 374.279
28.00000 366.986
28.04000 365.283
28.08000 361.096
28.12000 365.564
28.16000 366.209
28.20000 355.825
28.24000 372.761
28.28000 358.393
28.32000 374.147
28.36000 361.949
28.40000 365.921
28.44000 346.917
28.48000 374.193
28.52000 365.139
28.56000 364.896
28.60000 349.422
28.64000 345.049
28.68000 338.653
28.72000 360.272
28.76000 365.492
28.80000 357.647
28.84000 365.697
28.88000 350.660
28.92000 363.882
28.96000 358.205
29.00000 363.797
29.04000 350.055
29.08000 355.527
29.12000 353.512
29.16000 333.113
29.20000 364.361
29.24000 336.093
29.28000 366.265
29.32000 341.122
29.36000 353.661
29.40000 352.519
29.44000 343.912
29.48000 365.540
29.52000 354.361
29.56000 364.089
29.60000 358.546
29.64000 370.011
29.68000 352.129
29.72000 359.158
29.76000 349.432
29.80000 356.662
29.84000 378.054
29.88000 368.287
29.92000 383.596
29.96000 376.025
30.00000 378.725
30.04000 385.143
30.08000 399.070
30.12000 377.861
30.16000 368.314
30.20000 382.027
30.24000 364.765
30.28000 363.956
30.32000 356.008
30.36000 360.482
30.40000 384.157
30.44000 364.663
30.48000 351.991
30.52000 357.630
30.56000 356.162
30.60000 354.719
30.64000 356.371
30.68000 368.488
30.72000 352.630
30.76000 379.907
30.80000 353.107
30.84000 382.682
30.88000 379.265
30.92000 394.789
30.96000 438.758
31.00000 479.614
31.04000 521.570
31.08000 612.375
31.12000 726.028
31.16000 862.021
31.20000 1008.594
31.24000 1160.919
31.28000 1306.663
31.32000 1433.143
31.36000 1481.545
31.40000 1426.286
31.44000 1362.726
31.48000 1174.146
31.52000 983.446
31.56000 831.120
31.60000 688.236
31.64000 597.735
31.68000 523.968
31.72000 440.152
31.76000 426.099
31.80000 403.364
31.84000 378.013
31.88000 376.024
31.92000 373.271
31.96000 358.740
32.00000 351.921
32.04000 329.605
32.08000 364.171
32.12000 336.214
32.16000 337.461
32.20000 330.978
32.24000 333.957
32.28000 347.067
32.32000 335.976
32.36000 328.877
32.40000 333.493
32.44000 312.026
32.48000 335.450
32.52000 314.550
32.56000 328.642
32.60000 311.688
32.64000 305.090
32.68000 315.702
32.72000 316.495
32.76000 314.967
32.80000 315.936
32.84000 318.246
32.88000 297.784
32.92000 306.532
32.96000 315.339
33.00000 297.866
33.04000 309.976
33.08000 300.387
33.12000 304.711
33.16000 319.038
33.20000 294.938
33.24000 299.210
33.28000 308.102
33.32000 290.468
33.36000 293.592
33.40000 304.176
33.44000 295.220
33.48000 292.434
33.52000 286.208
33.56000 295.663
33.60000 298.706
33.64000 311.301
33.68000 304.939
33.72000 284.113
33.76000 297.774
33.80000 289.331
33.84000 297.893
33.88000 313.165
33.92000 285.290
33.96000 316.689
34.00000 329.702
34.04000 317.444
34.08000 327.508
34.12000 332.070
34.16000 334.913
34.20000 341.214
34.24000 327.257
34.28000 333.588
34.32000 335.546
34.36000 351.680
34.40000 347.203
34.44000 349.842
34.48000 325.239
34.52000 327.913
34.56000 323.239
34.60000 325.759
34.64000 323.428
34.68000 324.357
34.72000 304.786
34.76000 303.059
34.80000 296.328
34.84000 291.504
34.88000 297.844
34.92000 297.280
34.96000 280.364
35.00000 277.682
35.04000 281.212
35.08000 283.192
35.12000 270.641
35.16000 290.701
35.20000 257.765
35.24000 277.673
35.28000 282.034
35.32000 277.666
35.36000 269.820
35.40000 273.285
35.44000 257.915
35.48000 255.149
35.52000 261.330
35.56000 269.190
35.60000 260.607
35.64000 249.742
35.68000 274.908
35.72000 259.209
35.76000 264.580
35.80000 265.957
35.84000 262.534
35.88000 277.432
35.92000 264.956
35.96000 262.827
36.00000 261.470
36.04000 259.520
36.08000 243.676
36.12000 258.698
36.16000 252.878
36.20000 281.142
36.24000 253.307
36.28000 251.984
36.32000 254.975
36.36000 257.525
36.40000 257.224
36.44000 258.337
36.48000 258.062
36.52000 258.836
36.56000 256.183
36.60000 260.613
36.64000 258.055
36.68000 256.857
36.72000 265.183
36.76000 269.910
36.80000 279.313
36.84000 270.313
36.88000 274.638
36.92000 280.653
36.96000 292.577
37.00000 293.569
37.04000 277.984
37.08000 285.251
37.12000 289.847
37.16000 284.083
37.20000 267.247
37.24000 282.058
37.28000 272.695
37.32000 267.277
37.36000 254.222
37.40000 250.259
37.44000 265.506
37.48000 256.064
37.52000 256.103
37.56000 236.437
37.60000 253.788
37.64000 263.197
37.68000 266.752
37.72000 264.755
37.76000 263.465
37.80000 254.228
37.84000 247.187
37.88000 259.787
37.92000 249.627
37.96000 270.817
38.00000 253.076
38.04000 261.648
38.08000 267.797
38.12000 253.459
38.16000 264.356
38.20000 274.702
38.24000 293.775
38.28000 305.958
38.32000 329.246
38.36000 374.362
38.40000 437.553
38.44000 522.337
38.48000 616.569
38.52000 754.566
38.56000 880.368
38.60000 1030.684
38.64000 1103.710
38.68000 1210.772
38.72000 1224.098
38.76000 1130.863
38.80000 1061.355
38.84000 952.403
38.88000 801.338
38.92000 659.626
38.96000 528.728
39.00000 414.504
39.04000 353.126
39.08000 313.686
39.12000 285.522
39.16000 266.223
39.20000 241.387
39.24000 244.143
39.28000 241.579
39.32000 232.374
39.36000 223.484
39.40000 238.771
39.44000 224.172
39.48000 236.467
39.52000 234.440
39.56000 239.489
39.60000 240.870
39.64000 223.693
39.68000 235.301
39.72000 231.336
39.76000 243.886
39.80000 227.543
39.84000 218.313
39.88000 237.284
39.92000 233.771
39.96000 220.775
40.00000 224.168
40.04000 207.226
40.08000 218.626
40.12000 230.867
40.16000 219.321
40.20000 222.435
40.24000 218.736
40.28000 225.634
40.32000 227.266
40.36000 228.462
40.40000 218.977
40.44000 206.236
40.48000 233.118
40.52000 213.980
40.56000 221.949
40.60000 217.893
40.64000 222.881
40.68000 206.976
40.72000 211.660
40.76000 214.716
40.80000 221.477
40.84000 216.243
40.88000 211.044
40.92000 207.046
40.96000 213.843
41.00000 215.213
41.04000 209.072
41.08000 194.406
41.12000 222.183
41.16000 223.679
41.20000 202.722
41.24000 208.509
41.28000 207.524
41.32000 206.411
41.36000 210.685
41.40000 213.792
41.44000 207.564
41.48000 209.387
41.52000 212.725
41.56000 214.065
41.60000 206.796
41.64000 217.389
41.68000 218.061
41.72000 206.263
41.76000 208.334
41.80000 204.036
41.84000 195.515
41.88000 197.195
41.92000 229.577
41.96000 200.187
42.00000 220.086
42.04000 207.076
42.08000 219.977
42.12000 196.570
42.16000 205.389
42.20000 197.903
42.24000 206.050
42.28000 210.169
42.32000 210.610
42.36000 208.171
42.40000 210.569
42.44000 211.347
42.48000 209.093
42.52000 198.969
42.56000 214.219
42.60000 200.683
42.64000 195.127
42.68000 200.538
42.72000 201.201
42.76000 200.717
42.80000 200.072
42.84000 204.424
42.88000 199.460
42.92000 200.935
42.96000 192.801
43.00000 204.129
43.04000 189.652
43.08000 207.965
43.12000 195.437
43.16000 199.196
43.20000 205.509
43.24000 202.622
43.28000 194.052
43.32000 203.677
43.36000 208.048
43.40000 203.427
43.44000 193.959
43.48000 190.937
43.52000 185.094
43.56000 199.628
43.60000 190.933
43.64000 194.484
43.68000 185.122
43.72000 180.387
43.76000 179.790
43.80000 194.351
43.84000 185.628
43.88000 188.864
43.92000 192.734
43.96000 194.896
44.00000 182.264
44.04000 188.538
44.08000 192.928
44.12000 196.749
44.16000 192.420
44.20000 196.093
44.24000 200.763
44.28000 191.211
44.32000 201.790
44.36000 196.915
44.40000 216.057
44.44000 214.721
44.48000 212.539
44.52000 220.290
44.56000 208.660
44.60000 230.848
44.64000 220.199
44.68000 221.560
44.72000 231.020
44.76000 227.994
44.80000 235.939
44.84000 259.955
44.88000 251.129
44.92000 270.230
44.96000 262.481
45.00000 259.703
45.04000 270.820
45.08000 278.064
45.12000 266.170
45.16000 257.467
45.20000 246.230
45.24000 245.272
45.28000 239.814
45.32000 238.850
45.36000 231.779
45.40000 224.178
45.44000 218.551
45.48000 228.875
45.52000 221.574
45.56000 206.735
45.60000 204.259
45.64000 214.629
45.68000 218.546
45.72000 202.929
45.76000 200.043
45.80000 190.354
45.84000 190.215
45.88000 190.569
45.92000 185.081
45.96000 183.345
46.00000 180.113
46.04000 185.849
46.08000 173.959
46.12000 182.008
46.16000 177.703
46.20000 181.135
46.24000 171.834
46.28000 178.564
46.32000 175.419
46.36000 177.696
46.40000 162.262
46.44000 174.222
46.48000 175.659
46.52000 182.041
46.56000 174.089
46.60000 176.278
46.64000 185.589
46.68000 180.830
46.72000 155.874
46.76000 174.754
46.80000 177.705
46.84000 162.140
46.88000 168.520
46.92000 179.971
46.96000 165.680
47.00000 173.138
47.04000 179.826
47.08000 169.977
47.12000 173.858
47.16000 159.536
47.20000 157.022
47.24000 165.170
47.28000 165.429
47.32000 147.293
47.36000 163.903
47.40000 163.147
47.44000 173.290
47.48000 159.240
47.52000 161.464
47.56000 164.668
47.60000 166.278
47.64000 173.582
47.68000 158.329
47.72000 165.466
47.76000 158.423
47.80000 161.982
47.84000 168.804
47.88000 157.217
47.92000 165.887
47.96000 164.885
48.00000 151.024
48.04000 164.950
48.08000 152.994
48.12000 166.287
48.16000 169.363
48.20000 159.901
48.24000 160.610
48.28000 157.295
48.32000 159.993
48.36000 157.949
48.40000 174.705
48.44000 155.381
48.48000 161.613
48.52000 152.112
48.56000 162.327
48.60000 153.655
48.64000 155.599
48.68000 151.958
48.72000 165.870
48.76000 170.008
48.80000 150.033
48.84000 161.223
48.88000 157.738
48.92000 155.095
48.96000 162.760
49.00000 154.348
49.04000 147.577
49.08000 150.864
49.12000 157.362
49.16000 149.522
49.20000 138.764
49.24000 151.379
49.28000 148.507
49.32000 154.100
49.36000 151.236
49.40000 147.194
49.44000 167.220
49.48000 152.800
49.52000 149.848
49.56000 152.179
49.60000 156.165
49.64000 161.685
49.68000 152.751
49.72000 151.497
49.76000 148.803
49.80000 149.711
49.84000 153.002
49.88000 145.174
49.92000 154.269
49.96000 161.205
50.00000 160.867
50.04000 148.793
50.08000 154.071
50.12000 163.338
50.16000 152.088
50.20000 154.094
50.24000 165.954
50.28000 158.867
50.32000 159.828
50.36000 165.399
50.40000 166.784
50.44000 179.666
50.48000 175.407
50.52000 174.027
50.56000 178.792
50.60000 189.578
50.64000 193.827
50.68000 175.133
50.72000 183.246
50.76000 189.249
50.80000 181.367
50.84000 185.726
50.88000 161.467
50.92000 161.523
50.96000 163.283
51.00000 162.697
51.04000 161.915
51.08000 147.831
51.12000 150.179
51.16000 145.876
51.20000 149.302
51.24000 141.595
51.28000 151.283
51.32000 144.540
51.36000 150.640
51.40000 151.759
51.44000 141.751
51.48000 136.735
51.52000 129.352
51.56000 139.778
51.60000 151.479
51.64000 143.517
51.68000 154.276
51.72000 145.662
51.76000 140.705
51.80000 139.717
51.84000 145.483
51.88000 136.786
51.92000 141.980
51.96000 136.956
52.00000 150.627
52.04000 138.352
52.08000 149.089
52.12000 139.248
52.16000 136.474
52.20000 141.381
52.24000 134.763
52.28000 139.530
52.32000 141.718
52.36000 145.739
52.40000 149.441
52.44000 147.751
52.48000 143.134
52.52000 141.240
52.56000 139.557
52.60000 140.237
52.64000 138.788
52.68000 138.487
52.72000 138.778
52.76000 146.741
52.80000 143.103
52.84000 156.018
52.88000 135.558
52.92000 143.541
52.96000 146.847
53.00000 146.853
53.04000 153.925
53.08000 138.708
53.12000 140.935
53.16000 141.775
53.20000 150.928
53.24000 156.801
53.28000 159.555
53.32000 169.095
53.36000 163.586
53.40000 162.700
53.44000 149.860
53.48000 151.235
53.52000 150.026
53.56000 161.662
53.60000 143.824
53.64000 148.705
53.68000 142.444
53.72000 155.999
53.76000 157.863
53.80000 135.855
53.84000 141.456
53.88000 156.358
53.92000 143.715
53.96000 156.675
54.00000 148.710
54.04000 145.246
54.08000 140.923
54.12000 140.312
54.16000 143.946
54.20000 142.430
54.24000 147.687
54.28000 142.694
54.32000 137.997
54.36000 131.727
54.40000 143.615
54.44000 138.540
54.48000 145.068
54.52000 143.221
54.56000 142.156
54.60000 147.866
54.64000 141.691
54.68000 147.812
54.72000 132.552
54.76000 140.716
54.80000 139.828
54.84000 138.097
54.88000 137.643
54.92000 140.033
54.96000 151.068
55.00000 151.050
55.04000 147.072
55.08000 161.302
55.12000 153.265
55.16000 151.255
55.20000 158.013
55.24000 141.090
55.28000 169.168
55.32000 169.928
55.36000 175.313
55.40000 188.728
55.44000 203.577
55.48000 236.030
55.52000 279.338
55.56000 283.782
55.60000 348.330
55.64000 402.089
55.68000 455.882
55.72000 522.931
55.76000 605.788
55.80000 638.523
55.84000 671.177
55.88000 708.131
55.92000 709.403
55.96000 711.399
56.00000 653.609
56.04000 574.123
56.08000 545.014
56.12000 476.854
56.16000 421.983
56.20000 376.001
56.24000 318.256
56.28000 264.675
56.32000 226.572
56.36000 190.493
56.40000 200.918
56.44000 178.575
56.48000 162.349
56.52000 156.318
56.56000 152.464
56.60000 136.946
56.64000 147.564
56.68000 136.309
56.72000 135.751
56.76000 136.817
56.80000 146.767
56.84000 134.526
56.88000 133.424
56.92000 138.324
56.96000 131.072
57.00000 127.705
57.04000 124.042
57.08000 134.856
57.12000 124.732
57.16000 143.324
57.20000 125.452
57.24000 125.243
57.28000 125.917
57.32000 137.874
57.36000 133.919
57.40000 127.509
57.44000 124.377
57.48000 126.894
57.52000 126.430
57.56000 121.270
57.60000 124.515
57.64000 136.675
57.68000 123.372
57.72000 125.233
57.76000 118.496
57.80000 120.963
57.84000 127.414
57.88000 119.763
57.92000 125.900
57.96000 122.323
58.00000 117.437
58.04000 115.389
58.08000 130.174
58.12000 126.078
58.16000 120.118
58.20000 124.016
58.24000 131.030
58.28000 124.750
58.32000 120.259
58.36000 126.574
58.40000 125.212
58.44000 115.196
58.48000 117.765
58.52000 127.705
58.56000 128.792
58.60000 112.643
58.64000 113.344
58.68000 130.392
58.72000 127.214
58.76000 119.536
58.80000 121.447
58.84000 119.171
58.88000 124.656
58.92000 118.927
58.96000 126.013
59.00000 123.261
59.04000 121.259
59.08000 111.259
59.12000 103.184
59.16000 118.530
59.20000 114.531
59.24000 116.221
59.28000 116.099
59.32000 115.704
59.36000 121.598
59.40000 120.115
59.44000 115.195
59.48000 128.413
59.52000 122.242
59.56000 119.193
59.60000 109.527
59.64000 119.734
59.68000 123.163
59.72000 120.558
59.76000 116.609
59.80000 124.985
59.84000 111.360
59.88000 114.504
59.92000 121.018
59.96000 113.895
60.00000 118.455
60.04000 110.112
60.08000 120.977
60.12000 114.102
60.16000 115.485
60.20000 132.084
60.24000 119.116
60.28000 113.987
60.32000 123.128
60.36000 115.210
60.40000 110.549
60.44000 120.633
60.48000 121.088
60.52000 108.839
60.56000 114.040
60.60000 118.793
60.64000 114.089
60.68000 116.372
60.72000 115.818
60.76000 115.465
60.80000 108.196
60.84000 115.255
60.88000 116.692
60.92000 121.184
60.96000 118.605
61.00000 115.934
61.04000 123.921
61.08000 111.283
61.12000 128.845
61.16000 126.067
61.20000 119.525
61.24000 124.908
61.28000 123.425
61.32000 125.925
61.36000 122.238
61.40000 122.532
61.44000 130.737
61.48000 140.906
61.52000 154.668
61.56000 196.389
61.60000 251.744
61.64000 277.789
61.68000 299.365
61.72000 292.738
61.76000 277.942
61.80000 236.781
61.84000 183.080
61.88000 139.636
61.92000 134.314
61.96000 131.243
62.00000 135.071
62.04000 131.496
62.08000 124.926
62.12000 127.657
62.16000 119.643
62.20000 132.970
62.24000 136.131
62.28000 131.600
62.32000 131.109
62.36000 130.044
62.40000 138.724
62.44000 134.181
62.48000 129.781
62.52000 137.138
62.56000 122.318
62.60000 126.560
62.64000 138.623
62.68000 127.936
62.72000 124.120
62.76000 126.011
62.80000 132.281
62.84000 130.768
62.88000 127.133
62.92000 124.228
62.96000 124.676
63.00000 135.992
63.04000 130.787
63.08000 129.159
63.12000 138.161
63.16000 128.366
63.20000 127.289
63.24000 124.295
63.28000 140.813
63.32000 126.592
63.36000 134.990
63.40000 130.843
63.44000 129.547
63.48000 138.619
63.52000 138.295
63.56000 139.715
63.60000 142.286
63.64000 129.667
63.68000 143.217
63.72000 134.950
63.76000 143.062
63.80000 140.813
63.84000 143.468
63.88000 132.830
63.92000 134.688
63.96000 138.359
64.00000 143.264
64.04000 150.670
64.08000 144.808
64.12000 150.114
64.16000 159.450
64.20000 143.982
64.24000 148.568
64.28000 153.148
64.32000 139.434
64.36000 149.392
64.40000 152.365
64.44000 157.147
64.48000 174.767
64.52000 162.451
64.56000 158.862
64.60000 165.132
64.64000 163.058
64.68000 155.859
64.72000 165.841
64.76000 169.097
64.80000 169.666
64.84000 165.775
64.88000 172.584
64.92000 185.564
64.96000 187.095
65.00000 190.628
65.04000 197.318
65.08000 200.102
65.12000 204.619
65.16000 226.491
65.20000 221.995
65.24000 234.864
65.28000 247.195
65.32000 247.637
65.36000 269.636
65.40000 272.412
65.44000 284.112
65.48000 304.100
65.52000 304.716
65.56000 333.736
65.60000 374.087
65.64000 397.619
65.68000 543.529
65.72000 805.161
65.76000 1321.532
65.80000 1797.947
65.84000 1998.125
65.88000 2048.208
65.92000 2061.769
65.96000 1684.487
66.00000 1172.615
66.04000 744.395
66.08000 510.689
66.12000 413.727
66.16000 380.570
66.20000 381.393
66.24000 391.967
66.28000 449.865
66.32000 528.227
66.36000 609.030
66.40000 646.332
66.44000 640.774
66.48000 629.379
66.52000 578.785
66.56000 459.167
66.60000 401.863
66.64000 380.156
66.68000 360.777
66.72000 345.132
66.76000 362.135
66.80000 346.369
66.84000 345.107
66.88000 349.060
66.92000 356.928
66.96000 393.905
67.00000 363.814
67.04000 361.200
67.08000 387.303
67.12000 379.314
67.16000 397.180
67.20000 413.083
67.24000 379.341
67.28000 402.100
67.32000 392.494
67.36000 419.998
67.40000 426.989
67.44000 424.285
67.48000 421.079
67.52000 438.748
67.56000 423.837
67.60000 433.833
67.64000 432.986
67.68000 456.580
67.72000 439.623
67.76000 446.805
67.80000 470.259
67.84000 472.151
67.88000 466.591
67.92000 459.711
67.96000 491.878
68.00000 506.542
68.04000 509.368
68.08000 511.290
68.12000 492.451
68.16000 519.346
68.20000 547.913
68.24000 524.496
68.28000 574.630
68.32000 566.787
68.36000 591.574
68.40000 613.943
68.44000 641.282
68.48000 673.303
68.52000 695.593
68.56000 752.808
68.60000 815.493
68.64000 947.077
68.68000 1127.841
68.72000 1292.388
68.76000 1448.340
68.80000 1644.305
68.84000 1887.826
68.88000 2244.505
68.92000 3408.719
68.96000 7761.227
69.00000 19283.072
69.04000 33324.406
69.08000 42149.770
69.12000 45552.270
69.16000 48617.816
69.20000 49287.117
69.24000 41205.344
69.28000 30564.043
69.32000 24351.400
69.36000 22564.453
69.40000 19442.408
69.44000 12732.488
69.48000 6060.511
69.52000 2703.079
69.56000 1516.341
69.60000 1148.312
69.64000 994.231
69.68000 831.796
69.72000 761.929
69.76000 694.085
69.80000 634.776
69.84000 617.596
69.88000 577.943
69.92000 551.992
69.96000 547.421
70.00000 513.202