File: XRD/08-10-2025 Dep 7/XY Data/BTO_Mapping_Theta2Theta_08-10-2025_001_42_-5-000_-8-660.xy
20.00000 474.935
20.04000 466.779
20.08000 468.007
20.12000 489.493
20.16000 471.012
20.20000 481.905
20.24000 479.144
20.28000 467.305
20.32000 456.806
20.36000 489.178
20.40000 459.658
20.44000 475.688
20.48000 463.730
20.52000 494.767
20.56000 481.206
20.60000 472.118
20.64000 474.546
20.68000 480.385
20.72000 463.336
20.76000 456.439
20.80000 464.613
20.84000 449.968
20.88000 475.936
20.92000 447.520
20.96000 459.828
21.00000 459.143
21.04000 467.128
21.08000 453.018
21.12000 466.225
21.16000 462.469
21.20000 467.326
21.24000 468.524
21.28000 453.299
21.32000 479.740
21.36000 474.297
21.40000 447.499
21.44000 485.836
21.48000 455.796
21.52000 451.445
21.56000 475.053
21.60000 454.002
21.64000 465.945
21.68000 468.638
21.72000 485.723
21.76000 467.417
21.80000 487.851
21.84000 498.927
21.88000 501.107
21.92000 503.213
21.96000 512.524
22.00000 529.844
22.04000 544.156
22.08000 540.105
22.12000 537.004
22.16000 532.510
22.20000 527.437
22.24000 492.469
22.28000 493.856
22.32000 496.426
22.36000 480.044
22.40000 484.821
22.44000 468.250
22.48000 442.001
22.52000 455.882
22.56000 446.627
22.60000 453.111
22.64000 451.114
22.68000 448.188
22.72000 446.684
22.76000 437.836
22.80000 424.270
22.84000 442.928
22.88000 428.789
22.92000 426.795
22.96000 412.727
23.00000 440.216
23.04000 436.772
23.08000 429.275
23.12000 435.230
23.16000 428.774
23.20000 413.758
23.24000 432.737
23.28000 434.883
23.32000 435.707
23.36000 445.653
23.40000 426.116
23.44000 427.721
23.48000 419.709
23.52000 434.629
23.56000 429.286
23.60000 437.041
23.64000 436.005
23.68000 455.043
23.72000 441.927
23.76000 448.087
23.80000 460.906
23.84000 461.340
23.88000 478.727
23.92000 491.805
23.96000 483.831
24.00000 513.736
24.04000 485.946
24.08000 474.773
24.12000 468.705
24.16000 463.796
24.20000 459.014
24.24000 458.778
24.28000 418.270
24.32000 428.588
24.36000 423.676
24.40000 429.316
24.44000 438.779
24.48000 413.926
24.52000 412.226
24.56000 412.472
24.60000 416.612
24.64000 411.702
24.68000 424.091
24.72000 400.986
24.76000 415.519
24.80000 401.373
24.84000 398.737
24.88000 396.448
24.92000 410.747
24.96000 416.545
25.00000 391.294
25.04000 392.843
25.08000 395.259
25.12000 396.086
25.16000 406.162
25.20000 408.298
25.24000 395.698
25.28000 391.187
25.32000 409.069
25.36000 409.422
25.40000 406.997
25.44000 381.358
25.48000 399.550
25.52000 420.138
25.56000 387.806
25.60000 413.944
25.64000 389.839
25.68000 402.320
25.72000 406.302
25.76000 404.720
25.80000 399.500
25.84000 382.264
25.88000 393.468
25.92000 395.772
25.96000 382.518
26.00000 393.526
26.04000 388.234
26.08000 394.276
26.12000 391.950
26.16000 386.377
26.20000 395.795
26.24000 394.536
26.28000 383.018
26.32000 372.404
26.36000 374.818
26.40000 391.022
26.44000 364.806
26.48000 390.585
26.52000 373.217
26.56000 351.200
26.60000 378.261
26.64000 387.335
26.68000 391.398
26.72000 372.218
26.76000 362.485
26.80000 389.776
26.84000 378.137
26.88000 366.178
26.92000 366.014
26.96000 374.385
27.00000 374.421
27.04000 376.091
27.08000 374.232
27.12000 388.461
27.16000 378.659
27.20000 379.672
27.24000 376.403
27.28000 372.162
27.32000 364.293
27.36000 376.392
27.40000 374.974
27.44000 384.763
27.48000 392.770
27.52000 389.850
27.56000 385.579
27.60000 364.467
27.64000 388.377
27.68000 384.486
27.72000 367.197
27.76000 370.210
27.80000 368.307
27.84000 376.903
27.88000 382.275
27.92000 364.807
27.96000 361.169
28.00000 352.258
28.04000 366.602
28.08000 368.542
28.12000 368.952
28.16000 372.094
28.20000 366.428
28.24000 364.504
28.28000 356.821
28.32000 367.258
28.36000 355.789
28.40000 349.021
28.44000 350.910
28.48000 349.781
28.52000 361.218
28.56000 353.944
28.60000 371.290
28.64000 375.365
28.68000 356.372
28.72000 341.024
28.76000 361.968
28.80000 380.801
28.84000 377.770
28.88000 349.721
28.92000 325.194
28.96000 360.043
29.00000 351.727
29.04000 360.259
29.08000 353.508
29.12000 354.742
29.16000 366.303
29.20000 352.794
29.24000 330.202
29.28000 347.767
29.32000 340.960
29.36000 352.224
29.40000 353.175
29.44000 350.286
29.48000 351.103
29.52000 347.124
29.56000 353.485
29.60000 355.558
29.64000 351.280
29.68000 361.452
29.72000 347.346
29.76000 372.911
29.80000 360.782
29.84000 368.224
29.88000 375.935
29.92000 380.062
29.96000 371.302
30.00000 380.016
30.04000 381.056
30.08000 405.350
30.12000 393.850
30.16000 387.425
30.20000 381.637
30.24000 358.251
30.28000 360.266
30.32000 350.114
30.36000 363.871
30.40000 366.480
30.44000 353.017
30.48000 365.141
30.52000 350.455
30.56000 352.622
30.60000 362.577
30.64000 364.959
30.68000 360.411
30.72000 358.494
30.76000 367.901
30.80000 358.694
30.84000 379.406
30.88000 382.995
30.92000 407.153
30.96000 422.461
31.00000 460.107
31.04000 493.618
31.08000 552.728
31.12000 641.032
31.16000 744.727
31.20000 856.218
31.24000 938.978
31.28000 1103.002
31.32000 1190.834
31.36000 1212.417
31.40000 1192.226
31.44000 1119.394
31.48000 1029.068
31.52000 899.939
31.56000 760.132
31.60000 618.305
31.64000 536.018
31.68000 461.421
31.72000 424.851
31.76000 402.290
31.80000 388.800
31.84000 389.488
31.88000 373.199
31.92000 351.080
31.96000 342.565
32.00000 347.485
32.04000 340.475
32.08000 344.088
32.12000 329.934
32.16000 316.925
32.20000 323.312
32.24000 319.711
32.28000 338.856
32.32000 328.165
32.36000 330.098
32.40000 330.774
32.44000 324.541
32.48000 303.463
32.52000 318.741
32.56000 303.032
32.60000 320.501
32.64000 320.057
32.68000 311.367
32.72000 315.753
32.76000 339.285
32.80000 327.871
32.84000 316.856
32.88000 321.469
32.92000 303.456
32.96000 297.730
33.00000 313.250
33.04000 312.493
33.08000 299.775
33.12000 301.617
33.16000 300.522
33.20000 307.055
33.24000 303.295
33.28000 306.295
33.32000 289.056
33.36000 302.579
33.40000 314.830
33.44000 311.708
33.48000 299.564
33.52000 313.617
33.56000 307.052
33.60000 295.164
33.64000 290.348
33.68000 286.516
33.72000 282.249
33.76000 309.421
33.80000 311.976
33.84000 323.159
33.88000 296.752
33.92000 318.209
33.96000 324.442
34.00000 329.795
34.04000 311.297
34.08000 310.621
34.12000 333.536
34.16000 324.940
34.20000 330.126
34.24000 339.237
34.28000 344.940
34.32000 337.559
34.36000 349.184
34.40000 355.056
34.44000 350.753
34.48000 338.754
34.52000 347.845
34.56000 347.873
34.60000 323.966
34.64000 314.783
34.68000 306.260
34.72000 311.748
34.76000 306.609
34.80000 300.173
34.84000 311.555
34.88000 274.729
34.92000 281.705
34.96000 284.327
35.00000 279.430
35.04000 290.791
35.08000 274.765
35.12000 274.670
35.16000 285.922
35.20000 278.221
35.24000 262.187
35.28000 278.101
35.32000 259.464
35.36000 268.457
35.40000 267.126
35.44000 271.297
35.48000 262.272
35.52000 258.660
35.56000 274.574
35.60000 252.188
35.64000 262.278
35.68000 266.399
35.72000 251.708
35.76000 260.135
35.80000 268.438
35.84000 263.817
35.88000 260.268
35.92000 260.562
35.96000 258.301
36.00000 267.813
36.04000 256.382
36.08000 256.386
36.12000 257.356
36.16000 263.035
36.20000 262.173
36.24000 246.339
36.28000 253.153
36.32000 255.771
36.36000 254.827
36.40000 251.819
36.44000 250.358
36.48000 250.480
36.52000 250.955
36.56000 261.824
36.60000 268.795
36.64000 253.606
36.68000 262.516
36.72000 259.305
36.76000 262.542
36.80000 272.286
36.84000 262.881
36.88000 275.538
36.92000 278.963
36.96000 298.577
37.00000 290.018
37.04000 290.980
37.08000 282.814
37.12000 264.173
37.16000 280.203
37.20000 278.021
37.24000 272.643
37.28000 273.026
37.32000 265.421
37.36000 260.657
37.40000 259.218
37.44000 284.640
37.48000 262.729
37.52000 253.270
37.56000 260.691
37.60000 251.173
37.64000 263.647
37.68000 237.919
37.72000 261.457
37.76000 255.031
37.80000 262.643
37.84000 257.967
37.88000 245.861
37.92000 257.716
37.96000 265.797
38.00000 258.748
38.04000 267.616
38.08000 256.899
38.12000 264.598
38.16000 273.460
38.20000 273.830
38.24000 282.267
38.28000 310.552
38.32000 319.717
38.36000 369.798
38.40000 449.541
38.44000 528.799
38.48000 640.354
38.52000 737.638
38.56000 897.673
38.60000 1056.150
38.64000 1168.418
38.68000 1218.874
38.72000 1243.008
38.76000 1207.290
38.80000 1101.393
38.84000 935.009
38.88000 810.605
38.92000 633.868
38.96000 552.724
39.00000 433.398
39.04000 369.134
39.08000 308.790
39.12000 269.804
39.16000 264.937
39.20000 258.121
39.24000 244.607
39.28000 240.710
39.32000 225.361
39.36000 238.552
39.40000 222.203
39.44000 243.600
39.48000 237.716
39.52000 216.885
39.56000 230.000
39.60000 241.037
39.64000 247.203
39.68000 240.065
39.72000 232.750
39.76000 228.929
39.80000 228.277
39.84000 228.010
39.88000 227.368
39.92000 234.217
39.96000 215.016
40.00000 217.874
40.04000 228.298
40.08000 214.706
40.12000 230.855
40.16000 220.741
40.20000 220.575
40.24000 226.371
40.28000 231.100
40.32000 230.322
40.36000 205.126
40.40000 234.080
40.44000 212.804
40.48000 213.970
40.52000 210.780
40.56000 209.466
40.60000 228.666
40.64000 218.573
40.68000 237.660
40.72000 209.948
40.76000 206.617
40.80000 215.679
40.84000 212.113
40.88000 205.335
40.92000 223.580
40.96000 208.248
41.00000 207.438
41.04000 213.281
41.08000 201.503
41.12000 204.728
41.16000 212.295
41.20000 212.067
41.24000 206.630
41.28000 200.667
41.32000 210.307
41.36000 210.852
41.40000 219.223
41.44000 218.058
41.48000 211.266
41.52000 205.144
41.56000 207.074
41.60000 204.682
41.64000 194.396
41.68000 208.301
41.72000 213.860
41.76000 211.140
41.80000 204.431
41.84000 203.672
41.88000 202.183
41.92000 204.183
41.96000 202.998
42.00000 207.706
42.04000 217.951
42.08000 199.280
42.12000 221.968
42.16000 210.152
42.20000 219.646
42.24000 208.643
42.28000 203.776
42.32000 208.693
42.36000 221.082
42.40000 201.009
42.44000 209.176
42.48000 206.034
42.52000 212.844
42.56000 213.308
42.60000 212.762
42.64000 201.431
42.68000 201.849
42.72000 199.348
42.76000 211.851
42.80000 209.765
42.84000 198.633
42.88000 197.492
42.92000 201.792
42.96000 188.900
43.00000 198.486
43.04000 207.252
43.08000 207.827
43.12000 192.352
43.16000 196.846
43.20000 207.296
43.24000 195.005
43.28000 200.593
43.32000 190.537
43.36000 197.954
43.40000 201.798
43.44000 198.119
43.48000 191.329
43.52000 202.539
43.56000 198.304
43.60000 193.891
43.64000 190.724
43.68000 195.889
43.72000 197.999
43.76000 200.820
43.80000 195.106
43.84000 188.298
43.88000 197.575
43.92000 200.614
43.96000 198.948
44.00000 194.418
44.04000 202.659
44.08000 199.676
44.12000 187.658
44.16000 198.233
44.20000 194.025
44.24000 196.788
44.28000 199.591
44.32000 198.393
44.36000 201.744
44.40000 197.276
44.44000 217.968
44.48000 201.816
44.52000 206.352
44.56000 209.638
44.60000 219.300
44.64000 219.353
44.68000 225.405
44.72000 241.925
44.76000 235.563
44.80000 241.740
44.84000 241.120
44.88000 246.061
44.92000 255.195
44.96000 245.021
45.00000 266.097
45.04000 261.898
45.08000 256.522
45.12000 265.660
45.16000 254.997
45.20000 240.759
45.24000 240.620
45.28000 225.809
45.32000 233.348
45.36000 229.282
45.40000 230.963
45.44000 210.135
45.48000 219.917
45.52000 207.847
45.56000 211.153
45.60000 213.995
45.64000 208.276
45.68000 203.186
45.72000 195.787
45.76000 192.377
45.80000 196.294
45.84000 199.053
45.88000 190.380
45.92000 190.672
45.96000 189.525
46.00000 175.571
46.04000 175.352
46.08000 176.303
46.12000 182.543
46.16000 173.668
46.20000 174.855
46.24000 179.329
46.28000 179.273
46.32000 172.501
46.36000 181.212
46.40000 177.884
46.44000 170.357
46.48000 178.550
46.52000 181.622
46.56000 177.645
46.60000 176.656
46.64000 167.622
46.68000 170.221
46.72000 180.257
46.76000 172.442
46.80000 164.439
46.84000 173.812
46.88000 181.336
46.92000 169.264
46.96000 180.250
47.00000 174.246
47.04000 170.758
47.08000 163.878
47.12000 166.621
47.16000 170.210
47.20000 169.786
47.24000 158.698
47.28000 159.285
47.32000 161.900
47.36000 161.827
47.40000 166.887
47.44000 163.533
47.48000 163.742
47.52000 151.293
47.56000 166.782
47.60000 163.368
47.64000 166.843
47.68000 153.590
47.72000 157.117
47.76000 168.091
47.80000 168.984
47.84000 158.870
47.88000 156.453
47.92000 157.831
47.96000 165.598
48.00000 161.807
48.04000 151.887
48.08000 165.377
48.12000 160.375
48.16000 162.564
48.20000 161.663
48.24000 163.451
48.28000 162.421
48.32000 163.350
48.36000 161.342
48.40000 157.982
48.44000 167.477
48.48000 162.792
48.52000 156.396
48.56000 159.695
48.60000 162.539
48.64000 153.302
48.68000 145.804
48.72000 153.749
48.76000 146.445
48.80000 148.504
48.84000 148.927
48.88000 156.164
48.92000 158.499
48.96000 160.207
49.00000 149.817
49.04000 157.234
49.08000 158.954
49.12000 151.493
49.16000 152.553
49.20000 160.613
49.24000 151.462
49.28000 148.484
49.32000 153.120
49.36000 157.197
49.40000 159.085
49.44000 155.021
49.48000 151.344
49.52000 151.597
49.56000 153.940
49.60000 146.570
49.64000 154.302
49.68000 158.864
49.72000 161.483
49.76000 154.432
49.80000 150.886
49.84000 152.086
49.88000 151.279
49.92000 160.190
49.96000 141.296
50.00000 155.258
50.04000 152.792
50.08000 151.481
50.12000 157.319
50.16000 155.403
50.20000 154.271
50.24000 159.509
50.28000 156.210
50.32000 154.794
50.36000 175.787
50.40000 161.381
50.44000 172.657
50.48000 166.462
50.52000 155.509
50.56000 170.530
50.60000 176.327
50.64000 179.441
50.68000 168.279
50.72000 173.315
50.76000 190.042
50.80000 177.009
50.84000 174.106
50.88000 159.884
50.92000 164.194
50.96000 165.766
51.00000 148.067
51.04000 157.999
51.08000 141.109
51.12000 152.738
51.16000 152.058
51.20000 159.644
51.24000 143.892
51.28000 142.612
51.32000 150.493
51.36000 146.645
51.40000 136.647
51.44000 139.983
51.48000 139.612
51.52000 141.779
51.56000 132.257
51.60000 144.766
51.64000 142.345
51.68000 148.115
51.72000 143.983
51.76000 137.925
51.80000 150.082
51.84000 130.520
51.88000 142.115
51.92000 142.733
51.96000 148.322
52.00000 137.809
52.04000 152.807
52.08000 140.706
52.12000 152.936
52.16000 133.321
52.20000 150.743
52.24000 143.258
52.28000 139.241
52.32000 143.055
52.36000 137.944
52.40000 148.027
52.44000 138.013
52.48000 141.451
52.52000 146.713
52.56000 135.966
52.60000 139.143
52.64000 132.932
52.68000 143.346
52.72000 152.545
52.76000 136.794
52.80000 145.943
52.84000 144.522
52.88000 144.330
52.92000 144.702
52.96000 145.725
53.00000 144.734
53.04000 149.698
53.08000 140.874
53.12000 149.342
53.16000 152.072
53.20000 152.159
53.24000 159.965
53.28000 157.349
53.32000 156.017
53.36000 167.986
53.40000 159.867
53.44000 150.633
53.48000 155.498
53.52000 161.927
53.56000 158.262
53.60000 153.854
53.64000 152.463
53.68000 151.251
53.72000 151.422
53.76000 152.824
53.80000 149.348
53.84000 144.381
53.88000 139.627
53.92000 135.069
53.96000 145.630
54.00000 148.273
54.04000 140.341
54.08000 139.006
54.12000 150.062
54.16000 145.557
54.20000 134.111
54.24000 134.850
54.28000 139.667
54.32000 142.350
54.36000 138.289
54.40000 148.380
54.44000 145.526
54.48000 139.790
54.52000 143.357
54.56000 134.508
54.60000 148.127
54.64000 136.499
54.68000 144.149
54.72000 141.834
54.76000 139.876
54.80000 144.575
54.84000 133.536
54.88000 154.305
54.92000 156.651
54.96000 141.402
55.00000 148.285
55.04000 156.167
55.08000 156.151
55.12000 152.139
55.16000 149.959
55.20000 161.555
55.24000 156.084
55.28000 164.271
55.32000 174.180
55.36000 185.273
55.40000 186.220
55.44000 200.847
55.48000 233.022
55.52000 258.606
55.56000 299.271
55.60000 358.262
55.64000 394.020
55.68000 456.392
55.72000 514.619
55.76000 570.114
55.80000 635.832
55.84000 683.752
55.88000 711.880
55.92000 729.484
55.96000 724.851
56.00000 680.786
56.04000 632.099
56.08000 580.258
56.12000 491.295
56.16000 424.607
56.20000 358.119
56.24000 312.849
56.28000 264.768
56.32000 235.967
56.36000 210.419
56.40000 191.213
56.44000 180.603
56.48000 176.993
56.52000 160.519
56.56000 157.086
56.60000 146.437
56.64000 145.069
56.68000 143.896
56.72000 130.115
56.76000 140.976
56.80000 125.059
56.84000 134.330
56.88000 131.740
56.92000 129.709
56.96000 142.797
57.00000 142.314
57.04000 128.787
57.08000 129.485
57.12000 133.799
57.16000 131.594
57.20000 136.896
57.24000 137.414
57.28000 137.649
57.32000 118.987
57.36000 120.167
57.40000 123.935
57.44000 136.765
57.48000 136.748
57.52000 128.537
57.56000 127.602
57.60000 126.101
57.64000 134.092
57.68000 129.142
57.72000 117.195
57.76000 122.083
57.80000 125.504
57.84000 131.323
57.88000 123.066
57.92000 125.146
57.96000 122.819
58.00000 125.956
58.04000 135.912
58.08000 126.644
58.12000 135.822
58.16000 124.737
58.20000 125.020
58.24000 121.756
58.28000 119.927
58.32000 116.059
58.36000 111.546
58.40000 119.390
58.44000 108.637
58.48000 115.905
58.52000 115.842
58.56000 116.295
58.60000 108.379
58.64000 111.978
58.68000 122.830
58.72000 116.292
58.76000 124.254
58.80000 120.617
58.84000 121.198
58.88000 126.893
58.92000 111.362
58.96000 120.348
59.00000 116.578
59.04000 117.248
59.08000 116.487
59.12000 114.740
59.16000 123.195
59.20000 119.407
59.24000 116.348
59.28000 119.183
59.32000 115.593
59.36000 115.058
59.40000 119.975
59.44000 121.043
59.48000 114.512
59.52000 113.581
59.56000 118.695
59.60000 115.167
59.64000 111.889
59.68000 117.729
59.72000 122.139
59.76000 121.027
59.80000 112.751
59.84000 113.210
59.88000 117.522
59.92000 123.731
59.96000 112.924
60.00000 118.051
60.04000 111.861
60.08000 120.118
60.12000 121.864
60.16000 113.100
60.20000 111.638
60.24000 115.274
60.28000 113.366
60.32000 115.461
60.36000 117.360
60.40000 126.611
60.44000 119.665
60.48000 114.573
60.52000 115.049
60.56000 118.156
60.60000 123.491
60.64000 114.980
60.68000 113.949
60.72000 110.164
60.76000 118.213
60.80000 115.635
60.84000 114.989
60.88000 113.191
60.92000 120.026
60.96000 110.553
61.00000 114.656
61.04000 127.179
61.08000 118.137
61.12000 112.398
61.16000 119.890
61.20000 120.667
61.24000 123.094
61.28000 112.634
61.32000 120.725
61.36000 120.638
61.40000 118.121
61.44000 137.866
61.48000 134.328
61.52000 158.186
61.56000 201.790
61.60000 234.842
61.64000 278.853
61.68000 276.866
61.72000 301.226
61.76000 286.291
61.80000 239.968
61.84000 171.734
61.88000 150.781
61.92000 131.731
61.96000 126.920
62.00000 118.956
62.04000 126.208
62.08000 131.058
62.12000 124.391
62.16000 131.165
62.20000 127.337
62.24000 124.149
62.28000 132.147
62.32000 132.451
62.36000 122.940
62.40000 132.256
62.44000 128.940
62.48000 127.178
62.52000 138.677
62.56000 123.590
62.60000 121.594
62.64000 133.580
62.68000 126.576
62.72000 130.758
62.76000 134.295
62.80000 124.685
62.84000 131.416
62.88000 127.600
62.92000 116.197
62.96000 131.250
63.00000 135.045
63.04000 118.422
63.08000 134.808
63.12000 127.965
63.16000 133.875
63.20000 131.389
63.24000 139.885
63.28000 127.832
63.32000 137.586
63.36000 131.978
63.40000 133.160
63.44000 139.788
63.48000 134.843
63.52000 136.284
63.56000 131.057
63.60000 143.713
63.64000 137.696
63.68000 140.100
63.72000 134.308
63.76000 141.470
63.80000 143.095
63.84000 143.815
63.88000 133.906
63.92000 138.033
63.96000 141.011
64.00000 135.658
64.04000 140.058
64.08000 144.027
64.12000 143.127
64.16000 147.148
64.20000 148.584
64.24000 151.875
64.28000 157.229
64.32000 152.760
64.36000 159.893
64.40000 164.224
64.44000 154.350
64.48000 146.876
64.52000 160.954
64.56000 152.196
64.60000 153.386
64.64000 163.938
64.68000 161.136
64.72000 176.847
64.76000 175.812
64.80000 175.980
64.84000 163.927
64.88000 174.880
64.92000 182.318
64.96000 190.145
65.00000 187.464
65.04000 202.959
65.08000 192.385
65.12000 210.775
65.16000 217.361
65.20000 217.617
65.24000 217.541
65.28000 239.859
65.32000 237.715
65.36000 245.617
65.40000 252.528
65.44000 281.951
65.48000 294.838
65.52000 297.052
65.56000 319.453
65.60000 353.985
65.64000 411.112
65.68000 543.543
65.72000 829.691
65.76000 1337.739
65.80000 1756.020
65.84000 1949.707
65.88000 2019.937
65.92000 1926.573
65.96000 1597.545
66.00000 1109.061
66.04000 681.929
66.08000 464.256
66.12000 389.661
66.16000 372.295
66.20000 382.432
66.24000 374.371
66.28000 460.885
66.32000 534.135
66.36000 601.190
66.40000 624.736
66.44000 618.036
66.48000 602.823
66.52000 543.390
66.56000 470.294
66.60000 375.301
66.64000 358.065
66.68000 342.190
66.72000 338.601
66.76000 343.762
66.80000 344.861
66.84000 360.088
66.88000 356.496
66.92000 360.750
66.96000 348.287
67.00000 367.463
67.04000 360.218
67.08000 371.033
67.12000 372.612
67.16000 366.451
67.20000 373.575
67.24000 390.351
67.28000 390.677
67.32000 394.593
67.36000 396.415
67.40000 409.978
67.44000 417.134
67.48000 412.955
67.52000 424.354
67.56000 422.494
67.60000 423.072
67.64000 444.637
67.68000 459.306
67.72000 449.326
67.76000 453.650
67.80000 460.044
67.84000 466.410
67.88000 469.951
67.92000 482.401
67.96000 488.468
68.00000 476.009
68.04000 491.094
68.08000 513.705
68.12000 528.934
68.16000 519.567
68.20000 528.936
68.24000 535.613
68.28000 551.542
68.32000 585.492
68.36000 602.953
68.40000 610.394
68.44000 621.342
68.48000 662.696
68.52000 703.754
68.56000 739.909
68.60000 810.499
68.64000 980.363
68.68000 1115.343
68.72000 1301.873
68.76000 1474.768
68.80000 1617.719
68.84000 1843.181
68.88000 2228.202
68.92000 3503.115
68.96000 8356.559
69.00000 20276.320
69.04000 33912.586
69.08000 41632.879
69.12000 44656.156
69.16000 47714.133
69.20000 47835.734
69.24000 39307.953
69.28000 28958.424
69.32000 23512.143
69.36000 21783.574
69.40000 18655.365
69.44000 11829.126
69.48000 5519.837
69.52000 2452.513
69.56000 1416.527
69.60000 1104.056
69.64000 929.185
69.68000 822.024
69.72000 751.299
69.76000 711.747
69.80000 644.119
69.84000 597.644
69.88000 572.335
69.92000 553.891
69.96000 532.331
70.00000 507.240