File: XRD/08-10-2025 Dep 7/XY Data/BTO_Mapping_Theta2Theta_08-10-2025_001_09_36-542_16-269.xy
20.00000 484.814
20.04000 466.909
20.08000 490.082
20.12000 484.534
20.16000 469.657
20.20000 459.537
20.24000 471.570
20.28000 496.359
20.32000 485.378
20.36000 489.824
20.40000 465.743
20.44000 478.958
20.48000 466.217
20.52000 491.262
20.56000 464.302
20.60000 468.010
20.64000 486.814
20.68000 471.038
20.72000 462.626
20.76000 475.020
20.80000 466.671
20.84000 480.576
20.88000 461.797
20.92000 456.231
20.96000 478.561
21.00000 469.682
21.04000 460.871
21.08000 479.081
21.12000 485.680
21.16000 469.416
21.20000 483.905
21.24000 470.033
21.28000 472.023
21.32000 462.380
21.36000 478.614
21.40000 468.650
21.44000 456.263
21.48000 478.195
21.52000 484.044
21.56000 455.263
21.60000 474.002
21.64000 467.563
21.68000 484.224
21.72000 473.378
21.76000 486.724
21.80000 485.868
21.84000 498.777
21.88000 522.427
21.92000 492.922
21.96000 494.926
22.00000 487.094
22.04000 492.326
22.08000 501.111
22.12000 499.941
22.16000 473.434
22.20000 507.718
22.24000 499.534
22.28000 462.528
22.32000 465.224
22.36000 474.168
22.40000 448.559
22.44000 479.782
22.48000 451.055
22.52000 449.509
22.56000 451.729
22.60000 441.134
22.64000 468.201
22.68000 461.736
22.72000 470.599
22.76000 435.519
22.80000 447.290
22.84000 428.922
22.88000 466.050
22.92000 454.696
22.96000 446.219
23.00000 442.586
23.04000 451.583
23.08000 450.966
23.12000 457.135
23.16000 454.297
23.20000 436.337
23.24000 442.687
23.28000 446.474
23.32000 441.385
23.36000 435.727
23.40000 441.855
23.44000 433.343
23.48000 434.321
23.52000 451.215
23.56000 445.792
23.60000 465.176
23.64000 460.067
23.68000 461.157
23.72000 477.194
23.76000 481.269
23.80000 509.185
23.84000 503.012
23.88000 529.207
23.92000 512.719
23.96000 524.008
24.00000 530.227
24.04000 546.398
24.08000 519.775
24.12000 496.905
24.16000 520.961
24.20000 482.709
24.24000 469.617
24.28000 459.907
24.32000 438.222
24.36000 446.358
24.40000 441.118
24.44000 434.310
24.48000 427.597
24.52000 408.471
24.56000 417.674
24.60000 427.763
24.64000 426.325
24.68000 436.008
24.72000 429.193
24.76000 420.764
24.80000 406.335
24.84000 422.776
24.88000 415.231
24.92000 404.228
24.96000 417.422
25.00000 448.390
25.04000 410.045
25.08000 404.389
25.12000 420.986
25.16000 414.084
25.20000 402.185
25.24000 395.846
25.28000 409.419
25.32000 408.328
25.36000 394.988
25.40000 390.579
25.44000 405.551
25.48000 411.384
25.52000 396.854
25.56000 401.373
25.60000 404.109
25.64000 408.130
25.68000 386.276
25.72000 402.709
25.76000 379.946
25.80000 391.985
25.84000 390.716
25.88000 392.847
25.92000 397.954
25.96000 402.225
26.00000 402.159
26.04000 413.046
26.08000 400.084
26.12000 396.139
26.16000 394.144
26.20000 392.277
26.24000 400.253
26.28000 393.843
26.32000 389.822
26.36000 391.472
26.40000 399.897
26.44000 406.664
26.48000 372.823
26.52000 386.821
26.56000 400.957
26.60000 378.943
26.64000 378.012
26.68000 374.818
26.72000 396.088
26.76000 377.247
26.80000 386.806
26.84000 392.934
26.88000 372.388
26.92000 377.893
26.96000 368.999
27.00000 375.562
27.04000 387.390
27.08000 374.924
27.12000 378.266
27.16000 381.900
27.20000 376.322
27.24000 392.133
27.28000 358.462
27.32000 378.029
27.36000 384.026
27.40000 371.123
27.44000 390.400
27.48000 399.639
27.52000 384.067
27.56000 367.225
27.60000 393.484
27.64000 381.248
27.68000 374.043
27.72000 389.182
27.76000 389.331
27.80000 364.267
27.84000 372.326
27.88000 387.811
27.92000 381.380
27.96000 391.580
28.00000 367.525
28.04000 370.536
28.08000 381.878
28.12000 367.493
28.16000 374.924
28.20000 391.291
28.24000 369.603
28.28000 377.746
28.32000 384.205
28.36000 384.621
28.40000 372.860
28.44000 379.495
28.48000 377.202
28.52000 367.918
28.56000 381.762
28.60000 374.654
28.64000 369.176
28.68000 361.785
28.72000 378.917
28.76000 369.589
28.80000 352.682
28.84000 392.127
28.88000 384.573
28.92000 383.689
28.96000 373.019
29.00000 380.623
29.04000 385.226
29.08000 371.425
29.12000 369.746
29.16000 341.891
29.20000 371.141
29.24000 366.371
29.28000 365.947
29.32000 367.080
29.36000 367.275
29.40000 371.442
29.44000 376.570
29.48000 364.046
29.52000 356.343
29.56000 377.741
29.60000 358.846
29.64000 363.804
29.68000 369.310
29.72000 361.111
29.76000 380.564
29.80000 381.998
29.84000 375.868
29.88000 397.361
29.92000 384.592
29.96000 388.605
30.00000 380.233
30.04000 386.904
30.08000 377.577
30.12000 387.718
30.16000 372.881
30.20000 380.717
30.24000 386.896
30.28000 371.436
30.32000 375.389
30.36000 375.238
30.40000 368.452
30.44000 385.438
30.48000 381.768
30.52000 379.568
30.56000 388.585
30.60000 393.015
30.64000 399.194
30.68000 384.239
30.72000 378.784
30.76000 389.764
30.80000 395.507
30.84000 427.413
30.88000 436.077
30.92000 422.895
30.96000 455.738
31.00000 467.006
31.04000 532.037
31.08000 580.461
31.12000 627.509
31.16000 690.843
31.20000 741.012
31.24000 846.356
31.28000 903.769
31.32000 957.960
31.36000 976.496
31.40000 956.988
31.44000 890.107
31.48000 849.612
31.52000 767.078
31.56000 683.698
31.60000 610.931
31.64000 562.644
31.68000 500.615
31.72000 480.690
31.76000 433.737
31.80000 439.721
31.84000 421.352
31.88000 395.446
31.92000 394.238
31.96000 369.238
32.00000 364.771
32.04000 363.540
32.08000 371.788
32.12000 365.746
32.16000 370.967
32.20000 357.743
32.24000 350.124
32.28000 344.818
32.32000 357.813
32.36000 348.819
32.40000 341.634
32.44000 342.917
32.48000 334.130
32.52000 329.566
32.56000 354.970
32.60000 335.705
32.64000 329.254
32.68000 338.914
32.72000 327.469
32.76000 314.420
32.80000 339.117
32.84000 318.556
32.88000 325.551
32.92000 327.438
32.96000 338.950
33.00000 319.420
33.04000 313.385
33.08000 300.157
33.12000 304.361
33.16000 305.858
33.20000 312.035
33.24000 307.091
33.28000 292.715
33.32000 305.637
33.36000 302.086
33.40000 308.124
33.44000 312.215
33.48000 290.396
33.52000 292.119
33.56000 296.236
33.60000 304.383
33.64000 294.507
33.68000 299.948
33.72000 283.923
33.76000 310.658
33.80000 312.966
33.84000 306.217
33.88000 306.660
33.92000 306.688
33.96000 306.609
34.00000 312.239
34.04000 315.029
34.08000 309.228
34.12000 319.195
34.16000 311.799
34.20000 328.479
34.24000 331.283
34.28000 324.905
34.32000 315.643
34.36000 333.909
34.40000 331.008
34.44000 325.802
34.48000 326.316
34.52000 315.713
34.56000 307.660
34.60000 311.495
34.64000 318.326
34.68000 311.762
34.72000 284.809
34.76000 309.114
34.80000 290.686
34.84000 284.929
34.88000 283.564
34.92000 285.888
34.96000 282.270
35.00000 285.294
35.04000 279.254
35.08000 262.639
35.12000 277.594
35.16000 267.682
35.20000 278.143
35.24000 272.398
35.28000 264.837
35.32000 278.490
35.36000 272.475
35.40000 281.535
35.44000 274.087
35.48000 280.826
35.52000 274.688
35.56000 259.442
35.60000 268.763
35.64000 270.048
35.68000 264.413
35.72000 265.255
35.76000 273.082
35.80000 252.354
35.84000 257.014
35.88000 256.465
35.92000 261.635
35.96000 259.037
36.00000 250.358
36.04000 273.151
36.08000 266.469
36.12000 270.977
36.16000 263.847
36.20000 258.494
36.24000 264.949
36.28000 258.792
36.32000 256.778
36.36000 256.247
36.40000 263.780
36.44000 250.085
36.48000 261.188
36.52000 269.793
36.56000 264.778
36.60000 257.303
36.64000 264.383
36.68000 269.398
36.72000 247.961
36.76000 259.293
36.80000 260.455
36.84000 263.175
36.88000 255.048
36.92000 254.980
36.96000 277.111
37.00000 256.126
37.04000 256.957
37.08000 257.824
37.12000 246.752
37.16000 248.146
37.20000 258.451
37.24000 260.874
37.28000 262.108
37.32000 262.848
37.36000 263.465
37.40000 246.301
37.44000 261.845
37.48000 261.008
37.52000 240.581
37.56000 246.157
37.60000 251.597
37.64000 240.583
37.68000 253.463
37.72000 271.725
37.76000 257.823
37.80000 261.820
37.84000 255.944
37.88000 239.555
37.92000 256.626
37.96000 258.463
38.00000 266.057
38.04000 252.896
38.08000 267.012
38.12000 260.165
38.16000 252.945
38.20000 263.600
38.24000 268.422
38.28000 272.962
38.32000 292.015
38.36000 304.518
38.40000 314.863
38.44000 347.543
38.48000 376.411
38.52000 437.939
38.56000 468.313
38.60000 493.357
38.64000 539.024
38.68000 559.353
38.72000 539.820
38.76000 493.918
38.80000 451.861
38.84000 411.338
38.88000 361.518
38.92000 347.088
38.96000 300.485
39.00000 290.294
39.04000 269.413
39.08000 263.527
39.12000 262.790
39.16000 259.094
39.20000 242.006
39.24000 251.210
39.28000 236.355
39.32000 244.486
39.36000 245.582
39.40000 235.477
39.44000 242.208
39.48000 239.691
39.52000 237.935
39.56000 235.486
39.60000 231.157
39.64000 242.802
39.68000 235.847
39.72000 243.058
39.76000 230.654
39.80000 235.235
39.84000 238.670
39.88000 242.989
39.92000 240.958
39.96000 220.859
40.00000 230.984
40.04000 242.100
40.08000 228.571
40.12000 237.412
40.16000 217.232
40.20000 226.014
40.24000 231.706
40.28000 220.400
40.32000 228.038
40.36000 217.988
40.40000 210.913
40.44000 233.690
40.48000 221.880
40.52000 222.535
40.56000 215.374
40.60000 213.719
40.64000 228.698
40.68000 223.273
40.72000 200.732
40.76000 216.066
40.80000 211.523
40.84000 220.092
40.88000 211.996
40.92000 208.246
40.96000 220.690
41.00000 199.204
41.04000 206.993
41.08000 213.123
41.12000 214.875
41.16000 216.177
41.20000 193.266
41.24000 207.870
41.28000 210.694
41.32000 209.989
41.36000 214.887
41.40000 210.122
41.44000 195.558
41.48000 215.231
41.52000 213.105
41.56000 221.912
41.60000 218.660
41.64000 219.920
41.68000 213.938
41.72000 213.504
41.76000 211.745
41.80000 215.302
41.84000 204.353
41.88000 216.452
41.92000 215.878
41.96000 218.045
42.00000 210.412
42.04000 214.331
42.08000 215.423
42.12000 243.731
42.16000 222.825
42.20000 221.859
42.24000 225.131
42.28000 209.282
42.32000 221.701
42.36000 211.576
42.40000 206.459
42.44000 211.741
42.48000 209.562
42.52000 215.419
42.56000 213.228
42.60000 209.510
42.64000 208.397
42.68000 212.464
42.72000 208.118
42.76000 212.346
42.80000 211.943
42.84000 209.802
42.88000 210.786
42.92000 193.186
42.96000 204.633
43.00000 200.225
43.04000 213.626
43.08000 215.554
43.12000 201.010
43.16000 210.111
43.20000 198.087
43.24000 201.821
43.28000 213.476
43.32000 195.003
43.36000 203.180
43.40000 205.293
43.44000 194.864
43.48000 193.987
43.52000 213.642
43.56000 205.062
43.60000 193.658
43.64000 195.965
43.68000 197.398
43.72000 194.793
43.76000 200.183
43.80000 198.567
43.84000 197.882
43.88000 196.182
43.92000 188.170
43.96000 199.158
44.00000 195.409
44.04000 188.911
44.08000 198.435
44.12000 206.844
44.16000 200.796
44.20000 200.693
44.24000 212.488
44.28000 182.371
44.32000 195.746
44.36000 203.353
44.40000 210.895
44.44000 206.283
44.48000 214.371
44.52000 205.513
44.56000 205.043
44.60000 227.152
44.64000 206.413
44.68000 217.603
44.72000 211.149
44.76000 221.214
44.80000 221.862
44.84000 236.746
44.88000 220.715
44.92000 228.845
44.96000 217.933
45.00000 223.983
45.04000 207.544
45.08000 222.563
45.12000 212.366
45.16000 216.389
45.20000 224.045
45.24000 210.134
45.28000 208.706
45.32000 212.360
45.36000 222.392
45.40000 212.900
45.44000 203.343
45.48000 198.412
45.52000 192.258
45.56000 194.176
45.60000 198.820
45.64000 179.457
45.68000 189.731
45.72000 193.345
45.76000 189.204
45.80000 188.522
45.84000 178.676
45.88000 182.467
45.92000 177.740
45.96000 184.833
46.00000 195.133
46.04000 177.411
46.08000 182.607
46.12000 181.123
46.16000 178.766
46.20000 190.494
46.24000 173.619
46.28000 194.372
46.32000 168.456
46.36000 181.646
46.40000 184.513
46.44000 174.642
46.48000 172.497
46.52000 179.700
46.56000 184.869
46.60000 189.025
46.64000 176.618
46.68000 184.463
46.72000 172.813
46.76000 177.620
46.80000 170.180
46.84000 178.622
46.88000 173.258
46.92000 178.599
46.96000 173.453
47.00000 167.271
47.04000 169.033
47.08000 176.611
47.12000 159.880
47.16000 168.621
47.20000 164.587
47.24000 168.649
47.28000 166.763
47.32000 163.491
47.36000 164.224
47.40000 166.254
47.44000 163.202
47.48000 171.761
47.52000 167.196
47.56000 160.822
47.60000 163.913
47.64000 167.155
47.68000 155.209
47.72000 162.811
47.76000 172.875
47.80000 166.736
47.84000 163.462
47.88000 155.102
47.92000 157.734
47.96000 165.733
48.00000 159.304
48.04000 170.205
48.08000 156.098
48.12000 160.248
48.16000 168.337
48.20000 163.473
48.24000 166.382
48.28000 171.131
48.32000 159.235
48.36000 158.549
48.40000 170.476
48.44000 165.268
48.48000 156.799
48.52000 160.265
48.56000 166.281
48.60000 153.088
48.64000 154.768
48.68000 163.523
48.72000 165.459
48.76000 145.461
48.80000 164.461
48.84000 160.327
48.88000 156.776
48.92000 160.710
48.96000 163.283
49.00000 151.274
49.04000 153.764
49.08000 163.960
49.12000 156.746
49.16000 152.259
49.20000 147.964
49.24000 151.749
49.28000 152.717
49.32000 164.963
49.36000 150.189
49.40000 159.959
49.44000 161.368
49.48000 156.449
49.52000 169.721
49.56000 150.849
49.60000 153.219
49.64000 159.774
49.68000 163.303
49.72000 148.218
49.76000 151.191
49.80000 151.191
49.84000 160.084
49.88000 161.096
49.92000 163.120
49.96000 151.635
50.00000 163.092
50.04000 146.779
50.08000 166.148
50.12000 159.033
50.16000 164.789
50.20000 154.137
50.24000 161.627
50.28000 150.566
50.32000 160.211
50.36000 160.971
50.40000 165.366
50.44000 164.598
50.48000 177.248
50.52000 179.395
50.56000 165.097
50.60000 172.013
50.64000 165.699
50.68000 171.423
50.72000 178.893
50.76000 175.806
50.80000 170.640
50.84000 161.500
50.88000 163.526
50.92000 168.967
50.96000 167.800
51.00000 155.159
51.04000 155.225
51.08000 152.723
51.12000 155.393
51.16000 151.965
51.20000 150.705
51.24000 145.570
51.28000 153.450
51.32000 145.897
51.36000 149.419
51.40000 147.107
51.44000 151.655
51.48000 145.955
51.52000 145.855
51.56000 136.579
51.60000 134.407
51.64000 147.416
51.68000 143.895
51.72000 151.317
51.76000 149.137
51.80000 147.597
51.84000 150.869
51.88000 145.806
51.92000 140.439
51.96000 147.612
52.00000 144.979
52.04000 142.383
52.08000 142.652
52.12000 136.705
52.16000 143.297
52.20000 142.722
52.24000 152.396
52.28000 149.566
52.32000 135.151
52.36000 140.135
52.40000 145.366
52.44000 135.844
52.48000 133.557
52.52000 135.197
52.56000 148.196
52.60000 136.667
52.64000 141.891
52.68000 138.984
52.72000 150.739
52.76000 138.200
52.80000 138.864
52.84000 132.250
52.88000 146.744
52.92000 133.927
52.96000 139.689
53.00000 142.198
53.04000 152.331
53.08000 144.634
53.12000 135.733
53.16000 148.427
53.20000 142.631
53.24000 140.709
53.28000 139.738
53.32000 144.691
53.36000 140.854
53.40000 140.098
53.44000 142.137
53.48000 143.562
53.52000 141.350
53.56000 136.779
53.60000 143.508
53.64000 145.213
53.68000 136.923
53.72000 142.317
53.76000 138.915
53.80000 136.369
53.84000 132.419
53.88000 150.660
53.92000 145.697
53.96000 140.754
54.00000 142.724
54.04000 134.561
54.08000 136.266
54.12000 136.782
54.16000 143.170
54.20000 126.228
54.24000 143.519
54.28000 139.836
54.32000 136.687
54.36000 138.859
54.40000 152.452
54.44000 134.192
54.48000 129.986
54.52000 137.296
54.56000 150.410
54.60000 138.392
54.64000 141.975
54.68000 138.081
54.72000 144.818
54.76000 139.055
54.80000 144.264
54.84000 141.976
54.88000 141.647
54.92000 128.130
54.96000 146.748
55.00000 150.751
55.04000 151.620
55.08000 140.251
55.12000 145.543
55.16000 140.694
55.20000 153.961
55.24000 157.484
55.28000 158.603
55.32000 155.448
55.36000 166.033
55.40000 176.457
55.44000 168.546
55.48000 169.686
55.52000 174.029
55.56000 181.881
55.60000 195.205
55.64000 194.108
55.68000 199.592
55.72000 223.879
55.76000 228.800
55.80000 242.938
55.84000 246.791
55.88000 251.310
55.92000 255.580
55.96000 258.062
56.00000 251.599
56.04000 243.794
56.08000 238.256
56.12000 224.564
56.16000 215.098
56.20000 203.498
56.24000 186.287
56.28000 187.673
56.32000 173.861
56.36000 171.875
56.40000 159.831
56.44000 148.800
56.48000 151.216
56.52000 142.191
56.56000 150.389
56.60000 138.962
56.64000 148.810
56.68000 137.013
56.72000 145.680
56.76000 132.450
56.80000 131.435
56.84000 136.276
56.88000 139.599
56.92000 143.171
56.96000 130.706
57.00000 137.696
57.04000 128.604
57.08000 128.134
57.12000 125.829
57.16000 133.035
57.20000 124.550
57.24000 125.110
57.28000 119.048
57.32000 126.092
57.36000 132.075
57.40000 123.846
57.44000 122.347
57.48000 119.658
57.52000 122.217
57.56000 128.937
57.60000 128.647
57.64000 134.170
57.68000 120.671
57.72000 128.165
57.76000 128.992
57.80000 115.424
57.84000 130.237
57.88000 121.191
57.92000 113.351
57.96000 128.025
58.00000 128.759
58.04000 127.641
58.08000 123.516
58.12000 122.030
58.16000 138.359
58.20000 130.646
58.24000 131.151
58.28000 118.612
58.32000 121.278
58.36000 118.613
58.40000 120.773
58.44000 110.927
58.48000 109.323
58.52000 119.710
58.56000 108.859
58.60000 120.278
58.64000 115.279
58.68000 111.471
58.72000 113.196
58.76000 133.143
58.80000 121.203
58.84000 121.427
58.88000 125.733
58.92000 119.935
58.96000 112.395
59.00000 123.386
59.04000 121.574
59.08000 122.318
59.12000 115.512
59.16000 121.880
59.20000 126.808
59.24000 121.388
59.28000 113.711
59.32000 114.555
59.36000 116.312
59.40000 128.890
59.44000 123.119
59.48000 114.538
59.52000 124.183
59.56000 118.495
59.60000 118.874
59.64000 119.816
59.68000 116.770
59.72000 117.233
59.76000 117.047
59.80000 115.163
59.84000 112.498
59.88000 117.629
59.92000 116.098
59.96000 122.976
60.00000 125.916
60.04000 115.905
60.08000 121.564
60.12000 104.752
60.16000 122.022
60.20000 117.722
60.24000 120.764
60.28000 120.328
60.32000 112.998
60.36000 121.366
60.40000 120.439
60.44000 124.576
60.48000 119.605
60.52000 120.080
60.56000 126.846
60.60000 117.769
60.64000 131.906
60.68000 118.335
60.72000 111.660
60.76000 123.639
60.80000 119.911
60.84000 119.204
60.88000 115.234
60.92000 117.183
60.96000 109.509
61.00000 124.702
61.04000 120.983
61.08000 126.082
61.12000 125.357
61.16000 124.696
61.20000 127.513
61.24000 112.638
61.28000 119.015
61.32000 130.552
61.36000 121.503
61.40000 116.266
61.44000 131.647
61.48000 139.561
61.52000 167.267
61.56000 220.402
61.60000 272.660
61.64000 289.150
61.68000 299.057
61.72000 298.305
61.76000 269.012
61.80000 222.068
61.84000 164.137
61.88000 142.824
61.92000 132.067
61.96000 135.013
62.00000 127.518
62.04000 120.705
62.08000 138.324
62.12000 124.657
62.16000 126.038
62.20000 129.576
62.24000 119.930
62.28000 130.565
62.32000 131.812
62.36000 131.381
62.40000 142.438
62.44000 134.910
62.48000 132.694
62.52000 128.129
62.56000 131.476
62.60000 128.060
62.64000 138.177
62.68000 132.953
62.72000 133.730
62.76000 129.433
62.80000 133.964
62.84000 124.359
62.88000 131.176
62.92000 127.730
62.96000 136.628
63.00000 140.452
63.04000 138.167
63.08000 135.856
63.12000 137.039
63.16000 142.408
63.20000 141.983
63.24000 131.720
63.28000 150.586
63.32000 138.864
63.36000 127.199
63.40000 134.504
63.44000 144.240
63.48000 140.404
63.52000 139.959
63.56000 139.353
63.60000 141.311
63.64000 149.783
63.68000 137.874
63.72000 140.859
63.76000 136.140
63.80000 143.191
63.84000 148.586
63.88000 142.641
63.92000 148.836
63.96000 152.376
64.00000 157.923
64.04000 159.997
64.08000 145.440
64.12000 153.188
64.16000 158.032
64.20000 163.451
64.24000 161.490
64.28000 152.745
64.32000 154.465
64.36000 144.326
64.40000 157.239
64.44000 157.234
64.48000 155.067
64.52000 161.449
64.56000 162.138
64.60000 148.484
64.64000 169.707
64.68000 180.929
64.72000 188.879
64.76000 170.160
64.80000 188.336
64.84000 189.428
64.88000 181.221
64.92000 179.075
64.96000 194.612
65.00000 207.219
65.04000 202.566
65.08000 197.787
65.12000 207.494
65.16000 216.107
65.20000 228.121
65.24000 220.440
65.28000 240.591
65.32000 235.007
65.36000 242.335
65.40000 260.602
65.44000 265.095
65.48000 276.947
65.52000 307.715
65.56000 319.709
65.60000 362.902
65.64000 429.659
65.68000 660.550
65.72000 1031.191
65.76000 1504.786
65.80000 1840.254
65.84000 1995.623
65.88000 1983.407
65.92000 1796.466
65.96000 1427.032
66.00000 909.130
66.04000 574.068
66.08000 445.264
66.12000 387.131
66.16000 368.283
66.20000 376.568
66.24000 391.858
66.28000 471.483
66.32000 562.528
66.36000 635.944
66.40000 623.933
66.44000 617.309
66.48000 594.841
66.52000 512.134
66.56000 442.507
66.60000 380.935
66.64000 374.456
66.68000 377.012
66.72000 358.544
66.76000 355.010
66.80000 371.546
66.84000 371.583
66.88000 378.364
66.92000 385.672
66.96000 383.750
67.00000 371.319
67.04000 394.649
67.08000 406.849
67.12000 393.653
67.16000 384.465
67.20000 395.714
67.24000 416.431
67.28000 390.880
67.32000 429.614
67.36000 428.528
67.40000 428.343
67.44000 418.855
67.48000 440.089
67.52000 435.395
67.56000 457.321
67.60000 447.825
67.64000 465.364
67.68000 443.780
67.72000 468.369
67.76000 474.376
67.80000 477.206
67.84000 485.930
67.88000 479.426
67.92000 491.461
67.96000 518.317
68.00000 514.643
68.04000 532.575
68.08000 541.260
68.12000 570.323
68.16000 557.478
68.20000 562.272
68.24000 576.316
68.28000 604.488
68.32000 584.908
68.36000 628.103
68.40000 647.060
68.44000 657.909
68.48000 717.176
68.52000 740.970
68.56000 802.603
68.60000 891.061
68.64000 1036.783
68.68000 1203.668
68.72000 1385.378
68.76000 1579.408
68.80000 1737.683
68.84000 1994.283
68.88000 2575.629
68.92000 4691.275
68.96000 12023.558
69.00000 25651.314
69.04000 37650.754
69.08000 42978.199
69.12000 45729.672
69.16000 48555.141
69.20000 45781.469
69.24000 34691.395
69.28000 25838.080
69.32000 22541.418
69.36000 21178.732
69.40000 16470.215
69.44000 8977.513
69.48000 3814.877
69.52000 1885.843
69.56000 1283.827
69.60000 1044.292
69.64000 907.635
69.68000 787.351
69.72000 713.217
69.76000 674.894
69.80000 643.185
69.84000 607.435
69.88000 599.173
69.92000 540.418
69.96000 512.466
70.00000 494.439