File: XRD/08-10-2025 Dep 7/XY Data/BTO_Mapping_Theta2Theta_08-10-2025_001_39_-16-180_-11-756.xy
20.00000 458.694
20.04000 491.769
20.08000 478.247
20.12000 462.527
20.16000 466.391
20.20000 467.055
20.24000 478.613
20.28000 483.757
20.32000 457.957
20.36000 472.416
20.40000 441.732
20.44000 455.572
20.48000 466.256
20.52000 476.226
20.56000 463.174
20.60000 464.875
20.64000 460.028
20.68000 468.622
20.72000 471.577
20.76000 494.069
20.80000 448.343
20.84000 466.474
20.88000 451.795
20.92000 454.886
20.96000 487.022
21.00000 473.783
21.04000 477.594
21.08000 457.597
21.12000 472.444
21.16000 465.906
21.20000 441.204
21.24000 472.621
21.28000 456.831
21.32000 451.832
21.36000 445.496
21.40000 465.005
21.44000 458.902
21.48000 461.794
21.52000 458.751
21.56000 473.273
21.60000 485.273
21.64000 467.265
21.68000 482.758
21.72000 500.370
21.76000 509.248
21.80000 513.956
21.84000 516.074
21.88000 541.799
21.92000 575.128
21.96000 595.024
22.00000 609.216
22.04000 611.948
22.08000 588.270
22.12000 599.311
22.16000 591.136
22.20000 520.989
22.24000 523.448
22.28000 530.326
22.32000 504.165
22.36000 510.414
22.40000 492.986
22.44000 486.398
22.48000 459.730
22.52000 466.382
22.56000 459.770
22.60000 466.502
22.64000 430.725
22.68000 429.784
22.72000 440.174
22.76000 445.126
22.80000 432.286
22.84000 432.148
22.88000 457.798
22.92000 437.101
22.96000 438.653
23.00000 419.330
23.04000 437.713
23.08000 435.357
23.12000 427.235
23.16000 430.548
23.20000 426.611
23.24000 451.098
23.28000 428.077
23.32000 418.719
23.36000 439.465
23.40000 407.765
23.44000 424.986
23.48000 436.827
23.52000 415.365
23.56000 427.091
23.60000 432.265
23.64000 434.496
23.68000 423.846
23.72000 427.683
23.76000 444.168
23.80000 434.033
23.84000 432.195
23.88000 437.520
23.92000 433.721
23.96000 443.995
24.00000 452.518
24.04000 447.193
24.08000 454.797
24.12000 454.475
24.16000 426.312
24.20000 427.981
24.24000 419.646
24.28000 432.654
24.32000 420.749
24.36000 411.167
24.40000 421.164
24.44000 405.804
24.48000 410.113
24.52000 419.428
24.56000 412.393
24.60000 417.219
24.64000 411.467
24.68000 405.305
24.72000 406.077
24.76000 404.400
24.80000 404.337
24.84000 415.557
24.88000 412.522
24.92000 397.120
24.96000 394.592
25.00000 395.137
25.04000 409.094
25.08000 418.735
25.12000 400.534
25.16000 397.938
25.20000 402.622
25.24000 394.863
25.28000 412.406
25.32000 416.995
25.36000 402.875
25.40000 404.490
25.44000 405.677
25.48000 394.888
25.52000 407.267
25.56000 404.929
25.60000 391.242
25.64000 385.579
25.68000 404.190
25.72000 406.691
25.76000 399.475
25.80000 383.057
25.84000 393.243
25.88000 403.848
25.92000 405.895
25.96000 394.462
26.00000 397.120
26.04000 390.315
26.08000 378.702
26.12000 395.535
26.16000 375.457
26.20000 399.914
26.24000 380.088
26.28000 378.548
26.32000 397.853
26.36000 379.625
26.40000 392.725
26.44000 387.124
26.48000 399.584
26.52000 382.861
26.56000 404.919
26.60000 374.824
26.64000 378.417
26.68000 374.075
26.72000 372.804
26.76000 376.253
26.80000 385.983
26.84000 386.850
26.88000 382.356
26.92000 363.822
26.96000 386.200
27.00000 390.939
27.04000 386.990
27.08000 377.543
27.12000 377.123
27.16000 379.152
27.20000 367.496
27.24000 377.490
27.28000 368.858
27.32000 368.977
27.36000 390.018
27.40000 384.243
27.44000 365.282
27.48000 382.553
27.52000 376.578
27.56000 368.774
27.60000 376.054
27.64000 382.655
27.68000 383.388
27.72000 382.110
27.76000 365.868
27.80000 376.712
27.84000 372.556
27.88000 354.765
27.92000 378.839
27.96000 369.535
28.00000 363.330
28.04000 358.924
28.08000 371.718
28.12000 363.384
28.16000 367.717
28.20000 375.434
28.24000 354.446
28.28000 355.799
28.32000 362.201
28.36000 367.080
28.40000 355.664
28.44000 377.558
28.48000 350.800
28.52000 354.950
28.56000 358.921
28.60000 357.498
28.64000 369.393
28.68000 361.636
28.72000 364.817
28.76000 366.702
28.80000 360.731
28.84000 364.353
28.88000 374.437
28.92000 371.433
28.96000 351.807
29.00000 342.078
29.04000 378.435
29.08000 360.019
29.12000 364.724
29.16000 359.363
29.20000 355.417
29.24000 349.606
29.28000 356.317
29.32000 333.334
29.36000 369.880
29.40000 346.003
29.44000 358.085
29.48000 353.502
29.52000 358.774
29.56000 338.633
29.60000 362.181
29.64000 369.505
29.68000 372.580
29.72000 381.995
29.76000 372.615
29.80000 394.202
29.84000 399.798
29.88000 405.986
29.92000 438.895
29.96000 436.615
30.00000 422.020
30.04000 442.787
30.08000 430.073
30.12000 424.551
30.16000 414.881
30.20000 395.913
30.24000 388.201
30.28000 372.345
30.32000 380.479
30.36000 368.652
30.40000 380.313
30.44000 376.174
30.48000 382.229
30.52000 379.829
30.56000 372.085
30.60000 374.832
30.64000 379.483
30.68000 356.574
30.72000 383.707
30.76000 384.921
30.80000 413.884
30.84000 417.584
30.88000 425.360
30.92000 467.507
30.96000 533.439
31.00000 578.357
31.04000 696.359
31.08000 868.364
31.12000 1053.052
31.16000 1330.702
31.20000 1633.069
31.24000 1906.711
31.28000 2214.308
31.32000 2408.722
31.36000 2385.818
31.40000 2310.713
31.44000 2058.340
31.48000 1785.328
31.52000 1455.053
31.56000 1131.368
31.60000 916.135
31.64000 731.437
31.68000 587.554
31.72000 496.272
31.76000 454.203
31.80000 417.918
31.84000 406.179
31.88000 377.247
31.92000 379.884
31.96000 346.664
32.00000 365.247
32.04000 353.748
32.08000 339.726
32.12000 330.123
32.16000 319.165
32.20000 334.697
32.24000 332.291
32.28000 332.102
32.32000 320.475
32.36000 314.425
32.40000 321.354
32.44000 330.520
32.48000 309.569
32.52000 325.199
32.56000 331.189
32.60000 310.575
32.64000 312.894
32.68000 315.342
32.72000 319.933
32.76000 292.189
32.80000 313.711
32.84000 326.761
32.88000 327.482
32.92000 321.622
32.96000 316.178
33.00000 298.083
33.04000 321.299
33.08000 322.349
33.12000 303.222
33.16000 294.194
33.20000 297.937
33.24000 304.362
33.28000 297.455
33.32000 295.812
33.36000 291.517
33.40000 282.738
33.44000 295.763
33.48000 293.556
33.52000 297.511
33.56000 297.992
33.60000 292.887
33.64000 306.378
33.68000 303.545
33.72000 288.019
33.76000 297.970
33.80000 298.982
33.84000 305.238
33.88000 303.790
33.92000 310.529
33.96000 316.375
34.00000 303.092
34.04000 299.127
34.08000 312.082
34.12000 301.146
34.16000 318.904
34.20000 320.187
34.24000 312.694
34.28000 332.401
34.32000 319.784
34.36000 330.124
34.40000 320.791
34.44000 323.306
34.48000 326.872
34.52000 324.190
34.56000 318.377
34.60000 312.467
34.64000 304.753
34.68000 305.640
34.72000 291.990
34.76000 291.266
34.80000 292.781
34.84000 285.938
34.88000 303.312
34.92000 283.418
34.96000 295.522
35.00000 283.623
35.04000 278.152
35.08000 265.124
35.12000 262.332
35.16000 260.996
35.20000 267.385
35.24000 279.150
35.28000 269.124
35.32000 282.293
35.36000 258.658
35.40000 249.800
35.44000 265.777
35.48000 255.180
35.52000 255.882
35.56000 259.602
35.60000 277.098
35.64000 253.472
35.68000 240.408
35.72000 255.647
35.76000 265.501
35.80000 263.038
35.84000 257.019
35.88000 271.620
35.92000 265.931
35.96000 270.310
36.00000 267.823
36.04000 255.552
36.08000 254.350
36.12000 257.671
36.16000 260.378
36.20000 257.242
36.24000 244.351
36.28000 259.288
36.32000 248.812
36.36000 270.352
36.40000 251.186
36.44000 241.950
36.48000 255.145
36.52000 258.869
36.56000 246.565
36.60000 261.903
36.64000 276.892
36.68000 263.921
36.72000 277.072
36.76000 261.339
36.80000 275.963
36.84000 270.764
36.88000 288.423
36.92000 279.471
36.96000 278.582
37.00000 279.224
37.04000 275.785
37.08000 279.283
37.12000 273.033
37.16000 261.669
37.20000 274.356
37.24000 255.181
37.28000 265.989
37.32000 268.566
37.36000 266.328
37.40000 255.311
37.44000 263.590
37.48000 244.503
37.52000 256.940
37.56000 230.126
37.60000 251.937
37.64000 250.954
37.68000 248.473
37.72000 257.070
37.76000 249.536
37.80000 255.828
37.84000 258.170
37.88000 267.588
37.92000 247.711
37.96000 253.007
38.00000 257.974
38.04000 271.273
38.08000 255.800
38.12000 273.443
38.16000 263.620
38.20000 279.898
38.24000 297.537
38.28000 305.909
38.32000 351.911
38.36000 380.184
38.40000 453.243
38.44000 521.759
38.48000 603.950
38.52000 679.930
38.56000 772.313
38.60000 861.932
38.64000 917.655
38.68000 936.814
38.72000 934.310
38.76000 865.861
38.80000 786.805
38.84000 694.029
38.88000 598.958
38.92000 496.526
38.96000 423.476
39.00000 363.641
39.04000 322.141
39.08000 283.056
39.12000 257.786
39.16000 251.492
39.20000 257.806
39.24000 252.467
39.28000 231.086
39.32000 234.884
39.36000 229.790
39.40000 238.522
39.44000 236.876
39.48000 245.181
39.52000 226.323
39.56000 235.080
39.60000 229.951
39.64000 221.717
39.68000 228.529
39.72000 252.535
39.76000 219.357
39.80000 226.040
39.84000 219.938
39.88000 215.808
39.92000 206.871
39.96000 222.522
40.00000 224.402
40.04000 231.859
40.08000 222.851
40.12000 232.273
40.16000 215.899
40.20000 220.088
40.24000 208.077
40.28000 224.626
40.32000 212.239
40.36000 223.352
40.40000 218.163
40.44000 202.157
40.48000 223.154
40.52000 214.752
40.56000 214.738
40.60000 220.887
40.64000 227.067
40.68000 218.384
40.72000 218.746
40.76000 220.531
40.80000 214.510
40.84000 220.073
40.88000 212.070
40.92000 203.549
40.96000 212.889
41.00000 211.387
41.04000 217.518
41.08000 210.700
41.12000 204.976
41.16000 220.432
41.20000 197.531
41.24000 212.100
41.28000 196.912
41.32000 208.865
41.36000 212.683
41.40000 211.966
41.44000 200.759
41.48000 211.646
41.52000 203.023
41.56000 220.714
41.60000 201.190
41.64000 208.708
41.68000 201.568
41.72000 195.145
41.76000 208.028
41.80000 210.248
41.84000 210.578
41.88000 206.477
41.92000 203.590
41.96000 216.926
42.00000 208.986
42.04000 213.697
42.08000 200.453
42.12000 209.524
42.16000 200.091
42.20000 214.366
42.24000 201.332
42.28000 215.653
42.32000 211.508
42.36000 204.311
42.40000 204.990
42.44000 207.296
42.48000 198.869
42.52000 194.406
42.56000 204.783
42.60000 194.381
42.64000 205.171
42.68000 196.035
42.72000 207.662
42.76000 192.989
42.80000 192.007
42.84000 206.288
42.88000 202.381
42.92000 197.958
42.96000 194.135
43.00000 204.172
43.04000 202.047
43.08000 203.681
43.12000 197.290
43.16000 201.722
43.20000 196.742
43.24000 204.862
43.28000 198.543
43.32000 205.868
43.36000 206.334
43.40000 195.743
43.44000 196.002
43.48000 192.308
43.52000 193.449
43.56000 193.739
43.60000 188.401
43.64000 199.081
43.68000 187.384
43.72000 173.137
43.76000 197.125
43.80000 188.129
43.84000 189.999
43.88000 190.736
43.92000 204.718
43.96000 198.850
44.00000 195.644
44.04000 193.940
44.08000 196.080
44.12000 203.961
44.16000 200.749
44.20000 183.522
44.24000 198.150
44.28000 205.102
44.32000 196.395
44.36000 209.257
44.40000 199.089
44.44000 210.829
44.48000 211.463
44.52000 206.252
44.56000 221.699
44.60000 215.738
44.64000 226.396
44.68000 244.838
44.72000 254.980
44.76000 261.898
44.80000 270.159
44.84000 292.475
44.88000 319.024
44.92000 329.696
44.96000 300.726
45.00000 301.480
45.04000 342.817
45.08000 324.326
45.12000 310.859
45.16000 308.861
45.20000 279.966
45.24000 272.282
45.28000 271.944
45.32000 259.206
45.36000 236.419
45.40000 235.161
45.44000 221.829
45.48000 219.757
45.52000 228.611
45.56000 220.108
45.60000 217.295
45.64000 202.536
45.68000 205.679
45.72000 212.286
45.76000 206.607
45.80000 198.731
45.84000 203.704
45.88000 205.370
45.92000 180.797
45.96000 190.288
46.00000 180.490
46.04000 182.308
46.08000 187.131
46.12000 186.148
46.16000 171.057
46.20000 174.114
46.24000 185.449
46.28000 186.636
46.32000 181.554
46.36000 170.959
46.40000 168.174
46.44000 170.092
46.48000 167.126
46.52000 181.047
46.56000 189.868
46.60000 190.596
46.64000 162.445
46.68000 169.751
46.72000 169.869
46.76000 181.444
46.80000 178.554
46.84000 166.314
46.88000 170.869
46.92000 162.830
46.96000 166.693
47.00000 156.022
47.04000 166.373
47.08000 170.611
47.12000 175.167
47.16000 170.675
47.20000 164.682
47.24000 157.431
47.28000 169.017
47.32000 164.205
47.36000 165.436
47.40000 165.312
47.44000 167.164
47.48000 167.489
47.52000 165.060
47.56000 165.670
47.60000 170.065
47.64000 164.286
47.68000 168.577
47.72000 175.171
47.76000 167.688
47.80000 164.657
47.84000 164.421
47.88000 146.637
47.92000 155.197
47.96000 149.377
48.00000 145.941
48.04000 158.450
48.08000 162.505
48.12000 160.208
48.16000 169.456
48.20000 157.454
48.24000 178.016
48.28000 160.454
48.32000 170.757
48.36000 165.140
48.40000 160.218
48.44000 157.928
48.48000 162.684
48.52000 165.816
48.56000 154.097
48.60000 152.741
48.64000 157.297
48.68000 158.929
48.72000 153.493
48.76000 151.591
48.80000 158.544
48.84000 158.848
48.88000 166.244
48.92000 157.790
48.96000 149.316
49.00000 158.708
49.04000 152.309
49.08000 159.336
49.12000 152.500
49.16000 158.900
49.20000 155.953
49.24000 148.437
49.28000 154.248
49.32000 153.275
49.36000 159.511
49.40000 163.839
49.44000 168.452
49.48000 152.069
49.52000 152.413
49.56000 148.698
49.60000 150.000
49.64000 152.584
49.68000 158.600
49.72000 161.688
49.76000 162.395
49.80000 163.881
49.84000 151.301
49.88000 152.837
49.92000 155.918
49.96000 160.357
50.00000 161.222
50.04000 151.280
50.08000 163.297
50.12000 154.491
50.16000 156.661
50.20000 167.324
50.24000 168.194
50.28000 168.812
50.32000 178.738
50.36000 183.460
50.40000 198.626
50.44000 193.350
50.48000 216.128
50.52000 224.636
50.56000 223.160
50.60000 225.764
50.64000 219.531
50.68000 213.346
50.72000 204.660
50.76000 226.721
50.80000 207.578
50.84000 184.854
50.88000 196.602
50.92000 172.007
50.96000 157.160
51.00000 162.122
51.04000 161.313
51.08000 152.286
51.12000 157.048
51.16000 146.762
51.20000 155.392
51.24000 149.031
51.28000 152.718
51.32000 149.893
51.36000 151.356
51.40000 153.109
51.44000 153.039
51.48000 146.106
51.52000 137.855
51.56000 152.794
51.60000 150.346
51.64000 139.685
51.68000 148.048
51.72000 155.303
51.76000 142.045
51.80000 142.515
51.84000 140.542
51.88000 138.596
51.92000 146.724
51.96000 145.642
52.00000 135.935
52.04000 147.880
52.08000 142.496
52.12000 147.595
52.16000 145.617
52.20000 133.024
52.24000 133.024
52.28000 139.792
52.32000 143.040
52.36000 141.968
52.40000 145.845
52.44000 133.038
52.48000 145.998
52.52000 142.197
52.56000 139.565
52.60000 135.155
52.64000 142.968
52.68000 144.517
52.72000 147.305
52.76000 139.823
52.80000 136.364
52.84000 146.725
52.88000 143.137
52.92000 143.488
52.96000 147.078
53.00000 147.233
53.04000 146.580
53.08000 155.943
53.12000 153.201
53.16000 163.948
53.20000 159.403
53.24000 156.759
53.28000 171.167
53.32000 154.068
53.36000 146.030
53.40000 160.485
53.44000 163.941
53.48000 153.877
53.52000 149.711
53.56000 153.587
53.60000 157.055
53.64000 158.791
53.68000 147.257
53.72000 153.527
53.76000 140.150
53.80000 147.527
53.84000 146.175
53.88000 144.415
53.92000 145.428
53.96000 145.025
54.00000 138.170
54.04000 149.648
54.08000 130.937
54.12000 142.354
54.16000 134.378
54.20000 137.692
54.24000 151.041
54.28000 144.608
54.32000 136.507
54.36000 150.268
54.40000 145.333
54.44000 141.520
54.48000 129.774
54.52000 147.507
54.56000 140.161
54.60000 131.892
54.64000 136.643
54.68000 143.731
54.72000 143.023
54.76000 140.859
54.80000 147.446
54.84000 147.907
54.88000 149.154
54.92000 150.102
54.96000 150.153
55.00000 156.322
55.04000 152.469
55.08000 156.485
55.12000 155.518
55.16000 151.166
55.20000 153.694
55.24000 175.165
55.28000 171.530
55.32000 183.060
55.36000 202.323
55.40000 229.170
55.44000 243.466
55.48000 295.775
55.52000 341.844
55.56000 384.868
55.60000 425.558
55.64000 502.623
55.68000 557.299
55.72000 590.165
55.76000 657.423
55.80000 677.592
55.84000 690.462
55.88000 682.958
55.92000 677.501
55.96000 627.450
56.00000 584.510
56.04000 530.802
56.08000 450.017
56.12000 401.475
56.16000 341.594
56.20000 299.395
56.24000 273.352
56.28000 254.368
56.32000 219.412
56.36000 197.097
56.40000 183.138
56.44000 173.758
56.48000 161.197
56.52000 148.398
56.56000 155.119
56.60000 153.245
56.64000 136.452
56.68000 153.165
56.72000 143.520
56.76000 131.239
56.80000 135.512
56.84000 131.112
56.88000 133.486
56.92000 146.100
56.96000 132.926
57.00000 125.108
57.04000 127.175
57.08000 132.512
57.12000 122.491
57.16000 129.952
57.20000 132.468
57.24000 129.426
57.28000 120.725
57.32000 132.786
57.36000 132.504
57.40000 138.025
57.44000 130.514
57.48000 129.244
57.52000 123.188
57.56000 130.195
57.60000 133.264
57.64000 122.806
57.68000 123.980
57.72000 126.704
57.76000 120.965
57.80000 128.871
57.84000 131.753
57.88000 124.702
57.92000 116.396
57.96000 128.628
58.00000 124.534
58.04000 118.200
58.08000 120.069
58.12000 127.717
58.16000 128.016
58.20000 121.935
58.24000 126.562
58.28000 128.721
58.32000 127.195
58.36000 118.689
58.40000 119.473
58.44000 131.501
58.48000 125.512
58.52000 128.482
58.56000 119.843
58.60000 125.511
58.64000 115.137
58.68000 125.813
58.72000 129.326
58.76000 119.077
58.80000 119.517
58.84000 118.902
58.88000 122.675
58.92000 119.705
58.96000 114.530
59.00000 121.232
59.04000 116.101
59.08000 120.464
59.12000 125.044
59.16000 109.117
59.20000 117.361
59.24000 117.705
59.28000 119.749
59.32000 125.414
59.36000 117.711
59.40000 111.312
59.44000 123.835
59.48000 117.133
59.52000 120.866
59.56000 113.303
59.60000 115.013
59.64000 121.323
59.68000 123.483
59.72000 120.605
59.76000 112.356
59.80000 117.021
59.84000 112.552
59.88000 119.921
59.92000 119.972
59.96000 124.357
60.00000 116.990
60.04000 116.315
60.08000 118.054
60.12000 111.491
60.16000 116.683
60.20000 107.483
60.24000 112.470
60.28000 113.533
60.32000 112.267
60.36000 123.254
60.40000 122.867
60.44000 113.994
60.48000 120.588
60.52000 121.830
60.56000 127.800
60.60000 122.460
60.64000 124.597
60.68000 118.336
60.72000 121.864
60.76000 116.880
60.80000 120.138
60.84000 123.919
60.88000 118.917
60.92000 113.806
60.96000 123.123
61.00000 116.604
61.04000 122.172
61.08000 121.788
61.12000 123.056
61.16000 124.545
61.20000 125.797
61.24000 124.079
61.28000 122.638
61.32000 137.857
61.36000 128.290
61.40000 129.854
61.44000 128.518
61.48000 125.828
61.52000 147.478
61.56000 187.422
61.60000 241.053
61.64000 285.790
61.68000 309.987
61.72000 316.269
61.76000 297.272
61.80000 266.948
61.84000 189.944
61.88000 138.776
61.92000 138.417
61.96000 125.767
62.00000 125.461
62.04000 132.829
62.08000 134.367
62.12000 131.291
62.16000 128.213
62.20000 128.499
62.24000 130.183
62.28000 128.028
62.32000 123.899
62.36000 132.607
62.40000 138.391
62.44000 138.218
62.48000 128.904
62.52000 124.097
62.56000 128.216
62.60000 130.087
62.64000 127.495
62.68000 128.495
62.72000 126.711
62.76000 132.626
62.80000 128.177
62.84000 129.514
62.88000 131.101
62.92000 129.174
62.96000 129.871
63.00000 130.804
63.04000 132.286
63.08000 127.525
63.12000 135.984
63.16000 131.339
63.20000 132.307
63.24000 126.335
63.28000 135.527
63.32000 129.615
63.36000 133.167
63.40000 131.429
63.44000 144.931
63.48000 138.861
63.52000 132.106
63.56000 134.177
63.60000 128.550
63.64000 142.746
63.68000 139.260
63.72000 142.575
63.76000 134.938
63.80000 138.594
63.84000 135.661
63.88000 136.381
63.92000 146.417
63.96000 136.084
64.00000 140.031
64.04000 142.340
64.08000 151.875
64.12000 150.620
64.16000 145.230
64.20000 142.298
64.24000 145.324
64.28000 150.271
64.32000 145.116
64.36000 149.599
64.40000 142.275
64.44000 155.549
64.48000 162.085
64.52000 165.472
64.56000 169.212
64.60000 161.477
64.64000 159.031
64.68000 184.012
64.72000 164.379
64.76000 169.956
64.80000 168.261
64.84000 183.312
64.88000 205.348
64.92000 194.665
64.96000 201.645
65.00000 215.431
65.04000 215.571
65.08000 228.377
65.12000 250.501
65.16000 252.839
65.20000 266.829
65.24000 269.610
65.28000 299.251
65.32000 306.626
65.36000 325.166
65.40000 342.718
65.44000 352.518
65.48000 369.711
65.52000 369.240
65.56000 396.265
65.60000 431.135
65.64000 492.994
65.68000 597.243
65.72000 875.367
65.76000 1406.880
65.80000 1908.096
65.84000 2166.958
65.88000 2232.892
65.92000 2174.140
65.96000 1837.358
66.00000 1308.597
66.04000 795.969
66.08000 553.305
66.12000 423.334
66.16000 402.994
66.20000 381.525
66.24000 390.609
66.28000 447.611
66.32000 537.219
66.36000 641.683
66.40000 675.361
66.44000 679.239
66.48000 672.745
66.52000 572.131
66.56000 468.227
66.60000 418.240
66.64000 375.045
66.68000 371.246
66.72000 358.998
66.76000 372.559
66.80000 355.938
66.84000 352.034
66.88000 356.153
66.92000 364.993
66.96000 389.958
67.00000 372.934
67.04000 380.936
67.08000 398.654
67.12000 377.688
67.16000 391.870
67.20000 417.513
67.24000 397.193
67.28000 396.804
67.32000 411.850
67.36000 417.361
67.40000 431.701
67.44000 423.716
67.48000 435.223
67.52000 439.620
67.56000 433.530
67.60000 452.114
67.64000 445.466
67.68000 476.985
67.72000 448.234
67.76000 467.826
67.80000 469.079
67.84000 477.771
67.88000 495.596
67.92000 479.792
67.96000 501.055
68.00000 507.834
68.04000 501.100
68.08000 523.733
68.12000 542.893
68.16000 530.805
68.20000 555.492
68.24000 553.600
68.28000 591.176
68.32000 576.524
68.36000 626.427
68.40000 617.016
68.44000 641.507
68.48000 692.633
68.52000 723.965
68.56000 739.676
68.60000 832.888
68.64000 978.125
68.68000 1140.108
68.72000 1328.908
68.76000 1519.131
68.80000 1697.189
68.84000 1889.195
68.88000 2365.256
68.92000 3526.491
68.96000 7935.163
69.00000 19899.820
69.04000 35163.691
69.08000 44767.215
69.12000 48793.027
69.16000 51958.559
69.20000 53019.973
69.24000 44785.684
69.28000 33273.406
69.32000 26407.061
69.36000 24132.064
69.40000 21088.871
69.44000 13934.647
69.48000 6890.499
69.52000 3000.139
69.56000 1622.060
69.60000 1218.347
69.64000 1017.969
69.68000 899.141
69.72000 793.994
69.76000 717.959
69.80000 672.595
69.84000 630.258
69.88000 594.267
69.92000 556.652
69.96000 537.921
70.00000 518.302