File: XRD/08-10-2025 Dep 7/XY Data/BTO_Mapping_Theta2Theta_08-10-2025_001_01_0-000_0-000.xy
20.00000 477.914
20.04000 477.856
20.08000 480.724
20.12000 476.710
20.16000 468.145
20.20000 466.004
20.24000 476.550
20.28000 466.237
20.32000 473.100
20.36000 474.771
20.40000 472.712
20.44000 463.812
20.48000 453.182
20.52000 444.927
20.56000 453.595
20.60000 458.869
20.64000 452.028
20.68000 464.831
20.72000 471.266
20.76000 450.218
20.80000 458.678
20.84000 459.184
20.88000 450.015
20.92000 469.944
20.96000 445.182
21.00000 452.619
21.04000 469.890
21.08000 447.970
21.12000 462.551
21.16000 448.574
21.20000 464.569
21.24000 466.303
21.28000 460.062
21.32000 464.900
21.36000 441.681
21.40000 455.116
21.44000 467.092
21.48000 459.552
21.52000 451.473
21.56000 450.076
21.60000 456.076
21.64000 472.141
21.68000 454.806
21.72000 466.194
21.76000 471.139
21.80000 496.389
21.84000 495.933
21.88000 500.740
21.92000 500.959
21.96000 547.454
22.00000 536.849
22.04000 530.803
22.08000 544.309
22.12000 535.554
22.16000 532.650
22.20000 524.056
22.24000 497.698
22.28000 503.045
22.32000 485.577
22.36000 473.546
22.40000 467.343
22.44000 471.080
22.48000 480.899
22.52000 452.250
22.56000 466.897
22.60000 442.823
22.64000 440.329
22.68000 454.811
22.72000 444.393
22.76000 439.207
22.80000 440.946
22.84000 430.203
22.88000 445.194
22.92000 428.700
22.96000 435.146
23.00000 449.827
23.04000 433.344
23.08000 431.849
23.12000 420.956
23.16000 429.539
23.20000 442.014
23.24000 440.056
23.28000 436.903
23.32000 448.523
23.36000 411.543
23.40000 425.116
23.44000 436.464
23.48000 426.575
23.52000 420.872
23.56000 432.156
23.60000 450.367
23.64000 465.737
23.68000 451.501
23.72000 451.652
23.76000 441.047
23.80000 453.891
23.84000 459.676
23.88000 468.459
23.92000 513.606
23.96000 501.674
24.00000 483.574
24.04000 490.627
24.08000 495.282
24.12000 489.698
24.16000 487.436
24.20000 477.717
24.24000 457.249
24.28000 441.052
24.32000 429.862
24.36000 422.179
24.40000 432.495
24.44000 424.103
24.48000 400.741
24.52000 436.952
24.56000 421.972
24.60000 417.235
24.64000 406.857
24.68000 438.831
24.72000 409.807
24.76000 416.841
24.80000 389.804
24.84000 401.128
24.88000 428.892
24.92000 391.207
24.96000 409.441
25.00000 375.055
25.04000 422.337
25.08000 406.639
25.12000 405.555
25.16000 409.435
25.20000 379.725
25.24000 405.643
25.28000 402.929
25.32000 399.106
25.36000 410.153
25.40000 388.938
25.44000 402.381
25.48000 400.097
25.52000 368.835
25.56000 399.622
25.60000 399.967
25.64000 386.923
25.68000 386.054
25.72000 387.071
25.76000 391.489
25.80000 398.886
25.84000 380.068
25.88000 384.426
25.92000 404.532
25.96000 403.173
26.00000 396.128
26.04000 392.325
26.08000 388.767
26.12000 379.314
26.16000 390.417
26.20000 387.648
26.24000 381.121
26.28000 370.660
26.32000 391.652
26.36000 385.577
26.40000 377.900
26.44000 383.708
26.48000 371.229
26.52000 378.814
26.56000 368.523
26.60000 385.625
26.64000 383.381
26.68000 392.344
26.72000 381.034
26.76000 390.280
26.80000 381.171
26.84000 396.062
26.88000 380.927
26.92000 391.786
26.96000 403.598
27.00000 377.383
27.04000 369.323
27.08000 374.908
27.12000 365.607
27.16000 361.276
27.20000 380.991
27.24000 374.938
27.28000 373.271
27.32000 365.086
27.36000 358.336
27.40000 378.828
27.44000 370.960
27.48000 381.663
27.52000 371.436
27.56000 382.960
27.60000 385.608
27.64000 369.181
27.68000 356.909
27.72000 379.571
27.76000 363.017
27.80000 381.924
27.84000 371.782
27.88000 376.361
27.92000 365.233
27.96000 344.433
28.00000 362.021
28.04000 368.183
28.08000 366.776
28.12000 357.349
28.16000 368.269
28.20000 370.784
28.24000 365.096
28.28000 366.010
28.32000 345.584
28.36000 363.424
28.40000 345.999
28.44000 360.149
28.48000 345.909
28.52000 365.770
28.56000 357.769
28.60000 352.729
28.64000 333.967
28.68000 352.274
28.72000 349.470
28.76000 360.334
28.80000 344.007
28.84000 342.441
28.88000 355.038
28.92000 338.802
28.96000 355.416
29.00000 360.407
29.04000 351.744
29.08000 360.945
29.12000 351.684
29.16000 354.349
29.20000 351.541
29.24000 338.413
29.28000 354.818
29.32000 350.697
29.36000 348.681
29.40000 339.740
29.44000 367.330
29.48000 352.992
29.52000 344.994
29.56000 350.229
29.60000 341.588
29.64000 335.838
29.68000 364.199
29.72000 361.755
29.76000 353.709
29.80000 355.751
29.84000 374.587
29.88000 353.221
29.92000 375.991
29.96000 361.188
30.00000 349.664
30.04000 378.344
30.08000 378.003
30.12000 366.731
30.16000 369.649
30.20000 357.668
30.24000 372.690
30.28000 380.610
30.32000 357.885
30.36000 353.505
30.40000 365.186
30.44000 366.744
30.48000 351.199
30.52000 336.350
30.56000 354.717
30.60000 372.616
30.64000 353.832
30.68000 343.925
30.72000 352.368
30.76000 366.943
30.80000 384.660
30.84000 373.565
30.88000 381.620
30.92000 388.273
30.96000 405.424
31.00000 420.066
31.04000 472.502
31.08000 508.166
31.12000 551.884
31.16000 644.225
31.20000 759.971
31.24000 838.837
31.28000 962.481
31.32000 1035.571
31.36000 1083.971
31.40000 1103.312
31.44000 1040.462
31.48000 970.625
31.52000 858.501
31.56000 741.132
31.60000 636.886
31.64000 553.266
31.68000 492.332
31.72000 447.854
31.76000 415.389
31.80000 400.770
31.84000 365.189
31.88000 355.458
31.92000 365.866
31.96000 351.827
32.00000 347.795
32.04000 339.153
32.08000 349.793
32.12000 347.613
32.16000 345.894
32.20000 318.703
32.24000 333.059
32.28000 340.334
32.32000 333.437
32.36000 332.665
32.40000 334.016
32.44000 328.410
32.48000 326.590
32.52000 305.272
32.56000 314.258
32.60000 308.369
32.64000 328.170
32.68000 303.255
32.72000 300.078
32.76000 308.544
32.80000 322.930
32.84000 326.669
32.88000 309.581
32.92000 320.343
32.96000 318.264
33.00000 317.394
33.04000 321.942
33.08000 292.209
33.12000 306.380
33.16000 303.051
33.20000 310.673
33.24000 302.132
33.28000 300.594
33.32000 308.267
33.36000 311.332
33.40000 308.745
33.44000 296.667
33.48000 313.029
33.52000 295.093
33.56000 304.073
33.60000 305.302
33.64000 308.249
33.68000 313.865
33.72000 289.619
33.76000 298.077
33.80000 297.893
33.84000 309.107
33.88000 306.488
33.92000 314.939
33.96000 319.724
34.00000 310.266
34.04000 313.116
34.08000 319.129
34.12000 307.678
34.16000 342.454
34.20000 330.461
34.24000 334.245
34.28000 335.174
34.32000 355.505
34.36000 343.572
34.40000 337.036
34.44000 350.110
34.48000 364.218
34.52000 335.358
34.56000 323.333
34.60000 333.042
34.64000 319.740
34.68000 303.968
34.72000 295.168
34.76000 286.799
34.80000 304.578
34.84000 303.320
34.88000 301.176
34.92000 276.947
34.96000 264.816
35.00000 286.812
35.04000 286.165
35.08000 275.288
35.12000 270.183
35.16000 276.762
35.20000 271.218
35.24000 266.319
35.28000 265.504
35.32000 267.059
35.36000 267.572
35.40000 258.166
35.44000 263.159
35.48000 280.234
35.52000 263.881
35.56000 253.601
35.60000 246.833
35.64000 262.065
35.68000 273.656
35.72000 246.380
35.76000 257.470
35.80000 273.422
35.84000 270.675
35.88000 270.466
35.92000 270.480
35.96000 262.978
36.00000 264.439
36.04000 258.184
36.08000 247.930
36.12000 260.957
36.16000 260.177
36.20000 249.797
36.24000 260.533
36.28000 259.343
36.32000 256.500
36.36000 261.087
36.40000 268.444
36.44000 261.860
36.48000 259.117
36.52000 269.131
36.56000 265.345
36.60000 257.242
36.64000 266.836
36.68000 252.838
36.72000 257.669
36.76000 263.893
36.80000 256.182
36.84000 258.752
36.88000 277.724
36.92000 290.889
36.96000 302.092
37.00000 293.107
37.04000 280.592
37.08000 279.631
37.12000 269.886
37.16000 262.889
37.20000 271.311
37.24000 277.307
37.28000 263.352
37.32000 257.319
37.36000 255.750
37.40000 262.697
37.44000 247.617
37.48000 263.479
37.52000 252.870
37.56000 262.503
37.60000 258.421
37.64000 240.190
37.68000 235.691
37.72000 249.664
37.76000 261.550
37.80000 256.384
37.84000 244.760
37.88000 254.366
37.92000 249.230
37.96000 265.129
38.00000 264.855
38.04000 252.678
38.08000 275.669
38.12000 252.411
38.16000 271.071
38.20000 262.438
38.24000 277.647
38.28000 280.354
38.32000 317.080
38.36000 354.447
38.40000 397.218
38.44000 456.889
38.48000 565.325
38.52000 666.411
38.56000 816.616
38.60000 947.505
38.64000 1074.170
38.68000 1158.418
38.72000 1182.677
38.76000 1130.378
38.80000 1053.608
38.84000 960.254
38.88000 783.555
38.92000 649.443
38.96000 524.606
39.00000 399.751
39.04000 325.092
39.08000 296.041
39.12000 280.774
39.16000 261.371
39.20000 248.989
39.24000 242.816
39.28000 242.698
39.32000 226.330
39.36000 228.536
39.40000 239.265
39.44000 226.708
39.48000 232.070
39.52000 243.206
39.56000 226.739
39.60000 233.913
39.64000 245.082
39.68000 231.282
39.72000 216.944
39.76000 229.071
39.80000 228.811
39.84000 241.075
39.88000 224.730
39.92000 227.094
39.96000 222.238
40.00000 220.899
40.04000 233.669
40.08000 225.347
40.12000 229.481
40.16000 229.505
40.20000 226.270
40.24000 225.967
40.28000 227.441
40.32000 219.572
40.36000 227.578
40.40000 210.780
40.44000 218.976
40.48000 227.136
40.52000 214.998
40.56000 221.190
40.60000 211.161
40.64000 216.928
40.68000 209.263
40.72000 219.544
40.76000 208.486
40.80000 201.987
40.84000 213.127
40.88000 206.506
40.92000 209.318
40.96000 201.816
41.00000 219.158
41.04000 211.703
41.08000 209.973
41.12000 213.796
41.16000 211.374
41.20000 200.440
41.24000 209.524
41.28000 215.715
41.32000 205.527
41.36000 208.884
41.40000 219.401
41.44000 196.342
41.48000 214.274
41.52000 208.342
41.56000 208.224
41.60000 205.957
41.64000 212.281
41.68000 200.871
41.72000 209.086
41.76000 207.667
41.80000 201.052
41.84000 216.027
41.88000 216.670
41.92000 209.617
41.96000 210.587
42.00000 227.718
42.04000 207.676
42.08000 215.081
42.12000 214.122
42.16000 199.179
42.20000 214.028
42.24000 214.873
42.28000 215.206
42.32000 209.892
42.36000 201.014
42.40000 204.063
42.44000 221.400
42.48000 205.813
42.52000 196.855
42.56000 205.605
42.60000 197.852
42.64000 202.892
42.68000 203.468
42.72000 216.864
42.76000 222.038
42.80000 212.755
42.84000 207.768
42.88000 201.889
42.92000 204.153
42.96000 198.063
43.00000 195.723
43.04000 195.998
43.08000 207.799
43.12000 206.906
43.16000 198.227
43.20000 199.134
43.24000 187.359
43.28000 196.110
43.32000 194.057
43.36000 192.799
43.40000 202.870
43.44000 200.905
43.48000 193.886
43.52000 194.463
43.56000 195.797
43.60000 187.895
43.64000 186.497
43.68000 197.984
43.72000 182.673
43.76000 189.533
43.80000 189.174
43.84000 188.748
43.88000 183.019
43.92000 204.781
43.96000 196.442
44.00000 185.061
44.04000 197.620
44.08000 192.989
44.12000 193.465
44.16000 191.851
44.20000 195.255
44.24000 196.427
44.28000 199.356
44.32000 187.670
44.36000 205.076
44.40000 198.665
44.44000 199.052
44.48000 210.165
44.52000 215.188
44.56000 204.895
44.60000 215.350
44.64000 220.023
44.68000 221.028
44.72000 219.181
44.76000 217.037
44.80000 231.496
44.84000 234.099
44.88000 250.375
44.92000 254.552
44.96000 247.541
45.00000 267.327
45.04000 262.024
45.08000 264.736
45.12000 258.374
45.16000 265.266
45.20000 257.643
45.24000 241.640
45.28000 239.536
45.32000 233.152
45.36000 236.323
45.40000 222.657
45.44000 222.281
45.48000 213.449
45.52000 214.280
45.56000 209.568
45.60000 201.410
45.64000 202.783
45.68000 204.594
45.72000 204.128
45.76000 209.704
45.80000 193.894
45.84000 192.687
45.88000 184.646
45.92000 184.813
45.96000 182.705
46.00000 198.642
46.04000 171.099
46.08000 180.052
46.12000 178.246
46.16000 172.940
46.20000 168.295
46.24000 179.802
46.28000 176.885
46.32000 169.600
46.36000 184.465
46.40000 177.371
46.44000 176.657
46.48000 174.112
46.52000 177.222
46.56000 168.843
46.60000 170.438
46.64000 179.679
46.68000 166.711
46.72000 172.974
46.76000 172.167
46.80000 171.003
46.84000 169.690
46.88000 173.864
46.92000 169.272
46.96000 166.394
47.00000 160.239
47.04000 176.839
47.08000 161.781
47.12000 160.400
47.16000 177.545
47.20000 177.948
47.24000 159.454
47.28000 166.420
47.32000 163.909
47.36000 166.304
47.40000 160.113
47.44000 176.720
47.48000 162.606
47.52000 160.098
47.56000 174.433
47.60000 163.011
47.64000 162.725
47.68000 163.624
47.72000 174.554
47.76000 168.162
47.80000 167.831
47.84000 152.713
47.88000 166.222
47.92000 157.236
47.96000 169.253
48.00000 151.314
48.04000 159.553
48.08000 157.156
48.12000 159.446
48.16000 154.328
48.20000 159.587
48.24000 160.585
48.28000 163.371
48.32000 158.704
48.36000 154.583
48.40000 171.757
48.44000 156.143
48.48000 159.746
48.52000 154.027
48.56000 154.949
48.60000 141.716
48.64000 157.037
48.68000 161.940
48.72000 147.630
48.76000 160.048
48.80000 160.020
48.84000 156.519
48.88000 146.280
48.92000 152.600
48.96000 156.086
49.00000 164.522
49.04000 158.479
49.08000 168.572
49.12000 163.268
49.16000 157.810
49.20000 164.510
49.24000 152.049
49.28000 151.501
49.32000 149.415
49.36000 154.364
49.40000 155.606
49.44000 156.295
49.48000 149.222
49.52000 144.987
49.56000 156.955
49.60000 148.478
49.64000 166.334
49.68000 142.362
49.72000 149.431
49.76000 156.798
49.80000 156.358
49.84000 145.812
49.88000 154.436
49.92000 145.076
49.96000 147.091
50.00000 148.851
50.04000 158.500
50.08000 149.569
50.12000 156.035
50.16000 168.352
50.20000 156.097
50.24000 143.956
50.28000 162.766
50.32000 159.995
50.36000 145.748
50.40000 156.758
50.44000 168.459
50.48000 166.756
50.52000 166.364
50.56000 165.757
50.60000 162.402
50.64000 163.646
50.68000 160.937
50.72000 165.145
50.76000 163.990
50.80000 166.893
50.84000 142.937
50.88000 160.996
50.92000 149.860
50.96000 166.141
51.00000 160.326
51.04000 156.310
51.08000 162.907
51.12000 161.801
51.16000 147.422
51.20000 140.625
51.24000 151.989
51.28000 160.040
51.32000 148.099
51.36000 153.446
51.40000 151.378
51.44000 148.035
51.48000 155.135
51.52000 143.065
51.56000 143.795
51.60000 142.365
51.64000 144.062
51.68000 145.276
51.72000 148.928
51.76000 144.226
51.80000 132.640
51.84000 138.819
51.88000 133.936
51.92000 158.064
51.96000 144.924
52.00000 140.983
52.04000 145.371
52.08000 144.187
52.12000 131.758
52.16000 133.848
52.20000 135.858
52.24000 132.794
52.28000 143.380
52.32000 126.591
52.36000 143.327
52.40000 141.402
52.44000 145.910
52.48000 143.464
52.52000 131.838
52.56000 136.483
52.60000 144.186
52.64000 137.938
52.68000 142.428
52.72000 142.558
52.76000 145.981
52.80000 142.074
52.84000 139.491
52.88000 140.675
52.92000 141.864
52.96000 149.812
53.00000 132.893
53.04000 144.265
53.08000 146.839
53.12000 151.410
53.16000 144.880
53.20000 156.377
53.24000 157.985
53.28000 151.680
53.32000 158.630
53.36000 152.385
53.40000 152.067
53.44000 158.237
53.48000 151.604
53.52000 153.660
53.56000 153.098
53.60000 156.045
53.64000 157.640
53.68000 150.768
53.72000 150.947
53.76000 135.819
53.80000 147.353
53.84000 147.006
53.88000 156.864
53.92000 142.879
53.96000 145.462
54.00000 142.113
54.04000 136.735
54.08000 140.429
54.12000 140.890
54.16000 147.435
54.20000 147.695
54.24000 135.525
54.28000 146.085
54.32000 135.378
54.36000 138.640
54.40000 134.268
54.44000 138.940
54.48000 132.977
54.52000 141.972
54.56000 143.722
54.60000 140.670
54.64000 147.696
54.68000 151.550
54.72000 132.692
54.76000 150.685
54.80000 135.843
54.84000 153.070
54.88000 155.156
54.92000 142.904
54.96000 145.699
55.00000 147.237
55.04000 144.453
55.08000 142.862
55.12000 161.843
55.16000 160.031
55.20000 164.781
55.24000 159.088
55.28000 157.008
55.32000 153.112
55.36000 170.078
55.40000 180.420
55.44000 182.373
55.48000 199.177
55.52000 237.475
55.56000 274.475
55.60000 292.884
55.64000 336.030
55.68000 397.079
55.72000 441.600
55.76000 510.794
55.80000 570.241
55.84000 635.727
55.88000 686.106
55.92000 701.551
55.96000 672.111
56.00000 668.851
56.04000 609.433
56.08000 570.996
56.12000 505.184
56.16000 433.828
56.20000 381.533
56.24000 327.977
56.28000 284.558
56.32000 247.706
56.36000 212.004
56.40000 191.032
56.44000 181.228
56.48000 152.592
56.52000 165.381
56.56000 158.884
56.60000 147.098
56.64000 147.658
56.68000 138.269
56.72000 134.182
56.76000 137.529
56.80000 132.674
56.84000 140.544
56.88000 142.657
56.92000 137.425
56.96000 144.352
57.00000 131.997
57.04000 130.894
57.08000 137.684
57.12000 129.057
57.16000 125.003
57.20000 128.787
57.24000 132.336
57.28000 122.946
57.32000 136.353
57.36000 136.072
57.40000 122.827
57.44000 127.609
57.48000 125.905
57.52000 133.080
57.56000 123.488
57.60000 120.165
57.64000 126.483
57.68000 134.801
57.72000 125.565
57.76000 120.186
57.80000 126.318
57.84000 115.378
57.88000 128.847
57.92000 125.520
57.96000 131.971
58.00000 119.911
58.04000 117.995
58.08000 126.986
58.12000 122.080
58.16000 131.332
58.20000 130.608
58.24000 122.947
58.28000 122.361
58.32000 127.052
58.36000 119.459
58.40000 124.115
58.44000 115.484
58.48000 122.325
58.52000 120.461
58.56000 125.703
58.60000 120.727
58.64000 112.604
58.68000 118.942
58.72000 119.501
58.76000 128.147
58.80000 128.770
58.84000 114.838
58.88000 121.302
58.92000 117.994
58.96000 116.814
59.00000 128.594
59.04000 122.821
59.08000 112.319
59.12000 116.623
59.16000 115.970
59.20000 118.707
59.24000 124.168
59.28000 116.017
59.32000 116.970
59.36000 121.658
59.40000 115.162
59.44000 115.522
59.48000 110.969
59.52000 118.164
59.56000 115.887
59.60000 126.558
59.64000 119.478
59.68000 114.332
59.72000 124.565
59.76000 112.844
59.80000 120.318
59.84000 116.305
59.88000 114.381
59.92000 122.053
59.96000 107.560
60.00000 113.143
60.04000 111.954
60.08000 115.442
60.12000 118.330
60.16000 112.052
60.20000 113.248
60.24000 109.530
60.28000 114.261
60.32000 133.190
60.36000 103.789
60.40000 120.411
60.44000 117.378
60.48000 115.567
60.52000 111.004
60.56000 127.311
60.60000 125.911
60.64000 112.800
60.68000 113.168
60.72000 119.389
60.76000 116.950
60.80000 122.046
60.84000 115.459
60.88000 122.253
60.92000 116.640
60.96000 117.169
61.00000 118.479
61.04000 121.702
61.08000 125.067
61.12000 128.670
61.16000 115.435
61.20000 117.246
61.24000 126.248
61.28000 130.254
61.32000 122.111
61.36000 134.765
61.40000 126.491
61.44000 115.189
61.48000 131.108
61.52000 157.968
61.56000 193.763
61.60000 250.419
61.64000 279.789
61.68000 287.799
61.72000 289.829
61.76000 277.670
61.80000 218.761
61.84000 173.221
61.88000 143.502
61.92000 133.653
61.96000 133.258
62.00000 139.848
62.04000 126.473
62.08000 120.062
62.12000 134.052
62.16000 127.515
62.20000 129.098
62.24000 126.032
62.28000 123.866
62.32000 119.700
62.36000 124.603
62.40000 126.150
62.44000 125.634
62.48000 127.073
62.52000 130.626
62.56000 131.704
62.60000 140.697
62.64000 128.356
62.68000 131.265
62.72000 123.355
62.76000 127.951
62.80000 128.702
62.84000 125.715
62.88000 125.862
62.92000 128.129
62.96000 131.838
63.00000 118.536
63.04000 133.907
63.08000 123.879
63.12000 126.776
63.16000 128.325
63.20000 132.939
63.24000 133.466
63.28000 135.482
63.32000 130.009
63.36000 121.504
63.40000 129.828
63.44000 138.121
63.48000 133.087
63.52000 137.623
63.56000 142.370
63.60000 142.185
63.64000 136.925
63.68000 147.081
63.72000 131.770
63.76000 127.295
63.80000 137.354
63.84000 138.078
63.88000 144.233
63.92000 148.379
63.96000 138.281
64.00000 142.363
64.04000 143.444
64.08000 144.443
64.12000 148.351
64.16000 156.769
64.20000 140.622
64.24000 149.365
64.28000 147.684
64.32000 153.603
64.36000 145.259
64.40000 146.731
64.44000 157.084
64.48000 152.545
64.52000 150.041
64.56000 147.812
64.60000 154.763
64.64000 158.960
64.68000 166.054
64.72000 166.165
64.76000 162.759
64.80000 165.022
64.84000 166.752
64.88000 163.471
64.92000 179.458
64.96000 185.279
65.00000 183.831
65.04000 192.222
65.08000 200.273
65.12000 208.714
65.16000 202.342
65.20000 213.375
65.24000 226.375
65.28000 222.926
65.32000 214.638
65.36000 241.090
65.40000 247.751
65.44000 250.339
65.48000 268.641
65.52000 284.293
65.56000 312.300
65.60000 354.788
65.64000 391.126
65.68000 549.078
65.72000 835.848
65.76000 1281.474
65.80000 1652.895
65.84000 1854.037
65.88000 1891.069
65.92000 1797.433
65.96000 1504.399
66.00000 1016.122
66.04000 637.821
66.08000 469.528
66.12000 394.381
66.16000 375.207
66.20000 365.412
66.24000 377.008
66.28000 433.662
66.32000 519.472
66.36000 571.168
66.40000 602.689
66.44000 602.402
66.48000 579.814
66.52000 506.780
66.56000 445.932
66.60000 368.835
66.64000 344.345
66.68000 348.309
66.72000 330.548
66.76000 330.079
66.80000 335.334
66.84000 338.409
66.88000 342.456
66.92000 349.628
66.96000 365.096
67.00000 363.444
67.04000 373.235
67.08000 370.622
67.12000 358.940
67.16000 349.845
67.20000 365.182
67.24000 394.127
67.28000 380.107
67.32000 395.043
67.36000 395.698
67.40000 390.537
67.44000 406.927
67.48000 403.205
67.52000 406.544
67.56000 416.731
67.60000 433.099
67.64000 441.521
67.68000 438.523
67.72000 431.144
67.76000 429.586
67.80000 450.998
67.84000 470.761
67.88000 472.112
67.92000 459.281
67.96000 465.327
68.00000 462.706
68.04000 489.139
68.08000 499.919
68.12000 517.237
68.16000 513.102
68.20000 537.996
68.24000 536.739
68.28000 547.137
68.32000 565.767
68.36000 575.981
68.40000 602.459
68.44000 629.754
68.48000 645.046
68.52000 717.418
68.56000 723.856
68.60000 797.083
68.64000 925.014
68.68000 1083.173
68.72000 1258.814
68.76000 1423.979
68.80000 1569.377
68.84000 1793.724
68.88000 2188.427
68.92000 3430.665
68.96000 8248.289
69.00000 19993.969
69.04000 32824.156
69.08000 39788.781
69.12000 42479.605
69.16000 45323.215
69.20000 45036.238
69.24000 36498.066
69.28000 26953.199
69.32000 22131.199
69.36000 20640.375
69.40000 17325.830
69.44000 10744.424
69.48000 4877.620
69.52000 2234.624
69.56000 1349.333
69.60000 1038.734
69.64000 909.268
69.68000 814.188
69.72000 713.119
69.76000 663.897
69.80000 621.950
69.84000 602.776
69.88000 559.544
69.92000 519.430
69.96000 516.816
70.00000 493.063