File: XRD/08-10-2025 Dep 7/XY Data/BTO_Mapping_Theta2Theta_08-10-2025_001_13_26-765_29-726.xy
20.00000 456.042
20.04000 494.079
20.08000 467.057
20.12000 468.291
20.16000 470.448
20.20000 478.907
20.24000 488.833
20.28000 479.456
20.32000 473.782
20.36000 473.061
20.40000 488.610
20.44000 494.808
20.48000 466.197
20.52000 468.530
20.56000 472.405
20.60000 494.706
20.64000 471.102
20.68000 464.923
20.72000 480.137
20.76000 477.155
20.80000 473.158
20.84000 454.995
20.88000 457.123
20.92000 464.468
20.96000 473.127
21.00000 473.898
21.04000 490.025
21.08000 471.363
21.12000 470.892
21.16000 477.718
21.20000 460.960
21.24000 475.738
21.28000 471.922
21.32000 480.586
21.36000 471.721
21.40000 475.565
21.44000 481.409
21.48000 485.334
21.52000 459.425
21.56000 482.806
21.60000 488.270
21.64000 479.614
21.68000 480.280
21.72000 466.515
21.76000 474.826
21.80000 487.527
21.84000 463.570
21.88000 490.330
21.92000 492.389
21.96000 484.990
22.00000 488.465
22.04000 505.319
22.08000 491.809
22.12000 486.601
22.16000 484.993
22.20000 487.627
22.24000 479.199
22.28000 484.197
22.32000 483.475
22.36000 483.122
22.40000 479.270
22.44000 447.374
22.48000 444.603
22.52000 461.386
22.56000 456.327
22.60000 465.279
22.64000 450.444
22.68000 451.136
22.72000 455.915
22.76000 435.811
22.80000 437.979
22.84000 441.200
22.88000 458.013
22.92000 443.065
22.96000 446.449
23.00000 463.626
23.04000 453.537
23.08000 434.158
23.12000 450.789
23.16000 439.964
23.20000 420.940
23.24000 434.372
23.28000 434.533
23.32000 462.283
23.36000 453.659
23.40000 458.271
23.44000 435.567
23.48000 436.781
23.52000 429.464
23.56000 452.546
23.60000 458.449
23.64000 450.740
23.68000 472.948
23.72000 486.476
23.76000 472.834
23.80000 505.856
23.84000 509.794
23.88000 508.104
23.92000 514.821
23.96000 557.872
24.00000 518.609
24.04000 524.785
24.08000 513.771
24.12000 497.566
24.16000 502.594
24.20000 474.834
24.24000 450.851
24.28000 443.208
24.32000 449.443
24.36000 454.766
24.40000 430.083
24.44000 413.496
24.48000 442.222
24.52000 430.962
24.56000 415.706
24.60000 408.107
24.64000 404.660
24.68000 401.148
24.72000 422.624
24.76000 417.695
24.80000 413.302
24.84000 417.903
24.88000 423.065
24.92000 409.660
24.96000 414.877
25.00000 420.512
25.04000 421.972
25.08000 405.880
25.12000 415.520
25.16000 421.319
25.20000 407.149
25.24000 413.308
25.28000 387.235
25.32000 409.536
25.36000 412.588
25.40000 385.405
25.44000 409.377
25.48000 408.033
25.52000 372.195
25.56000 398.932
25.60000 391.441
25.64000 417.424
25.68000 424.526
25.72000 389.809
25.76000 388.062
25.80000 396.766
25.84000 395.597
25.88000 419.524
25.92000 387.749
25.96000 388.590
26.00000 410.865
26.04000 401.851
26.08000 407.758
26.12000 403.494
26.16000 388.200
26.20000 399.594
26.24000 378.239
26.28000 400.507
26.32000 390.887
26.36000 389.068
26.40000 412.224
26.44000 385.576
26.48000 376.498
26.52000 385.163
26.56000 380.840
26.60000 391.291
26.64000 383.856
26.68000 405.774
26.72000 386.699
26.76000 367.822
26.80000 377.823
26.84000 386.711
26.88000 371.256
26.92000 387.625
26.96000 374.129
27.00000 379.890
27.04000 386.306
27.08000 389.872
27.12000 372.565
27.16000 367.572
27.20000 367.333
27.24000 375.056
27.28000 371.321
27.32000 384.478
27.36000 390.433
27.40000 392.536
27.44000 383.393
27.48000 388.344
27.52000 389.111
27.56000 384.251
27.60000 396.237
27.64000 387.348
27.68000 390.613
27.72000 387.466
27.76000 377.499
27.80000 363.794
27.84000 362.038
27.88000 359.184
27.92000 370.774
27.96000 375.026
28.00000 392.466
28.04000 367.246
28.08000 365.466
28.12000 385.923
28.16000 375.143
28.20000 367.946
28.24000 368.511
28.28000 381.950
28.32000 388.014
28.36000 371.561
28.40000 364.163
28.44000 357.233
28.48000 366.832
28.52000 359.623
28.56000 372.113
28.60000 369.646
28.64000 355.354
28.68000 374.504
28.72000 364.548
28.76000 382.542
28.80000 386.207
28.84000 374.481
28.88000 364.303
28.92000 385.419
28.96000 351.156
29.00000 345.493
29.04000 360.294
29.08000 375.148
29.12000 353.861
29.16000 361.732
29.20000 377.982
29.24000 368.385
29.28000 370.410
29.32000 348.588
29.36000 383.699
29.40000 354.569
29.44000 358.661
29.48000 362.486
29.52000 364.198
29.56000 355.246
29.60000 371.952
29.64000 377.482
29.68000 345.180
29.72000 369.604
29.76000 379.182
29.80000 373.298
29.84000 376.407
29.88000 383.767
29.92000 378.548
29.96000 359.860
30.00000 395.777
30.04000 374.897
30.08000 381.186
30.12000 380.342
30.16000 397.328
30.20000 387.891
30.24000 361.798
30.28000 373.633
30.32000 371.889
30.36000 385.605
30.40000 361.433
30.44000 365.175
30.48000 379.488
30.52000 376.374
30.56000 380.747
30.60000 388.662
30.64000 385.725
30.68000 383.106
30.72000 398.353
30.76000 384.655
30.80000 392.974
30.84000 402.831
30.88000 417.510
30.92000 450.714
30.96000 451.331
31.00000 481.044
31.04000 490.452
31.08000 552.785
31.12000 613.899
31.16000 675.502
31.20000 758.011
31.24000 862.040
31.28000 913.048
31.32000 987.620
31.36000 999.433
31.40000 1010.917
31.44000 971.507
31.48000 924.625
31.52000 815.336
31.56000 725.592
31.60000 659.985
31.64000 578.139
31.68000 506.251
31.72000 463.160
31.76000 467.505
31.80000 422.142
31.84000 411.029
31.88000 396.010
31.92000 387.013
31.96000 387.482
32.00000 379.754
32.04000 379.088
32.08000 370.995
32.12000 376.049
32.16000 365.849
32.20000 356.244
32.24000 357.133
32.28000 336.512
32.32000 343.990
32.36000 342.115
32.40000 339.163
32.44000 341.979
32.48000 329.972
32.52000 327.597
32.56000 334.165
32.60000 334.964
32.64000 346.943
32.68000 328.030
32.72000 318.691
32.76000 321.220
32.80000 325.356
32.84000 318.251
32.88000 322.313
32.92000 316.583
32.96000 327.449
33.00000 323.034
33.04000 321.483
33.08000 320.122
33.12000 320.728
33.16000 297.960
33.20000 306.616
33.24000 304.042
33.28000 291.883
33.32000 318.742
33.36000 298.184
33.40000 312.028
33.44000 291.891
33.48000 302.640
33.52000 289.875
33.56000 293.744
33.60000 296.137
33.64000 296.296
33.68000 310.984
33.72000 299.724
33.76000 290.354
33.80000 290.737
33.84000 292.822
33.88000 303.831
33.92000 314.418
33.96000 314.020
34.00000 312.388
34.04000 312.783
34.08000 325.786
34.12000 333.682
34.16000 326.487
34.20000 333.621
34.24000 324.609
34.28000 333.417
34.32000 328.296
34.36000 332.610
34.40000 321.038
34.44000 332.784
34.48000 312.954
34.52000 312.332
34.56000 298.907
34.60000 310.761
34.64000 305.533
34.68000 318.023
34.72000 295.434
34.76000 305.515
34.80000 291.534
34.84000 293.459
34.88000 280.474
34.92000 291.062
34.96000 260.054
35.00000 277.320
35.04000 272.398
35.08000 261.362
35.12000 267.180
35.16000 266.121
35.20000 279.119
35.24000 269.318
35.28000 269.202
35.32000 270.498
35.36000 271.419
35.40000 271.017
35.44000 276.446
35.48000 283.505
35.52000 260.819
35.56000 257.287
35.60000 279.881
35.64000 263.304
35.68000 260.638
35.72000 265.787
35.76000 262.344
35.80000 261.228
35.84000 254.551
35.88000 259.746
35.92000 264.949
35.96000 264.562
36.00000 262.004
36.04000 271.100
36.08000 264.545
36.12000 264.737
36.16000 257.108
36.20000 264.350
36.24000 264.950
36.28000 265.309
36.32000 265.726
36.36000 256.784
36.40000 239.842
36.44000 258.652
36.48000 256.634
36.52000 257.943
36.56000 251.895
36.60000 243.431
36.64000 245.691
36.68000 256.203
36.72000 247.004
36.76000 271.733
36.80000 266.298
36.84000 247.287
36.88000 263.526
36.92000 268.657
36.96000 268.727
37.00000 279.862
37.04000 260.979
37.08000 269.310
37.12000 259.596
37.16000 253.973
37.20000 258.199
37.24000 259.500
37.28000 249.417
37.32000 265.587
37.36000 254.391
37.40000 252.217
37.44000 241.158
37.48000 245.328
37.52000 259.694
37.56000 243.970
37.60000 262.363
37.64000 262.216
37.68000 253.370
37.72000 230.981
37.76000 251.013
37.80000 250.860
37.84000 252.100
37.88000 253.224
37.92000 258.077
37.96000 256.214
38.00000 261.436
38.04000 262.106
38.08000 255.625
38.12000 253.816
38.16000 264.544
38.20000 269.028
38.24000 277.756
38.28000 267.292
38.32000 279.088
38.36000 299.657
38.40000 304.810
38.44000 336.190
38.48000 379.993
38.52000 424.318
38.56000 454.437
38.60000 508.938
38.64000 554.913
38.68000 559.960
38.72000 580.003
38.76000 543.549
38.80000 503.116
38.84000 446.092
38.88000 402.144
38.92000 360.801
38.96000 316.286
39.00000 292.055
39.04000 272.672
39.08000 274.158
39.12000 249.514
39.16000 244.592
39.20000 257.426
39.24000 243.757
39.28000 233.449
39.32000 222.465
39.36000 252.972
39.40000 245.459
39.44000 250.729
39.48000 236.377
39.52000 233.682
39.56000 248.792
39.60000 240.901
39.64000 236.266
39.68000 237.445
39.72000 234.046
39.76000 244.094
39.80000 231.714
39.84000 239.608
39.88000 242.551
39.92000 228.678
39.96000 244.796
40.00000 227.760
40.04000 228.528
40.08000 232.457
40.12000 239.270
40.16000 228.316
40.20000 228.269
40.24000 227.763
40.28000 230.884
40.32000 220.440
40.36000 214.002
40.40000 225.796
40.44000 213.199
40.48000 218.353
40.52000 218.632
40.56000 231.792
40.60000 213.960
40.64000 225.076
40.68000 228.744
40.72000 208.829
40.76000 216.293
40.80000 224.335
40.84000 216.786
40.88000 224.505
40.92000 206.946
40.96000 223.703
41.00000 220.864
41.04000 212.020
41.08000 205.588
41.12000 226.720
41.16000 224.964
41.20000 214.752
41.24000 214.044
41.28000 216.785
41.32000 217.834
41.36000 216.457
41.40000 230.713
41.44000 212.006
41.48000 193.130
41.52000 223.526
41.56000 198.524
41.60000 210.234
41.64000 224.594
41.68000 213.476
41.72000 215.142
41.76000 210.812
41.80000 214.881
41.84000 203.255
41.88000 205.063
41.92000 218.015
41.96000 214.740
42.00000 212.207
42.04000 209.302
42.08000 218.778
42.12000 215.069
42.16000 226.311
42.20000 224.180
42.24000 210.120
42.28000 210.614
42.32000 218.693
42.36000 219.733
42.40000 216.282
42.44000 210.038
42.48000 217.414
42.52000 218.473
42.56000 216.603
42.60000 220.640
42.64000 206.939
42.68000 220.366
42.72000 217.930
42.76000 212.334
42.80000 202.065
42.84000 199.973
42.88000 216.135
42.92000 210.032
42.96000 199.401
43.00000 198.141
43.04000 200.554
43.08000 211.123
43.12000 204.261
43.16000 213.289
43.20000 207.832
43.24000 199.792
43.28000 188.252
43.32000 191.448
43.36000 172.238
43.40000 199.971
43.44000 203.660
43.48000 191.771
43.52000 192.360
43.56000 192.579
43.60000 199.699
43.64000 196.663
43.68000 201.679
43.72000 192.293
43.76000 188.865
43.80000 201.436
43.84000 192.091
43.88000 203.427
43.92000 200.584
43.96000 201.264
44.00000 203.374
44.04000 197.181
44.08000 184.434
44.12000 182.342
44.16000 206.127
44.20000 191.534
44.24000 200.882
44.28000 197.339
44.32000 202.195
44.36000 205.183
44.40000 191.361
44.44000 211.952
44.48000 215.507
44.52000 207.668
44.56000 207.881
44.60000 212.236
44.64000 215.249
44.68000 220.043
44.72000 219.710
44.76000 219.443
44.80000 211.109
44.84000 223.882
44.88000 219.522
44.92000 222.563
44.96000 225.605
45.00000 231.630
45.04000 224.322
45.08000 229.072
45.12000 222.962
45.16000 226.477
45.20000 222.813
45.24000 214.783
45.28000 207.698
45.32000 211.950
45.36000 208.620
45.40000 203.042
45.44000 205.704
45.48000 204.750
45.52000 193.229
45.56000 203.499
45.60000 192.896
45.64000 178.993
45.68000 188.798
45.72000 190.045
45.76000 200.050
45.80000 177.636
45.84000 188.947
45.88000 190.010
45.92000 178.401
45.96000 173.781
46.00000 178.955
46.04000 182.818
46.08000 178.895
46.12000 177.915
46.16000 173.103
46.20000 169.445
46.24000 181.204
46.28000 175.952
46.32000 166.554
46.36000 168.605
46.40000 188.334
46.44000 177.748
46.48000 176.708
46.52000 180.737
46.56000 169.185
46.60000 169.076
46.64000 182.759
46.68000 174.447
46.72000 180.143
46.76000 174.151
46.80000 173.693
46.84000 174.494
46.88000 183.998
46.92000 178.836
46.96000 171.555
47.00000 169.741
47.04000 172.422
47.08000 157.402
47.12000 161.367
47.16000 168.882
47.20000 166.850
47.24000 155.073
47.28000 160.281
47.32000 168.713
47.36000 169.543
47.40000 159.637
47.44000 160.004
47.48000 167.032
47.52000 172.797
47.56000 167.081
47.60000 149.551
47.64000 159.522
47.68000 165.000
47.72000 161.789
47.76000 162.478
47.80000 159.968
47.84000 164.213
47.88000 155.142
47.92000 156.877
47.96000 160.101
48.00000 164.453
48.04000 162.921
48.08000 155.799
48.12000 158.024
48.16000 159.393
48.20000 166.259
48.24000 167.317
48.28000 170.312
48.32000 160.898
48.36000 162.946
48.40000 160.411
48.44000 160.535
48.48000 161.786
48.52000 157.780
48.56000 165.742
48.60000 151.533
48.64000 152.612
48.68000 170.067
48.72000 161.649
48.76000 148.352
48.80000 160.116
48.84000 158.109
48.88000 151.822
48.92000 163.755
48.96000 155.811
49.00000 168.854
49.04000 159.127
49.08000 156.734
49.12000 154.042
49.16000 160.168
49.20000 159.957
49.24000 160.844
49.28000 146.614
49.32000 152.765
49.36000 150.967
49.40000 157.542
49.44000 154.861
49.48000 161.702
49.52000 144.065
49.56000 147.910
49.60000 149.495
49.64000 158.094
49.68000 158.521
49.72000 157.435
49.76000 150.615
49.80000 162.726
49.84000 151.669
49.88000 156.598
49.92000 154.532
49.96000 157.198
50.00000 150.171
50.04000 151.408
50.08000 165.248
50.12000 160.139
50.16000 159.830
50.20000 148.709
50.24000 157.378
50.28000 154.549
50.32000 154.667
50.36000 159.934
50.40000 161.709
50.44000 166.780
50.48000 170.952
50.52000 172.062
50.56000 183.023
50.60000 175.444
50.64000 173.454
50.68000 160.736
50.72000 179.022
50.76000 181.152
50.80000 170.908
50.84000 166.340
50.88000 166.030
50.92000 158.578
50.96000 161.278
51.00000 157.588
51.04000 157.548
51.08000 156.233
51.12000 140.588
51.16000 152.526
51.20000 155.296
51.24000 147.546
51.28000 154.403
51.32000 147.158
51.36000 141.782
51.40000 164.838
51.44000 136.307
51.48000 145.238
51.52000 142.197
51.56000 147.810
51.60000 154.760
51.64000 144.992
51.68000 149.966
51.72000 146.690
51.76000 133.921
51.80000 144.648
51.84000 140.305
51.88000 147.093
51.92000 141.615
51.96000 135.997
52.00000 144.020
52.04000 144.793
52.08000 135.740
52.12000 146.231
52.16000 143.659
52.20000 136.631
52.24000 145.432
52.28000 137.374
52.32000 143.845
52.36000 138.694
52.40000 142.800
52.44000 143.609
52.48000 146.374
52.52000 150.824
52.56000 137.416
52.60000 142.914
52.64000 139.984
52.68000 138.195
52.72000 147.775
52.76000 147.393
52.80000 141.340
52.84000 141.795
52.88000 130.080
52.92000 143.354
52.96000 144.664
53.00000 146.078
53.04000 134.396
53.08000 137.597
53.12000 148.464
53.16000 136.575
53.20000 141.035
53.24000 151.758
53.28000 148.213
53.32000 149.214
53.36000 146.085
53.40000 143.919
53.44000 144.896
53.48000 132.987
53.52000 137.038
53.56000 139.212
53.60000 142.980
53.64000 139.062
53.68000 137.253
53.72000 137.021
53.76000 148.951
53.80000 145.720
53.84000 142.507
53.88000 140.998
53.92000 140.910
53.96000 134.837
54.00000 135.464
54.04000 146.540
54.08000 141.224
54.12000 143.780
54.16000 134.034
54.20000 131.758
54.24000 134.930
54.28000 138.883
54.32000 142.874
54.36000 131.965
54.40000 146.958
54.44000 132.671
54.48000 128.598
54.52000 136.719
54.56000 142.025
54.60000 132.446
54.64000 139.695
54.68000 137.351
54.72000 151.632
54.76000 146.174
54.80000 137.602
54.84000 130.335
54.88000 144.254
54.92000 144.434
54.96000 139.144
55.00000 136.967
55.04000 154.170
55.08000 138.564
55.12000 151.163
55.16000 147.460
55.20000 144.299
55.24000 146.120
55.28000 150.331
55.32000 158.370
55.36000 154.842
55.40000 167.808
55.44000 160.269
55.48000 169.287
55.52000 187.013
55.56000 179.972
55.60000 190.473
55.64000 204.667
55.68000 210.352
55.72000 210.834
55.76000 231.056
55.80000 237.751
55.84000 260.667
55.88000 274.374
55.92000 270.662
55.96000 282.340
56.00000 274.269
56.04000 253.332
56.08000 241.900
56.12000 228.331
56.16000 219.278
56.20000 212.022
56.24000 206.520
56.28000 198.190
56.32000 172.770
56.36000 171.161
56.40000 167.532
56.44000 153.030
56.48000 155.248
56.52000 148.299
56.56000 142.746
56.60000 146.073
56.64000 142.233
56.68000 131.133
56.72000 136.561
56.76000 140.508
56.80000 142.952
56.84000 138.024
56.88000 138.860
56.92000 122.374
56.96000 130.560
57.00000 120.734
57.04000 137.546
57.08000 138.919
57.12000 137.789
57.16000 127.456
57.20000 128.908
57.24000 133.963
57.28000 120.433
57.32000 134.808
57.36000 127.079
57.40000 133.831
57.44000 127.384
57.48000 127.052
57.52000 130.187
57.56000 131.199
57.60000 131.172
57.64000 124.933
57.68000 132.200
57.72000 128.782
57.76000 123.478
57.80000 122.940
57.84000 115.818
57.88000 125.550
57.92000 133.761
57.96000 129.606
58.00000 129.995
58.04000 139.726
58.08000 122.398
58.12000 121.034
58.16000 111.932
58.20000 121.199
58.24000 123.300
58.28000 125.741
58.32000 130.459
58.36000 126.081
58.40000 127.708
58.44000 122.018
58.48000 120.884
58.52000 124.638
58.56000 136.800
58.60000 126.801
58.64000 121.427
58.68000 119.196
58.72000 124.559
58.76000 127.422
58.80000 122.709
58.84000 120.729
58.88000 111.661
58.92000 122.076
58.96000 123.076
59.00000 115.822
59.04000 120.557
59.08000 116.975
59.12000 119.678
59.16000 126.002
59.20000 115.531
59.24000 128.909
59.28000 115.784
59.32000 119.903
59.36000 119.263
59.40000 119.903
59.44000 122.342
59.48000 120.462
59.52000 111.434
59.56000 113.840
59.60000 122.365
59.64000 121.634
59.68000 116.246
59.72000 118.184
59.76000 124.154
59.80000 119.551
59.84000 119.411
59.88000 119.249
59.92000 124.925
59.96000 120.059
60.00000 120.710
60.04000 122.539
60.08000 112.240
60.12000 126.358
60.16000 127.965
60.20000 116.190
60.24000 115.225
60.28000 115.806
60.32000 123.588
60.36000 119.955
60.40000 120.618
60.44000 123.824
60.48000 123.580
60.52000 127.468
60.56000 116.839
60.60000 115.145
60.64000 112.272
60.68000 117.923
60.72000 122.122
60.76000 112.167
60.80000 118.029
60.84000 123.493
60.88000 118.186
60.92000 130.406
60.96000 119.458
61.00000 130.986
61.04000 124.775
61.08000 115.418
61.12000 130.508
61.16000 130.735
61.20000 127.672
61.24000 141.496
61.28000 121.365
61.32000 126.538
61.36000 124.601
61.40000 133.863
61.44000 125.776
61.48000 141.038
61.52000 162.979
61.56000 212.142
61.60000 255.342
61.64000 290.012
61.68000 282.370
61.72000 287.394
61.76000 275.830
61.80000 208.385
61.84000 173.075
61.88000 136.331
61.92000 146.097
61.96000 127.217
62.00000 129.695
62.04000 133.673
62.08000 129.342
62.12000 118.656
62.16000 123.946
62.20000 134.202
62.24000 131.030
62.28000 130.355
62.32000 132.179
62.36000 133.790
62.40000 133.847
62.44000 126.846
62.48000 138.642
62.52000 126.992
62.56000 126.048
62.60000 133.890
62.64000 133.611
62.68000 135.531
62.72000 133.663
62.76000 127.485
62.80000 127.884
62.84000 131.175
62.88000 145.847
62.92000 147.399
62.96000 135.210
63.00000 127.959
63.04000 135.233
63.08000 131.305
63.12000 133.612
63.16000 146.422
63.20000 137.833
63.24000 147.916
63.28000 130.928
63.32000 141.730
63.36000 135.018
63.40000 135.049
63.44000 144.649
63.48000 137.888
63.52000 139.616
63.56000 133.945
63.60000 142.251
63.64000 139.886
63.68000 137.179
63.72000 143.906
63.76000 144.074
63.80000 138.079
63.84000 146.684
63.88000 145.523
63.92000 143.627
63.96000 149.913
64.00000 141.494
64.04000 145.791
64.08000 156.362
64.12000 155.999
64.16000 148.543
64.20000 158.316
64.24000 159.185
64.28000 159.746
64.32000 147.224
64.36000 153.617
64.40000 151.346
64.44000 167.379
64.48000 168.665
64.52000 169.551
64.56000 171.399
64.60000 175.230
64.64000 169.656
64.68000 183.661
64.72000 170.052
64.76000 181.521
64.80000 190.032
64.84000 173.306
64.88000 187.951
64.92000 176.984
64.96000 186.678
65.00000 186.601
65.04000 191.612
65.08000 193.333
65.12000 206.972
65.16000 207.341
65.20000 221.165
65.24000 224.856
65.28000 228.060
65.32000 230.065
65.36000 249.424
65.40000 242.208
65.44000 263.854
65.48000 288.059
65.52000 274.251
65.56000 324.236
65.60000 367.533
65.64000 424.622
65.68000 613.936
65.72000 936.502
65.76000 1454.819
65.80000 1828.229
65.84000 2000.451
65.88000 1977.336
65.92000 1900.662
65.96000 1470.559
66.00000 979.823
66.04000 582.671
66.08000 454.140
66.12000 397.233
66.16000 378.051
66.20000 369.592
66.24000 408.343
66.28000 471.182
66.32000 548.876
66.36000 613.909
66.40000 623.532
66.44000 615.379
66.48000 616.864
66.52000 526.388
66.56000 440.999
66.60000 391.703
66.64000 384.258
66.68000 363.466
66.72000 347.459
66.76000 367.422
66.80000 364.206
66.84000 371.978
66.88000 350.501
66.92000 382.219
66.96000 379.217
67.00000 367.393
67.04000 376.456
67.08000 379.766
67.12000 390.480
67.16000 404.202
67.20000 391.595
67.24000 410.496
67.28000 419.274
67.32000 403.878
67.36000 418.832
67.40000 426.178
67.44000 433.626
67.48000 432.130
67.52000 429.053
67.56000 428.192
67.60000 434.242
67.64000 437.635
67.68000 465.929
67.72000 456.668
67.76000 468.304
67.80000 472.871
67.84000 477.726
67.88000 481.495
67.92000 498.160
67.96000 512.165
68.00000 520.245
68.04000 540.144
68.08000 531.948
68.12000 538.031
68.16000 574.707
68.20000 570.514
68.24000 594.641
68.28000 596.862
68.32000 607.320
68.36000 627.180
68.40000 638.521
68.44000 669.084
68.48000 693.411
68.52000 721.573
68.56000 787.510
68.60000 885.445
68.64000 1019.302
68.68000 1222.261
68.72000 1396.545
68.76000 1482.598
68.80000 1689.739
68.84000 1992.358
68.88000 2499.497
68.92000 4259.523
68.96000 10569.837
69.00000 23646.170
69.04000 36289.836
69.08000 42361.965
69.12000 45201.473
69.16000 48095.215
69.20000 46345.770
69.24000 36055.172
69.28000 26587.227
69.32000 22704.701
69.36000 21257.627
69.40000 17166.869
69.44000 9900.993
69.48000 4253.181
69.52000 2038.151
69.56000 1336.926
69.60000 1045.600
69.64000 931.391
69.68000 797.079
69.72000 764.735
69.76000 681.829
69.80000 620.002
69.84000 610.364
69.88000 544.201
69.92000 565.291
69.96000 523.601
70.00000 495.093