File: XRD/08-10-2025 Dep 7/XY Data/BTO_Mapping_Theta2Theta_08-10-2025_001_36_-29-344_-6-237.xy
20.00000 479.401
20.04000 473.247
20.08000 482.578
20.12000 470.341
20.16000 462.648
20.20000 467.290
20.24000 480.781
20.28000 488.611
20.32000 487.725
20.36000 471.244
20.40000 467.027
20.44000 467.962
20.48000 465.580
20.52000 470.102
20.56000 468.576
20.60000 472.278
20.64000 467.193
20.68000 476.529
20.72000 470.129
20.76000 464.529
20.80000 464.831
20.84000 432.588
20.88000 470.080
20.92000 472.411
20.96000 479.254
21.00000 482.807
21.04000 505.596
21.08000 461.992
21.12000 471.750
21.16000 500.091
21.20000 480.361
21.24000 464.268
21.28000 476.304
21.32000 469.964
21.36000 495.772
21.40000 475.489
21.44000 458.322
21.48000 485.439
21.52000 487.874
21.56000 453.866
21.60000 465.548
21.64000 468.039
21.68000 506.850
21.72000 528.186
21.76000 543.839
21.80000 597.422
21.84000 628.168
21.88000 673.963
21.92000 729.632
21.96000 774.554
22.00000 785.157
22.04000 774.193
22.08000 747.760
22.12000 727.666
22.16000 657.009
22.20000 637.460
22.24000 572.415
22.28000 543.107
22.32000 529.146
22.36000 514.179
22.40000 513.416
22.44000 485.173
22.48000 472.723
22.52000 453.690
22.56000 451.974
22.60000 450.503
22.64000 448.950
22.68000 452.532
22.72000 434.480
22.76000 445.149
22.80000 446.821
22.84000 439.296
22.88000 427.856
22.92000 401.596
22.96000 440.833
23.00000 440.599
23.04000 436.791
23.08000 430.510
23.12000 436.379
23.16000 438.676
23.20000 426.596
23.24000 431.201
23.28000 443.505
23.32000 421.475
23.36000 429.390
23.40000 427.478
23.44000 433.189
23.48000 438.661
23.52000 426.849
23.56000 422.272
23.60000 427.871
23.64000 418.400
23.68000 417.053
23.72000 434.035
23.76000 438.638
23.80000 435.536
23.84000 427.410
23.88000 438.642
23.92000 437.420
23.96000 432.537
24.00000 450.825
24.04000 431.608
24.08000 438.410
24.12000 438.860
24.16000 433.797
24.20000 424.436
24.24000 414.827
24.28000 420.637
24.32000 415.790
24.36000 415.974
24.40000 411.490
24.44000 424.188
24.48000 409.406
24.52000 409.729
24.56000 396.744
24.60000 415.285
24.64000 405.286
24.68000 412.057
24.72000 408.294
24.76000 394.447
24.80000 400.568
24.84000 397.333
24.88000 391.783
24.92000 400.963
24.96000 396.832
25.00000 400.730
25.04000 405.279
25.08000 400.436
25.12000 405.726
25.16000 402.100
25.20000 410.684
25.24000 393.462
25.28000 426.418
25.32000 393.247
25.36000 392.619
25.40000 373.770
25.44000 404.578
25.48000 395.911
25.52000 393.597
25.56000 397.495
25.60000 399.841
25.64000 406.092
25.68000 404.092
25.72000 410.819
25.76000 397.512
25.80000 396.653
25.84000 386.808
25.88000 388.561
25.92000 391.856
25.96000 394.292
26.00000 382.322
26.04000 401.442
26.08000 383.365
26.12000 371.092
26.16000 385.544
26.20000 386.517
26.24000 378.728
26.28000 404.604
26.32000 384.186
26.36000 390.135
26.40000 389.412
26.44000 384.233
26.48000 388.775
26.52000 396.808
26.56000 407.115
26.60000 385.602
26.64000 366.533
26.68000 380.787
26.72000 392.161
26.76000 374.997
26.80000 363.948
26.84000 364.654
26.88000 374.711
26.92000 387.787
26.96000 380.909
27.00000 381.678
27.04000 388.438
27.08000 387.678
27.12000 379.825
27.16000 375.642
27.20000 370.523
27.24000 382.705
27.28000 383.002
27.32000 380.099
27.36000 360.068
27.40000 361.980
27.44000 373.724
27.48000 380.275
27.52000 371.144
27.56000 368.775
27.60000 371.306
27.64000 385.195
27.68000 380.778
27.72000 368.931
27.76000 363.459
27.80000 382.019
27.84000 368.309
27.88000 376.230
27.92000 371.665
27.96000 367.864
28.00000 353.937
28.04000 361.214
28.08000 377.059
28.12000 373.875
28.16000 372.147
28.20000 375.079
28.24000 351.522
28.28000 364.955
28.32000 376.771
28.36000 365.754
28.40000 373.879
28.44000 346.689
28.48000 348.058
28.52000 358.411
28.56000 375.822
28.60000 378.109
28.64000 374.184
28.68000 369.549
28.72000 351.189
28.76000 348.806
28.80000 351.475
28.84000 358.781
28.88000 358.613
28.92000 363.608
28.96000 367.744
29.00000 356.048
29.04000 355.137
29.08000 351.164
29.12000 343.062
29.16000 365.205
29.20000 349.869
29.24000 356.715
29.28000 365.759
29.32000 363.424
29.36000 356.062
29.40000 349.740
29.44000 370.713
29.48000 352.318
29.52000 356.864
29.56000 353.337
29.60000 349.201
29.64000 350.314
29.68000 364.891
29.72000 374.818
29.76000 392.983
29.80000 383.504
29.84000 425.872
29.88000 424.821
29.92000 442.860
29.96000 437.171
30.00000 449.345
30.04000 444.726
30.08000 446.149
30.12000 434.578
30.16000 419.116
30.20000 421.492
30.24000 410.802
30.28000 385.410
30.32000 378.569
30.36000 392.097
30.40000 397.576
30.44000 376.644
30.48000 392.068
30.52000 378.821
30.56000 371.195
30.60000 388.051
30.64000 394.456
30.68000 382.685
30.72000 391.153
30.76000 406.953
30.80000 424.276
30.84000 433.197
30.88000 476.047
30.92000 509.053
30.96000 558.248
31.00000 657.743
31.04000 825.622
31.08000 1046.263
31.12000 1332.362
31.16000 1674.600
31.20000 2039.754
31.24000 2331.922
31.28000 2665.132
31.32000 2926.531
31.36000 2862.893
31.40000 2753.849
31.44000 2412.966
31.48000 2076.365
31.52000 1712.199
31.56000 1320.692
31.60000 1051.245
31.64000 801.070
31.68000 663.056
31.72000 557.796
31.76000 487.064
31.80000 429.386
31.84000 412.195
31.88000 392.055
31.92000 378.450
31.96000 348.085
32.00000 364.228
32.04000 354.294
32.08000 336.771
32.12000 337.806
32.16000 339.585
32.20000 336.257
32.24000 321.064
32.28000 311.563
32.32000 316.804
32.36000 324.666
32.40000 311.760
32.44000 330.818
32.48000 314.384
32.52000 324.477
32.56000 319.078
32.60000 319.307
32.64000 314.065
32.68000 312.937
32.72000 308.444
32.76000 330.772
32.80000 325.220
32.84000 310.180
32.88000 319.946
32.92000 324.194
32.96000 312.165
33.00000 300.804
33.04000 316.192
33.08000 326.488
33.12000 310.808
33.16000 311.182
33.20000 292.534
33.24000 293.052
33.28000 290.777
33.32000 301.988
33.36000 309.078
33.40000 296.962
33.44000 285.105
33.48000 293.084
33.52000 292.411
33.56000 297.001
33.60000 305.794
33.64000 305.996
33.68000 302.472
33.72000 289.419
33.76000 283.888
33.80000 281.857
33.84000 282.163
33.88000 299.299
33.92000 299.494
33.96000 290.566
34.00000 298.430
34.04000 295.795
34.08000 276.445
34.12000 301.257
34.16000 312.531
34.20000 300.035
34.24000 298.027
34.28000 311.360
34.32000 300.337
34.36000 286.522
34.40000 292.418
34.44000 287.686
34.48000 303.347
34.52000 302.941
34.56000 290.127
34.60000 299.538
34.64000 298.115
34.68000 291.820
34.72000 275.780
34.76000 280.657
34.80000 278.097
34.84000 294.699
34.88000 294.423
34.92000 281.036
34.96000 275.070
35.00000 281.677
35.04000 272.294
35.08000 276.622
35.12000 287.691
35.16000 273.044
35.20000 270.034
35.24000 284.262
35.28000 269.054
35.32000 268.293
35.36000 273.893
35.40000 261.132
35.44000 258.683
35.48000 266.217
35.52000 275.481
35.56000 268.086
35.60000 276.546
35.64000 262.476
35.68000 260.413
35.72000 255.886
35.76000 279.912
35.80000 279.973
35.84000 272.369
35.88000 251.885
35.92000 267.346
35.96000 263.919
36.00000 266.535
36.04000 264.754
36.08000 260.170
36.12000 239.573
36.16000 250.433
36.20000 280.221
36.24000 255.465
36.28000 259.641
36.32000 284.278
36.36000 255.501
36.40000 257.690
36.44000 261.196
36.48000 251.260
36.52000 248.948
36.56000 267.984
36.60000 277.597
36.64000 265.890
36.68000 252.103
36.72000 238.409
36.76000 274.194
36.80000 255.146
36.84000 250.075
36.88000 268.977
36.92000 258.191
36.96000 255.551
37.00000 257.073
37.04000 268.855
37.08000 261.526
37.12000 256.112
37.16000 259.829
37.20000 254.806
37.24000 242.623
37.28000 248.790
37.32000 251.273
37.36000 246.801
37.40000 249.809
37.44000 244.668
37.48000 261.446
37.52000 251.730
37.56000 247.643
37.60000 256.156
37.64000 259.549
37.68000 245.234
37.72000 248.335
37.76000 243.949
37.80000 263.520
37.84000 252.827
37.88000 263.527
37.92000 254.838
37.96000 261.011
38.00000 256.329
38.04000 253.058
38.08000 240.890
38.12000 254.012
38.16000 259.613
38.20000 266.230
38.24000 257.120
38.28000 273.594
38.32000 321.216
38.36000 332.312
38.40000 385.999
38.44000 391.964
38.48000 449.986
38.52000 492.195
38.56000 540.077
38.60000 539.557
38.64000 550.552
38.68000 572.516
38.72000 555.832
38.76000 526.477
38.80000 490.162
38.84000 446.381
38.88000 397.153
38.92000 357.306
38.96000 331.678
39.00000 297.630
39.04000 279.494
39.08000 255.086
39.12000 254.335
39.16000 247.920
39.20000 233.103
39.24000 246.138
39.28000 238.352
39.32000 233.114
39.36000 231.427
39.40000 232.262
39.44000 227.750
39.48000 236.764
39.52000 230.747
39.56000 225.545
39.60000 236.896
39.64000 228.333
39.68000 237.016
39.72000 225.474
39.76000 222.939
39.80000 227.613
39.84000 242.612
39.88000 233.225
39.92000 233.840
39.96000 230.170
40.00000 226.046
40.04000 217.544
40.08000 220.495
40.12000 223.941
40.16000 230.453
40.20000 223.328
40.24000 220.107
40.28000 221.634
40.32000 219.784
40.36000 221.565
40.40000 230.917
40.44000 212.636
40.48000 228.517
40.52000 217.882
40.56000 210.290
40.60000 220.699
40.64000 224.167
40.68000 221.122
40.72000 214.406
40.76000 220.792
40.80000 207.087
40.84000 218.422
40.88000 222.917
40.92000 219.545
40.96000 212.007
41.00000 211.919
41.04000 212.367
41.08000 212.715
41.12000 212.513
41.16000 207.068
41.20000 209.635
41.24000 209.319
41.28000 215.296
41.32000 217.010
41.36000 214.051
41.40000 201.878
41.44000 213.712
41.48000 192.247
41.52000 201.092
41.56000 216.346
41.60000 204.410
41.64000 190.549
41.68000 200.701
41.72000 199.956
41.76000 210.918
41.80000 207.034
41.84000 218.454
41.88000 213.883
41.92000 207.331
41.96000 210.858
42.00000 212.406
42.04000 219.025
42.08000 212.789
42.12000 208.127
42.16000 203.251
42.20000 212.087
42.24000 229.936
42.28000 200.652
42.32000 213.067
42.36000 202.054
42.40000 202.254
42.44000 213.103
42.48000 204.302
42.52000 199.876
42.56000 201.724
42.60000 202.577
42.64000 204.943
42.68000 209.278
42.72000 219.431
42.76000 211.253
42.80000 199.003
42.84000 204.655
42.88000 213.981
42.92000 213.187
42.96000 198.779
43.00000 211.430
43.04000 206.694
43.08000 202.099
43.12000 210.069
43.16000 205.294
43.20000 213.325
43.24000 222.016
43.28000 195.941
43.32000 204.287
43.36000 204.679
43.40000 197.357
43.44000 199.480
43.48000 200.689
43.52000 194.298
43.56000 193.499
43.60000 207.030
43.64000 202.312
43.68000 188.383
43.72000 194.863
43.76000 205.182
43.80000 205.585
43.84000 203.072
43.88000 203.173
43.92000 189.399
43.96000 197.775
44.00000 181.686
44.04000 206.999
44.08000 206.073
44.12000 196.783
44.16000 201.199
44.20000 216.189
44.24000 203.157
44.28000 199.024
44.32000 228.480
44.36000 215.422
44.40000 223.989
44.44000 219.261
44.48000 234.650
44.52000 248.759
44.56000 259.839
44.60000 271.373
44.64000 279.538
44.68000 319.852
44.72000 344.721
44.76000 376.229
44.80000 419.407
44.84000 446.104
44.88000 459.664
44.92000 478.643
44.96000 481.156
45.00000 473.891
45.04000 451.690
45.08000 415.823
45.12000 376.139
45.16000 364.337
45.20000 334.955
45.24000 324.234
45.28000 301.086
45.32000 286.713
45.36000 266.522
45.40000 267.546
45.44000 247.825
45.48000 245.997
45.52000 239.426
45.56000 221.841
45.60000 214.946
45.64000 219.322
45.68000 224.288
45.72000 205.204
45.76000 201.511
45.80000 197.350
45.84000 193.852
45.88000 200.104
45.92000 202.140
45.96000 190.962
46.00000 176.674
46.04000 186.964
46.08000 182.482
46.12000 183.318
46.16000 196.137
46.20000 181.724
46.24000 184.125
46.28000 180.394
46.32000 175.408
46.36000 178.151
46.40000 194.615
46.44000 177.460
46.48000 180.112
46.52000 177.363
46.56000 169.820
46.60000 174.411
46.64000 177.851
46.68000 179.268
46.72000 166.327
46.76000 178.162
46.80000 166.483
46.84000 169.851
46.88000 171.619
46.92000 174.159
46.96000 178.688
47.00000 163.547
47.04000 175.315
47.08000 166.240
47.12000 185.597
47.16000 177.782
47.20000 171.334
47.24000 169.826
47.28000 166.207
47.32000 167.704
47.36000 162.990
47.40000 169.157
47.44000 173.405
47.48000 164.112
47.52000 162.722
47.56000 162.516
47.60000 161.348
47.64000 172.086
47.68000 165.376
47.72000 163.375
47.76000 169.542
47.80000 163.331
47.84000 173.962
47.88000 164.036
47.92000 167.171
47.96000 145.452
48.00000 167.186
48.04000 166.024
48.08000 156.059
48.12000 161.865
48.16000 155.480
48.20000 158.235
48.24000 163.220
48.28000 167.755
48.32000 170.044
48.36000 164.159
48.40000 167.057
48.44000 161.454
48.48000 148.602
48.52000 163.281
48.56000 167.040
48.60000 167.691
48.64000 162.391
48.68000 156.998
48.72000 166.691
48.76000 160.043
48.80000 163.091
48.84000 149.394
48.88000 165.084
48.92000 152.750
48.96000 161.671
49.00000 144.294
49.04000 153.133
49.08000 151.842
49.12000 157.581
49.16000 157.374
49.20000 153.944
49.24000 157.742
49.28000 149.241
49.32000 151.990
49.36000 154.582
49.40000 161.496
49.44000 144.929
49.48000 153.855
49.52000 143.212
49.56000 158.532
49.60000 161.776
49.64000 155.950
49.68000 154.903
49.72000 147.796
49.76000 156.062
49.80000 154.146
49.84000 173.400
49.88000 164.974
49.92000 155.134
49.96000 175.116
50.00000 159.284
50.04000 154.137
50.08000 165.576
50.12000 170.911
50.16000 172.650
50.20000 183.113
50.24000 190.852
50.28000 198.542
50.32000 189.186
50.36000 205.782
50.40000 225.706
50.44000 233.994
50.48000 240.578
50.52000 243.465
50.56000 251.390
50.60000 248.833
50.64000 256.159
50.68000 242.965
50.72000 238.341
50.76000 232.209
50.80000 216.664
50.84000 202.431
50.88000 192.276
50.92000 188.566
50.96000 177.724
51.00000 179.993
51.04000 173.544
51.08000 155.916
51.12000 157.242
51.16000 156.853
51.20000 153.501
51.24000 154.858
51.28000 141.414
51.32000 148.891
51.36000 156.031
51.40000 141.165
51.44000 143.206
51.48000 143.566
51.52000 162.526
51.56000 147.071
51.60000 148.422
51.64000 134.482
51.68000 142.107
51.72000 143.558
51.76000 143.674
51.80000 144.948
51.84000 139.075
51.88000 150.254
51.92000 152.922
51.96000 146.473
52.00000 135.944
52.04000 144.418
52.08000 141.856
52.12000 147.705
52.16000 146.030
52.20000 139.395
52.24000 134.498
52.28000 140.786
52.32000 142.373
52.36000 150.482
52.40000 149.945
52.44000 138.604
52.48000 142.307
52.52000 137.792
52.56000 145.283
52.60000 144.135
52.64000 149.374
52.68000 141.105
52.72000 142.967
52.76000 148.461
52.80000 146.055
52.84000 145.765
52.88000 139.932
52.92000 147.525
52.96000 149.131
53.00000 148.670
53.04000 154.243
53.08000 150.306
53.12000 151.033
53.16000 154.092
53.20000 158.292
53.24000 172.353
53.28000 158.536
53.32000 160.274
53.36000 162.942
53.40000 159.921
53.44000 163.835
53.48000 143.615
53.52000 159.186
53.56000 154.437
53.60000 153.059
53.64000 151.003
53.68000 128.905
53.72000 150.844
53.76000 160.550
53.80000 147.836
53.84000 147.156
53.88000 141.083
53.92000 143.411
53.96000 143.115
54.00000 147.094
54.04000 141.754
54.08000 140.817
54.12000 142.316
54.16000 138.779
54.20000 147.983
54.24000 139.110
54.28000 140.241
54.32000 150.052
54.36000 136.109
54.40000 142.358
54.44000 135.827
54.48000 149.368
54.52000 137.060
54.56000 148.919
54.60000 143.211
54.64000 151.642
54.68000 147.255
54.72000 131.072
54.76000 138.008
54.80000 156.836
54.84000 148.277
54.88000 154.326
54.92000 150.008
54.96000 137.467
55.00000 151.265
55.04000 153.908
55.08000 152.907
55.12000 153.031
55.16000 154.904
55.20000 166.083
55.24000 177.353
55.28000 185.013
55.32000 213.489
55.36000 225.465
55.40000 261.746
55.44000 288.564
55.48000 337.166
55.52000 386.508
55.56000 414.170
55.60000 474.021
55.64000 527.717
55.68000 574.224
55.72000 635.412
55.76000 647.441
55.80000 664.579
55.84000 669.529
55.88000 664.086
55.92000 615.886
55.96000 590.388
56.00000 533.937
56.04000 472.678
56.08000 440.246
56.12000 374.161
56.16000 334.209
56.20000 307.348
56.24000 275.787
56.28000 243.723
56.32000 224.246
56.36000 205.408
56.40000 182.460
56.44000 168.626
56.48000 163.824
56.52000 153.352
56.56000 156.323
56.60000 158.498
56.64000 145.443
56.68000 139.472
56.72000 142.166
56.76000 132.916
56.80000 140.046
56.84000 139.427
56.88000 133.664
56.92000 124.240
56.96000 134.398
57.00000 135.318
57.04000 128.248
57.08000 136.284
57.12000 136.182
57.16000 139.811
57.20000 127.076
57.24000 121.781
57.28000 126.106
57.32000 121.332
57.36000 127.979
57.40000 139.092
57.44000 117.991
57.48000 126.672
57.52000 125.135
57.56000 131.021
57.60000 124.244
57.64000 123.105
57.68000 124.483
57.72000 126.534
57.76000 126.779
57.80000 124.248
57.84000 113.094
57.88000 117.830
57.92000 121.930
57.96000 128.538
58.00000 122.890
58.04000 129.606
58.08000 128.580
58.12000 124.067
58.16000 120.014
58.20000 121.331
58.24000 124.196
58.28000 118.587
58.32000 126.312
58.36000 124.682
58.40000 129.109
58.44000 115.651
58.48000 120.263
58.52000 127.149
58.56000 130.788
58.60000 113.844
58.64000 108.212
58.68000 121.122
58.72000 124.371
58.76000 119.615
58.80000 123.022
58.84000 121.257
58.88000 128.795
58.92000 118.257
58.96000 123.974
59.00000 128.787
59.04000 117.629
59.08000 129.753
59.12000 120.193
59.16000 114.938
59.20000 122.463
59.24000 117.668
59.28000 125.078
59.32000 119.072
59.36000 109.404
59.40000 117.913
59.44000 115.171
59.48000 118.682
59.52000 126.000
59.56000 115.874
59.60000 111.895
59.64000 118.843
59.68000 117.801
59.72000 128.031
59.76000 120.976
59.80000 118.819
59.84000 113.816
59.88000 114.126
59.92000 124.480
59.96000 123.314
60.00000 127.037
60.04000 118.655
60.08000 117.976
60.12000 114.222
60.16000 114.503
60.20000 111.948
60.24000 110.972
60.28000 119.776
60.32000 122.079
60.36000 114.441
60.40000 125.954
60.44000 121.187
60.48000 117.122
60.52000 108.110
60.56000 115.143
60.60000 114.552
60.64000 129.064
60.68000 124.384
60.72000 115.644
60.76000 115.356
60.80000 123.543
60.84000 127.277
60.88000 124.606
60.92000 125.295
60.96000 124.491
61.00000 125.518
61.04000 119.684
61.08000 120.948
61.12000 127.106
61.16000 124.924
61.20000 119.365
61.24000 119.880
61.28000 126.609
61.32000 127.953
61.36000 118.250
61.40000 126.804
61.44000 122.145
61.48000 121.919
61.52000 151.119
61.56000 191.824
61.60000 256.838
61.64000 317.448
61.68000 337.359
61.72000 357.378
61.76000 345.889
61.80000 295.952
61.84000 214.794
61.88000 173.815
61.92000 140.208
61.96000 140.206
62.00000 139.769
62.04000 140.744
62.08000 137.609
62.12000 132.408
62.16000 131.491
62.20000 135.775
62.24000 133.302
62.28000 122.813
62.32000 125.829
62.36000 131.197
62.40000 140.220
62.44000 133.960
62.48000 115.071
62.52000 133.709
62.56000 127.223
62.60000 128.487
62.64000 130.153
62.68000 124.768
62.72000 138.275
62.76000 124.079
62.80000 130.209
62.84000 130.387
62.88000 134.881
62.92000 127.616
62.96000 132.925
63.00000 133.332
63.04000 139.920
63.08000 133.165
63.12000 134.634
63.16000 134.207
63.20000 120.384
63.24000 130.111
63.28000 126.159
63.32000 135.216
63.36000 135.662
63.40000 137.944
63.44000 142.206
63.48000 132.182
63.52000 148.837
63.56000 136.788
63.60000 149.937
63.64000 147.593
63.68000 123.920
63.72000 133.448
63.76000 137.453
63.80000 141.961
63.84000 151.635
63.88000 144.821
63.92000 145.429
63.96000 146.453
64.00000 144.839
64.04000 147.881
64.08000 148.864
64.12000 155.058
64.16000 146.153
64.20000 140.135
64.24000 136.160
64.28000 161.659
64.32000 149.311
64.36000 156.482
64.40000 154.980
64.44000 166.712
64.48000 169.720
64.52000 168.258
64.56000 157.756
64.60000 163.253
64.64000 174.338
64.68000 181.266
64.72000 181.500
64.76000 188.205
64.80000 186.420
64.84000 201.959
64.88000 204.553
64.92000 198.847
64.96000 213.554
65.00000 230.243
65.04000 230.703
65.08000 273.887
65.12000 259.174
65.16000 285.186
65.20000 307.183
65.24000 318.489
65.28000 336.511
65.32000 348.184
65.36000 361.354
65.40000 385.937
65.44000 388.688
65.48000 387.765
65.52000 417.933
65.56000 438.728
65.60000 454.343
65.64000 488.389
65.68000 641.550
65.72000 932.033
65.76000 1443.432
65.80000 2052.025
65.84000 2421.463
65.88000 2495.090
65.92000 2477.701
65.96000 2156.991
66.00000 1628.498
66.04000 1044.025
66.08000 669.987
66.12000 512.062
66.16000 435.534
66.20000 418.662
66.24000 440.684
66.28000 478.886
66.32000 573.658
66.36000 688.595
66.40000 741.775
66.44000 790.284
66.48000 747.040
66.52000 692.710
66.56000 582.339
66.60000 465.997
66.64000 416.542
66.68000 398.287
66.72000 397.847
66.76000 399.083
66.80000 381.946
66.84000 380.706
66.88000 371.703
66.92000 377.641
66.96000 404.886
67.00000 398.410
67.04000 398.804
67.08000 404.510
67.12000 411.312
67.16000 408.630
67.20000 408.493
67.24000 420.802
67.28000 427.898
67.32000 452.530
67.36000 444.131
67.40000 439.044
67.44000 453.950
67.48000 460.733
67.52000 471.334
67.56000 444.791
67.60000 448.445
67.64000 467.403
67.68000 478.073
67.72000 472.921
67.76000 507.546
67.80000 486.740
67.84000 500.800
67.88000 510.816
67.92000 500.529
67.96000 547.548
68.00000 524.899
68.04000 517.333
68.08000 561.540
68.12000 565.390
68.16000 568.216
68.20000 575.321
68.24000 600.447
68.28000 597.575
68.32000 596.980
68.36000 645.713
68.40000 664.827
68.44000 724.925
68.48000 701.613
68.52000 750.436
68.56000 809.462
68.60000 904.975
68.64000 1019.899
68.68000 1231.562
68.72000 1438.980
68.76000 1654.761
68.80000 1875.740
68.84000 2189.160
68.88000 2734.582
68.92000 3884.804
68.96000 7946.193
69.00000 19434.660
69.04000 36244.055
69.08000 49268.055
69.12000 55169.016
69.16000 58699.332
69.20000 60785.258
69.24000 54498.668
69.28000 41835.344
69.32000 32141.441
69.36000 28167.832
69.40000 25276.072
69.44000 18296.000
69.48000 9810.016
69.52000 4407.053
69.56000 2108.752
69.60000 1419.809
69.64000 1156.922
69.68000 974.445
69.72000 862.527
69.76000 797.035
69.80000 704.089
69.84000 641.852
69.88000 614.705
69.92000 576.124
69.96000 548.227
70.00000 545.363