File: XRD/08-10-2025 Dep 7/XY Data/BTO_Mapping_Theta2Theta_08-10-2025_001_61_36-542_-16-269.xy
20.00000 479.283
20.04000 479.375
20.08000 502.523
20.12000 492.525
20.16000 491.488
20.20000 478.811
20.24000 479.127
20.28000 480.483
20.32000 459.935
20.36000 469.028
20.40000 463.827
20.44000 473.824
20.48000 475.550
20.52000 462.881
20.56000 468.620
20.60000 465.675
20.64000 475.342
20.68000 471.459
20.72000 475.676
20.76000 473.501
20.80000 466.106
20.84000 473.301
20.88000 488.040
20.92000 461.482
20.96000 476.379
21.00000 469.211
21.04000 462.150
21.08000 491.637
21.12000 470.974
21.16000 486.290
21.20000 497.125
21.24000 475.057
21.28000 477.939
21.32000 472.161
21.36000 460.569
21.40000 485.735
21.44000 473.923
21.48000 464.338
21.52000 484.493
21.56000 473.591
21.60000 458.692
21.64000 474.158
21.68000 481.326
21.72000 487.173
21.76000 485.679
21.80000 507.744
21.84000 487.255
21.88000 474.623
21.92000 506.643
21.96000 517.969
22.00000 503.449
22.04000 504.709
22.08000 511.080
22.12000 499.316
22.16000 477.229
22.20000 492.525
22.24000 507.344
22.28000 491.328
22.32000 480.516
22.36000 467.442
22.40000 468.214
22.44000 456.213
22.48000 462.198
22.52000 463.934
22.56000 448.894
22.60000 455.742
22.64000 463.140
22.68000 462.374
22.72000 455.863
22.76000 444.036
22.80000 480.764
22.84000 451.858
22.88000 462.543
22.92000 482.892
22.96000 453.513
23.00000 430.188
23.04000 450.867
23.08000 434.438
23.12000 425.718
23.16000 452.831
23.20000 440.717
23.24000 430.777
23.28000 461.085
23.32000 444.105
23.36000 470.682
23.40000 450.469
23.44000 463.835
23.48000 458.736
23.52000 452.873
23.56000 460.406
23.60000 448.847
23.64000 478.929
23.68000 478.134
23.72000 497.527
23.76000 500.479
23.80000 523.000
23.84000 514.009
23.88000 540.692
23.92000 534.957
23.96000 549.719
24.00000 545.975
24.04000 520.125
24.08000 539.067
24.12000 525.721
24.16000 505.202
24.20000 486.876
24.24000 483.110
24.28000 455.496
24.32000 456.086
24.36000 463.393
24.40000 460.084
24.44000 447.137
24.48000 428.971
24.52000 443.111
24.56000 445.536
24.60000 435.213
24.64000 431.985
24.68000 433.938
24.72000 428.170
24.76000 413.937
24.80000 430.184
24.84000 408.713
24.88000 405.101
24.92000 416.164
24.96000 408.136
25.00000 403.047
25.04000 413.204
25.08000 430.981
25.12000 412.935
25.16000 413.076
25.20000 414.722
25.24000 413.602
25.28000 418.460
25.32000 398.806
25.36000 408.217
25.40000 407.131
25.44000 413.793
25.48000 400.645
25.52000 395.010
25.56000 400.885
25.60000 402.111
25.64000 401.605
25.68000 411.653
25.72000 405.905
25.76000 404.332
25.80000 393.544
25.84000 402.133
25.88000 411.261
25.92000 418.749
25.96000 397.203
26.00000 407.523
26.04000 389.247
26.08000 402.351
26.12000 409.222
26.16000 386.390
26.20000 379.834
26.24000 389.437
26.28000 410.520
26.32000 399.892
26.36000 409.012
26.40000 389.732
26.44000 390.964
26.48000 395.731
26.52000 391.683
26.56000 384.441
26.60000 378.814
26.64000 400.469
26.68000 383.677
26.72000 368.478
26.76000 382.450
26.80000 395.272
26.84000 401.468
26.88000 395.088
26.92000 378.036
26.96000 390.873
27.00000 374.519
27.04000 383.527
27.08000 397.697
27.12000 397.083
27.16000 400.160
27.20000 392.581
27.24000 393.266
27.28000 378.674
27.32000 388.164
27.36000 398.263
27.40000 380.071
27.44000 375.946
27.48000 367.012
27.52000 391.359
27.56000 386.297
27.60000 379.633
27.64000 384.603
27.68000 378.929
27.72000 375.379
27.76000 385.283
27.80000 400.653
27.84000 377.467
27.88000 385.551
27.92000 374.130
27.96000 370.716
28.00000 373.629
28.04000 370.331
28.08000 381.042
28.12000 366.367
28.16000 380.756
28.20000 356.917
28.24000 376.002
28.28000 384.205
28.32000 353.724
28.36000 377.781
28.40000 386.160
28.44000 374.069
28.48000 382.866
28.52000 364.847
28.56000 376.669
28.60000 369.893
28.64000 366.923
28.68000 359.718
28.72000 353.310
28.76000 360.598
28.80000 368.322
28.84000 383.358
28.88000 369.466
28.92000 384.413
28.96000 359.929
29.00000 368.822
29.04000 359.445
29.08000 380.275
29.12000 384.932
29.16000 357.588
29.20000 370.334
29.24000 371.496
29.28000 365.149
29.32000 369.053
29.36000 372.757
29.40000 376.023
29.44000 355.756
29.48000 361.724
29.52000 361.227
29.56000 358.313
29.60000 369.326
29.64000 374.156
29.68000 358.268
29.72000 374.001
29.76000 380.344
29.80000 371.609
29.84000 384.725
29.88000 393.056
29.92000 393.933
29.96000 396.685
30.00000 375.028
30.04000 396.137
30.08000 380.723
30.12000 379.686
30.16000 387.636
30.20000 399.755
30.24000 382.843
30.28000 379.952
30.32000 389.851
30.36000 388.827
30.40000 382.048
30.44000 375.748
30.48000 397.159
30.52000 376.501
30.56000 378.934
30.60000 388.807
30.64000 389.567
30.68000 390.875
30.72000 396.224
30.76000 399.002
30.80000 397.676
30.84000 404.809
30.88000 433.487
30.92000 447.125
30.96000 470.631
31.00000 527.756
31.04000 560.816
31.08000 592.920
31.12000 652.133
31.16000 747.836
31.20000 822.891
31.24000 927.695
31.28000 1004.386
31.32000 1047.150
31.36000 1034.339
31.40000 1022.737
31.44000 928.898
31.48000 878.623
31.52000 774.279
31.56000 714.666
31.60000 632.997
31.64000 564.246
31.68000 516.201
31.72000 481.382
31.76000 455.012
31.80000 441.520
31.84000 408.586
31.88000 391.225
31.92000 396.598
31.96000 374.542
32.00000 389.964
32.04000 350.888
32.08000 362.873
32.12000 368.982
32.16000 366.262
32.20000 363.131
32.24000 361.161
32.28000 341.803
32.32000 350.818
32.36000 336.938
32.40000 343.669
32.44000 332.112
32.48000 322.440
32.52000 350.758
32.56000 342.914
32.60000 320.309
32.64000 310.257
32.68000 340.930
32.72000 323.205
32.76000 339.639
32.80000 327.919
32.84000 326.154
32.88000 321.526
32.92000 311.761
32.96000 311.300
33.00000 305.552
33.04000 309.943
33.08000 325.130
33.12000 292.994
33.16000 311.303
33.20000 305.664
33.24000 302.668
33.28000 296.352
33.32000 300.545
33.36000 292.670
33.40000 307.630
33.44000 303.779
33.48000 293.220
33.52000 318.097
33.56000 306.029
33.60000 298.378
33.64000 288.583
33.68000 309.411
33.72000 289.049
33.76000 303.016
33.80000 310.273
33.84000 305.600
33.88000 304.133
33.92000 319.463
33.96000 313.290
34.00000 317.453
34.04000 313.420
34.08000 324.499
34.12000 324.192
34.16000 339.958
34.20000 312.551
34.24000 322.205
34.28000 336.196
34.32000 323.922
34.36000 340.104
34.40000 327.601
34.44000 318.789
34.48000 309.843
34.52000 321.035
34.56000 301.036
34.60000 309.697
34.64000 293.354
34.68000 301.310
34.72000 305.405
34.76000 293.336
34.80000 293.196
34.84000 299.023
34.88000 280.879
34.92000 278.806
34.96000 269.969
35.00000 276.266
35.04000 284.505
35.08000 266.638
35.12000 272.550
35.16000 271.105
35.20000 266.938
35.24000 262.993
35.28000 261.797
35.32000 276.051
35.36000 256.178
35.40000 261.310
35.44000 257.416
35.48000 261.617
35.52000 271.506
35.56000 267.361
35.60000 272.994
35.64000 273.713
35.68000 269.346
35.72000 270.847
35.76000 262.550
35.80000 248.604
35.84000 270.232
35.88000 267.864
35.92000 252.562
35.96000 256.494
36.00000 265.935
36.04000 265.930
36.08000 254.551
36.12000 268.679
36.16000 252.833
36.20000 266.650
36.24000 270.364
36.28000 266.019
36.32000 280.350
36.36000 253.793
36.40000 264.147
36.44000 258.860
36.48000 274.257
36.52000 252.229
36.56000 268.207
36.60000 258.288
36.64000 248.673
36.68000 254.186
36.72000 267.368
36.76000 261.750
36.80000 255.136
36.84000 270.770
36.88000 269.078
36.92000 272.818
36.96000 275.049
37.00000 266.454
37.04000 260.870
37.08000 262.194
37.12000 257.266
37.16000 273.607
37.20000 258.124
37.24000 251.879
37.28000 268.632
37.32000 264.202
37.36000 246.345
37.40000 248.126
37.44000 261.878
37.48000 241.871
37.52000 247.195
37.56000 256.840
37.60000 266.837
37.64000 243.912
37.68000 247.150
37.72000 264.616
37.76000 254.009
37.80000 266.767
37.84000 247.256
37.88000 265.739
37.92000 264.028
37.96000 263.482
38.00000 255.316
38.04000 264.081
38.08000 270.488
38.12000 259.641
38.16000 260.450
38.20000 272.338
38.24000 283.005
38.28000 292.139
38.32000 307.815
38.36000 336.900
38.40000 348.008
38.44000 378.663
38.48000 433.285
38.52000 503.140
38.56000 561.722
38.60000 592.159
38.64000 665.193
38.68000 667.968
38.72000 643.012
38.76000 600.280
38.80000 535.050
38.84000 492.790
38.88000 408.200
38.92000 371.359
38.96000 327.231
39.00000 294.267
39.04000 284.410
39.08000 275.947
39.12000 265.568
39.16000 248.980
39.20000 261.526
39.24000 259.374
39.28000 256.099
39.32000 262.047
39.36000 246.797
39.40000 245.744
39.44000 237.513
39.48000 246.479
39.52000 256.955
39.56000 239.281
39.60000 242.134
39.64000 245.245
39.68000 246.468
39.72000 244.596
39.76000 231.666
39.80000 229.503
39.84000 248.505
39.88000 231.157
39.92000 239.321
39.96000 225.358
40.00000 222.070
40.04000 236.642
40.08000 230.509
40.12000 231.310
40.16000 238.658
40.20000 228.057
40.24000 230.507
40.28000 240.476
40.32000 220.286
40.36000 228.662
40.40000 220.945
40.44000 215.215
40.48000 211.528
40.52000 220.177
40.56000 233.656
40.60000 237.207
40.64000 224.880
40.68000 219.475
40.72000 225.640
40.76000 224.090
40.80000 214.616
40.84000 227.241
40.88000 214.155
40.92000 226.709
40.96000 215.271
41.00000 212.078
41.04000 224.296
41.08000 221.563
41.12000 211.444
41.16000 218.564
41.20000 219.567
41.24000 215.106
41.28000 217.059
41.32000 212.789
41.36000 215.162
41.40000 200.118
41.44000 207.846
41.48000 208.277
41.52000 223.499
41.56000 214.008
41.60000 210.097
41.64000 205.714
41.68000 209.590
41.72000 217.319
41.76000 212.372
41.80000 222.903
41.84000 216.044
41.88000 219.604
41.92000 213.496
41.96000 213.542
42.00000 223.356
42.04000 219.615
42.08000 217.890
42.12000 233.388
42.16000 227.851
42.20000 226.472
42.24000 227.684
42.28000 224.701
42.32000 220.813
42.36000 246.233
42.40000 233.815
42.44000 223.726
42.48000 212.846
42.52000 209.430
42.56000 223.285
42.60000 213.454
42.64000 203.907
42.68000 214.130
42.72000 211.628
42.76000 221.876
42.80000 211.676
42.84000 208.414
42.88000 212.453
42.92000 220.526
42.96000 208.016
43.00000 194.850
43.04000 200.850
43.08000 206.295
43.12000 198.027
43.16000 200.214
43.20000 206.146
43.24000 214.665
43.28000 185.858
43.32000 203.670
43.36000 195.661
43.40000 198.975
43.44000 196.761
43.48000 197.251
43.52000 196.449
43.56000 194.898
43.60000 205.025
43.64000 195.236
43.68000 193.771
43.72000 199.750
43.76000 199.610
43.80000 203.239
43.84000 200.738
43.88000 193.999
43.92000 201.966
43.96000 192.927
44.00000 196.828
44.04000 198.650
44.08000 200.903
44.12000 211.990
44.16000 194.900
44.20000 208.316
44.24000 208.186
44.28000 208.854
44.32000 200.135
44.36000 206.622
44.40000 199.007
44.44000 203.509
44.48000 209.364
44.52000 206.511
44.56000 215.948
44.60000 221.638
44.64000 211.328
44.68000 226.932
44.72000 230.423
44.76000 228.681
44.80000 237.358
44.84000 239.836
44.88000 234.539
44.92000 233.243
44.96000 248.382
45.00000 234.919
45.04000 240.699
45.08000 235.206
45.12000 242.961
45.16000 216.779
45.20000 232.230
45.24000 223.419
45.28000 226.147
45.32000 223.710
45.36000 233.171
45.40000 212.950
45.44000 208.222
45.48000 205.873
45.52000 200.812
45.56000 201.852
45.60000 196.125
45.64000 188.815
45.68000 185.505
45.72000 180.677
45.76000 186.108
45.80000 196.172
45.84000 193.369
45.88000 177.584
45.92000 185.761
45.96000 183.309
46.00000 190.712
46.04000 191.025
46.08000 175.539
46.12000 177.513
46.16000 185.787
46.20000 175.180
46.24000 177.642
46.28000 184.809
46.32000 185.483
46.36000 190.509
46.40000 192.050
46.44000 179.310
46.48000 183.372
46.52000 185.067
46.56000 182.903
46.60000 188.507
46.64000 183.816
46.68000 187.162
46.72000 182.807
46.76000 184.725
46.80000 178.159
46.84000 163.190
46.88000 173.672
46.92000 169.230
46.96000 169.326
47.00000 170.099
47.04000 172.036
47.08000 165.795
47.12000 161.330
47.16000 171.909
47.20000 169.178
47.24000 172.706
47.28000 173.676
47.32000 167.211
47.36000 162.292
47.40000 173.986
47.44000 185.254
47.48000 160.121
47.52000 159.245
47.56000 160.600
47.60000 160.908
47.64000 167.295
47.68000 167.863
47.72000 161.435
47.76000 157.706
47.80000 162.910
47.84000 162.184
47.88000 154.497
47.92000 159.966
47.96000 156.400
48.00000 166.110
48.04000 157.102
48.08000 163.509
48.12000 162.148
48.16000 168.333
48.20000 164.361
48.24000 168.802
48.28000 170.674
48.32000 155.345
48.36000 170.115
48.40000 165.368
48.44000 151.629
48.48000 162.832
48.52000 163.531
48.56000 163.700
48.60000 146.837
48.64000 155.521
48.68000 172.123
48.72000 153.639
48.76000 153.415
48.80000 161.508
48.84000 151.886
48.88000 166.900
48.92000 171.217
48.96000 160.408
49.00000 149.755
49.04000 167.120
49.08000 156.792
49.12000 162.750
49.16000 163.151
49.20000 158.329
49.24000 168.875
49.28000 160.916
49.32000 159.494
49.36000 155.958
49.40000 168.533
49.44000 151.683
49.48000 156.102
49.52000 164.855
49.56000 158.307
49.60000 164.521
49.64000 153.839
49.68000 153.921
49.72000 160.454
49.76000 163.078
49.80000 153.894
49.84000 150.712
49.88000 153.486
49.92000 149.645
49.96000 154.831
50.00000 153.783
50.04000 164.536
50.08000 156.144
50.12000 153.301
50.16000 166.095
50.20000 152.256
50.24000 172.505
50.28000 158.450
50.32000 161.117
50.36000 150.248
50.40000 161.752
50.44000 166.252
50.48000 175.096
50.52000 167.697
50.56000 166.164
50.60000 173.871
50.64000 184.806
50.68000 175.993
50.72000 168.884
50.76000 177.116
50.80000 166.811
50.84000 177.049
50.88000 158.112
50.92000 154.992
50.96000 167.817
51.00000 160.323
51.04000 152.898
51.08000 154.012
51.12000 154.807
51.16000 155.692
51.20000 150.985
51.24000 147.122
51.28000 149.504
51.32000 158.308
51.36000 154.347
51.40000 141.444
51.44000 146.312
51.48000 143.283
51.52000 154.448
51.56000 153.364
51.60000 143.944
51.64000 152.293
51.68000 132.971
51.72000 154.961
51.76000 151.535
51.80000 139.582
51.84000 136.106
51.88000 142.562
51.92000 142.016
51.96000 145.242
52.00000 145.542
52.04000 139.370
52.08000 138.477
52.12000 144.071
52.16000 145.171
52.20000 148.525
52.24000 132.743
52.28000 141.451
52.32000 148.186
52.36000 146.334
52.40000 146.121
52.44000 136.390
52.48000 142.064
52.52000 144.679
52.56000 151.317
52.60000 144.515
52.64000 135.161
52.68000 136.520
52.72000 142.332
52.76000 157.285
52.80000 139.830
52.84000 134.308
52.88000 148.190
52.92000 142.352
52.96000 135.588
53.00000 151.925
53.04000 150.673
53.08000 127.399
53.12000 141.785
53.16000 150.862
53.20000 156.499
53.24000 151.480
53.28000 153.562
53.32000 149.307
53.36000 160.130
53.40000 150.066
53.44000 141.902
53.48000 151.949
53.52000 146.010
53.56000 141.815
53.60000 140.195
53.64000 133.508
53.68000 149.925
53.72000 138.379
53.76000 145.988
53.80000 131.858
53.84000 138.489
53.88000 134.059
53.92000 134.277
53.96000 145.063
54.00000 144.070
54.04000 131.374
54.08000 142.295
54.12000 142.556
54.16000 143.106
54.20000 141.460
54.24000 140.492
54.28000 136.783
54.32000 140.771
54.36000 137.833
54.40000 136.600
54.44000 139.643
54.48000 139.936
54.52000 134.239
54.56000 138.323
54.60000 144.338
54.64000 143.991
54.68000 147.763
54.72000 137.807
54.76000 140.271
54.80000 147.899
54.84000 146.897
54.88000 142.800
54.92000 138.680
54.96000 144.708
55.00000 142.864
55.04000 146.481
55.08000 150.161
55.12000 155.302
55.16000 151.356
55.20000 149.547
55.24000 153.923
55.28000 160.836
55.32000 159.000
55.36000 164.454
55.40000 167.390
55.44000 177.384
55.48000 183.887
55.52000 204.245
55.56000 205.390
55.60000 215.672
55.64000 225.500
55.68000 255.718
55.72000 263.108
55.76000 280.704
55.80000 277.407
55.84000 273.320
55.88000 290.836
55.92000 297.095
55.96000 292.779
56.00000 300.272
56.04000 282.154
56.08000 263.390
56.12000 247.199
56.16000 228.674
56.20000 212.493
56.24000 195.934
56.28000 202.107
56.32000 177.138
56.36000 190.671
56.40000 167.512
56.44000 165.147
56.48000 159.069
56.52000 152.507
56.56000 145.698
56.60000 137.500
56.64000 154.266
56.68000 142.467
56.72000 134.550
56.76000 137.599
56.80000 138.801
56.84000 143.781
56.88000 134.468
56.92000 142.962
56.96000 137.714
57.00000 123.699
57.04000 135.413
57.08000 127.175
57.12000 119.948
57.16000 130.124
57.20000 126.397
57.24000 130.711
57.28000 135.277
57.32000 121.213
57.36000 130.468
57.40000 131.192
57.44000 137.738
57.48000 123.939
57.52000 135.034
57.56000 129.308
57.60000 118.710
57.64000 134.831
57.68000 125.840
57.72000 119.608
57.76000 121.408
57.80000 124.196
57.84000 125.603
57.88000 125.216
57.92000 125.967
57.96000 118.159
58.00000 134.091
58.04000 112.815
58.08000 126.171
58.12000 122.624
58.16000 135.127
58.20000 122.977
58.24000 120.163
58.28000 123.059
58.32000 112.719
58.36000 125.003
58.40000 125.272
58.44000 122.394
58.48000 123.023
58.52000 127.430
58.56000 125.300
58.60000 124.962
58.64000 122.339
58.68000 114.328
58.72000 116.486
58.76000 118.173
58.80000 126.464
58.84000 128.077
58.88000 117.707
58.92000 117.754
58.96000 124.900
59.00000 121.625
59.04000 123.551
59.08000 122.251
59.12000 121.767
59.16000 127.397
59.20000 115.280
59.24000 112.894
59.28000 107.428
59.32000 123.757
59.36000 125.889
59.40000 121.413
59.44000 130.079
59.48000 121.081
59.52000 125.921
59.56000 122.680
59.60000 115.270
59.64000 127.499
59.68000 126.338
59.72000 117.753
59.76000 113.267
59.80000 121.359
59.84000 119.684
59.88000 118.438
59.92000 128.673
59.96000 119.948
60.00000 119.081
60.04000 109.453
60.08000 116.973
60.12000 115.523
60.16000 111.018
60.20000 119.530
60.24000 123.731
60.28000 121.846
60.32000 117.474
60.36000 116.153
60.40000 115.491
60.44000 128.850
60.48000 115.547
60.52000 120.272
60.56000 113.271
60.60000 123.213
60.64000 123.004
60.68000 128.036
60.72000 118.821
60.76000 117.254
60.80000 124.863
60.84000 114.444
60.88000 128.141
60.92000 128.030
60.96000 118.318
61.00000 127.794
61.04000 126.194
61.08000 134.251
61.12000 123.607
61.16000 133.617
61.20000 127.899
61.24000 125.116
61.28000 132.373
61.32000 130.396
61.36000 113.240
61.40000 132.771
61.44000 125.739
61.48000 153.773
61.52000 176.598
61.56000 219.293
61.60000 256.719
61.64000 276.017
61.68000 288.208
61.72000 288.156
61.76000 245.579
61.80000 193.754
61.84000 164.449
61.88000 136.162
61.92000 131.733
61.96000 127.471
62.00000 135.656
62.04000 129.741
62.08000 126.296
62.12000 133.365
62.16000 134.162
62.20000 136.795
62.24000 134.527
62.28000 135.324
62.32000 126.937
62.36000 133.181
62.40000 129.457
62.44000 130.901
62.48000 134.300
62.52000 132.701
62.56000 140.868
62.60000 137.018
62.64000 133.804
62.68000 136.463
62.72000 130.516
62.76000 133.917
62.80000 128.633
62.84000 133.884
62.88000 134.234
62.92000 134.750
62.96000 132.670
63.00000 134.448
63.04000 137.063
63.08000 135.659
63.12000 145.235
63.16000 136.434
63.20000 136.052
63.24000 142.773
63.28000 136.252
63.32000 140.132
63.36000 142.253
63.40000 130.576
63.44000 134.726
63.48000 132.343
63.52000 136.562
63.56000 137.941
63.60000 140.287
63.64000 135.626
63.68000 141.216
63.72000 147.024
63.76000 143.503
63.80000 144.098
63.84000 144.093
63.88000 146.388
63.92000 151.218
63.96000 149.328
64.00000 149.304
64.04000 144.341
64.08000 153.475
64.12000 150.877
64.16000 145.455
64.20000 153.102
64.24000 149.531
64.28000 152.140
64.32000 155.863
64.36000 161.374
64.40000 166.689
64.44000 149.468
64.48000 168.455
64.52000 160.902
64.56000 172.680
64.60000 161.330
64.64000 178.186
64.68000 170.977
64.72000 172.630
64.76000 170.319
64.80000 177.643
64.84000 174.279
64.88000 181.220
64.92000 180.941
64.96000 191.022
65.00000 197.770
65.04000 203.325
65.08000 204.295
65.12000 205.805
65.16000 205.277
65.20000 229.322
65.24000 217.973
65.28000 230.684
65.32000 232.019
65.36000 265.759
65.40000 263.290
65.44000 262.012
65.48000 284.569
65.52000 307.932
65.56000 331.408
65.60000 382.312
65.64000 451.037
65.68000 678.353
65.72000 1085.375
65.76000 1565.208
65.80000 1855.894
65.84000 1977.458
65.88000 1966.717
65.92000 1730.401
65.96000 1299.448
66.00000 820.297
66.04000 553.401
66.08000 415.433
66.12000 401.990
66.16000 370.618
66.20000 374.388
66.24000 406.846
66.28000 503.297
66.32000 561.305
66.36000 645.478
66.40000 626.350
66.44000 616.493
66.48000 569.058
66.52000 494.070
66.56000 428.543
66.60000 381.544
66.64000 360.180
66.68000 355.277
66.72000 349.330
66.76000 349.916
66.80000 345.020
66.84000 348.266
66.88000 353.214
66.92000 375.799
66.96000 381.347
67.00000 370.937
67.04000 384.635
67.08000 373.414
67.12000 390.393
67.16000 392.809
67.20000 416.171
67.24000 394.951
67.28000 406.535
67.32000 408.780
67.36000 407.149
67.40000 430.006
67.44000 425.345
67.48000 425.589
67.52000 437.856
67.56000 445.569
67.60000 450.090
67.64000 455.139
67.68000 442.430
67.72000 474.764
67.76000 462.780
67.80000 472.150
67.84000 463.629
67.88000 495.299
67.92000 489.332
67.96000 510.311
68.00000 501.093
68.04000 518.407
68.08000 516.216
68.12000 548.384
68.16000 541.820
68.20000 548.064
68.24000 564.257
68.28000 588.228
68.32000 609.143
68.36000 618.062
68.40000 622.376
68.44000 649.596
68.48000 732.365
68.52000 732.649
68.56000 804.864
68.60000 911.655
68.64000 1046.270
68.68000 1204.698
68.72000 1362.802
68.76000 1567.089
68.80000 1755.640
68.84000 2016.880
68.88000 2737.365
68.92000 5450.775
68.96000 13928.622
69.00000 27511.605
69.04000 38183.918
69.08000 42467.570
69.12000 44969.441
69.16000 47731.801
69.20000 43142.270
69.24000 31771.141
69.28000 24200.438
69.32000 21661.498
69.36000 20088.033
69.40000 14811.857
69.44000 7542.143
69.48000 3144.011
69.52000 1696.961
69.56000 1202.529
69.60000 987.245
69.64000 892.864
69.68000 800.630
69.72000 720.565
69.76000 669.918
69.80000 613.883
69.84000 580.974
69.88000 554.513
69.92000 539.972
69.96000 520.616
70.00000 492.570