File: XRD/08-10-2025 Dep 7/XY Data/BTO_Mapping_Theta2Theta_08-10-2025_001_16_9-271_28-532.xy
20.00000 483.066
20.04000 487.004
20.08000 477.241
20.12000 458.714
20.16000 468.104
20.20000 488.186
20.24000 474.645
20.28000 482.847
20.32000 477.944
20.36000 463.605
20.40000 491.962
20.44000 476.440
20.48000 467.491
20.52000 487.985
20.56000 476.599
20.60000 469.669
20.64000 465.613
20.68000 475.042
20.72000 450.983
20.76000 478.557
20.80000 472.852
20.84000 478.514
20.88000 458.543
20.92000 451.465
20.96000 477.944
21.00000 463.648
21.04000 459.362
21.08000 466.065
21.12000 469.643
21.16000 463.426
21.20000 476.492
21.24000 474.879
21.28000 465.977
21.32000 471.519
21.36000 468.562
21.40000 459.913
21.44000 470.380
21.48000 448.161
21.52000 470.584
21.56000 454.993
21.60000 469.676
21.64000 456.500
21.68000 475.105
21.72000 480.404
21.76000 477.821
21.80000 476.737
21.84000 486.656
21.88000 476.120
21.92000 480.440
21.96000 513.264
22.00000 506.078
22.04000 515.883
22.08000 518.213
22.12000 505.483
22.16000 517.234
22.20000 518.164
22.24000 487.318
22.28000 481.376
22.32000 476.608
22.36000 476.872
22.40000 457.529
22.44000 465.020
22.48000 464.324
22.52000 457.309
22.56000 465.971
22.60000 446.814
22.64000 442.034
22.68000 427.612
22.72000 453.824
22.76000 446.591
22.80000 457.887
22.84000 430.545
22.88000 434.928
22.92000 464.056
22.96000 455.329
23.00000 445.645
23.04000 464.844
23.08000 434.815
23.12000 438.536
23.16000 448.872
23.20000 465.993
23.24000 446.188
23.28000 451.167
23.32000 456.960
23.36000 454.703
23.40000 442.810
23.44000 449.476
23.48000 438.998
23.52000 447.894
23.56000 445.535
23.60000 447.807
23.64000 449.026
23.68000 470.252
23.72000 460.896
23.76000 480.978
23.80000 491.324
23.84000 527.891
23.88000 535.773
23.92000 524.474
23.96000 548.319
24.00000 538.931
24.04000 543.539
24.08000 539.512
24.12000 516.739
24.16000 500.090
24.20000 485.644
24.24000 486.133
24.28000 467.070
24.32000 458.658
24.36000 471.310
24.40000 442.647
24.44000 425.433
24.48000 446.314
24.52000 425.265
24.56000 441.022
24.60000 431.116
24.64000 427.273
24.68000 418.992
24.72000 402.559
24.76000 403.778
24.80000 405.613
24.84000 420.388
24.88000 431.211
24.92000 404.704
24.96000 402.179
25.00000 411.755
25.04000 408.452
25.08000 408.036
25.12000 400.069
25.16000 409.995
25.20000 414.787
25.24000 408.608
25.28000 405.829
25.32000 422.885
25.36000 395.851
25.40000 417.674
25.44000 401.757
25.48000 389.986
25.52000 392.744
25.56000 403.587
25.60000 395.450
25.64000 397.754
25.68000 390.321
25.72000 391.991
25.76000 397.581
25.80000 360.599
25.84000 393.936
25.88000 388.755
25.92000 409.415
25.96000 385.921
26.00000 378.597
26.04000 386.405
26.08000 389.458
26.12000 381.014
26.16000 397.742
26.20000 383.341
26.24000 402.745
26.28000 395.136
26.32000 407.174
26.36000 396.311
26.40000 393.567
26.44000 378.685
26.48000 393.287
26.52000 385.117
26.56000 377.412
26.60000 368.281
26.64000 381.061
26.68000 383.673
26.72000 383.401
26.76000 374.563
26.80000 385.305
26.84000 363.902
26.88000 390.756
26.92000 382.736
26.96000 375.482
27.00000 380.205
27.04000 392.215
27.08000 372.218
27.12000 371.777
27.16000 377.543
27.20000 373.196
27.24000 365.704
27.28000 381.853
27.32000 376.621
27.36000 382.034
27.40000 367.100
27.44000 381.651
27.48000 368.407
27.52000 387.548
27.56000 374.750
27.60000 371.946
27.64000 364.460
27.68000 376.152
27.72000 369.321
27.76000 356.721
27.80000 368.915
27.84000 375.748
27.88000 357.033
27.92000 368.305
27.96000 372.982
28.00000 372.758
28.04000 367.004
28.08000 366.277
28.12000 362.314
28.16000 352.656
28.20000 380.288
28.24000 375.504
28.28000 374.156
28.32000 377.395
28.36000 376.131
28.40000 369.611
28.44000 357.400
28.48000 349.128
28.52000 358.339
28.56000 365.608
28.60000 357.730
28.64000 357.163
28.68000 358.528
28.72000 349.720
28.76000 360.040
28.80000 349.643
28.84000 362.717
28.88000 347.313
28.92000 365.346
28.96000 370.785
29.00000 356.249
29.04000 353.738
29.08000 373.925
29.12000 362.840
29.16000 353.741
29.20000 356.151
29.24000 344.483
29.28000 342.226
29.32000 356.012
29.36000 349.552
29.40000 342.347
29.44000 354.304
29.48000 344.531
29.52000 357.427
29.56000 364.610
29.60000 352.870
29.64000 358.585
29.68000 343.039
29.72000 367.465
29.76000 373.209
29.80000 360.351
29.84000 365.957
29.88000 369.359
29.92000 366.922
29.96000 383.429
30.00000 382.773
30.04000 387.826
30.08000 386.885
30.12000 402.074
30.16000 377.188
30.20000 359.433
30.24000 365.888
30.28000 368.829
30.32000 378.120
30.36000 379.773
30.40000 357.423
30.44000 365.753
30.48000 367.310
30.52000 356.143
30.56000 370.430
30.60000 357.280
30.64000 378.629
30.68000 367.883
30.72000 374.293
30.76000 392.042
30.80000 400.252
30.84000 392.190
30.88000 391.764
30.92000 421.653
30.96000 440.577
31.00000 457.365
31.04000 489.882
31.08000 531.835
31.12000 600.446
31.16000 658.847
31.20000 749.057
31.24000 839.283
31.28000 940.038
31.32000 1035.740
31.36000 1092.351
31.40000 1090.851
31.44000 1069.830
31.48000 982.492
31.52000 923.890
31.56000 790.586
31.60000 703.543
31.64000 607.321
31.68000 527.862
31.72000 493.482
31.76000 435.516
31.80000 427.306
31.84000 408.327
31.88000 392.917
31.92000 365.029
31.96000 361.925
32.00000 346.635
32.04000 360.817
32.08000 364.119
32.12000 352.224
32.16000 316.675
32.20000 354.301
32.24000 351.309
32.28000 329.193
32.32000 339.873
32.36000 336.742
32.40000 338.418
32.44000 332.669
32.48000 320.727
32.52000 329.510
32.56000 311.390
32.60000 317.949
32.64000 319.230
32.68000 326.602
32.72000 337.238
32.76000 326.849
32.80000 318.721
32.84000 324.212
32.88000 325.706
32.92000 312.806
32.96000 314.465
33.00000 305.279
33.04000 304.529
33.08000 309.338
33.12000 312.618
33.16000 307.259
33.20000 309.947
33.24000 306.572
33.28000 289.077
33.32000 297.756
33.36000 298.734
33.40000 296.268
33.44000 306.306
33.48000 284.571
33.52000 290.576
33.56000 303.560
33.60000 290.407
33.64000 313.610
33.68000 305.769
33.72000 297.767
33.76000 297.619
33.80000 304.991
33.84000 304.097
33.88000 313.920
33.92000 308.754
33.96000 320.087
34.00000 319.349
34.04000 319.892
34.08000 319.624
34.12000 314.652
34.16000 320.395
34.20000 340.156
34.24000 340.290
34.28000 341.670
34.32000 345.887
34.36000 354.106
34.40000 339.603
34.44000 372.684
34.48000 339.484
34.52000 319.504
34.56000 328.970
34.60000 316.020
34.64000 319.288
34.68000 305.306
34.72000 298.439
34.76000 295.394
34.80000 283.666
34.84000 277.017
34.88000 281.444
34.92000 285.833
34.96000 279.444
35.00000 281.657
35.04000 276.358
35.08000 281.778
35.12000 262.769
35.16000 266.063
35.20000 275.046
35.24000 288.776
35.28000 265.151
35.32000 277.592
35.36000 271.204
35.40000 273.500
35.44000 258.799
35.48000 272.143
35.52000 263.784
35.56000 266.859
35.60000 273.177
35.64000 267.375
35.68000 246.351
35.72000 265.634
35.76000 269.021
35.80000 259.764
35.84000 255.573
35.88000 257.583
35.92000 269.696
35.96000 270.702
36.00000 263.304
36.04000 268.836
36.08000 251.564
36.12000 256.749
36.16000 257.909
36.20000 260.813
36.24000 250.957
36.28000 263.033
36.32000 255.573
36.36000 259.175
36.40000 269.502
36.44000 241.099
36.48000 263.411
36.52000 259.544
36.56000 260.047
36.60000 265.639
36.64000 250.740
36.68000 255.511
36.72000 249.963
36.76000 251.175
36.80000 253.943
36.84000 260.149
36.88000 271.149
36.92000 261.002
36.96000 271.781
37.00000 272.952
37.04000 247.980
37.08000 263.644
37.12000 265.600
37.16000 275.314
37.20000 262.855
37.24000 261.022
37.28000 263.514
37.32000 279.921
37.36000 256.280
37.40000 264.368
37.44000 258.575
37.48000 259.745
37.52000 244.160
37.56000 258.994
37.60000 260.975
37.64000 251.919
37.68000 243.994
37.72000 248.540
37.76000 250.221
37.80000 263.707
37.84000 240.405
37.88000 251.377
37.92000 262.968
37.96000 260.440
38.00000 259.605
38.04000 262.287
38.08000 252.474
38.12000 256.519
38.16000 268.204
38.20000 265.434
38.24000 262.840
38.28000 296.550
38.32000 286.381
38.36000 298.924
38.40000 349.221
38.44000 353.638
38.48000 391.204
38.52000 480.300
38.56000 556.972
38.60000 638.489
38.64000 742.619
38.68000 782.976
38.72000 792.690
38.76000 783.942
38.80000 744.544
38.84000 663.896
38.88000 560.535
38.92000 458.186
38.96000 401.037
39.00000 349.762
39.04000 310.565
39.08000 280.168
39.12000 244.105
39.16000 253.183
39.20000 251.526
39.24000 236.693
39.28000 242.671
39.32000 234.602
39.36000 247.156
39.40000 244.818
39.44000 236.117
39.48000 242.591
39.52000 234.279
39.56000 248.208
39.60000 246.641
39.64000 238.882
39.68000 234.860
39.72000 223.647
39.76000 245.169
39.80000 240.890
39.84000 229.015
39.88000 233.370
39.92000 224.058
39.96000 222.943
40.00000 223.507
40.04000 239.090
40.08000 241.998
40.12000 225.002
40.16000 227.355
40.20000 228.821
40.24000 220.214
40.28000 228.148
40.32000 225.322
40.36000 228.709
40.40000 226.969
40.44000 227.690
40.48000 231.848
40.52000 212.506
40.56000 214.970
40.60000 214.203
40.64000 224.953
40.68000 222.731
40.72000 226.500
40.76000 224.896
40.80000 222.310
40.84000 204.901
40.88000 212.104
40.92000 210.691
40.96000 208.596
41.00000 225.290
41.04000 207.113
41.08000 216.500
41.12000 214.254
41.16000 206.858
41.20000 222.178
41.24000 206.384
41.28000 196.721
41.32000 215.954
41.36000 212.668
41.40000 215.679
41.44000 208.079
41.48000 209.952
41.52000 217.167
41.56000 206.587
41.60000 206.541
41.64000 198.285
41.68000 201.798
41.72000 212.230
41.76000 215.652
41.80000 207.369
41.84000 219.507
41.88000 213.722
41.92000 209.378
41.96000 218.027
42.00000 219.355
42.04000 208.400
42.08000 230.557
42.12000 233.329
42.16000 220.726
42.20000 232.592
42.24000 227.628
42.28000 209.727
42.32000 218.419
42.36000 219.532
42.40000 214.907
42.44000 221.488
42.48000 212.232
42.52000 208.444
42.56000 223.322
42.60000 219.484
42.64000 211.182
42.68000 206.811
42.72000 202.142
42.76000 206.122
42.80000 212.485
42.84000 208.508
42.88000 207.422
42.92000 201.618
42.96000 209.008
43.00000 199.157
43.04000 216.641
43.08000 198.280
43.12000 211.865
43.16000 209.763
43.20000 195.187
43.24000 199.649
43.28000 185.609
43.32000 211.715
43.36000 201.178
43.40000 197.554
43.44000 205.306
43.48000 206.868
43.52000 191.756
43.56000 199.024
43.60000 190.531
43.64000 200.675
43.68000 188.983
43.72000 201.357
43.76000 193.522
43.80000 195.653
43.84000 190.982
43.88000 192.104
43.92000 192.994
43.96000 183.806
44.00000 180.644
44.04000 200.436
44.08000 200.678
44.12000 194.028
44.16000 204.961
44.20000 178.803
44.24000 191.770
44.28000 196.014
44.32000 210.766
44.36000 199.091
44.40000 189.997
44.44000 199.709
44.48000 207.573
44.52000 210.536
44.56000 207.958
44.60000 212.222
44.64000 209.275
44.68000 206.884
44.72000 203.341
44.76000 216.314
44.80000 217.197
44.84000 222.975
44.88000 235.356
44.92000 230.757
44.96000 227.328
45.00000 227.789
45.04000 242.706
45.08000 241.810
45.12000 226.862
45.16000 225.083
45.20000 237.364
45.24000 223.167
45.28000 221.927
45.32000 232.479
45.36000 204.214
45.40000 213.811
45.44000 208.947
45.48000 201.778
45.52000 200.502
45.56000 199.823
45.60000 197.211
45.64000 204.491
45.68000 203.983
45.72000 190.425
45.76000 168.475
45.80000 185.403
45.84000 188.909
45.88000 187.429
45.92000 184.913
45.96000 175.458
46.00000 169.607
46.04000 177.313
46.08000 180.385
46.12000 174.411
46.16000 174.847
46.20000 188.913
46.24000 192.209
46.28000 174.275
46.32000 175.285
46.36000 180.249
46.40000 182.834
46.44000 182.219
46.48000 170.297
46.52000 169.894
46.56000 167.135
46.60000 177.053
46.64000 168.790
46.68000 179.340
46.72000 167.952
46.76000 172.654
46.80000 181.179
46.84000 176.975
46.88000 171.682
46.92000 176.047
46.96000 167.068
47.00000 177.318
47.04000 178.265
47.08000 167.736
47.12000 172.265
47.16000 172.466
47.20000 163.316
47.24000 164.739
47.28000 168.923
47.32000 168.134
47.36000 161.336
47.40000 162.389
47.44000 155.563
47.48000 176.965
47.52000 171.877
47.56000 164.708
47.60000 157.265
47.64000 163.510
47.68000 165.197
47.72000 167.823
47.76000 154.427
47.80000 154.766
47.84000 164.336
47.88000 161.320
47.92000 164.159
47.96000 163.357
48.00000 162.780
48.04000 164.501
48.08000 161.915
48.12000 156.486
48.16000 158.400
48.20000 166.865
48.24000 154.974
48.28000 165.302
48.32000 160.274
48.36000 168.546
48.40000 154.781
48.44000 169.940
48.48000 157.111
48.52000 159.410
48.56000 156.345
48.60000 162.489
48.64000 160.891
48.68000 149.184
48.72000 153.341
48.76000 161.655
48.80000 153.440
48.84000 156.757
48.88000 156.764
48.92000 150.081
48.96000 145.142
49.00000 154.432
49.04000 151.472
49.08000 160.855
49.12000 143.678
49.16000 153.199
49.20000 151.389
49.24000 152.386
49.28000 155.399
49.32000 151.378
49.36000 153.819
49.40000 162.014
49.44000 156.047
49.48000 162.803
49.52000 166.694
49.56000 154.285
49.60000 156.929
49.64000 163.264
49.68000 155.468
49.72000 152.213
49.76000 143.693
49.80000 168.576
49.84000 160.271
49.88000 149.970
49.92000 146.370
49.96000 145.487
50.00000 146.829
50.04000 145.836
50.08000 164.642
50.12000 161.228
50.16000 158.066
50.20000 155.556
50.24000 156.772
50.28000 146.824
50.32000 160.776
50.36000 140.941
50.40000 163.264
50.44000 160.150
50.48000 147.277
50.52000 147.182
50.56000 150.567
50.60000 168.051
50.64000 158.806
50.68000 175.475
50.72000 168.314
50.76000 160.432
50.80000 164.177
50.84000 162.072
50.88000 160.627
50.92000 159.580
50.96000 146.009
51.00000 143.895
51.04000 156.563
51.08000 156.931
51.12000 158.734
51.16000 151.813
51.20000 150.187
51.24000 146.233
51.28000 150.196
51.32000 140.283
51.36000 146.666
51.40000 148.860
51.44000 141.546
51.48000 145.031
51.52000 136.034
51.56000 140.830
51.60000 156.966
51.64000 152.932
51.68000 141.288
51.72000 143.143
51.76000 150.416
51.80000 151.315
51.84000 149.400
51.88000 153.982
51.92000 141.629
51.96000 136.705
52.00000 136.175
52.04000 141.512
52.08000 142.274
52.12000 143.388
52.16000 144.643
52.20000 134.455
52.24000 128.261
52.28000 142.512
52.32000 144.610
52.36000 140.744
52.40000 133.256
52.44000 145.167
52.48000 137.073
52.52000 131.408
52.56000 135.696
52.60000 147.705
52.64000 149.155
52.68000 145.382
52.72000 136.835
52.76000 137.490
52.80000 147.505
52.84000 144.998
52.88000 131.311
52.92000 149.114
52.96000 132.722
53.00000 136.476
53.04000 137.136
53.08000 140.512
53.12000 140.812
53.16000 134.243
53.20000 147.655
53.24000 142.336
53.28000 143.471
53.32000 138.357
53.36000 150.884
53.40000 149.247
53.44000 150.985
53.48000 146.294
53.52000 154.582
53.56000 156.320
53.60000 148.186
53.64000 137.660
53.68000 151.130
53.72000 149.046
53.76000 153.235
53.80000 144.657
53.84000 146.619
53.88000 143.801
53.92000 141.893
53.96000 141.867
54.00000 147.185
54.04000 133.119
54.08000 134.407
54.12000 139.905
54.16000 140.535
54.20000 142.369
54.24000 143.217
54.28000 136.834
54.32000 134.047
54.36000 129.201
54.40000 143.337
54.44000 143.414
54.48000 132.089
54.52000 141.892
54.56000 132.502
54.60000 146.789
54.64000 137.768
54.68000 136.630
54.72000 131.921
54.76000 145.348
54.80000 149.919
54.84000 155.449
54.88000 146.300
54.92000 149.772
54.96000 142.256
55.00000 155.974
55.04000 152.227
55.08000 148.050
55.12000 141.681
55.16000 140.946
55.20000 148.954
55.24000 158.853
55.28000 160.335
55.32000 160.411
55.36000 181.965
55.40000 172.578
55.44000 180.504
55.48000 190.786
55.52000 195.083
55.56000 210.789
55.60000 222.639
55.64000 240.894
55.68000 268.416
55.72000 269.070
55.76000 309.480
55.80000 354.563
55.84000 385.151
55.88000 400.716
55.92000 415.029
55.96000 422.668
56.00000 399.427
56.04000 387.887
56.08000 369.221
56.12000 344.052
56.16000 298.731
56.20000 276.733
56.24000 256.326
56.28000 217.946
56.32000 209.394
56.36000 202.856
56.40000 196.177
56.44000 167.706
56.48000 164.217
56.52000 158.696
56.56000 161.687
56.60000 150.664
56.64000 149.046
56.68000 146.858
56.72000 139.645
56.76000 126.683
56.80000 133.130
56.84000 137.722
56.88000 136.512
56.92000 136.376
56.96000 125.694
57.00000 130.543
57.04000 140.335
57.08000 128.860
57.12000 126.656
57.16000 125.997
57.20000 126.080
57.24000 134.709
57.28000 133.106
57.32000 130.454
57.36000 134.851
57.40000 132.228
57.44000 122.702
57.48000 120.716
57.52000 129.788
57.56000 130.292
57.60000 120.209
57.64000 130.482
57.68000 133.312
57.72000 118.777
57.76000 129.807
57.80000 132.916
57.84000 111.796
57.88000 133.104
57.92000 138.815
57.96000 133.441
58.00000 132.750
58.04000 120.552
58.08000 133.732
58.12000 125.513
58.16000 127.324
58.20000 122.993
58.24000 120.717
58.28000 112.556
58.32000 112.519
58.36000 108.363
58.40000 124.563
58.44000 120.281
58.48000 116.466
58.52000 126.206
58.56000 113.378
58.60000 119.126
58.64000 116.892
58.68000 120.158
58.72000 119.774
58.76000 122.644
58.80000 118.714
58.84000 121.997
58.88000 121.339
58.92000 123.491
58.96000 118.402
59.00000 120.740
59.04000 119.665
59.08000 113.660
59.12000 123.710
59.16000 123.415
59.20000 130.986
59.24000 118.137
59.28000 122.445
59.32000 116.890
59.36000 117.878
59.40000 124.296
59.44000 114.314
59.48000 121.495
59.52000 118.274
59.56000 127.026
59.60000 121.768
59.64000 111.583
59.68000 113.762
59.72000 123.248
59.76000 124.025
59.80000 119.087
59.84000 122.421
59.88000 117.195
59.92000 114.578
59.96000 118.720
60.00000 109.295
60.04000 117.341
60.08000 119.213
60.12000 119.250
60.16000 119.276
60.20000 125.605
60.24000 118.433
60.28000 123.647
60.32000 122.546
60.36000 126.516
60.40000 124.532
60.44000 122.891
60.48000 111.866
60.52000 127.328
60.56000 116.798
60.60000 123.295
60.64000 116.236
60.68000 128.511
60.72000 117.747
60.76000 112.235
60.80000 118.444
60.84000 124.185
60.88000 122.590
60.92000 118.780
60.96000 116.878
61.00000 117.991
61.04000 121.052
61.08000 133.820
61.12000 127.750
61.16000 129.667
61.20000 124.251
61.24000 132.047
61.28000 126.940
61.32000 134.225
61.36000 120.277
61.40000 130.826
61.44000 141.030
61.48000 131.333
61.52000 164.688
61.56000 200.779
61.60000 237.408
61.64000 267.969
61.68000 295.599
61.72000 293.862
61.76000 278.685
61.80000 222.792
61.84000 172.152
61.88000 151.413
61.92000 133.945
61.96000 133.671
62.00000 135.133
62.04000 134.199
62.08000 138.647
62.12000 138.487
62.16000 136.571
62.20000 129.580
62.24000 128.470
62.28000 130.156
62.32000 133.552
62.36000 132.729
62.40000 126.522
62.44000 126.052
62.48000 123.154
62.52000 121.991
62.56000 137.314
62.60000 121.274
62.64000 122.753
62.68000 133.483
62.72000 128.647
62.76000 126.919
62.80000 127.869
62.84000 130.531
62.88000 131.457
62.92000 145.511
62.96000 130.386
63.00000 137.677
63.04000 125.597
63.08000 129.350
63.12000 130.272
63.16000 128.859
63.20000 127.666
63.24000 138.750
63.28000 136.479
63.32000 147.183
63.36000 135.841
63.40000 129.993
63.44000 143.470
63.48000 135.191
63.52000 138.440
63.56000 125.317
63.60000 134.335
63.64000 142.786
63.68000 141.229
63.72000 144.967
63.76000 143.246
63.80000 141.391
63.84000 136.954
63.88000 143.074
63.92000 140.508
63.96000 144.701
64.00000 141.048
64.04000 152.514
64.08000 140.888
64.12000 149.212
64.16000 139.614
64.20000 148.665
64.24000 149.782
64.28000 154.546
64.32000 156.540
64.36000 154.351
64.40000 161.255
64.44000 155.200
64.48000 146.164
64.52000 163.021
64.56000 161.523
64.60000 170.376
64.64000 165.381
64.68000 153.615
64.72000 166.712
64.76000 173.163
64.80000 170.425
64.84000 188.340
64.88000 174.022
64.92000 183.932
64.96000 184.035
65.00000 190.304
65.04000 188.113
65.08000 198.919
65.12000 192.610
65.16000 200.686
65.20000 210.872
65.24000 216.818
65.28000 226.397
65.32000 224.305
65.36000 235.473
65.40000 252.194
65.44000 272.488
65.48000 279.126
65.52000 285.314
65.56000 313.314
65.60000 357.401
65.64000 400.327
65.68000 568.178
65.72000 846.581
65.76000 1318.482
65.80000 1672.409
65.84000 1904.983
65.88000 1944.316
65.92000 1888.294
65.96000 1534.099
66.00000 1060.677
66.04000 638.768
66.08000 472.375
66.12000 400.069
66.16000 365.305
66.20000 368.743
66.24000 381.296
66.28000 435.220
66.32000 508.305
66.36000 581.458
66.40000 606.509
66.44000 618.293
66.48000 593.792
66.52000 525.293
66.56000 463.844
66.60000 383.510
66.64000 379.124
66.68000 377.239
66.72000 351.139
66.76000 346.167
66.80000 365.131
66.84000 356.290
66.88000 356.897
66.92000 359.316
66.96000 364.453
67.00000 374.153
67.04000 375.683
67.08000 378.175
67.12000 389.049
67.16000 404.331
67.20000 377.640
67.24000 395.662
67.28000 382.108
67.32000 394.974
67.36000 398.952
67.40000 431.198
67.44000 406.957
67.48000 403.926
67.52000 435.384
67.56000 425.355
67.60000 434.843
67.64000 445.371
67.68000 424.942
67.72000 457.715
67.76000 477.587
67.80000 465.565
67.84000 468.879
67.88000 464.569
67.92000 486.629
67.96000 486.992
68.00000 517.451
68.04000 511.195
68.08000 531.338
68.12000 533.126
68.16000 545.935
68.20000 568.593
68.24000 565.549
68.28000 560.240
68.32000 568.663
68.36000 621.168
68.40000 625.136
68.44000 659.572
68.48000 675.339
68.52000 706.835
68.56000 767.203
68.60000 832.667
68.64000 975.427
68.68000 1114.076
68.72000 1282.509
68.76000 1449.995
68.80000 1641.555
68.84000 1876.198
68.88000 2268.665
68.92000 3491.047
68.96000 8336.895
69.00000 19941.549
69.04000 33020.332
69.08000 40300.969
69.12000 43100.469
69.16000 46105.547
69.20000 45775.105
69.24000 37427.914
69.28000 27135.627
69.32000 22515.215
69.36000 20830.719
69.40000 17820.027
69.44000 10977.035
69.48000 5034.379
69.52000 2279.765
69.56000 1344.434
69.60000 1094.293
69.64000 929.094
69.68000 833.012
69.72000 725.629
69.76000 665.590
69.80000 632.774
69.84000 601.189
69.88000 565.369
69.92000 543.898
69.96000 499.831
70.00000 490.893