File: XRD/08-10-2025 Dep 7/XY Data/BTO_Mapping_Theta2Theta_08-10-2025_001_35_-19-563_-4-158.xy
20.00000 489.484
20.04000 461.058
20.08000 493.297
20.12000 484.160
20.16000 469.361
20.20000 478.906
20.24000 464.894
20.28000 471.896
20.32000 496.726
20.36000 484.474
20.40000 467.705
20.44000 450.675
20.48000 464.935
20.52000 453.868
20.56000 473.803
20.60000 467.692
20.64000 468.020
20.68000 469.939
20.72000 450.671
20.76000 463.694
20.80000 479.799
20.84000 475.430
20.88000 469.512
20.92000 460.702
20.96000 445.916
21.00000 464.861
21.04000 475.044
21.08000 475.518
21.12000 457.370
21.16000 467.835
21.20000 458.195
21.24000 466.936
21.28000 483.110
21.32000 464.891
21.36000 445.634
21.40000 469.729
21.44000 468.020
21.48000 463.172
21.52000 468.601
21.56000 460.209
21.60000 465.038
21.64000 460.349
21.68000 498.824
21.72000 496.530
21.76000 507.991
21.80000 498.316
21.84000 527.579
21.88000 540.653
21.92000 598.248
21.96000 604.181
22.00000 628.803
22.04000 615.670
22.08000 622.210
22.12000 597.137
22.16000 604.343
22.20000 567.493
22.24000 562.853
22.28000 527.206
22.32000 505.100
22.36000 498.732
22.40000 472.255
22.44000 466.087
22.48000 452.604
22.52000 475.561
22.56000 472.313
22.60000 435.145
22.64000 456.215
22.68000 426.732
22.72000 444.303
22.76000 433.619
22.80000 432.625
22.84000 452.512
22.88000 439.104
22.92000 453.755
22.96000 443.488
23.00000 428.904
23.04000 417.395
23.08000 423.496
23.12000 432.805
23.16000 430.426
23.20000 423.363
23.24000 443.231
23.28000 439.891
23.32000 410.015
23.36000 444.590
23.40000 425.873
23.44000 426.335
23.48000 437.478
23.52000 434.498
23.56000 441.905
23.60000 442.874
23.64000 446.451
23.68000 444.870
23.72000 441.089
23.76000 418.860
23.80000 438.935
23.84000 447.315
23.88000 441.384
23.92000 447.263
23.96000 420.537
24.00000 452.335
24.04000 468.492
24.08000 452.308
24.12000 441.006
24.16000 443.918
24.20000 434.808
24.24000 425.822
24.28000 441.835
24.32000 417.983
24.36000 397.857
24.40000 420.606
24.44000 428.855
24.48000 411.768
24.52000 428.439
24.56000 402.099
24.60000 424.501
24.64000 417.900
24.68000 415.658
24.72000 399.639
24.76000 409.328
24.80000 412.692
24.84000 397.227
24.88000 404.174
24.92000 395.964
24.96000 403.497
25.00000 405.562
25.04000 406.485
25.08000 400.938
25.12000 411.493
25.16000 403.499
25.20000 403.144
25.24000 405.717
25.28000 403.436
25.32000 398.826
25.36000 392.519
25.40000 376.270
25.44000 404.803
25.48000 396.462
25.52000 394.625
25.56000 404.926
25.60000 405.770
25.64000 392.215
25.68000 396.361
25.72000 384.474
25.76000 400.888
25.80000 395.453
25.84000 391.601
25.88000 409.802
25.92000 388.410
25.96000 384.071
26.00000 374.278
26.04000 390.406
26.08000 379.908
26.12000 389.524
26.16000 386.730
26.20000 385.408
26.24000 383.000
26.28000 383.885
26.32000 389.071
26.36000 382.125
26.40000 379.964
26.44000 379.145
26.48000 384.954
26.52000 382.905
26.56000 395.219
26.60000 386.065
26.64000 373.095
26.68000 383.844
26.72000 370.167
26.76000 367.403
26.80000 371.266
26.84000 367.166
26.88000 381.197
26.92000 373.607
26.96000 371.150
27.00000 370.456
27.04000 367.207
27.08000 379.083
27.12000 363.103
27.16000 370.118
27.20000 388.947
27.24000 381.231
27.28000 349.389
27.32000 368.264
27.36000 378.296
27.40000 388.253
27.44000 365.055
27.48000 381.865
27.52000 377.239
27.56000 386.590
27.60000 399.654
27.64000 359.002
27.68000 369.337
27.72000 380.703
27.76000 387.836
27.80000 380.852
27.84000 366.927
27.88000 367.192
27.92000 371.684
27.96000 366.783
28.00000 380.295
28.04000 367.765
28.08000 367.144
28.12000 372.017
28.16000 374.498
28.20000 365.447
28.24000 368.990
28.28000 370.703
28.32000 353.199
28.36000 367.211
28.40000 349.763
28.44000 379.330
28.48000 371.320
28.52000 352.747
28.56000 364.965
28.60000 373.658
28.64000 380.917
28.68000 352.466
28.72000 356.637
28.76000 352.657
28.80000 344.485
28.84000 356.296
28.88000 355.861
28.92000 348.910
28.96000 351.929
29.00000 373.224
29.04000 344.691
29.08000 351.275
29.12000 354.798
29.16000 360.399
29.20000 370.099
29.24000 350.456
29.28000 362.001
29.32000 349.519
29.36000 345.826
29.40000 349.799
29.44000 352.477
29.48000 352.095
29.52000 356.151
29.56000 341.124
29.60000 364.962
29.64000 363.339
29.68000 358.867
29.72000 386.724
29.76000 388.240
29.80000 396.346
29.84000 400.417
29.88000 422.827
29.92000 417.768
29.96000 404.846
30.00000 426.380
30.04000 416.035
30.08000 417.228
30.12000 416.468
30.16000 405.195
30.20000 411.928
30.24000 398.581
30.28000 393.509
30.32000 390.484
30.36000 367.839
30.40000 382.454
30.44000 382.402
30.48000 386.293
30.52000 384.195
30.56000 379.663
30.60000 389.599
30.64000 374.534
30.68000 387.758
30.72000 379.432
30.76000 391.349
30.80000 383.070
30.84000 410.934
30.88000 423.006
30.92000 463.107
30.96000 494.691
31.00000 584.848
31.04000 696.186
31.08000 859.808
31.12000 1054.615
31.16000 1341.566
31.20000 1633.902
31.24000 1971.764
31.28000 2278.973
31.32000 2491.466
31.36000 2536.679
31.40000 2444.585
31.44000 2215.526
31.48000 1927.963
31.52000 1628.702
31.56000 1251.010
31.60000 1009.803
31.64000 742.961
31.68000 635.963
31.72000 538.784
31.76000 458.285
31.80000 419.368
31.84000 397.594
31.88000 383.757
31.92000 368.772
31.96000 356.509
32.00000 345.487
32.04000 344.552
32.08000 332.515
32.12000 347.786
32.16000 355.611
32.20000 334.176
32.24000 343.229
32.28000 333.287
32.32000 337.526
32.36000 318.314
32.40000 324.042
32.44000 337.708
32.48000 316.985
32.52000 320.283
32.56000 325.400
32.60000 319.243
32.64000 329.375
32.68000 327.880
32.72000 329.873
32.76000 314.373
32.80000 323.033
32.84000 315.107
32.88000 312.671
32.92000 326.711
32.96000 323.615
33.00000 320.427
33.04000 316.593
33.08000 307.603
33.12000 304.903
33.16000 296.974
33.20000 299.720
33.24000 296.391
33.28000 311.269
33.32000 301.191
33.36000 295.464
33.40000 316.176
33.44000 302.216
33.48000 312.209
33.52000 275.867
33.56000 293.460
33.60000 298.475
33.64000 307.815
33.68000 293.184
33.72000 295.553
33.76000 291.764
33.80000 295.283
33.84000 308.069
33.88000 310.181
33.92000 302.520
33.96000 310.580
34.00000 294.149
34.04000 320.209
34.08000 305.824
34.12000 312.375
34.16000 321.289
34.20000 320.960
34.24000 326.037
34.28000 321.690
34.32000 337.311
34.36000 324.218
34.40000 327.947
34.44000 314.785
34.48000 313.934
34.52000 322.528
34.56000 317.553
34.60000 303.200
34.64000 299.395
34.68000 307.202
34.72000 302.467
34.76000 295.910
34.80000 294.814
34.84000 278.888
34.88000 286.783
34.92000 285.202
34.96000 285.290
35.00000 274.794
35.04000 262.643
35.08000 272.711
35.12000 280.339
35.16000 288.160
35.20000 278.447
35.24000 269.845
35.28000 259.667
35.32000 275.496
35.36000 272.398
35.40000 262.111
35.44000 258.345
35.48000 263.250
35.52000 267.719
35.56000 264.599
35.60000 266.262
35.64000 270.575
35.68000 266.779
35.72000 264.690
35.76000 266.171
35.80000 260.533
35.84000 263.394
35.88000 258.840
35.92000 267.486
35.96000 257.825
36.00000 263.764
36.04000 259.226
36.08000 263.568
36.12000 253.561
36.16000 259.718
36.20000 260.917
36.24000 268.961
36.28000 270.997
36.32000 270.541
36.36000 247.876
36.40000 251.893
36.44000 257.423
36.48000 263.077
36.52000 244.096
36.56000 256.861
36.60000 256.555
36.64000 238.493
36.68000 245.688
36.72000 258.230
36.76000 267.536
36.80000 254.145
36.84000 299.054
36.88000 268.851
36.92000 278.338
36.96000 278.368
37.00000 282.984
37.04000 275.142
37.08000 275.890
37.12000 272.284
37.16000 269.958
37.20000 267.770
37.24000 252.562
37.28000 260.423
37.32000 246.341
37.36000 262.654
37.40000 259.982
37.44000 273.708
37.48000 254.581
37.52000 263.073
37.56000 247.417
37.60000 268.317
37.64000 258.943
37.68000 250.312
37.72000 252.102
37.76000 254.120
37.80000 253.340
37.84000 257.222
37.88000 247.462
37.92000 262.340
37.96000 260.070
38.00000 251.869
38.04000 263.510
38.08000 257.224
38.12000 272.879
38.16000 261.209
38.20000 288.925
38.24000 285.909
38.28000 293.752
38.32000 348.699
38.36000 367.828
38.40000 432.322
38.44000 493.811
38.48000 556.881
38.52000 625.467
38.56000 715.149
38.60000 773.042
38.64000 817.599
38.68000 850.648
38.72000 839.607
38.76000 818.220
38.80000 732.623
38.84000 660.907
38.88000 559.576
38.92000 491.828
38.96000 419.427
39.00000 340.799
39.04000 308.038
39.08000 288.757
39.12000 260.779
39.16000 254.713
39.20000 243.600
39.24000 263.701
39.28000 255.450
39.32000 256.726
39.36000 241.770
39.40000 234.756
39.44000 223.995
39.48000 227.304
39.52000 241.431
39.56000 230.147
39.60000 239.753
39.64000 226.324
39.68000 225.510
39.72000 225.646
39.76000 225.958
39.80000 227.925
39.84000 229.434
39.88000 238.915
39.92000 216.794
39.96000 228.023
40.00000 224.235
40.04000 232.546
40.08000 235.956
40.12000 224.824
40.16000 234.583
40.20000 221.883
40.24000 222.988
40.28000 230.383
40.32000 223.327
40.36000 216.910
40.40000 210.038
40.44000 224.886
40.48000 213.634
40.52000 219.420
40.56000 209.651
40.60000 230.555
40.64000 226.728
40.68000 212.432
40.72000 220.995
40.76000 214.995
40.80000 206.995
40.84000 216.773
40.88000 201.548
40.92000 217.041
40.96000 211.272
41.00000 201.086
41.04000 213.263
41.08000 213.472
41.12000 218.058
41.16000 213.263
41.20000 216.275
41.24000 220.833
41.28000 218.258
41.32000 213.473
41.36000 210.452
41.40000 214.440
41.44000 219.205
41.48000 213.619
41.52000 197.294
41.56000 199.407
41.60000 202.902
41.64000 214.299
41.68000 205.186
41.72000 207.758
41.76000 203.021
41.80000 205.886
41.84000 193.590
41.88000 203.007
41.92000 211.914
41.96000 207.187
42.00000 210.645
42.04000 201.520
42.08000 207.318
42.12000 209.507
42.16000 207.687
42.20000 219.706
42.24000 213.224
42.28000 212.470
42.32000 212.373
42.36000 192.386
42.40000 210.237
42.44000 199.120
42.48000 205.119
42.52000 199.831
42.56000 212.977
42.60000 208.930
42.64000 221.240
42.68000 210.699
42.72000 206.420
42.76000 197.171
42.80000 205.694
42.84000 204.588
42.88000 201.780
42.92000 195.630
42.96000 201.988
43.00000 198.725
43.04000 208.490
43.08000 198.769
43.12000 209.777
43.16000 196.782
43.20000 196.597
43.24000 201.410
43.28000 183.436
43.32000 193.481
43.36000 182.367
43.40000 188.766
43.44000 205.065
43.48000 211.183
43.52000 195.755
43.56000 192.845
43.60000 185.172
43.64000 193.979
43.68000 205.221
43.72000 192.692
43.76000 193.832
43.80000 202.710
43.84000 197.953
43.88000 186.874
43.92000 217.594
43.96000 197.209
44.00000 198.779
44.04000 204.089
44.08000 200.670
44.12000 200.455
44.16000 198.146
44.20000 191.876
44.24000 193.075
44.28000 197.834
44.32000 196.701
44.36000 201.341
44.40000 201.501
44.44000 197.145
44.48000 206.235
44.52000 221.145
44.56000 223.923
44.60000 224.035
44.64000 237.142
44.68000 249.379
44.72000 266.637
44.76000 270.088
44.80000 275.966
44.84000 287.758
44.88000 312.876
44.92000 326.819
44.96000 352.408
45.00000 329.600
45.04000 337.980
45.08000 331.211
45.12000 323.157
45.16000 297.413
45.20000 285.150
45.24000 270.400
45.28000 258.357
45.32000 256.232
45.36000 250.401
45.40000 242.695
45.44000 227.915
45.48000 217.550
45.52000 224.542
45.56000 215.951
45.60000 225.744
45.64000 218.566
45.68000 207.747
45.72000 213.966
45.76000 204.792
45.80000 196.149
45.84000 194.371
45.88000 201.538
45.92000 186.332
45.96000 188.921
46.00000 190.318
46.04000 185.107
46.08000 190.768
46.12000 176.352
46.16000 183.132
46.20000 169.990
46.24000 167.926
46.28000 175.490
46.32000 187.927
46.36000 180.532
46.40000 179.473
46.44000 176.654
46.48000 170.138
46.52000 165.108
46.56000 176.446
46.60000 188.854
46.64000 182.893
46.68000 169.113
46.72000 164.450
46.76000 178.744
46.80000 182.712
46.84000 177.215
46.88000 168.530
46.92000 178.382
46.96000 170.453
47.00000 176.495
47.04000 173.278
47.08000 161.282
47.12000 175.225
47.16000 163.991
47.20000 162.258
47.24000 174.299
47.28000 166.741
47.32000 171.058
47.36000 166.713
47.40000 168.726
47.44000 169.832
47.48000 159.670
47.52000 152.396
47.56000 157.093
47.60000 169.050
47.64000 169.473
47.68000 171.423
47.72000 162.156
47.76000 165.552
47.80000 158.865
47.84000 161.386
47.88000 159.690
47.92000 164.348
47.96000 160.259
48.00000 161.292
48.04000 162.971
48.08000 172.080
48.12000 172.347
48.16000 161.252
48.20000 159.602
48.24000 163.059
48.28000 166.547
48.32000 165.193
48.36000 151.608
48.40000 158.303
48.44000 160.426
48.48000 157.007
48.52000 158.796
48.56000 164.815
48.60000 165.714
48.64000 155.492
48.68000 163.029
48.72000 167.461
48.76000 163.773
48.80000 170.829
48.84000 152.586
48.88000 146.177
48.92000 153.631
48.96000 155.482
49.00000 170.448
49.04000 159.946
49.08000 151.675
49.12000 151.998
49.16000 154.050
49.20000 171.037
49.24000 159.808
49.28000 153.518
49.32000 158.212
49.36000 152.473
49.40000 157.803
49.44000 159.906
49.48000 151.564
49.52000 151.251
49.56000 149.983
49.60000 145.475
49.64000 160.612
49.68000 147.499
49.72000 156.837
49.76000 156.069
49.80000 160.184
49.84000 169.044
49.88000 161.254
49.92000 154.513
49.96000 159.744
50.00000 158.791
50.04000 155.648
50.08000 163.351
50.12000 157.834
50.16000 172.364
50.20000 157.840
50.24000 168.752
50.28000 178.942
50.32000 181.028
50.36000 207.184
50.40000 200.679
50.44000 203.691
50.48000 205.185
50.52000 208.919
50.56000 215.955
50.60000 224.476
50.64000 230.262
50.68000 207.087
50.72000 216.434
50.76000 211.844
50.80000 202.219
50.84000 195.051
50.88000 177.889
50.92000 184.843
50.96000 171.193
51.00000 173.940
51.04000 161.820
51.08000 158.436
51.12000 163.389
51.16000 153.742
51.20000 148.132
51.24000 151.115
51.28000 151.310
51.32000 149.848
51.36000 159.540
51.40000 148.432
51.44000 155.017
51.48000 157.403
51.52000 143.187
51.56000 132.169
51.60000 146.088
51.64000 144.693
51.68000 141.059
51.72000 135.896
51.76000 148.413
51.80000 134.785
51.84000 133.471
51.88000 151.558
51.92000 141.294
51.96000 135.790
52.00000 155.856
52.04000 138.940
52.08000 139.190
52.12000 142.969
52.16000 148.838
52.20000 147.886
52.24000 149.461
52.28000 152.269
52.32000 136.562
52.36000 143.393
52.40000 139.516
52.44000 137.355
52.48000 139.677
52.52000 147.379
52.56000 130.406
52.60000 137.492
52.64000 149.082
52.68000 137.559
52.72000 142.495
52.76000 140.987
52.80000 141.351
52.84000 144.465
52.88000 149.189
52.92000 151.625
52.96000 150.540
53.00000 147.738
53.04000 145.866
53.08000 153.368
53.12000 149.339
53.16000 157.186
53.20000 143.992
53.24000 158.371
53.28000 167.074
53.32000 162.678
53.36000 162.877
53.40000 165.286
53.44000 155.881
53.48000 148.464
53.52000 154.307
53.56000 154.147
53.60000 153.356
53.64000 145.016
53.68000 142.673
53.72000 145.398
53.76000 154.469
53.80000 147.719
53.84000 150.606
53.88000 148.410
53.92000 139.796
53.96000 141.945
54.00000 135.636
54.04000 140.000
54.08000 139.141
54.12000 145.416
54.16000 138.508
54.20000 145.825
54.24000 147.946
54.28000 140.097
54.32000 144.304
54.36000 141.512
54.40000 154.689
54.44000 132.810
54.48000 141.382
54.52000 141.648
54.56000 145.085
54.60000 144.191
54.64000 145.497
54.68000 142.545
54.72000 148.679
54.76000 137.052
54.80000 139.648
54.84000 145.037
54.88000 146.435
54.92000 149.457
54.96000 149.026
55.00000 151.666
55.04000 150.325
55.08000 153.988
55.12000 153.712
55.16000 162.671
55.20000 152.970
55.24000 172.257
55.28000 168.505
55.32000 183.187
55.36000 216.458
55.40000 227.590
55.44000 247.149
55.48000 289.418
55.52000 325.891
55.56000 373.616
55.60000 421.069
55.64000 481.573
55.68000 554.030
55.72000 596.336
55.76000 601.065
55.80000 673.576
55.84000 673.189
55.88000 705.981
55.92000 666.673
55.96000 649.194
56.00000 579.555
56.04000 520.208
56.08000 466.083
56.12000 412.490
56.16000 336.445
56.20000 316.301
56.24000 268.460
56.28000 238.506
56.32000 219.531
56.36000 199.944
56.40000 178.331
56.44000 171.951
56.48000 165.863
56.52000 157.843
56.56000 148.886
56.60000 148.191
56.64000 138.412
56.68000 138.864
56.72000 143.124
56.76000 146.006
56.80000 123.425
56.84000 130.011
56.88000 130.787
56.92000 136.664
56.96000 138.219
57.00000 134.005
57.04000 136.738
57.08000 131.872
57.12000 123.769
57.16000 129.345
57.20000 127.750
57.24000 118.416
57.28000 125.540
57.32000 114.939
57.36000 125.970
57.40000 137.382
57.44000 117.372
57.48000 128.865
57.52000 134.629
57.56000 132.286
57.60000 118.142
57.64000 118.984
57.68000 126.715
57.72000 119.641
57.76000 119.246
57.80000 111.485
57.84000 120.325
57.88000 130.732
57.92000 120.131
57.96000 124.728
58.00000 115.269
58.04000 111.345
58.08000 122.164
58.12000 118.519
58.16000 120.554
58.20000 123.467
58.24000 121.899
58.28000 113.418
58.32000 124.585
58.36000 115.264
58.40000 122.187
58.44000 125.894
58.48000 119.516
58.52000 124.586
58.56000 114.832
58.60000 127.017
58.64000 117.593
58.68000 112.335
58.72000 121.432
58.76000 120.167
58.80000 116.675
58.84000 131.328
58.88000 108.185
58.92000 123.371
58.96000 121.694
59.00000 118.220
59.04000 116.446
59.08000 118.722
59.12000 112.108
59.16000 113.037
59.20000 121.412
59.24000 133.084
59.28000 128.930
59.32000 114.074
59.36000 114.520
59.40000 119.064
59.44000 120.140
59.48000 113.342
59.52000 125.172
59.56000 116.314
59.60000 118.399
59.64000 119.657
59.68000 117.804
59.72000 111.127
59.76000 122.511
59.80000 115.015
59.84000 116.989
59.88000 113.162
59.92000 118.957
59.96000 120.244
60.00000 123.348
60.04000 127.844
60.08000 116.218
60.12000 116.501
60.16000 121.548
60.20000 104.766
60.24000 114.180
60.28000 107.871
60.32000 110.566
60.36000 114.790
60.40000 122.381
60.44000 116.629
60.48000 114.423
60.52000 116.457
60.56000 118.080
60.60000 115.918
60.64000 117.217
60.68000 124.442
60.72000 127.003
60.76000 120.881
60.80000 120.937
60.84000 122.233
60.88000 124.939
60.92000 123.518
60.96000 116.043
61.00000 109.512
61.04000 121.942
61.08000 122.282
61.12000 122.423
61.16000 124.078
61.20000 135.945
61.24000 125.226
61.28000 124.026
61.32000 119.093
61.36000 129.042
61.40000 119.817
61.44000 123.957
61.48000 128.013
61.52000 144.673
61.56000 191.476
61.60000 242.029
61.64000 289.390
61.68000 299.570
61.72000 312.922
61.76000 309.664
61.80000 271.225
61.84000 212.965
61.88000 166.172
61.92000 134.195
61.96000 139.480
62.00000 125.366
62.04000 141.418
62.08000 129.725
62.12000 131.037
62.16000 122.515
62.20000 130.368
62.24000 123.581
62.28000 128.764
62.32000 127.438
62.36000 130.008
62.40000 126.541
62.44000 130.944
62.48000 129.957
62.52000 131.280
62.56000 133.004
62.60000 139.401
62.64000 125.138
62.68000 132.520
62.72000 129.769
62.76000 122.836
62.80000 140.291
62.84000 131.185
62.88000 129.592
62.92000 135.253
62.96000 129.098
63.00000 134.566
63.04000 132.501
63.08000 135.028
63.12000 148.454
63.16000 138.309
63.20000 138.601
63.24000 139.444
63.28000 131.469
63.32000 140.185
63.36000 131.301
63.40000 132.357
63.44000 133.957
63.48000 133.550
63.52000 138.800
63.56000 131.579
63.60000 138.953
63.64000 143.531
63.68000 133.488
63.72000 133.878
63.76000 152.641
63.80000 142.600
63.84000 141.093
63.88000 143.584
63.92000 126.728
63.96000 143.789
64.00000 141.859
64.04000 149.199
64.08000 161.950
64.12000 159.401
64.16000 148.342
64.20000 148.826
64.24000 148.933
64.28000 150.263
64.32000 155.958
64.36000 169.604
64.40000 150.538
64.44000 158.993
64.48000 160.413
64.52000 161.494
64.56000 164.950
64.60000 175.976
64.64000 164.427
64.68000 159.828
64.72000 180.457
64.76000 176.946
64.80000 181.084
64.84000 185.875
64.88000 194.441
64.92000 194.585
64.96000 206.464
65.00000 214.170
65.04000 215.832
65.08000 242.604
65.12000 240.364
65.16000 256.541
65.20000 274.390
65.24000 279.475
65.28000 297.669
65.32000 326.725
65.36000 331.164
65.40000 333.718
65.44000 351.166
65.48000 372.865
65.52000 386.885
65.56000 399.270
65.60000 423.962
65.64000 475.946
65.68000 592.462
65.72000 885.044
65.76000 1362.486
65.80000 1889.823
65.84000 2225.164
65.88000 2254.431
65.92000 2233.406
65.96000 1930.035
66.00000 1366.469
66.04000 861.432
66.08000 578.664
66.12000 460.757
66.16000 414.388
66.20000 377.521
66.24000 401.422
66.28000 456.111
66.32000 526.817
66.36000 648.786
66.40000 681.426
66.44000 697.041
66.48000 665.296
66.52000 620.686
66.56000 502.183
66.60000 421.042
66.64000 377.158
66.68000 367.600
66.72000 369.784
66.76000 361.174
66.80000 380.635
66.84000 363.783
66.88000 381.202
66.92000 371.974
66.96000 366.856
67.00000 357.565
67.04000 384.506
67.08000 392.444
67.12000 386.626
67.16000 415.095
67.20000 418.199
67.24000 417.115
67.28000 406.192
67.32000 397.973
67.36000 422.173
67.40000 415.954
67.44000 419.249
67.48000 411.442
67.52000 434.646
67.56000 432.394
67.60000 450.629
67.64000 465.833
67.68000 470.177
67.72000 460.817
67.76000 471.455
67.80000 467.867
67.84000 490.658
67.88000 479.060
67.92000 508.231
67.96000 506.676
68.00000 496.097
68.04000 526.234
68.08000 523.914
68.12000 516.366
68.16000 556.154
68.20000 562.300
68.24000 570.716
68.28000 566.163
68.32000 575.719
68.36000 596.521
68.40000 634.548
68.44000 653.939
68.48000 665.250
68.52000 718.233
68.56000 755.140
68.60000 843.031
68.64000 987.068
68.68000 1160.641
68.72000 1331.954
68.76000 1538.344
68.80000 1715.337
68.84000 1901.118
68.88000 2321.627
68.92000 3437.803
68.96000 7440.926
69.00000 18887.328
69.04000 34402.242
69.08000 44946.324
69.12000 49023.555
69.16000 52410.027
69.20000 53814.453
69.24000 46565.754
69.28000 34893.344
69.32000 27334.979
69.36000 24575.119
69.40000 21765.969
69.44000 14974.414
69.48000 7482.188
69.52000 3320.094
69.56000 1709.465
69.60000 1259.757
69.64000 1037.435
69.68000 911.871
69.72000 789.192
69.76000 727.441
69.80000 651.185
69.84000 616.484
69.88000 613.645
69.92000 588.210
69.96000 552.334
70.00000 493.406