File: XRD/08-10-2025 Dep 7/XY Data/BTO_Mapping_Theta2Theta_08-10-2025_001_59_18-271_-8-135.xy
20.00000 489.554
20.04000 478.202
20.08000 483.282
20.12000 483.742
20.16000 486.870
20.20000 475.587
20.24000 475.018
20.28000 464.436
20.32000 485.842
20.36000 472.558
20.40000 475.108
20.44000 467.539
20.48000 467.081
20.52000 483.231
20.56000 480.339
20.60000 477.784
20.64000 470.403
20.68000 460.126
20.72000 472.928
20.76000 467.740
20.80000 454.888
20.84000 455.905
20.88000 466.306
20.92000 460.193
20.96000 470.077
21.00000 477.349
21.04000 467.553
21.08000 484.249
21.12000 480.630
21.16000 463.883
21.20000 467.495
21.24000 469.625
21.28000 455.241
21.32000 464.751
21.36000 433.998
21.40000 458.819
21.44000 490.426
21.48000 477.221
21.52000 482.435
21.56000 477.399
21.60000 475.194
21.64000 456.151
21.68000 459.498
21.72000 483.097
21.76000 483.085
21.80000 474.976
21.84000 497.080
21.88000 486.567
21.92000 499.162
21.96000 513.774
22.00000 529.199
22.04000 515.442
22.08000 513.753
22.12000 511.292
22.16000 501.686
22.20000 505.348
22.24000 509.355
22.28000 507.885
22.32000 480.789
22.36000 465.472
22.40000 465.774
22.44000 463.569
22.48000 471.005
22.52000 449.329
22.56000 466.375
22.60000 454.559
22.64000 440.960
22.68000 446.371
22.72000 440.886
22.76000 445.572
22.80000 456.465
22.84000 435.659
22.88000 468.124
22.92000 446.321
22.96000 450.850
23.00000 449.150
23.04000 450.182
23.08000 453.073
23.12000 436.414
23.16000 459.032
23.20000 442.320
23.24000 447.918
23.28000 444.782
23.32000 457.659
23.36000 448.856
23.40000 441.324
23.44000 453.384
23.48000 450.147
23.52000 462.957
23.56000 447.344
23.60000 468.438
23.64000 448.696
23.68000 466.932
23.72000 489.910
23.76000 494.195
23.80000 518.775
23.84000 518.964
23.88000 540.979
23.92000 576.637
23.96000 579.634
24.00000 566.099
24.04000 568.515
24.08000 529.684
24.12000 531.275
24.16000 496.185
24.20000 501.767
24.24000 480.856
24.28000 473.741
24.32000 455.053
24.36000 442.098
24.40000 439.461
24.44000 449.683
24.48000 418.999
24.52000 433.437
24.56000 445.488
24.60000 417.979
24.64000 420.285
24.68000 436.277
24.72000 419.951
24.76000 405.488
24.80000 419.209
24.84000 422.982
24.88000 416.482
24.92000 419.576
24.96000 419.223
25.00000 414.642
25.04000 408.656
25.08000 416.921
25.12000 413.229
25.16000 406.047
25.20000 419.813
25.24000 405.535
25.28000 401.474
25.32000 415.521
25.36000 413.536
25.40000 405.139
25.44000 411.561
25.48000 403.816
25.52000 392.573
25.56000 402.377
25.60000 394.096
25.64000 391.053
25.68000 398.909
25.72000 392.173
25.76000 408.055
25.80000 397.483
25.84000 392.943
25.88000 402.734
25.92000 391.925
25.96000 394.279
26.00000 411.122
26.04000 411.524
26.08000 403.412
26.12000 398.532
26.16000 391.618
26.20000 404.954
26.24000 394.934
26.28000 388.931
26.32000 390.419
26.36000 378.057
26.40000 386.230
26.44000 377.657
26.48000 391.086
26.52000 390.492
26.56000 391.475
26.60000 387.168
26.64000 377.416
26.68000 374.481
26.72000 403.102
26.76000 377.378
26.80000 390.103
26.84000 388.637
26.88000 387.974
26.92000 378.807
26.96000 379.702
27.00000 378.578
27.04000 388.294
27.08000 378.779
27.12000 396.924
27.16000 401.743
27.20000 376.670
27.24000 386.953
27.28000 383.415
27.32000 371.845
27.36000 370.611
27.40000 367.806
27.44000 378.761
27.48000 375.575
27.52000 373.344
27.56000 362.801
27.60000 393.399
27.64000 371.393
27.68000 370.360
27.72000 396.242
27.76000 371.501
27.80000 380.453
27.84000 376.825
27.88000 381.440
27.92000 379.302
27.96000 350.482
28.00000 354.768
28.04000 372.190
28.08000 362.631
28.12000 359.091
28.16000 372.165
28.20000 370.115
28.24000 371.810
28.28000 356.132
28.32000 364.835
28.36000 364.327
28.40000 349.948
28.44000 353.125
28.48000 363.004
28.52000 365.687
28.56000 376.113
28.60000 354.851
28.64000 363.427
28.68000 360.995
28.72000 355.902
28.76000 351.174
28.80000 361.458
28.84000 384.551
28.88000 369.126
28.92000 358.673
28.96000 352.960
29.00000 359.881
29.04000 343.932
29.08000 357.665
29.12000 350.920
29.16000 339.663
29.20000 347.518
29.24000 342.185
29.28000 365.594
29.32000 353.538
29.36000 342.169
29.40000 360.002
29.44000 362.052
29.48000 359.767
29.52000 342.324
29.56000 356.790
29.60000 365.106
29.64000 361.085
29.68000 351.543
29.72000 362.846
29.76000 373.163
29.80000 359.612
29.84000 381.605
29.88000 373.339
29.92000 387.813
29.96000 379.050
30.00000 383.484
30.04000 398.876
30.08000 390.113
30.12000 377.119
30.16000 387.223
30.20000 389.841
30.24000 375.422
30.28000 361.865
30.32000 376.141
30.36000 368.119
30.40000 354.799
30.44000 368.177
30.48000 362.868
30.52000 376.275
30.56000 361.179
30.60000 368.572
30.64000 366.771
30.68000 383.632
30.72000 380.541
30.76000 391.823
30.80000 375.957
30.84000 401.025
30.88000 415.836
30.92000 426.832
30.96000 459.393
31.00000 479.099
31.04000 515.743
31.08000 590.369
31.12000 659.043
31.16000 730.600
31.20000 842.674
31.24000 908.036
31.28000 1011.836
31.32000 1074.798
31.36000 1110.520
31.40000 1111.370
31.44000 1050.333
31.48000 984.793
31.52000 862.498
31.56000 752.880
31.60000 649.541
31.64000 567.510
31.68000 528.338
31.72000 501.288
31.76000 447.116
31.80000 410.779
31.84000 408.729
31.88000 378.491
31.92000 379.465
31.96000 370.362
32.00000 364.130
32.04000 362.955
32.08000 368.344
32.12000 354.873
32.16000 340.512
32.20000 354.938
32.24000 367.043
32.28000 356.674
32.32000 340.937
32.36000 350.329
32.40000 332.600
32.44000 334.485
32.48000 325.906
32.52000 331.076
32.56000 326.661
32.60000 330.416
32.64000 335.776
32.68000 315.587
32.72000 320.443
32.76000 318.611
32.80000 331.914
32.84000 325.688
32.88000 328.744
32.92000 323.505
32.96000 320.185
33.00000 324.557
33.04000 316.956
33.08000 306.625
33.12000 311.668
33.16000 308.322
33.20000 308.083
33.24000 304.389
33.28000 297.940
33.32000 314.449
33.36000 314.237
33.40000 309.355
33.44000 312.778
33.48000 307.995
33.52000 306.711
33.56000 289.210
33.60000 304.907
33.64000 307.408
33.68000 310.646
33.72000 295.169
33.76000 312.460
33.80000 307.731
33.84000 301.826
33.88000 307.845
33.92000 314.520
33.96000 308.571
34.00000 324.763
34.04000 341.207
34.08000 334.821
34.12000 340.292
34.16000 345.195
34.20000 327.111
34.24000 358.750
34.28000 349.234
34.32000 350.815
34.36000 342.005
34.40000 342.432
34.44000 346.486
34.48000 325.193
34.52000 335.929
34.56000 325.357
34.60000 328.843
34.64000 317.116
34.68000 296.533
34.72000 295.258
34.76000 294.412
34.80000 302.659
34.84000 293.664
34.88000 288.678
34.92000 292.422
34.96000 281.433
35.00000 276.619
35.04000 270.969
35.08000 272.913
35.12000 276.384
35.16000 269.030
35.20000 270.816
35.24000 265.042
35.28000 275.374
35.32000 284.297
35.36000 263.982
35.40000 265.393
35.44000 269.452
35.48000 265.950
35.52000 270.804
35.56000 264.406
35.60000 272.306
35.64000 262.719
35.68000 256.237
35.72000 264.830
35.76000 267.037
35.80000 272.751
35.84000 262.664
35.88000 261.664
35.92000 260.458
35.96000 257.973
36.00000 266.258
36.04000 270.401
36.08000 274.008
36.12000 263.665
36.16000 257.278
36.20000 249.783
36.24000 263.339
36.28000 259.562
36.32000 265.897
36.36000 255.998
36.40000 264.137
36.44000 262.116
36.48000 266.788
36.52000 255.115
36.56000 256.374
36.60000 262.185
36.64000 255.550
36.68000 277.325
36.72000 265.039
36.76000 261.387
36.80000 265.772
36.84000 269.719
36.88000 272.222
36.92000 277.641
36.96000 276.790
37.00000 276.012
37.04000 274.456
37.08000 266.745
37.12000 272.661
37.16000 262.234
37.20000 269.092
37.24000 273.524
37.28000 259.035
37.32000 253.521
37.36000 261.473
37.40000 256.289
37.44000 252.953
37.48000 268.951
37.52000 259.597
37.56000 249.723
37.60000 253.589
37.64000 253.935
37.68000 260.318
37.72000 256.729
37.76000 260.490
37.80000 265.550
37.84000 254.501
37.88000 273.367
37.92000 241.216
37.96000 256.987
38.00000 266.036
38.04000 251.707
38.08000 283.628
38.12000 259.609
38.16000 258.043
38.20000 276.184
38.24000 280.126
38.28000 295.003
38.32000 307.532
38.36000 323.198
38.40000 346.003
38.44000 412.328
38.48000 475.536
38.52000 545.032
38.56000 656.307
38.60000 762.820
38.64000 830.845
38.68000 899.302
38.72000 904.812
38.76000 855.841
38.80000 794.045
38.84000 686.984
38.88000 577.567
38.92000 475.818
38.96000 390.435
39.00000 349.570
39.04000 315.763
39.08000 290.502
39.12000 258.521
39.16000 259.043
39.20000 251.688
39.24000 243.744
39.28000 248.381
39.32000 235.616
39.36000 239.323
39.40000 244.868
39.44000 239.641
39.48000 238.595
39.52000 251.786
39.56000 228.002
39.60000 243.954
39.64000 244.369
39.68000 251.492
39.72000 242.101
39.76000 240.056
39.80000 222.174
39.84000 234.215
39.88000 232.355
39.92000 234.826
39.96000 230.908
40.00000 238.167
40.04000 230.505
40.08000 238.550
40.12000 233.584
40.16000 226.718
40.20000 227.480
40.24000 234.250
40.28000 227.537
40.32000 232.129
40.36000 224.958
40.40000 232.306
40.44000 232.011
40.48000 229.950
40.52000 221.030
40.56000 223.448
40.60000 212.839
40.64000 227.553
40.68000 222.886
40.72000 220.200
40.76000 224.892
40.80000 223.760
40.84000 222.655
40.88000 225.631
40.92000 208.927
40.96000 212.421
41.00000 211.336
41.04000 215.624
41.08000 204.885
41.12000 206.218
41.16000 211.686
41.20000 218.075
41.24000 211.916
41.28000 215.715
41.32000 206.278
41.36000 212.182
41.40000 210.324
41.44000 207.808
41.48000 212.630
41.52000 216.897
41.56000 215.892
41.60000 227.674
41.64000 211.668
41.68000 220.867
41.72000 198.119
41.76000 223.596
41.80000 215.670
41.84000 222.658
41.88000 208.333
41.92000 207.485
41.96000 226.093
42.00000 223.733
42.04000 235.815
42.08000 227.102
42.12000 229.773
42.16000 225.921
42.20000 226.175
42.24000 226.387
42.28000 217.799
42.32000 227.576
42.36000 229.677
42.40000 221.534
42.44000 228.877
42.48000 222.248
42.52000 215.848
42.56000 224.401
42.60000 218.145
42.64000 216.352
42.68000 209.520
42.72000 215.969
42.76000 217.536
42.80000 218.997
42.84000 205.572
42.88000 217.860
42.92000 210.125
42.96000 206.970
43.00000 208.020
43.04000 213.455
43.08000 206.343
43.12000 197.149
43.16000 211.928
43.20000 205.556
43.24000 190.609
43.28000 211.067
43.32000 187.966
43.36000 203.018
43.40000 184.405
43.44000 194.188
43.48000 207.501
43.52000 194.949
43.56000 199.983
43.60000 195.345
43.64000 201.837
43.68000 199.344
43.72000 210.756
43.76000 203.350
43.80000 199.139
43.84000 193.275
43.88000 192.730
43.92000 201.920
43.96000 201.689
44.00000 194.862
44.04000 193.783
44.08000 187.733
44.12000 202.366
44.16000 200.758
44.20000 201.249
44.24000 201.462
44.28000 207.128
44.32000 207.411
44.36000 213.788
44.40000 216.673
44.44000 200.123
44.48000 222.487
44.52000 219.760
44.56000 217.926
44.60000 207.784
44.64000 239.489
44.68000 241.965
44.72000 230.009
44.76000 230.053
44.80000 241.307
44.84000 233.653
44.88000 236.604
44.92000 232.358
44.96000 230.503
45.00000 229.610
45.04000 225.170
45.08000 240.001
45.12000 242.344
45.16000 235.488
45.20000 233.886
45.24000 224.652
45.28000 233.879
45.32000 220.747
45.36000 228.853
45.40000 220.316
45.44000 219.602
45.48000 210.852
45.52000 197.702
45.56000 215.309
45.60000 209.258
45.64000 212.568
45.68000 189.801
45.72000 197.683
45.76000 187.926
45.80000 182.645
45.84000 182.717
45.88000 182.500
45.92000 185.585
45.96000 169.601
46.00000 181.008
46.04000 190.103
46.08000 196.146
46.12000 168.622
46.16000 170.394
46.20000 183.992
46.24000 171.633
46.28000 179.133
46.32000 175.347
46.36000 169.738
46.40000 181.716
46.44000 172.942
46.48000 185.118
46.52000 179.822
46.56000 174.946
46.60000 171.603
46.64000 171.860
46.68000 175.448
46.72000 180.820
46.76000 172.559
46.80000 179.784
46.84000 180.159
46.88000 182.646
46.92000 186.425
46.96000 178.744
47.00000 170.430
47.04000 174.576
47.08000 160.328
47.12000 182.681
47.16000 168.935
47.20000 177.942
47.24000 171.240
47.28000 171.872
47.32000 174.706
47.36000 177.168
47.40000 171.425
47.44000 163.329
47.48000 155.461
47.52000 167.163
47.56000 169.870
47.60000 159.190
47.64000 161.814
47.68000 166.186
47.72000 167.441
47.76000 173.716
47.80000 165.401
47.84000 160.228
47.88000 172.812
47.92000 163.697
47.96000 178.040
48.00000 166.724
48.04000 151.571
48.08000 156.335
48.12000 165.893
48.16000 152.658
48.20000 156.110
48.24000 165.337
48.28000 166.404
48.32000 158.281
48.36000 166.400
48.40000 159.761
48.44000 157.791
48.48000 160.349
48.52000 157.478
48.56000 164.123
48.60000 159.184
48.64000 158.715
48.68000 157.682
48.72000 162.503
48.76000 153.692
48.80000 158.704
48.84000 165.232
48.88000 147.878
48.92000 165.591
48.96000 162.485
49.00000 162.590
49.04000 158.527
49.08000 157.070
49.12000 169.701
49.16000 152.420
49.20000 157.813
49.24000 158.589
49.28000 151.650
49.32000 157.945
49.36000 162.944
49.40000 154.257
49.44000 152.402
49.48000 155.842
49.52000 156.356
49.56000 156.339
49.60000 151.598
49.64000 145.908
49.68000 151.838
49.72000 154.039
49.76000 147.920
49.80000 154.505
49.84000 152.076
49.88000 154.198
49.92000 153.005
49.96000 154.637
50.00000 158.880
50.04000 158.830
50.08000 155.009
50.12000 156.504
50.16000 154.192
50.20000 162.401
50.24000 151.835
50.28000 158.866
50.32000 156.750
50.36000 168.504
50.40000 168.586
50.44000 163.059
50.48000 166.931
50.52000 160.411
50.56000 166.018
50.60000 163.556
50.64000 158.472
50.68000 161.240
50.72000 162.826
50.76000 153.862
50.80000 170.073
50.84000 158.350
50.88000 164.434
50.92000 166.330
50.96000 150.223
51.00000 147.320
51.04000 147.618
51.08000 146.046
51.12000 151.435
51.16000 157.657
51.20000 147.933
51.24000 152.056
51.28000 132.707
51.32000 144.656
51.36000 145.854
51.40000 147.852
51.44000 146.680
51.48000 147.494
51.52000 144.523
51.56000 144.434
51.60000 127.410
51.64000 146.797
51.68000 148.381
51.72000 147.838
51.76000 146.152
51.80000 144.668
51.84000 147.200
51.88000 138.532
51.92000 145.426
51.96000 136.857
52.00000 149.724
52.04000 145.885
52.08000 140.268
52.12000 141.421
52.16000 144.252
52.20000 133.362
52.24000 144.602
52.28000 148.054
52.32000 142.867
52.36000 149.338
52.40000 142.740
52.44000 140.315
52.48000 144.592
52.52000 137.700
52.56000 143.051
52.60000 134.606
52.64000 145.682
52.68000 141.465
52.72000 150.429
52.76000 149.264
52.80000 135.471
52.84000 151.771
52.88000 139.449
52.92000 139.064
52.96000 144.597
53.00000 144.951
53.04000 131.678
53.08000 142.693
53.12000 146.400
53.16000 152.918
53.20000 145.622
53.24000 147.748
53.28000 147.005
53.32000 154.101
53.36000 151.189
53.40000 153.043
53.44000 150.466
53.48000 166.477
53.52000 152.851
53.56000 153.029
53.60000 150.536
53.64000 142.295
53.68000 146.583
53.72000 136.213
53.76000 133.280
53.80000 140.812
53.84000 141.982
53.88000 138.978
53.92000 151.647
53.96000 148.831
54.00000 135.607
54.04000 138.925
54.08000 140.851
54.12000 140.755
54.16000 145.155
54.20000 133.937
54.24000 150.543
54.28000 150.964
54.32000 136.788
54.36000 131.747
54.40000 141.114
54.44000 141.825
54.48000 145.093
54.52000 150.257
54.56000 148.851
54.60000 136.789
54.64000 148.348
54.68000 143.459
54.72000 144.257
54.76000 151.530
54.80000 148.988
54.84000 151.399
54.88000 138.381
54.92000 134.870
54.96000 147.870
55.00000 147.910
55.04000 154.752
55.08000 152.094
55.12000 156.828
55.16000 163.264
55.20000 157.787
55.24000 155.523
55.28000 167.214
55.32000 162.983
55.36000 179.043
55.40000 179.651
55.44000 193.798
55.48000 212.517
55.52000 220.452
55.56000 223.970
55.60000 236.454
55.64000 288.662
55.68000 309.592
55.72000 336.107
55.76000 371.364
55.80000 430.646
55.84000 418.998
55.88000 436.030
55.92000 472.510
55.96000 466.578
56.00000 446.672
56.04000 434.145
56.08000 401.296
56.12000 360.313
56.16000 332.210
56.20000 290.114
56.24000 269.159
56.28000 260.366
56.32000 221.976
56.36000 198.391
56.40000 177.573
56.44000 169.367
56.48000 179.270
56.52000 157.971
56.56000 154.762
56.60000 150.170
56.64000 147.491
56.68000 146.893
56.72000 155.103
56.76000 135.479
56.80000 143.153
56.84000 142.012
56.88000 140.790
56.92000 134.352
56.96000 140.637
57.00000 122.926
57.04000 134.258
57.08000 144.067
57.12000 126.273
57.16000 139.178
57.20000 138.353
57.24000 130.536
57.28000 118.071
57.32000 128.140
57.36000 115.801
57.40000 125.853
57.44000 127.638
57.48000 128.577
57.52000 132.978
57.56000 129.378
57.60000 129.392
57.64000 139.012
57.68000 132.204
57.72000 133.953
57.76000 128.822
57.80000 122.712
57.84000 124.755
57.88000 125.160
57.92000 135.532
57.96000 138.112
58.00000 130.127
58.04000 124.116
58.08000 129.641
58.12000 121.434
58.16000 124.464
58.20000 119.874
58.24000 122.398
58.28000 133.397
58.32000 129.347
58.36000 123.909
58.40000 123.553
58.44000 116.977
58.48000 126.090
58.52000 128.372
58.56000 118.319
58.60000 129.611
58.64000 122.716
58.68000 125.965
58.72000 119.964
58.76000 118.690
58.80000 122.523
58.84000 113.130
58.88000 135.510
58.92000 117.416
58.96000 115.890
59.00000 125.164
59.04000 123.636
59.08000 123.958
59.12000 124.272
59.16000 120.408
59.20000 125.009
59.24000 122.040
59.28000 125.951
59.32000 114.752
59.36000 111.764
59.40000 121.948
59.44000 120.938
59.48000 119.078
59.52000 125.094
59.56000 114.963
59.60000 123.899
59.64000 123.473
59.68000 122.303
59.72000 114.216
59.76000 118.658
59.80000 127.457
59.84000 120.445
59.88000 115.500
59.92000 110.883
59.96000 119.755
60.00000 118.795
60.04000 112.623
60.08000 116.604
60.12000 113.464
60.16000 122.563
60.20000 125.471
60.24000 113.057
60.28000 119.798
60.32000 116.680
60.36000 114.164
60.40000 119.050
60.44000 122.873
60.48000 119.494
60.52000 126.574
60.56000 116.650
60.60000 118.054
60.64000 111.017
60.68000 114.072
60.72000 125.016
60.76000 137.996
60.80000 127.266
60.84000 136.628
60.88000 121.353
60.92000 116.252
60.96000 127.841
61.00000 126.167
61.04000 131.167
61.08000 128.723
61.12000 120.579
61.16000 127.759
61.20000 127.702
61.24000 129.087
61.28000 138.823
61.32000 126.345
61.36000 131.739
61.40000 137.037
61.44000 134.246
61.48000 136.594
61.52000 163.892
61.56000 207.322
61.60000 251.129
61.64000 277.499
61.68000 298.692
61.72000 284.058
61.76000 271.240
61.80000 205.331
61.84000 155.622
61.88000 142.895
61.92000 136.872
61.96000 137.213
62.00000 134.216
62.04000 127.393
62.08000 146.625
62.12000 133.834
62.16000 126.487
62.20000 121.765
62.24000 126.031
62.28000 129.320
62.32000 116.229
62.36000 137.106
62.40000 136.333
62.44000 131.512
62.48000 144.088
62.52000 127.166
62.56000 122.455
62.60000 135.724
62.64000 132.161
62.68000 130.632
62.72000 129.090
62.76000 125.771
62.80000 135.499
62.84000 125.622
62.88000 129.082
62.92000 133.828
62.96000 126.607
63.00000 127.891
63.04000 135.042
63.08000 141.672
63.12000 129.835
63.16000 150.128
63.20000 143.314
63.24000 146.587
63.28000 131.308
63.32000 129.705
63.36000 135.481
63.40000 138.578
63.44000 147.011
63.48000 136.257
63.52000 141.253
63.56000 132.027
63.60000 138.481
63.64000 136.003
63.68000 134.856
63.72000 146.458
63.76000 131.355
63.80000 139.941
63.84000 135.714
63.88000 132.981
63.92000 146.780
63.96000 153.006
64.00000 148.192
64.04000 152.484
64.08000 139.758
64.12000 146.724
64.16000 144.454
64.20000 151.319
64.24000 142.647
64.28000 154.862
64.32000 144.252
64.36000 163.716
64.40000 157.718
64.44000 153.522
64.48000 165.815
64.52000 156.848
64.56000 164.112
64.60000 161.548
64.64000 170.040
64.68000 174.866
64.72000 165.313
64.76000 172.588
64.80000 171.361
64.84000 180.499
64.88000 181.082
64.92000 191.777
64.96000 182.059
65.00000 191.793
65.04000 185.449
65.08000 200.775
65.12000 191.925
65.16000 210.462
65.20000 206.760
65.24000 213.278
65.28000 224.990
65.32000 226.524
65.36000 232.386
65.40000 264.536
65.44000 262.579
65.48000 286.953
65.52000 299.520
65.56000 314.089
65.60000 376.936
65.64000 417.707
65.68000 595.115
65.72000 970.799
65.76000 1411.097
65.80000 1760.838
65.84000 1880.776
65.88000 1883.730
65.92000 1767.696
65.96000 1404.477
66.00000 910.434
66.04000 556.076
66.08000 441.463
66.12000 389.902
66.16000 375.993
66.20000 357.371
66.24000 390.902
66.28000 463.884
66.32000 537.928
66.36000 601.465
66.40000 616.682
66.44000 601.844
66.48000 598.645
66.52000 504.294
66.56000 425.469
66.60000 371.079
66.64000 376.877
66.68000 351.361
66.72000 343.978
66.76000 342.477
66.80000 362.560
66.84000 365.551
66.88000 363.666
66.92000 361.218
66.96000 362.683
67.00000 376.953
67.04000 360.132
67.08000 368.015
67.12000 383.628
67.16000 385.337
67.20000 399.854
67.24000 399.158
67.28000 376.192
67.32000 398.662
67.36000 391.073
67.40000 416.431
67.44000 407.319
67.48000 422.693
67.52000 414.928
67.56000 424.827
67.60000 426.329
67.64000 431.553
67.68000 441.162
67.72000 445.212
67.76000 446.259
67.80000 445.990
67.84000 459.211
67.88000 494.377
67.92000 485.368
67.96000 498.791
68.00000 498.611
68.04000 503.466
68.08000 521.483
68.12000 503.723
68.16000 528.022
68.20000 529.174
68.24000 557.429
68.28000 567.174
68.32000 597.817
68.36000 600.481
68.40000 619.832
68.44000 628.558
68.48000 682.611
68.52000 692.798
68.56000 736.664
68.60000 848.721
68.64000 994.228
68.68000 1144.496
68.72000 1300.754
68.76000 1507.076
68.80000 1658.560
68.84000 1941.782
68.88000 2370.145
68.92000 4220.542
68.96000 10632.297
69.00000 23251.709
69.04000 35013.195
69.08000 40333.238
69.12000 42921.090
69.16000 45627.504
69.20000 43482.574
69.24000 33312.379
69.28000 24865.227
69.32000 21403.229
69.36000 20028.848
69.40000 15951.689
69.44000 8924.878
69.48000 3846.405
69.52000 1872.897
69.56000 1276.378
69.60000 983.774
69.64000 897.044
69.68000 794.983
69.72000 696.223
69.76000 640.727
69.80000 612.789
69.84000 570.676
69.88000 556.702
69.92000 512.975
69.96000 496.162
70.00000 493.600