File: XRD/08-10-2025 Dep 7/XY Data/BTO_Mapping_Theta2Theta_08-10-2025_001_27_-16-180_11-756.xy
20.00000 474.536
20.04000 469.947
20.08000 463.614
20.12000 475.912
20.16000 475.456
20.20000 463.265
20.24000 459.170
20.28000 478.771
20.32000 495.526
20.36000 484.313
20.40000 470.162
20.44000 473.607
20.48000 475.842
20.52000 482.296
20.56000 462.070
20.60000 470.520
20.64000 460.569
20.68000 468.163
20.72000 462.408
20.76000 461.864
20.80000 457.546
20.84000 447.358
20.88000 457.106
20.92000 478.750
20.96000 475.487
21.00000 484.502
21.04000 446.760
21.08000 469.910
21.12000 461.929
21.16000 464.809
21.20000 476.355
21.24000 455.623
21.28000 454.211
21.32000 461.840
21.36000 474.215
21.40000 457.844
21.44000 460.678
21.48000 474.566
21.52000 451.020
21.56000 455.991
21.60000 461.045
21.64000 444.124
21.68000 464.901
21.72000 474.107
21.76000 480.307
21.80000 476.602
21.84000 495.875
21.88000 501.112
21.92000 548.467
21.96000 510.614
22.00000 522.047
22.04000 538.168
22.08000 557.744
22.12000 535.020
22.16000 536.312
22.20000 548.973
22.24000 519.895
22.28000 499.736
22.32000 490.669
22.36000 503.817
22.40000 468.196
22.44000 478.089
22.48000 469.382
22.52000 454.014
22.56000 466.086
22.60000 448.735
22.64000 426.938
22.68000 437.060
22.72000 430.585
22.76000 433.375
22.80000 446.058
22.84000 437.992
22.88000 439.287
22.92000 443.574
22.96000 429.098
23.00000 446.161
23.04000 437.727
23.08000 415.809
23.12000 428.278
23.16000 439.698
23.20000 435.088
23.24000 435.518
23.28000 424.821
23.32000 403.056
23.36000 456.458
23.40000 435.562
23.44000 433.495
23.48000 434.741
23.52000 444.201
23.56000 439.009
23.60000 434.568
23.64000 447.860
23.68000 433.814
23.72000 441.220
23.76000 432.854
23.80000 441.275
23.84000 457.291
23.88000 443.861
23.92000 470.360
23.96000 456.640
24.00000 471.540
24.04000 467.736
24.08000 446.217
24.12000 462.860
24.16000 437.598
24.20000 439.541
24.24000 432.357
24.28000 434.837
24.32000 424.930
24.36000 419.561
24.40000 420.778
24.44000 426.915
24.48000 396.147
24.52000 417.525
24.56000 392.771
24.60000 387.550
24.64000 397.038
24.68000 409.303
24.72000 400.664
24.76000 409.873
24.80000 421.136
24.84000 399.495
24.88000 401.852
24.92000 409.359
24.96000 406.022
25.00000 400.822
25.04000 397.894
25.08000 409.233
25.12000 399.802
25.16000 411.803
25.20000 380.939
25.24000 383.095
25.28000 398.629
25.32000 394.724
25.36000 392.604
25.40000 366.538
25.44000 385.424
25.48000 392.083
25.52000 390.927
25.56000 389.600
25.60000 388.797
25.64000 409.276
25.68000 396.661
25.72000 389.627
25.76000 392.701
25.80000 395.530
25.84000 385.685
25.88000 392.722
25.92000 381.532
25.96000 384.570
26.00000 387.202
26.04000 381.625
26.08000 386.074
26.12000 376.362
26.16000 392.724
26.20000 372.116
26.24000 400.637
26.28000 384.593
26.32000 370.986
26.36000 369.400
26.40000 386.625
26.44000 391.879
26.48000 383.552
26.52000 387.009
26.56000 377.014
26.60000 374.700
26.64000 396.225
26.68000 395.931
26.72000 384.484
26.76000 372.972
26.80000 372.568
26.84000 384.874
26.88000 391.089
26.92000 375.547
26.96000 350.338
27.00000 368.380
27.04000 385.671
27.08000 361.009
27.12000 373.149
27.16000 349.952
27.20000 381.589
27.24000 395.079
27.28000 386.759
27.32000 377.177
27.36000 372.188
27.40000 360.408
27.44000 369.316
27.48000 377.593
27.52000 379.413
27.56000 383.383
27.60000 370.089
27.64000 367.584
27.68000 375.730
27.72000 373.365
27.76000 369.294
27.80000 387.727
27.84000 370.251
27.88000 364.544
27.92000 372.499
27.96000 369.672
28.00000 348.039
28.04000 370.176
28.08000 384.059
28.12000 359.734
28.16000 377.892
28.20000 354.621
28.24000 358.591
28.28000 374.986
28.32000 355.611
28.36000 371.575
28.40000 364.392
28.44000 371.084
28.48000 352.665
28.52000 360.617
28.56000 354.675
28.60000 342.818
28.64000 335.638
28.68000 354.226
28.72000 332.925
28.76000 356.131
28.80000 353.262
28.84000 333.228
28.88000 348.826
28.92000 348.697
28.96000 348.074
29.00000 349.609
29.04000 355.803
29.08000 357.699
29.12000 352.994
29.16000 341.026
29.20000 356.051
29.24000 350.276
29.28000 346.178
29.32000 351.816
29.36000 361.010
29.40000 348.263
29.44000 348.221
29.48000 341.910
29.52000 348.325
29.56000 330.442
29.60000 350.716
29.64000 364.892
29.68000 352.648
29.72000 367.236
29.76000 371.973
29.80000 359.379
29.84000 370.252
29.88000 371.958
29.92000 376.028
29.96000 389.308
30.00000 402.500
30.04000 393.099
30.08000 375.704
30.12000 383.107
30.16000 374.733
30.20000 371.494
30.24000 359.923
30.28000 357.335
30.32000 377.402
30.36000 364.701
30.40000 380.804
30.44000 365.002
30.48000 351.055
30.52000 356.862
30.56000 343.829
30.60000 380.211
30.64000 371.579
30.68000 375.951
30.72000 359.684
30.76000 365.494
30.80000 363.623
30.84000 376.329
30.88000 381.218
30.92000 398.836
30.96000 420.809
31.00000 473.108
31.04000 512.214
31.08000 590.205
31.12000 686.414
31.16000 804.680
31.20000 963.352
31.24000 1124.062
31.28000 1323.124
31.32000 1427.233
31.36000 1510.576
31.40000 1466.299
31.44000 1380.604
31.48000 1242.547
31.52000 1073.719
31.56000 886.264
31.60000 741.917
31.64000 600.316
31.68000 511.888
31.72000 462.591
31.76000 438.093
31.80000 396.970
31.84000 389.877
31.88000 381.584
31.92000 345.426
31.96000 351.758
32.00000 334.843
32.04000 323.278
32.08000 357.219
32.12000 341.698
32.16000 336.948
32.20000 331.756
32.24000 330.833
32.28000 329.895
32.32000 324.744
32.36000 321.459
32.40000 314.999
32.44000 314.534
32.48000 322.315
32.52000 312.502
32.56000 315.109
32.60000 308.957
32.64000 324.631
32.68000 306.531
32.72000 305.767
32.76000 315.902
32.80000 309.984
32.84000 328.055
32.88000 315.058
32.92000 331.067
32.96000 330.389
33.00000 302.690
33.04000 307.391
33.08000 314.158
33.12000 296.796
33.16000 308.823
33.20000 304.303
33.24000 303.942
33.28000 302.180
33.32000 294.277
33.36000 296.450
33.40000 294.766
33.44000 306.320
33.48000 289.021
33.52000 297.670
33.56000 287.846
33.60000 286.814
33.64000 293.457
33.68000 275.240
33.72000 296.034
33.76000 300.575
33.80000 294.957
33.84000 296.192
33.88000 302.491
33.92000 304.606
33.96000 294.220
34.00000 311.044
34.04000 324.291
34.08000 330.400
34.12000 326.336
34.16000 332.732
34.20000 333.294
34.24000 319.255
34.28000 326.174
34.32000 340.552
34.36000 341.722
34.40000 332.115
34.44000 329.605
34.48000 327.269
34.52000 324.694
34.56000 323.886
34.60000 312.966
34.64000 312.904
34.68000 303.013
34.72000 313.629
34.76000 306.594
34.80000 288.149
34.84000 281.139
34.88000 282.223
34.92000 295.239
34.96000 281.626
35.00000 280.624
35.04000 283.958
35.08000 276.895
35.12000 266.686
35.16000 270.208
35.20000 268.038
35.24000 260.328
35.28000 264.670
35.32000 277.376
35.36000 274.781
35.40000 266.903
35.44000 265.353
35.48000 268.901
35.52000 276.737
35.56000 259.441
35.60000 256.320
35.64000 271.067
35.68000 256.341
35.72000 268.370
35.76000 252.736
35.80000 279.093
35.84000 263.909
35.88000 265.853
35.92000 263.874
35.96000 270.202
36.00000 259.158
36.04000 262.781
36.08000 258.257
36.12000 267.577
36.16000 258.882
36.20000 255.405
36.24000 255.539
36.28000 252.652
36.32000 256.958
36.36000 256.842
36.40000 257.758
36.44000 250.194
36.48000 259.114
36.52000 250.696
36.56000 254.022
36.60000 254.352
36.64000 253.237
36.68000 261.394
36.72000 262.382
36.76000 252.955
36.80000 267.933
36.84000 281.659
36.88000 275.829
36.92000 277.936
36.96000 277.585
37.00000 292.809
37.04000 285.618
37.08000 272.957
37.12000 280.945
37.16000 279.853
37.20000 274.480
37.24000 273.075
37.28000 261.709
37.32000 266.899
37.36000 285.035
37.40000 245.009
37.44000 257.543
37.48000 257.655
37.52000 256.928
37.56000 258.044
37.60000 259.901
37.64000 255.217
37.68000 267.229
37.72000 247.696
37.76000 255.837
37.80000 261.784
37.84000 255.391
37.88000 254.134
37.92000 259.013
37.96000 247.088
38.00000 256.935
38.04000 261.698
38.08000 259.814
38.12000 263.338
38.16000 275.061
38.20000 260.939
38.24000 282.620
38.28000 287.856
38.32000 316.589
38.36000 337.457
38.40000 400.910
38.44000 486.059
38.48000 573.500
38.52000 688.811
38.56000 826.603
38.60000 940.006
38.64000 1070.810
38.68000 1162.751
38.72000 1134.836
38.76000 1121.258
38.80000 1048.219
38.84000 932.147
38.88000 791.729
38.92000 654.879
38.96000 510.312
39.00000 429.190
39.04000 355.909
39.08000 302.397
39.12000 275.678
39.16000 258.931
39.20000 249.366
39.24000 243.321
39.28000 244.893
39.32000 238.961
39.36000 239.618
39.40000 233.890
39.44000 239.082
39.48000 239.719
39.52000 259.385
39.56000 237.929
39.60000 223.257
39.64000 217.201
39.68000 226.826
39.72000 234.309
39.76000 226.432
39.80000 225.264
39.84000 221.762
39.88000 237.088
39.92000 220.982
39.96000 232.343
40.00000 225.074
40.04000 222.329
40.08000 219.642
40.12000 216.834
40.16000 211.534
40.20000 220.336
40.24000 208.376
40.28000 218.270
40.32000 217.047
40.36000 220.480
40.40000 226.596
40.44000 227.121
40.48000 217.814
40.52000 217.040
40.56000 209.426
40.60000 210.901
40.64000 219.375
40.68000 223.285
40.72000 215.494
40.76000 209.971
40.80000 217.712
40.84000 205.830
40.88000 221.651
40.92000 216.020
40.96000 206.452
41.00000 216.455
41.04000 222.452
41.08000 203.843
41.12000 192.660
41.16000 210.884
41.20000 208.927
41.24000 214.163
41.28000 204.752
41.32000 205.940
41.36000 210.186
41.40000 198.802
41.44000 206.703
41.48000 201.574
41.52000 208.443
41.56000 208.113
41.60000 214.415
41.64000 200.567
41.68000 194.235
41.72000 200.649
41.76000 208.287
41.80000 208.515
41.84000 209.067
41.88000 192.339
41.92000 212.650
41.96000 203.138
42.00000 202.260
42.04000 192.834
42.08000 208.026
42.12000 218.247
42.16000 203.836
42.20000 204.571
42.24000 214.939
42.28000 213.819
42.32000 210.129
42.36000 205.044
42.40000 200.504
42.44000 195.501
42.48000 200.969
42.52000 202.383
42.56000 206.685
42.60000 200.285
42.64000 202.457
42.68000 211.595
42.72000 201.402
42.76000 200.448
42.80000 196.177
42.84000 198.544
42.88000 210.629
42.92000 194.246
42.96000 196.736
43.00000 203.101
43.04000 206.634
43.08000 193.020
43.12000 202.555
43.16000 191.087
43.20000 191.388
43.24000 200.665
43.28000 208.255
43.32000 202.288
43.36000 212.438
43.40000 196.465
43.44000 191.312
43.48000 209.275
43.52000 200.509
43.56000 193.045
43.60000 195.155
43.64000 199.865
43.68000 196.826
43.72000 192.138
43.76000 189.610
43.80000 189.869
43.84000 187.204
43.88000 189.669
43.92000 185.644
43.96000 194.304
44.00000 182.429
44.04000 186.915
44.08000 195.460
44.12000 184.794
44.16000 197.607
44.20000 189.951
44.24000 185.563
44.28000 203.747
44.32000 201.253
44.36000 193.397
44.40000 197.218
44.44000 198.338
44.48000 201.857
44.52000 206.149
44.56000 204.181
44.60000 223.004
44.64000 212.233
44.68000 218.867
44.72000 230.700
44.76000 227.075
44.80000 229.235
44.84000 230.308
44.88000 226.912
44.92000 239.600
44.96000 262.568
45.00000 256.622
45.04000 266.096
45.08000 271.125
45.12000 257.204
45.16000 265.827
45.20000 259.767
45.24000 249.241
45.28000 240.493
45.32000 236.081
45.36000 235.315
45.40000 221.882
45.44000 230.690
45.48000 222.563
45.52000 226.428
45.56000 227.940
45.60000 209.381
45.64000 207.295
45.68000 206.529
45.72000 206.817
45.76000 213.611
45.80000 198.054
45.84000 190.382
45.88000 176.280
45.92000 195.560
45.96000 186.999
46.00000 187.980
46.04000 187.063
46.08000 192.339
46.12000 171.196
46.16000 174.587
46.20000 180.750
46.24000 188.106
46.28000 191.340
46.32000 172.129
46.36000 178.164
46.40000 170.091
46.44000 160.971
46.48000 179.528
46.52000 171.055
46.56000 159.078
46.60000 172.683
46.64000 176.918
46.68000 167.544
46.72000 182.393
46.76000 183.136
46.80000 160.124
46.84000 186.001
46.88000 170.089
46.92000 173.765
46.96000 177.456
47.00000 181.207
47.04000 168.482
47.08000 167.124
47.12000 166.893
47.16000 164.905
47.20000 169.915
47.24000 168.247
47.28000 161.523
47.32000 166.426
47.36000 165.937
47.40000 167.555
47.44000 159.076
47.48000 161.897
47.52000 159.943
47.56000 169.530
47.60000 167.759
47.64000 167.051
47.68000 159.842
47.72000 153.967
47.76000 156.456
47.80000 154.714
47.84000 160.437
47.88000 160.898
47.92000 164.144
47.96000 167.463
48.00000 162.723
48.04000 150.070
48.08000 159.774
48.12000 151.206
48.16000 156.346
48.20000 170.315
48.24000 160.676
48.28000 152.074
48.32000 158.679
48.36000 157.075
48.40000 160.894
48.44000 165.959
48.48000 155.431
48.52000 162.574
48.56000 154.648
48.60000 161.549
48.64000 163.689
48.68000 166.660
48.72000 153.060
48.76000 150.940
48.80000 161.002
48.84000 153.255
48.88000 156.097
48.92000 151.541
48.96000 147.450
49.00000 162.862
49.04000 163.148
49.08000 149.267
49.12000 164.180
49.16000 158.400
49.20000 154.355
49.24000 158.934
49.28000 160.964
49.32000 142.968
49.36000 168.876
49.40000 147.808
49.44000 144.812
49.48000 152.939
49.52000 159.536
49.56000 154.426
49.60000 160.134
49.64000 159.109
49.68000 150.907
49.72000 134.706
49.76000 149.306
49.80000 159.945
49.84000 152.102
49.88000 159.207
49.92000 150.338
49.96000 160.790
50.00000 154.765
50.04000 138.522
50.08000 145.270
50.12000 161.536
50.16000 163.676
50.20000 169.156
50.24000 160.838
50.28000 154.303
50.32000 159.155
50.36000 174.094
50.40000 163.669
50.44000 171.806
50.48000 172.261
50.52000 190.091
50.56000 178.251
50.60000 188.569
50.64000 189.884
50.68000 191.349
50.72000 192.531
50.76000 184.994
50.80000 172.014
50.84000 180.635
50.88000 184.224
50.92000 164.804
50.96000 172.443
51.00000 162.347
51.04000 164.666
51.08000 163.090
51.12000 148.085
51.16000 149.953
51.20000 159.503
51.24000 152.185
51.28000 160.947
51.32000 142.295
51.36000 153.140
51.40000 144.957
51.44000 147.918
51.48000 139.429
51.52000 154.587
51.56000 142.975
51.60000 155.914
51.64000 150.167
51.68000 141.000
51.72000 149.824
51.76000 146.620
51.80000 150.044
51.84000 135.459
51.88000 140.073
51.92000 143.427
51.96000 142.648
52.00000 146.221
52.04000 140.990
52.08000 147.234
52.12000 147.885
52.16000 138.993
52.20000 136.964
52.24000 136.107
52.28000 138.340
52.32000 147.154
52.36000 140.125
52.40000 133.133
52.44000 133.954
52.48000 128.559
52.52000 149.719
52.56000 134.525
52.60000 140.144
52.64000 138.703
52.68000 142.513
52.72000 135.997
52.76000 138.919
52.80000 133.894
52.84000 137.059
52.88000 135.212
52.92000 142.194
52.96000 143.655
53.00000 144.456
53.04000 160.385
53.08000 153.451
53.12000 145.133
53.16000 151.982
53.20000 148.472
53.24000 148.495
53.28000 155.901
53.32000 159.505
53.36000 163.678
53.40000 162.977
53.44000 161.929
53.48000 146.187
53.52000 146.597
53.56000 154.778
53.60000 145.805
53.64000 148.909
53.68000 151.388
53.72000 145.357
53.76000 134.691
53.80000 141.139
53.84000 141.223
53.88000 139.055
53.92000 138.175
53.96000 143.489
54.00000 142.075
54.04000 145.031
54.08000 136.093
54.12000 135.413
54.16000 126.684
54.20000 138.342
54.24000 142.826
54.28000 138.644
54.32000 143.236
54.36000 136.358
54.40000 137.003
54.44000 146.741
54.48000 136.372
54.52000 129.922
54.56000 135.344
54.60000 144.977
54.64000 152.485
54.68000 148.318
54.72000 147.882
54.76000 147.659
54.80000 152.988
54.84000 134.467
54.88000 144.163
54.92000 156.206
54.96000 153.406
55.00000 151.151
55.04000 153.945
55.08000 140.107
55.12000 152.237
55.16000 150.005
55.20000 146.387
55.24000 168.125
55.28000 158.178
55.32000 170.177
55.36000 164.309
55.40000 186.346
55.44000 193.987
55.48000 221.634
55.52000 239.968
55.56000 282.638
55.60000 327.299
55.64000 383.042
55.68000 419.986
55.72000 502.227
55.76000 560.043
55.80000 610.013
55.84000 666.959
55.88000 692.623
55.92000 695.199
55.96000 667.398
56.00000 652.738
56.04000 604.445
56.08000 568.377
56.12000 490.497
56.16000 427.005
56.20000 357.258
56.24000 298.112
56.28000 279.688
56.32000 238.757
56.36000 226.281
56.40000 187.459
56.44000 181.006
56.48000 161.916
56.52000 162.121
56.56000 153.074
56.60000 145.068
56.64000 144.049
56.68000 150.466
56.72000 138.299
56.76000 134.416
56.80000 146.597
56.84000 133.197
56.88000 129.614
56.92000 137.616
56.96000 140.268
57.00000 131.513
57.04000 133.824
57.08000 126.548
57.12000 126.765
57.16000 130.377
57.20000 118.551
57.24000 123.794
57.28000 130.286
57.32000 129.792
57.36000 125.494
57.40000 121.982
57.44000 122.331
57.48000 126.158
57.52000 132.374
57.56000 120.841
57.60000 121.057
57.64000 118.626
57.68000 119.683
57.72000 132.964
57.76000 120.690
57.80000 127.672
57.84000 126.524
57.88000 115.038
57.92000 112.848
57.96000 119.118
58.00000 118.752
58.04000 118.506
58.08000 119.217
58.12000 126.361
58.16000 126.893
58.20000 115.989
58.24000 110.718
58.28000 118.465
58.32000 115.946
58.36000 124.767
58.40000 121.291
58.44000 125.053
58.48000 115.722
58.52000 116.797
58.56000 118.158
58.60000 114.855
58.64000 116.381
58.68000 117.694
58.72000 121.638
58.76000 128.053
58.80000 124.717
58.84000 124.417
58.88000 118.899
58.92000 111.579
58.96000 111.257
59.00000 125.452
59.04000 122.925
59.08000 116.673
59.12000 123.539
59.16000 117.259
59.20000 116.545
59.24000 114.686
59.28000 124.043
59.32000 120.844
59.36000 115.837
59.40000 122.708
59.44000 115.794
59.48000 109.756
59.52000 119.251
59.56000 122.257
59.60000 116.711
59.64000 108.123
59.68000 120.708
59.72000 115.767
59.76000 121.044
59.80000 120.423
59.84000 115.741
59.88000 115.477
59.92000 113.883
59.96000 113.594
60.00000 112.679
60.04000 122.067
60.08000 124.752
60.12000 122.965
60.16000 116.879
60.20000 111.323
60.24000 117.013
60.28000 126.658
60.32000 116.009
60.36000 115.277
60.40000 111.147
60.44000 114.717
60.48000 113.779
60.52000 116.654
60.56000 112.829
60.60000 120.902
60.64000 114.948
60.68000 113.083
60.72000 108.770
60.76000 115.302
60.80000 122.380
60.84000 124.843
60.88000 114.772
60.92000 115.889
60.96000 118.549
61.00000 121.498
61.04000 125.553
61.08000 122.726
61.12000 137.262
61.16000 125.937
61.20000 124.929
61.24000 120.944
61.28000 119.568
61.32000 124.742
61.36000 124.362
61.40000 126.132
61.44000 115.832
61.48000 135.164
61.52000 151.533
61.56000 189.056
61.60000 235.785
61.64000 285.505
61.68000 302.203
61.72000 307.341
61.76000 291.073
61.80000 263.427
61.84000 190.652
61.88000 154.019
61.92000 137.375
61.96000 133.306
62.00000 133.875
62.04000 136.217
62.08000 126.482
62.12000 121.138
62.16000 130.662
62.20000 131.944
62.24000 116.440
62.28000 120.665
62.32000 132.207
62.36000 129.350
62.40000 117.267
62.44000 129.326
62.48000 122.141
62.52000 113.515
62.56000 127.747
62.60000 143.706
62.64000 128.713
62.68000 126.815
62.72000 125.386
62.76000 127.108
62.80000 131.408
62.84000 122.101
62.88000 130.459
62.92000 122.620
62.96000 114.791
63.00000 130.568
63.04000 136.431
63.08000 129.587
63.12000 131.845
63.16000 131.425
63.20000 143.343
63.24000 131.006
63.28000 136.189
63.32000 120.014
63.36000 128.917
63.40000 128.440
63.44000 126.043
63.48000 130.032
63.52000 131.393
63.56000 132.916
63.60000 132.630
63.64000 145.131
63.68000 135.086
63.72000 137.241
63.76000 145.990
63.80000 143.228
63.84000 138.839
63.88000 134.163
63.92000 134.311
63.96000 153.479
64.00000 143.697
64.04000 144.875
64.08000 142.902
64.12000 148.719
64.16000 148.433
64.20000 149.978
64.24000 149.587
64.28000 168.582
64.32000 158.154
64.36000 147.604
64.40000 145.434
64.44000 147.307
64.48000 170.638
64.52000 151.241
64.56000 160.698
64.60000 169.369
64.64000 164.440
64.68000 168.146
64.72000 159.002
64.76000 160.057
64.80000 171.004
64.84000 175.197
64.88000 170.697
64.92000 182.409
64.96000 190.573
65.00000 194.976
65.04000 203.759
65.08000 196.306
65.12000 210.083
65.16000 215.712
65.20000 230.441
65.24000 226.571
65.28000 248.973
65.32000 264.700
65.36000 262.951
65.40000 266.300
65.44000 280.445
65.48000 296.891
65.52000 304.249
65.56000 333.715
65.60000 362.565
65.64000 401.441
65.68000 528.938
65.72000 789.780
65.76000 1284.000
65.80000 1689.435
65.84000 2013.563
65.88000 2069.958
65.92000 2004.809
65.96000 1743.626
66.00000 1235.188
66.04000 777.613
66.08000 529.209
66.12000 428.826
66.16000 373.650
66.20000 373.077
66.24000 392.685
66.28000 425.327
66.32000 524.511
66.36000 601.985
66.40000 629.072
66.44000 646.811
66.48000 653.184
66.52000 591.090
66.56000 487.586
66.60000 407.785
66.64000 370.790
66.68000 366.018
66.72000 340.989
66.76000 330.830
66.80000 349.036
66.84000 343.121
66.88000 360.422
66.92000 364.838
66.96000 368.234
67.00000 368.221
67.04000 373.537
67.08000 381.955
67.12000 382.829
67.16000 391.499
67.20000 395.996
67.24000 395.455
67.28000 396.107
67.32000 384.144
67.36000 411.665
67.40000 393.890
67.44000 402.593
67.48000 416.002
67.52000 420.416
67.56000 425.328
67.60000 452.141
67.64000 431.211
67.68000 420.006
67.72000 445.387
67.76000 462.533
67.80000 471.880
67.84000 452.321
67.88000 473.977
67.92000 498.540
67.96000 497.617
68.00000 502.464
68.04000 481.016
68.08000 512.091
68.12000 535.661
68.16000 511.324
68.20000 533.322
68.24000 586.224
68.28000 551.064
68.32000 580.758
68.36000 585.032
68.40000 606.664
68.44000 635.819
68.48000 660.869
68.52000 708.828
68.56000 741.116
68.60000 818.840
68.64000 889.571
68.68000 1062.254
68.72000 1266.689
68.76000 1447.865
68.80000 1558.138
68.84000 1808.344
68.88000 2199.849
68.92000 3127.881
68.96000 6711.361
69.00000 17424.047
69.04000 31744.158
69.08000 41395.605
69.12000 45237.063
69.16000 48292.383
69.20000 49601.012
69.24000 43077.961
69.28000 31923.945
69.32000 24985.883
69.36000 22644.014
69.40000 20250.318
69.44000 13819.767
69.48000 6870.502
69.52000 3019.832
69.56000 1593.102
69.60000 1183.405
69.64000 970.407
69.68000 873.137
69.72000 746.697
69.76000 713.045
69.80000 650.546
69.84000 596.780
69.88000 577.828
69.92000 567.081
69.96000 552.917
70.00000 532.396