File: XRD/08-10-2025 Dep 7/XY Data/BTO_Mapping_Theta2Theta_08-10-2025_001_30_-9-781_2-079.xy
20.00000 474.110
20.04000 469.438
20.08000 474.606
20.12000 466.269
20.16000 476.687
20.20000 469.851
20.24000 488.626
20.28000 479.119
20.32000 472.435
20.36000 477.345
20.40000 475.787
20.44000 444.089
20.48000 462.375
20.52000 451.471
20.56000 472.736
20.60000 479.220
20.64000 466.368
20.68000 471.763
20.72000 457.173
20.76000 472.550
20.80000 461.363
20.84000 460.915
20.88000 469.973
20.92000 458.372
20.96000 467.551
21.00000 465.244
21.04000 464.145
21.08000 482.661
21.12000 473.553
21.16000 477.759
21.20000 463.855
21.24000 439.767
21.28000 455.166
21.32000 460.158
21.36000 446.434
21.40000 460.692
21.44000 469.841
21.48000 450.531
21.52000 465.051
21.56000 461.759
21.60000 476.764
21.64000 466.175
21.68000 479.046
21.72000 469.431
21.76000 473.012
21.80000 493.558
21.84000 480.209
21.88000 494.559
21.92000 506.660
21.96000 502.922
22.00000 545.823
22.04000 537.076
22.08000 527.104
22.12000 536.823
22.16000 531.301
22.20000 516.474
22.24000 533.391
22.28000 496.464
22.32000 492.641
22.36000 489.727
22.40000 486.311
22.44000 453.771
22.48000 462.812
22.52000 453.512
22.56000 444.146
22.60000 449.526
22.64000 459.662
22.68000 437.095
22.72000 471.162
22.76000 449.543
22.80000 438.719
22.84000 422.709
22.88000 414.331
22.92000 417.390
22.96000 431.071
23.00000 432.929
23.04000 439.085
23.08000 429.983
23.12000 422.582
23.16000 448.018
23.20000 455.858
23.24000 438.091
23.28000 442.988
23.32000 425.125
23.36000 426.402
23.40000 437.513
23.44000 442.366
23.48000 426.074
23.52000 446.771
23.56000 428.047
23.60000 431.593
23.64000 433.494
23.68000 452.026
23.72000 452.900
23.76000 444.844
23.80000 444.224
23.84000 453.698
23.88000 473.919
23.92000 459.146
23.96000 459.348
24.00000 466.931
24.04000 464.774
24.08000 451.979
24.12000 459.523
24.16000 449.442
24.20000 446.484
24.24000 435.854
24.28000 427.174
24.32000 442.924
24.36000 433.238
24.40000 422.919
24.44000 418.027
24.48000 411.432
24.52000 412.738
24.56000 414.520
24.60000 416.694
24.64000 422.708
24.68000 415.335
24.72000 414.824
24.76000 414.237
24.80000 405.293
24.84000 412.392
24.88000 398.319
24.92000 401.874
24.96000 386.666
25.00000 375.845
25.04000 398.820
25.08000 401.694
25.12000 405.727
25.16000 395.766
25.20000 398.213
25.24000 415.354
25.28000 406.404
25.32000 397.020
25.36000 408.440
25.40000 398.952
25.44000 385.738
25.48000 401.455
25.52000 409.001
25.56000 387.797
25.60000 386.734
25.64000 384.266
25.68000 379.455
25.72000 389.567
25.76000 398.798
25.80000 387.569
25.84000 384.694
25.88000 395.350
25.92000 412.163
25.96000 385.513
26.00000 380.902
26.04000 391.360
26.08000 397.196
26.12000 374.709
26.16000 383.780
26.20000 375.760
26.24000 374.086
26.28000 392.575
26.32000 386.155
26.36000 369.120
26.40000 364.696
26.44000 377.772
26.48000 394.420
26.52000 379.821
26.56000 387.639
26.60000 379.746
26.64000 371.347
26.68000 379.135
26.72000 388.341
26.76000 402.394
26.80000 384.701
26.84000 388.717
26.88000 388.374
26.92000 389.671
26.96000 364.781
27.00000 363.823
27.04000 372.887
27.08000 370.138
27.12000 354.378
27.16000 367.839
27.20000 382.806
27.24000 373.059
27.28000 369.274
27.32000 371.610
27.36000 361.287
27.40000 386.857
27.44000 380.341
27.48000 380.856
27.52000 374.749
27.56000 377.620
27.60000 378.692
27.64000 377.260
27.68000 384.630
27.72000 382.315
27.76000 375.168
27.80000 364.020
27.84000 361.160
27.88000 374.531
27.92000 360.140
27.96000 377.262
28.00000 368.381
28.04000 348.568
28.08000 385.001
28.12000 355.541
28.16000 369.512
28.20000 348.375
28.24000 352.963
28.28000 370.410
28.32000 364.142
28.36000 355.474
28.40000 344.930
28.44000 355.273
28.48000 365.072
28.52000 338.691
28.56000 361.988
28.60000 362.630
28.64000 344.408
28.68000 347.786
28.72000 371.445
28.76000 354.145
28.80000 341.647
28.84000 365.377
28.88000 349.190
28.92000 355.393
28.96000 350.723
29.00000 347.223
29.04000 347.692
29.08000 372.044
29.12000 351.340
29.16000 335.543
29.20000 368.390
29.24000 364.991
29.28000 338.293
29.32000 343.247
29.36000 344.483
29.40000 353.680
29.44000 369.628
29.48000 362.258
29.52000 357.280
29.56000 352.668
29.60000 345.505
29.64000 356.325
29.68000 347.028
29.72000 363.085
29.76000 370.069
29.80000 371.373
29.84000 365.335
29.88000 378.377
29.92000 377.225
29.96000 365.129
30.00000 385.172
30.04000 390.687
30.08000 371.791
30.12000 366.132
30.16000 373.556
30.20000 383.127
30.24000 374.330
30.28000 368.833
30.32000 360.327
30.36000 361.116
30.40000 349.366
30.44000 356.327
30.48000 343.562
30.52000 360.631
30.56000 349.592
30.60000 368.362
30.64000 362.949
30.68000 357.073
30.72000 361.933
30.76000 374.075
30.80000 366.936
30.84000 369.154
30.88000 388.564
30.92000 397.085
30.96000 419.216
31.00000 445.808
31.04000 500.091
31.08000 564.315
31.12000 652.313
31.16000 787.731
31.20000 928.889
31.24000 1085.423
31.28000 1204.357
31.32000 1335.709
31.36000 1352.820
31.40000 1345.357
31.44000 1237.085
31.48000 1130.776
31.52000 965.756
31.56000 793.100
31.60000 672.244
31.64000 576.047
31.68000 482.130
31.72000 449.411
31.76000 419.836
31.80000 382.856
31.84000 376.088
31.88000 351.132
31.92000 361.938
31.96000 358.437
32.00000 362.534
32.04000 340.631
32.08000 329.551
32.12000 332.563
32.16000 326.990
32.20000 329.429
32.24000 322.977
32.28000 341.800
32.32000 331.226
32.36000 343.968
32.40000 324.224
32.44000 320.175
32.48000 315.326
32.52000 324.002
32.56000 318.754
32.60000 331.255
32.64000 323.965
32.68000 314.269
32.72000 305.874
32.76000 325.211
32.80000 313.282
32.84000 319.075
32.88000 320.959
32.92000 329.746
32.96000 317.712
33.00000 322.954
33.04000 313.670
33.08000 309.157
33.12000 305.374
33.16000 303.507
33.20000 304.089
33.24000 303.412
33.28000 311.448
33.32000 287.233
33.36000 290.011
33.40000 307.543
33.44000 298.237
33.48000 304.506
33.52000 292.146
33.56000 290.613
33.60000 304.464
33.64000 294.618
33.68000 299.325
33.72000 292.779
33.76000 302.962
33.80000 280.801
33.84000 293.734
33.88000 324.686
33.92000 305.147
33.96000 298.533
34.00000 320.212
34.04000 312.650
34.08000 316.049
34.12000 337.520
34.16000 321.627
34.20000 324.383
34.24000 348.702
34.28000 346.850
34.32000 345.757
34.36000 344.060
34.40000 342.228
34.44000 325.576
34.48000 352.794
34.52000 340.444
34.56000 327.866
34.60000 321.912
34.64000 319.725
34.68000 314.308
34.72000 309.437
34.76000 290.632
34.80000 280.716
34.84000 283.462
34.88000 286.335
34.92000 286.079
34.96000 284.348
35.00000 284.430
35.04000 283.164
35.08000 280.038
35.12000 275.306
35.16000 286.291
35.20000 270.650
35.24000 277.821
35.28000 269.890
35.32000 261.235
35.36000 255.049
35.40000 262.117
35.44000 272.508
35.48000 269.431
35.52000 281.270
35.56000 263.924
35.60000 266.098
35.64000 272.530
35.68000 265.455
35.72000 254.918
35.76000 261.180
35.80000 262.237
35.84000 261.886
35.88000 266.617
35.92000 269.130
35.96000 267.167
36.00000 271.078
36.04000 262.643
36.08000 269.520
36.12000 256.619
36.16000 263.587
36.20000 242.090
36.24000 263.557
36.28000 258.601
36.32000 261.490
36.36000 265.908
36.40000 250.412
36.44000 263.728
36.48000 255.066
36.52000 251.104
36.56000 258.604
36.60000 262.784
36.64000 251.218
36.68000 264.026
36.72000 268.056
36.76000 270.631
36.80000 286.666
36.84000 271.615
36.88000 275.196
36.92000 289.389
36.96000 283.667
37.00000 296.113
37.04000 291.542
37.08000 297.085
37.12000 285.398
37.16000 273.138
37.20000 277.832
37.24000 277.165
37.28000 260.433
37.32000 256.329
37.36000 268.433
37.40000 260.954
37.44000 261.803
37.48000 253.434
37.52000 255.172
37.56000 261.744
37.60000 256.352
37.64000 249.936
37.68000 252.253
37.72000 258.225
37.76000 250.013
37.80000 259.512
37.84000 250.268
37.88000 236.931
37.92000 249.009
37.96000 262.506
38.00000 253.683
38.04000 262.088
38.08000 251.335
38.12000 281.036
38.16000 265.187
38.20000 278.379
38.24000 286.706
38.28000 298.093
38.32000 315.273
38.36000 358.967
38.40000 417.712
38.44000 495.613
38.48000 578.737
38.52000 742.065
38.56000 874.793
38.60000 1006.725
38.64000 1099.181
38.68000 1187.572
38.72000 1209.537
38.76000 1173.765
38.80000 1056.141
38.84000 944.479
38.88000 818.160
38.92000 694.224
38.96000 541.001
39.00000 426.642
39.04000 352.752
39.08000 308.215
39.12000 290.018
39.16000 274.170
39.20000 256.776
39.24000 240.450
39.28000 252.679
39.32000 241.971
39.36000 226.049
39.40000 244.038
39.44000 255.758
39.48000 231.108
39.52000 232.110
39.56000 250.899
39.60000 235.164
39.64000 226.957
39.68000 218.368
39.72000 227.865
39.76000 224.970
39.80000 237.218
39.84000 236.946
39.88000 231.655
39.92000 231.195
39.96000 233.325
40.00000 222.321
40.04000 227.925
40.08000 218.407
40.12000 223.193
40.16000 218.823
40.20000 236.843
40.24000 233.293
40.28000 210.868
40.32000 219.237
40.36000 235.458
40.40000 209.527
40.44000 211.462
40.48000 213.300
40.52000 227.355
40.56000 234.883
40.60000 218.956
40.64000 213.372
40.68000 217.882
40.72000 209.906
40.76000 215.351
40.80000 204.462
40.84000 216.948
40.88000 221.253
40.92000 221.479
40.96000 211.342
41.00000 216.654
41.04000 203.922
41.08000 222.088
41.12000 205.025
41.16000 215.539
41.20000 214.129
41.24000 202.229
41.28000 200.687
41.32000 218.409
41.36000 213.016
41.40000 218.951
41.44000 209.061
41.48000 203.740
41.52000 208.296
41.56000 200.955
41.60000 214.674
41.64000 197.441
41.68000 197.497
41.72000 210.871
41.76000 221.168
41.80000 212.464
41.84000 192.688
41.88000 213.596
41.92000 199.934
41.96000 206.541
42.00000 212.345
42.04000 206.408
42.08000 199.687
42.12000 212.005
42.16000 207.826
42.20000 209.349
42.24000 217.519
42.28000 213.288
42.32000 211.987
42.36000 205.429
42.40000 197.645
42.44000 212.854
42.48000 222.531
42.52000 193.400
42.56000 208.830
42.60000 199.635
42.64000 195.695
42.68000 198.035
42.72000 192.648
42.76000 197.799
42.80000 207.925
42.84000 203.954
42.88000 205.081
42.92000 200.403
42.96000 197.272
43.00000 205.998
43.04000 203.742
43.08000 203.616
43.12000 208.558
43.16000 198.066
43.20000 200.712
43.24000 195.907
43.28000 205.448
43.32000 194.004
43.36000 198.698
43.40000 208.179
43.44000 198.362
43.48000 186.275
43.52000 197.612
43.56000 195.904
43.60000 190.895
43.64000 200.201
43.68000 201.643
43.72000 199.678
43.76000 196.796
43.80000 197.872
43.84000 194.716
43.88000 187.421
43.92000 188.201
43.96000 184.760
44.00000 168.836
44.04000 198.215
44.08000 202.603
44.12000 190.133
44.16000 195.764
44.20000 187.186
44.24000 204.282
44.28000 198.803
44.32000 190.243
44.36000 201.791
44.40000 214.214
44.44000 207.323
44.48000 205.076
44.52000 209.122
44.56000 208.615
44.60000 214.041
44.64000 221.709
44.68000 219.984
44.72000 225.103
44.76000 234.684
44.80000 233.237
44.84000 235.703
44.88000 249.142
44.92000 246.923
44.96000 250.919
45.00000 264.560
45.04000 273.628
45.08000 260.066
45.12000 255.177
45.16000 259.929
45.20000 240.270
45.24000 251.898
45.28000 248.779
45.32000 239.930
45.36000 232.072
45.40000 222.585
45.44000 222.208
45.48000 222.514
45.52000 207.511
45.56000 217.297
45.60000 211.802
45.64000 205.394
45.68000 201.881
45.72000 197.081
45.76000 191.033
45.80000 205.278
45.84000 193.034
45.88000 200.450
45.92000 191.505
45.96000 191.437
46.00000 180.029
46.04000 188.531
46.08000 186.436
46.12000 177.765
46.16000 177.668
46.20000 195.314
46.24000 169.870
46.28000 174.415
46.32000 177.027
46.36000 172.364
46.40000 171.751
46.44000 178.575
46.48000 172.187
46.52000 187.368
46.56000 166.991
46.60000 166.368
46.64000 170.874
46.68000 177.189
46.72000 151.677
46.76000 173.663
46.80000 177.676
46.84000 178.290
46.88000 168.077
46.92000 161.436
46.96000 163.283
47.00000 158.237
47.04000 180.833
47.08000 167.113
47.12000 180.702
47.16000 174.877
47.20000 177.113
47.24000 173.719
47.28000 165.893
47.32000 159.970
47.36000 174.238
47.40000 164.119
47.44000 160.952
47.48000 163.628
47.52000 164.180
47.56000 166.267
47.60000 168.158
47.64000 165.558
47.68000 163.535
47.72000 157.549
47.76000 149.053
47.80000 155.015
47.84000 159.527
47.88000 151.247
47.92000 152.877
47.96000 168.387
48.00000 168.624
48.04000 160.184
48.08000 158.382
48.12000 156.419
48.16000 165.389
48.20000 171.541
48.24000 162.883
48.28000 154.958
48.32000 150.707
48.36000 164.048
48.40000 156.157
48.44000 155.267
48.48000 158.348
48.52000 157.549
48.56000 158.704
48.60000 160.315
48.64000 159.958
48.68000 154.307
48.72000 167.689
48.76000 163.045
48.80000 154.546
48.84000 147.957
48.88000 156.218
48.92000 151.649
48.96000 155.219
49.00000 142.100
49.04000 158.223
49.08000 163.993
49.12000 149.969
49.16000 158.113
49.20000 166.532
49.24000 160.167
49.28000 158.619
49.32000 149.786
49.36000 147.711
49.40000 156.375
49.44000 151.609
49.48000 153.114
49.52000 159.918
49.56000 148.776
49.60000 146.174
49.64000 147.397
49.68000 158.345
49.72000 154.421
49.76000 150.264
49.80000 145.092
49.84000 168.785
49.88000 158.053
49.92000 156.570
49.96000 158.500
50.00000 150.568
50.04000 145.942
50.08000 152.663
50.12000 150.165
50.16000 151.625
50.20000 149.754
50.24000 152.375
50.28000 171.533
50.32000 165.055
50.36000 155.148
50.40000 174.668
50.44000 169.187
50.48000 154.195
50.52000 174.693
50.56000 177.221
50.60000 187.270
50.64000 167.815
50.68000 176.611
50.72000 184.981
50.76000 188.784
50.80000 171.414
50.84000 167.781
50.88000 171.552
50.92000 167.432
50.96000 164.629
51.00000 162.219
51.04000 157.295
51.08000 155.519
51.12000 160.511
51.16000 153.904
51.20000 151.664
51.24000 152.777
51.28000 135.206
51.32000 147.113
51.36000 149.228
51.40000 144.367
51.44000 144.860
51.48000 146.091
51.52000 145.073
51.56000 142.026
51.60000 142.020
51.64000 138.777
51.68000 156.309
51.72000 137.364
51.76000 142.719
51.80000 144.721
51.84000 141.390
51.88000 141.588
51.92000 129.523
51.96000 146.941
52.00000 150.452
52.04000 144.291
52.08000 137.305
52.12000 143.189
52.16000 139.185
52.20000 135.833
52.24000 140.231
52.28000 143.664
52.32000 148.429
52.36000 138.156
52.40000 138.791
52.44000 132.239
52.48000 144.553
52.52000 140.578
52.56000 149.456
52.60000 141.132
52.64000 136.952
52.68000 140.487
52.72000 131.667
52.76000 138.862
52.80000 148.373
52.84000 140.713
52.88000 142.566
52.92000 141.491
52.96000 139.878
53.00000 140.268
53.04000 145.403
53.08000 150.628
53.12000 160.203
53.16000 151.236
53.20000 154.961
53.24000 160.092
53.28000 161.931
53.32000 162.423
53.36000 159.234
53.40000 162.884
53.44000 152.133
53.48000 154.273
53.52000 154.990
53.56000 161.415
53.60000 145.230
53.64000 146.472
53.68000 153.014
53.72000 149.963
53.76000 143.933
53.80000 133.816
53.84000 147.900
53.88000 150.299
53.92000 143.845
53.96000 142.771
54.00000 152.138
54.04000 134.237
54.08000 143.962
54.12000 140.242
54.16000 145.344
54.20000 136.987
54.24000 139.800
54.28000 143.296
54.32000 135.436
54.36000 141.153
54.40000 135.537
54.44000 147.046
54.48000 136.391
54.52000 140.952
54.56000 135.561
54.60000 147.865
54.64000 148.423
54.68000 141.214
54.72000 143.578
54.76000 145.531
54.80000 139.505
54.84000 146.971
54.88000 144.516
54.92000 148.008
54.96000 140.793
55.00000 146.473
55.04000 151.158
55.08000 157.325
55.12000 152.644
55.16000 155.302
55.20000 156.709
55.24000 159.242
55.28000 167.246
55.32000 173.322
55.36000 188.219
55.40000 197.539
55.44000 192.198
55.48000 233.424
55.52000 256.154
55.56000 298.823
55.60000 330.218
55.64000 399.390
55.68000 442.839
55.72000 512.660
55.76000 562.525
55.80000 615.317
55.84000 664.937
55.88000 714.633
55.92000 702.530
55.96000 694.985
56.00000 663.185
56.04000 625.074
56.08000 546.350
56.12000 483.657
56.16000 426.325
56.20000 366.668
56.24000 315.921
56.28000 285.095
56.32000 237.216
56.36000 235.154
56.40000 200.362
56.44000 179.381
56.48000 172.398
56.52000 155.926
56.56000 150.492
56.60000 155.157
56.64000 145.039
56.68000 141.028
56.72000 144.867
56.76000 139.326
56.80000 133.767
56.84000 139.247
56.88000 127.226
56.92000 144.294
56.96000 140.723
57.00000 126.889
57.04000 128.562
57.08000 133.173
57.12000 134.883
57.16000 124.579
57.20000 127.896
57.24000 136.622
57.28000 130.873
57.32000 121.687
57.36000 136.945
57.40000 129.318
57.44000 131.273
57.48000 136.468
57.52000 133.438
57.56000 124.653
57.60000 117.081
57.64000 119.851
57.68000 121.398
57.72000 144.861
57.76000 121.721
57.80000 125.944
57.84000 134.674
57.88000 127.877
57.92000 120.211
57.96000 119.577
58.00000 116.491
58.04000 121.767
58.08000 128.516
58.12000 117.769
58.16000 122.736
58.20000 125.138
58.24000 128.337
58.28000 127.541
58.32000 127.387
58.36000 109.815
58.40000 113.922
58.44000 118.808
58.48000 128.054
58.52000 125.822
58.56000 116.802
58.60000 110.119
58.64000 119.240
58.68000 119.505
58.72000 114.192
58.76000 120.928
58.80000 119.281
58.84000 117.961
58.88000 121.220
58.92000 115.771
58.96000 112.159
59.00000 117.350
59.04000 126.609
59.08000 116.936
59.12000 128.779
59.16000 118.628
59.20000 113.898
59.24000 117.654
59.28000 114.623
59.32000 123.342
59.36000 118.544
59.40000 121.239
59.44000 113.588
59.48000 127.771
59.52000 124.877
59.56000 115.296
59.60000 117.249
59.64000 118.792
59.68000 127.736
59.72000 121.584
59.76000 117.763
59.80000 111.816
59.84000 107.617
59.88000 114.367
59.92000 112.044
59.96000 125.079
60.00000 107.412
60.04000 113.249
60.08000 111.554
60.12000 107.237
60.16000 118.643
60.20000 125.246
60.24000 118.643
60.28000 114.879
60.32000 120.379
60.36000 126.010
60.40000 122.086
60.44000 128.021
60.48000 115.797
60.52000 118.525
60.56000 124.340
60.60000 116.208
60.64000 121.096
60.68000 119.205
60.72000 111.383
60.76000 113.562
60.80000 119.042
60.84000 116.490
60.88000 114.455
60.92000 112.956
60.96000 121.015
61.00000 117.352
61.04000 116.703
61.08000 128.103
61.12000 120.364
61.16000 110.282
61.20000 123.699
61.24000 122.844
61.28000 119.920
61.32000 124.857
61.36000 138.034
61.40000 129.471
61.44000 119.455
61.48000 122.623
61.52000 157.398
61.56000 192.993
61.60000 241.501
61.64000 286.201
61.68000 300.275
61.72000 297.250
61.76000 301.347
61.80000 240.470
61.84000 187.294
61.88000 145.945
61.92000 134.732
61.96000 134.072
62.00000 126.832
62.04000 122.179
62.08000 129.169
62.12000 127.234
62.16000 132.450
62.20000 129.035
62.24000 130.020
62.28000 125.067
62.32000 130.590
62.36000 127.280
62.40000 139.958
62.44000 125.945
62.48000 138.809
62.52000 123.040
62.56000 126.158
62.60000 122.941
62.64000 123.041
62.68000 125.944
62.72000 129.972
62.76000 125.517
62.80000 130.976
62.84000 128.124
62.88000 136.394
62.92000 139.980
62.96000 129.922
63.00000 133.017
63.04000 132.369
63.08000 122.503
63.12000 128.011
63.16000 132.136
63.20000 126.287
63.24000 132.885
63.28000 134.378
63.32000 137.898
63.36000 128.060
63.40000 135.367
63.44000 135.323
63.48000 140.275
63.52000 130.998
63.56000 138.448
63.60000 140.367
63.64000 147.797
63.68000 136.651
63.72000 140.165
63.76000 143.633
63.80000 139.844
63.84000 145.367
63.88000 137.630
63.92000 136.912
63.96000 129.309
64.00000 142.774
64.04000 135.132
64.08000 130.914
64.12000 146.954
64.16000 153.343
64.20000 138.668
64.24000 145.413
64.28000 155.332
64.32000 146.024
64.36000 145.973
64.40000 150.986
64.44000 167.077
64.48000 168.301
64.52000 150.228
64.56000 165.460
64.60000 167.609
64.64000 166.105
64.68000 169.507
64.72000 162.070
64.76000 163.692
64.80000 184.965
64.84000 167.044
64.88000 178.074
64.92000 176.532
64.96000 191.992
65.00000 194.800
65.04000 199.656
65.08000 195.843
65.12000 209.216
65.16000 205.017
65.20000 199.437
65.24000 231.586
65.28000 221.321
65.32000 239.930
65.36000 264.880
65.40000 276.764
65.44000 285.687
65.48000 293.917
65.52000 302.639
65.56000 311.761
65.60000 355.693
65.64000 382.860
65.68000 527.170
65.72000 794.975
65.76000 1314.960
65.80000 1726.347
65.84000 2017.649
65.88000 2031.309
65.92000 1970.452
65.96000 1653.509
66.00000 1161.498
66.04000 714.223
66.08000 497.026
66.12000 412.579
66.16000 362.748
66.20000 361.688
66.24000 378.859
66.28000 431.229
66.32000 530.401
66.36000 607.423
66.40000 624.790
66.44000 616.051
66.48000 599.906
66.52000 551.108
66.56000 442.335
66.60000 397.996
66.64000 351.108
66.68000 355.604
66.72000 366.822
66.76000 361.633
66.80000 344.532
66.84000 359.597
66.88000 364.092
66.92000 357.802
66.96000 348.839
67.00000 370.489
67.04000 378.988
67.08000 387.999
67.12000 385.916
67.16000 378.477
67.20000 373.153
67.24000 386.554
67.28000 380.913
67.32000 425.167
67.36000 393.860
67.40000 422.356
67.44000 418.464
67.48000 421.253
67.52000 420.687
67.56000 426.741
67.60000 442.595
67.64000 438.531
67.68000 434.262
67.72000 453.484
67.76000 449.409
67.80000 464.282
67.84000 447.809
67.88000 483.535
67.92000 495.911
67.96000 488.667
68.00000 500.072
68.04000 502.751
68.08000 503.034
68.12000 525.487
68.16000 541.090
68.20000 546.459
68.24000 534.991
68.28000 550.927
68.32000 600.950
68.36000 590.859
68.40000 623.564
68.44000 647.266
68.48000 672.323
68.52000 695.690
68.56000 715.085
68.60000 850.530
68.64000 933.322
68.68000 1110.279
68.72000 1286.739
68.76000 1478.159
68.80000 1626.037
68.84000 1824.450
68.88000 2245.894
68.92000 3299.997
68.96000 7636.921
69.00000 18978.900
69.04000 32823.758
69.08000 41802.449
69.12000 45041.898
69.16000 47947.734
69.20000 48712.105
69.24000 41301.977
69.28000 30516.611
69.32000 24195.770
69.36000 22331.207
69.40000 19406.664
69.44000 12766.659
69.48000 6169.521
69.52000 2726.693
69.56000 1500.427
69.60000 1148.869
69.64000 974.706
69.68000 834.913
69.72000 770.029
69.76000 724.466
69.80000 633.918
69.84000 603.934
69.88000 567.103
69.92000 554.104
69.96000 527.726
70.00000 508.355