File: XRD/08-10-2025 Dep 7/XY Data/BTO_Mapping_Theta2Theta_08-10-2025_001_57_26-765_-29-726.xy
20.00000 491.305
20.04000 492.747
20.08000 484.967
20.12000 482.625
20.16000 481.860
20.20000 495.690
20.24000 481.502
20.28000 493.643
20.32000 459.939
20.36000 474.038
20.40000 446.231
20.44000 475.537
20.48000 478.663
20.52000 458.059
20.56000 477.504
20.60000 493.503
20.64000 484.668
20.68000 482.967
20.72000 463.094
20.76000 461.213
20.80000 465.255
20.84000 473.725
20.88000 463.000
20.92000 478.763
20.96000 484.813
21.00000 479.610
21.04000 471.987
21.08000 460.715
21.12000 457.976
21.16000 469.952
21.20000 480.650
21.24000 465.972
21.28000 487.836
21.32000 464.811
21.36000 483.299
21.40000 466.074
21.44000 486.253
21.48000 460.864
21.52000 477.666
21.56000 482.437
21.60000 482.397
21.64000 463.170
21.68000 480.594
21.72000 498.881
21.76000 492.401
21.80000 499.080
21.84000 513.353
21.88000 504.168
21.92000 520.520
21.96000 543.054
22.00000 500.845
22.04000 518.265
22.08000 500.261
22.12000 507.433
22.16000 503.961
22.20000 502.140
22.24000 498.128
22.28000 478.262
22.32000 490.039
22.36000 489.946
22.40000 469.534
22.44000 478.770
22.48000 465.476
22.52000 466.765
22.56000 469.862
22.60000 458.988
22.64000 443.963
22.68000 438.228
22.72000 472.452
22.76000 460.176
22.80000 460.630
22.84000 451.073
22.88000 465.399
22.92000 450.561
22.96000 448.363
23.00000 457.595
23.04000 446.970
23.08000 468.777
23.12000 479.840
23.16000 452.856
23.20000 456.649
23.24000 446.957
23.28000 450.172
23.32000 436.635
23.36000 443.098
23.40000 459.523
23.44000 451.328
23.48000 458.657
23.52000 460.659
23.56000 465.347
23.60000 468.292
23.64000 466.215
23.68000 485.532
23.72000 491.299
23.76000 515.767
23.80000 519.306
23.84000 530.384
23.88000 544.084
23.92000 567.615
23.96000 572.696
24.00000 582.007
24.04000 560.351
24.08000 561.402
24.12000 536.086
24.16000 482.916
24.20000 485.929
24.24000 482.765
24.28000 472.161
24.32000 459.608
24.36000 456.601
24.40000 440.050
24.44000 426.272
24.48000 434.028
24.52000 424.363
24.56000 416.057
24.60000 423.291
24.64000 417.677
24.68000 418.848
24.72000 430.663
24.76000 422.776
24.80000 415.965
24.84000 413.527
24.88000 408.502
24.92000 417.150
24.96000 412.528
25.00000 414.163
25.04000 414.476
25.08000 409.030
25.12000 404.062
25.16000 408.854
25.20000 417.551
25.24000 429.201
25.28000 404.760
25.32000 410.772
25.36000 416.209
25.40000 395.904
25.44000 403.724
25.48000 405.649
25.52000 409.726
25.56000 398.019
25.60000 395.698
25.64000 392.930
25.68000 397.261
25.72000 412.842
25.76000 403.279
25.80000 418.958
25.84000 424.358
25.88000 419.096
25.92000 390.798
25.96000 404.156
26.00000 412.674
26.04000 391.630
26.08000 401.839
26.12000 391.971
26.16000 394.020
26.20000 383.514
26.24000 381.929
26.28000 396.780
26.32000 391.942
26.36000 400.785
26.40000 384.870
26.44000 362.245
26.48000 381.997
26.52000 389.863
26.56000 386.659
26.60000 383.121
26.64000 375.672
26.68000 370.540
26.72000 373.029
26.76000 402.353
26.80000 379.734
26.84000 384.927
26.88000 386.680
26.92000 389.039
26.96000 380.311
27.00000 393.434
27.04000 385.845
27.08000 380.813
27.12000 390.755
27.16000 374.291
27.20000 371.957
27.24000 377.756
27.28000 367.540
27.32000 393.708
27.36000 389.969
27.40000 388.238
27.44000 368.348
27.48000 382.268
27.52000 375.991
27.56000 394.369
27.60000 394.668
27.64000 377.046
27.68000 365.775
27.72000 370.436
27.76000 386.781
27.80000 382.637
27.84000 376.014
27.88000 373.667
27.92000 375.061
27.96000 380.835
28.00000 388.686
28.04000 372.373
28.08000 375.817
28.12000 361.210
28.16000 373.304
28.20000 373.495
28.24000 379.474
28.28000 378.779
28.32000 372.867
28.36000 358.930
28.40000 362.373
28.44000 360.817
28.48000 368.687
28.52000 364.452
28.56000 364.409
28.60000 368.394
28.64000 375.729
28.68000 353.784
28.72000 361.641
28.76000 370.241
28.80000 370.551
28.84000 388.399
28.88000 357.734
28.92000 369.168
28.96000 373.971
29.00000 367.247
29.04000 371.648
29.08000 381.238
29.12000 370.285
29.16000 375.009
29.20000 369.562
29.24000 379.364
29.28000 369.604
29.32000 351.514
29.36000 364.378
29.40000 354.813
29.44000 361.352
29.48000 349.700
29.52000 354.704
29.56000 364.375
29.60000 382.187
29.64000 362.095
29.68000 389.419
29.72000 375.608
29.76000 375.443
29.80000 361.594
29.84000 368.397
29.88000 360.004
29.92000 398.009
29.96000 396.748
30.00000 384.344
30.04000 384.860
30.08000 398.188
30.12000 367.582
30.16000 367.556
30.20000 372.116
30.24000 377.925
30.28000 364.690
30.32000 380.158
30.36000 350.909
30.40000 363.908
30.44000 383.969
30.48000 380.886
30.52000 377.539
30.56000 383.691
30.60000 368.803
30.64000 381.344
30.68000 377.595
30.72000 400.820
30.76000 408.056
30.80000 402.037
30.84000 405.591
30.88000 424.619
30.92000 437.509
30.96000 458.228
31.00000 501.577
31.04000 538.535
31.08000 591.254
31.12000 660.660
31.16000 751.966
31.20000 862.503
31.24000 926.515
31.28000 1046.006
31.32000 1102.469
31.36000 1113.476
31.40000 1101.697
31.44000 1024.724
31.48000 917.344
31.52000 832.298
31.56000 715.409
31.60000 643.263
31.64000 565.587
31.68000 497.392
31.72000 475.301
31.76000 440.348
31.80000 437.709
31.84000 408.054
31.88000 389.392
31.92000 394.231
31.96000 357.764
32.00000 359.521
32.04000 362.294
32.08000 346.753
32.12000 347.951
32.16000 363.102
32.20000 349.517
32.24000 351.820
32.28000 345.015
32.32000 341.279
32.36000 363.059
32.40000 334.716
32.44000 347.348
32.48000 343.055
32.52000 321.148
32.56000 328.299
32.60000 324.788
32.64000 325.167
32.68000 323.038
32.72000 340.830
32.76000 340.885
32.80000 323.540
32.84000 328.646
32.88000 332.805
32.92000 321.308
32.96000 338.342
33.00000 324.276
33.04000 320.865
33.08000 306.000
33.12000 295.751
33.16000 299.103
33.20000 318.263
33.24000 313.847
33.28000 311.548
33.32000 292.396
33.36000 293.644
33.40000 306.797
33.44000 315.809
33.48000 302.493
33.52000 324.648
33.56000 303.248
33.60000 288.558
33.64000 299.800
33.68000 305.898
33.72000 309.511
33.76000 301.287
33.80000 312.547
33.84000 293.639
33.88000 308.829
33.92000 306.007
33.96000 322.763
34.00000 309.694
34.04000 329.815
34.08000 332.481
34.12000 329.977
34.16000 329.361
34.20000 310.578
34.24000 339.565
34.28000 346.723
34.32000 329.513
34.36000 319.992
34.40000 332.446
34.44000 332.474
34.48000 322.519
34.52000 328.027
34.56000 314.715
34.60000 304.345
34.64000 295.298
34.68000 297.612
34.72000 303.904
34.76000 292.382
34.80000 298.138
34.84000 273.697
34.88000 291.867
34.92000 283.478
34.96000 296.350
35.00000 272.527
35.04000 276.222
35.08000 289.076
35.12000 273.193
35.16000 273.392
35.20000 267.635
35.24000 282.135
35.28000 275.110
35.32000 272.187
35.36000 266.461
35.40000 272.383
35.44000 282.834
35.48000 251.079
35.52000 280.121
35.56000 264.559
35.60000 269.822
35.64000 268.631
35.68000 267.202
35.72000 275.092
35.76000 268.490
35.80000 270.851
35.84000 264.224
35.88000 273.994
35.92000 256.758
35.96000 270.329
36.00000 244.877
36.04000 266.396
36.08000 264.752
36.12000 269.348
36.16000 264.814
36.20000 269.363
36.24000 270.096
36.28000 262.855
36.32000 261.657
36.36000 262.158
36.40000 254.564
36.44000 252.364
36.48000 255.208
36.52000 279.098
36.56000 266.463
36.60000 246.533
36.64000 262.282
36.68000 266.231
36.72000 261.689
36.76000 266.580
36.80000 261.806
36.84000 260.664
36.88000 271.321
36.92000 283.103
36.96000 279.864
37.00000 283.359
37.04000 271.052
37.08000 276.232
37.12000 279.702
37.16000 272.863
37.20000 269.218
37.24000 264.606
37.28000 265.696
37.32000 256.701
37.36000 246.729
37.40000 256.832
37.44000 255.784
37.48000 257.572
37.52000 262.214
37.56000 257.135
37.60000 249.981
37.64000 248.677
37.68000 256.116
37.72000 268.134
37.76000 268.278
37.80000 258.250
37.84000 262.221
37.88000 260.676
37.92000 265.407
37.96000 273.352
38.00000 263.909
38.04000 257.346
38.08000 267.995
38.12000 262.793
38.16000 272.417
38.20000 279.157
38.24000 289.043
38.28000 297.147
38.32000 315.561
38.36000 333.668
38.40000 360.525
38.44000 420.688
38.48000 470.411
38.52000 584.417
38.56000 679.164
38.60000 742.465
38.64000 808.391
38.68000 835.492
38.72000 858.561
38.76000 792.217
38.80000 702.190
38.84000 614.661
38.88000 527.688
38.92000 451.618
38.96000 388.338
39.00000 349.428
39.04000 298.535
39.08000 278.304
39.12000 262.980
39.16000 267.259
39.20000 263.653
39.24000 253.938
39.28000 249.516
39.32000 249.170
39.36000 248.252
39.40000 237.276
39.44000 233.713
39.48000 244.135
39.52000 244.843
39.56000 239.242
39.60000 238.460
39.64000 237.977
39.68000 232.934
39.72000 235.029
39.76000 232.133
39.80000 237.238
39.84000 231.459
39.88000 242.078
39.92000 232.289
39.96000 227.887
40.00000 224.666
40.04000 241.348
40.08000 229.108
40.12000 226.329
40.16000 228.167
40.20000 226.728
40.24000 223.476
40.28000 220.057
40.32000 222.144
40.36000 218.775
40.40000 217.523
40.44000 217.705
40.48000 234.239
40.52000 215.354
40.56000 218.251
40.60000 224.127
40.64000 219.855
40.68000 223.034
40.72000 228.215
40.76000 233.822
40.80000 226.879
40.84000 214.931
40.88000 229.718
40.92000 213.803
40.96000 216.736
41.00000 214.894
41.04000 216.170
41.08000 220.864
41.12000 217.183
41.16000 220.077
41.20000 203.567
41.24000 213.350
41.28000 206.618
41.32000 202.050
41.36000 210.674
41.40000 207.578
41.44000 208.054
41.48000 204.178
41.52000 216.343
41.56000 202.377
41.60000 213.541
41.64000 205.987
41.68000 206.360
41.72000 225.027
41.76000 216.453
41.80000 209.473
41.84000 230.125
41.88000 220.268
41.92000 215.931
41.96000 221.884
42.00000 215.853
42.04000 203.123
42.08000 227.956
42.12000 218.219
42.16000 219.795
42.20000 211.639
42.24000 211.879
42.28000 220.652
42.32000 228.997
42.36000 230.409
42.40000 220.113
42.44000 221.221
42.48000 217.064
42.52000 225.395
42.56000 219.565
42.60000 214.572
42.64000 211.403
42.68000 204.202
42.72000 213.288
42.76000 229.122
42.80000 220.548
42.84000 217.930
42.88000 224.350
42.92000 214.106
42.96000 217.488
43.00000 207.826
43.04000 203.651
43.08000 215.467
43.12000 203.823
43.16000 197.957
43.20000 219.311
43.24000 197.400
43.28000 211.534
43.32000 207.956
43.36000 204.387
43.40000 210.471
43.44000 203.172
43.48000 189.682
43.52000 207.686
43.56000 200.221
43.60000 195.717
43.64000 201.513
43.68000 193.746
43.72000 193.168
43.76000 200.584
43.80000 197.793
43.84000 194.480
43.88000 197.041
43.92000 198.791
43.96000 190.470
44.00000 186.193
44.04000 192.205
44.08000 194.830
44.12000 184.550
44.16000 200.687
44.20000 207.407
44.24000 197.792
44.28000 199.051
44.32000 208.148
44.36000 214.971
44.40000 203.565
44.44000 209.588
44.48000 210.224
44.52000 211.724
44.56000 227.478
44.60000 231.623
44.64000 229.789
44.68000 227.365
44.72000 239.262
44.76000 233.763
44.80000 225.333
44.84000 242.703
44.88000 228.724
44.92000 240.610
44.96000 241.555
45.00000 238.894
45.04000 259.036
45.08000 244.835
45.12000 244.520
45.16000 229.144
45.20000 232.881
45.24000 222.489
45.28000 218.115
45.32000 221.121
45.36000 221.124
45.40000 208.893
45.44000 205.862
45.48000 207.961
45.52000 212.315
45.56000 206.309
45.60000 203.173
45.64000 198.931
45.68000 184.015
45.72000 201.259
45.76000 184.629
45.80000 193.187
45.84000 190.567
45.88000 190.070
45.92000 189.438
45.96000 182.457
46.00000 181.487
46.04000 178.639
46.08000 175.039
46.12000 185.346
46.16000 191.312
46.20000 190.465
46.24000 185.510
46.28000 169.927
46.32000 177.493
46.36000 177.600
46.40000 175.641
46.44000 183.275
46.48000 192.687
46.52000 182.788
46.56000 181.099
46.60000 178.082
46.64000 177.285
46.68000 170.654
46.72000 177.677
46.76000 175.723
46.80000 175.672
46.84000 169.531
46.88000 164.997
46.92000 173.199
46.96000 174.577
47.00000 176.490
47.04000 173.066
47.08000 177.418
47.12000 175.058
47.16000 169.547
47.20000 174.469
47.24000 161.439
47.28000 175.882
47.32000 168.789
47.36000 157.264
47.40000 169.650
47.44000 165.331
47.48000 170.145
47.52000 169.396
47.56000 170.277
47.60000 169.156
47.64000 168.750
47.68000 154.742
47.72000 170.464
47.76000 162.865
47.80000 161.948
47.84000 170.343
47.88000 152.131
47.92000 173.130
47.96000 169.580
48.00000 164.565
48.04000 177.603
48.08000 159.618
48.12000 165.592
48.16000 156.958
48.20000 167.977
48.24000 162.120
48.28000 168.966
48.32000 162.199
48.36000 167.548
48.40000 168.323
48.44000 158.841
48.48000 163.657
48.52000 158.896
48.56000 164.502
48.60000 177.207
48.64000 165.392
48.68000 157.925
48.72000 153.770
48.76000 173.687
48.80000 163.520
48.84000 152.548
48.88000 154.138
48.92000 163.363
48.96000 162.427
49.00000 155.867
49.04000 158.015
49.08000 151.899
49.12000 160.929
49.16000 159.487
49.20000 166.707
49.24000 148.522
49.28000 160.620
49.32000 158.881
49.36000 152.702
49.40000 159.480
49.44000 162.819
49.48000 150.855
49.52000 149.661
49.56000 158.992
49.60000 155.729
49.64000 150.377
49.68000 160.064
49.72000 159.361
49.76000 158.175
49.80000 153.440
49.84000 156.020
49.88000 145.570
49.92000 161.002
49.96000 146.338
50.00000 159.580
50.04000 153.584
50.08000 160.387
50.12000 155.834
50.16000 169.047
50.20000 162.537
50.24000 155.000
50.28000 160.599
50.32000 163.714
50.36000 173.326
50.40000 155.489
50.44000 156.403
50.48000 164.791
50.52000 158.959
50.56000 175.323
50.60000 169.178
50.64000 170.178
50.68000 171.495
50.72000 171.541
50.76000 174.144
50.80000 184.111
50.84000 168.271
50.88000 168.638
50.92000 164.708
50.96000 157.630
51.00000 150.138
51.04000 154.117
51.08000 160.122
51.12000 151.204
51.16000 159.451
51.20000 147.287
51.24000 156.899
51.28000 148.539
51.32000 143.102
51.36000 136.875
51.40000 147.808
51.44000 146.002
51.48000 147.100
51.52000 155.805
51.56000 152.546
51.60000 131.880
51.64000 140.279
51.68000 145.560
51.72000 142.919
51.76000 142.136
51.80000 146.957
51.84000 144.746
51.88000 140.191
51.92000 146.216
51.96000 144.438
52.00000 142.988
52.04000 150.195
52.08000 141.929
52.12000 143.973
52.16000 147.580
52.20000 144.920
52.24000 142.965
52.28000 144.475
52.32000 134.933
52.36000 136.386
52.40000 142.600
52.44000 136.879
52.48000 138.580
52.52000 146.046
52.56000 135.075
52.60000 143.267
52.64000 130.826
52.68000 139.458
52.72000 135.456
52.76000 150.374
52.80000 136.837
52.84000 147.047
52.88000 142.866
52.92000 137.548
52.96000 140.017
53.00000 145.665
53.04000 153.508
53.08000 142.497
53.12000 156.598
53.16000 139.083
53.20000 147.568
53.24000 154.995
53.28000 161.747
53.32000 151.796
53.36000 162.902
53.40000 150.243
53.44000 149.532
53.48000 137.590
53.52000 149.343
53.56000 157.421
53.60000 130.248
53.64000 143.391
53.68000 147.129
53.72000 148.631
53.76000 136.679
53.80000 147.052
53.84000 151.680
53.88000 147.301
53.92000 139.469
53.96000 142.686
54.00000 150.438
54.04000 149.652
54.08000 148.611
54.12000 141.240
54.16000 150.136
54.20000 140.921
54.24000 148.729
54.28000 135.310
54.32000 144.921
54.36000 143.552
54.40000 138.869
54.44000 155.260
54.48000 141.484
54.52000 141.865
54.56000 135.423
54.60000 146.619
54.64000 149.924
54.68000 135.866
54.72000 138.458
54.76000 142.127
54.80000 142.448
54.84000 146.690
54.88000 147.347
54.92000 162.905
54.96000 147.277
55.00000 143.340
55.04000 151.571
55.08000 150.436
55.12000 166.155
55.16000 157.639
55.20000 163.441
55.24000 157.094
55.28000 171.248
55.32000 174.354
55.36000 175.076
55.40000 186.547
55.44000 186.246
55.48000 194.067
55.52000 212.612
55.56000 229.869
55.60000 233.408
55.64000 252.712
55.68000 279.554
55.72000 319.339
55.76000 334.804
55.80000 370.356
55.84000 399.654
55.88000 416.125
55.92000 419.586
55.96000 406.188
56.00000 397.274
56.04000 374.127
56.08000 351.221
56.12000 316.582
56.16000 285.153
56.20000 275.460
56.24000 230.176
56.28000 225.411
56.32000 200.443
56.36000 197.370
56.40000 174.979
56.44000 177.134
56.48000 161.138
56.52000 160.085
56.56000 153.953
56.60000 155.643
56.64000 151.116
56.68000 145.278
56.72000 137.947
56.76000 141.142
56.80000 128.407
56.84000 136.803
56.88000 135.441
56.92000 141.998
56.96000 123.153
57.00000 134.481
57.04000 131.321
57.08000 121.851
57.12000 132.987
57.16000 124.428
57.20000 137.971
57.24000 131.567
57.28000 128.354
57.32000 131.687
57.36000 133.039
57.40000 134.300
57.44000 129.205
57.48000 125.843
57.52000 130.904
57.56000 123.683
57.60000 127.598
57.64000 134.206
57.68000 132.521
57.72000 130.692
57.76000 125.838
57.80000 137.636
57.84000 126.292
57.88000 131.876
57.92000 127.045
57.96000 128.686
58.00000 136.421
58.04000 131.809
58.08000 128.116
58.12000 123.780
58.16000 124.924
58.20000 121.121
58.24000 128.266
58.28000 126.410
58.32000 128.105
58.36000 138.553
58.40000 121.180
58.44000 118.538
58.48000 119.501
58.52000 118.691
58.56000 129.419
58.60000 122.789
58.64000 127.515
58.68000 120.408
58.72000 122.958
58.76000 122.196
58.80000 123.238
58.84000 124.861
58.88000 117.832
58.92000 119.687
58.96000 117.970
59.00000 120.689
59.04000 112.738
59.08000 119.600
59.12000 123.587
59.16000 130.005
59.20000 125.243
59.24000 129.367
59.28000 122.179
59.32000 116.414
59.36000 115.693
59.40000 108.316
59.44000 125.373
59.48000 117.266
59.52000 119.613
59.56000 116.846
59.60000 121.683
59.64000 115.470
59.68000 120.445
59.72000 117.831
59.76000 121.281
59.80000 124.435
59.84000 118.266
59.88000 118.706
59.92000 114.177
59.96000 118.121
60.00000 120.325
60.04000 127.490
60.08000 118.915
60.12000 115.343
60.16000 115.366
60.20000 116.167
60.24000 129.975
60.28000 118.802
60.32000 119.350
60.36000 114.744
60.40000 124.009
60.44000 123.041
60.48000 117.820
60.52000 124.611
60.56000 123.713
60.60000 115.597
60.64000 119.283
60.68000 120.495
60.72000 109.468
60.76000 123.708
60.80000 127.977
60.84000 131.622
60.88000 126.666
60.92000 118.271
60.96000 117.379
61.00000 127.274
61.04000 121.405
61.08000 122.005
61.12000 120.178
61.16000 120.706
61.20000 127.010
61.24000 124.083
61.28000 130.207
61.32000 129.669
61.36000 132.651
61.40000 129.271
61.44000 130.700
61.48000 139.363
61.52000 175.878
61.56000 216.096
61.60000 273.035
61.64000 300.933
61.68000 291.873
61.72000 295.218
61.76000 249.732
61.80000 203.143
61.84000 169.063
61.88000 147.609
61.92000 141.431
61.96000 134.761
62.00000 139.587
62.04000 138.368
62.08000 134.003
62.12000 134.396
62.16000 127.380
62.20000 119.622
62.24000 121.322
62.28000 127.194
62.32000 120.453
62.36000 125.048
62.40000 130.206
62.44000 137.990
62.48000 130.999
62.52000 130.140
62.56000 133.401
62.60000 127.698
62.64000 129.365
62.68000 136.117
62.72000 124.258
62.76000 144.081
62.80000 138.307
62.84000 129.739
62.88000 132.608
62.92000 136.086
62.96000 131.758
63.00000 144.276
63.04000 146.617
63.08000 133.372
63.12000 120.409
63.16000 132.564
63.20000 141.994
63.24000 132.108
63.28000 136.967
63.32000 133.100
63.36000 132.360
63.40000 138.646
63.44000 148.023
63.48000 140.719
63.52000 128.777
63.56000 136.247
63.60000 139.298
63.64000 135.412
63.68000 132.075
63.72000 136.475
63.76000 143.153
63.80000 141.162
63.84000 142.015
63.88000 136.938
63.92000 147.222
63.96000 150.642
64.00000 142.600
64.04000 151.401
64.08000 146.502
64.12000 149.192
64.16000 149.939
64.20000 137.079
64.24000 145.524
64.28000 139.075
64.32000 151.232
64.36000 154.335
64.40000 152.110
64.44000 160.710
64.48000 149.695
64.52000 164.045
64.56000 165.476
64.60000 165.557
64.64000 165.310
64.68000 180.761
64.72000 174.081
64.76000 180.302
64.80000 166.703
64.84000 188.481
64.88000 187.837
64.92000 191.577
64.96000 187.862
65.00000 185.689
65.04000 195.715
65.08000 206.224
65.12000 209.068
65.16000 208.926
65.20000 227.047
65.24000 222.440
65.28000 234.234
65.32000 238.213
65.36000 248.514
65.40000 244.523
65.44000 273.238
65.48000 276.372
65.52000 288.761
65.56000 331.783
65.60000 368.698
65.64000 437.590
65.68000 652.701
65.72000 1061.802
65.76000 1501.062
65.80000 1808.783
65.84000 1875.337
65.88000 1892.745
65.92000 1753.445
65.96000 1304.986
66.00000 838.033
66.04000 559.519
66.08000 430.174
66.12000 379.017
66.16000 363.450
66.20000 366.022
66.24000 394.816
66.28000 487.862
66.32000 549.118
66.36000 624.304
66.40000 622.194
66.44000 598.267
66.48000 588.621
66.52000 495.172
66.56000 430.643
66.60000 376.644
66.64000 361.225
66.68000 347.900
66.72000 342.884
66.76000 344.639
66.80000 355.482
66.84000 346.000
66.88000 390.466
66.92000 363.007
66.96000 364.717
67.00000 358.247
67.04000 366.856
67.08000 367.410
67.12000 373.851
67.16000 376.090
67.20000 370.489
67.24000 379.379
67.28000 406.183
67.32000 403.447
67.36000 407.982
67.40000 405.059
67.44000 409.680
67.48000 403.151
67.52000 417.463
67.56000 439.721
67.60000 428.384
67.64000 434.170
67.68000 462.497
67.72000 453.938
67.76000 469.095
67.80000 462.744
67.84000 477.706
67.88000 474.593
67.92000 486.966
67.96000 500.638
68.00000 495.537
68.04000 497.075
68.08000 517.752
68.12000 534.873
68.16000 544.914
68.20000 556.280
68.24000 555.024
68.28000 559.115
68.32000 585.936
68.36000 610.926
68.40000 611.365
68.44000 662.936
68.48000 693.122
68.52000 720.067
68.56000 769.616
68.60000 883.322
68.64000 999.647
68.68000 1200.991
68.72000 1318.515
68.76000 1505.390
68.80000 1689.138
68.84000 1900.661
68.88000 2555.360
68.92000 4939.971
68.96000 12674.375
69.00000 25686.639
69.04000 36772.523
69.08000 41117.348
69.12000 43877.227
69.16000 46287.777
69.20000 42555.668
69.24000 31645.211
69.28000 24182.846
69.32000 21229.285
69.36000 19764.541
69.40000 14949.998
69.44000 7893.057
69.48000 3355.322
69.52000 1701.874
69.56000 1192.224
69.60000 996.995
69.64000 851.120
69.68000 792.196
69.72000 722.104
69.76000 667.035
69.80000 609.060
69.84000 573.994
69.88000 557.874
69.92000 526.411
69.96000 506.822
70.00000 480.929