File: XRD/08-10-2025 Dep 7/XY Data/BTO_Mapping_Theta2Theta_08-10-2025_001_21_-4-181_39-781.xy
20.00000 474.245
20.04000 474.351
20.08000 473.925
20.12000 486.232
20.16000 479.004
20.20000 477.166
20.24000 483.958
20.28000 470.397
20.32000 455.743
20.36000 474.156
20.40000 474.303
20.44000 479.804
20.48000 470.793
20.52000 464.652
20.56000 468.468
20.60000 468.318
20.64000 459.266
20.68000 477.459
20.72000 467.894
20.76000 478.581
20.80000 481.637
20.84000 473.773
20.88000 466.881
20.92000 464.477
20.96000 464.480
21.00000 460.390
21.04000 465.341
21.08000 456.146
21.12000 444.962
21.16000 477.829
21.20000 464.874
21.24000 469.395
21.28000 447.752
21.32000 455.721
21.36000 476.282
21.40000 462.321
21.44000 459.668
21.48000 459.031
21.52000 459.553
21.56000 470.165
21.60000 454.441
21.64000 464.497
21.68000 463.490
21.72000 474.160
21.76000 453.476
21.80000 482.913
21.84000 482.840
21.88000 478.197
21.92000 474.658
21.96000 496.435
22.00000 478.028
22.04000 483.531
22.08000 503.730
22.12000 523.903
22.16000 503.323
22.20000 517.136
22.24000 495.256
22.28000 497.173
22.32000 483.078
22.36000 482.303
22.40000 490.198
22.44000 462.945
22.48000 451.048
22.52000 446.873
22.56000 452.824
22.60000 453.446
22.64000 437.611
22.68000 439.374
22.72000 448.200
22.76000 452.895
22.80000 449.096
22.84000 446.413
22.88000 451.606
22.92000 453.422
22.96000 438.903
23.00000 427.831
23.04000 436.576
23.08000 436.420
23.12000 439.562
23.16000 443.069
23.20000 441.518
23.24000 423.997
23.28000 443.236
23.32000 459.949
23.36000 431.621
23.40000 432.262
23.44000 438.873
23.48000 440.290
23.52000 441.828
23.56000 441.108
23.60000 460.678
23.64000 452.995
23.68000 479.606
23.72000 450.952
23.76000 472.345
23.80000 474.948
23.84000 493.368
23.88000 505.751
23.92000 521.367
23.96000 528.602
24.00000 531.933
24.04000 521.808
24.08000 520.616
24.12000 503.720
24.16000 491.924
24.20000 489.633
24.24000 472.270
24.28000 441.260
24.32000 435.665
24.36000 432.071
24.40000 427.803
24.44000 428.890
24.48000 442.573
24.52000 414.122
24.56000 418.536
24.60000 400.816
24.64000 409.573
24.68000 410.700
24.72000 401.293
24.76000 414.114
24.80000 407.917
24.84000 405.053
24.88000 410.566
24.92000 400.951
24.96000 404.620
25.00000 398.826
25.04000 396.727
25.08000 402.750
25.12000 394.494
25.16000 400.682
25.20000 393.308
25.24000 402.796
25.28000 420.060
25.32000 386.414
25.36000 390.310
25.40000 416.699
25.44000 385.482
25.48000 391.541
25.52000 408.229
25.56000 399.238
25.60000 411.743
25.64000 391.844
25.68000 405.780
25.72000 413.918
25.76000 398.155
25.80000 393.793
25.84000 387.066
25.88000 396.361
25.92000 387.192
25.96000 399.374
26.00000 396.163
26.04000 361.316
26.08000 387.833
26.12000 387.911
26.16000 384.146
26.20000 395.049
26.24000 381.859
26.28000 379.596
26.32000 379.003
26.36000 386.495
26.40000 374.531
26.44000 354.806
26.48000 383.565
26.52000 392.789
26.56000 379.610
26.60000 377.104
26.64000 384.516
26.68000 367.480
26.72000 376.952
26.76000 372.762
26.80000 394.501
26.84000 379.891
26.88000 367.664
26.92000 381.534
26.96000 378.947
27.00000 380.109
27.04000 367.396
27.08000 386.915
27.12000 386.861
27.16000 388.667
27.20000 373.402
27.24000 388.013
27.28000 374.876
27.32000 384.801
27.36000 372.693
27.40000 367.800
27.44000 391.973
27.48000 393.709
27.52000 379.781
27.56000 376.306
27.60000 372.753
27.64000 381.584
27.68000 389.578
27.72000 377.716
27.76000 382.799
27.80000 357.790
27.84000 359.897
27.88000 368.123
27.92000 364.300
27.96000 362.918
28.00000 359.204
28.04000 354.940
28.08000 373.387
28.12000 351.318
28.16000 377.367
28.20000 362.005
28.24000 368.674
28.28000 373.230
28.32000 370.786
28.36000 362.234
28.40000 367.142
28.44000 359.151
28.48000 385.553
28.52000 358.213
28.56000 363.944
28.60000 349.278
28.64000 363.943
28.68000 353.720
28.72000 361.798
28.76000 366.104
28.80000 358.129
28.84000 358.122
28.88000 348.695
28.92000 358.096
28.96000 346.586
29.00000 364.006
29.04000 337.996
29.08000 372.788
29.12000 358.447
29.16000 340.701
29.20000 354.656
29.24000 359.752
29.28000 361.523
29.32000 362.719
29.36000 358.390
29.40000 349.401
29.44000 361.605
29.48000 365.284
29.52000 358.764
29.56000 356.769
29.60000 345.844
29.64000 351.928
29.68000 343.245
29.72000 352.973
29.76000 362.159
29.80000 367.268
29.84000 365.242
29.88000 365.984
29.92000 373.282
29.96000 384.688
30.00000 372.911
30.04000 394.154
30.08000 390.032
30.12000 393.046
30.16000 368.883
30.20000 393.039
30.24000 381.398
30.28000 384.984
30.32000 379.300
30.36000 367.337
30.40000 382.832
30.44000 368.448
30.48000 357.553
30.52000 367.078
30.56000 362.870
30.60000 360.250
30.64000 362.412
30.68000 360.925
30.72000 392.967
30.76000 371.192
30.80000 403.688
30.84000 372.804
30.88000 383.876
30.92000 396.355
30.96000 432.588
31.00000 452.877
31.04000 471.556
31.08000 527.556
31.12000 579.542
31.16000 655.897
31.20000 730.053
31.24000 860.499
31.28000 992.487
31.32000 1130.471
31.36000 1189.183
31.40000 1227.831
31.44000 1207.015
31.48000 1153.795
31.52000 1058.886
31.56000 908.173
31.60000 788.485
31.64000 674.253
31.68000 591.485
31.72000 505.190
31.76000 470.807
31.80000 430.152
31.84000 428.708
31.88000 382.026
31.92000 382.973
31.96000 374.082
32.00000 376.840
32.04000 365.120
32.08000 371.719
32.12000 357.224
32.16000 352.025
32.20000 356.223
32.24000 369.750
32.28000 333.624
32.32000 335.271
32.36000 320.735
32.40000 343.362
32.44000 327.410
32.48000 311.218
32.52000 323.536
32.56000 320.348
32.60000 322.430
32.64000 317.073
32.68000 324.209
32.72000 322.363
32.76000 333.809
32.80000 332.841
32.84000 323.422
32.88000 312.427
32.92000 307.966
32.96000 322.808
33.00000 326.723
33.04000 315.218
33.08000 318.205
33.12000 311.255
33.16000 303.456
33.20000 300.878
33.24000 302.463
33.28000 304.600
33.32000 293.772
33.36000 291.853
33.40000 307.920
33.44000 284.302
33.48000 293.787
33.52000 289.851
33.56000 306.210
33.60000 293.004
33.64000 307.129
33.68000 299.718
33.72000 297.891
33.76000 312.058
33.80000 295.353
33.84000 306.043
33.88000 294.033
33.92000 303.783
33.96000 306.662
34.00000 325.259
34.04000 307.592
34.08000 317.690
34.12000 321.670
34.16000 322.074
34.20000 327.095
34.24000 334.999
34.28000 350.723
34.32000 350.861
34.36000 331.897
34.40000 339.321
34.44000 346.672
34.48000 334.057
34.52000 326.665
34.56000 318.531
34.60000 321.811
34.64000 317.582
34.68000 315.188
34.72000 306.253
34.76000 292.676
34.80000 290.463
34.84000 296.131
34.88000 296.349
34.92000 292.496
34.96000 284.931
35.00000 280.041
35.04000 263.775
35.08000 281.863
35.12000 273.847
35.16000 276.723
35.20000 259.755
35.24000 266.234
35.28000 261.391
35.32000 271.868
35.36000 282.835
35.40000 272.329
35.44000 275.172
35.48000 267.218
35.52000 258.334
35.56000 258.273
35.60000 269.130
35.64000 271.555
35.68000 259.987
35.72000 252.458
35.76000 253.585
35.80000 279.770
35.84000 272.173
35.88000 265.107
35.92000 276.598
35.96000 265.435
36.00000 283.002
36.04000 270.963
36.08000 274.277
36.12000 246.943
36.16000 250.231
36.20000 262.666
36.24000 258.876
36.28000 267.619
36.32000 274.248
36.36000 249.505
36.40000 256.658
36.44000 265.200
36.48000 266.066
36.52000 264.637
36.56000 239.047
36.60000 255.457
36.64000 273.690
36.68000 265.751
36.72000 255.481
36.76000 255.942
36.80000 259.267
36.84000 266.880
36.88000 254.925
36.92000 266.071
36.96000 274.869
37.00000 269.191
37.04000 292.269
37.08000 268.452
37.12000 255.124
37.16000 263.274
37.20000 261.099
37.24000 266.839
37.28000 258.807
37.32000 255.049
37.36000 257.466
37.40000 254.982
37.44000 250.937
37.48000 265.468
37.52000 268.284
37.56000 258.250
37.60000 243.855
37.64000 252.121
37.68000 257.959
37.72000 267.810
37.76000 266.758
37.80000 254.200
37.84000 258.859
37.88000 255.805
37.92000 248.889
37.96000 246.028
38.00000 259.211
38.04000 264.184
38.08000 247.307
38.12000 249.795
38.16000 257.410
38.20000 259.676
38.24000 257.383
38.28000 274.771
38.32000 289.775
38.36000 281.708
38.40000 308.467
38.44000 350.612
38.48000 381.668
38.52000 468.308
38.56000 535.861
38.60000 638.213
38.64000 716.269
38.68000 801.616
38.72000 856.084
38.76000 850.279
38.80000 794.273
38.84000 738.738
38.88000 621.233
38.92000 542.563
38.96000 449.526
39.00000 388.387
39.04000 322.557
39.08000 290.520
39.12000 268.830
39.16000 258.977
39.20000 245.107
39.24000 241.007
39.28000 251.207
39.32000 227.984
39.36000 242.971
39.40000 233.906
39.44000 227.289
39.48000 238.571
39.52000 247.976
39.56000 249.686
39.60000 241.827
39.64000 233.173
39.68000 236.753
39.72000 232.756
39.76000 230.969
39.80000 221.728
39.84000 236.894
39.88000 236.214
39.92000 238.548
39.96000 227.538
40.00000 215.896
40.04000 225.219
40.08000 233.313
40.12000 226.658
40.16000 231.340
40.20000 237.382
40.24000 231.065
40.28000 225.179
40.32000 228.114
40.36000 207.303
40.40000 225.576
40.44000 232.250
40.48000 227.836
40.52000 216.815
40.56000 217.849
40.60000 217.624
40.64000 227.282
40.68000 221.947
40.72000 218.822
40.76000 213.599
40.80000 219.883
40.84000 211.093
40.88000 210.017
40.92000 215.216
40.96000 216.990
41.00000 202.458
41.04000 216.422
41.08000 220.226
41.12000 215.443
41.16000 208.470
41.20000 220.162
41.24000 209.350
41.28000 208.474
41.32000 215.416
41.36000 212.930
41.40000 204.654
41.44000 203.660
41.48000 204.181
41.52000 201.578
41.56000 204.359
41.60000 215.317
41.64000 203.133
41.68000 214.315
41.72000 213.980
41.76000 207.180
41.80000 202.408
41.84000 206.694
41.88000 210.199
41.92000 206.205
41.96000 219.660
42.00000 216.675
42.04000 215.767
42.08000 222.060
42.12000 208.360
42.16000 206.527
42.20000 220.379
42.24000 204.333
42.28000 216.824
42.32000 219.456
42.36000 214.733
42.40000 210.937
42.44000 212.721
42.48000 217.517
42.52000 205.881
42.56000 208.771
42.60000 219.441
42.64000 214.935
42.68000 205.786
42.72000 198.303
42.76000 210.189
42.80000 214.736
42.84000 207.353
42.88000 210.496
42.92000 202.976
42.96000 189.250
43.00000 217.119
43.04000 196.380
43.08000 205.669
43.12000 198.476
43.16000 188.750
43.20000 201.058
43.24000 209.493
43.28000 212.216
43.32000 200.163
43.36000 195.615
43.40000 192.618
43.44000 185.164
43.48000 195.786
43.52000 200.140
43.56000 191.557
43.60000 198.679
43.64000 185.730
43.68000 189.750
43.72000 197.225
43.76000 201.077
43.80000 185.197
43.84000 191.410
43.88000 194.814
43.92000 185.293
43.96000 186.471
44.00000 190.468
44.04000 194.284
44.08000 194.272
44.12000 189.337
44.16000 190.118
44.20000 190.229
44.24000 194.948
44.28000 194.743
44.32000 204.110
44.36000 189.543
44.40000 197.513
44.44000 199.898
44.48000 211.281
44.52000 220.301
44.56000 204.597
44.60000 225.654
44.64000 211.576
44.68000 219.331
44.72000 213.515
44.76000 230.757
44.80000 217.731
44.84000 223.814
44.88000 222.936
44.92000 228.580
44.96000 221.670
45.00000 229.918
45.04000 233.323
45.08000 225.642
45.12000 237.317
45.16000 236.189
45.20000 219.899
45.24000 239.140
45.28000 219.419
45.32000 209.108
45.36000 216.651
45.40000 213.389
45.44000 219.700
45.48000 209.743
45.52000 208.882
45.56000 211.344
45.60000 215.505
45.64000 207.742
45.68000 207.208
45.72000 189.822
45.76000 191.567
45.80000 201.383
45.84000 193.148
45.88000 184.568
45.92000 178.603
45.96000 179.489
46.00000 180.479
46.04000 183.619
46.08000 171.555
46.12000 183.152
46.16000 178.124
46.20000 158.366
46.24000 176.341
46.28000 176.686
46.32000 180.176
46.36000 180.180
46.40000 188.276
46.44000 172.983
46.48000 174.769
46.52000 180.379
46.56000 167.747
46.60000 182.815
46.64000 171.321
46.68000 169.063
46.72000 168.861
46.76000 178.080
46.80000 172.784
46.84000 183.674
46.88000 175.368
46.92000 172.794
46.96000 183.532
47.00000 171.727
47.04000 174.298
47.08000 166.127
47.12000 162.110
47.16000 169.196
47.20000 163.591
47.24000 172.367
47.28000 154.921
47.32000 164.627
47.36000 156.390
47.40000 168.267
47.44000 166.122
47.48000 164.354
47.52000 174.724
47.56000 153.105
47.60000 162.764
47.64000 170.085
47.68000 168.754
47.72000 160.017
47.76000 156.925
47.80000 154.262
47.84000 154.682
47.88000 157.895
47.92000 158.820
47.96000 153.292
48.00000 156.456
48.04000 162.419
48.08000 169.998
48.12000 161.289
48.16000 159.100
48.20000 174.006
48.24000 168.099
48.28000 165.513
48.32000 161.283
48.36000 160.307
48.40000 159.538
48.44000 153.867
48.48000 155.069
48.52000 146.710
48.56000 159.554
48.60000 163.913
48.64000 155.100
48.68000 150.792
48.72000 156.730
48.76000 156.935
48.80000 159.537
48.84000 161.455
48.88000 169.283
48.92000 159.355
48.96000 150.885
49.00000 155.824
49.04000 152.063
49.08000 153.785
49.12000 150.225
49.16000 163.526
49.20000 173.523
49.24000 160.904
49.28000 149.940
49.32000 156.472
49.36000 162.036
49.40000 160.874
49.44000 158.133
49.48000 157.794
49.52000 152.125
49.56000 162.495
49.60000 153.984
49.64000 161.503
49.68000 151.973
49.72000 162.476
49.76000 150.983
49.80000 165.984
49.84000 166.228
49.88000 154.231
49.92000 161.884
49.96000 141.231
50.00000 160.221
50.04000 155.187
50.08000 154.813
50.12000 147.665
50.16000 155.508
50.20000 152.177
50.24000 169.987
50.28000 156.046
50.32000 149.897
50.36000 160.977
50.40000 147.234
50.44000 168.798
50.48000 151.469
50.52000 159.698
50.56000 150.154
50.60000 157.085
50.64000 158.010
50.68000 161.913
50.72000 171.935
50.76000 152.872
50.80000 159.729
50.84000 170.032
50.88000 167.969
50.92000 160.434
50.96000 158.528
51.00000 163.951
51.04000 155.552
51.08000 162.784
51.12000 151.612
51.16000 146.521
51.20000 146.386
51.24000 144.989
51.28000 144.360
51.32000 144.951
51.36000 145.803
51.40000 149.900
51.44000 143.149
51.48000 156.264
51.52000 150.302
51.56000 149.197
51.60000 140.920
51.64000 138.650
51.68000 135.042
51.72000 141.874
51.76000 136.484
51.80000 147.197
51.84000 143.309
51.88000 149.757
51.92000 139.809
51.96000 138.281
52.00000 139.814
52.04000 136.187
52.08000 142.930
52.12000 142.249
52.16000 137.083
52.20000 132.894
52.24000 138.914
52.28000 144.374
52.32000 142.004
52.36000 137.609
52.40000 143.621
52.44000 133.357
52.48000 148.185
52.52000 147.417
52.56000 130.141
52.60000 137.397
52.64000 148.452
52.68000 136.212
52.72000 139.221
52.76000 143.762
52.80000 136.317
52.84000 140.115
52.88000 146.255
52.92000 156.037
52.96000 130.882
53.00000 146.106
53.04000 140.580
53.08000 139.206
53.12000 138.394
53.16000 139.441
53.20000 145.338
53.24000 138.276
53.28000 154.621
53.32000 151.652
53.36000 159.977
53.40000 150.338
53.44000 153.452
53.48000 154.954
53.52000 157.249
53.56000 145.163
53.60000 150.779
53.64000 151.655
53.68000 139.145
53.72000 143.707
53.76000 146.691
53.80000 149.594
53.84000 145.786
53.88000 140.841
53.92000 149.758
53.96000 146.555
54.00000 138.249
54.04000 136.278
54.08000 140.870
54.12000 140.301
54.16000 156.949
54.20000 133.213
54.24000 142.869
54.28000 138.426
54.32000 137.941
54.36000 132.073
54.40000 142.061
54.44000 131.376
54.48000 139.164
54.52000 148.922
54.56000 148.351
54.60000 136.712
54.64000 145.875
54.68000 132.699
54.72000 140.874
54.76000 139.576
54.80000 129.397
54.84000 143.664
54.88000 149.919
54.92000 141.049
54.96000 132.139
55.00000 140.007
55.04000 139.292
55.08000 142.919
55.12000 135.451
55.16000 147.617
55.20000 143.256
55.24000 154.829
55.28000 152.123
55.32000 155.993
55.36000 168.697
55.40000 166.996
55.44000 169.006
55.48000 188.068
55.52000 200.743
55.56000 193.820
55.60000 217.906
55.64000 245.284
55.68000 254.607
55.72000 277.273
55.76000 338.019
55.80000 366.108
55.84000 404.266
55.88000 425.067
55.92000 453.358
55.96000 457.848
56.00000 460.075
56.04000 432.395
56.08000 425.044
56.12000 385.944
56.16000 370.920
56.20000 319.284
56.24000 276.046
56.28000 232.435
56.32000 230.243
56.36000 211.027
56.40000 198.783
56.44000 175.580
56.48000 165.977
56.52000 160.800
56.56000 153.218
56.60000 149.275
56.64000 134.361
56.68000 139.796
56.72000 133.333
56.76000 138.555
56.80000 145.091
56.84000 136.038
56.88000 133.184
56.92000 134.035
56.96000 133.401
57.00000 128.862
57.04000 130.102
57.08000 128.323
57.12000 143.500
57.16000 125.909
57.20000 134.641
57.24000 130.656
57.28000 134.544
57.32000 137.091
57.36000 134.647
57.40000 137.348
57.44000 127.223
57.48000 118.808
57.52000 121.515
57.56000 121.876
57.60000 123.723
57.64000 130.515
57.68000 124.883
57.72000 135.851
57.76000 131.778
57.80000 121.183
57.84000 126.832
57.88000 133.083
57.92000 123.820
57.96000 122.617
58.00000 126.447
58.04000 122.121
58.08000 115.906
58.12000 119.620
58.16000 115.011
58.20000 130.837
58.24000 130.922
58.28000 122.266
58.32000 128.840
58.36000 118.576
58.40000 114.182
58.44000 119.821
58.48000 120.627
58.52000 120.462
58.56000 118.984
58.60000 118.805
58.64000 129.722
58.68000 120.234
58.72000 117.186
58.76000 125.365
58.80000 119.977
58.84000 124.601
58.88000 131.236
58.92000 118.978
58.96000 119.003
59.00000 113.529
59.04000 117.394
59.08000 129.761
59.12000 117.855
59.16000 120.513
59.20000 125.252
59.24000 127.293
59.28000 116.108
59.32000 119.476
59.36000 119.280
59.40000 119.840
59.44000 119.507
59.48000 120.791
59.52000 117.027
59.56000 118.053
59.60000 119.047
59.64000 121.258
59.68000 120.422
59.72000 135.103
59.76000 114.990
59.80000 109.924
59.84000 100.674
59.88000 113.714
59.92000 113.663
59.96000 115.906
60.00000 120.809
60.04000 121.253
60.08000 118.501
60.12000 111.505
60.16000 113.071
60.20000 114.009
60.24000 118.448
60.28000 109.287
60.32000 117.040
60.36000 120.859
60.40000 120.243
60.44000 115.316
60.48000 117.857
60.52000 122.376
60.56000 123.625
60.60000 114.184
60.64000 127.186
60.68000 118.486
60.72000 117.606
60.76000 119.933
60.80000 115.379
60.84000 123.411
60.88000 116.006
60.92000 124.092
60.96000 128.779
61.00000 118.334
61.04000 126.013
61.08000 130.407
61.12000 132.808
61.16000 123.932
61.20000 129.109
61.24000 121.999
61.28000 131.559
61.32000 124.494
61.36000 125.456
61.40000 132.568
61.44000 127.011
61.48000 136.281
61.52000 147.623
61.56000 187.489
61.60000 231.758
61.64000 260.790
61.68000 287.105
61.72000 288.171
61.76000 281.283
61.80000 232.421
61.84000 183.804
61.88000 141.036
61.92000 138.589
61.96000 130.291
62.00000 136.864
62.04000 132.604
62.08000 133.146
62.12000 127.999
62.16000 134.290
62.20000 132.549
62.24000 138.240
62.28000 125.968
62.32000 133.273
62.36000 132.305
62.40000 133.814
62.44000 130.867
62.48000 124.369
62.52000 135.224
62.56000 133.868
62.60000 133.155
62.64000 134.308
62.68000 129.725
62.72000 132.809
62.76000 129.793
62.80000 140.275
62.84000 133.804
62.88000 130.274
62.92000 134.219
62.96000 131.179
63.00000 132.378
63.04000 146.683
63.08000 137.607
63.12000 133.282
63.16000 143.452
63.20000 132.953
63.24000 130.597
63.28000 140.702
63.32000 137.101
63.36000 146.821
63.40000 141.871
63.44000 136.839
63.48000 137.988
63.52000 140.603
63.56000 136.989
63.60000 129.387
63.64000 132.830
63.68000 144.292
63.72000 144.397
63.76000 140.662
63.80000 147.444
63.84000 142.050
63.88000 136.559
63.92000 146.222
63.96000 145.241
64.00000 145.585
64.04000 136.015
64.08000 132.125
64.12000 153.827
64.16000 155.226
64.20000 147.008
64.24000 147.558
64.28000 158.661
64.32000 154.230
64.36000 146.554
64.40000 149.761
64.44000 151.161
64.48000 168.067
64.52000 157.313
64.56000 162.067
64.60000 169.850
64.64000 172.098
64.68000 173.504
64.72000 174.683
64.76000 175.285
64.80000 171.718
64.84000 173.389
64.88000 186.248
64.92000 177.883
64.96000 197.711
65.00000 194.700
65.04000 189.193
65.08000 192.229
65.12000 208.435
65.16000 205.487
65.20000 199.815
65.24000 219.932
65.28000 231.131
65.32000 239.499
65.36000 243.552
65.40000 243.395
65.44000 261.310
65.48000 266.775
65.52000 301.634
65.56000 326.866
65.60000 358.526
65.64000 407.348
65.68000 513.778
65.72000 763.515
65.76000 1205.427
65.80000 1637.958
65.84000 1862.447
65.88000 1918.705
65.92000 1846.736
65.96000 1614.691
66.00000 1153.558
66.04000 716.270
66.08000 491.132
66.12000 408.877
66.16000 374.950
66.20000 357.795
66.24000 375.481
66.28000 416.903
66.32000 493.495
66.36000 551.712
66.40000 602.039
66.44000 620.794
66.48000 599.017
66.52000 538.840
66.56000 466.636
66.60000 399.602
66.64000 351.836
66.68000 353.638
66.72000 346.081
66.76000 352.568
66.80000 364.065
66.84000 349.419
66.88000 357.946
66.92000 368.112
66.96000 359.934
67.00000 370.930
67.04000 347.416
67.08000 363.302
67.12000 368.291
67.16000 365.529
67.20000 383.209
67.24000 396.417
67.28000 399.012
67.32000 419.341
67.36000 414.781
67.40000 413.062
67.44000 416.578
67.48000 420.655
67.52000 417.751
67.56000 424.100
67.60000 439.129
67.64000 453.528
67.68000 445.097
67.72000 476.011
67.76000 456.788
67.80000 479.363
67.84000 483.460
67.88000 479.139
67.92000 479.633
67.96000 493.214
68.00000 511.668
68.04000 492.649
68.08000 510.892
68.12000 532.125
68.16000 525.438
68.20000 526.036
68.24000 551.713
68.28000 564.351
68.32000 588.039
68.36000 605.743
68.40000 592.199
68.44000 646.475
68.48000 686.124
68.52000 701.776
68.56000 758.237
68.60000 805.240
68.64000 931.899
68.68000 1082.269
68.72000 1246.048
68.76000 1413.339
68.80000 1581.583
68.84000 1755.590
68.88000 2141.775
68.92000 2994.715
68.96000 6572.771
69.00000 16729.834
69.04000 30197.449
69.08000 38832.297
69.12000 42233.387
69.16000 45025.422
69.20000 46311.441
69.24000 39833.266
69.28000 29114.502
69.32000 23076.631
69.36000 21185.504
69.40000 18714.277
69.44000 12639.874
69.48000 6114.777
69.52000 2726.194
69.56000 1501.500
69.60000 1100.607
69.64000 954.713
69.68000 852.226
69.72000 768.020
69.76000 694.169
69.80000 626.647
69.84000 582.718
69.88000 555.346
69.92000 556.493
69.96000 533.639
70.00000 500.654