File: XRD/08-10-2025 Dep 7/XY Data/BTO_Mapping_Theta2Theta_08-10-2025_001_46_-1-045_-9-945.xy
20.00000 471.280
20.04000 476.236
20.08000 486.422
20.12000 476.340
20.16000 478.996
20.20000 467.829
20.24000 471.568
20.28000 477.280
20.32000 458.831
20.36000 465.272
20.40000 471.651
20.44000 480.949
20.48000 482.169
20.52000 463.877
20.56000 458.351
20.60000 488.660
20.64000 458.730
20.68000 465.609
20.72000 470.738
20.76000 481.467
20.80000 464.173
20.84000 449.327
20.88000 465.342
20.92000 449.224
20.96000 465.559
21.00000 466.021
21.04000 450.031
21.08000 454.768
21.12000 462.075
21.16000 475.369
21.20000 467.782
21.24000 440.484
21.28000 462.068
21.32000 463.831
21.36000 449.586
21.40000 449.433
21.44000 474.282
21.48000 470.980
21.52000 474.275
21.56000 457.069
21.60000 461.675
21.64000 466.110
21.68000 487.830
21.72000 478.532
21.76000 471.379
21.80000 491.060
21.84000 498.525
21.88000 483.124
21.92000 523.821
21.96000 524.343
22.00000 536.793
22.04000 543.796
22.08000 541.043
22.12000 544.135
22.16000 549.701
22.20000 525.744
22.24000 508.116
22.28000 492.301
22.32000 485.581
22.36000 485.006
22.40000 470.642
22.44000 480.377
22.48000 447.670
22.52000 454.083
22.56000 463.457
22.60000 448.127
22.64000 444.250
22.68000 450.991
22.72000 439.814
22.76000 429.048
22.80000 432.980
22.84000 443.112
22.88000 430.083
22.92000 448.915
22.96000 447.131
23.00000 449.346
23.04000 423.945
23.08000 448.757
23.12000 436.551
23.16000 431.930
23.20000 437.070
23.24000 441.174
23.28000 419.061
23.32000 433.483
23.36000 418.660
23.40000 425.961
23.44000 432.765
23.48000 443.078
23.52000 416.156
23.56000 428.892
23.60000 437.473
23.64000 428.866
23.68000 439.304
23.72000 456.281
23.76000 459.460
23.80000 463.473
23.84000 466.586
23.88000 476.145
23.92000 476.966
23.96000 487.966
24.00000 503.497
24.04000 505.148
24.08000 475.735
24.12000 489.370
24.16000 476.565
24.20000 472.318
24.24000 442.903
24.28000 446.373
24.32000 440.616
24.36000 422.245
24.40000 428.036
24.44000 418.258
24.48000 411.210
24.52000 431.512
24.56000 408.149
24.60000 425.505
24.64000 413.482
24.68000 413.724
24.72000 408.794
24.76000 400.487
24.80000 412.276
24.84000 410.112
24.88000 402.041
24.92000 414.291
24.96000 411.336
25.00000 431.419
25.04000 401.940
25.08000 429.178
25.12000 397.708
25.16000 415.888
25.20000 403.823
25.24000 419.066
25.28000 407.085
25.32000 396.120
25.36000 394.853
25.40000 397.953
25.44000 389.206
25.48000 400.337
25.52000 411.196
25.56000 396.999
25.60000 388.708
25.64000 403.694
25.68000 397.807
25.72000 408.776
25.76000 407.366
25.80000 393.093
25.84000 401.511
25.88000 384.722
25.92000 406.753
25.96000 400.346
26.00000 396.639
26.04000 391.026
26.08000 387.311
26.12000 394.844
26.16000 381.148
26.20000 372.385
26.24000 383.054
26.28000 368.933
26.32000 378.627
26.36000 381.836
26.40000 367.890
26.44000 382.737
26.48000 373.194
26.52000 373.919
26.56000 386.659
26.60000 371.281
26.64000 380.484
26.68000 385.593
26.72000 376.106
26.76000 378.254
26.80000 380.910
26.84000 370.212
26.88000 378.695
26.92000 380.724
26.96000 372.492
27.00000 375.128
27.04000 381.171
27.08000 380.464
27.12000 389.901
27.16000 380.728
27.20000 386.825
27.24000 359.229
27.28000 411.142
27.32000 370.768
27.36000 380.295
27.40000 369.748
27.44000 379.763
27.48000 398.258
27.52000 387.104
27.56000 371.581
27.60000 391.473
27.64000 380.012
27.68000 363.515
27.72000 374.850
27.76000 384.388
27.80000 368.804
27.84000 361.568
27.88000 365.059
27.92000 359.370
27.96000 365.055
28.00000 352.660
28.04000 357.514
28.08000 375.987
28.12000 363.098
28.16000 347.534
28.20000 372.754
28.24000 363.026
28.28000 370.722
28.32000 350.110
28.36000 367.439
28.40000 366.110
28.44000 340.519
28.48000 361.399
28.52000 370.087
28.56000 364.668
28.60000 354.977
28.64000 361.970
28.68000 349.295
28.72000 351.621
28.76000 364.999
28.80000 354.104
28.84000 356.900
28.88000 353.111
28.92000 361.106
28.96000 365.060
29.00000 344.105
29.04000 339.228
29.08000 348.201
29.12000 362.969
29.16000 348.517
29.20000 338.961
29.24000 339.900
29.28000 350.064
29.32000 337.875
29.36000 354.322
29.40000 344.841
29.44000 359.522
29.48000 368.857
29.52000 347.350
29.56000 350.888
29.60000 363.489
29.64000 346.029
29.68000 365.620
29.72000 349.312
29.76000 342.050
29.80000 373.625
29.84000 368.330
29.88000 376.949
29.92000 381.284
29.96000 370.663
30.00000 385.978
30.04000 372.311
30.08000 369.191
30.12000 368.586
30.16000 358.033
30.20000 369.589
30.24000 358.640
30.28000 362.873
30.32000 372.164
30.36000 364.124
30.40000 378.727
30.44000 359.977
30.48000 353.999
30.52000 365.715
30.56000 358.186
30.60000 354.192
30.64000 362.344
30.68000 349.198
30.72000 383.393
30.76000 373.254
30.80000 363.497
30.84000 384.726
30.88000 375.344
30.92000 387.475
30.96000 410.430
31.00000 426.024
31.04000 461.035
31.08000 527.041
31.12000 588.880
31.16000 656.907
31.20000 779.066
31.24000 854.542
31.28000 993.854
31.32000 1041.555
31.36000 1107.177
31.40000 1082.532
31.44000 1049.858
31.48000 951.385
31.52000 858.644
31.56000 703.945
31.60000 626.949
31.64000 536.383
31.68000 493.284
31.72000 429.862
31.76000 391.479
31.80000 396.174
31.84000 359.430
31.88000 345.602
31.92000 362.278
31.96000 358.282
32.00000 343.786
32.04000 355.630
32.08000 332.107
32.12000 338.325
32.16000 332.578
32.20000 333.233
32.24000 332.219
32.28000 329.553
32.32000 316.492
32.36000 317.354
32.40000 354.051
32.44000 325.158
32.48000 316.729
32.52000 311.942
32.56000 316.491
32.60000 330.783
32.64000 320.191
32.68000 306.617
32.72000 311.158
32.76000 325.388
32.80000 310.038
32.84000 309.080
32.88000 311.173
32.92000 320.325
32.96000 307.711
33.00000 312.404
33.04000 307.297
33.08000 297.427
33.12000 302.264
33.16000 304.577
33.20000 318.537
33.24000 293.039
33.28000 284.039
33.32000 313.257
33.36000 299.611
33.40000 288.017
33.44000 295.814
33.48000 303.364
33.52000 311.204
33.56000 304.001
33.60000 309.279
33.64000 295.117
33.68000 300.279
33.72000 289.812
33.76000 297.704
33.80000 287.756
33.84000 302.568
33.88000 311.998
33.92000 312.162
33.96000 315.504
34.00000 315.827
34.04000 307.519
34.08000 318.392
34.12000 333.240
34.16000 338.840
34.20000 340.537
34.24000 367.485
34.28000 352.764
34.32000 362.111
34.36000 346.144
34.40000 361.711
34.44000 369.506
34.48000 354.687
34.52000 347.314
34.56000 336.307
34.60000 319.601
34.64000 323.951
34.68000 332.951
34.72000 303.452
34.76000 284.524
34.80000 294.394
34.84000 283.151
34.88000 312.897
34.92000 299.067
34.96000 280.443
35.00000 279.081
35.04000 277.441
35.08000 260.219
35.12000 271.189
35.16000 274.876
35.20000 270.216
35.24000 264.276
35.28000 280.907
35.32000 271.777
35.36000 273.841
35.40000 282.947
35.44000 271.672
35.48000 252.937
35.52000 260.987
35.56000 264.948
35.60000 247.546
35.64000 269.014
35.68000 255.820
35.72000 273.925
35.76000 261.639
35.80000 260.137
35.84000 263.464
35.88000 271.083
35.92000 265.719
35.96000 252.853
36.00000 261.403
36.04000 264.324
36.08000 264.005
36.12000 249.569
36.16000 255.309
36.20000 266.070
36.24000 260.762
36.28000 266.828
36.32000 252.035
36.36000 253.170
36.40000 261.250
36.44000 255.499
36.48000 252.380
36.52000 244.664
36.56000 241.590
36.60000 251.875
36.64000 285.030
36.68000 257.434
36.72000 251.076
36.76000 253.245
36.80000 279.435
36.84000 282.256
36.88000 279.269
36.92000 276.031
36.96000 284.543
37.00000 299.524
37.04000 286.522
37.08000 295.525
37.12000 274.259
37.16000 293.495
37.20000 284.189
37.24000 266.316
37.28000 273.854
37.32000 265.713
37.36000 259.253
37.40000 258.811
37.44000 262.850
37.48000 267.538
37.52000 253.938
37.56000 256.769
37.60000 254.359
37.64000 259.125
37.68000 255.847
37.72000 246.008
37.76000 256.499
37.80000 265.419
37.84000 261.670
37.88000 259.139
37.92000 258.598
37.96000 257.063
38.00000 252.979
38.04000 259.629
38.08000 265.038
38.12000 271.499
38.16000 255.384
38.20000 266.446
38.24000 294.346
38.28000 301.214
38.32000 327.791
38.36000 361.641
38.40000 409.835
38.44000 497.136
38.48000 598.242
38.52000 712.889
38.56000 853.298
38.60000 1025.978
38.64000 1125.023
38.68000 1202.512
38.72000 1258.017
38.76000 1198.590
38.80000 1079.634
38.84000 946.088
38.88000 805.095
38.92000 670.117
38.96000 529.757
39.00000 426.541
39.04000 365.080
39.08000 314.080
39.12000 269.662
39.16000 270.802
39.20000 263.910
39.24000 257.028
39.28000 243.517
39.32000 245.374
39.36000 242.899
39.40000 229.779
39.44000 232.836
39.48000 245.875
39.52000 239.230
39.56000 248.554
39.60000 242.537
39.64000 242.928
39.68000 236.699
39.72000 241.387
39.76000 233.983
39.80000 231.667
39.84000 232.083
39.88000 228.954
39.92000 216.748
39.96000 225.397
40.00000 228.754
40.04000 224.752
40.08000 227.988
40.12000 225.178
40.16000 229.262
40.20000 222.195
40.24000 234.593
40.28000 235.730
40.32000 211.924
40.36000 225.308
40.40000 225.636
40.44000 217.870
40.48000 220.806
40.52000 220.393
40.56000 212.454
40.60000 215.384
40.64000 219.304
40.68000 219.422
40.72000 215.966
40.76000 225.457
40.80000 198.784
40.84000 207.404
40.88000 218.910
40.92000 213.755
40.96000 207.986
41.00000 218.995
41.04000 218.650
41.08000 214.242
41.12000 215.871
41.16000 207.510
41.20000 213.016
41.24000 216.726
41.28000 214.375
41.32000 207.793
41.36000 210.017
41.40000 205.643
41.44000 207.175
41.48000 211.611
41.52000 221.548
41.56000 208.350
41.60000 202.428
41.64000 201.820
41.68000 206.424
41.72000 201.808
41.76000 206.890
41.80000 218.786
41.84000 197.625
41.88000 202.744
41.92000 214.622
41.96000 205.011
42.00000 212.966
42.04000 191.331
42.08000 212.299
42.12000 209.095
42.16000 219.935
42.20000 213.477
42.24000 197.081
42.28000 202.161
42.32000 217.715
42.36000 213.783
42.40000 212.263
42.44000 222.426
42.48000 221.583
42.52000 217.660
42.56000 211.273
42.60000 218.284
42.64000 208.971
42.68000 217.699
42.72000 202.844
42.76000 201.675
42.80000 203.954
42.84000 200.283
42.88000 208.566
42.92000 199.866
42.96000 212.633
43.00000 202.202
43.04000 201.911
43.08000 205.787
43.12000 193.709
43.16000 190.594
43.20000 185.178
43.24000 198.525
43.28000 195.913
43.32000 206.838
43.36000 202.518
43.40000 202.660
43.44000 190.011
43.48000 192.830
43.52000 193.805
43.56000 194.822
43.60000 193.512
43.64000 189.793
43.68000 198.490
43.72000 188.023
43.76000 196.248
43.80000 184.319
43.84000 187.846
43.88000 199.867
43.92000 190.965
43.96000 189.225
44.00000 187.707
44.04000 192.266
44.08000 194.872
44.12000 189.520
44.16000 205.403
44.20000 190.492
44.24000 200.450
44.28000 199.685
44.32000 188.456
44.36000 202.416
44.40000 213.997
44.44000 216.916
44.48000 205.576
44.52000 209.544
44.56000 212.280
44.60000 209.811
44.64000 223.797
44.68000 227.361
44.72000 225.715
44.76000 223.550
44.80000 233.276
44.84000 250.031
44.88000 244.170
44.92000 251.609
44.96000 272.348
45.00000 273.097
45.04000 258.521
45.08000 263.936
45.12000 260.716
45.16000 249.781
45.20000 255.707
45.24000 239.042
45.28000 225.597
45.32000 231.604
45.36000 234.084
45.40000 224.072
45.44000 207.370
45.48000 216.569
45.52000 213.337
45.56000 218.147
45.60000 206.042
45.64000 207.987
45.68000 199.612
45.72000 202.757
45.76000 198.435
45.80000 194.994
45.84000 196.278
45.88000 190.738
45.92000 193.700
45.96000 191.356
46.00000 187.475
46.04000 173.010
46.08000 174.989
46.12000 188.564
46.16000 169.618
46.20000 168.537
46.24000 177.952
46.28000 173.357
46.32000 171.406
46.36000 179.762
46.40000 181.866
46.44000 174.525
46.48000 178.225
46.52000 181.399
46.56000 174.801
46.60000 172.384
46.64000 176.445
46.68000 169.603
46.72000 175.126
46.76000 179.533
46.80000 179.619
46.84000 170.331
46.88000 171.629
46.92000 181.872
46.96000 183.814
47.00000 174.357
47.04000 171.900
47.08000 160.958
47.12000 158.489
47.16000 161.418
47.20000 163.693
47.24000 171.450
47.28000 176.828
47.32000 165.306
47.36000 167.533
47.40000 157.895
47.44000 162.470
47.48000 155.929
47.52000 157.146
47.56000 166.677
47.60000 162.576
47.64000 151.196
47.68000 161.340
47.72000 153.860
47.76000 167.501
47.80000 159.669
47.84000 160.561
47.88000 160.553
47.92000 159.255
47.96000 160.036
48.00000 155.182
48.04000 153.869
48.08000 163.506
48.12000 155.889
48.16000 169.511
48.20000 154.720
48.24000 168.427
48.28000 158.285
48.32000 161.623
48.36000 164.304
48.40000 166.710
48.44000 160.237
48.48000 166.348
48.52000 156.622
48.56000 156.555
48.60000 156.086
48.64000 158.782
48.68000 164.860
48.72000 148.063
48.76000 161.663
48.80000 160.275
48.84000 156.429
48.88000 156.284
48.92000 148.346
48.96000 163.463
49.00000 142.832
49.04000 146.514
49.08000 145.027
49.12000 149.635
49.16000 158.129
49.20000 167.569
49.24000 147.369
49.28000 157.843
49.32000 152.779
49.36000 146.819
49.40000 160.117
49.44000 156.799
49.48000 161.872
49.52000 147.443
49.56000 157.903
49.60000 154.142
49.64000 139.749
49.68000 157.233
49.72000 160.224
49.76000 160.911
49.80000 154.837
49.84000 157.826
49.88000 148.818
49.92000 150.453
49.96000 156.380
50.00000 159.206
50.04000 137.977
50.08000 153.539
50.12000 161.569
50.16000 154.369
50.20000 158.336
50.24000 152.621
50.28000 164.833
50.32000 156.864
50.36000 159.360
50.40000 164.444
50.44000 181.268
50.48000 161.219
50.52000 167.375
50.56000 173.895
50.60000 164.269
50.64000 160.724
50.68000 169.016
50.72000 167.652
50.76000 170.515
50.80000 163.564
50.84000 157.868
50.88000 171.420
50.92000 161.112
50.96000 160.844
51.00000 153.804
51.04000 154.376
51.08000 144.436
51.12000 146.305
51.16000 154.291
51.20000 153.022
51.24000 152.953
51.28000 143.813
51.32000 145.123
51.36000 148.432
51.40000 150.187
51.44000 152.511
51.48000 138.564
51.52000 139.215
51.56000 146.296
51.60000 146.313
51.64000 146.236
51.68000 141.162
51.72000 145.402
51.76000 146.865
51.80000 146.771
51.84000 149.000
51.88000 138.984
51.92000 137.690
51.96000 139.641
52.00000 146.330
52.04000 144.054
52.08000 143.444
52.12000 142.510
52.16000 153.981
52.20000 138.816
52.24000 143.535
52.28000 147.123
52.32000 139.449
52.36000 131.830
52.40000 141.928
52.44000 150.640
52.48000 139.409
52.52000 136.821
52.56000 141.424
52.60000 136.175
52.64000 133.509
52.68000 134.331
52.72000 143.276
52.76000 136.465
52.80000 141.900
52.84000 139.212
52.88000 146.202
52.92000 145.209
52.96000 135.740
53.00000 137.934
53.04000 139.791
53.08000 137.006
53.12000 139.029
53.16000 149.028
53.20000 155.889
53.24000 152.398
53.28000 156.106
53.32000 159.617
53.36000 156.812
53.40000 164.052
53.44000 158.612
53.48000 170.289
53.52000 163.045
53.56000 152.918
53.60000 151.470
53.64000 134.096
53.68000 139.761
53.72000 149.279
53.76000 156.128
53.80000 157.202
53.84000 152.697
53.88000 150.475
53.92000 147.990
53.96000 139.045
54.00000 136.200
54.04000 142.407
54.08000 145.338
54.12000 139.300
54.16000 140.488
54.20000 134.737
54.24000 144.200
54.28000 145.725
54.32000 143.924
54.36000 143.177
54.40000 141.694
54.44000 143.559
54.48000 148.761
54.52000 138.343
54.56000 146.042
54.60000 139.898
54.64000 134.710
54.68000 141.677
54.72000 142.961
54.76000 143.996
54.80000 148.756
54.84000 135.264
54.88000 142.902
54.92000 145.094
54.96000 153.614
55.00000 136.061
55.04000 144.735
55.08000 147.413
55.12000 150.137
55.16000 150.904
55.20000 163.455
55.24000 155.318
55.28000 171.754
55.32000 174.082
55.36000 171.168
55.40000 195.358
55.44000 198.516
55.48000 226.793
55.52000 249.483
55.56000 282.548
55.60000 319.120
55.64000 362.329
55.68000 441.320
55.72000 487.946
55.76000 546.718
55.80000 616.084
55.84000 674.080
55.88000 702.011
55.92000 731.496
55.96000 721.524
56.00000 680.161
56.04000 639.120
56.08000 579.068
56.12000 524.770
56.16000 424.833
56.20000 383.854
56.24000 328.431
56.28000 278.107
56.32000 244.421
56.36000 217.612
56.40000 188.406
56.44000 184.120
56.48000 173.964
56.52000 167.325
56.56000 153.629
56.60000 152.531
56.64000 155.936
56.68000 143.274
56.72000 136.629
56.76000 143.120
56.80000 133.469
56.84000 138.529
56.88000 130.104
56.92000 121.084
56.96000 128.296
57.00000 132.856
57.04000 129.148
57.08000 130.275
57.12000 127.350
57.16000 128.858
57.20000 134.092
57.24000 130.250
57.28000 123.687
57.32000 126.624
57.36000 122.471
57.40000 133.159
57.44000 130.089
57.48000 126.853
57.52000 133.807
57.56000 132.559
57.60000 130.057
57.64000 120.177
57.68000 139.663
57.72000 141.236
57.76000 127.808
57.80000 120.762
57.84000 135.217
57.88000 128.323
57.92000 138.864
57.96000 121.792
58.00000 124.365
58.04000 136.113
58.08000 123.177
58.12000 117.794
58.16000 122.805
58.20000 122.967
58.24000 125.864
58.28000 118.426
58.32000 122.442
58.36000 119.225
58.40000 117.985
58.44000 115.026
58.48000 120.435
58.52000 119.539
58.56000 126.567
58.60000 128.710
58.64000 125.701
58.68000 122.712
58.72000 121.515
58.76000 121.776
58.80000 120.389
58.84000 119.127
58.88000 127.138
58.92000 115.841
58.96000 122.813
59.00000 121.982
59.04000 122.964
59.08000 130.186
59.12000 125.614
59.16000 129.897
59.20000 118.234
59.24000 108.911
59.28000 117.026
59.32000 119.626
59.36000 124.791
59.40000 115.604
59.44000 122.533
59.48000 122.353
59.52000 119.881
59.56000 111.800
59.60000 120.588
59.64000 120.188
59.68000 117.829
59.72000 117.375
59.76000 125.599
59.80000 119.839
59.84000 123.107
59.88000 121.332
59.92000 121.034
59.96000 118.776
60.00000 127.746
60.04000 112.953
60.08000 115.611
60.12000 120.567
60.16000 121.409
60.20000 116.526
60.24000 111.669
60.28000 116.380
60.32000 119.831
60.36000 113.936
60.40000 110.757
60.44000 117.892
60.48000 127.272
60.52000 118.486
60.56000 120.327
60.60000 119.379
60.64000 115.913
60.68000 114.629
60.72000 119.413
60.76000 118.550
60.80000 118.508
60.84000 120.771
60.88000 118.895
60.92000 120.089
60.96000 117.298
61.00000 116.751
61.04000 122.813
61.08000 121.885
61.12000 121.470
61.16000 124.850
61.20000 126.514
61.24000 113.388
61.28000 120.391
61.32000 125.645
61.36000 117.244
61.40000 124.421
61.44000 125.327
61.48000 120.014
61.52000 157.958
61.56000 197.795
61.60000 243.561
61.64000 277.192
61.68000 301.840
61.72000 298.366
61.76000 288.145
61.80000 224.099
61.84000 173.186
61.88000 139.375
61.92000 126.960
61.96000 124.030
62.00000 130.191
62.04000 121.200
62.08000 125.009
62.12000 120.386
62.16000 126.579
62.20000 124.050
62.24000 128.237
62.28000 125.233
62.32000 123.478
62.36000 133.248
62.40000 139.470
62.44000 131.278
62.48000 130.170
62.52000 130.928
62.56000 127.395
62.60000 133.143
62.64000 129.431
62.68000 140.500
62.72000 131.375
62.76000 130.740
62.80000 131.697
62.84000 128.450
62.88000 139.565
62.92000 122.461
62.96000 128.118
63.00000 129.241
63.04000 126.806
63.08000 137.151
63.12000 132.460
63.16000 132.091
63.20000 132.240
63.24000 129.327
63.28000 132.827
63.32000 125.202
63.36000 131.580
63.40000 140.825
63.44000 133.491
63.48000 126.909
63.52000 135.251
63.56000 131.486
63.60000 126.524
63.64000 132.675
63.68000 131.874
63.72000 127.060
63.76000 138.061
63.80000 139.323
63.84000 145.625
63.88000 141.566
63.92000 127.619
63.96000 130.679
64.00000 142.031
64.04000 146.087
64.08000 149.272
64.12000 149.059
64.16000 151.956
64.20000 146.117
64.24000 147.045
64.28000 152.963
64.32000 150.151
64.36000 148.815
64.40000 152.307
64.44000 151.618
64.48000 152.815
64.52000 146.467
64.56000 154.454
64.60000 169.225
64.64000 162.410
64.68000 156.506
64.72000 165.791
64.76000 162.026
64.80000 164.593
64.84000 164.248
64.88000 163.378
64.92000 182.716
64.96000 187.236
65.00000 184.092
65.04000 182.970
65.08000 200.111
65.12000 198.688
65.16000 197.851
65.20000 216.432
65.24000 219.170
65.28000 230.150
65.32000 231.982
65.36000 243.948
65.40000 256.586
65.44000 265.368
65.48000 288.233
65.52000 281.379
65.56000 308.704
65.60000 359.816
65.64000 378.707
65.68000 533.852
65.72000 833.507
65.76000 1307.414
65.80000 1714.955
65.84000 1893.158
65.88000 1937.322
65.92000 1852.703
65.96000 1538.010
66.00000 1021.601
66.04000 647.821
66.08000 476.677
66.12000 408.620
66.16000 359.673
66.20000 362.276
66.24000 364.841
66.28000 443.357
66.32000 536.765
66.36000 568.179
66.40000 597.094
66.44000 617.909
66.48000 568.562
66.52000 525.835
66.56000 455.297
66.60000 381.090
66.64000 348.246
66.68000 349.100
66.72000 346.099
66.76000 347.117
66.80000 340.725
66.84000 344.100
66.88000 343.851
66.92000 338.461
66.96000 360.419
67.00000 368.011
67.04000 361.807
67.08000 386.123
67.12000 370.352
67.16000 379.516
67.20000 370.289
67.24000 396.282
67.28000 388.033
67.32000 400.596
67.36000 398.096
67.40000 406.300
67.44000 412.418
67.48000 405.672
67.52000 403.856
67.56000 409.543
67.60000 427.844
67.64000 433.288
67.68000 435.263
67.72000 434.486
67.76000 436.980
67.80000 461.713
67.84000 462.800
67.88000 488.247
67.92000 470.192
67.96000 471.384
68.00000 481.464
68.04000 489.420
68.08000 484.259
68.12000 509.094
68.16000 515.982
68.20000 540.865
68.24000 532.442
68.28000 547.084
68.32000 551.981
68.36000 592.980
68.40000 586.863
68.44000 623.264
68.48000 636.852
68.52000 698.105
68.56000 726.275
68.60000 815.823
68.64000 927.841
68.68000 1063.908
68.72000 1275.305
68.76000 1426.138
68.80000 1599.636
68.84000 1785.665
68.88000 2217.300
68.92000 3487.311
68.96000 8403.700
69.00000 20055.764
69.04000 33070.633
69.08000 40406.391
69.12000 43106.348
69.16000 45988.621
69.20000 46007.219
69.24000 37278.570
69.28000 27360.252
69.32000 22398.889
69.36000 21047.738
69.40000 17624.168
69.44000 10913.212
69.48000 5058.492
69.52000 2254.105
69.56000 1335.574
69.60000 1060.059
69.64000 896.936
69.68000 791.969
69.72000 723.267
69.76000 658.674
69.80000 629.324
69.84000 592.048
69.88000 534.746
69.92000 527.840
69.96000 526.766
70.00000 496.912