File: XRD/08-10-2025 Dep 7/XY Data/BTO_Mapping_Theta2Theta_08-10-2025_001_14_3-090_9-511.xy
20.00000 476.987
20.04000 469.961
20.08000 472.627
20.12000 473.330
20.16000 475.413
20.20000 461.708
20.24000 474.715
20.28000 467.394
20.32000 498.124
20.36000 470.306
20.40000 466.935
20.44000 483.749
20.48000 458.748
20.52000 451.249
20.56000 461.671
20.60000 467.650
20.64000 467.664
20.68000 472.139
20.72000 479.902
20.76000 472.773
20.80000 483.043
20.84000 454.331
20.88000 495.136
20.92000 483.936
20.96000 450.102
21.00000 469.438
21.04000 465.727
21.08000 457.708
21.12000 477.708
21.16000 462.602
21.20000 472.541
21.24000 443.966
21.28000 451.383
21.32000 461.789
21.36000 462.396
21.40000 454.210
21.44000 454.043
21.48000 449.987
21.52000 458.728
21.56000 465.720
21.60000 482.772
21.64000 460.645
21.68000 456.980
21.72000 479.136
21.76000 456.118
21.80000 480.462
21.84000 477.114
21.88000 496.405
21.92000 501.420
21.96000 511.477
22.00000 534.856
22.04000 544.771
22.08000 539.148
22.12000 516.647
22.16000 519.058
22.20000 513.577
22.24000 507.712
22.28000 489.757
22.32000 491.651
22.36000 473.452
22.40000 454.133
22.44000 485.264
22.48000 463.999
22.52000 460.000
22.56000 422.988
22.60000 448.791
22.64000 452.513
22.68000 449.077
22.72000 436.573
22.76000 439.843
22.80000 461.704
22.84000 441.194
22.88000 441.785
22.92000 430.995
22.96000 442.508
23.00000 452.475
23.04000 442.264
23.08000 445.836
23.12000 432.247
23.16000 431.015
23.20000 445.977
23.24000 440.618
23.28000 441.338
23.32000 436.139
23.36000 425.077
23.40000 424.241
23.44000 439.227
23.48000 430.910
23.52000 441.895
23.56000 426.336
23.60000 434.661
23.64000 442.907
23.68000 452.542
23.72000 460.768
23.76000 460.456
23.80000 463.284
23.84000 473.212
23.88000 486.379
23.92000 510.121
23.96000 529.885
24.00000 508.140
24.04000 522.640
24.08000 493.980
24.12000 487.900
24.16000 483.106
24.20000 467.361
24.24000 467.103
24.28000 446.225
24.32000 454.607
24.36000 452.533
24.40000 436.657
24.44000 430.214
24.48000 427.360
24.52000 411.511
24.56000 423.050
24.60000 404.991
24.64000 413.676
24.68000 414.249
24.72000 410.335
24.76000 405.926
24.80000 396.005
24.84000 395.592
24.88000 403.819
24.92000 399.801
24.96000 414.422
25.00000 394.437
25.04000 409.835
25.08000 388.755
25.12000 402.828
25.16000 406.043
25.20000 384.055
25.24000 395.611
25.28000 401.577
25.32000 390.365
25.36000 397.918
25.40000 393.542
25.44000 390.018
25.48000 412.564
25.52000 382.803
25.56000 397.824
25.60000 395.712
25.64000 388.266
25.68000 407.027
25.72000 402.251
25.76000 387.066
25.80000 390.740
25.84000 399.013
25.88000 401.057
25.92000 393.884
25.96000 381.958
26.00000 396.099
26.04000 375.763
26.08000 379.910
26.12000 390.263
26.16000 382.490
26.20000 392.839
26.24000 370.425
26.28000 389.901
26.32000 379.205
26.36000 386.515
26.40000 399.115
26.44000 364.801
26.48000 398.762
26.52000 389.020
26.56000 364.587
26.60000 381.577
26.64000 382.508
26.68000 394.003
26.72000 384.257
26.76000 363.140
26.80000 377.521
26.84000 364.124
26.88000 381.632
26.92000 374.513
26.96000 368.708
27.00000 369.687
27.04000 367.439
27.08000 381.698
27.12000 360.460
27.16000 369.953
27.20000 383.873
27.24000 375.278
27.28000 386.500
27.32000 372.555
27.36000 358.876
27.40000 379.332
27.44000 359.207
27.48000 359.597
27.52000 367.441
27.56000 366.890
27.60000 362.256
27.64000 364.358
27.68000 366.747
27.72000 371.171
27.76000 364.760
27.80000 359.983
27.84000 365.675
27.88000 355.558
27.92000 347.769
27.96000 355.141
28.00000 374.743
28.04000 354.338
28.08000 373.534
28.12000 348.273
28.16000 355.660
28.20000 343.130
28.24000 349.334
28.28000 353.363
28.32000 369.544
28.36000 370.209
28.40000 357.391
28.44000 352.184
28.48000 361.672
28.52000 367.658
28.56000 337.672
28.60000 358.007
28.64000 364.220
28.68000 352.540
28.72000 349.342
28.76000 359.378
28.80000 361.133
28.84000 365.097
28.88000 361.496
28.92000 363.835
28.96000 353.646
29.00000 367.357
29.04000 367.404
29.08000 339.731
29.12000 349.122
29.16000 345.024
29.20000 359.718
29.24000 348.462
29.28000 367.540
29.32000 353.378
29.36000 345.497
29.40000 357.561
29.44000 349.648
29.48000 351.673
29.52000 354.993
29.56000 349.523
29.60000 346.295
29.64000 353.746
29.68000 368.431
29.72000 352.383
29.76000 369.313
29.80000 353.555
29.84000 364.566
29.88000 374.816
29.92000 376.698
29.96000 391.021
30.00000 375.945
30.04000 384.444
30.08000 370.008
30.12000 384.595
30.16000 393.337
30.20000 374.167
30.24000 375.118
30.28000 374.452
30.32000 365.210
30.36000 359.504
30.40000 358.566
30.44000 358.718
30.48000 354.270
30.52000 374.940
30.56000 360.964
30.60000 364.118
30.64000 356.929
30.68000 359.170
30.72000 380.570
30.76000 378.308
30.80000 369.650
30.84000 375.629
30.88000 406.115
30.92000 414.635
30.96000 409.971
31.00000 431.381
31.04000 468.040
31.08000 506.209
31.12000 578.908
31.16000 675.185
31.20000 773.212
31.24000 877.221
31.28000 1034.127
31.32000 1124.700
31.36000 1188.509
31.40000 1221.207
31.44000 1184.511
31.48000 1113.680
31.52000 983.506
31.56000 834.861
31.60000 731.223
31.64000 619.819
31.68000 527.653
31.72000 490.067
31.76000 442.133
31.80000 419.950
31.84000 388.377
31.88000 366.037
31.92000 363.533
31.96000 348.803
32.00000 356.891
32.04000 344.778
32.08000 335.517
32.12000 345.788
32.16000 340.316
32.20000 330.283
32.24000 333.724
32.28000 327.642
32.32000 326.311
32.36000 319.264
32.40000 328.519
32.44000 324.898
32.48000 324.239
32.52000 321.719
32.56000 333.740
32.60000 317.468
32.64000 337.854
32.68000 318.232
32.72000 311.290
32.76000 326.313
32.80000 318.218
32.84000 320.215
32.88000 330.615
32.92000 315.970
32.96000 320.672
33.00000 313.502
33.04000 312.063
33.08000 330.889
33.12000 309.568
33.16000 303.981
33.20000 286.153
33.24000 294.205
33.28000 302.327
33.32000 309.869
33.36000 307.365
33.40000 312.807
33.44000 307.396
33.48000 310.823
33.52000 312.150
33.56000 312.649
33.60000 307.817
33.64000 301.605
33.68000 295.523
33.72000 297.011
33.76000 300.074
33.80000 295.472
33.84000 312.849
33.88000 307.126
33.92000 299.801
33.96000 320.435
34.00000 325.146
34.04000 344.578
34.08000 319.533
34.12000 336.039
34.16000 348.400
34.20000 334.847
34.24000 332.301
34.28000 345.625
34.32000 356.165
34.36000 348.738
34.40000 344.801
34.44000 363.949
34.48000 347.530
34.52000 340.482
34.56000 317.232
34.60000 330.793
34.64000 330.000
34.68000 322.975
34.72000 306.120
34.76000 288.101
34.80000 301.797
34.84000 294.082
34.88000 284.767
34.92000 279.948
34.96000 283.936
35.00000 269.268
35.04000 269.091
35.08000 261.438
35.12000 272.463
35.16000 270.781
35.20000 277.893
35.24000 278.532
35.28000 274.677
35.32000 277.065
35.36000 272.830
35.40000 268.399
35.44000 267.332
35.48000 264.823
35.52000 271.624
35.56000 255.242
35.60000 283.787
35.64000 263.361
35.68000 266.032
35.72000 257.104
35.76000 264.604
35.80000 253.438
35.84000 267.036
35.88000 261.016
35.92000 263.720
35.96000 260.698
36.00000 247.486
36.04000 262.440
36.08000 263.598
36.12000 261.305
36.16000 244.607
36.20000 241.320
36.24000 269.962
36.28000 267.773
36.32000 254.059
36.36000 253.342
36.40000 249.294
36.44000 243.341
36.48000 257.634
36.52000 244.149
36.56000 258.474
36.60000 242.052
36.64000 254.385
36.68000 250.536
36.72000 252.243
36.76000 263.627
36.80000 264.167
36.84000 270.635
36.88000 280.000
36.92000 268.662
36.96000 276.836
37.00000 284.357
37.04000 272.360
37.08000 278.819
37.12000 267.817
37.16000 281.206
37.20000 269.189
37.24000 252.432
37.28000 257.156
37.32000 263.814
37.36000 257.610
37.40000 255.733
37.44000 254.933
37.48000 271.568
37.52000 254.781
37.56000 253.969
37.60000 251.363
37.64000 257.468
37.68000 259.427
37.72000 250.098
37.76000 252.820
37.80000 248.752
37.84000 238.783
37.88000 255.175
37.92000 256.204
37.96000 260.963
38.00000 254.376
38.04000 256.553
38.08000 260.114
38.12000 252.638
38.16000 256.305
38.20000 261.496
38.24000 266.709
38.28000 268.057
38.32000 284.392
38.36000 305.114
38.40000 315.514
38.44000 406.060
38.48000 467.521
38.52000 578.043
38.56000 708.304
38.60000 813.946
38.64000 924.946
38.68000 1022.581
38.72000 1068.112
38.76000 1041.738
38.80000 958.759
38.84000 857.992
38.88000 743.492
38.92000 623.659
38.96000 489.747
39.00000 391.913
39.04000 334.872
39.08000 292.285
39.12000 272.711
39.16000 247.800
39.20000 256.691
39.24000 242.318
39.28000 255.450
39.32000 239.453
39.36000 242.927
39.40000 240.851
39.44000 224.509
39.48000 235.571
39.52000 229.909
39.56000 245.626
39.60000 239.535
39.64000 243.420
39.68000 231.502
39.72000 227.999
39.76000 231.624
39.80000 228.623
39.84000 236.658
39.88000 235.631
39.92000 231.858
39.96000 232.855
40.00000 232.410
40.04000 228.624
40.08000 223.994
40.12000 226.361
40.16000 216.883
40.20000 219.461
40.24000 217.004
40.28000 218.456
40.32000 218.372
40.36000 216.166
40.40000 220.263
40.44000 222.926
40.48000 217.857
40.52000 217.090
40.56000 229.544
40.60000 218.841
40.64000 218.082
40.68000 213.649
40.72000 215.400
40.76000 203.116
40.80000 211.668
40.84000 208.593
40.88000 206.973
40.92000 221.114
40.96000 212.757
41.00000 222.651
41.04000 217.398
41.08000 209.924
41.12000 205.291
41.16000 196.214
41.20000 196.718
41.24000 207.625
41.28000 205.463
41.32000 202.262
41.36000 200.973
41.40000 212.241
41.44000 203.815
41.48000 203.686
41.52000 202.510
41.56000 216.193
41.60000 206.545
41.64000 204.506
41.68000 208.960
41.72000 219.869
41.76000 216.597
41.80000 206.026
41.84000 196.775
41.88000 200.005
41.92000 216.468
41.96000 216.047
42.00000 226.423
42.04000 211.810
42.08000 204.175
42.12000 223.958
42.16000 223.702
42.20000 208.541
42.24000 216.724
42.28000 226.247
42.32000 219.562
42.36000 220.671
42.40000 214.965
42.44000 218.958
42.48000 209.284
42.52000 212.047
42.56000 201.756
42.60000 206.296
42.64000 216.136
42.68000 211.486
42.72000 207.756
42.76000 220.129
42.80000 201.515
42.84000 213.051
42.88000 219.801
42.92000 220.470
42.96000 197.925
43.00000 207.357
43.04000 212.790
43.08000 195.796
43.12000 198.863
43.16000 212.818
43.20000 195.385
43.24000 212.883
43.28000 190.369
43.32000 201.327
43.36000 195.724
43.40000 188.446
43.44000 198.110
43.48000 180.859
43.52000 190.570
43.56000 190.242
43.60000 200.263
43.64000 199.688
43.68000 198.814
43.72000 187.380
43.76000 189.835
43.80000 197.331
43.84000 196.353
43.88000 187.075
43.92000 196.827
43.96000 194.711
44.00000 199.470
44.04000 198.180
44.08000 194.062
44.12000 191.506
44.16000 189.526
44.20000 193.519
44.24000 196.275
44.28000 195.364
44.32000 189.468
44.36000 200.520
44.40000 199.981
44.44000 206.792
44.48000 216.176
44.52000 209.492
44.56000 215.190
44.60000 210.393
44.64000 219.489
44.68000 213.820
44.72000 222.767
44.76000 232.061
44.80000 231.858
44.84000 235.208
44.88000 233.843
44.92000 241.324
44.96000 237.510
45.00000 249.328
45.04000 269.008
45.08000 252.413
45.12000 249.315
45.16000 258.332
45.20000 240.739
45.24000 240.566
45.28000 224.709
45.32000 223.528
45.36000 214.499
45.40000 223.350
45.44000 226.359
45.48000 218.964
45.52000 215.102
45.56000 199.126
45.60000 208.876
45.64000 198.333
45.68000 189.747
45.72000 197.910
45.76000 205.249
45.80000 184.830
45.84000 182.496
45.88000 177.632
45.92000 181.822
45.96000 175.158
46.00000 173.508
46.04000 178.606
46.08000 180.320
46.12000 183.396
46.16000 170.269
46.20000 168.185
46.24000 183.352
46.28000 181.241
46.32000 177.662
46.36000 178.353
46.40000 178.662
46.44000 167.606
46.48000 183.732
46.52000 169.601
46.56000 163.798
46.60000 170.685
46.64000 175.254
46.68000 175.461
46.72000 174.601
46.76000 186.553
46.80000 177.065
46.84000 168.841
46.88000 170.860
46.92000 162.947
46.96000 175.329
47.00000 176.738
47.04000 170.332
47.08000 167.061
47.12000 170.831
47.16000 167.954
47.20000 171.468
47.24000 157.898
47.28000 162.973
47.32000 158.618
47.36000 164.703
47.40000 163.694
47.44000 170.030
47.48000 174.635
47.52000 161.592
47.56000 164.733
47.60000 157.993
47.64000 158.984
47.68000 159.272
47.72000 159.713
47.76000 155.580
47.80000 158.564
47.84000 170.967
47.88000 157.186
47.92000 164.004
47.96000 157.798
48.00000 161.200
48.04000 159.687
48.08000 167.904
48.12000 159.193
48.16000 149.350
48.20000 152.705
48.24000 159.177
48.28000 154.587
48.32000 160.217
48.36000 157.015
48.40000 164.108
48.44000 161.066
48.48000 156.398
48.52000 159.939
48.56000 160.464
48.60000 161.609
48.64000 151.942
48.68000 156.719
48.72000 155.195
48.76000 157.341
48.80000 160.424
48.84000 153.566
48.88000 150.271
48.92000 165.664
48.96000 161.860
49.00000 153.686
49.04000 151.982
49.08000 154.300
49.12000 153.987
49.16000 158.229
49.20000 157.789
49.24000 151.486
49.28000 157.724
49.32000 156.836
49.36000 150.879
49.40000 149.153
49.44000 154.773
49.48000 163.200
49.52000 153.272
49.56000 152.238
49.60000 153.419
49.64000 156.584
49.68000 166.546
49.72000 141.205
49.76000 160.865
49.80000 147.532
49.84000 161.554
49.88000 148.262
49.92000 145.111
49.96000 143.888
50.00000 157.747
50.04000 158.033
50.08000 157.636
50.12000 146.225
50.16000 156.968
50.20000 155.906
50.24000 152.052
50.28000 149.069
50.32000 151.211
50.36000 153.237
50.40000 158.988
50.44000 152.905
50.48000 167.066
50.52000 161.841
50.56000 144.056
50.60000 160.847
50.64000 159.130
50.68000 151.376
50.72000 162.096
50.76000 152.289
50.80000 161.247
50.84000 152.247
50.88000 150.442
50.92000 156.936
50.96000 150.137
51.00000 143.777
51.04000 146.956
51.08000 147.815
51.12000 147.495
51.16000 154.790
51.20000 147.790
51.24000 149.248
51.28000 151.719
51.32000 138.937
51.36000 143.375
51.40000 139.882
51.44000 141.955
51.48000 140.266
51.52000 140.803
51.56000 142.575
51.60000 147.820
51.64000 148.845
51.68000 158.469
51.72000 143.864
51.76000 145.809
51.80000 146.005
51.84000 143.616
51.88000 148.601
51.92000 140.067
51.96000 141.374
52.00000 146.693
52.04000 146.508
52.08000 135.798
52.12000 141.577
52.16000 142.011
52.20000 144.380
52.24000 143.322
52.28000 144.771
52.32000 133.710
52.36000 137.871
52.40000 135.823
52.44000 142.532
52.48000 139.897
52.52000 142.627
52.56000 134.999
52.60000 144.840
52.64000 132.125
52.68000 134.574
52.72000 136.691
52.76000 135.769
52.80000 133.873
52.84000 141.523
52.88000 142.321
52.92000 145.868
52.96000 150.820
53.00000 130.667
53.04000 135.818
53.08000 149.344
53.12000 137.946
53.16000 150.961
53.20000 150.723
53.24000 139.400
53.28000 147.345
53.32000 146.189
53.36000 148.591
53.40000 160.965
53.44000 153.989
53.48000 151.600
53.52000 156.765
53.56000 168.108
53.60000 144.793
53.64000 140.489
53.68000 160.778
53.72000 146.480
53.76000 143.295
53.80000 149.176
53.84000 148.258
53.88000 132.711
53.92000 144.522
53.96000 144.886
54.00000 141.960
54.04000 141.141
54.08000 135.326
54.12000 139.314
54.16000 136.385
54.20000 134.413
54.24000 137.354
54.28000 143.566
54.32000 146.976
54.36000 140.060
54.40000 141.933
54.44000 147.424
54.48000 137.495
54.52000 144.841
54.56000 140.930
54.60000 136.551
54.64000 139.444
54.68000 146.751
54.72000 141.561
54.76000 144.954
54.80000 139.298
54.84000 149.116
54.88000 140.944
54.92000 141.438
54.96000 146.203
55.00000 147.975
55.04000 160.922
55.08000 147.238
55.12000 162.399
55.16000 149.660
55.20000 145.675
55.24000 162.619
55.28000 157.702
55.32000 167.351
55.36000 166.066
55.40000 176.589
55.44000 184.953
55.48000 197.906
55.52000 211.362
55.56000 224.551
55.60000 259.843
55.64000 262.667
55.68000 350.430
55.72000 363.657
55.76000 451.748
55.80000 484.312
55.84000 551.797
55.88000 590.186
55.92000 604.392
55.96000 631.781
56.00000 607.996
56.04000 583.680
56.08000 538.995
56.12000 474.024
56.16000 411.267
56.20000 350.558
56.24000 325.679
56.28000 276.772
56.32000 235.055
56.36000 217.317
56.40000 185.867
56.44000 173.701
56.48000 171.209
56.52000 158.113
56.56000 154.643
56.60000 151.082
56.64000 142.495
56.68000 145.287
56.72000 148.943
56.76000 139.253
56.80000 143.388
56.84000 134.904
56.88000 122.050
56.92000 130.740
56.96000 129.604
57.00000 133.194
57.04000 134.443
57.08000 136.506
57.12000 132.813
57.16000 124.344
57.20000 134.536
57.24000 123.218
57.28000 118.384
57.32000 115.280
57.36000 125.119
57.40000 129.496
57.44000 130.790
57.48000 130.310
57.52000 130.651
57.56000 131.009
57.60000 119.684
57.64000 128.746
57.68000 116.106
57.72000 128.917
57.76000 121.037
57.80000 127.285
57.84000 131.507
57.88000 128.688
57.92000 128.475
57.96000 132.344
58.00000 132.812
58.04000 129.130
58.08000 116.108
58.12000 121.078
58.16000 129.669
58.20000 114.096
58.24000 122.460
58.28000 122.412
58.32000 130.665
58.36000 127.760
58.40000 119.567
58.44000 129.295
58.48000 121.233
58.52000 118.790
58.56000 120.265
58.60000 118.202
58.64000 120.980
58.68000 115.970
58.72000 121.018
58.76000 104.952
58.80000 114.818
58.84000 117.218
58.88000 130.671
58.92000 114.808
58.96000 124.173
59.00000 110.907
59.04000 108.378
59.08000 125.361
59.12000 112.973
59.16000 114.177
59.20000 116.090
59.24000 112.245
59.28000 113.147
59.32000 113.714
59.36000 125.839
59.40000 117.455
59.44000 120.882
59.48000 127.723
59.52000 119.753
59.56000 124.785
59.60000 117.477
59.64000 117.519
59.68000 112.056
59.72000 119.493
59.76000 120.044
59.80000 108.785
59.84000 120.468
59.88000 119.906
59.92000 126.435
59.96000 122.046
60.00000 110.227
60.04000 119.182
60.08000 116.235
60.12000 108.745
60.16000 118.559
60.20000 117.786
60.24000 101.522
60.28000 119.484
60.32000 114.270
60.36000 123.546
60.40000 114.219
60.44000 110.892
60.48000 118.819
60.52000 115.731
60.56000 117.488
60.60000 109.288
60.64000 121.991
60.68000 115.878
60.72000 122.839
60.76000 116.717
60.80000 116.502
60.84000 121.648
60.88000 119.810
60.92000 122.075
60.96000 125.357
61.00000 121.042
61.04000 115.072
61.08000 117.474
61.12000 129.070
61.16000 115.522
61.20000 119.884
61.24000 120.382
61.28000 118.065
61.32000 125.084
61.36000 132.657
61.40000 133.799
61.44000 135.065
61.48000 130.734
61.52000 150.562
61.56000 187.803
61.60000 235.604
61.64000 263.943
61.68000 274.059
61.72000 294.264
61.76000 287.453
61.80000 226.873
61.84000 175.257
61.88000 152.031
61.92000 138.582
61.96000 140.920
62.00000 143.647
62.04000 119.426
62.08000 123.344
62.12000 126.079
62.16000 128.626
62.20000 134.674
62.24000 134.758
62.28000 123.542
62.32000 124.904
62.36000 131.843
62.40000 129.738
62.44000 133.031
62.48000 133.009
62.52000 132.457
62.56000 130.403
62.60000 131.965
62.64000 127.355
62.68000 129.157
62.72000 146.094
62.76000 135.211
62.80000 126.193
62.84000 137.402
62.88000 134.550
62.92000 134.465
62.96000 136.336
63.00000 129.155
63.04000 143.597
63.08000 135.826
63.12000 132.612
63.16000 142.138
63.20000 140.346
63.24000 136.712
63.28000 136.933
63.32000 132.554
63.36000 137.462
63.40000 134.802
63.44000 136.670
63.48000 134.615
63.52000 132.095
63.56000 134.263
63.60000 132.021
63.64000 146.749
63.68000 148.177
63.72000 140.416
63.76000 133.229
63.80000 146.924
63.84000 148.392
63.88000 137.008
63.92000 141.428
63.96000 145.975
64.00000 144.465
64.04000 144.114
64.08000 144.270
64.12000 139.445
64.16000 153.247
64.20000 148.741
64.24000 142.652
64.28000 148.704
64.32000 150.378
64.36000 151.374
64.40000 148.187
64.44000 168.549
64.48000 163.020
64.52000 169.037
64.56000 164.456
64.60000 169.228
64.64000 164.253
64.68000 159.907
64.72000 178.930
64.76000 183.270
64.80000 172.665
64.84000 174.425
64.88000 184.944
64.92000 181.442
64.96000 174.836
65.00000 182.001
65.04000 201.292
65.08000 195.273
65.12000 192.947
65.16000 206.417
65.20000 212.284
65.24000 215.035
65.28000 229.284
65.32000 233.605
65.36000 246.477
65.40000 248.199
65.44000 266.300
65.48000 273.805
65.52000 289.378
65.56000 321.217
65.60000 353.081
65.64000 388.883
65.68000 541.772
65.72000 827.035
65.76000 1258.737
65.80000 1630.603
65.84000 1834.728
65.88000 1876.516
65.92000 1805.816
65.96000 1487.771
66.00000 1012.643
66.04000 646.763
66.08000 470.802
66.12000 394.129
66.16000 370.591
66.20000 356.507
66.24000 379.003
66.28000 443.390
66.32000 507.972
66.36000 584.836
66.40000 601.419
66.44000 617.732
66.48000 585.303
66.52000 505.740
66.56000 449.676
66.60000 384.756
66.64000 343.747
66.68000 362.233
66.72000 345.953
66.76000 344.151
66.80000 345.642
66.84000 345.583
66.88000 354.174
66.92000 346.698
66.96000 350.301
67.00000 361.658
67.04000 367.631
67.08000 375.038
67.12000 353.570
67.16000 361.056
67.20000 396.243
67.24000 381.314
67.28000 388.929
67.32000 370.777
67.36000 397.356
67.40000 411.825
67.44000 414.101
67.48000 413.535
67.52000 419.823
67.56000 432.183
67.60000 418.909
67.64000 432.592
67.68000 414.374
67.72000 432.393
67.76000 444.223
67.80000 446.099
67.84000 460.131
67.88000 459.428
67.92000 478.337
67.96000 486.156
68.00000 496.656
68.04000 480.996
68.08000 496.913
68.12000 499.446
68.16000 503.897
68.20000 526.211
68.24000 536.672
68.28000 545.304
68.32000 575.370
68.36000 600.049
68.40000 613.444
68.44000 625.978
68.48000 639.065
68.52000 663.208
68.56000 732.422
68.60000 812.051
68.64000 909.777
68.68000 1067.592
68.72000 1242.325
68.76000 1423.446
68.80000 1564.505
68.84000 1798.834
68.88000 2166.460
68.92000 3323.534
68.96000 7822.085
69.00000 19010.322
69.04000 31478.080
69.08000 38678.223
69.12000 41479.613
69.16000 44538.988
69.20000 44451.938
69.24000 36153.957
69.28000 26489.049
69.32000 21718.799
69.36000 20287.424
69.40000 17213.428
69.44000 10759.957
69.48000 4926.302
69.52000 2237.127
69.56000 1351.729
69.60000 1034.182
69.64000 910.321
69.68000 786.394
69.72000 700.117
69.76000 670.479
69.80000 612.119
69.84000 580.451
69.88000 557.681
69.92000 533.766
69.96000 526.161
70.00000 502.841