File: XRD/08-10-2025 Dep 7/XY Data/BTO_Mapping_Theta2Theta_08-10-2025_001_47_-2-091_-19-890.xy
20.00000 464.749
20.04000 467.680
20.08000 478.672
20.12000 470.907
20.16000 474.100
20.20000 493.483
20.24000 460.005
20.28000 477.162
20.32000 443.478
20.36000 485.650
20.40000 484.362
20.44000 487.369
20.48000 474.374
20.52000 464.435
20.56000 469.086
20.60000 471.781
20.64000 453.878
20.68000 470.157
20.72000 448.232
20.76000 479.858
20.80000 488.556
20.84000 466.971
20.88000 472.306
20.92000 472.988
20.96000 451.758
21.00000 482.850
21.04000 489.716
21.08000 454.315
21.12000 463.400
21.16000 464.161
21.20000 457.784
21.24000 466.727
21.28000 467.397
21.32000 471.040
21.36000 467.731
21.40000 460.131
21.44000 458.457
21.48000 476.303
21.52000 473.037
21.56000 471.383
21.60000 460.420
21.64000 462.723
21.68000 465.151
21.72000 484.088
21.76000 487.827
21.80000 488.794
21.84000 499.328
21.88000 502.784
21.92000 509.866
21.96000 528.044
22.00000 558.737
22.04000 560.715
22.08000 558.633
22.12000 554.624
22.16000 539.953
22.20000 519.505
22.24000 523.486
22.28000 507.178
22.32000 489.646
22.36000 484.019
22.40000 495.432
22.44000 449.938
22.48000 484.300
22.52000 462.249
22.56000 451.751
22.60000 440.700
22.64000 449.380
22.68000 452.292
22.72000 427.285
22.76000 462.060
22.80000 416.482
22.84000 427.432
22.88000 417.966
22.92000 444.849
22.96000 438.425
23.00000 472.233
23.04000 428.457
23.08000 437.579
23.12000 449.030
23.16000 439.831
23.20000 444.994
23.24000 428.063
23.28000 437.743
23.32000 441.182
23.36000 419.951
23.40000 440.483
23.44000 421.226
23.48000 436.832
23.52000 432.605
23.56000 443.267
23.60000 444.303
23.64000 467.496
23.68000 417.363
23.72000 442.804
23.76000 458.297
23.80000 475.847
23.84000 473.345
23.88000 500.700
23.92000 488.165
23.96000 503.329
24.00000 470.076
24.04000 495.818
24.08000 486.842
24.12000 474.789
24.16000 465.512
24.20000 443.177
24.24000 448.515
24.28000 459.463
24.32000 423.632
24.36000 427.543
24.40000 428.592
24.44000 411.049
24.48000 415.997
24.52000 414.449
24.56000 419.107
24.60000 403.323
24.64000 415.733
24.68000 416.449
24.72000 414.767
24.76000 403.282
24.80000 399.857
24.84000 414.020
24.88000 399.546
24.92000 409.613
24.96000 407.755
25.00000 396.875
25.04000 395.993
25.08000 398.818
25.12000 417.928
25.16000 422.570
25.20000 405.621
25.24000 396.153
25.28000 404.535
25.32000 400.698
25.36000 393.444
25.40000 383.979
25.44000 397.702
25.48000 388.430
25.52000 404.202
25.56000 405.544
25.60000 401.665
25.64000 389.443
25.68000 408.876
25.72000 393.020
25.76000 391.557
25.80000 383.255
25.84000 395.329
25.88000 386.135
25.92000 410.223
25.96000 372.984
26.00000 391.817
26.04000 388.133
26.08000 374.690
26.12000 382.823
26.16000 402.091
26.20000 407.949
26.24000 396.156
26.28000 379.296
26.32000 388.458
26.36000 385.048
26.40000 389.932
26.44000 378.187
26.48000 373.272
26.52000 385.584
26.56000 387.540
26.60000 373.284
26.64000 364.336
26.68000 390.163
26.72000 369.768
26.76000 382.325
26.80000 376.385
26.84000 366.702
26.88000 364.250
26.92000 382.687
26.96000 383.287
27.00000 375.777
27.04000 382.227
27.08000 359.992
27.12000 376.409
27.16000 371.658
27.20000 380.113
27.24000 382.157
27.28000 361.827
27.32000 383.840
27.36000 359.726
27.40000 373.411
27.44000 376.328
27.48000 371.502
27.52000 384.932
27.56000 393.660
27.60000 398.404
27.64000 385.342
27.68000 391.202
27.72000 364.253
27.76000 354.873
27.80000 377.908
27.84000 368.260
27.88000 351.426
27.92000 370.265
27.96000 381.308
28.00000 373.958
28.04000 376.559
28.08000 375.481
28.12000 372.337
28.16000 350.702
28.20000 378.559
28.24000 367.857
28.28000 371.585
28.32000 359.277
28.36000 362.173
28.40000 352.520
28.44000 348.610
28.48000 351.664
28.52000 362.458
28.56000 358.046
28.60000 344.318
28.64000 355.208
28.68000 352.396
28.72000 346.299
28.76000 356.021
28.80000 341.898
28.84000 355.756
28.88000 366.078
28.92000 354.056
28.96000 354.844
29.00000 351.680
29.04000 360.237
29.08000 361.136
29.12000 353.510
29.16000 320.554
29.20000 355.712
29.24000 346.976
29.28000 356.841
29.32000 343.008
29.36000 350.263
29.40000 349.358
29.44000 339.502
29.48000 351.035
29.52000 359.053
29.56000 365.325
29.60000 350.663
29.64000 351.259
29.68000 348.467
29.72000 353.134
29.76000 356.656
29.80000 361.560
29.84000 356.714
29.88000 379.361
29.92000 383.881
29.96000 386.835
30.00000 365.975
30.04000 380.480
30.08000 365.273
30.12000 371.410
30.16000 372.714
30.20000 356.868
30.24000 352.921
30.28000 358.123
30.32000 357.058
30.36000 354.058
30.40000 353.867
30.44000 354.213
30.48000 355.236
30.52000 357.358
30.56000 361.741
30.60000 343.506
30.64000 356.228
30.68000 366.477
30.72000 367.879
30.76000 355.677
30.80000 365.522
30.84000 380.829
30.88000 387.890
30.92000 398.307
30.96000 421.845
31.00000 448.286
31.04000 473.949
31.08000 540.948
31.12000 637.466
31.16000 716.969
31.20000 811.156
31.24000 920.629
31.28000 1033.592
31.32000 1134.929
31.36000 1144.478
31.40000 1099.459
31.44000 1051.138
31.48000 947.533
31.52000 812.863
31.56000 715.056
31.60000 619.151
31.64000 552.851
31.68000 474.689
31.72000 448.417
31.76000 393.706
31.80000 386.784
31.84000 366.048
31.88000 367.710
31.92000 357.778
31.96000 356.987
32.00000 344.825
32.04000 344.643
32.08000 328.579
32.12000 325.356
32.16000 335.549
32.20000 332.535
32.24000 328.671
32.28000 334.428
32.32000 336.294
32.36000 328.417
32.40000 331.042
32.44000 323.503
32.48000 318.856
32.52000 308.662
32.56000 317.430
32.60000 329.474
32.64000 309.460
32.68000 297.816
32.72000 325.306
32.76000 320.561
32.80000 306.799
32.84000 332.590
32.88000 315.519
32.92000 311.072
32.96000 314.364
33.00000 311.310
33.04000 303.671
33.08000 296.818
33.12000 311.301
33.16000 309.300
33.20000 310.574
33.24000 307.657
33.28000 298.564
33.32000 304.339
33.36000 287.510
33.40000 304.782
33.44000 296.670
33.48000 295.238
33.52000 290.895
33.56000 286.127
33.60000 297.528
33.64000 305.543
33.68000 299.690
33.72000 284.697
33.76000 301.606
33.80000 296.273
33.84000 316.464
33.88000 302.888
33.92000 317.291
33.96000 310.960
34.00000 325.426
34.04000 307.479
34.08000 323.213
34.12000 343.970
34.16000 319.381
34.20000 325.480
34.24000 340.744
34.28000 350.436
34.32000 348.875
34.36000 335.508
34.40000 346.569
34.44000 356.582
34.48000 333.432
34.52000 347.135
34.56000 336.960
34.60000 328.284
34.64000 320.155
34.68000 323.540
34.72000 317.701
34.76000 290.720
34.80000 299.394
34.84000 306.858
34.88000 292.951
34.92000 285.214
34.96000 269.790
35.00000 276.578
35.04000 276.870
35.08000 273.992
35.12000 274.373
35.16000 251.110
35.20000 278.614
35.24000 276.824
35.28000 282.908
35.32000 261.881
35.36000 266.655
35.40000 273.817
35.44000 269.212
35.48000 289.940
35.52000 259.557
35.56000 264.776
35.60000 253.485
35.64000 259.703
35.68000 265.186
35.72000 266.592
35.76000 262.244
35.80000 260.766
35.84000 261.062
35.88000 270.804
35.92000 260.512
35.96000 274.257
36.00000 251.144
36.04000 265.313
36.08000 248.255
36.12000 263.489
36.16000 256.612
36.20000 257.926
36.24000 250.595
36.28000 258.586
36.32000 263.693
36.36000 253.262
36.40000 258.096
36.44000 259.517
36.48000 257.143
36.52000 269.984
36.56000 261.983
36.60000 241.647
36.64000 262.439
36.68000 267.547
36.72000 256.644
36.76000 276.346
36.80000 267.624
36.84000 256.373
36.88000 289.974
36.92000 292.410
36.96000 290.827
37.00000 282.229
37.04000 274.711
37.08000 299.359
37.12000 286.215
37.16000 278.771
37.20000 276.644
37.24000 270.918
37.28000 273.377
37.32000 271.681
37.36000 252.924
37.40000 255.691
37.44000 261.589
37.48000 267.810
37.52000 262.839
37.56000 257.186
37.60000 260.190
37.64000 257.788
37.68000 248.793
37.72000 255.827
37.76000 261.220
37.80000 279.183
37.84000 257.955
37.88000 260.030
37.92000 268.355
37.96000 266.288
38.00000 254.874
38.04000 268.993
38.08000 263.455
38.12000 263.619
38.16000 264.724
38.20000 278.049
38.24000 296.229
38.28000 323.751
38.32000 333.436
38.36000 387.865
38.40000 466.218
38.44000 546.365
38.48000 631.410
38.52000 787.892
38.56000 934.469
38.60000 1081.079
38.64000 1165.761
38.68000 1240.178
38.72000 1260.701
38.76000 1208.319
38.80000 1122.084
38.84000 978.799
38.88000 814.739
38.92000 647.716
38.96000 525.229
39.00000 431.686
39.04000 349.655
39.08000 300.278
39.12000 275.843
39.16000 266.812
39.20000 241.084
39.24000 255.333
39.28000 242.940
39.32000 254.746
39.36000 230.741
39.40000 232.216
39.44000 232.229
39.48000 219.539
39.52000 222.118
39.56000 236.415
39.60000 242.164
39.64000 252.994
39.68000 237.357
39.72000 227.224
39.76000 229.980
39.80000 237.045
39.84000 228.571
39.88000 230.076
39.92000 240.729
39.96000 230.725
40.00000 216.299
40.04000 216.494
40.08000 234.046
40.12000 225.636
40.16000 220.084
40.20000 212.783
40.24000 231.161
40.28000 224.335
40.32000 228.142
40.36000 227.842
40.40000 223.622
40.44000 226.857
40.48000 223.703
40.52000 221.541
40.56000 234.232
40.60000 228.380
40.64000 222.326
40.68000 216.229
40.72000 226.768
40.76000 221.401
40.80000 213.264
40.84000 206.378
40.88000 202.303
40.92000 214.185
40.96000 212.950
41.00000 210.302
41.04000 213.497
41.08000 204.159
41.12000 214.620
41.16000 212.362
41.20000 205.805
41.24000 202.850
41.28000 213.070
41.32000 232.446
41.36000 202.459
41.40000 208.105
41.44000 212.950
41.48000 219.777
41.52000 205.945
41.56000 208.678
41.60000 209.998
41.64000 205.713
41.68000 204.780
41.72000 208.058
41.76000 194.609
41.80000 214.036
41.84000 205.656
41.88000 208.932
41.92000 206.598
41.96000 203.466
42.00000 205.764
42.04000 206.462
42.08000 209.257
42.12000 224.421
42.16000 214.362
42.20000 215.716
42.24000 218.344
42.28000 195.785
42.32000 210.237
42.36000 206.950
42.40000 219.252
42.44000 212.122
42.48000 205.523
42.52000 208.873
42.56000 208.073
42.60000 208.462
42.64000 203.988
42.68000 203.556
42.72000 209.459
42.76000 218.150
42.80000 204.691
42.84000 200.566
42.88000 204.406
42.92000 188.584
42.96000 205.005
43.00000 207.058
43.04000 204.625
43.08000 195.480
43.12000 197.443
43.16000 195.166
43.20000 203.507
43.24000 193.557
43.28000 198.581
43.32000 202.778
43.36000 183.687
43.40000 201.468
43.44000 199.179
43.48000 199.868
43.52000 191.194
43.56000 192.977
43.60000 192.133
43.64000 196.195
43.68000 178.737
43.72000 205.040
43.76000 208.394
43.80000 191.473
43.84000 200.942
43.88000 186.528
43.92000 185.970
43.96000 188.671
44.00000 194.989
44.04000 194.671
44.08000 202.951
44.12000 193.071
44.16000 189.207
44.20000 197.622
44.24000 199.418
44.28000 200.085
44.32000 201.809
44.36000 204.473
44.40000 205.885
44.44000 195.229
44.48000 202.744
44.52000 215.363
44.56000 208.234
44.60000 211.167
44.64000 234.485
44.68000 228.411
44.72000 230.405
44.76000 232.087
44.80000 247.957
44.84000 240.818
44.88000 261.721
44.92000 262.357
44.96000 265.204
45.00000 258.418
45.04000 280.515
45.08000 266.023
45.12000 266.018
45.16000 258.013
45.20000 254.769
45.24000 236.261
45.28000 227.203
45.32000 233.517
45.36000 233.349
45.40000 211.029
45.44000 207.797
45.48000 213.562
45.52000 207.261
45.56000 211.610
45.60000 204.108
45.64000 195.713
45.68000 218.315
45.72000 197.484
45.76000 192.346
45.80000 191.035
45.84000 187.833
45.88000 179.005
45.92000 193.375
45.96000 188.740
46.00000 181.733
46.04000 183.932
46.08000 179.857
46.12000 172.324
46.16000 175.816
46.20000 193.781
46.24000 177.883
46.28000 169.594
46.32000 179.567
46.36000 172.776
46.40000 180.182
46.44000 178.966
46.48000 168.177
46.52000 178.576
46.56000 176.189
46.60000 163.700
46.64000 180.606
46.68000 181.519
46.72000 180.916
46.76000 169.803
46.80000 169.926
46.84000 168.861
46.88000 177.798
46.92000 189.761
46.96000 165.916
47.00000 177.805
47.04000 170.278
47.08000 176.132
47.12000 173.077
47.16000 170.984
47.20000 165.715
47.24000 166.007
47.28000 167.815
47.32000 170.427
47.36000 170.206
47.40000 165.259
47.44000 159.483
47.48000 151.758
47.52000 169.516
47.56000 166.099
47.60000 155.414
47.64000 162.362
47.68000 155.624
47.72000 155.192
47.76000 165.939
47.80000 164.850
47.84000 159.531
47.88000 159.476
47.92000 148.999
47.96000 155.840
48.00000 175.705
48.04000 165.780
48.08000 170.150
48.12000 159.036
48.16000 155.627
48.20000 159.110
48.24000 157.723
48.28000 163.571
48.32000 165.945
48.36000 163.970
48.40000 163.004
48.44000 160.866
48.48000 155.331
48.52000 158.549
48.56000 155.598
48.60000 151.461
48.64000 150.339
48.68000 152.435
48.72000 146.181
48.76000 149.619
48.80000 159.604
48.84000 155.728
48.88000 151.616
48.92000 146.113
48.96000 149.864
49.00000 150.398
49.04000 157.769
49.08000 151.492
49.12000 151.415
49.16000 149.715
49.20000 153.387
49.24000 146.375
49.28000 153.476
49.32000 162.014
49.36000 155.835
49.40000 145.049
49.44000 160.730
49.48000 154.177
49.52000 158.076
49.56000 148.927
49.60000 157.877
49.64000 160.267
49.68000 160.272
49.72000 148.547
49.76000 149.903
49.80000 159.485
49.84000 145.229
49.88000 154.809
49.92000 150.265
49.96000 152.025
50.00000 160.265
50.04000 156.664
50.08000 161.780
50.12000 162.883
50.16000 151.796
50.20000 154.675
50.24000 153.509
50.28000 152.332
50.32000 154.092
50.36000 157.424
50.40000 163.683
50.44000 161.227
50.48000 170.163
50.52000 170.149
50.56000 172.633
50.60000 179.181
50.64000 178.355
50.68000 181.693
50.72000 171.638
50.76000 162.660
50.80000 170.228
50.84000 163.933
50.88000 173.664
50.92000 161.618
50.96000 158.657
51.00000 155.389
51.04000 154.028
51.08000 146.339
51.12000 159.036
51.16000 155.876
51.20000 146.555
51.24000 146.944
51.28000 150.640
51.32000 138.940
51.36000 143.670
51.40000 143.671
51.44000 147.330
51.48000 156.660
51.52000 140.828
51.56000 143.940
51.60000 143.100
51.64000 142.414
51.68000 136.866
51.72000 145.836
51.76000 138.410
51.80000 131.464
51.84000 130.663
51.88000 140.832
51.92000 136.374
51.96000 139.355
52.00000 138.684
52.04000 140.011
52.08000 141.216
52.12000 142.809
52.16000 144.396
52.20000 136.468
52.24000 139.546
52.28000 128.455
52.32000 140.720
52.36000 139.906
52.40000 130.045
52.44000 130.386
52.48000 145.226
52.52000 147.594
52.56000 137.143
52.60000 144.247
52.64000 149.285
52.68000 137.360
52.72000 140.321
52.76000 155.409
52.80000 140.632
52.84000 132.050
52.88000 151.441
52.92000 149.677
52.96000 142.776
53.00000 142.589
53.04000 142.492
53.08000 154.574
53.12000 158.739
53.16000 158.032
53.20000 158.440
53.24000 170.649
53.28000 163.744
53.32000 158.832
53.36000 159.995
53.40000 165.395
53.44000 171.758
53.48000 151.817
53.52000 160.511
53.56000 156.717
53.60000 151.381
53.64000 150.537
53.68000 147.856
53.72000 139.061
53.76000 142.797
53.80000 147.574
53.84000 144.228
53.88000 149.656
53.92000 154.430
53.96000 145.942
54.00000 138.307
54.04000 134.807
54.08000 139.654
54.12000 150.284
54.16000 138.839
54.20000 125.965
54.24000 143.498
54.28000 134.333
54.32000 137.518
54.36000 141.402
54.40000 141.500
54.44000 146.542
54.48000 144.095
54.52000 152.017
54.56000 144.905
54.60000 143.550
54.64000 141.487
54.68000 145.410
54.72000 137.640
54.76000 145.712
54.80000 134.781
54.84000 139.776
54.88000 138.867
54.92000 138.237
54.96000 151.845
55.00000 142.935
55.04000 149.934
55.08000 157.334
55.12000 173.009
55.16000 155.819
55.20000 159.834
55.24000 158.467
55.28000 163.752
55.32000 177.514
55.36000 182.782
55.40000 189.067
55.44000 214.111
55.48000 245.885
55.52000 260.878
55.56000 313.723
55.60000 358.665
55.64000 418.686
55.68000 473.481
55.72000 520.933
55.76000 609.158
55.80000 645.321
55.84000 709.854
55.88000 714.534
55.92000 772.091
55.96000 728.593
56.00000 694.368
56.04000 625.579
56.08000 571.151
56.12000 505.494
56.16000 448.107
56.20000 352.594
56.24000 318.644
56.28000 272.604
56.32000 236.167
56.36000 195.853
56.40000 193.037
56.44000 176.969
56.48000 155.153
56.52000 161.639
56.56000 145.573
56.60000 149.812
56.64000 145.145
56.68000 147.609
56.72000 146.987
56.76000 141.317
56.80000 135.089
56.84000 136.088
56.88000 135.791
56.92000 141.157
56.96000 130.767
57.00000 131.049
57.04000 130.790
57.08000 121.025
57.12000 132.678
57.16000 133.977
57.20000 134.145
57.24000 132.382
57.28000 125.944
57.32000 128.452
57.36000 127.266
57.40000 125.842
57.44000 135.335
57.48000 124.734
57.52000 117.962
57.56000 124.292
57.60000 123.757
57.64000 129.922
57.68000 124.926
57.72000 127.054
57.76000 135.543
57.80000 125.214
57.84000 144.447
57.88000 123.179
57.92000 125.908
57.96000 123.665
58.00000 120.204
58.04000 126.161
58.08000 126.904
58.12000 119.119
58.16000 124.744
58.20000 127.159
58.24000 123.861
58.28000 129.459
58.32000 134.675
58.36000 117.637
58.40000 119.812
58.44000 109.192
58.48000 127.336
58.52000 131.452
58.56000 121.584
58.60000 115.745
58.64000 119.872
58.68000 126.327
58.72000 113.327
58.76000 109.358
58.80000 111.676
58.84000 114.961
58.88000 113.078
58.92000 124.071
58.96000 116.988
59.00000 123.459
59.04000 120.489
59.08000 119.136
59.12000 117.380
59.16000 123.625
59.20000 109.891
59.24000 114.105
59.28000 120.686
59.32000 111.663
59.36000 115.681
59.40000 135.207
59.44000 114.865
59.48000 127.430
59.52000 117.736
59.56000 115.883
59.60000 115.667
59.64000 119.125
59.68000 123.253
59.72000 113.544
59.76000 114.717
59.80000 126.102
59.84000 114.129
59.88000 116.706
59.92000 123.431
59.96000 119.704
60.00000 120.706
60.04000 108.544
60.08000 116.539
60.12000 115.555
60.16000 120.335
60.20000 121.473
60.24000 113.131
60.28000 120.725
60.32000 115.678
60.36000 109.844
60.40000 113.330
60.44000 122.948
60.48000 110.095
60.52000 111.834
60.56000 122.879
60.60000 120.344
60.64000 113.484
60.68000 119.663
60.72000 121.305
60.76000 118.202
60.80000 120.028
60.84000 120.777
60.88000 122.340
60.92000 127.864
60.96000 128.166
61.00000 120.292
61.04000 120.630
61.08000 125.145
61.12000 117.552
61.16000 119.775
61.20000 122.759
61.24000 128.527
61.28000 122.656
61.32000 125.362
61.36000 128.601
61.40000 119.576
61.44000 123.299
61.48000 126.766
61.52000 155.413
61.56000 190.110
61.60000 251.066
61.64000 283.442
61.68000 299.018
61.72000 304.793
61.76000 278.599
61.80000 209.211
61.84000 165.068
61.88000 150.385
61.92000 136.089
61.96000 134.888
62.00000 126.466
62.04000 129.654
62.08000 128.747
62.12000 133.916
62.16000 135.278
62.20000 117.426
62.24000 124.833
62.28000 131.465
62.32000 124.996
62.36000 134.638
62.40000 125.617
62.44000 131.363
62.48000 135.228
62.52000 123.882
62.56000 121.938
62.60000 126.163
62.64000 128.267
62.68000 131.255
62.72000 122.073
62.76000 132.869
62.80000 131.613
62.84000 137.704
62.88000 127.781
62.92000 126.408
62.96000 119.846
63.00000 140.887
63.04000 132.636
63.08000 134.171
63.12000 128.145
63.16000 142.042
63.20000 136.715
63.24000 136.941
63.28000 133.595
63.32000 134.213
63.36000 139.062
63.40000 135.010
63.44000 128.965
63.48000 127.806
63.52000 133.343
63.56000 140.871
63.60000 130.766
63.64000 141.131
63.68000 134.695
63.72000 145.319
63.76000 129.892
63.80000 137.941
63.84000 139.243
63.88000 140.054
63.92000 141.155
63.96000 143.838
64.00000 130.252
64.04000 144.714
64.08000 146.828
64.12000 141.608
64.16000 148.032
64.20000 148.950
64.24000 145.367
64.28000 155.024
64.32000 152.822
64.36000 154.784
64.40000 151.703
64.44000 157.459
64.48000 176.295
64.52000 152.546
64.56000 161.295
64.60000 158.983
64.64000 166.908
64.68000 141.190
64.72000 166.007
64.76000 163.361
64.80000 166.508
64.84000 173.203
64.88000 188.536
64.92000 180.250
64.96000 171.386
65.00000 174.112
65.04000 192.339
65.08000 192.545
65.12000 205.800
65.16000 204.236
65.20000 215.096
65.24000 217.910
65.28000 230.573
65.32000 232.912
65.36000 246.197
65.40000 256.841
65.44000 261.589
65.48000 284.827
65.52000 303.062
65.56000 318.074
65.60000 355.872
65.64000 392.675
65.68000 559.328
65.72000 865.145
65.76000 1367.903
65.80000 1768.934
65.84000 1966.286
65.88000 1968.472
65.92000 1872.986
65.96000 1539.552
66.00000 1038.159
66.04000 642.581
66.08000 471.298
66.12000 404.740
66.16000 375.605
66.20000 350.292
66.24000 387.978
66.28000 433.606
66.32000 529.814
66.36000 607.584
66.40000 624.332
66.44000 609.315
66.48000 592.895
66.52000 529.738
66.56000 442.473
66.60000 385.942
66.64000 362.969
66.68000 348.934
66.72000 328.079
66.76000 340.274
66.80000 341.811
66.84000 343.769
66.88000 367.416
66.92000 347.503
66.96000 353.013
67.00000 357.331
67.04000 357.656
67.08000 352.693
67.12000 371.267
67.16000 373.199
67.20000 376.893
67.24000 383.954
67.28000 386.058
67.32000 377.475
67.36000 380.348
67.40000 415.131
67.44000 409.805
67.48000 418.014
67.52000 427.154
67.56000 407.896
67.60000 422.449
67.64000 428.645
67.68000 439.692
67.72000 468.244
67.76000 438.903
67.80000 449.720
67.84000 482.101
67.88000 476.100
67.92000 465.990
67.96000 462.907
68.00000 490.638
68.04000 501.444
68.08000 497.969
68.12000 518.554
68.16000 511.388
68.20000 519.177
68.24000 533.660
68.28000 559.092
68.32000 579.586
68.36000 589.997
68.40000 606.560
68.44000 648.479
68.48000 643.381
68.52000 680.771
68.56000 731.060
68.60000 837.221
68.64000 932.841
68.68000 1082.374
68.72000 1270.955
68.76000 1411.085
68.80000 1591.141
68.84000 1801.388
68.88000 2283.203
68.92000 3614.085
68.96000 8842.760
69.00000 20915.309
69.04000 34092.078
69.08000 41137.426
69.12000 43955.535
69.16000 47199.602
69.20000 46484.504
69.24000 37419.355
69.28000 27714.141
69.32000 22762.070
69.36000 21380.117
69.40000 17863.035
69.44000 10842.849
69.48000 4978.784
69.52000 2267.329
69.56000 1369.635
69.60000 1053.316
69.64000 905.805
69.68000 802.649
69.72000 708.837
69.76000 653.283
69.80000 629.301
69.84000 599.827
69.88000 568.136
69.92000 542.007
69.96000 517.348
70.00000 497.368