File: XRD/08-10-2025 Dep 7/XY Data/BTO_Mapping_Theta2Theta_08-10-2025_001_43_-10-000_-17-321.xy
20.00000 473.658
20.04000 488.615
20.08000 472.189
20.12000 467.981
20.16000 482.472
20.20000 477.597
20.24000 468.379
20.28000 492.127
20.32000 478.097
20.36000 484.471
20.40000 465.341
20.44000 463.864
20.48000 450.732
20.52000 476.659
20.56000 469.905
20.60000 485.341
20.64000 454.536
20.68000 466.975
20.72000 469.464
20.76000 472.259
20.80000 475.766
20.84000 489.469
20.88000 481.991
20.92000 440.928
20.96000 466.059
21.00000 473.116
21.04000 479.735
21.08000 463.042
21.12000 463.311
21.16000 476.725
21.20000 465.218
21.24000 467.994
21.28000 456.871
21.32000 464.884
21.36000 476.185
21.40000 468.909
21.44000 444.439
21.48000 459.933
21.52000 463.871
21.56000 472.137
21.60000 477.910
21.64000 458.953
21.68000 473.734
21.72000 486.693
21.76000 498.374
21.80000 489.808
21.84000 515.860
21.88000 514.509
21.92000 530.962
21.96000 563.066
22.00000 562.817
22.04000 573.805
22.08000 576.729
22.12000 567.171
22.16000 543.870
22.20000 529.481
22.24000 522.965
22.28000 501.719
22.32000 518.249
22.36000 481.882
22.40000 451.299
22.44000 453.920
22.48000 461.992
22.52000 460.104
22.56000 441.321
22.60000 459.524
22.64000 434.545
22.68000 443.382
22.72000 440.019
22.76000 449.897
22.80000 432.890
22.84000 453.056
22.88000 451.849
22.92000 463.035
22.96000 439.724
23.00000 432.832
23.04000 436.932
23.08000 431.089
23.12000 448.252
23.16000 439.865
23.20000 448.591
23.24000 429.323
23.28000 434.911
23.32000 413.999
23.36000 440.083
23.40000 432.582
23.44000 406.707
23.48000 444.722
23.52000 433.581
23.56000 446.375
23.60000 427.223
23.64000 445.903
23.68000 423.496
23.72000 452.914
23.76000 439.917
23.80000 441.056
23.84000 460.089
23.88000 460.411
23.92000 471.168
23.96000 464.559
24.00000 465.028
24.04000 449.639
24.08000 464.662
24.12000 446.291
24.16000 458.141
24.20000 441.880
24.24000 453.525
24.28000 431.892
24.32000 431.844
24.36000 405.859
24.40000 427.881
24.44000 411.104
24.48000 415.485
24.52000 418.787
24.56000 430.211
24.60000 396.947
24.64000 407.183
24.68000 396.486
24.72000 418.716
24.76000 426.314
24.80000 390.254
24.84000 410.955
24.88000 404.355
24.92000 390.452
24.96000 415.285
25.00000 409.218
25.04000 402.301
25.08000 404.968
25.12000 399.329
25.16000 405.196
25.20000 400.154
25.24000 396.459
25.28000 385.785
25.32000 394.120
25.36000 389.438
25.40000 408.723
25.44000 391.101
25.48000 403.886
25.52000 402.951
25.56000 386.753
25.60000 406.486
25.64000 399.355
25.68000 407.611
25.72000 397.139
25.76000 389.761
25.80000 372.833
25.84000 380.209
25.88000 395.812
25.92000 393.997
25.96000 404.643
26.00000 391.968
26.04000 371.736
26.08000 398.515
26.12000 381.777
26.16000 380.084
26.20000 388.839
26.24000 362.867
26.28000 370.656
26.32000 407.672
26.36000 394.988
26.40000 388.015
26.44000 381.325
26.48000 392.218
26.52000 383.752
26.56000 371.008
26.60000 395.143
26.64000 370.967
26.68000 384.743
26.72000 377.989
26.76000 370.642
26.80000 377.292
26.84000 383.905
26.88000 406.437
26.92000 380.240
26.96000 375.807
27.00000 372.929
27.04000 389.454
27.08000 381.276
27.12000 392.281
27.16000 370.592
27.20000 373.392
27.24000 371.586
27.28000 382.950
27.32000 392.792
27.36000 383.293
27.40000 375.756
27.44000 373.784
27.48000 366.517
27.52000 372.865
27.56000 375.213
27.60000 379.847
27.64000 383.766
27.68000 379.171
27.72000 368.759
27.76000 373.376
27.80000 366.482
27.84000 382.441
27.88000 375.919
27.92000 369.645
27.96000 374.755
28.00000 379.536
28.04000 354.319
28.08000 362.318
28.12000 391.248
28.16000 353.503
28.20000 364.754
28.24000 357.929
28.28000 355.734
28.32000 366.642
28.36000 363.119
28.40000 353.541
28.44000 349.726
28.48000 353.545
28.52000 357.759
28.56000 356.543
28.60000 356.518
28.64000 357.327
28.68000 355.026
28.72000 365.276
28.76000 356.198
28.80000 341.733
28.84000 368.456
28.88000 353.308
28.92000 352.615
28.96000 369.545
29.00000 360.687
29.04000 367.829
29.08000 356.055
29.12000 359.825
29.16000 358.420
29.20000 353.163
29.24000 346.421
29.28000 350.752
29.32000 336.782
29.36000 356.134
29.40000 358.248
29.44000 356.114
29.48000 364.276
29.52000 359.146
29.56000 358.947
29.60000 347.344
29.64000 362.005
29.68000 365.933
29.72000 364.005
29.76000 366.980
29.80000 367.893
29.84000 388.731
29.88000 398.554
29.92000 401.398
29.96000 409.050
30.00000 403.706
30.04000 415.624
30.08000 384.668
30.12000 394.424
30.16000 395.050
30.20000 384.136
30.24000 368.083
30.28000 372.033
30.32000 360.089
30.36000 359.759
30.40000 353.145
30.44000 367.487
30.48000 365.400
30.52000 365.648
30.56000 381.715
30.60000 365.001
30.64000 373.614
30.68000 364.038
30.72000 366.658
30.76000 374.265
30.80000 394.048
30.84000 391.378
30.88000 400.855
30.92000 420.886
30.96000 482.621
31.00000 514.491
31.04000 619.205
31.08000 717.303
31.12000 878.398
31.16000 1038.035
31.20000 1261.114
31.24000 1454.077
31.28000 1629.471
31.32000 1717.162
31.36000 1762.032
31.40000 1745.827
31.44000 1543.782
31.48000 1332.166
31.52000 1109.423
31.56000 901.036
31.60000 724.384
31.64000 614.207
31.68000 528.744
31.72000 463.984
31.76000 414.668
31.80000 399.680
31.84000 388.368
31.88000 379.135
31.92000 367.670
31.96000 349.393
32.00000 338.750
32.04000 336.907
32.08000 347.416
32.12000 345.691
32.16000 347.119
32.20000 337.445
32.24000 336.374
32.28000 335.932
32.32000 317.091
32.36000 319.085
32.40000 328.187
32.44000 328.687
32.48000 338.645
32.52000 332.742
32.56000 309.303
32.60000 318.607
32.64000 313.151
32.68000 323.713
32.72000 306.022
32.76000 332.519
32.80000 333.170
32.84000 316.846
32.88000 340.525
32.92000 318.845
32.96000 313.393
33.00000 313.867
33.04000 302.654
33.08000 296.454
33.12000 308.690
33.16000 309.883
33.20000 283.702
33.24000 311.098
33.28000 302.742
33.32000 277.770
33.36000 298.288
33.40000 295.674
33.44000 289.289
33.48000 289.567
33.52000 297.439
33.56000 297.682
33.60000 299.253
33.64000 289.766
33.68000 296.615
33.72000 306.379
33.76000 294.557
33.80000 308.020
33.84000 301.557
33.88000 312.421
33.92000 314.751
33.96000 305.972
34.00000 310.066
34.04000 320.467
34.08000 328.082
34.12000 318.875
34.16000 333.514
34.20000 339.437
34.24000 311.714
34.28000 331.784
34.32000 323.000
34.36000 330.292
34.40000 346.213
34.44000 332.865
34.48000 342.363
34.52000 332.642
34.56000 329.365
34.60000 328.814
34.64000 310.533
34.68000 318.569
34.72000 311.675
34.76000 302.131
34.80000 294.519
34.84000 283.085
34.88000 296.937
34.92000 288.053
34.96000 276.925
35.00000 274.319
35.04000 253.780
35.08000 280.719
35.12000 258.997
35.16000 268.504
35.20000 265.716
35.24000 278.187
35.28000 261.179
35.32000 273.553
35.36000 277.152
35.40000 281.177
35.44000 269.064
35.48000 270.080
35.52000 262.869
35.56000 260.081
35.60000 265.958
35.64000 267.395
35.68000 275.018
35.72000 259.047
35.76000 266.670
35.80000 254.889
35.84000 268.737
35.88000 252.550
35.92000 253.919
35.96000 256.428
36.00000 246.677
36.04000 259.092
36.08000 260.868
36.12000 266.126
36.16000 249.467
36.20000 249.648
36.24000 259.164
36.28000 254.672
36.32000 256.830
36.36000 259.703
36.40000 252.352
36.44000 254.635
36.48000 253.078
36.52000 238.064
36.56000 259.545
36.60000 250.432
36.64000 256.548
36.68000 257.803
36.72000 256.265
36.76000 267.772
36.80000 254.615
36.84000 281.892
36.88000 287.974
36.92000 290.754
36.96000 290.989
37.00000 293.976
37.04000 286.429
37.08000 303.898
37.12000 285.699
37.16000 284.519
37.20000 262.736
37.24000 274.522
37.28000 268.098
37.32000 255.043
37.36000 265.358
37.40000 256.450
37.44000 260.093
37.48000 273.611
37.52000 255.944
37.56000 255.890
37.60000 277.046
37.64000 249.602
37.68000 247.656
37.72000 250.421
37.76000 264.179
37.80000 248.207
37.84000 257.126
37.88000 251.753
37.92000 258.978
37.96000 266.293
38.00000 266.461
38.04000 258.411
38.08000 263.710
38.12000 275.116
38.16000 275.239
38.20000 280.500
38.24000 295.993
38.28000 312.586
38.32000 352.869
38.36000 402.666
38.40000 487.231
38.44000 575.101
38.48000 688.120
38.52000 796.862
38.56000 934.704
38.60000 1042.594
38.64000 1124.097
38.68000 1184.269
38.72000 1159.478
38.76000 1114.724
38.80000 971.134
38.84000 857.663
38.88000 737.584
38.92000 604.313
38.96000 487.208
39.00000 405.811
39.04000 343.217
39.08000 292.904
39.12000 278.454
39.16000 260.523
39.20000 251.950
39.24000 243.269
39.28000 247.830
39.32000 241.434
39.36000 236.084
39.40000 250.054
39.44000 243.833
39.48000 231.374
39.52000 226.127
39.56000 242.376
39.60000 226.842
39.64000 239.361
39.68000 234.365
39.72000 234.309
39.76000 225.117
39.80000 228.240
39.84000 227.231
39.88000 235.236
39.92000 236.125
39.96000 224.009
40.00000 227.067
40.04000 226.525
40.08000 230.800
40.12000 228.485
40.16000 232.909
40.20000 218.349
40.24000 229.032
40.28000 221.134
40.32000 226.433
40.36000 229.337
40.40000 227.247
40.44000 221.520
40.48000 214.978
40.52000 221.055
40.56000 212.840
40.60000 209.405
40.64000 214.084
40.68000 220.978
40.72000 214.825
40.76000 219.169
40.80000 218.449
40.84000 221.422
40.88000 208.376
40.92000 203.870
40.96000 224.372
41.00000 209.803
41.04000 218.279
41.08000 205.613
41.12000 219.459
41.16000 217.557
41.20000 190.672
41.24000 214.941
41.28000 207.774
41.32000 220.918
41.36000 216.825
41.40000 207.398
41.44000 200.500
41.48000 206.160
41.52000 203.827
41.56000 206.903
41.60000 214.532
41.64000 209.397
41.68000 210.031
41.72000 200.078
41.76000 206.870
41.80000 208.517
41.84000 205.550
41.88000 211.918
41.92000 208.372
41.96000 213.401
42.00000 211.352
42.04000 213.924
42.08000 208.631
42.12000 200.727
42.16000 195.238
42.20000 200.821
42.24000 212.918
42.28000 210.277
42.32000 227.151
42.36000 200.772
42.40000 203.751
42.44000 202.095
42.48000 201.953
42.52000 208.952
42.56000 200.247
42.60000 205.644
42.64000 207.093
42.68000 199.411
42.72000 199.216
42.76000 210.109
42.80000 195.074
42.84000 200.609
42.88000 198.506
42.92000 192.873
42.96000 197.300
43.00000 201.071
43.04000 203.204
43.08000 199.693
43.12000 197.219
43.16000 208.628
43.20000 207.462
43.24000 200.818
43.28000 201.025
43.32000 198.167
43.36000 198.728
43.40000 190.495
43.44000 199.163
43.48000 202.362
43.52000 190.104
43.56000 199.248
43.60000 199.446
43.64000 190.041
43.68000 197.104
43.72000 188.807
43.76000 181.214
43.80000 187.784
43.84000 180.672
43.88000 189.821
43.92000 199.119
43.96000 201.853
44.00000 185.922
44.04000 192.691
44.08000 204.039
44.12000 193.131
44.16000 191.910
44.20000 183.495
44.24000 198.130
44.28000 200.542
44.32000 193.577
44.36000 204.451
44.40000 216.462
44.44000 206.711
44.48000 212.452
44.52000 220.748
44.56000 213.549
44.60000 219.723
44.64000 228.935
44.68000 224.037
44.72000 240.582
44.76000 225.571
44.80000 248.066
44.84000 252.398
44.88000 277.409
44.92000 283.598
44.96000 274.488
45.00000 292.472
45.04000 293.977
45.08000 284.251
45.12000 276.907
45.16000 264.325
45.20000 249.056
45.24000 254.424
45.28000 241.526
45.32000 228.398
45.36000 227.564
45.40000 237.570
45.44000 214.092
45.48000 213.833
45.52000 219.296
45.56000 239.799
45.60000 214.664
45.64000 209.139
45.68000 192.507
45.72000 196.066
45.76000 205.588
45.80000 195.505
45.84000 200.185
45.88000 180.936
45.92000 178.846
45.96000 181.238
46.00000 186.599
46.04000 168.741
46.08000 169.067
46.12000 185.036
46.16000 180.062
46.20000 167.693
46.24000 178.794
46.28000 171.978
46.32000 189.156
46.36000 181.475
46.40000 175.691
46.44000 171.285
46.48000 170.658
46.52000 186.141
46.56000 176.592
46.60000 171.734
46.64000 182.192
46.68000 179.460
46.72000 177.205
46.76000 173.011
46.80000 177.889
46.84000 174.192
46.88000 171.830
46.92000 169.004
46.96000 173.324
47.00000 168.638
47.04000 171.556
47.08000 175.000
47.12000 170.403
47.16000 166.602
47.20000 162.104
47.24000 172.929
47.28000 172.211
47.32000 163.747
47.36000 167.228
47.40000 162.870
47.44000 155.699
47.48000 158.034
47.52000 160.002
47.56000 161.827
47.60000 172.931
47.64000 168.008
47.68000 167.514
47.72000 160.412
47.76000 165.860
47.80000 162.187
47.84000 176.779
47.88000 170.486
47.92000 162.166
47.96000 161.171
48.00000 162.704
48.04000 155.497
48.08000 164.597
48.12000 161.850
48.16000 156.245
48.20000 162.326
48.24000 166.715
48.28000 151.633
48.32000 165.112
48.36000 155.949
48.40000 167.074
48.44000 163.272
48.48000 168.840
48.52000 156.343
48.56000 155.878
48.60000 155.598
48.64000 150.244
48.68000 146.568
48.72000 160.318
48.76000 155.596
48.80000 145.604
48.84000 162.561
48.88000 173.119
48.92000 152.610
48.96000 160.748
49.00000 153.848
49.04000 156.110
49.08000 164.774
49.12000 153.780
49.16000 164.290
49.20000 157.581
49.24000 153.211
49.28000 152.521
49.32000 140.358
49.36000 154.244
49.40000 157.572
49.44000 165.033
49.48000 148.221
49.52000 155.771
49.56000 144.551
49.60000 146.837
49.64000 151.915
49.68000 150.204
49.72000 146.797
49.76000 160.092
49.80000 166.626
49.84000 138.976
49.88000 151.897
49.92000 144.702
49.96000 158.884
50.00000 142.085
50.04000 165.475
50.08000 150.336
50.12000 159.405
50.16000 153.467
50.20000 159.935
50.24000 155.949
50.28000 168.085
50.32000 169.362
50.36000 168.999
50.40000 189.048
50.44000 188.088
50.48000 198.888
50.52000 201.862
50.56000 190.230
50.60000 202.251
50.64000 208.769
50.68000 193.512
50.72000 187.574
50.76000 189.420
50.80000 182.604
50.84000 181.176
50.88000 175.093
50.92000 168.236
50.96000 162.436
51.00000 154.930
51.04000 169.266
51.08000 158.519
51.12000 152.511
51.16000 160.427
51.20000 152.888
51.24000 150.214
51.28000 149.817
51.32000 143.622
51.36000 148.279
51.40000 151.980
51.44000 136.746
51.48000 147.866
51.52000 141.354
51.56000 136.504
51.60000 153.134
51.64000 134.955
51.68000 133.469
51.72000 147.149
51.76000 142.238
51.80000 143.038
51.84000 147.016
51.88000 139.636
51.92000 137.414
51.96000 137.435
52.00000 140.928
52.04000 139.325
52.08000 139.447
52.12000 149.255
52.16000 149.541
52.20000 150.672
52.24000 138.676
52.28000 145.991
52.32000 144.205
52.36000 139.033
52.40000 146.819
52.44000 141.733
52.48000 141.172
52.52000 134.534
52.56000 149.318
52.60000 140.754
52.64000 151.424
52.68000 150.407
52.72000 141.528
52.76000 148.983
52.80000 143.953
52.84000 142.129
52.88000 141.311
52.92000 134.667
52.96000 133.848
53.00000 144.848
53.04000 143.189
53.08000 147.320
53.12000 159.563
53.16000 141.647
53.20000 155.039
53.24000 156.705
53.28000 151.365
53.32000 157.285
53.36000 160.992
53.40000 152.456
53.44000 145.389
53.48000 149.850
53.52000 154.705
53.56000 152.889
53.60000 157.303
53.64000 149.789
53.68000 149.206
53.72000 148.465
53.76000 135.541
53.80000 143.467
53.84000 140.970
53.88000 126.107
53.92000 144.832
53.96000 146.042
54.00000 134.117
54.04000 139.010
54.08000 149.831
54.12000 139.752
54.16000 144.584
54.20000 141.292
54.24000 141.365
54.28000 150.462
54.32000 147.787
54.36000 142.942
54.40000 145.742
54.44000 141.913
54.48000 145.887
54.52000 159.685
54.56000 133.367
54.60000 143.018
54.64000 140.714
54.68000 149.740
54.72000 138.853
54.76000 143.505
54.80000 144.941
54.84000 152.843
54.88000 158.249
54.92000 149.513
54.96000 142.925
55.00000 143.239
55.04000 155.509
55.08000 152.500
55.12000 146.797
55.16000 146.259
55.20000 162.851
55.24000 165.104
55.28000 168.019
55.32000 183.706
55.36000 195.676
55.40000 216.280
55.44000 234.901
55.48000 262.089
55.52000 300.243
55.56000 337.697
55.60000 402.015
55.64000 442.713
55.68000 532.351
55.72000 591.823
55.76000 658.913
55.80000 689.201
55.84000 722.517
55.88000 713.084
55.92000 720.493
55.96000 683.509
56.00000 633.900
56.04000 578.674
56.08000 509.743
56.12000 437.209
56.16000 392.647
56.20000 318.515
56.24000 282.774
56.28000 259.202
56.32000 212.334
56.36000 201.994
56.40000 193.698
56.44000 182.228
56.48000 160.155
56.52000 159.601
56.56000 146.230
56.60000 156.735
56.64000 136.748
56.68000 133.636
56.72000 148.249
56.76000 138.695
56.80000 137.856
56.84000 136.545
56.88000 133.302
56.92000 131.606
56.96000 131.007
57.00000 129.881
57.04000 123.104
57.08000 134.018
57.12000 122.093
57.16000 126.257
57.20000 123.180
57.24000 127.136
57.28000 122.074
57.32000 141.200
57.36000 129.290
57.40000 120.693
57.44000 136.152
57.48000 131.436
57.52000 139.919
57.56000 125.026
57.60000 130.356
57.64000 127.169
57.68000 119.586
57.72000 123.638
57.76000 130.946
57.80000 122.875
57.84000 119.708
57.88000 130.297
57.92000 122.561
57.96000 117.901
58.00000 120.615
58.04000 136.581
58.08000 128.647
58.12000 123.834
58.16000 126.162
58.20000 114.428
58.24000 118.074
58.28000 121.923
58.32000 127.706
58.36000 117.079
58.40000 118.095
58.44000 111.154
58.48000 114.884
58.52000 119.230
58.56000 127.486
58.60000 125.425
58.64000 118.931
58.68000 115.826
58.72000 123.237
58.76000 125.480
58.80000 113.128
58.84000 116.035
58.88000 123.072
58.92000 121.563
58.96000 119.510
59.00000 122.368
59.04000 126.066
59.08000 105.593
59.12000 113.488
59.16000 110.593
59.20000 122.428
59.24000 116.147
59.28000 113.691
59.32000 120.338
59.36000 128.611
59.40000 105.372
59.44000 121.038
59.48000 117.007
59.52000 114.989
59.56000 117.375
59.60000 131.281
59.64000 116.673
59.68000 108.081
59.72000 128.558
59.76000 119.001
59.80000 130.414
59.84000 122.309
59.88000 121.765
59.92000 120.587
59.96000 118.647
60.00000 110.739
60.04000 116.393
60.08000 117.387
60.12000 114.400
60.16000 115.369
60.20000 108.855
60.24000 116.172
60.28000 116.846
60.32000 109.435
60.36000 115.778
60.40000 115.479
60.44000 108.586
60.48000 117.272
60.52000 116.713
60.56000 114.183
60.60000 109.056
60.64000 118.031
60.68000 118.649
60.72000 119.681
60.76000 115.121
60.80000 109.379
60.84000 126.156
60.88000 115.640
60.92000 108.719
60.96000 121.040
61.00000 122.853
61.04000 126.330
61.08000 125.036
61.12000 123.350
61.16000 123.175
61.20000 127.094
61.24000 126.197
61.28000 121.238
61.32000 124.672
61.36000 118.722
61.40000 128.117
61.44000 135.441
61.48000 130.479
61.52000 157.276
61.56000 193.019
61.60000 249.490
61.64000 284.940
61.68000 317.415
61.72000 307.376
61.76000 293.247
61.80000 239.290
61.84000 184.530
61.88000 155.156
61.92000 137.751
61.96000 137.959
62.00000 126.440
62.04000 132.121
62.08000 122.939
62.12000 129.580
62.16000 131.242
62.20000 123.169
62.24000 124.154
62.28000 130.555
62.32000 122.812
62.36000 123.051
62.40000 119.056
62.44000 136.723
62.48000 129.655
62.52000 137.685
62.56000 134.127
62.60000 124.884
62.64000 128.336
62.68000 126.712
62.72000 145.199
62.76000 140.289
62.80000 130.970
62.84000 137.954
62.88000 135.846
62.92000 137.355
62.96000 131.966
63.00000 126.298
63.04000 138.271
63.08000 135.913
63.12000 130.483
63.16000 141.164
63.20000 131.430
63.24000 141.954
63.28000 139.837
63.32000 133.120
63.36000 133.805
63.40000 124.955
63.44000 129.418
63.48000 139.909
63.52000 130.234
63.56000 138.852
63.60000 137.194
63.64000 130.208
63.68000 141.005
63.72000 142.078
63.76000 139.469
63.80000 144.671
63.84000 150.493
63.88000 137.721
63.92000 142.111
63.96000 137.635
64.00000 139.167
64.04000 138.375
64.08000 139.430
64.12000 146.197
64.16000 150.439
64.20000 146.080
64.24000 149.710
64.28000 146.264
64.32000 150.411
64.36000 142.207
64.40000 141.968
64.44000 158.358
64.48000 156.641
64.52000 160.289
64.56000 161.319
64.60000 163.432
64.64000 166.007
64.68000 169.888
64.72000 168.580
64.76000 171.813
64.80000 181.153
64.84000 163.767
64.88000 178.245
64.92000 193.270
64.96000 193.771
65.00000 204.005
65.04000 209.266
65.08000 227.073
65.12000 223.247
65.16000 234.769
65.20000 240.705
65.24000 249.090
65.28000 248.552
65.32000 266.614
65.36000 285.956
65.40000 279.288
65.44000 308.420
65.48000 316.607
65.52000 338.876
65.56000 361.836
65.60000 388.563
65.64000 431.902
65.68000 583.778
65.72000 905.237
65.76000 1381.491
65.80000 1793.257
65.84000 2033.354
65.88000 2098.404
65.92000 2049.979
65.96000 1725.033
66.00000 1159.769
66.04000 720.324
66.08000 518.550
66.12000 412.918
66.16000 395.617
66.20000 371.140
66.24000 395.982
66.28000 452.365
66.32000 533.352
66.36000 621.633
66.40000 645.975
66.44000 646.579
66.48000 622.529
66.52000 558.191
66.56000 451.482
66.60000 399.042
66.64000 366.662
66.68000 365.072
66.72000 363.698
66.76000 358.565
66.80000 355.278
66.84000 350.483
66.88000 365.259
66.92000 359.024
66.96000 375.763
67.00000 374.323
67.04000 354.239
67.08000 374.055
67.12000 385.362
67.16000 385.004
67.20000 366.837
67.24000 375.058
67.28000 410.891
67.32000 392.961
67.36000 413.263
67.40000 412.482
67.44000 426.568
67.48000 431.261
67.52000 426.844
67.56000 432.502
67.60000 427.259
67.64000 439.903
67.68000 445.691
67.72000 443.331
67.76000 464.954
67.80000 445.326
67.84000 457.371
67.88000 479.180
67.92000 494.438
67.96000 482.786
68.00000 485.307
68.04000 509.462
68.08000 502.425
68.12000 515.946
68.16000 515.323
68.20000 534.341
68.24000 558.232
68.28000 564.004
68.32000 584.378
68.36000 611.172
68.40000 615.436
68.44000 643.893
68.48000 686.681
68.52000 714.499
68.56000 764.264
68.60000 814.365
68.64000 983.851
68.68000 1117.772
68.72000 1303.487
68.76000 1473.782
68.80000 1671.629
68.84000 1880.004
68.88000 2291.118
68.92000 3554.190
68.96000 8436.001
69.00000 20561.873
69.04000 34811.785
69.08000 43366.988
69.12000 46678.355
69.16000 49775.883
69.20000 49950.875
69.24000 41339.367
69.28000 30823.104
69.32000 24824.641
69.36000 22921.496
69.40000 19654.557
69.44000 12519.979
69.48000 5966.671
69.52000 2591.377
69.56000 1515.379
69.60000 1121.563
69.64000 943.208
69.68000 809.066
69.72000 781.239
69.76000 695.367
69.80000 647.730
69.84000 604.172
69.88000 580.502
69.92000 555.226
69.96000 547.225
70.00000 503.809