File: XRD/08-10-2025 Dep 7/XY Data/BTO_Mapping_Theta2Theta_08-10-2025_001_20_-3-136_29-836.xy
20.00000 471.875
20.04000 480.271
20.08000 481.919
20.12000 458.399
20.16000 481.155
20.20000 477.065
20.24000 461.239
20.28000 476.203
20.32000 480.499
20.36000 461.420
20.40000 462.717
20.44000 471.264
20.48000 455.181
20.52000 472.723
20.56000 475.332
20.60000 456.625
20.64000 479.517
20.68000 454.682
20.72000 444.045
20.76000 443.155
20.80000 475.218
20.84000 468.747
20.88000 451.544
20.92000 454.109
20.96000 459.353
21.00000 448.485
21.04000 458.163
21.08000 472.768
21.12000 464.331
21.16000 478.575
21.20000 467.643
21.24000 461.375
21.28000 467.515
21.32000 468.612
21.36000 467.578
21.40000 460.594
21.44000 463.677
21.48000 453.777
21.52000 485.005
21.56000 478.672
21.60000 464.739
21.64000 477.242
21.68000 459.363
21.72000 461.595
21.76000 471.002
21.80000 457.770
21.84000 480.025
21.88000 496.060
21.92000 484.027
21.96000 491.415
22.00000 503.359
22.04000 515.019
22.08000 498.750
22.12000 513.796
22.16000 500.441
22.20000 501.429
22.24000 489.643
22.28000 494.297
22.32000 494.036
22.36000 481.641
22.40000 474.681
22.44000 474.886
22.48000 439.008
22.52000 441.964
22.56000 431.847
22.60000 448.128
22.64000 451.196
22.68000 434.002
22.72000 448.313
22.76000 432.583
22.80000 438.946
22.84000 463.107
22.88000 449.279
22.92000 429.286
22.96000 433.729
23.00000 435.002
23.04000 445.397
23.08000 425.451
23.12000 440.426
23.16000 432.766
23.20000 435.539
23.24000 422.500
23.28000 434.900
23.32000 431.855
23.36000 448.736
23.40000 449.298
23.44000 458.469
23.48000 430.615
23.52000 460.212
23.56000 432.389
23.60000 453.422
23.64000 431.322
23.68000 430.784
23.72000 469.778
23.76000 456.901
23.80000 480.464
23.84000 485.888
23.88000 496.289
23.92000 501.151
23.96000 502.535
24.00000 525.982
24.04000 505.733
24.08000 497.815
24.12000 490.500
24.16000 487.900
24.20000 474.236
24.24000 460.471
24.28000 457.233
24.32000 438.969
24.36000 425.774
24.40000 422.462
24.44000 434.615
24.48000 431.659
24.52000 423.076
24.56000 395.032
24.60000 432.174
24.64000 414.243
24.68000 413.413
24.72000 422.709
24.76000 424.715
24.80000 413.647
24.84000 417.508
24.88000 411.783
24.92000 405.019
24.96000 421.055
25.00000 402.247
25.04000 399.413
25.08000 428.696
25.12000 406.175
25.16000 402.297
25.20000 408.129
25.24000 407.236
25.28000 393.287
25.32000 389.743
25.36000 409.268
25.40000 407.587
25.44000 402.603
25.48000 391.468
25.52000 384.884
25.56000 415.549
25.60000 416.606
25.64000 408.789
25.68000 400.418
25.72000 366.769
25.76000 383.027
25.80000 390.135
25.84000 416.026
25.88000 389.817
25.92000 395.447
25.96000 397.421
26.00000 412.477
26.04000 383.168
26.08000 401.556
26.12000 389.081
26.16000 389.466
26.20000 377.650
26.24000 394.184
26.28000 376.443
26.32000 380.296
26.36000 394.570
26.40000 373.728
26.44000 394.912
26.48000 387.788
26.52000 397.280
26.56000 369.610
26.60000 383.427
26.64000 381.820
26.68000 389.656
26.72000 365.340
26.76000 385.713
26.80000 392.414
26.84000 386.227
26.88000 398.180
26.92000 387.854
26.96000 374.381
27.00000 387.318
27.04000 371.356
27.08000 352.080
27.12000 372.723
27.16000 373.432
27.20000 364.082
27.24000 384.950
27.28000 369.992
27.32000 375.527
27.36000 363.983
27.40000 368.836
27.44000 354.725
27.48000 380.206
27.52000 370.072
27.56000 379.937
27.60000 360.208
27.64000 385.208
27.68000 373.961
27.72000 384.995
27.76000 378.170
27.80000 375.495
27.84000 368.221
27.88000 372.536
27.92000 362.238
27.96000 365.881
28.00000 367.295
28.04000 351.725
28.08000 358.018
28.12000 353.803
28.16000 361.460
28.20000 353.068
28.24000 372.011
28.28000 360.516
28.32000 377.884
28.36000 364.892
28.40000 361.667
28.44000 348.052
28.48000 358.076
28.52000 354.694
28.56000 362.046
28.60000 359.048
28.64000 353.952
28.68000 352.601
28.72000 358.371
28.76000 358.988
28.80000 354.183
28.84000 354.354
28.88000 365.049
28.92000 345.218
28.96000 362.769
29.00000 357.030
29.04000 348.971
29.08000 343.472
29.12000 351.043
29.16000 363.205
29.20000 350.496
29.24000 371.522
29.28000 347.123
29.32000 360.996
29.36000 349.936
29.40000 351.005
29.44000 351.813
29.48000 347.357
29.52000 356.953
29.56000 352.642
29.60000 364.883
29.64000 355.518
29.68000 355.890
29.72000 363.064
29.76000 337.416
29.80000 351.689
29.84000 356.125
29.88000 367.766
29.92000 367.090
29.96000 373.334
30.00000 373.933
30.04000 382.475
30.08000 386.180
30.12000 378.848
30.16000 397.717
30.20000 361.685
30.24000 366.470
30.28000 360.335
30.32000 382.821
30.36000 363.223
30.40000 376.261
30.44000 376.253
30.48000 359.069
30.52000 364.047
30.56000 386.156
30.60000 351.045
30.64000 362.630
30.68000 384.783
30.72000 367.288
30.76000 378.596
30.80000 380.199
30.84000 387.962
30.88000 412.808
30.92000 392.395
30.96000 438.303
31.00000 453.532
31.04000 485.327
31.08000 511.484
31.12000 566.781
31.16000 661.813
31.20000 765.032
31.24000 864.506
31.28000 1027.404
31.32000 1154.654
31.36000 1224.420
31.40000 1275.653
31.44000 1262.460
31.48000 1191.730
31.52000 1044.436
31.56000 921.021
31.60000 804.403
31.64000 692.358
31.68000 578.532
31.72000 518.485
31.76000 480.028
31.80000 423.606
31.84000 393.252
31.88000 382.900
31.92000 375.150
31.96000 352.127
32.00000 351.244
32.04000 345.698
32.08000 344.648
32.12000 350.267
32.16000 348.163
32.20000 343.602
32.24000 340.828
32.28000 328.632
32.32000 319.448
32.36000 341.500
32.40000 337.041
32.44000 324.835
32.48000 325.693
32.52000 319.367
32.56000 318.415
32.60000 321.497
32.64000 314.565
32.68000 311.093
32.72000 324.032
32.76000 302.041
32.80000 337.828
32.84000 325.983
32.88000 329.875
32.92000 338.002
32.96000 326.226
33.00000 295.858
33.04000 318.252
33.08000 307.678
33.12000 311.309
33.16000 302.445
33.20000 296.337
33.24000 305.892
33.28000 312.330
33.32000 297.870
33.36000 317.697
33.40000 285.272
33.44000 293.783
33.48000 296.740
33.52000 301.233
33.56000 300.483
33.60000 304.368
33.64000 282.023
33.68000 293.162
33.72000 288.874
33.76000 293.749
33.80000 308.780
33.84000 296.537
33.88000 297.521
33.92000 309.884
33.96000 296.766
34.00000 300.863
34.04000 326.012
34.08000 328.961
34.12000 325.525
34.16000 328.602
34.20000 339.394
34.24000 334.585
34.28000 361.097
34.32000 334.772
34.36000 336.175
34.40000 352.580
34.44000 340.914
34.48000 345.801
34.52000 356.753
34.56000 345.880
34.60000 327.480
34.64000 311.400
34.68000 317.533
34.72000 306.434
34.76000 305.183
34.80000 300.231
34.84000 291.947
34.88000 283.611
34.92000 271.311
34.96000 275.872
35.00000 286.797
35.04000 272.027
35.08000 284.426
35.12000 278.622
35.16000 280.199
35.20000 272.730
35.24000 269.358
35.28000 262.301
35.32000 274.183
35.36000 282.500
35.40000 255.336
35.44000 267.667
35.48000 279.802
35.52000 259.647
35.56000 260.121
35.60000 268.332
35.64000 260.759
35.68000 261.663
35.72000 262.119
35.76000 250.542
35.80000 272.380
35.84000 270.825
35.88000 272.687
35.92000 255.039
35.96000 263.663
36.00000 270.209
36.04000 264.189
36.08000 250.996
36.12000 256.194
36.16000 264.803
36.20000 269.984
36.24000 253.140
36.28000 263.104
36.32000 253.543
36.36000 252.092
36.40000 261.425
36.44000 255.709
36.48000 244.201
36.52000 261.142
36.56000 255.456
36.60000 261.001
36.64000 265.439
36.68000 273.574
36.72000 252.033
36.76000 262.115
36.80000 259.596
36.84000 248.205
36.88000 268.834
36.92000 291.606
36.96000 276.438
37.00000 272.195
37.04000 279.089
37.08000 274.264
37.12000 266.012
37.16000 264.977
37.20000 268.003
37.24000 287.736
37.28000 261.831
37.32000 263.935
37.36000 257.402
37.40000 249.495
37.44000 255.934
37.48000 247.878
37.52000 248.796
37.56000 260.936
37.60000 257.609
37.64000 244.073
37.68000 256.333
37.72000 236.747
37.76000 246.232
37.80000 268.441
37.84000 252.544
37.88000 253.545
37.92000 244.844
37.96000 252.981
38.00000 244.526
38.04000 260.956
38.08000 262.154
38.12000 258.604
38.16000 271.904
38.20000 268.524
38.24000 269.019
38.28000 274.851
38.32000 283.047
38.36000 302.577
38.40000 318.892
38.44000 366.059
38.48000 416.528
38.52000 483.955
38.56000 577.426
38.60000 685.891
38.64000 808.297
38.68000 909.434
38.72000 945.291
38.76000 924.946
38.80000 910.215
38.84000 792.365
38.88000 669.031
38.92000 573.633
38.96000 455.654
39.00000 370.028
39.04000 329.313
39.08000 287.651
39.12000 277.053
39.16000 251.407
39.20000 234.126
39.24000 257.307
39.28000 250.535
39.32000 239.031
39.36000 232.121
39.40000 247.876
39.44000 238.393
39.48000 230.441
39.52000 238.185
39.56000 218.660
39.60000 231.683
39.64000 227.805
39.68000 226.209
39.72000 234.590
39.76000 221.983
39.80000 243.874
39.84000 241.226
39.88000 216.952
39.92000 234.617
39.96000 224.563
40.00000 228.049
40.04000 232.662
40.08000 244.299
40.12000 225.926
40.16000 233.963
40.20000 232.450
40.24000 230.242
40.28000 235.771
40.32000 225.381
40.36000 221.488
40.40000 206.041
40.44000 219.242
40.48000 218.358
40.52000 222.128
40.56000 203.851
40.60000 214.404
40.64000 210.966
40.68000 213.574
40.72000 209.070
40.76000 231.380
40.80000 222.506
40.84000 213.505
40.88000 220.045
40.92000 220.886
40.96000 218.188
41.00000 219.064
41.04000 214.414
41.08000 207.361
41.12000 218.391
41.16000 214.016
41.20000 200.648
41.24000 203.965
41.28000 197.783
41.32000 211.038
41.36000 222.552
41.40000 220.027
41.44000 212.622
41.48000 212.543
41.52000 204.698
41.56000 215.475
41.60000 195.156
41.64000 215.947
41.68000 206.186
41.72000 207.337
41.76000 206.531
41.80000 211.168
41.84000 208.245
41.88000 213.069
41.92000 224.648
41.96000 211.846
42.00000 215.543
42.04000 210.212
42.08000 215.990
42.12000 210.025
42.16000 221.573
42.20000 219.621
42.24000 217.268
42.28000 212.951
42.32000 211.922
42.36000 216.006
42.40000 210.261
42.44000 211.436
42.48000 218.228
42.52000 213.125
42.56000 209.602
42.60000 207.463
42.64000 203.840
42.68000 202.668
42.72000 220.021
42.76000 213.439
42.80000 208.411
42.84000 200.727
42.88000 203.446
42.92000 192.647
42.96000 214.830
43.00000 193.021
43.04000 196.003
43.08000 191.734
43.12000 203.875
43.16000 185.112
43.20000 202.806
43.24000 196.153
43.28000 195.808
43.32000 190.074
43.36000 198.329
43.40000 180.571
43.44000 191.733
43.48000 201.943
43.52000 197.599
43.56000 202.882
43.60000 202.666
43.64000 187.223
43.68000 197.230
43.72000 188.805
43.76000 198.882
43.80000 200.555
43.84000 178.064
43.88000 193.614
43.92000 194.113
43.96000 192.051
44.00000 191.578
44.04000 192.723
44.08000 190.283
44.12000 188.963
44.16000 181.780
44.20000 190.104
44.24000 185.633
44.28000 194.212
44.32000 207.852
44.36000 196.005
44.40000 202.380
44.44000 196.644
44.48000 207.182
44.52000 205.905
44.56000 214.962
44.60000 212.977
44.64000 198.494
44.68000 225.119
44.72000 211.746
44.76000 227.903
44.80000 220.684
44.84000 226.687
44.88000 219.515
44.92000 219.748
44.96000 227.160
45.00000 240.730
45.04000 229.292
45.08000 237.035
45.12000 232.548
45.16000 232.698
45.20000 235.388
45.24000 218.148
45.28000 234.391
45.32000 224.830
45.36000 227.729
45.40000 227.050
45.44000 209.983
45.48000 213.353
45.52000 201.266
45.56000 200.934
45.60000 204.675
45.64000 205.584
45.68000 197.896
45.72000 198.452
45.76000 184.486
45.80000 193.114
45.84000 193.882
45.88000 176.296
45.92000 187.015
45.96000 180.205
46.00000 187.522
46.04000 182.117
46.08000 178.741
46.12000 171.984
46.16000 184.583
46.20000 177.163
46.24000 187.356
46.28000 180.943
46.32000 178.097
46.36000 171.136
46.40000 176.198
46.44000 174.307
46.48000 172.731
46.52000 187.276
46.56000 176.901
46.60000 168.677
46.64000 175.329
46.68000 175.968
46.72000 173.327
46.76000 177.358
46.80000 173.428
46.84000 168.528
46.88000 175.047
46.92000 168.438
46.96000 173.835
47.00000 174.729
47.04000 172.750
47.08000 159.462
47.12000 160.137
47.16000 171.997
47.20000 167.017
47.24000 175.718
47.28000 165.853
47.32000 154.903
47.36000 172.615
47.40000 161.510
47.44000 173.172
47.48000 158.664
47.52000 169.451
47.56000 162.321
47.60000 164.993
47.64000 155.226
47.68000 159.885
47.72000 171.482
47.76000 162.754
47.80000 164.617
47.84000 162.343
47.88000 159.746
47.92000 158.225
47.96000 158.731
48.00000 161.170
48.04000 164.030
48.08000 154.734
48.12000 151.043
48.16000 172.944
48.20000 164.078
48.24000 162.698
48.28000 154.004
48.32000 153.384
48.36000 156.715
48.40000 160.501
48.44000 160.894
48.48000 157.873
48.52000 169.611
48.56000 166.123
48.60000 148.824
48.64000 161.466
48.68000 159.487
48.72000 163.538
48.76000 162.193
48.80000 156.508
48.84000 158.697
48.88000 136.035
48.92000 157.145
48.96000 143.900
49.00000 158.720
49.04000 160.196
49.08000 158.510
49.12000 166.302
49.16000 146.887
49.20000 149.457
49.24000 164.785
49.28000 156.366
49.32000 146.428
49.36000 149.037
49.40000 149.988
49.44000 141.384
49.48000 154.590
49.52000 147.597
49.56000 151.924
49.60000 142.411
49.64000 152.410
49.68000 148.260
49.72000 148.379
49.76000 154.137
49.80000 153.559
49.84000 141.817
49.88000 154.003
49.92000 163.458
49.96000 149.963
50.00000 156.144
50.04000 151.427
50.08000 144.964
50.12000 140.802
50.16000 155.850
50.20000 154.240
50.24000 134.144
50.28000 147.187
50.32000 148.315
50.36000 154.984
50.40000 154.271
50.44000 163.119
50.48000 140.775
50.52000 160.139
50.56000 152.017
50.60000 164.754
50.64000 154.142
50.68000 160.725
50.72000 155.740
50.76000 162.970
50.80000 160.140
50.84000 163.385
50.88000 154.866
50.92000 157.702
50.96000 147.235
51.00000 152.650
51.04000 145.739
51.08000 161.507
51.12000 147.265
51.16000 153.771
51.20000 135.121
51.24000 141.650
51.28000 147.701
51.32000 142.190
51.36000 152.297
51.40000 156.420
51.44000 145.614
51.48000 136.750
51.52000 149.126
51.56000 144.414
51.60000 149.317
51.64000 140.317
51.68000 156.874
51.72000 143.821
51.76000 142.404
51.80000 136.162
51.84000 146.925
51.88000 149.503
51.92000 148.583
51.96000 143.931
52.00000 145.293
52.04000 140.851
52.08000 142.226
52.12000 137.790
52.16000 142.141
52.20000 136.924
52.24000 136.761
52.28000 134.031
52.32000 136.204
52.36000 136.790
52.40000 145.073
52.44000 153.228
52.48000 139.868
52.52000 135.969
52.56000 138.300
52.60000 136.371
52.64000 140.549
52.68000 131.400
52.72000 140.157
52.76000 137.073
52.80000 141.438
52.84000 140.876
52.88000 141.605
52.92000 144.903
52.96000 136.293
53.00000 133.337
53.04000 150.348
53.08000 142.355
53.12000 149.600
53.16000 150.484
53.20000 146.065
53.24000 151.531
53.28000 154.731
53.32000 159.510
53.36000 151.126
53.40000 158.331
53.44000 159.542
53.48000 152.796
53.52000 145.751
53.56000 142.033
53.60000 144.606
53.64000 149.159
53.68000 156.554
53.72000 155.339
53.76000 148.487
53.80000 146.070
53.84000 149.307
53.88000 154.879
53.92000 147.236
53.96000 143.713
54.00000 147.565
54.04000 143.822
54.08000 147.976
54.12000 145.306
54.16000 135.306
54.20000 142.210
54.24000 126.676
54.28000 141.427
54.32000 142.287
54.36000 139.120
54.40000 136.669
54.44000 137.030
54.48000 143.915
54.52000 152.693
54.56000 137.739
54.60000 143.281
54.64000 134.296
54.68000 134.744
54.72000 130.709
54.76000 142.348
54.80000 143.134
54.84000 148.196
54.88000 143.127
54.92000 146.788
54.96000 149.733
55.00000 146.864
55.04000 141.679
55.08000 150.011
55.12000 148.782
55.16000 149.710
55.20000 145.665
55.24000 148.113
55.28000 153.241
55.32000 155.844
55.36000 163.640
55.40000 170.952
55.44000 184.150
55.48000 180.201
55.52000 210.178
55.56000 207.598
55.60000 225.797
55.64000 257.464
55.68000 307.148
55.72000 339.220
55.76000 364.639
55.80000 419.762
55.84000 459.946
55.88000 502.910
55.92000 533.742
55.96000 536.589
56.00000 562.815
56.04000 533.859
56.08000 490.247
56.12000 452.200
56.16000 396.713
56.20000 348.040
56.24000 319.114
56.28000 259.927
56.32000 239.107
56.36000 204.851
56.40000 187.585
56.44000 175.303
56.48000 169.909
56.52000 156.025
56.56000 160.282
56.60000 143.548
56.64000 150.667
56.68000 140.837
56.72000 140.300
56.76000 139.828
56.80000 130.700
56.84000 129.766
56.88000 136.431
56.92000 143.549
56.96000 126.456
57.00000 138.852
57.04000 131.605
57.08000 136.124
57.12000 137.512
57.16000 125.200
57.20000 118.035
57.24000 131.150
57.28000 118.113
57.32000 127.199
57.36000 122.699
57.40000 132.263
57.44000 125.463
57.48000 124.208
57.52000 129.640
57.56000 130.382
57.60000 121.536
57.64000 123.422
57.68000 129.135
57.72000 128.912
57.76000 124.816
57.80000 125.138
57.84000 137.899
57.88000 125.898
57.92000 114.584
57.96000 129.067
58.00000 126.302
58.04000 118.735
58.08000 124.428
58.12000 117.350
58.16000 120.164
58.20000 117.965
58.24000 119.137
58.28000 123.481
58.32000 121.258
58.36000 125.269
58.40000 129.664
58.44000 124.105
58.48000 124.773
58.52000 123.975
58.56000 118.391
58.60000 121.590
58.64000 119.541
58.68000 117.453
58.72000 124.681
58.76000 119.591
58.80000 126.376
58.84000 121.321
58.88000 106.218
58.92000 109.526
58.96000 114.590
59.00000 116.263
59.04000 129.249
59.08000 119.955
59.12000 124.387
59.16000 122.753
59.20000 120.590
59.24000 115.561
59.28000 119.813
59.32000 121.673
59.36000 112.552
59.40000 108.293
59.44000 111.444
59.48000 120.478
59.52000 120.635
59.56000 124.818
59.60000 119.144
59.64000 116.329
59.68000 111.561
59.72000 115.734
59.76000 112.037
59.80000 126.114
59.84000 106.862
59.88000 113.648
59.92000 127.496
59.96000 115.389
60.00000 122.289
60.04000 118.970
60.08000 115.317
60.12000 119.617
60.16000 118.320
60.20000 119.418
60.24000 119.268
60.28000 116.586
60.32000 108.512
60.36000 115.412
60.40000 120.898
60.44000 107.970
60.48000 117.964
60.52000 122.192
60.56000 115.784
60.60000 115.447
60.64000 110.628
60.68000 116.943
60.72000 119.787
60.76000 109.119
60.80000 118.308
60.84000 115.143
60.88000 117.746
60.92000 121.210
60.96000 117.013
61.00000 121.918
61.04000 127.194
61.08000 120.193
61.12000 117.285
61.16000 122.386
61.20000 127.908
61.24000 134.119
61.28000 125.238
61.32000 125.361
61.36000 123.339
61.40000 118.312
61.44000 131.367
61.48000 129.229
61.52000 152.556
61.56000 195.253
61.60000 240.167
61.64000 278.725
61.68000 280.484
61.72000 284.315
61.76000 285.874
61.80000 241.602
61.84000 174.771
61.88000 143.478
61.92000 138.612
61.96000 127.913
62.00000 134.850
62.04000 132.821
62.08000 134.423
62.12000 131.082
62.16000 132.494
62.20000 135.997
62.24000 126.465
62.28000 130.054
62.32000 124.136
62.36000 132.800
62.40000 125.422
62.44000 117.144
62.48000 116.409
62.52000 138.078
62.56000 135.995
62.60000 122.515
62.64000 132.576
62.68000 127.720
62.72000 141.534
62.76000 130.200
62.80000 133.999
62.84000 133.740
62.88000 137.074
62.92000 126.530
62.96000 139.820
63.00000 123.413
63.04000 129.306
63.08000 129.773
63.12000 131.404
63.16000 126.652
63.20000 132.911
63.24000 142.867
63.28000 120.290
63.32000 132.746
63.36000 132.466
63.40000 135.047
63.44000 137.549
63.48000 143.603
63.52000 130.457
63.56000 143.688
63.60000 128.605
63.64000 136.697
63.68000 128.778
63.72000 138.174
63.76000 130.821
63.80000 143.266
63.84000 141.900
63.88000 145.172
63.92000 147.151
63.96000 136.806
64.00000 136.563
64.04000 149.156
64.08000 153.329
64.12000 144.888
64.16000 140.072
64.20000 144.690
64.24000 149.466
64.28000 148.560
64.32000 156.070
64.36000 153.176
64.40000 153.148
64.44000 152.527
64.48000 152.411
64.52000 165.673
64.56000 164.233
64.60000 162.677
64.64000 167.168
64.68000 161.486
64.72000 170.992
64.76000 169.384
64.80000 173.840
64.84000 175.129
64.88000 178.038
64.92000 173.118
64.96000 188.374
65.00000 179.644
65.04000 201.008
65.08000 206.798
65.12000 202.251
65.16000 199.290
65.20000 209.673
65.24000 218.037
65.28000 228.554
65.32000 225.317
65.36000 248.089
65.40000 279.280
65.44000 258.354
65.48000 293.889
65.52000 312.322
65.56000 322.038
65.60000 355.595
65.64000 398.499
65.68000 519.043
65.72000 801.696
65.76000 1239.671
65.80000 1678.297
65.84000 1869.351
65.88000 1886.918
65.92000 1826.367
65.96000 1572.360
66.00000 1104.083
66.04000 696.210
66.08000 493.177
66.12000 405.808
66.16000 376.523
66.20000 356.740
66.24000 372.204
66.28000 420.119
66.32000 516.837
66.36000 574.634
66.40000 613.802
66.44000 608.887
66.48000 596.216
66.52000 536.718
66.56000 426.845
66.60000 403.664
66.64000 367.688
66.68000 335.314
66.72000 349.780
66.76000 329.221
66.80000 345.404
66.84000 348.113
66.88000 342.887
66.92000 353.656
66.96000 355.083
67.00000 365.597
67.04000 364.984
67.08000 386.733
67.12000 367.808
67.16000 367.374
67.20000 396.661
67.24000 366.591
67.28000 377.833
67.32000 400.513
67.36000 412.752
67.40000 419.293
67.44000 411.897
67.48000 400.423
67.52000 412.746
67.56000 415.038
67.60000 421.681
67.64000 429.730
67.68000 421.811
67.72000 422.178
67.76000 449.234
67.80000 460.562
67.84000 472.315
67.88000 473.604
67.92000 487.638
67.96000 470.996
68.00000 481.520
68.04000 492.733
68.08000 523.063
68.12000 528.685
68.16000 523.519
68.20000 532.286
68.24000 561.926
68.28000 568.382
68.32000 580.971
68.36000 598.234
68.40000 609.270
68.44000 630.293
68.48000 663.208
68.52000 674.628
68.56000 749.603
68.60000 800.915
68.64000 910.273
68.68000 1079.826
68.72000 1204.633
68.76000 1394.120
68.80000 1575.143
68.84000 1765.431
68.88000 2106.077
68.92000 3066.242
68.96000 6978.867
69.00000 17606.512
69.04000 30573.645
69.08000 38629.246
69.12000 41779.320
69.16000 44594.043
69.20000 45616.227
69.24000 38273.340
69.28000 27927.305
69.32000 22374.152
69.36000 20777.465
69.40000 18227.645
69.44000 11955.126
69.48000 5643.761
69.52000 2528.818
69.56000 1405.925
69.60000 1070.339
69.64000 903.636
69.68000 787.835
69.72000 725.708
69.76000 665.360
69.80000 654.826
69.84000 595.923
69.88000 567.310
69.92000 536.154
69.96000 529.470
70.00000 509.154