File: XRD/08-10-2025 Dep 7/XY Data/BTO_Mapping_Theta2Theta_08-10-2025_001_53_12-361_-38-042.xy
20.00000 473.326
20.04000 480.275
20.08000 490.215
20.12000 500.488
20.16000 474.661
20.20000 480.316
20.24000 474.772
20.28000 466.942
20.32000 491.054
20.36000 475.367
20.40000 459.504
20.44000 467.549
20.48000 464.000
20.52000 483.966
20.56000 485.867
20.60000 472.558
20.64000 472.618
20.68000 464.330
20.72000 477.964
20.76000 456.453
20.80000 469.978
20.84000 460.402
20.88000 478.923
20.92000 479.926
20.96000 463.820
21.00000 452.742
21.04000 464.702
21.08000 454.948
21.12000 449.883
21.16000 474.566
21.20000 471.333
21.24000 457.550
21.28000 456.949
21.32000 456.789
21.36000 455.103
21.40000 470.448
21.44000 457.697
21.48000 475.905
21.52000 475.267
21.56000 473.215
21.60000 471.506
21.64000 476.090
21.68000 476.201
21.72000 473.516
21.76000 506.788
21.80000 477.935
21.84000 484.666
21.88000 478.757
21.92000 519.536
21.96000 508.773
22.00000 534.471
22.04000 539.589
22.08000 525.043
22.12000 533.727
22.16000 513.246
22.20000 490.738
22.24000 489.700
22.28000 499.656
22.32000 487.214
22.36000 478.566
22.40000 469.694
22.44000 475.353
22.48000 473.397
22.52000 465.624
22.56000 462.642
22.60000 425.192
22.64000 457.228
22.68000 433.121
22.72000 450.925
22.76000 462.335
22.80000 457.723
22.84000 451.347
22.88000 441.891
22.92000 439.998
22.96000 446.058
23.00000 446.372
23.04000 443.376
23.08000 436.446
23.12000 434.528
23.16000 444.145
23.20000 436.498
23.24000 444.990
23.28000 456.995
23.32000 452.230
23.36000 430.473
23.40000 433.583
23.44000 427.960
23.48000 443.957
23.52000 453.723
23.56000 437.476
23.60000 450.749
23.64000 463.889
23.68000 453.297
23.72000 482.555
23.76000 491.913
23.80000 499.430
23.84000 499.981
23.88000 527.762
23.92000 522.513
23.96000 550.429
24.00000 537.847
24.04000 525.339
24.08000 520.152
24.12000 518.582
24.16000 490.577
24.20000 484.663
24.24000 464.335
24.28000 455.158
24.32000 443.286
24.36000 430.965
24.40000 426.152
24.44000 425.389
24.48000 430.186
24.52000 438.505
24.56000 423.157
24.60000 405.126
24.64000 408.148
24.68000 425.490
24.72000 407.719
24.76000 396.402
24.80000 421.876
24.84000 395.277
24.88000 414.245
24.92000 407.102
24.96000 420.173
25.00000 417.871
25.04000 393.393
25.08000 410.266
25.12000 413.473
25.16000 416.046
25.20000 408.316
25.24000 397.568
25.28000 416.654
25.32000 410.620
25.36000 388.804
25.40000 396.546
25.44000 396.136
25.48000 403.181
25.52000 396.318
25.56000 400.754
25.60000 391.325
25.64000 399.329
25.68000 401.853
25.72000 386.551
25.76000 395.003
25.80000 386.659
25.84000 401.466
25.88000 396.422
25.92000 400.420
25.96000 391.180
26.00000 383.880
26.04000 388.013
26.08000 388.428
26.12000 390.602
26.16000 399.819
26.20000 387.113
26.24000 387.185
26.28000 395.197
26.32000 389.410
26.36000 399.671
26.40000 388.828
26.44000 394.876
26.48000 383.872
26.52000 383.763
26.56000 378.403
26.60000 401.969
26.64000 393.534
26.68000 380.177
26.72000 389.672
26.76000 363.451
26.80000 383.768
26.84000 386.786
26.88000 380.706
26.92000 380.518
26.96000 375.304
27.00000 375.875
27.04000 364.717
27.08000 378.625
27.12000 398.427
27.16000 371.487
27.20000 376.545
27.24000 381.198
27.28000 372.931
27.32000 370.488
27.36000 382.600
27.40000 380.863
27.44000 359.766
27.48000 369.098
27.52000 366.899
27.56000 355.939
27.60000 372.804
27.64000 386.582
27.68000 375.526
27.72000 382.595
27.76000 358.827
27.80000 390.225
27.84000 359.224
27.88000 381.758
27.92000 366.341
27.96000 365.442
28.00000 372.049
28.04000 361.048
28.08000 373.331
28.12000 385.507
28.16000 365.031
28.20000 354.095
28.24000 382.136
28.28000 358.632
28.32000 379.136
28.36000 370.423
28.40000 368.032
28.44000 353.795
28.48000 363.411
28.52000 355.570
28.56000 367.439
28.60000 365.331
28.64000 364.345
28.68000 360.833
28.72000 360.038
28.76000 350.331
28.80000 342.376
28.84000 361.780
28.88000 347.703
28.92000 358.181
28.96000 351.991
29.00000 349.667
29.04000 375.975
29.08000 346.258
29.12000 358.500
29.16000 363.809
29.20000 355.138
29.24000 350.431
29.28000 363.379
29.32000 362.459
29.36000 360.871
29.40000 361.701
29.44000 352.959
29.48000 362.181
29.52000 351.533
29.56000 352.606
29.60000 356.569
29.64000 356.817
29.68000 368.558
29.72000 361.766
29.76000 365.230
29.80000 359.961
29.84000 351.616
29.88000 384.440
29.92000 382.106
29.96000 396.594
30.00000 383.877
30.04000 386.698
30.08000 395.822
30.12000 383.778
30.16000 382.471
30.20000 385.235
30.24000 379.929
30.28000 350.885
30.32000 358.834
30.36000 364.567
30.40000 380.302
30.44000 362.166
30.48000 377.952
30.52000 370.872
30.56000 365.544
30.60000 359.894
30.64000 385.898
30.68000 385.701
30.72000 403.932
30.76000 376.330
30.80000 385.937
30.84000 393.651
30.88000 412.216
30.92000 419.816
30.96000 454.854
31.00000 506.972
31.04000 522.971
31.08000 588.937
31.12000 651.746
31.16000 811.364
31.20000 927.917
31.24000 999.868
31.28000 1185.068
31.32000 1262.713
31.36000 1317.365
31.40000 1323.427
31.44000 1234.675
31.48000 1121.698
31.52000 975.878
31.56000 838.699
31.60000 723.669
31.64000 579.921
31.68000 518.176
31.72000 450.225
31.76000 415.674
31.80000 412.329
31.84000 376.026
31.88000 377.030
31.92000 374.969
31.96000 374.792
32.00000 365.563
32.04000 343.052
32.08000 346.827
32.12000 348.283
32.16000 331.211
32.20000 349.408
32.24000 337.978
32.28000 338.435
32.32000 327.425
32.36000 350.089
32.40000 345.924
32.44000 331.336
32.48000 323.472
32.52000 321.680
32.56000 328.909
32.60000 324.053
32.64000 329.766
32.68000 340.201
32.72000 308.936
32.76000 332.184
32.80000 336.723
32.84000 328.104
32.88000 312.713
32.92000 321.942
32.96000 316.905
33.00000 303.760
33.04000 320.713
33.08000 322.294
33.12000 302.852
33.16000 309.801
33.20000 287.923
33.24000 299.939
33.28000 290.163
33.32000 330.747
33.36000 293.629
33.40000 306.140
33.44000 299.551
33.48000 305.020
33.52000 294.929
33.56000 309.268
33.60000 300.186
33.64000 311.830
33.68000 311.828
33.72000 299.527
33.76000 299.397
33.80000 299.215
33.84000 306.439
33.88000 318.042
33.92000 327.528
33.96000 306.255
34.00000 316.528
34.04000 325.796
34.08000 336.682
34.12000 332.370
34.16000 335.071
34.20000 344.670
34.24000 345.935
34.28000 350.916
34.32000 343.467
34.36000 355.924
34.40000 356.262
34.44000 355.533
34.48000 334.884
34.52000 331.770
34.56000 322.098
34.60000 323.281
34.64000 304.687
34.68000 314.500
34.72000 301.224
34.76000 305.331
34.80000 298.601
34.84000 289.112
34.88000 300.305
34.92000 283.427
34.96000 291.334
35.00000 278.028
35.04000 274.705
35.08000 282.662
35.12000 278.146
35.16000 278.104
35.20000 268.244
35.24000 276.209
35.28000 267.333
35.32000 272.662
35.36000 278.952
35.40000 284.648
35.44000 260.566
35.48000 265.750
35.52000 257.145
35.56000 249.399
35.60000 262.802
35.64000 261.908
35.68000 249.590
35.72000 253.656
35.76000 252.525
35.80000 253.384
35.84000 273.940
35.88000 271.046
35.92000 261.126
35.96000 253.094
36.00000 262.956
36.04000 256.835
36.08000 261.903
36.12000 254.990
36.16000 262.855
36.20000 255.849
36.24000 266.481
36.28000 271.542
36.32000 269.933
36.36000 252.212
36.40000 257.927
36.44000 252.319
36.48000 268.497
36.52000 254.998
36.56000 254.725
36.60000 261.208
36.64000 257.006
36.68000 260.900
36.72000 250.595
36.76000 279.526
36.80000 277.797
36.84000 277.589
36.88000 276.170
36.92000 288.104
36.96000 263.999
37.00000 293.367
37.04000 263.575
37.08000 286.516
37.12000 276.640
37.16000 264.197
37.20000 269.918
37.24000 271.793
37.28000 257.493
37.32000 256.016
37.36000 270.686
37.40000 263.459
37.44000 265.609
37.48000 259.790
37.52000 253.921
37.56000 265.199
37.60000 251.684
37.64000 252.546
37.68000 249.906
37.72000 265.255
37.76000 250.660
37.80000 260.672
37.84000 247.434
37.88000 246.613
37.92000 259.218
37.96000 249.876
38.00000 261.693
38.04000 277.133
38.08000 273.162
38.12000 264.486
38.16000 268.630
38.20000 269.571
38.24000 287.437
38.28000 290.145
38.32000 312.461
38.36000 346.848
38.40000 367.780
38.44000 453.940
38.48000 531.141
38.52000 647.707
38.56000 753.824
38.60000 897.019
38.64000 1017.941
38.68000 1058.367
38.72000 1067.450
38.76000 1031.064
38.80000 910.287
38.84000 821.379
38.88000 690.423
38.92000 543.437
38.96000 451.092
39.00000 385.134
39.04000 324.069
39.08000 288.360
39.12000 267.117
39.16000 265.263
39.20000 241.857
39.24000 243.391
39.28000 248.846
39.32000 243.634
39.36000 234.236
39.40000 242.369
39.44000 228.489
39.48000 230.286
39.52000 235.936
39.56000 229.817
39.60000 223.938
39.64000 243.087
39.68000 232.148
39.72000 228.168
39.76000 246.140
39.80000 239.932
39.84000 231.447
39.88000 233.121
39.92000 236.016
39.96000 235.198
40.00000 233.250
40.04000 227.782
40.08000 223.237
40.12000 230.717
40.16000 220.345
40.20000 229.101
40.24000 213.169
40.28000 220.533
40.32000 229.042
40.36000 234.319
40.40000 220.446
40.44000 211.850
40.48000 231.263
40.52000 218.667
40.56000 213.277
40.60000 217.272
40.64000 214.395
40.68000 217.503
40.72000 222.320
40.76000 222.823
40.80000 199.908
40.84000 219.322
40.88000 222.145
40.92000 211.326
40.96000 217.831
41.00000 214.215
41.04000 215.787
41.08000 215.832
41.12000 223.703
41.16000 212.681
41.20000 211.038
41.24000 213.519
41.28000 225.202
41.32000 204.890
41.36000 221.138
41.40000 217.436
41.44000 195.639
41.48000 215.082
41.52000 203.299
41.56000 206.583
41.60000 217.810
41.64000 205.835
41.68000 213.913
41.72000 216.715
41.76000 221.548
41.80000 217.845
41.84000 214.815
41.88000 215.528
41.92000 229.107
41.96000 222.766
42.00000 213.765
42.04000 213.293
42.08000 216.559
42.12000 209.519
42.16000 221.943
42.20000 214.487
42.24000 216.953
42.28000 218.373
42.32000 218.600
42.36000 217.198
42.40000 231.921
42.44000 222.356
42.48000 226.186
42.52000 217.570
42.56000 209.893
42.60000 220.428
42.64000 216.626
42.68000 218.448
42.72000 202.625
42.76000 206.907
42.80000 216.467
42.84000 204.358
42.88000 207.660
42.92000 194.214
42.96000 197.419
43.00000 206.661
43.04000 201.661
43.08000 207.604
43.12000 198.224
43.16000 202.982
43.20000 200.831
43.24000 197.950
43.28000 200.420
43.32000 198.159
43.36000 208.649
43.40000 193.879
43.44000 195.970
43.48000 194.815
43.52000 203.613
43.56000 195.411
43.60000 191.255
43.64000 199.485
43.68000 198.664
43.72000 195.410
43.76000 189.082
43.80000 203.495
43.84000 195.299
43.88000 209.608
43.92000 194.880
43.96000 198.212
44.00000 205.391
44.04000 194.150
44.08000 195.256
44.12000 198.652
44.16000 193.530
44.20000 185.977
44.24000 201.606
44.28000 195.726
44.32000 191.635
44.36000 194.340
44.40000 199.216
44.44000 221.265
44.48000 208.005
44.52000 207.550
44.56000 219.940
44.60000 223.068
44.64000 212.474
44.68000 228.381
44.72000 233.924
44.76000 229.615
44.80000 220.557
44.84000 236.796
44.88000 232.900
44.92000 247.297
44.96000 253.688
45.00000 233.602
45.04000 245.223
45.08000 251.293
45.12000 260.414
45.16000 253.205
45.20000 241.569
45.24000 245.036
45.28000 234.249
45.32000 215.858
45.36000 211.210
45.40000 216.775
45.44000 222.217
45.48000 216.056
45.52000 218.105
45.56000 215.567
45.60000 214.132
45.64000 195.609
45.68000 205.647
45.72000 197.272
45.76000 186.016
45.80000 194.395
45.84000 182.597
45.88000 198.905
45.92000 188.846
45.96000 183.157
46.00000 178.380
46.04000 183.156
46.08000 173.451
46.12000 173.109
46.16000 187.287
46.20000 167.524
46.24000 177.064
46.28000 192.439
46.32000 179.851
46.36000 170.265
46.40000 169.106
46.44000 175.403
46.48000 173.950
46.52000 174.692
46.56000 186.341
46.60000 175.897
46.64000 188.010
46.68000 179.093
46.72000 183.426
46.76000 180.019
46.80000 173.677
46.84000 184.206
46.88000 178.739
46.92000 170.545
46.96000 170.234
47.00000 164.126
47.04000 180.859
47.08000 168.177
47.12000 171.200
47.16000 171.070
47.20000 166.651
47.24000 153.109
47.28000 165.278
47.32000 167.053
47.36000 172.520
47.40000 161.731
47.44000 169.199
47.48000 165.215
47.52000 161.955
47.56000 159.972
47.60000 161.214
47.64000 162.186
47.68000 172.672
47.72000 151.980
47.76000 168.071
47.80000 165.684
47.84000 175.342
47.88000 160.926
47.92000 172.156
47.96000 153.894
48.00000 156.222
48.04000 174.602
48.08000 154.690
48.12000 155.805
48.16000 145.319
48.20000 160.949
48.24000 158.518
48.28000 163.992
48.32000 159.468
48.36000 152.434
48.40000 161.870
48.44000 159.358
48.48000 166.140
48.52000 154.605
48.56000 158.567
48.60000 167.814
48.64000 160.150
48.68000 153.157
48.72000 146.985
48.76000 151.041
48.80000 150.577
48.84000 165.968
48.88000 145.047
48.92000 160.147
48.96000 158.431
49.00000 149.843
49.04000 158.416
49.08000 155.603
49.12000 156.790
49.16000 155.557
49.20000 153.843
49.24000 154.742
49.28000 152.460
49.32000 157.004
49.36000 158.429
49.40000 159.385
49.44000 151.835
49.48000 161.581
49.52000 159.626
49.56000 146.322
49.60000 163.494
49.64000 144.961
49.68000 155.428
49.72000 156.315
49.76000 158.102
49.80000 152.898
49.84000 151.620
49.88000 152.818
49.92000 166.342
49.96000 160.545
50.00000 151.343
50.04000 158.467
50.08000 155.873
50.12000 147.792
50.16000 155.458
50.20000 151.235
50.24000 148.328
50.28000 155.428
50.32000 157.740
50.36000 157.400
50.40000 151.386
50.44000 164.166
50.48000 168.433
50.52000 165.377
50.56000 157.586
50.60000 170.306
50.64000 162.754
50.68000 159.905
50.72000 163.267
50.76000 168.475
50.80000 158.002
50.84000 153.756
50.88000 146.834
50.92000 148.546
50.96000 156.978
51.00000 151.900
51.04000 143.716
51.08000 153.886
51.12000 152.620
51.16000 159.649
51.20000 150.478
51.24000 152.061
51.28000 142.861
51.32000 148.741
51.36000 149.094
51.40000 150.572
51.44000 147.603
51.48000 148.058
51.52000 132.627
51.56000 150.679
51.60000 142.178
51.64000 145.906
51.68000 149.340
51.72000 140.970
51.76000 142.668
51.80000 145.957
51.84000 142.197
51.88000 143.326
51.92000 139.528
51.96000 148.024
52.00000 141.495
52.04000 150.479
52.08000 143.723
52.12000 137.150
52.16000 146.385
52.20000 146.863
52.24000 138.759
52.28000 140.810
52.32000 145.417
52.36000 135.985
52.40000 140.058
52.44000 137.373
52.48000 147.284
52.52000 124.653
52.56000 141.113
52.60000 146.800
52.64000 136.010
52.68000 136.056
52.72000 143.489
52.76000 141.900
52.80000 142.334
52.84000 145.636
52.88000 136.267
52.92000 143.436
52.96000 135.079
53.00000 144.599
53.04000 141.589
53.08000 150.680
53.12000 148.517
53.16000 135.345
53.20000 154.000
53.24000 146.302
53.28000 154.018
53.32000 153.397
53.36000 150.155
53.40000 163.919
53.44000 147.182
53.48000 157.440
53.52000 155.136
53.56000 152.277
53.60000 150.671
53.64000 149.050
53.68000 143.465
53.72000 147.011
53.76000 144.012
53.80000 138.795
53.84000 144.970
53.88000 131.651
53.92000 144.209
53.96000 150.593
54.00000 140.314
54.04000 141.883
54.08000 153.936
54.12000 143.936
54.16000 137.542
54.20000 148.083
54.24000 135.639
54.28000 137.151
54.32000 145.319
54.36000 145.259
54.40000 141.899
54.44000 138.655
54.48000 140.044
54.52000 148.721
54.56000 139.855
54.60000 133.070
54.64000 144.283
54.68000 140.865
54.72000 157.881
54.76000 151.515
54.80000 153.003
54.84000 140.055
54.88000 147.102
54.92000 149.417
54.96000 149.082
55.00000 145.710
55.04000 168.197
55.08000 146.740
55.12000 148.251
55.16000 160.901
55.20000 164.733
55.24000 151.991
55.28000 167.972
55.32000 161.372
55.36000 177.090
55.40000 183.567
55.44000 194.914
55.48000 219.665
55.52000 232.944
55.56000 253.520
55.60000 296.225
55.64000 333.636
55.68000 358.564
55.72000 417.997
55.76000 458.295
55.80000 513.153
55.84000 584.631
55.88000 610.935
55.92000 627.346
55.96000 634.027
56.00000 607.908
56.04000 566.114
56.08000 520.566
56.12000 455.750
56.16000 399.823
56.20000 347.157
56.24000 310.776
56.28000 260.638
56.32000 225.953
56.36000 203.284
56.40000 184.687
56.44000 182.377
56.48000 166.820
56.52000 151.532
56.56000 156.106
56.60000 147.492
56.64000 153.831
56.68000 145.755
56.72000 144.410
56.76000 135.450
56.80000 144.677
56.84000 133.061
56.88000 130.054
56.92000 131.879
56.96000 142.805
57.00000 134.424
57.04000 134.870
57.08000 130.397
57.12000 121.941
57.16000 126.889
57.20000 127.110
57.24000 115.896
57.28000 129.673
57.32000 131.516
57.36000 125.205
57.40000 122.600
57.44000 123.308
57.48000 128.119
57.52000 126.734
57.56000 128.471
57.60000 127.812
57.64000 131.577
57.68000 127.392
57.72000 126.558
57.76000 129.609
57.80000 126.910
57.84000 136.141
57.88000 125.992
57.92000 117.079
57.96000 130.341
58.00000 119.440
58.04000 118.478
58.08000 116.379
58.12000 120.376
58.16000 131.285
58.20000 124.736
58.24000 126.666
58.28000 122.451
58.32000 116.176
58.36000 127.604
58.40000 124.013
58.44000 121.380
58.48000 127.795
58.52000 119.202
58.56000 117.703
58.60000 115.972
58.64000 120.275
58.68000 119.591
58.72000 110.101
58.76000 120.250
58.80000 128.563
58.84000 117.287
58.88000 119.868
58.92000 118.690
58.96000 125.128
59.00000 129.471
59.04000 117.730
59.08000 125.731
59.12000 124.154
59.16000 122.259
59.20000 122.151
59.24000 123.879
59.28000 112.440
59.32000 123.968
59.36000 125.307
59.40000 114.203
59.44000 118.250
59.48000 116.960
59.52000 121.510
59.56000 111.874
59.60000 117.649
59.64000 114.596
59.68000 111.882
59.72000 119.977
59.76000 116.424
59.80000 113.557
59.84000 114.753
59.88000 113.776
59.92000 108.103
59.96000 116.905
60.00000 115.752
60.04000 111.792
60.08000 121.717
60.12000 124.390
60.16000 115.535
60.20000 123.943
60.24000 110.898
60.28000 116.128
60.32000 111.886
60.36000 121.664
60.40000 124.822
60.44000 117.999
60.48000 115.424
60.52000 120.088
60.56000 121.999
60.60000 121.081
60.64000 113.619
60.68000 120.970
60.72000 114.635
60.76000 139.141
60.80000 121.096
60.84000 133.941
60.88000 125.965
60.92000 132.576
60.96000 114.832
61.00000 119.830
61.04000 130.252
61.08000 120.827
61.12000 115.202
61.16000 123.055
61.20000 128.128
61.24000 119.822
61.28000 120.785
61.32000 121.510
61.36000 126.767
61.40000 126.566
61.44000 133.247
61.48000 145.988
61.52000 165.862
61.56000 211.582
61.60000 252.929
61.64000 279.164
61.68000 275.333
61.72000 277.740
61.76000 268.643
61.80000 208.827
61.84000 168.511
61.88000 136.832
61.92000 133.946
61.96000 131.831
62.00000 125.288
62.04000 129.109
62.08000 130.368
62.12000 122.537
62.16000 125.588
62.20000 122.027
62.24000 125.476
62.28000 131.970
62.32000 131.779
62.36000 136.764
62.40000 130.249
62.44000 123.465
62.48000 130.309
62.52000 129.051
62.56000 127.259
62.60000 120.495
62.64000 129.641
62.68000 126.729
62.72000 135.259
62.76000 133.790
62.80000 125.503
62.84000 144.363
62.88000 131.964
62.92000 142.402
62.96000 132.803
63.00000 132.802
63.04000 141.422
63.08000 125.275
63.12000 120.966
63.16000 138.700
63.20000 137.883
63.24000 125.577
63.28000 125.532
63.32000 147.692
63.36000 134.765
63.40000 130.718
63.44000 139.581
63.48000 126.932
63.52000 127.283
63.56000 138.741
63.60000 140.699
63.64000 141.213
63.68000 136.201
63.72000 140.054
63.76000 145.781
63.80000 142.047
63.84000 144.322
63.88000 145.484
63.92000 144.503
63.96000 148.822
64.00000 140.866
64.04000 145.325
64.08000 148.134
64.12000 151.905
64.16000 140.998
64.20000 138.858
64.24000 148.059
64.28000 155.087
64.32000 142.046
64.36000 150.924
64.40000 146.273
64.44000 146.452
64.48000 151.430
64.52000 160.533
64.56000 161.316
64.60000 161.352
64.64000 158.156
64.68000 161.438
64.72000 171.134
64.76000 172.348
64.80000 177.518
64.84000 177.817
64.88000 182.947
64.92000 180.264
64.96000 179.120
65.00000 181.831
65.04000 192.217
65.08000 199.859
65.12000 190.851
65.16000 200.028
65.20000 221.189
65.24000 221.845
65.28000 218.727
65.32000 254.221
65.36000 245.812
65.40000 263.093
65.44000 272.116
65.48000 281.567
65.52000 306.845
65.56000 328.203
65.60000 362.983
65.64000 422.183
65.68000 613.057
65.72000 954.590
65.76000 1411.446
65.80000 1712.740
65.84000 1859.062
65.88000 1844.530
65.92000 1689.031
65.96000 1326.370
66.00000 879.243
66.04000 573.138
66.08000 430.933
66.12000 374.348
66.16000 374.253
66.20000 359.864
66.24000 370.008
66.28000 448.306
66.32000 518.794
66.36000 573.171
66.40000 610.859
66.44000 596.966
66.48000 565.202
66.52000 479.848
66.56000 410.883
66.60000 379.188
66.64000 343.869
66.68000 327.636
66.72000 338.775
66.76000 344.854
66.80000 349.083
66.84000 341.774
66.88000 351.342
66.92000 341.989
66.96000 341.414
67.00000 363.327
67.04000 350.148
67.08000 363.946
67.12000 373.800
67.16000 390.078
67.20000 371.033
67.24000 378.012
67.28000 379.561
67.32000 385.707
67.36000 390.980
67.40000 396.723
67.44000 404.019
67.48000 417.189
67.52000 414.766
67.56000 418.941
67.60000 448.805
67.64000 418.773
67.68000 430.752
67.72000 424.247
67.76000 440.986
67.80000 446.781
67.84000 449.829
67.88000 460.142
67.92000 455.299
67.96000 473.936
68.00000 480.416
68.04000 482.282
68.08000 507.006
68.12000 519.024
68.16000 527.598
68.20000 526.060
68.24000 532.903
68.28000 541.555
68.32000 582.784
68.36000 587.687
68.40000 592.356
68.44000 640.426
68.48000 652.950
68.52000 685.337
68.56000 724.698
68.60000 809.195
68.64000 936.246
68.68000 1124.380
68.72000 1259.998
68.76000 1394.650
68.80000 1607.926
68.84000 1824.087
68.88000 2309.819
68.92000 4083.959
68.96000 10331.286
69.00000 22634.523
69.04000 34030.453
69.08000 39159.184
69.12000 41514.961
69.16000 44498.910
69.20000 42089.863
69.24000 32303.521
69.28000 23979.219
69.32000 20727.617
69.36000 19404.332
69.40000 15369.121
69.44000 8479.318
69.48000 3704.579
69.52000 1799.427
69.56000 1204.980
69.60000 986.229
69.64000 869.506
69.68000 751.293
69.72000 706.016
69.76000 622.143
69.80000 608.857
69.84000 575.251
69.88000 526.693
69.92000 532.855
69.96000 514.914
70.00000 508.142