File: XRD/08-10-2025 Dep 7/XY Data/BTO_Mapping_Theta2Theta_08-10-2025_001_44_-15-000_-25-981.xy
20.00000 494.354
20.04000 486.918
20.08000 469.038
20.12000 468.408
20.16000 475.514
20.20000 471.036
20.24000 472.936
20.28000 485.421
20.32000 470.002
20.36000 482.546
20.40000 490.178
20.44000 466.769
20.48000 477.212
20.52000 461.911
20.56000 457.252
20.60000 458.784
20.64000 445.968
20.68000 464.685
20.72000 474.548
20.76000 466.734
20.80000 478.933
20.84000 468.322
20.88000 472.918
20.92000 480.273
20.96000 473.100
21.00000 465.176
21.04000 484.155
21.08000 485.385
21.12000 475.040
21.16000 471.677
21.20000 472.782
21.24000 475.197
21.28000 455.164
21.32000 481.160
21.36000 482.549
21.40000 471.415
21.44000 464.634
21.48000 464.215
21.52000 469.298
21.56000 496.391
21.60000 488.322
21.64000 469.028
21.68000 483.169
21.72000 483.309
21.76000 511.271
21.80000 514.966
21.84000 532.970
21.88000 580.291
21.92000 599.475
21.96000 614.065
22.00000 614.935
22.04000 621.445
22.08000 597.524
22.12000 599.221
22.16000 560.892
22.20000 544.675
22.24000 532.602
22.28000 521.052
22.32000 486.784
22.36000 482.621
22.40000 502.905
22.44000 474.435
22.48000 459.775
22.52000 456.436
22.56000 460.363
22.60000 433.272
22.64000 436.185
22.68000 454.559
22.72000 447.531
22.76000 444.043
22.80000 442.224
22.84000 436.552
22.88000 430.894
22.92000 449.630
22.96000 440.375
23.00000 446.417
23.04000 444.318
23.08000 441.835
23.12000 439.200
23.16000 446.158
23.20000 432.148
23.24000 438.986
23.28000 422.608
23.32000 442.719
23.36000 417.362
23.40000 435.066
23.44000 432.596
23.48000 432.614
23.52000 429.558
23.56000 423.773
23.60000 423.881
23.64000 423.638
23.68000 433.038
23.72000 448.046
23.76000 450.853
23.80000 433.859
23.84000 451.463
23.88000 458.566
23.92000 459.024
23.96000 463.235
24.00000 464.870
24.04000 444.436
24.08000 459.893
24.12000 445.147
24.16000 428.474
24.20000 449.464
24.24000 448.009
24.28000 426.540
24.32000 399.132
24.36000 440.579
24.40000 406.005
24.44000 404.103
24.48000 428.593
24.52000 416.679
24.56000 420.296
24.60000 410.720
24.64000 410.946
24.68000 402.726
24.72000 418.055
24.76000 404.097
24.80000 400.559
24.84000 389.037
24.88000 411.632
24.92000 419.183
24.96000 393.201
25.00000 389.258
25.04000 410.103
25.08000 411.766
25.12000 411.510
25.16000 405.626
25.20000 398.648
25.24000 387.848
25.28000 398.161
25.32000 407.937
25.36000 407.231
25.40000 395.221
25.44000 389.226
25.48000 386.350
25.52000 414.383
25.56000 387.573
25.60000 396.189
25.64000 395.967
25.68000 397.468
25.72000 391.175
25.76000 383.766
25.80000 383.469
25.84000 397.149
25.88000 385.370
25.92000 392.795
25.96000 399.119
26.00000 395.140
26.04000 377.591
26.08000 370.035
26.12000 382.093
26.16000 395.281
26.20000 386.713
26.24000 397.116
26.28000 378.898
26.32000 400.306
26.36000 390.478
26.40000 389.862
26.44000 377.405
26.48000 378.975
26.52000 380.160
26.56000 392.808
26.60000 391.688
26.64000 385.022
26.68000 379.317
26.72000 385.367
26.76000 372.647
26.80000 382.711
26.84000 369.802
26.88000 388.526
26.92000 374.053
26.96000 371.895
27.00000 380.729
27.04000 374.374
27.08000 375.327
27.12000 371.046
27.16000 383.553
27.20000 385.697
27.24000 386.540
27.28000 375.549
27.32000 376.731
27.36000 377.963
27.40000 350.791
27.44000 381.434
27.48000 382.408
27.52000 376.791
27.56000 378.521
27.60000 363.125
27.64000 381.681
27.68000 380.761
27.72000 380.217
27.76000 366.100
27.80000 389.997
27.84000 381.562
27.88000 359.511
27.92000 364.379
27.96000 362.011
28.00000 355.447
28.04000 371.475
28.08000 369.314
28.12000 373.463
28.16000 366.829
28.20000 352.279
28.24000 368.549
28.28000 368.829
28.32000 384.116
28.36000 368.277
28.40000 370.672
28.44000 366.276
28.48000 366.317
28.52000 353.170
28.56000 368.486
28.60000 354.968
28.64000 353.418
28.68000 353.880
28.72000 349.473
28.76000 357.011
28.80000 360.433
28.84000 345.030
28.88000 356.495
28.92000 365.591
28.96000 354.922
29.00000 356.923
29.04000 332.657
29.08000 363.867
29.12000 371.649
29.16000 356.257
29.20000 361.308
29.24000 382.888
29.28000 350.274
29.32000 351.410
29.36000 351.996
29.40000 349.317
29.44000 357.617
29.48000 347.214
29.52000 346.543
29.56000 340.325
29.60000 369.490
29.64000 348.754
29.68000 373.565
29.72000 378.406
29.76000 384.082
29.80000 403.200
29.84000 390.729
29.88000 419.390
29.92000 421.415
29.96000 441.690
30.00000 457.181
30.04000 437.672
30.08000 405.290
30.12000 418.274
30.16000 399.560
30.20000 411.100
30.24000 400.325
30.28000 396.611
30.32000 378.335
30.36000 388.232
30.40000 366.221
30.44000 357.311
30.48000 370.665
30.52000 374.394
30.56000 374.203
30.60000 380.955
30.64000 387.924
30.68000 395.114
30.72000 407.029
30.76000 398.751
30.80000 399.075
30.84000 418.550
30.88000 453.863
30.92000 476.936
30.96000 508.044
31.00000 604.047
31.04000 759.267
31.08000 932.474
31.12000 1129.948
31.16000 1405.612
31.20000 1676.815
31.24000 1883.674
31.28000 2199.053
31.32000 2388.632
31.36000 2393.193
31.40000 2288.701
31.44000 2051.460
31.48000 1699.650
31.52000 1387.325
31.56000 1129.454
31.60000 874.988
31.64000 667.191
31.68000 561.065
31.72000 485.027
31.76000 449.913
31.80000 408.735
31.84000 398.037
31.88000 381.801
31.92000 357.395
31.96000 349.577
32.00000 354.141
32.04000 329.310
32.08000 341.185
32.12000 342.585
32.16000 326.383
32.20000 332.143
32.24000 339.891
32.28000 329.502
32.32000 333.706
32.36000 351.888
32.40000 316.495
32.44000 321.777
32.48000 334.412
32.52000 318.684
32.56000 314.854
32.60000 320.627
32.64000 320.746
32.68000 320.164
32.72000 314.378
32.76000 318.191
32.80000 339.221
32.84000 327.478
32.88000 308.940
32.92000 333.248
32.96000 317.611
33.00000 332.944
33.04000 323.891
33.08000 311.873
33.12000 296.256
33.16000 292.844
33.20000 312.614
33.24000 295.986
33.28000 285.156
33.32000 306.700
33.36000 303.749
33.40000 283.765
33.44000 292.911
33.48000 303.901
33.52000 302.024
33.56000 296.971
33.60000 296.228
33.64000 311.866
33.68000 313.072
33.72000 305.202
33.76000 291.548
33.80000 285.683
33.84000 310.252
33.88000 301.865
33.92000 309.003
33.96000 322.639
34.00000 302.829
34.04000 312.143
34.08000 312.070
34.12000 313.448
34.16000 320.071
34.20000 329.690
34.24000 346.918
34.28000 323.941
34.32000 318.581
34.36000 322.056
34.40000 320.460
34.44000 336.170
34.48000 332.134
34.52000 312.496
34.56000 309.162
34.60000 318.423
34.64000 319.731
34.68000 299.279
34.72000 307.569
34.76000 298.700
34.80000 296.925
34.84000 271.946
34.88000 287.410
34.92000 271.796
34.96000 259.306
35.00000 279.915
35.04000 286.205
35.08000 272.598
35.12000 283.222
35.16000 273.381
35.20000 273.582
35.24000 288.395
35.28000 277.362
35.32000 276.864
35.36000 265.111
35.40000 268.375
35.44000 277.092
35.48000 269.506
35.52000 265.500
35.56000 270.596
35.60000 277.130
35.64000 260.541
35.68000 269.514
35.72000 282.336
35.76000 271.632
35.80000 269.800
35.84000 267.918
35.88000 271.362
35.92000 268.238
35.96000 264.194
36.00000 256.930
36.04000 249.682
36.08000 242.033
36.12000 254.778
36.16000 259.834
36.20000 258.455
36.24000 264.898
36.28000 253.683
36.32000 251.898
36.36000 255.336
36.40000 267.048
36.44000 242.753
36.48000 256.891
36.52000 249.266
36.56000 259.046
36.60000 266.575
36.64000 268.307
36.68000 272.602
36.72000 273.581
36.76000 277.104
36.80000 284.195
36.84000 277.415
36.88000 279.376
36.92000 274.657
36.96000 288.197
37.00000 283.133
37.04000 290.059
37.08000 275.564
37.12000 282.577
37.16000 273.752
37.20000 268.207
37.24000 274.659
37.28000 262.662
37.32000 257.800
37.36000 267.498
37.40000 254.890
37.44000 258.540
37.48000 266.965
37.52000 261.235
37.56000 270.133
37.60000 259.862
37.64000 261.829
37.68000 248.664
37.72000 231.558
37.76000 252.359
37.80000 260.810
37.84000 265.035
37.88000 252.927
37.92000 244.744
37.96000 248.142
38.00000 268.034
38.04000 258.013
38.08000 258.503
38.12000 261.224
38.16000 273.053
38.20000 287.048
38.24000 303.558
38.28000 331.290
38.32000 376.413
38.36000 413.694
38.40000 475.790
38.44000 568.402
38.48000 654.802
38.52000 716.559
38.56000 799.328
38.60000 882.058
38.64000 925.434
38.68000 930.315
38.72000 920.945
38.76000 856.652
38.80000 792.681
38.84000 712.658
38.88000 596.565
38.92000 487.206
38.96000 412.353
39.00000 350.527
39.04000 327.949
39.08000 282.798
39.12000 271.876
39.16000 265.050
39.20000 236.452
39.24000 255.971
39.28000 250.863
39.32000 237.408
39.36000 242.930
39.40000 239.075
39.44000 221.187
39.48000 243.085
39.52000 235.261
39.56000 242.060
39.60000 231.173
39.64000 240.249
39.68000 234.755
39.72000 225.562
39.76000 215.574
39.80000 233.080
39.84000 228.672
39.88000 223.110
39.92000 231.941
39.96000 229.307
40.00000 238.273
40.04000 221.117
40.08000 227.027
40.12000 220.430
40.16000 227.950
40.20000 226.046
40.24000 224.194
40.28000 219.601
40.32000 221.173
40.36000 214.195
40.40000 223.970
40.44000 220.495
40.48000 225.781
40.52000 219.332
40.56000 218.540
40.60000 213.394
40.64000 213.191
40.68000 206.091
40.72000 222.431
40.76000 222.100
40.80000 209.639
40.84000 218.090
40.88000 205.484
40.92000 203.328
40.96000 218.909
41.00000 215.295
41.04000 203.662
41.08000 212.526
41.12000 213.710
41.16000 205.076
41.20000 215.935
41.24000 204.513
41.28000 207.301
41.32000 220.189
41.36000 202.140
41.40000 207.972
41.44000 215.454
41.48000 210.129
41.52000 216.200
41.56000 200.507
41.60000 198.842
41.64000 203.396
41.68000 201.676
41.72000 198.328
41.76000 200.464
41.80000 202.572
41.84000 209.360
41.88000 203.136
41.92000 213.474
41.96000 206.139
42.00000 218.155
42.04000 204.534
42.08000 205.780
42.12000 213.717
42.16000 207.008
42.20000 208.281
42.24000 190.591
42.28000 199.860
42.32000 216.172
42.36000 199.888
42.40000 213.207
42.44000 196.608
42.48000 212.385
42.52000 215.429
42.56000 212.104
42.60000 196.473
42.64000 221.065
42.68000 208.752
42.72000 202.278
42.76000 203.437
42.80000 198.391
42.84000 194.869
42.88000 205.332
42.92000 204.808
42.96000 199.937
43.00000 200.411
43.04000 205.657
43.08000 214.459
43.12000 201.004
43.16000 194.063
43.20000 205.414
43.24000 198.105
43.28000 198.729
43.32000 202.694
43.36000 196.737
43.40000 195.060
43.44000 201.242
43.48000 196.125
43.52000 198.316
43.56000 199.954
43.60000 184.100
43.64000 198.223
43.68000 205.448
43.72000 198.262
43.76000 195.835
43.80000 189.455
43.84000 200.711
43.88000 187.387
43.92000 209.270
43.96000 194.070
44.00000 188.922
44.04000 202.953
44.08000 197.539
44.12000 200.963
44.16000 188.919
44.20000 199.973
44.24000 188.830
44.28000 203.771
44.32000 210.434
44.36000 208.669
44.40000 199.347
44.44000 210.291
44.48000 218.173
44.52000 232.794
44.56000 227.259
44.60000 230.840
44.64000 243.908
44.68000 252.170
44.72000 257.344
44.76000 266.298
44.80000 284.059
44.84000 295.262
44.88000 330.396
44.92000 325.362
44.96000 343.729
45.00000 338.559
45.04000 337.262
45.08000 315.811
45.12000 304.053
45.16000 296.067
45.20000 283.836
45.24000 262.218
45.28000 248.659
45.32000 252.100
45.36000 250.176
45.40000 228.192
45.44000 222.022
45.48000 225.355
45.52000 213.998
45.56000 217.768
45.60000 207.030
45.64000 222.185
45.68000 209.281
45.72000 196.549
45.76000 205.367
45.80000 196.969
45.84000 200.117
45.88000 197.819
45.92000 194.708
45.96000 181.414
46.00000 180.932
46.04000 190.532
46.08000 172.318
46.12000 179.807
46.16000 188.037
46.20000 181.324
46.24000 189.084
46.28000 174.341
46.32000 166.568
46.36000 176.316
46.40000 189.637
46.44000 178.246
46.48000 170.179
46.52000 185.133
46.56000 177.441
46.60000 191.435
46.64000 178.278
46.68000 178.519
46.72000 164.644
46.76000 178.354
46.80000 173.228
46.84000 164.454
46.88000 177.109
46.92000 179.714
46.96000 174.658
47.00000 167.919
47.04000 176.391
47.08000 172.220
47.12000 165.657
47.16000 168.297
47.20000 173.289
47.24000 177.837
47.28000 164.178
47.32000 172.269
47.36000 167.263
47.40000 162.431
47.44000 161.174
47.48000 157.346
47.52000 167.707
47.56000 163.061
47.60000 160.503
47.64000 167.691
47.68000 157.874
47.72000 156.533
47.76000 159.004
47.80000 162.667
47.84000 168.123
47.88000 165.738
47.92000 165.116
47.96000 169.693
48.00000 164.219
48.04000 159.809
48.08000 162.248
48.12000 160.147
48.16000 159.574
48.20000 164.680
48.24000 162.036
48.28000 164.480
48.32000 159.664
48.36000 161.596
48.40000 166.502
48.44000 169.712
48.48000 162.557
48.52000 153.793
48.56000 159.466
48.60000 160.777
48.64000 155.730
48.68000 153.076
48.72000 154.032
48.76000 152.950
48.80000 151.209
48.84000 158.667
48.88000 149.556
48.92000 164.474
48.96000 171.256
49.00000 162.458
49.04000 139.895
49.08000 165.921
49.12000 145.436
49.16000 145.477
49.20000 163.466
49.24000 158.500
49.28000 151.419
49.32000 162.881
49.36000 156.935
49.40000 151.041
49.44000 161.084
49.48000 159.940
49.52000 147.065
49.56000 147.002
49.60000 151.339
49.64000 150.925
49.68000 150.866
49.72000 145.934
49.76000 156.778
49.80000 151.805
49.84000 157.883
49.88000 154.093
49.92000 155.869
49.96000 153.274
50.00000 171.258
50.04000 157.373
50.08000 155.076
50.12000 159.887
50.16000 175.794
50.20000 168.729
50.24000 171.757
50.28000 187.962
50.32000 196.454
50.36000 189.015
50.40000 209.230
50.44000 217.262
50.48000 211.763
50.52000 222.561
50.56000 211.096
50.60000 226.542
50.64000 228.632
50.68000 213.466
50.72000 213.213
50.76000 219.310
50.80000 202.681
50.84000 197.339
50.88000 174.895
50.92000 180.515
50.96000 170.397
51.00000 161.154
51.04000 161.870
51.08000 162.966
51.12000 160.345
51.16000 166.312
51.20000 158.956
51.24000 164.431
51.28000 154.901
51.32000 148.937
51.36000 147.670
51.40000 146.691
51.44000 142.237
51.48000 144.275
51.52000 155.781
51.56000 144.571
51.60000 141.263
51.64000 147.322
51.68000 143.263
51.72000 134.156
51.76000 152.050
51.80000 158.310
51.84000 137.913
51.88000 136.766
51.92000 149.393
51.96000 142.955
52.00000 154.499
52.04000 139.051
52.08000 153.377
52.12000 134.757
52.16000 136.963
52.20000 129.746
52.24000 144.311
52.28000 142.687
52.32000 151.464
52.36000 140.372
52.40000 143.840
52.44000 132.588
52.48000 137.809
52.52000 144.676
52.56000 142.362
52.60000 137.838
52.64000 135.865
52.68000 138.647
52.72000 138.393
52.76000 141.268
52.80000 140.365
52.84000 136.602
52.88000 141.655
52.92000 141.558
52.96000 142.155
53.00000 149.494
53.04000 149.893
53.08000 144.427
53.12000 149.158
53.16000 151.508
53.20000 154.437
53.24000 154.330
53.28000 161.217
53.32000 162.537
53.36000 157.842
53.40000 162.117
53.44000 164.523
53.48000 151.648
53.52000 152.474
53.56000 148.514
53.60000 150.975
53.64000 151.559
53.68000 147.704
53.72000 155.091
53.76000 149.680
53.80000 148.156
53.84000 138.420
53.88000 139.216
53.92000 138.183
53.96000 143.129
54.00000 139.436
54.04000 139.980
54.08000 141.157
54.12000 156.219
54.16000 144.814
54.20000 144.044
54.24000 145.910
54.28000 142.780
54.32000 145.373
54.36000 141.141
54.40000 155.827
54.44000 138.655
54.48000 134.797
54.52000 137.384
54.56000 149.286
54.60000 136.432
54.64000 144.995
54.68000 139.068
54.72000 131.441
54.76000 134.179
54.80000 141.609
54.84000 146.259
54.88000 149.451
54.92000 145.952
54.96000 162.663
55.00000 153.250
55.04000 148.148
55.08000 152.404
55.12000 153.738
55.16000 155.866
55.20000 164.199
55.24000 175.528
55.28000 189.953
55.32000 194.900
55.36000 227.395
55.40000 244.657
55.44000 268.301
55.48000 319.147
55.52000 347.780
55.56000 404.020
55.60000 468.522
55.64000 507.131
55.68000 586.067
55.72000 623.579
55.76000 697.138
55.80000 709.533
55.84000 707.991
55.88000 708.469
55.92000 687.021
55.96000 623.594
56.00000 580.727
56.04000 512.759
56.08000 461.241
56.12000 421.541
56.16000 341.745
56.20000 314.834
56.24000 272.643
56.28000 224.790
56.32000 212.370
56.36000 189.286
56.40000 180.781
56.44000 177.367
56.48000 151.657
56.52000 152.871
56.56000 139.147
56.60000 149.919
56.64000 139.904
56.68000 142.698
56.72000 130.735
56.76000 135.285
56.80000 135.962
56.84000 141.042
56.88000 138.124
56.92000 129.658
56.96000 130.112
57.00000 128.752
57.04000 127.841
57.08000 125.578
57.12000 125.300
57.16000 125.185
57.20000 121.888
57.24000 137.949
57.28000 134.377
57.32000 129.997
57.36000 132.506
57.40000 127.914
57.44000 134.307
57.48000 135.845
57.52000 128.377
57.56000 129.738
57.60000 128.261
57.64000 130.471
57.68000 127.475
57.72000 121.741
57.76000 129.821
57.80000 122.262
57.84000 130.861
57.88000 119.958
57.92000 127.899
57.96000 124.851
58.00000 128.014
58.04000 121.784
58.08000 126.732
58.12000 119.038
58.16000 122.184
58.20000 125.711
58.24000 129.261
58.28000 127.411
58.32000 122.800
58.36000 124.041
58.40000 123.551
58.44000 129.538
58.48000 117.801
58.52000 122.387
58.56000 126.195
58.60000 115.256
58.64000 117.357
58.68000 114.348
58.72000 131.824
58.76000 119.338
58.80000 120.728
58.84000 120.212
58.88000 112.894
58.92000 120.633
58.96000 118.489
59.00000 125.317
59.04000 123.965
59.08000 119.422
59.12000 120.231
59.16000 118.605
59.20000 133.536
59.24000 117.347
59.28000 116.284
59.32000 111.140
59.36000 125.525
59.40000 120.595
59.44000 118.896
59.48000 108.273
59.52000 113.147
59.56000 125.983
59.60000 111.465
59.64000 111.731
59.68000 119.249
59.72000 118.731
59.76000 127.037
59.80000 117.802
59.84000 120.011
59.88000 124.783
59.92000 115.350
59.96000 117.340
60.00000 110.826
60.04000 116.317
60.08000 117.817
60.12000 113.503
60.16000 114.870
60.20000 113.318
60.24000 113.714
60.28000 117.702
60.32000 117.733
60.36000 112.481
60.40000 111.167
60.44000 112.027
60.48000 112.188
60.52000 116.523
60.56000 122.496
60.60000 116.498
60.64000 117.855
60.68000 118.381
60.72000 120.204
60.76000 124.424
60.80000 124.436
60.84000 125.119
60.88000 114.766
60.92000 114.808
60.96000 122.817
61.00000 119.163
61.04000 116.387
61.08000 121.576
61.12000 115.068
61.16000 111.726
61.20000 120.543
61.24000 126.794
61.28000 135.077
61.32000 116.852
61.36000 127.371
61.40000 127.388
61.44000 129.343
61.48000 135.292
61.52000 152.110
61.56000 200.232
61.60000 261.249
61.64000 300.763
61.68000 318.440
61.72000 324.190
61.76000 305.794
61.80000 245.302
61.84000 189.262
61.88000 127.838
61.92000 138.212
61.96000 132.791
62.00000 131.836
62.04000 125.551
62.08000 122.935
62.12000 141.805
62.16000 140.532
62.20000 129.465
62.24000 128.258
62.28000 132.191
62.32000 127.831
62.36000 122.863
62.40000 133.743
62.44000 125.243
62.48000 152.953
62.52000 131.368
62.56000 127.176
62.60000 134.337
62.64000 132.517
62.68000 133.532
62.72000 141.917
62.76000 127.124
62.80000 134.209
62.84000 126.263
62.88000 125.561
62.92000 140.650
62.96000 135.011
63.00000 135.783
63.04000 126.237
63.08000 131.469
63.12000 137.112
63.16000 144.343
63.20000 131.700
63.24000 133.304
63.28000 135.696
63.32000 135.589
63.36000 138.141
63.40000 127.024
63.44000 138.763
63.48000 133.060
63.52000 133.757
63.56000 128.090
63.60000 141.111
63.64000 128.629
63.68000 130.778
63.72000 132.942
63.76000 145.488
63.80000 139.048
63.84000 143.146
63.88000 135.483
63.92000 143.892
63.96000 137.949
64.00000 143.080
64.04000 150.350
64.08000 140.770
64.12000 143.806
64.16000 160.902
64.20000 146.329
64.24000 149.482
64.28000 145.040
64.32000 152.553
64.36000 159.020
64.40000 162.330
64.44000 158.205
64.48000 166.389
64.52000 161.470
64.56000 180.249
64.60000 162.891
64.64000 170.053
64.68000 168.739
64.72000 176.154
64.76000 193.704
64.80000 183.165
64.84000 180.040
64.88000 174.308
64.92000 208.351
64.96000 207.666
65.00000 197.703
65.04000 214.727
65.08000 229.024
65.12000 245.468
65.16000 258.119
65.20000 254.351
65.24000 303.313
65.28000 286.716
65.32000 302.420
65.36000 334.245
65.40000 352.551
65.44000 345.613
65.48000 367.363
65.52000 365.610
65.56000 389.088
65.60000 423.112
65.64000 455.603
65.68000 630.955
65.72000 913.534
65.76000 1430.025
65.80000 1966.207
65.84000 2200.675
65.88000 2248.793
65.92000 2171.829
65.96000 1803.745
66.00000 1275.628
66.04000 784.901
66.08000 541.119
66.12000 407.727
66.16000 381.706
66.20000 383.811
66.24000 385.047
66.28000 478.639
66.32000 559.653
66.36000 633.459
66.40000 674.674
66.44000 667.785
66.48000 639.682
66.52000 597.395
66.56000 471.516
66.60000 410.648
66.64000 377.137
66.68000 367.577
66.72000 358.926
66.76000 355.271
66.80000 372.132
66.84000 366.877
66.88000 360.072
66.92000 375.241
66.96000 369.691
67.00000 392.070
67.04000 384.461
67.08000 387.666
67.12000 383.642
67.16000 400.827
67.20000 394.007
67.24000 396.927
67.28000 404.360
67.32000 413.820
67.36000 403.796
67.40000 424.876
67.44000 418.040
67.48000 432.086
67.52000 453.069
67.56000 444.479
67.60000 426.380
67.64000 447.300
67.68000 457.831
67.72000 455.167
67.76000 472.830
67.80000 477.709
67.84000 489.185
67.88000 493.179
67.92000 492.651
67.96000 504.958
68.00000 505.663
68.04000 518.677
68.08000 522.033
68.12000 515.146
68.16000 535.157
68.20000 564.656
68.24000 538.029
68.28000 586.319
68.32000 590.896
68.36000 604.563
68.40000 629.240
68.44000 642.033
68.48000 666.282
68.52000 703.788
68.56000 758.864
68.60000 847.435
68.64000 981.435
68.68000 1158.853
68.72000 1340.726
68.76000 1508.527
68.80000 1738.530
68.84000 1931.509
68.88000 2407.686
68.92000 3704.696
68.96000 8596.841
69.00000 20993.658
69.04000 36065.488
69.08000 45488.953
69.12000 49041.859
69.16000 52643.977
69.20000 52956.055
69.24000 44295.105
69.28000 32989.430
69.32000 26260.643
69.36000 24130.488
69.40000 20847.596
69.44000 13624.078
69.48000 6505.370
69.52000 2865.520
69.56000 1568.695
69.60000 1150.007
69.64000 989.898
69.68000 876.972
69.72000 761.099
69.76000 704.424
69.80000 664.322
69.84000 605.443
69.88000 576.574
69.92000 575.069
69.96000 554.705
70.00000 520.343