File: XRD/08-10-2025 Dep 7/XY Data/BTO_Mapping_Theta2Theta_08-10-2025_001_24_-15-000_25-981.xy
20.00000 456.065
20.04000 477.709
20.08000 467.072
20.12000 476.708
20.16000 466.263
20.20000 459.719
20.24000 475.743
20.28000 474.560
20.32000 459.541
20.36000 477.574
20.40000 466.010
20.44000 465.166
20.48000 470.875
20.52000 468.285
20.56000 470.142
20.60000 474.539
20.64000 479.143
20.68000 453.004
20.72000 465.543
20.76000 466.636
20.80000 460.796
20.84000 467.933
20.88000 452.146
20.92000 452.792
20.96000 469.967
21.00000 468.254
21.04000 475.073
21.08000 468.010
21.12000 448.434
21.16000 475.658
21.20000 452.025
21.24000 462.339
21.28000 458.143
21.32000 456.939
21.36000 456.893
21.40000 461.184
21.44000 460.459
21.48000 463.444
21.52000 467.438
21.56000 474.537
21.60000 458.473
21.64000 482.567
21.68000 482.924
21.72000 470.588
21.76000 459.599
21.80000 487.184
21.84000 497.428
21.88000 479.795
21.92000 511.327
21.96000 517.095
22.00000 526.598
22.04000 553.267
22.08000 555.311
22.12000 539.096
22.16000 546.486
22.20000 535.445
22.24000 506.594
22.28000 499.368
22.32000 488.717
22.36000 488.864
22.40000 495.558
22.44000 473.844
22.48000 461.110
22.52000 472.319
22.56000 455.904
22.60000 444.391
22.64000 450.308
22.68000 447.257
22.72000 443.009
22.76000 440.126
22.80000 458.155
22.84000 431.654
22.88000 435.108
22.92000 458.630
22.96000 427.918
23.00000 442.728
23.04000 437.502
23.08000 443.929
23.12000 444.913
23.16000 439.211
23.20000 428.070
23.24000 430.850
23.28000 438.294
23.32000 434.928
23.36000 438.494
23.40000 420.558
23.44000 451.622
23.48000 434.508
23.52000 435.304
23.56000 420.462
23.60000 428.999
23.64000 441.463
23.68000 432.226
23.72000 424.828
23.76000 462.966
23.80000 452.497
23.84000 457.798
23.88000 477.570
23.92000 476.465
23.96000 499.828
24.00000 486.516
24.04000 489.543
24.08000 479.774
24.12000 479.828
24.16000 461.367
24.20000 452.556
24.24000 419.832
24.28000 445.682
24.32000 425.408
24.36000 441.742
24.40000 411.449
24.44000 411.007
24.48000 401.386
24.52000 400.529
24.56000 406.721
24.60000 408.805
24.64000 416.974
24.68000 410.603
24.72000 406.477
24.76000 395.183
24.80000 408.260
24.84000 397.122
24.88000 404.694
24.92000 401.462
24.96000 403.085
25.00000 406.219
25.04000 403.864
25.08000 402.300
25.12000 406.672
25.16000 393.525
25.20000 419.779
25.24000 408.551
25.28000 412.677
25.32000 404.723
25.36000 392.626
25.40000 396.827
25.44000 401.684
25.48000 402.534
25.52000 389.451
25.56000 383.009
25.60000 409.037
25.64000 413.843
25.68000 408.649
25.72000 405.913
25.76000 386.151
25.80000 394.441
25.84000 394.987
25.88000 393.889
25.92000 372.869
25.96000 386.261
26.00000 378.272
26.04000 370.608
26.08000 389.582
26.12000 368.688
26.16000 371.187
26.20000 378.734
26.24000 387.552
26.28000 372.466
26.32000 386.216
26.36000 379.681
26.40000 385.811
26.44000 373.308
26.48000 396.618
26.52000 370.551
26.56000 376.158
26.60000 390.886
26.64000 373.271
26.68000 374.373
26.72000 377.284
26.76000 371.413
26.80000 381.672
26.84000 375.336
26.88000 393.620
26.92000 377.696
26.96000 381.678
27.00000 367.919
27.04000 377.273
27.08000 378.495
27.12000 387.048
27.16000 377.328
27.20000 381.518
27.24000 368.568
27.28000 388.023
27.32000 376.745
27.36000 374.231
27.40000 359.759
27.44000 381.233
27.48000 363.164
27.52000 362.199
27.56000 374.987
27.60000 384.502
27.64000 375.998
27.68000 370.945
27.72000 377.489
27.76000 378.509
27.80000 377.522
27.84000 351.664
27.88000 359.176
27.92000 351.125
27.96000 375.384
28.00000 381.166
28.04000 365.211
28.08000 369.538
28.12000 361.695
28.16000 358.215
28.20000 372.737
28.24000 374.499
28.28000 369.403
28.32000 354.867
28.36000 349.885
28.40000 345.385
28.44000 365.762
28.48000 370.761
28.52000 350.107
28.56000 361.396
28.60000 340.730
28.64000 354.859
28.68000 369.727
28.72000 359.547
28.76000 362.489
28.80000 350.899
28.84000 338.898
28.88000 342.366
28.92000 359.358
28.96000 370.740
29.00000 354.801
29.04000 356.286
29.08000 355.142
29.12000 345.033
29.16000 346.529
29.20000 373.836
29.24000 339.824
29.28000 340.932
29.32000 349.791
29.36000 338.133
29.40000 340.727
29.44000 336.425
29.48000 353.212
29.52000 349.987
29.56000 349.209
29.60000 337.138
29.64000 354.034
29.68000 354.713
29.72000 343.833
29.76000 368.489
29.80000 359.283
29.84000 365.961
29.88000 368.066
29.92000 375.406
29.96000 367.287
30.00000 368.322
30.04000 352.900
30.08000 362.972
30.12000 370.418
30.16000 370.416
30.20000 360.326
30.24000 360.386
30.28000 356.667
30.32000 374.178
30.36000 368.440
30.40000 334.944
30.44000 340.936
30.48000 354.833
30.52000 343.759
30.56000 349.100
30.60000 350.291
30.64000 355.088
30.68000 355.918
30.72000 348.521
30.76000 373.762
30.80000 352.001
30.84000 361.241
30.88000 386.867
30.92000 388.572
30.96000 392.846
31.00000 406.073
31.04000 426.625
31.08000 463.503
31.12000 536.668
31.16000 582.913
31.20000 671.715
31.24000 778.478
31.28000 879.639
31.32000 981.545
31.36000 1056.470
31.40000 1093.333
31.44000 1028.148
31.48000 1006.073
31.52000 906.054
31.56000 793.902
31.60000 675.178
31.64000 606.735
31.68000 507.603
31.72000 447.076
31.76000 431.784
31.80000 390.608
31.84000 391.512
31.88000 367.260
31.92000 367.671
31.96000 369.621
32.00000 355.458
32.04000 343.959
32.08000 337.658
32.12000 333.858
32.16000 322.494
32.20000 331.885
32.24000 327.137
32.28000 330.624
32.32000 327.060
32.36000 328.863
32.40000 323.362
32.44000 337.947
32.48000 319.690
32.52000 321.271
32.56000 327.509
32.60000 315.208
32.64000 315.983
32.68000 309.526
32.72000 315.754
32.76000 304.775
32.80000 312.664
32.84000 299.824
32.88000 322.191
32.92000 313.890
32.96000 306.425
33.00000 331.536
33.04000 315.948
33.08000 292.194
33.12000 306.421
33.16000 304.870
33.20000 305.498
33.24000 298.870
33.28000 315.505
33.32000 303.905
33.36000 290.070
33.40000 300.414
33.44000 290.257
33.48000 302.142
33.52000 293.436
33.56000 290.586
33.60000 295.621
33.64000 284.115
33.68000 297.599
33.72000 303.619
33.76000 296.037
33.80000 302.513
33.84000 309.954
33.88000 303.230
33.92000 312.049
33.96000 309.335
34.00000 322.861
34.04000 300.411
34.08000 303.522
34.12000 315.214
34.16000 322.914
34.20000 316.646
34.24000 339.885
34.28000 325.636
34.32000 350.563
34.36000 340.877
34.40000 349.528
34.44000 340.769
34.48000 341.064
34.52000 345.460
34.56000 337.788
34.60000 340.499
34.64000 334.005
34.68000 306.446
34.72000 310.064
34.76000 316.554
34.80000 292.593
34.84000 275.546
34.88000 293.711
34.92000 288.171
34.96000 273.782
35.00000 278.111
35.04000 281.743
35.08000 277.983
35.12000 276.520
35.16000 266.409
35.20000 265.778
35.24000 257.287
35.28000 255.596
35.32000 266.132
35.36000 256.814
35.40000 263.974
35.44000 268.651
35.48000 253.219
35.52000 272.156
35.56000 263.776
35.60000 244.788
35.64000 262.579
35.68000 262.606
35.72000 269.384
35.76000 261.330
35.80000 262.512
35.84000 253.536
35.88000 250.613
35.92000 262.937
35.96000 251.280
36.00000 252.236
36.04000 259.241
36.08000 255.413
36.12000 258.851
36.16000 259.635
36.20000 248.973
36.24000 256.843
36.28000 242.918
36.32000 249.470
36.36000 254.260
36.40000 262.669
36.44000 266.354
36.48000 255.870
36.52000 257.834
36.56000 256.077
36.60000 260.108
36.64000 243.134
36.68000 256.009
36.72000 253.557
36.76000 256.174
36.80000 265.068
36.84000 278.114
36.88000 276.801
36.92000 280.037
36.96000 279.269
37.00000 284.054
37.04000 281.316
37.08000 277.737
37.12000 276.391
37.16000 258.957
37.20000 264.139
37.24000 275.869
37.28000 267.072
37.32000 264.908
37.36000 251.721
37.40000 242.364
37.44000 252.098
37.48000 272.776
37.52000 267.974
37.56000 256.785
37.60000 253.775
37.64000 248.894
37.68000 227.615
37.72000 251.522
37.76000 241.063
37.80000 251.330
37.84000 258.899
37.88000 237.588
37.92000 255.157
37.96000 250.999
38.00000 247.109
38.04000 245.762
38.08000 274.845
38.12000 264.347
38.16000 246.650
38.20000 275.392
38.24000 266.175
38.28000 271.809
38.32000 298.745
38.36000 322.422
38.40000 359.517
38.44000 427.236
38.48000 488.539
38.52000 576.617
38.56000 688.328
38.60000 811.412
38.64000 978.461
38.68000 1063.131
38.72000 1111.632
38.76000 1124.148
38.80000 1064.741
38.84000 938.899
38.88000 828.882
38.92000 674.528
38.96000 546.804
39.00000 454.125
39.04000 357.884
39.08000 312.025
39.12000 280.686
39.16000 262.791
39.20000 246.540
39.24000 238.875
39.28000 237.153
39.32000 235.956
39.36000 234.875
39.40000 232.624
39.44000 239.889
39.48000 235.274
39.52000 237.327
39.56000 229.469
39.60000 217.529
39.64000 227.654
39.68000 226.943
39.72000 222.991
39.76000 221.994
39.80000 237.755
39.84000 228.345
39.88000 222.420
39.92000 217.465
39.96000 224.427
40.00000 239.476
40.04000 204.911
40.08000 238.732
40.12000 225.584
40.16000 218.726
40.20000 218.570
40.24000 214.576
40.28000 232.512
40.32000 229.705
40.36000 229.361
40.40000 220.356
40.44000 221.798
40.48000 215.576
40.52000 215.860
40.56000 227.498
40.60000 212.202
40.64000 227.306
40.68000 220.413
40.72000 212.636
40.76000 211.266
40.80000 201.708
40.84000 209.628
40.88000 213.056
40.92000 219.841
40.96000 220.478
41.00000 211.205
41.04000 209.832
41.08000 218.789
41.12000 214.353
41.16000 225.550
41.20000 210.925
41.24000 221.623
41.28000 204.667
41.32000 201.631
41.36000 208.766
41.40000 214.781
41.44000 212.649
41.48000 212.338
41.52000 203.897
41.56000 215.512
41.60000 210.801
41.64000 212.379
41.68000 208.157
41.72000 199.084
41.76000 220.859
41.80000 209.975
41.84000 207.913
41.88000 210.796
41.92000 210.061
41.96000 205.119
42.00000 204.199
42.04000 218.350
42.08000 219.671
42.12000 211.770
42.16000 206.602
42.20000 198.818
42.24000 204.749
42.28000 204.976
42.32000 208.383
42.36000 203.578
42.40000 209.012
42.44000 213.399
42.48000 208.877
42.52000 209.238
42.56000 209.698
42.60000 205.384
42.64000 200.649
42.68000 205.241
42.72000 204.133
42.76000 203.729
42.80000 201.615
42.84000 207.354
42.88000 200.688
42.92000 208.922
42.96000 200.503
43.00000 193.449
43.04000 202.324
43.08000 185.311
43.12000 205.446
43.16000 194.911
43.20000 196.564
43.24000 194.966
43.28000 200.390
43.32000 192.621
43.36000 208.064
43.40000 184.125
43.44000 198.992
43.48000 192.153
43.52000 190.814
43.56000 195.325
43.60000 183.995
43.64000 190.124
43.68000 190.221
43.72000 198.873
43.76000 186.754
43.80000 192.882
43.84000 191.317
43.88000 182.356
43.92000 200.517
43.96000 205.308
44.00000 178.536
44.04000 188.174
44.08000 185.273
44.12000 190.357
44.16000 204.474
44.20000 186.176
44.24000 190.055
44.28000 201.693
44.32000 191.243
44.36000 194.659
44.40000 200.423
44.44000 188.883
44.48000 204.742
44.52000 218.991
44.56000 193.367
44.60000 209.355
44.64000 219.369
44.68000 217.007
44.72000 222.805
44.76000 223.062
44.80000 225.189
44.84000 240.087
44.88000 237.390
44.92000 238.041
44.96000 254.690
45.00000 262.862
45.04000 248.945
45.08000 254.942
45.12000 269.344
45.16000 251.552
45.20000 241.052
45.24000 254.458
45.28000 231.523
45.32000 227.638
45.36000 214.175
45.40000 239.997
45.44000 226.237
45.48000 221.484
45.52000 220.084
45.56000 224.453
45.60000 212.555
45.64000 202.397
45.68000 207.452
45.72000 199.808
45.76000 191.857
45.80000 196.924
45.84000 183.958
45.88000 198.063
45.92000 201.883
45.96000 193.770
46.00000 183.443
46.04000 189.676
46.08000 186.394
46.12000 183.209
46.16000 188.090
46.20000 183.447
46.24000 171.523
46.28000 174.547
46.32000 173.703
46.36000 181.759
46.40000 177.624
46.44000 184.818
46.48000 172.226
46.52000 177.549
46.56000 174.791
46.60000 179.997
46.64000 171.917
46.68000 166.427
46.72000 179.929
46.76000 164.484
46.80000 171.706
46.84000 185.135
46.88000 166.756
46.92000 162.093
46.96000 166.599
47.00000 155.621
47.04000 165.708
47.08000 176.350
47.12000 182.821
47.16000 174.944
47.20000 177.838
47.24000 159.031
47.28000 173.329
47.32000 164.904
47.36000 153.491
47.40000 157.692
47.44000 152.588
47.48000 157.935
47.52000 176.334
47.56000 154.039
47.60000 158.004
47.64000 167.099
47.68000 164.021
47.72000 158.306
47.76000 156.581
47.80000 167.297
47.84000 166.752
47.88000 172.803
47.92000 161.706
47.96000 152.337
48.00000 159.272
48.04000 157.872
48.08000 157.267
48.12000 157.754
48.16000 157.034
48.20000 151.632
48.24000 154.447
48.28000 148.151
48.32000 163.773
48.36000 151.311
48.40000 153.016
48.44000 145.427
48.48000 152.935
48.52000 145.546
48.56000 161.810
48.60000 156.196
48.64000 154.410
48.68000 164.952
48.72000 160.039
48.76000 158.431
48.80000 149.596
48.84000 153.750
48.88000 146.610
48.92000 149.264
48.96000 160.767
49.00000 150.246
49.04000 144.862
49.08000 155.524
49.12000 146.568
49.16000 152.744
49.20000 138.655
49.24000 155.745
49.28000 154.843
49.32000 152.275
49.36000 158.333
49.40000 147.830
49.44000 155.352
49.48000 154.874
49.52000 149.733
49.56000 153.106
49.60000 156.584
49.64000 153.217
49.68000 150.984
49.72000 148.178
49.76000 161.717
49.80000 146.350
49.84000 142.082
49.88000 156.196
49.92000 152.026
49.96000 157.732
50.00000 148.652
50.04000 140.750
50.08000 156.751
50.12000 150.968
50.16000 156.688
50.20000 158.673
50.24000 148.466
50.28000 149.698
50.32000 160.155
50.36000 160.319
50.40000 155.564
50.44000 165.015
50.48000 161.542
50.52000 162.138
50.56000 152.635
50.60000 163.302
50.64000 164.267
50.68000 176.545
50.72000 158.840
50.76000 150.138
50.80000 163.419
50.84000 167.047
50.88000 162.764
50.92000 161.213
50.96000 170.211
51.00000 158.995
51.04000 157.271
51.08000 132.639
51.12000 151.160
51.16000 151.638
51.20000 147.955
51.24000 154.481
51.28000 154.465
51.32000 136.532
51.36000 149.193
51.40000 151.834
51.44000 143.087
51.48000 138.110
51.52000 144.221
51.56000 140.773
51.60000 124.311
51.64000 135.137
51.68000 136.544
51.72000 148.661
51.76000 144.743
51.80000 151.165
51.84000 136.674
51.88000 143.606
51.92000 135.110
51.96000 146.896
52.00000 147.654
52.04000 144.779
52.08000 137.739
52.12000 142.257
52.16000 139.765
52.20000 142.920
52.24000 137.650
52.28000 145.529
52.32000 142.059
52.36000 142.516
52.40000 133.798
52.44000 134.333
52.48000 143.426
52.52000 136.598
52.56000 135.155
52.60000 140.116
52.64000 143.920
52.68000 136.816
52.72000 134.988
52.76000 142.820
52.80000 133.031
52.84000 140.925
52.88000 136.801
52.92000 143.395
52.96000 134.421
53.00000 136.223
53.04000 146.534
53.08000 146.058
53.12000 145.361
53.16000 160.275
53.20000 139.522
53.24000 149.927
53.28000 159.503
53.32000 162.969
53.36000 159.241
53.40000 145.074
53.44000 155.090
53.48000 166.173
53.52000 156.506
53.56000 155.083
53.60000 151.198
53.64000 149.141
53.68000 140.860
53.72000 144.071
53.76000 149.210
53.80000 149.057
53.84000 148.714
53.88000 140.689
53.92000 141.477
53.96000 138.921
54.00000 142.673
54.04000 145.186
54.08000 139.989
54.12000 140.927
54.16000 147.495
54.20000 134.748
54.24000 145.246
54.28000 136.511
54.32000 139.577
54.36000 130.260
54.40000 140.934
54.44000 142.099
54.48000 144.083
54.52000 126.944
54.56000 133.439
54.60000 138.670
54.64000 130.810
54.68000 138.290
54.72000 133.940
54.76000 145.875
54.80000 145.905
54.84000 142.494
54.88000 136.505
54.92000 141.764
54.96000 133.638
55.00000 134.874
55.04000 147.923
55.08000 141.586
55.12000 147.048
55.16000 149.984
55.20000 148.392
55.24000 156.292
55.28000 149.905
55.32000 146.445
55.36000 160.546
55.40000 176.533
55.44000 176.252
55.48000 191.007
55.52000 214.407
55.56000 232.056
55.60000 251.119
55.64000 312.874
55.68000 352.745
55.72000 405.365
55.76000 441.118
55.80000 526.802
55.84000 608.151
55.88000 629.652
55.92000 678.259
55.96000 699.184
56.00000 688.347
56.04000 644.536
56.08000 579.732
56.12000 534.652
56.16000 482.237
56.20000 415.638
56.24000 334.569
56.28000 281.433
56.32000 255.896
56.36000 232.167
56.40000 202.722
56.44000 178.491
56.48000 162.880
56.52000 156.974
56.56000 143.062
56.60000 151.066
56.64000 148.613
56.68000 128.240
56.72000 134.699
56.76000 130.019
56.80000 144.568
56.84000 126.479
56.88000 129.050
56.92000 133.280
56.96000 125.653
57.00000 119.104
57.04000 118.228
57.08000 127.063
57.12000 139.296
57.16000 119.955
57.20000 125.591
57.24000 124.300
57.28000 128.809
57.32000 118.217
57.36000 124.946
57.40000 126.756
57.44000 118.321
57.48000 131.546
57.52000 131.480
57.56000 125.055
57.60000 124.112
57.64000 125.690
57.68000 123.678
57.72000 122.224
57.76000 129.218
57.80000 133.620
57.84000 119.521
57.88000 122.354
57.92000 125.533
57.96000 116.256
58.00000 123.082
58.04000 121.281
58.08000 123.400
58.12000 126.293
58.16000 112.321
58.20000 116.894
58.24000 119.837
58.28000 124.360
58.32000 127.434
58.36000 135.313
58.40000 120.078
58.44000 117.557
58.48000 119.186
58.52000 123.056
58.56000 109.676
58.60000 124.891
58.64000 126.199
58.68000 118.122
58.72000 125.511
58.76000 130.508
58.80000 121.158
58.84000 122.989
58.88000 121.697
58.92000 119.588
58.96000 116.274
59.00000 123.439
59.04000 118.647
59.08000 112.890
59.12000 118.468
59.16000 109.073
59.20000 116.084
59.24000 122.770
59.28000 133.761
59.32000 120.649
59.36000 109.715
59.40000 120.577
59.44000 121.348
59.48000 114.282
59.52000 116.205
59.56000 123.794
59.60000 119.051
59.64000 123.169
59.68000 119.214
59.72000 115.339
59.76000 112.436
59.80000 119.714
59.84000 120.735
59.88000 107.706
59.92000 106.283
59.96000 115.582
60.00000 114.840
60.04000 121.095
60.08000 126.331
60.12000 119.685
60.16000 123.190
60.20000 116.364
60.24000 116.783
60.28000 115.040
60.32000 115.928
60.36000 125.565
60.40000 113.705
60.44000 113.395
60.48000 114.689
60.52000 107.521
60.56000 121.525
60.60000 116.251
60.64000 117.696
60.68000 126.498
60.72000 126.013
60.76000 113.392
60.80000 116.404
60.84000 117.161
60.88000 127.132
60.92000 125.200
60.96000 133.882
61.00000 120.433
61.04000 114.034
61.08000 122.587
61.12000 125.441
61.16000 127.004
61.20000 122.897
61.24000 132.379
61.28000 124.683
61.32000 126.532
61.36000 133.757
61.40000 122.809
61.44000 131.863
61.48000 129.698
61.52000 148.374
61.56000 191.813
61.60000 229.098
61.64000 272.799
61.68000 290.400
61.72000 295.633
61.76000 290.175
61.80000 247.320
61.84000 193.241
61.88000 141.278
61.92000 138.914
61.96000 137.453
62.00000 119.366
62.04000 131.660
62.08000 132.237
62.12000 130.580
62.16000 127.838
62.20000 126.862
62.24000 135.705
62.28000 126.873
62.32000 123.869
62.36000 122.629
62.40000 116.890
62.44000 124.430
62.48000 124.308
62.52000 130.778
62.56000 126.390
62.60000 133.553
62.64000 131.068
62.68000 122.006
62.72000 126.402
62.76000 135.106
62.80000 136.959
62.84000 128.961
62.88000 130.034
62.92000 126.108
62.96000 123.491
63.00000 119.171
63.04000 132.782
63.08000 139.432
63.12000 129.830
63.16000 134.694
63.20000 135.683
63.24000 125.861
63.28000 127.719
63.32000 128.666
63.36000 138.953
63.40000 129.928
63.44000 137.544
63.48000 128.951
63.52000 136.236
63.56000 137.807
63.60000 135.836
63.64000 137.221
63.68000 137.809
63.72000 128.040
63.76000 131.174
63.80000 137.158
63.84000 135.191
63.88000 135.462
63.92000 140.569
63.96000 140.051
64.00000 137.238
64.04000 152.303
64.08000 151.859
64.12000 137.409
64.16000 150.733
64.20000 139.077
64.24000 149.400
64.28000 139.199
64.32000 152.338
64.36000 159.125
64.40000 142.425
64.44000 151.180
64.48000 151.387
64.52000 169.120
64.56000 165.252
64.60000 158.851
64.64000 148.418
64.68000 167.741
64.72000 158.788
64.76000 157.065
64.80000 164.399
64.84000 173.401
64.88000 185.569
64.92000 175.905
64.96000 189.557
65.00000 173.964
65.04000 183.545
65.08000 185.109
65.12000 188.140
65.16000 197.602
65.20000 197.967
65.24000 214.127
65.28000 216.887
65.32000 236.039
65.36000 239.546
65.40000 239.359
65.44000 246.179
65.48000 263.867
65.52000 304.067
65.56000 314.235
65.60000 335.943
65.64000 377.871
65.68000 490.804
65.72000 764.400
65.76000 1214.659
65.80000 1672.884
65.84000 1917.535
65.88000 1987.815
65.92000 1900.940
65.96000 1671.970
66.00000 1197.703
66.04000 734.679
66.08000 501.258
66.12000 403.030
66.16000 353.535
66.20000 363.682
66.24000 375.085
66.28000 417.932
66.32000 504.886
66.36000 576.438
66.40000 594.086
66.44000 620.177
66.48000 614.054
66.52000 572.463
66.56000 467.735
66.60000 404.748
66.64000 361.684
66.68000 336.078
66.72000 358.359
66.76000 341.779
66.80000 351.817
66.84000 344.743
66.88000 362.350
66.92000 359.207
66.96000 366.611
67.00000 355.090
67.04000 377.227
67.08000 388.936
67.12000 385.721
67.16000 365.188
67.20000 371.463
67.24000 399.526
67.28000 404.721
67.32000 404.942
67.36000 406.065
67.40000 406.194
67.44000 408.663
67.48000 420.278
67.52000 412.746
67.56000 415.643
67.60000 424.494
67.64000 431.533
67.68000 446.572
67.72000 426.094
67.76000 455.352
67.80000 460.853
67.84000 454.031
67.88000 461.290
67.92000 471.421
67.96000 492.474
68.00000 487.406
68.04000 523.152
68.08000 490.268
68.12000 487.361
68.16000 534.140
68.20000 537.009
68.24000 551.092
68.28000 556.025
68.32000 555.387
68.36000 588.686
68.40000 600.157
68.44000 648.311
68.48000 640.252
68.52000 680.099
68.56000 729.107
68.60000 773.893
68.64000 936.435
68.68000 1057.756
68.72000 1226.864
68.76000 1422.423
68.80000 1582.526
68.84000 1731.885
68.88000 2135.176
68.92000 3043.419
68.96000 6519.841
69.00000 16717.771
69.04000 30197.148
69.08000 39366.055
69.12000 42938.887
69.16000 45830.871
69.20000 47242.777
69.24000 40671.773
69.28000 29901.092
69.32000 23476.256
69.36000 21381.547
69.40000 19178.469
69.44000 12956.836
69.48000 6412.802
69.52000 2825.276
69.56000 1510.111
69.60000 1124.787
69.64000 951.527
69.68000 832.261
69.72000 757.198
69.76000 693.082
69.80000 654.074
69.84000 611.909
69.88000 566.832
69.92000 547.269
69.96000 537.856
70.00000 498.609