File: XRD/08-10-2025 Dep 7/XY Data/BTO_Mapping_Theta2Theta_08-10-2025_001_51_6-180_-19-021.xy
20.00000 463.376
20.04000 500.519
20.08000 483.684
20.12000 483.990
20.16000 486.458
20.20000 469.810
20.24000 477.771
20.28000 473.512
20.32000 492.575
20.36000 470.296
20.40000 473.379
20.44000 471.984
20.48000 490.462
20.52000 470.805
20.56000 460.863
20.60000 469.107
20.64000 454.497
20.68000 470.980
20.72000 457.828
20.76000 453.853
20.80000 455.396
20.84000 455.433
20.88000 472.486
20.92000 457.827
20.96000 475.415
21.00000 476.672
21.04000 475.827
21.08000 467.933
21.12000 475.883
21.16000 469.884
21.20000 483.098
21.24000 468.178
21.28000 471.603
21.32000 458.817
21.36000 464.911
21.40000 455.138
21.44000 468.454
21.48000 474.220
21.52000 476.069
21.56000 484.308
21.60000 462.751
21.64000 467.914
21.68000 457.666
21.72000 461.594
21.76000 486.348
21.80000 491.325
21.84000 508.202
21.88000 518.381
21.92000 522.825
21.96000 540.906
22.00000 535.853
22.04000 559.196
22.08000 569.753
22.12000 550.388
22.16000 530.588
22.20000 508.440
22.24000 512.313
22.28000 496.043
22.32000 493.174
22.36000 494.141
22.40000 446.023
22.44000 472.944
22.48000 459.329
22.52000 443.465
22.56000 470.310
22.60000 480.889
22.64000 450.850
22.68000 433.975
22.72000 449.916
22.76000 455.175
22.80000 441.022
22.84000 466.986
22.88000 443.447
22.92000 440.169
22.96000 439.984
23.00000 469.263
23.04000 430.953
23.08000 433.422
23.12000 462.745
23.16000 436.718
23.20000 454.496
23.24000 428.889
23.28000 439.840
23.32000 454.817
23.36000 441.360
23.40000 431.792
23.44000 453.422
23.48000 448.368
23.52000 443.409
23.56000 462.727
23.60000 471.028
23.64000 456.797
23.68000 452.537
23.72000 467.980
23.76000 468.647
23.80000 476.185
23.84000 503.167
23.88000 491.138
23.92000 514.179
23.96000 539.188
24.00000 522.036
24.04000 520.507
24.08000 504.019
24.12000 501.889
24.16000 479.648
24.20000 463.043
24.24000 461.862
24.28000 452.530
24.32000 456.056
24.36000 409.385
24.40000 432.588
24.44000 431.307
24.48000 419.086
24.52000 423.534
24.56000 405.567
24.60000 410.368
24.64000 399.341
24.68000 428.977
24.72000 411.198
24.76000 400.724
24.80000 414.603
24.84000 419.728
24.88000 417.157
24.92000 403.922
24.96000 412.005
25.00000 426.418
25.04000 400.766
25.08000 399.196
25.12000 397.499
25.16000 400.281
25.20000 412.364
25.24000 398.703
25.28000 404.953
25.32000 425.700
25.36000 401.018
25.40000 401.467
25.44000 393.588
25.48000 395.469
25.52000 421.932
25.56000 406.265
25.60000 398.350
25.64000 405.106
25.68000 395.351
25.72000 406.506
25.76000 386.025
25.80000 413.026
25.84000 403.882
25.88000 407.117
25.92000 408.165
25.96000 389.583
26.00000 391.246
26.04000 381.233
26.08000 390.231
26.12000 375.045
26.16000 371.122
26.20000 384.975
26.24000 391.266
26.28000 387.315
26.32000 389.054
26.36000 396.375
26.40000 383.298
26.44000 371.322
26.48000 379.059
26.52000 394.750
26.56000 374.051
26.60000 383.927
26.64000 376.874
26.68000 383.038
26.72000 378.437
26.76000 381.769
26.80000 385.550
26.84000 382.046
26.88000 381.059
26.92000 381.762
26.96000 377.481
27.00000 385.913
27.04000 368.361
27.08000 394.582
27.12000 381.683
27.16000 377.378
27.20000 393.350
27.24000 379.277
27.28000 381.051
27.32000 364.393
27.36000 360.224
27.40000 378.745
27.44000 402.349
27.48000 385.391
27.52000 383.080
27.56000 381.756
27.60000 366.429
27.64000 367.767
27.68000 393.179
27.72000 342.067
27.76000 384.683
27.80000 376.533
27.84000 376.372
27.88000 380.138
27.92000 367.333
27.96000 355.268
28.00000 370.592
28.04000 368.484
28.08000 363.497
28.12000 366.783
28.16000 357.876
28.20000 361.628
28.24000 367.271
28.28000 353.135
28.32000 363.227
28.36000 365.872
28.40000 356.403
28.44000 351.234
28.48000 356.169
28.52000 360.209
28.56000 345.901
28.60000 367.024
28.64000 373.201
28.68000 370.455
28.72000 347.458
28.76000 349.457
28.80000 340.523
28.84000 345.841
28.88000 363.308
28.92000 375.688
28.96000 361.095
29.00000 336.744
29.04000 362.071
29.08000 339.706
29.12000 348.556
29.16000 364.073
29.20000 355.115
29.24000 338.600
29.28000 357.516
29.32000 359.085
29.36000 344.300
29.40000 355.385
29.44000 349.602
29.48000 348.141
29.52000 352.096
29.56000 333.448
29.60000 357.222
29.64000 348.636
29.68000 362.457
29.72000 354.717
29.76000 360.904
29.80000 357.368
29.84000 383.907
29.88000 371.891
29.92000 376.512
29.96000 377.309
30.00000 374.997
30.04000 371.015
30.08000 385.635
30.12000 370.337
30.16000 374.225
30.20000 364.943
30.24000 362.972
30.28000 365.257
30.32000 350.493
30.36000 363.946
30.40000 393.172
30.44000 362.918
30.48000 369.920
30.52000 370.071
30.56000 358.096
30.60000 361.676
30.64000 368.269
30.68000 360.857
30.72000 368.879
30.76000 371.273
30.80000 399.643
30.84000 374.224
30.88000 389.006
30.92000 405.585
30.96000 424.527
31.00000 436.476
31.04000 470.031
31.08000 549.376
31.12000 632.726
31.16000 704.674
31.20000 795.265
31.24000 884.007
31.28000 1008.219
31.32000 1100.552
31.36000 1171.694
31.40000 1133.439
31.44000 1097.157
31.48000 1008.151
31.52000 873.023
31.56000 788.609
31.60000 666.602
31.64000 551.837
31.68000 518.261
31.72000 457.564
31.76000 406.462
31.80000 389.436
31.84000 388.169
31.88000 370.775
31.92000 372.457
31.96000 354.463
32.00000 350.877
32.04000 345.667
32.08000 338.366
32.12000 321.924
32.16000 337.145
32.20000 336.596
32.24000 324.649
32.28000 338.309
32.32000 333.500
32.36000 330.049
32.40000 320.650
32.44000 305.970
32.48000 314.920
32.52000 327.126
32.56000 327.599
32.60000 309.972
32.64000 328.169
32.68000 310.704
32.72000 318.234
32.76000 323.925
32.80000 323.699
32.84000 316.742
32.88000 306.831
32.92000 317.057
32.96000 315.345
33.00000 311.980
33.04000 305.395
33.08000 299.669
33.12000 310.286
33.16000 303.649
33.20000 305.741
33.24000 299.145
33.28000 302.286
33.32000 297.130
33.36000 295.292
33.40000 298.694
33.44000 298.136
33.48000 291.762
33.52000 298.900
33.56000 288.087
33.60000 285.018
33.64000 301.066
33.68000 294.749
33.72000 304.348
33.76000 303.609
33.80000 296.894
33.84000 312.201
33.88000 298.513
33.92000 307.920
33.96000 313.642
34.00000 319.378
34.04000 312.743
34.08000 331.622
34.12000 323.595
34.16000 335.182
34.20000 352.089
34.24000 345.642
34.28000 346.878
34.32000 343.692
34.36000 354.104
34.40000 345.768
34.44000 340.418
34.48000 349.083
34.52000 338.757
34.56000 337.340
34.60000 331.478
34.64000 321.379
34.68000 310.339
34.72000 315.480
34.76000 294.233
34.80000 290.097
34.84000 302.963
34.88000 295.007
34.92000 284.099
34.96000 286.022
35.00000 281.550
35.04000 285.326
35.08000 286.964
35.12000 280.882
35.16000 278.872
35.20000 274.297
35.24000 279.965
35.28000 279.490
35.32000 262.661
35.36000 268.816
35.40000 275.400
35.44000 273.744
35.48000 275.897
35.52000 263.868
35.56000 275.421
35.60000 261.449
35.64000 273.933
35.68000 252.124
35.72000 264.094
35.76000 273.016
35.80000 270.841
35.84000 266.365
35.88000 263.820
35.92000 256.037
35.96000 261.909
36.00000 266.749
36.04000 270.397
36.08000 266.212
36.12000 264.944
36.16000 264.333
36.20000 262.738
36.24000 248.379
36.28000 245.442
36.32000 263.881
36.36000 276.030
36.40000 268.256
36.44000 249.987
36.48000 252.028
36.52000 255.347
36.56000 259.191
36.60000 256.937
36.64000 252.409
36.68000 262.498
36.72000 260.848
36.76000 271.347
36.80000 273.383
36.84000 284.384
36.88000 268.747
36.92000 289.728
36.96000 279.541
37.00000 278.518
37.04000 292.762
37.08000 275.118
37.12000 287.157
37.16000 273.023
37.20000 277.086
37.24000 278.822
37.28000 261.650
37.32000 260.107
37.36000 262.689
37.40000 266.554
37.44000 252.812
37.48000 246.970
37.52000 249.375
37.56000 267.184
37.60000 258.827
37.64000 249.255
37.68000 251.542
37.72000 250.618
37.76000 267.502
37.80000 254.454
37.84000 249.617
37.88000 255.512
37.92000 270.296
37.96000 258.912
38.00000 262.996
38.04000 252.214
38.08000 250.684
38.12000 261.500
38.16000 263.475
38.20000 265.334
38.24000 282.627
38.28000 290.848
38.32000 319.112
38.36000 341.807
38.40000 391.196
38.44000 473.945
38.48000 584.321
38.52000 706.406
38.56000 844.646
38.60000 964.685
38.64000 1096.859
38.68000 1137.546
38.72000 1198.024
38.76000 1172.971
38.80000 1053.950
38.84000 895.608
38.88000 769.579
38.92000 641.296
38.96000 499.301
39.00000 399.517
39.04000 342.033
39.08000 308.902
39.12000 284.375
39.16000 267.105
39.20000 252.135
39.24000 246.662
39.28000 231.310
39.32000 233.856
39.36000 243.688
39.40000 238.892
39.44000 249.073
39.48000 236.868
39.52000 242.773
39.56000 237.521
39.60000 232.874
39.64000 230.567
39.68000 229.926
39.72000 225.319
39.76000 242.038
39.80000 239.840
39.84000 228.941
39.88000 223.950
39.92000 237.011
39.96000 225.613
40.00000 223.581
40.04000 218.889
40.08000 234.786
40.12000 217.371
40.16000 236.481
40.20000 230.532
40.24000 224.622
40.28000 226.925
40.32000 223.336
40.36000 232.098
40.40000 219.132
40.44000 223.486
40.48000 214.685
40.52000 220.307
40.56000 208.607
40.60000 219.373
40.64000 208.996
40.68000 222.159
40.72000 219.552
40.76000 216.832
40.80000 212.834
40.84000 217.716
40.88000 216.063
40.92000 218.982
40.96000 212.278
41.00000 211.339
41.04000 216.020
41.08000 205.787
41.12000 204.560
41.16000 210.443
41.20000 200.435
41.24000 203.738
41.28000 213.366
41.32000 204.343
41.36000 214.413
41.40000 208.044
41.44000 218.733
41.48000 215.325
41.52000 206.905
41.56000 212.029
41.60000 200.252
41.64000 209.581
41.68000 214.057
41.72000 214.128
41.76000 204.083
41.80000 199.297
41.84000 211.508
41.88000 215.065
41.92000 210.201
41.96000 212.677
42.00000 217.481
42.04000 225.920
42.08000 210.210
42.12000 212.289
42.16000 213.238
42.20000 217.626
42.24000 215.109
42.28000 208.141
42.32000 208.584
42.36000 208.905
42.40000 221.015
42.44000 217.615
42.48000 226.475
42.52000 225.712
42.56000 201.378
42.60000 211.779
42.64000 206.587
42.68000 201.642
42.72000 199.389
42.76000 205.775
42.80000 209.741
42.84000 209.387
42.88000 210.566
42.92000 201.138
42.96000 195.141
43.00000 203.063
43.04000 199.690
43.08000 202.566
43.12000 198.470
43.16000 197.890
43.20000 200.507
43.24000 201.039
43.28000 198.581
43.32000 192.373
43.36000 202.945
43.40000 203.788
43.44000 200.848
43.48000 180.531
43.52000 210.350
43.56000 191.656
43.60000 194.847
43.64000 192.721
43.68000 183.672
43.72000 203.747
43.76000 197.566
43.80000 186.409
43.84000 195.960
43.88000 202.704
43.92000 203.175
43.96000 202.158
44.00000 186.556
44.04000 189.404
44.08000 202.814
44.12000 203.572
44.16000 200.437
44.20000 203.599
44.24000 185.003
44.28000 199.199
44.32000 198.760
44.36000 196.554
44.40000 210.310
44.44000 207.347
44.48000 206.756
44.52000 217.080
44.56000 215.441
44.60000 215.395
44.64000 229.450
44.68000 236.419
44.72000 213.076
44.76000 224.742
44.80000 237.828
44.84000 257.694
44.88000 258.979
44.92000 265.341
44.96000 270.923
45.00000 276.606
45.04000 285.135
45.08000 256.833
45.12000 269.693
45.16000 266.253
45.20000 253.228
45.24000 244.626
45.28000 234.063
45.32000 236.714
45.36000 235.056
45.40000 222.784
45.44000 222.655
45.48000 217.390
45.52000 214.085
45.56000 203.704
45.60000 217.283
45.64000 193.722
45.68000 202.112
45.72000 196.629
45.76000 187.471
45.80000 192.166
45.84000 188.375
45.88000 185.002
45.92000 185.186
45.96000 180.394
46.00000 184.680
46.04000 194.505
46.08000 177.989
46.12000 184.340
46.16000 183.865
46.20000 171.407
46.24000 171.996
46.28000 184.401
46.32000 174.469
46.36000 181.924
46.40000 185.054
46.44000 169.101
46.48000 187.665
46.52000 182.988
46.56000 183.115
46.60000 185.204
46.64000 182.314
46.68000 173.924
46.72000 171.695
46.76000 171.967
46.80000 178.167
46.84000 167.113
46.88000 172.438
46.92000 168.184
46.96000 162.910
47.00000 167.331
47.04000 161.421
47.08000 171.802
47.12000 176.846
47.16000 167.735
47.20000 163.410
47.24000 176.323
47.28000 169.624
47.32000 174.197
47.36000 166.696
47.40000 167.066
47.44000 162.344
47.48000 165.805
47.52000 159.550
47.56000 164.633
47.60000 162.049
47.64000 165.429
47.68000 167.106
47.72000 159.623
47.76000 154.299
47.80000 171.675
47.84000 169.091
47.88000 161.673
47.92000 164.023
47.96000 164.082
48.00000 163.977
48.04000 156.449
48.08000 154.941
48.12000 156.701
48.16000 175.115
48.20000 162.612
48.24000 160.618
48.28000 162.280
48.32000 156.654
48.36000 170.735
48.40000 164.547
48.44000 155.451
48.48000 161.995
48.52000 156.243
48.56000 154.428
48.60000 162.195
48.64000 156.821
48.68000 163.841
48.72000 154.444
48.76000 162.964
48.80000 152.441
48.84000 156.004
48.88000 165.612
48.92000 164.177
48.96000 159.886
49.00000 155.290
49.04000 160.614
49.08000 164.756
49.12000 157.606
49.16000 150.293
49.20000 160.561
49.24000 154.695
49.28000 159.645
49.32000 158.105
49.36000 161.794
49.40000 160.799
49.44000 152.599
49.48000 150.991
49.52000 158.634
49.56000 147.075
49.60000 160.784
49.64000 146.703
49.68000 150.846
49.72000 155.214
49.76000 151.186
49.80000 153.656
49.84000 155.820
49.88000 158.281
49.92000 153.056
49.96000 146.626
50.00000 150.403
50.04000 154.976
50.08000 151.848
50.12000 160.213
50.16000 155.270
50.20000 150.337
50.24000 152.730
50.28000 145.942
50.32000 149.678
50.36000 166.555
50.40000 159.041
50.44000 167.451
50.48000 157.154
50.52000 159.111
50.56000 178.434
50.60000 167.812
50.64000 166.705
50.68000 165.856
50.72000 165.352
50.76000 160.632
50.80000 164.884
50.84000 154.113
50.88000 150.918
50.92000 157.263
50.96000 152.965
51.00000 152.269
51.04000 139.775
51.08000 137.348
51.12000 162.226
51.16000 153.485
51.20000 155.028
51.24000 150.374
51.28000 145.430
51.32000 147.858
51.36000 143.809
51.40000 139.770
51.44000 150.343
51.48000 140.088
51.52000 136.481
51.56000 149.625
51.60000 131.621
51.64000 146.087
51.68000 137.303
51.72000 141.085
51.76000 149.531
51.80000 140.856
51.84000 141.379
51.88000 136.690
51.92000 147.641
51.96000 137.529
52.00000 135.281
52.04000 139.631
52.08000 132.522
52.12000 135.914
52.16000 139.769
52.20000 133.837
52.24000 135.225
52.28000 145.827
52.32000 147.557
52.36000 142.813
52.40000 140.434
52.44000 143.169
52.48000 141.917
52.52000 144.874
52.56000 145.123
52.60000 140.901
52.64000 147.214
52.68000 144.124
52.72000 137.980
52.76000 140.879
52.80000 128.970
52.84000 129.819
52.88000 136.412
52.92000 145.265
52.96000 136.133
53.00000 146.645
53.04000 144.013
53.08000 148.377
53.12000 142.362
53.16000 144.475
53.20000 163.016
53.24000 149.569
53.28000 151.383
53.32000 165.738
53.36000 160.200
53.40000 155.798
53.44000 153.277
53.48000 150.918
53.52000 161.680
53.56000 156.991
53.60000 157.980
53.64000 146.273
53.68000 156.997
53.72000 144.955
53.76000 144.726
53.80000 148.512
53.84000 147.369
53.88000 140.839
53.92000 148.174
53.96000 150.869
54.00000 137.822
54.04000 142.327
54.08000 132.950
54.12000 148.420
54.16000 147.406
54.20000 151.622
54.24000 143.601
54.28000 136.517
54.32000 145.157
54.36000 136.234
54.40000 153.937
54.44000 147.140
54.48000 147.262
54.52000 135.568
54.56000 145.632
54.60000 145.569
54.64000 141.330
54.68000 148.939
54.72000 147.284
54.76000 143.021
54.80000 151.465
54.84000 141.266
54.88000 145.639
54.92000 140.339
54.96000 147.548
55.00000 144.972
55.04000 156.760
55.08000 142.899
55.12000 154.592
55.16000 157.335
55.20000 154.364
55.24000 164.974
55.28000 159.964
55.32000 165.927
55.36000 181.299
55.40000 179.233
55.44000 189.853
55.48000 213.055
55.52000 247.023
55.56000 260.058
55.60000 304.292
55.64000 337.598
55.68000 402.829
55.72000 464.844
55.76000 501.317
55.80000 565.661
55.84000 625.798
55.88000 674.455
55.92000 676.399
55.96000 699.893
56.00000 676.515
56.04000 619.952
56.08000 578.410
56.12000 506.563
56.16000 426.648
56.20000 368.469
56.24000 314.450
56.28000 261.374
56.32000 232.920
56.36000 207.397
56.40000 183.378
56.44000 182.338
56.48000 170.560
56.52000 158.673
56.56000 161.241
56.60000 145.718
56.64000 139.942
56.68000 148.218
56.72000 140.975
56.76000 135.340
56.80000 133.112
56.84000 142.597
56.88000 143.593
56.92000 131.204
56.96000 135.698
57.00000 138.606
57.04000 126.936
57.08000 134.001
57.12000 128.526
57.16000 130.401
57.20000 123.887
57.24000 133.845
57.28000 135.793
57.32000 121.302
57.36000 122.001
57.40000 124.888
57.44000 120.630
57.48000 127.662
57.52000 133.016
57.56000 134.511
57.60000 115.666
57.64000 127.918
57.68000 127.631
57.72000 122.284
57.76000 134.033
57.80000 126.277
57.84000 122.629
57.88000 133.435
57.92000 127.050
57.96000 133.715
58.00000 124.181
58.04000 127.615
58.08000 125.828
58.12000 126.758
58.16000 133.279
58.20000 121.010
58.24000 133.070
58.28000 123.715
58.32000 123.791
58.36000 110.109
58.40000 118.253
58.44000 133.159
58.48000 125.263
58.52000 122.030
58.56000 121.301
58.60000 122.128
58.64000 131.605
58.68000 124.213
58.72000 119.358
58.76000 126.095
58.80000 124.295
58.84000 114.219
58.88000 115.399
58.92000 114.318
58.96000 123.498
59.00000 120.516
59.04000 121.648
59.08000 115.201
59.12000 119.020
59.16000 111.548
59.20000 111.559
59.24000 120.479
59.28000 123.761
59.32000 118.278
59.36000 112.011
59.40000 123.579
59.44000 119.730
59.48000 121.816
59.52000 112.016
59.56000 121.068
59.60000 114.765
59.64000 117.152
59.68000 114.973
59.72000 123.250
59.76000 112.622
59.80000 117.239
59.84000 115.033
59.88000 124.494
59.92000 124.979
59.96000 115.752
60.00000 119.255
60.04000 125.549
60.08000 108.175
60.12000 118.302
60.16000 124.568
60.20000 126.338
60.24000 120.390
60.28000 113.524
60.32000 106.150
60.36000 112.869
60.40000 121.117
60.44000 115.875
60.48000 113.908
60.52000 111.761
60.56000 124.330
60.60000 125.515
60.64000 121.838
60.68000 118.245
60.72000 118.959
60.76000 125.704
60.80000 120.972
60.84000 118.456
60.88000 122.758
60.92000 118.787
60.96000 121.442
61.00000 119.513
61.04000 124.665
61.08000 122.987
61.12000 126.433
61.16000 129.618
61.20000 119.906
61.24000 121.053
61.28000 132.196
61.32000 128.360
61.36000 129.817
61.40000 137.326
61.44000 126.798
61.48000 134.860
61.52000 159.320
61.56000 200.720
61.60000 255.010
61.64000 261.023
61.68000 280.248
61.72000 292.473
61.76000 272.415
61.80000 207.735
61.84000 176.843
61.88000 143.562
61.92000 139.806
61.96000 133.438
62.00000 127.476
62.04000 137.465
62.08000 125.714
62.12000 131.105
62.16000 125.660
62.20000 126.963
62.24000 137.797
62.28000 133.346
62.32000 132.796
62.36000 119.963
62.40000 135.609
62.44000 131.429
62.48000 122.223
62.52000 137.601
62.56000 130.254
62.60000 133.409
62.64000 130.395
62.68000 134.339
62.72000 133.347
62.76000 125.842
62.80000 126.800
62.84000 134.333
62.88000 137.054
62.92000 125.027
62.96000 127.308
63.00000 134.475
63.04000 124.691
63.08000 120.190
63.12000 133.585
63.16000 136.550
63.20000 134.324
63.24000 127.437
63.28000 127.290
63.32000 135.193
63.36000 139.409
63.40000 138.674
63.44000 135.419
63.48000 132.273
63.52000 134.175
63.56000 146.790
63.60000 136.353
63.64000 136.632
63.68000 134.287
63.72000 136.789
63.76000 135.549
63.80000 137.605
63.84000 137.710
63.88000 137.191
63.92000 138.360
63.96000 147.268
64.00000 148.117
64.04000 151.822
64.08000 147.528
64.12000 143.298
64.16000 147.615
64.20000 148.742
64.24000 156.474
64.28000 153.933
64.32000 158.547
64.36000 156.396
64.40000 154.297
64.44000 154.282
64.48000 156.795
64.52000 155.156
64.56000 154.588
64.60000 160.505
64.64000 165.951
64.68000 150.555
64.72000 162.155
64.76000 178.224
64.80000 183.039
64.84000 166.125
64.88000 175.040
64.92000 178.927
64.96000 189.887
65.00000 190.389
65.04000 171.355
65.08000 199.415
65.12000 207.169
65.16000 208.866
65.20000 212.318
65.24000 214.070
65.28000 227.866
65.32000 230.991
65.36000 245.540
65.40000 245.818
65.44000 263.436
65.48000 279.160
65.52000 287.220
65.56000 324.456
65.60000 350.854
65.64000 388.431
65.68000 553.807
65.72000 851.571
65.76000 1348.341
65.80000 1685.494
65.84000 1834.136
65.88000 1833.064
65.92000 1762.751
65.96000 1437.448
66.00000 931.097
66.04000 595.905
66.08000 443.962
66.12000 388.848
66.16000 359.121
66.20000 346.858
66.24000 377.858
66.28000 427.014
66.32000 513.026
66.36000 589.700
66.40000 582.045
66.44000 609.332
66.48000 570.682
66.52000 501.199
66.56000 414.820
66.60000 375.570
66.64000 356.082
66.68000 347.865
66.72000 345.647
66.76000 340.934
66.80000 334.235
66.84000 337.238
66.88000 340.687
66.92000 327.696
66.96000 350.040
67.00000 378.008
67.04000 372.189
67.08000 381.193
67.12000 357.896
67.16000 363.323
67.20000 393.556
67.24000 388.153
67.28000 383.749
67.32000 377.509
67.36000 386.830
67.40000 406.774
67.44000 417.832
67.48000 405.632
67.52000 415.227
67.56000 405.092
67.60000 403.382
67.64000 427.123
67.68000 420.892
67.72000 446.486
67.76000 439.936
67.80000 463.341
67.84000 444.910
67.88000 452.867
67.92000 486.251
67.96000 473.956
68.00000 481.334
68.04000 480.847
68.08000 471.278
68.12000 493.462
68.16000 499.018
68.20000 511.847
68.24000 517.162
68.28000 555.916
68.32000 544.244
68.36000 566.320
68.40000 603.682
68.44000 597.577
68.48000 643.008
68.52000 680.184
68.56000 727.146
68.60000 812.385
68.64000 929.732
68.68000 1057.276
68.72000 1258.485
68.76000 1378.815
68.80000 1590.024
68.84000 1811.158
68.88000 2220.575
68.92000 3630.670
68.96000 9022.198
69.00000 20671.340
69.04000 32512.904
69.08000 38750.348
69.12000 41267.203
69.16000 43921.965
69.20000 43045.539
69.24000 33958.773
69.28000 25053.502
69.32000 21044.047
69.36000 19662.105
69.40000 16272.901
69.44000 9536.009
69.48000 4289.392
69.52000 2004.939
69.56000 1269.967
69.60000 1002.389
69.64000 842.703
69.68000 758.953
69.72000 693.508
69.76000 646.616
69.80000 600.007
69.84000 569.620
69.88000 573.266
69.92000 542.002
69.96000 512.351
70.00000 485.467