File: XRD/08-10-2025 Dep 7/XY Data/BTO_Mapping_Theta2Theta_08-10-2025_001_26_-8-090_5-878.xy
20.00000 476.013
20.04000 476.243
20.08000 477.103
20.12000 480.450
20.16000 485.965
20.20000 454.528
20.24000 470.372
20.28000 469.297
20.32000 471.873
20.36000 472.628
20.40000 485.171
20.44000 474.952
20.48000 470.515
20.52000 454.907
20.56000 461.668
20.60000 457.654
20.64000 469.146
20.68000 466.710
20.72000 467.483
20.76000 459.368
20.80000 472.444
20.84000 450.511
20.88000 451.065
20.92000 474.152
20.96000 463.070
21.00000 451.956
21.04000 458.297
21.08000 465.967
21.12000 478.865
21.16000 473.721
21.20000 452.161
21.24000 473.190
21.28000 455.810
21.32000 472.201
21.36000 485.746
21.40000 464.156
21.44000 466.552
21.48000 454.935
21.52000 469.875
21.56000 467.267
21.60000 457.270
21.64000 477.403
21.68000 462.255
21.72000 472.489
21.76000 466.144
21.80000 471.122
21.84000 488.974
21.88000 492.583
21.92000 509.860
21.96000 517.965
22.00000 521.894
22.04000 533.031
22.08000 547.210
22.12000 527.810
22.16000 521.776
22.20000 519.331
22.24000 503.576
22.28000 492.058
22.32000 486.748
22.36000 469.948
22.40000 480.308
22.44000 473.203
22.48000 475.089
22.52000 461.027
22.56000 451.554
22.60000 462.335
22.64000 451.661
22.68000 445.657
22.72000 445.596
22.76000 433.183
22.80000 421.810
22.84000 434.568
22.88000 430.927
22.92000 439.757
22.96000 437.024
23.00000 433.720
23.04000 445.956
23.08000 424.685
23.12000 422.483
23.16000 442.159
23.20000 442.432
23.24000 431.976
23.28000 426.987
23.32000 431.250
23.36000 420.938
23.40000 432.369
23.44000 430.535
23.48000 411.911
23.52000 434.999
23.56000 413.258
23.60000 427.831
23.64000 444.834
23.68000 437.238
23.72000 460.972
23.76000 452.827
23.80000 475.447
23.84000 468.063
23.88000 469.042
23.92000 481.840
23.96000 463.728
24.00000 458.599
24.04000 480.295
24.08000 460.791
24.12000 465.459
24.16000 439.666
24.20000 463.601
24.24000 452.924
24.28000 457.125
24.32000 439.085
24.36000 424.026
24.40000 422.328
24.44000 404.934
24.48000 423.795
24.52000 433.902
24.56000 433.075
24.60000 420.236
24.64000 410.563
24.68000 407.709
24.72000 421.054
24.76000 394.070
24.80000 390.853
24.84000 410.947
24.88000 411.296
24.92000 399.304
24.96000 405.958
25.00000 426.204
25.04000 402.811
25.08000 402.621
25.12000 404.677
25.16000 395.283
25.20000 402.995
25.24000 394.477
25.28000 401.061
25.32000 395.448
25.36000 398.123
25.40000 394.466
25.44000 396.680
25.48000 401.498
25.52000 383.827
25.56000 403.131
25.60000 399.532
25.64000 397.709
25.68000 395.726
25.72000 394.387
25.76000 400.490
25.80000 380.804
25.84000 398.298
25.88000 400.069
25.92000 393.211
25.96000 391.092
26.00000 383.854
26.04000 396.264
26.08000 389.991
26.12000 389.450
26.16000 381.384
26.20000 399.749
26.24000 390.236
26.28000 385.939
26.32000 374.732
26.36000 381.336
26.40000 388.539
26.44000 382.927
26.48000 375.765
26.52000 388.203
26.56000 382.023
26.60000 381.670
26.64000 380.231
26.68000 378.105
26.72000 398.980
26.76000 390.790
26.80000 390.161
26.84000 366.687
26.88000 359.417
26.92000 362.860
26.96000 361.514
27.00000 373.063
27.04000 377.518
27.08000 390.111
27.12000 365.695
27.16000 368.818
27.20000 373.855
27.24000 382.288
27.28000 382.116
27.32000 364.258
27.36000 378.585
27.40000 359.580
27.44000 372.224
27.48000 378.546
27.52000 376.760
27.56000 348.437
27.60000 364.331
27.64000 377.018
27.68000 387.866
27.72000 366.153
27.76000 375.084
27.80000 368.504
27.84000 367.375
27.88000 362.690
27.92000 350.455
27.96000 360.037
28.00000 368.551
28.04000 373.718
28.08000 351.551
28.12000 379.401
28.16000 372.613
28.20000 389.312
28.24000 371.329
28.28000 362.968
28.32000 362.460
28.36000 363.014
28.40000 377.407
28.44000 354.529
28.48000 355.028
28.52000 363.625
28.56000 345.646
28.60000 368.507
28.64000 349.280
28.68000 347.777
28.72000 369.692
28.76000 361.263
28.80000 363.116
28.84000 355.978
28.88000 362.058
28.92000 354.864
28.96000 352.146
29.00000 358.049
29.04000 341.694
29.08000 352.764
29.12000 359.162
29.16000 352.437
29.20000 359.684
29.24000 352.467
29.28000 360.082
29.32000 365.246
29.36000 370.226
29.40000 355.605
29.44000 336.751
29.48000 347.219
29.52000 335.461
29.56000 364.017
29.60000 357.144
29.64000 357.645
29.68000 345.563
29.72000 361.607
29.76000 340.412
29.80000 361.619
29.84000 370.135
29.88000 359.293
29.92000 356.366
29.96000 382.097
30.00000 369.689
30.04000 375.561
30.08000 385.514
30.12000 381.825
30.16000 371.978
30.20000 364.743
30.24000 367.023
30.28000 366.331
30.32000 366.547
30.36000 353.575
30.40000 342.719
30.44000 358.130
30.48000 355.955
30.52000 362.115
30.56000 352.354
30.60000 357.439
30.64000 369.094
30.68000 371.952
30.72000 339.642
30.76000 371.155
30.80000 370.191
30.84000 384.124
30.88000 376.505
30.92000 386.123
30.96000 404.341
31.00000 415.725
31.04000 464.335
31.08000 512.534
31.12000 584.224
31.16000 684.519
31.20000 806.608
31.24000 915.459
31.28000 1041.633
31.32000 1113.921
31.36000 1163.495
31.40000 1157.518
31.44000 1119.056
31.48000 1033.452
31.52000 876.128
31.56000 751.329
31.60000 648.791
31.64000 556.841
31.68000 494.862
31.72000 438.959
31.76000 426.489
31.80000 395.243
31.84000 394.639
31.88000 359.010
31.92000 358.691
31.96000 360.084
32.00000 335.450
32.04000 328.867
32.08000 335.160
32.12000 342.545
32.16000 340.251
32.20000 317.686
32.24000 323.007
32.28000 314.236
32.32000 322.665
32.36000 315.219
32.40000 325.069
32.44000 322.731
32.48000 322.774
32.52000 313.071
32.56000 315.469
32.60000 309.388
32.64000 315.422
32.68000 313.527
32.72000 314.830
32.76000 313.154
32.80000 319.335
32.84000 315.219
32.88000 328.664
32.92000 327.846
32.96000 326.970
33.00000 307.396
33.04000 318.283
33.08000 322.596
33.12000 306.093
33.16000 308.632
33.20000 302.981
33.24000 303.380
33.28000 293.517
33.32000 291.684
33.36000 308.749
33.40000 285.689
33.44000 294.644
33.48000 290.715
33.52000 297.153
33.56000 293.725
33.60000 292.568
33.64000 297.327
33.68000 298.925
33.72000 291.534
33.76000 294.071
33.80000 289.587
33.84000 307.031
33.88000 309.195
33.92000 298.846
33.96000 312.044
34.00000 300.965
34.04000 312.790
34.08000 316.349
34.12000 339.656
34.16000 318.199
34.20000 321.673
34.24000 339.342
34.28000 352.822
34.32000 353.765
34.36000 356.580
34.40000 355.174
34.44000 362.239
34.48000 345.803
34.52000 327.331
34.56000 355.646
34.60000 329.766
34.64000 331.363
34.68000 295.131
34.72000 301.602
34.76000 287.712
34.80000 285.310
34.84000 277.524
34.88000 293.970
34.92000 273.036
34.96000 275.676
35.00000 282.084
35.04000 276.645
35.08000 274.628
35.12000 266.860
35.16000 274.072
35.20000 267.403
35.24000 275.179
35.28000 270.900
35.32000 284.084
35.36000 261.024
35.40000 262.956
35.44000 268.881
35.48000 269.682
35.52000 262.166
35.56000 276.950
35.60000 264.617
35.64000 270.816
35.68000 272.746
35.72000 261.106
35.76000 274.056
35.80000 273.272
35.84000 267.818
35.88000 271.292
35.92000 252.398
35.96000 258.674
36.00000 267.112
36.04000 268.571
36.08000 263.907
36.12000 245.375
36.16000 250.059
36.20000 256.970
36.24000 263.106
36.28000 255.185
36.32000 260.853
36.36000 258.434
36.40000 250.360
36.44000 265.557
36.48000 248.494
36.52000 274.450
36.56000 258.699
36.60000 264.200
36.64000 265.122
36.68000 257.754
36.72000 257.680
36.76000 260.618
36.80000 265.896
36.84000 256.438
36.88000 273.364
36.92000 281.297
36.96000 280.455
37.00000 284.193
37.04000 295.332
37.08000 293.832
37.12000 282.933
37.16000 268.121
37.20000 271.619
37.24000 267.859
37.28000 269.645
37.32000 277.834
37.36000 270.436
37.40000 261.517
37.44000 267.988
37.48000 260.517
37.52000 264.816
37.56000 256.315
37.60000 258.553
37.64000 252.663
37.68000 249.553
37.72000 261.192
37.76000 258.640
37.80000 254.848
37.84000 273.002
37.88000 261.034
37.92000 256.592
37.96000 247.566
38.00000 243.059
38.04000 264.873
38.08000 264.424
38.12000 260.812
38.16000 271.231
38.20000 268.570
38.24000 289.959
38.28000 288.945
38.32000 317.824
38.36000 357.190
38.40000 394.079
38.44000 480.280
38.48000 590.251
38.52000 686.172
38.56000 833.983
38.60000 937.905
38.64000 1074.065
38.68000 1184.856
38.72000 1214.815
38.76000 1178.481
38.80000 1097.470
38.84000 943.131
38.88000 791.424
38.92000 676.935
38.96000 541.724
39.00000 416.560
39.04000 356.281
39.08000 298.575
39.12000 288.590
39.16000 268.581
39.20000 261.894
39.24000 236.564
39.28000 233.249
39.32000 250.049
39.36000 242.406
39.40000 230.692
39.44000 235.474
39.48000 226.235
39.52000 220.906
39.56000 245.772
39.60000 240.514
39.64000 241.135
39.68000 219.024
39.72000 223.873
39.76000 240.519
39.80000 211.397
39.84000 225.015
39.88000 222.268
39.92000 241.475
39.96000 211.313
40.00000 229.580
40.04000 215.042
40.08000 222.883
40.12000 237.118
40.16000 219.294
40.20000 224.441
40.24000 215.429
40.28000 222.880
40.32000 227.227
40.36000 230.555
40.40000 210.455
40.44000 220.184
40.48000 209.594
40.52000 231.476
40.56000 233.850
40.60000 228.707
40.64000 214.546
40.68000 220.634
40.72000 206.177
40.76000 215.183
40.80000 208.278
40.84000 218.803
40.88000 212.722
40.92000 216.684
40.96000 210.943
41.00000 222.840
41.04000 214.795
41.08000 201.540
41.12000 209.928
41.16000 204.586
41.20000 210.872
41.24000 207.176
41.28000 216.417
41.32000 204.955
41.36000 213.322
41.40000 222.852
41.44000 213.546
41.48000 205.279
41.52000 213.954
41.56000 212.312
41.60000 204.090
41.64000 208.713
41.68000 189.777
41.72000 216.108
41.76000 211.069
41.80000 204.702
41.84000 202.366
41.88000 204.696
41.92000 211.567
41.96000 218.284
42.00000 219.216
42.04000 206.514
42.08000 203.315
42.12000 209.177
42.16000 217.934
42.20000 215.141
42.24000 208.942
42.28000 217.659
42.32000 204.429
42.36000 202.932
42.40000 210.960
42.44000 210.955
42.48000 202.872
42.52000 203.407
42.56000 216.592
42.60000 202.481
42.64000 207.775
42.68000 197.268
42.72000 212.149
42.76000 203.513
42.80000 217.342
42.84000 208.716
42.88000 200.255
42.92000 200.640
42.96000 191.292
43.00000 201.171
43.04000 199.436
43.08000 205.885
43.12000 198.686
43.16000 201.454
43.20000 207.362
43.24000 201.443
43.28000 199.846
43.32000 203.603
43.36000 200.916
43.40000 193.188
43.44000 200.141
43.48000 177.266
43.52000 184.513
43.56000 194.459
43.60000 200.513
43.64000 193.153
43.68000 199.883
43.72000 195.202
43.76000 203.371
43.80000 181.662
43.84000 189.556
43.88000 202.438
43.92000 194.860
43.96000 185.279
44.00000 170.854
44.04000 188.440
44.08000 194.612
44.12000 198.788
44.16000 203.613
44.20000 194.838
44.24000 188.254
44.28000 195.000
44.32000 200.450
44.36000 197.791
44.40000 204.825
44.44000 207.362
44.48000 191.404
44.52000 207.912
44.56000 219.922
44.60000 216.274
44.64000 214.664
44.68000 217.123
44.72000 217.980
44.76000 247.242
44.80000 242.460
44.84000 240.745
44.88000 239.975
44.92000 255.106
44.96000 245.283
45.00000 250.199
45.04000 256.455
45.08000 257.776
45.12000 261.247
45.16000 240.968
45.20000 245.503
45.24000 232.851
45.28000 245.887
45.32000 250.621
45.36000 218.312
45.40000 231.168
45.44000 225.377
45.48000 215.177
45.52000 218.075
45.56000 212.252
45.60000 214.091
45.64000 213.881
45.68000 200.800
45.72000 201.998
45.76000 204.499
45.80000 205.177
45.84000 194.978
45.88000 205.636
45.92000 190.093
45.96000 185.405
46.00000 195.024
46.04000 186.778
46.08000 188.632
46.12000 176.925
46.16000 173.399
46.20000 182.711
46.24000 174.294
46.28000 175.413
46.32000 173.504
46.36000 180.621
46.40000 170.708
46.44000 182.363
46.48000 182.817
46.52000 165.112
46.56000 173.901
46.60000 180.655
46.64000 171.845
46.68000 174.825
46.72000 163.460
46.76000 178.131
46.80000 174.968
46.84000 169.988
46.88000 178.721
46.92000 181.774
46.96000 176.201
47.00000 171.614
47.04000 165.040
47.08000 171.859
47.12000 171.432
47.16000 178.511
47.20000 170.271
47.24000 165.400
47.28000 166.649
47.32000 168.821
47.36000 175.156
47.40000 168.429
47.44000 164.278
47.48000 153.316
47.52000 161.814
47.56000 165.742
47.60000 161.872
47.64000 159.410
47.68000 161.067
47.72000 160.043
47.76000 154.026
47.80000 155.991
47.84000 156.890
47.88000 167.935
47.92000 156.973
47.96000 153.633
48.00000 155.919
48.04000 156.004
48.08000 156.385
48.12000 163.918
48.16000 165.819
48.20000 158.506
48.24000 157.441
48.28000 163.125
48.32000 154.104
48.36000 150.023
48.40000 155.288
48.44000 160.907
48.48000 170.790
48.52000 164.108
48.56000 150.301
48.60000 147.286
48.64000 165.207
48.68000 155.768
48.72000 155.447
48.76000 155.852
48.80000 149.437
48.84000 159.506
48.88000 154.722
48.92000 155.192
48.96000 156.891
49.00000 155.817
49.04000 143.288
49.08000 143.369
49.12000 145.955
49.16000 152.633
49.20000 151.733
49.24000 156.010
49.28000 152.782
49.32000 148.714
49.36000 147.111
49.40000 163.137
49.44000 156.268
49.48000 151.825
49.52000 152.964
49.56000 159.990
49.60000 155.740
49.64000 148.296
49.68000 148.575
49.72000 160.953
49.76000 149.210
49.80000 157.100
49.84000 150.310
49.88000 150.700
49.92000 155.954
49.96000 152.679
50.00000 152.640
50.04000 150.221
50.08000 155.631
50.12000 155.611
50.16000 145.106
50.20000 159.646
50.24000 152.092
50.28000 157.353
50.32000 146.867
50.36000 158.393
50.40000 161.434
50.44000 160.892
50.48000 158.415
50.52000 166.050
50.56000 180.682
50.60000 176.187
50.64000 172.818
50.68000 179.881
50.72000 170.735
50.76000 168.155
50.80000 168.994
50.84000 169.401
50.88000 175.406
50.92000 156.935
50.96000 175.325
51.00000 160.948
51.04000 151.911
51.08000 156.512
51.12000 146.616
51.16000 152.979
51.20000 149.309
51.24000 159.117
51.28000 147.603
51.32000 143.403
51.36000 152.808
51.40000 151.496
51.44000 140.941
51.48000 144.497
51.52000 137.910
51.56000 140.224
51.60000 146.802
51.64000 142.560
51.68000 134.516
51.72000 142.792
51.76000 140.686
51.80000 155.493
51.84000 136.680
51.88000 149.956
51.92000 139.878
51.96000 147.610
52.00000 145.205
52.04000 140.289
52.08000 142.169
52.12000 146.468
52.16000 133.994
52.20000 152.494
52.24000 151.069
52.28000 143.637
52.32000 136.057
52.36000 136.977
52.40000 143.156
52.44000 131.231
52.48000 138.354
52.52000 138.401
52.56000 133.238
52.60000 135.217
52.64000 138.657
52.68000 140.940
52.72000 139.342
52.76000 134.903
52.80000 133.413
52.84000 133.512
52.88000 137.872
52.92000 144.053
52.96000 154.163
53.00000 149.039
53.04000 151.984
53.08000 142.138
53.12000 165.987
53.16000 156.019
53.20000 145.347
53.24000 157.762
53.28000 152.426
53.32000 157.063
53.36000 186.392
53.40000 159.502
53.44000 149.059
53.48000 154.391
53.52000 156.419
53.56000 157.183
53.60000 146.719
53.64000 148.532
53.68000 154.483
53.72000 149.536
53.76000 142.880
53.80000 144.460
53.84000 143.856
53.88000 141.551
53.92000 139.835
53.96000 139.090
54.00000 142.497
54.04000 136.343
54.08000 138.546
54.12000 150.103
54.16000 141.579
54.20000 148.432
54.24000 145.994
54.28000 135.432
54.32000 135.560
54.36000 140.540
54.40000 132.401
54.44000 143.453
54.48000 143.385
54.52000 139.850
54.56000 137.610
54.60000 154.048
54.64000 149.373
54.68000 142.781
54.72000 141.373
54.76000 146.566
54.80000 135.996
54.84000 138.487
54.88000 146.940
54.92000 134.262
54.96000 145.622
55.00000 140.284
55.04000 134.491
55.08000 142.681
55.12000 143.854
55.16000 158.690
55.20000 156.492
55.24000 151.460
55.28000 167.118
55.32000 177.108
55.36000 178.322
55.40000 182.103
55.44000 192.439
55.48000 217.300
55.52000 229.364
55.56000 269.008
55.60000 280.152
55.64000 330.406
55.68000 402.970
55.72000 465.216
55.76000 526.216
55.80000 610.440
55.84000 667.679
55.88000 694.940
55.92000 711.979
55.96000 712.799
56.00000 675.450
56.04000 633.963
56.08000 578.651
56.12000 523.370
56.16000 445.779
56.20000 385.542
56.24000 340.120
56.28000 289.124
56.32000 248.613
56.36000 215.783
56.40000 190.853
56.44000 177.595
56.48000 168.436
56.52000 157.037
56.56000 146.432
56.60000 142.657
56.64000 147.157
56.68000 153.712
56.72000 144.811
56.76000 138.000
56.80000 130.640
56.84000 136.390
56.88000 146.943
56.92000 132.067
56.96000 128.767
57.00000 125.019
57.04000 126.694
57.08000 115.250
57.12000 124.436
57.16000 129.733
57.20000 124.589
57.24000 128.707
57.28000 123.877
57.32000 128.684
57.36000 119.083
57.40000 130.870
57.44000 133.143
57.48000 127.414
57.52000 131.525
57.56000 125.676
57.60000 117.221
57.64000 130.663
57.68000 124.112
57.72000 124.828
57.76000 129.490
57.80000 130.976
57.84000 129.607
57.88000 134.139
57.92000 125.895
57.96000 120.936
58.00000 117.596
58.04000 114.846
58.08000 119.091
58.12000 118.130
58.16000 115.741
58.20000 117.987
58.24000 122.942
58.28000 117.939
58.32000 123.239
58.36000 121.704
58.40000 121.391
58.44000 130.212
58.48000 126.115
58.52000 115.232
58.56000 125.554
58.60000 119.986
58.64000 116.613
58.68000 120.666
58.72000 114.608
58.76000 120.485
58.80000 124.439
58.84000 112.172
58.88000 120.348
58.92000 118.097
58.96000 128.905
59.00000 119.970
59.04000 119.898
59.08000 118.452
59.12000 119.912
59.16000 121.735
59.20000 115.674
59.24000 124.609
59.28000 117.413
59.32000 115.806
59.36000 113.173
59.40000 129.075
59.44000 118.807
59.48000 114.777
59.52000 117.707
59.56000 111.721
59.60000 117.667
59.64000 111.507
59.68000 125.785
59.72000 120.217
59.76000 122.517
59.80000 126.438
59.84000 114.443
59.88000 114.732
59.92000 120.476
59.96000 104.720
60.00000 111.627
60.04000 114.945
60.08000 123.054
60.12000 116.051
60.16000 110.276
60.20000 116.492
60.24000 119.274
60.28000 119.155
60.32000 111.297
60.36000 120.388
60.40000 117.777
60.44000 129.524
60.48000 117.490
60.52000 123.426
60.56000 114.848
60.60000 131.229
60.64000 124.209
60.68000 117.938
60.72000 122.643
60.76000 119.767
60.80000 122.655
60.84000 121.254
60.88000 125.931
60.92000 116.638
60.96000 116.770
61.00000 117.549
61.04000 128.076
61.08000 117.332
61.12000 121.337
61.16000 123.121
61.20000 122.386
61.24000 124.423
61.28000 126.412
61.32000 122.442
61.36000 134.441
61.40000 123.011
61.44000 124.949
61.48000 137.228
61.52000 150.049
61.56000 200.244
61.60000 253.831
61.64000 277.792
61.68000 288.479
61.72000 303.190
61.76000 287.314
61.80000 232.392
61.84000 187.034
61.88000 150.538
61.92000 138.518
61.96000 127.715
62.00000 128.014
62.04000 134.702
62.08000 127.577
62.12000 120.904
62.16000 125.930
62.20000 128.580
62.24000 129.467
62.28000 118.713
62.32000 126.768
62.36000 119.227
62.40000 120.759
62.44000 132.374
62.48000 123.159
62.52000 130.115
62.56000 127.566
62.60000 118.327
62.64000 125.599
62.68000 115.991
62.72000 127.798
62.76000 127.245
62.80000 126.069
62.84000 133.436
62.88000 127.976
62.92000 138.071
62.96000 141.920
63.00000 127.452
63.04000 131.509
63.08000 132.162
63.12000 131.850
63.16000 131.066
63.20000 133.437
63.24000 130.373
63.28000 126.468
63.32000 138.790
63.36000 131.281
63.40000 133.043
63.44000 123.816
63.48000 143.571
63.52000 133.924
63.56000 125.399
63.60000 128.389
63.64000 144.412
63.68000 133.755
63.72000 135.418
63.76000 142.216
63.80000 140.269
63.84000 142.883
63.88000 141.421
63.92000 142.399
63.96000 146.580
64.00000 151.958
64.04000 147.662
64.08000 138.903
64.12000 152.368
64.16000 144.805
64.20000 158.049
64.24000 162.027
64.28000 145.892
64.32000 154.460
64.36000 148.822
64.40000 154.439
64.44000 152.947
64.48000 153.903
64.52000 163.023
64.56000 161.063
64.60000 147.477
64.64000 158.107
64.68000 162.718
64.72000 156.148
64.76000 168.424
64.80000 164.696
64.84000 173.132
64.88000 189.694
64.92000 177.833
64.96000 189.418
65.00000 170.441
65.04000 191.540
65.08000 209.026
65.12000 199.098
65.16000 217.411
65.20000 209.882
65.24000 229.297
65.28000 240.907
65.32000 241.866
65.36000 254.495
65.40000 255.831
65.44000 260.877
65.48000 279.482
65.52000 291.313
65.56000 332.473
65.60000 343.788
65.64000 395.477
65.68000 534.088
65.72000 815.458
65.76000 1245.523
65.80000 1727.651
65.84000 1981.151
65.88000 2016.789
65.92000 1953.356
65.96000 1661.948
66.00000 1146.631
66.04000 722.631
66.08000 484.468
66.12000 403.627
66.16000 353.222
66.20000 361.889
66.24000 378.237
66.28000 445.155
66.32000 514.111
66.36000 614.787
66.40000 634.563
66.44000 633.787
66.48000 606.433
66.52000 556.705
66.56000 460.977
66.60000 401.654
66.64000 372.555
66.68000 366.799
66.72000 338.485
66.76000 348.335
66.80000 347.868
66.84000 349.655
66.88000 366.366
66.92000 359.064
66.96000 361.780
67.00000 375.131
67.04000 366.573
67.08000 356.169
67.12000 387.549
67.16000 379.053
67.20000 384.952
67.24000 383.579
67.28000 411.301
67.32000 396.855
67.36000 399.320
67.40000 403.654
67.44000 413.264
67.48000 425.096
67.52000 404.366
67.56000 418.574
67.60000 438.703
67.64000 450.849
67.68000 452.550
67.72000 433.402
67.76000 450.990
67.80000 473.599
67.84000 439.908
67.88000 479.443
67.92000 479.458
67.96000 482.821
68.00000 481.084
68.04000 491.610
68.08000 507.149
68.12000 517.847
68.16000 521.784
68.20000 552.875
68.24000 533.199
68.28000 557.402
68.32000 582.461
68.36000 607.180
68.40000 607.137
68.44000 633.020
68.48000 651.737
68.52000 710.218
68.56000 731.755
68.60000 811.250
68.64000 937.714
68.68000 1104.282
68.72000 1271.264
68.76000 1428.037
68.80000 1608.075
68.84000 1814.614
68.88000 2219.789
68.92000 3312.410
68.96000 7520.217
69.00000 18820.016
69.04000 32771.473
69.08000 41133.129
69.12000 44280.113
69.16000 47482.301
69.20000 48048.027
69.24000 40246.695
69.28000 29864.852
69.32000 23608.572
69.36000 22105.578
69.40000 19041.844
69.44000 12345.466
69.48000 5895.476
69.52000 2664.196
69.56000 1472.608
69.60000 1130.730
69.64000 945.545
69.68000 841.939
69.72000 740.557
69.76000 695.942
69.80000 629.120
69.84000 613.159
69.88000 556.107
69.92000 542.771
69.96000 535.854
70.00000 521.167