File: XRD/08-10-2025 Dep 7/XY Data/BTO_Mapping_Theta2Theta_08-10-2025_001_17_12-361_38-042.xy
20.00000 483.280
20.04000 483.560
20.08000 458.942
20.12000 467.070
20.16000 464.600
20.20000 467.524
20.24000 471.178
20.28000 475.152
20.32000 480.057
20.36000 471.025
20.40000 470.551
20.44000 467.313
20.48000 461.562
20.52000 481.425
20.56000 453.648
20.60000 456.919
20.64000 461.553
20.68000 458.286
20.72000 464.186
20.76000 479.113
20.80000 474.128
20.84000 480.098
20.88000 467.344
20.92000 471.167
20.96000 470.914
21.00000 476.498
21.04000 469.072
21.08000 474.574
21.12000 459.941
21.16000 459.012
21.20000 465.188
21.24000 466.394
21.28000 467.964
21.32000 447.897
21.36000 478.677
21.40000 467.159
21.44000 458.999
21.48000 488.802
21.52000 475.907
21.56000 454.659
21.60000 469.238
21.64000 478.446
21.68000 464.910
21.72000 462.127
21.76000 476.177
21.80000 462.001
21.84000 483.021
21.88000 487.283
21.92000 480.036
21.96000 487.985
22.00000 506.912
22.04000 509.673
22.08000 508.531
22.12000 497.314
22.16000 487.473
22.20000 503.056
22.24000 503.556
22.28000 477.221
22.32000 478.235
22.36000 480.929
22.40000 461.394
22.44000 465.953
22.48000 487.388
22.52000 475.986
22.56000 466.549
22.60000 459.532
22.64000 453.206
22.68000 459.504
22.72000 449.069
22.76000 434.220
22.80000 446.360
22.84000 453.508
22.88000 453.632
22.92000 431.402
22.96000 468.495
23.00000 459.960
23.04000 429.852
23.08000 439.692
23.12000 456.848
23.16000 439.881
23.20000 443.115
23.24000 430.977
23.28000 445.217
23.32000 419.260
23.36000 430.990
23.40000 439.081
23.44000 448.553
23.48000 457.688
23.52000 465.739
23.56000 473.846
23.60000 448.257
23.64000 457.138
23.68000 468.946
23.72000 479.103
23.76000 479.274
23.80000 500.281
23.84000 482.994
23.88000 506.523
23.92000 511.367
23.96000 553.649
24.00000 530.481
24.04000 515.615
24.08000 530.057
24.12000 497.471
24.16000 496.438
24.20000 491.285
24.24000 475.196
24.28000 471.260
24.32000 439.395
24.36000 442.507
24.40000 436.889
24.44000 426.615
24.48000 436.302
24.52000 434.301
24.56000 430.522
24.60000 429.818
24.64000 413.091
24.68000 415.955
24.72000 418.606
24.76000 414.519
24.80000 420.011
24.84000 424.177
24.88000 414.900
24.92000 409.406
24.96000 415.140
25.00000 415.341
25.04000 415.463
25.08000 417.281
25.12000 397.681
25.16000 405.003
25.20000 412.698
25.24000 412.464
25.28000 409.506
25.32000 402.154
25.36000 405.469
25.40000 408.083
25.44000 406.605
25.48000 406.268
25.52000 407.170
25.56000 405.986
25.60000 403.143
25.64000 390.430
25.68000 392.212
25.72000 406.029
25.76000 389.982
25.80000 394.801
25.84000 390.800
25.88000 408.991
25.92000 385.675
25.96000 409.218
26.00000 391.934
26.04000 423.377
26.08000 393.387
26.12000 394.182
26.16000 377.586
26.20000 393.673
26.24000 374.908
26.28000 397.523
26.32000 390.788
26.36000 372.868
26.40000 384.052
26.44000 400.288
26.48000 385.340
26.52000 393.345
26.56000 395.059
26.60000 378.385
26.64000 368.045
26.68000 375.468
26.72000 369.881
26.76000 376.324
26.80000 389.843
26.84000 392.800
26.88000 375.916
26.92000 402.687
26.96000 379.813
27.00000 396.562
27.04000 381.972
27.08000 381.584
27.12000 389.377
27.16000 376.063
27.20000 385.024
27.24000 380.187
27.28000 389.733
27.32000 387.267
27.36000 366.569
27.40000 374.302
27.44000 378.592
27.48000 369.928
27.52000 373.963
27.56000 372.075
27.60000 374.709
27.64000 362.143
27.68000 362.063
27.72000 369.541
27.76000 375.286
27.80000 378.012
27.84000 358.327
27.88000 373.675
27.92000 358.719
27.96000 359.572
28.00000 361.131
28.04000 358.118
28.08000 357.283
28.12000 363.465
28.16000 371.643
28.20000 364.490
28.24000 363.541
28.28000 370.120
28.32000 359.910
28.36000 356.340
28.40000 348.972
28.44000 363.989
28.48000 358.096
28.52000 371.915
28.56000 367.541
28.60000 379.662
28.64000 367.782
28.68000 368.303
28.72000 355.878
28.76000 353.334
28.80000 360.752
28.84000 364.001
28.88000 377.698
28.92000 370.158
28.96000 354.002
29.00000 346.047
29.04000 363.670
29.08000 362.312
29.12000 363.011
29.16000 367.939
29.20000 366.169
29.24000 375.788
29.28000 365.085
29.32000 373.717
29.36000 364.402
29.40000 367.342
29.44000 369.614
29.48000 350.356
29.52000 355.036
29.56000 360.446
29.60000 368.129
29.64000 360.771
29.68000 381.368
29.72000 378.982
29.76000 383.481
29.80000 373.295
29.84000 377.792
29.88000 376.638
29.92000 371.938
29.96000 381.321
30.00000 385.188
30.04000 388.122
30.08000 382.854
30.12000 383.685
30.16000 381.234
30.20000 367.250
30.24000 384.134
30.28000 386.301
30.32000 381.388
30.36000 381.750
30.40000 367.938
30.44000 369.996
30.48000 369.776
30.52000 383.416
30.56000 380.755
30.60000 374.004
30.64000 383.854
30.68000 391.817
30.72000 392.430
30.76000 385.606
30.80000 371.498
30.84000 386.806
30.88000 414.357
30.92000 434.520
30.96000 436.324
31.00000 475.814
31.04000 497.844
31.08000 511.765
31.12000 564.271
31.16000 663.606
31.20000 759.808
31.24000 865.194
31.28000 946.089
31.32000 1024.441
31.36000 1078.068
31.40000 1075.082
31.44000 1079.910
31.48000 992.370
31.52000 912.176
31.56000 806.625
31.60000 711.509
31.64000 619.880
31.68000 544.372
31.72000 497.252
31.76000 444.079
31.80000 439.391
31.84000 407.054
31.88000 405.703
31.92000 386.707
31.96000 381.453
32.00000 379.634
32.04000 387.693
32.08000 358.789
32.12000 350.138
32.16000 346.311
32.20000 360.418
32.24000 335.771
32.28000 361.927
32.32000 359.646
32.36000 340.496
32.40000 336.264
32.44000 346.862
32.48000 330.976
32.52000 330.399
32.56000 322.243
32.60000 337.340
32.64000 332.080
32.68000 322.249
32.72000 319.503
32.76000 311.384
32.80000 328.275
32.84000 318.787
32.88000 314.705
32.92000 322.298
32.96000 317.162
33.00000 319.116
33.04000 316.953
33.08000 313.636
33.12000 290.604
33.16000 288.120
33.20000 288.826
33.24000 309.543
33.28000 299.896
33.32000 310.344
33.36000 303.066
33.40000 290.831
33.44000 297.100
33.48000 291.437
33.52000 295.681
33.56000 297.477
33.60000 301.145
33.64000 301.609
33.68000 300.700
33.72000 303.785
33.76000 296.696
33.80000 293.299
33.84000 324.987
33.88000 313.774
33.92000 308.008
33.96000 306.228
34.00000 298.221
34.04000 302.351
34.08000 311.881
34.12000 319.407
34.16000 323.342
34.20000 330.354
34.24000 329.939
34.28000 326.329
34.32000 341.113
34.36000 330.200
34.40000 334.536
34.44000 320.148
34.48000 326.773
34.52000 331.167
34.56000 314.501
34.60000 302.727
34.64000 304.148
34.68000 303.676
34.72000 305.256
34.76000 278.587
34.80000 289.453
34.84000 277.839
34.88000 277.193
34.92000 270.871
34.96000 271.555
35.00000 279.734
35.04000 281.197
35.08000 266.683
35.12000 273.729
35.16000 262.754
35.20000 274.649
35.24000 269.174
35.28000 261.886
35.32000 262.524
35.36000 260.495
35.40000 266.319
35.44000 259.118
35.48000 245.777
35.52000 278.198
35.56000 275.554
35.60000 268.212
35.64000 272.140
35.68000 258.806
35.72000 272.872
35.76000 267.589
35.80000 269.878
35.84000 273.386
35.88000 268.423
35.92000 255.399
35.96000 253.794
36.00000 271.439
36.04000 256.403
36.08000 253.592
36.12000 242.425
36.16000 248.658
36.20000 246.885
36.24000 269.610
36.28000 258.801
36.32000 259.284
36.36000 263.430
36.40000 264.443
36.44000 253.186
36.48000 270.978
36.52000 255.377
36.56000 259.973
36.60000 252.782
36.64000 254.821
36.68000 255.651
36.72000 250.837
36.76000 255.394
36.80000 253.922
36.84000 260.057
36.88000 266.003
36.92000 274.134
36.96000 279.506
37.00000 269.629
37.04000 268.186
37.08000 261.932
37.12000 265.341
37.16000 243.557
37.20000 268.798
37.24000 266.148
37.28000 254.792
37.32000 255.319
37.36000 253.391
37.40000 248.293
37.44000 257.245
37.48000 264.290
37.52000 254.234
37.56000 257.507
37.60000 245.291
37.64000 240.158
37.68000 249.640
37.72000 244.453
37.76000 246.656
37.80000 255.054
37.84000 240.579
37.88000 273.222
37.92000 253.542
37.96000 248.258
38.00000 263.342
38.04000 256.571
38.08000 270.698
38.12000 270.502
38.16000 267.339
38.20000 269.344
38.24000 273.540
38.28000 271.604
38.32000 266.379
38.36000 297.772
38.40000 323.598
38.44000 352.845
38.48000 383.385
38.52000 438.912
38.56000 501.351
38.60000 544.613
38.64000 607.897
38.68000 652.693
38.72000 688.955
38.76000 651.308
38.80000 643.370
38.84000 557.344
38.88000 495.232
38.92000 415.014
38.96000 355.408
39.00000 321.601
39.04000 304.779
39.08000 282.466
39.12000 272.520
39.16000 250.594
39.20000 241.673
39.24000 246.697
39.28000 247.389
39.32000 241.115
39.36000 230.878
39.40000 228.238
39.44000 236.276
39.48000 235.831
39.52000 236.844
39.56000 239.776
39.60000 231.258
39.64000 244.714
39.68000 239.543
39.72000 237.677
39.76000 234.924
39.80000 230.201
39.84000 231.511
39.88000 228.405
39.92000 226.569
39.96000 227.426
40.00000 230.756
40.04000 231.663
40.08000 219.727
40.12000 225.263
40.16000 242.307
40.20000 219.707
40.24000 229.455
40.28000 232.695
40.32000 225.763
40.36000 227.954
40.40000 217.720
40.44000 220.009
40.48000 223.105
40.52000 226.595
40.56000 224.518
40.60000 223.547
40.64000 214.099
40.68000 209.991
40.72000 228.477
40.76000 220.145
40.80000 227.492
40.84000 217.934
40.88000 205.262
40.92000 227.795
40.96000 232.902
41.00000 218.183
41.04000 214.914
41.08000 218.625
41.12000 228.870
41.16000 222.834
41.20000 212.842
41.24000 213.359
41.28000 212.923
41.32000 214.392
41.36000 203.085
41.40000 206.989
41.44000 214.741
41.48000 204.234
41.52000 212.586
41.56000 218.171
41.60000 220.641
41.64000 219.082
41.68000 215.745
41.72000 211.464
41.76000 211.693
41.80000 220.033
41.84000 213.626
41.88000 224.487
41.92000 220.769
41.96000 214.246
42.00000 221.050
42.04000 209.884
42.08000 225.803
42.12000 230.104
42.16000 224.339
42.20000 230.091
42.24000 242.670
42.28000 220.308
42.32000 214.395
42.36000 224.756
42.40000 216.109
42.44000 207.505
42.48000 215.149
42.52000 211.992
42.56000 221.196
42.60000 214.242
42.64000 216.882
42.68000 207.151
42.72000 203.204
42.76000 198.612
42.80000 205.314
42.84000 203.849
42.88000 211.227
42.92000 210.487
42.96000 221.408
43.00000 196.899
43.04000 213.065
43.08000 210.074
43.12000 202.463
43.16000 205.035
43.20000 204.405
43.24000 201.076
43.28000 186.344
43.32000 210.664
43.36000 195.923
43.40000 194.433
43.44000 197.350
43.48000 182.133
43.52000 190.989
43.56000 201.513
43.60000 185.596
43.64000 189.680
43.68000 198.846
43.72000 198.771
43.76000 192.510
43.80000 199.093
43.84000 192.969
43.88000 197.384
43.92000 198.896
43.96000 196.449
44.00000 184.519
44.04000 189.967
44.08000 204.888
44.12000 204.159
44.16000 194.623
44.20000 188.424
44.24000 179.641
44.28000 192.598
44.32000 199.884
44.36000 202.495
44.40000 209.545
44.44000 208.530
44.48000 204.482
44.52000 205.633
44.56000 219.550
44.60000 210.820
44.64000 217.272
44.68000 223.694
44.72000 215.781
44.76000 192.968
44.80000 220.823
44.84000 220.215
44.88000 228.247
44.92000 217.451
44.96000 239.806
45.00000 236.342
45.04000 229.677
45.08000 221.944
45.12000 220.429
45.16000 230.996
45.20000 217.587
45.24000 201.419
45.28000 218.320
45.32000 226.456
45.36000 227.632
45.40000 205.583
45.44000 202.670
45.48000 202.504
45.52000 202.779
45.56000 193.850
45.60000 201.459
45.64000 187.209
45.68000 190.405
45.72000 184.118
45.76000 189.583
45.80000 185.243
45.84000 181.497
45.88000 190.449
45.92000 179.816
45.96000 168.608
46.00000 167.994
46.04000 179.437
46.08000 173.816
46.12000 173.183
46.16000 177.979
46.20000 165.749
46.24000 171.777
46.28000 172.903
46.32000 176.672
46.36000 177.241
46.40000 178.604
46.44000 171.190
46.48000 176.359
46.52000 181.211
46.56000 176.987
46.60000 184.928
46.64000 173.116
46.68000 176.673
46.72000 161.964
46.76000 181.087
46.80000 177.501
46.84000 164.104
46.88000 169.947
46.92000 176.649
46.96000 181.298
47.00000 176.399
47.04000 171.085
47.08000 168.802
47.12000 163.107
47.16000 159.034
47.20000 173.939
47.24000 165.745
47.28000 166.854
47.32000 162.542
47.36000 169.669
47.40000 166.020
47.44000 177.391
47.48000 168.973
47.52000 164.515
47.56000 152.335
47.60000 160.265
47.64000 171.974
47.68000 164.132
47.72000 167.743
47.76000 167.498
47.80000 158.129
47.84000 154.961
47.88000 150.871
47.92000 160.935
47.96000 168.423
48.00000 166.097
48.04000 160.833
48.08000 167.685
48.12000 153.649
48.16000 165.817
48.20000 156.028
48.24000 148.515
48.28000 157.062
48.32000 160.744
48.36000 153.441
48.40000 164.386
48.44000 157.636
48.48000 161.598
48.52000 161.855
48.56000 167.181
48.60000 161.936
48.64000 162.735
48.68000 167.623
48.72000 153.413
48.76000 156.689
48.80000 156.577
48.84000 156.340
48.88000 155.033
48.92000 141.777
48.96000 151.952
49.00000 164.986
49.04000 154.547
49.08000 154.744
49.12000 159.220
49.16000 156.017
49.20000 167.440
49.24000 161.300
49.28000 163.407
49.32000 156.224
49.36000 155.688
49.40000 149.655
49.44000 152.926
49.48000 155.467
49.52000 149.678
49.56000 149.549
49.60000 152.874
49.64000 160.209
49.68000 153.661
49.72000 154.836
49.76000 151.018
49.80000 158.607
49.84000 151.716
49.88000 164.055
49.92000 163.085
49.96000 149.429
50.00000 150.694
50.04000 156.541
50.08000 153.659
50.12000 158.450
50.16000 164.649
50.20000 156.403
50.24000 150.523
50.28000 157.836
50.32000 163.358
50.36000 165.899
50.40000 162.411
50.44000 166.174
50.48000 162.716
50.52000 171.382
50.56000 167.798
50.60000 167.569
50.64000 184.587
50.68000 165.359
50.72000 171.601
50.76000 183.833
50.80000 174.976
50.84000 179.465
50.88000 153.578
50.92000 167.035
50.96000 157.217
51.00000 156.019
51.04000 165.173
51.08000 157.863
51.12000 156.282
51.16000 146.677
51.20000 157.340
51.24000 150.408
51.28000 152.106
51.32000 154.532
51.36000 153.116
51.40000 143.066
51.44000 151.937
51.48000 139.662
51.52000 143.414
51.56000 139.258
51.60000 156.784
51.64000 145.888
51.68000 147.826
51.72000 144.409
51.76000 145.583
51.80000 134.874
51.84000 143.392
51.88000 141.572
51.92000 126.657
51.96000 142.244
52.00000 154.544
52.04000 131.151
52.08000 137.508
52.12000 129.681
52.16000 143.747
52.20000 135.052
52.24000 138.453
52.28000 137.220
52.32000 138.615
52.36000 145.845
52.40000 134.524
52.44000 136.283
52.48000 140.114
52.52000 139.596
52.56000 134.932
52.60000 145.942
52.64000 133.385
52.68000 144.163
52.72000 131.783
52.76000 134.909
52.80000 145.181
52.84000 141.701
52.88000 136.114
52.92000 143.158
52.96000 142.560
53.00000 143.600
53.04000 146.648
53.08000 149.028
53.12000 139.309
53.16000 139.023
53.20000 145.536
53.24000 145.145
53.28000 148.023
53.32000 145.464
53.36000 145.943
53.40000 146.231
53.44000 155.630
53.48000 140.762
53.52000 141.719
53.56000 159.239
53.60000 148.025
53.64000 140.096
53.68000 146.275
53.72000 152.379
53.76000 153.337
53.80000 144.336
53.84000 144.588
53.88000 135.990
53.92000 139.848
53.96000 146.309
54.00000 137.092
54.04000 142.832
54.08000 134.050
54.12000 144.021
54.16000 138.457
54.20000 137.712
54.24000 144.349
54.28000 134.841
54.32000 133.922
54.36000 140.901
54.40000 150.187
54.44000 132.199
54.48000 143.480
54.52000 132.763
54.56000 144.107
54.60000 146.707
54.64000 140.502
54.68000 141.814
54.72000 138.981
54.76000 135.629
54.80000 136.745
54.84000 138.845
54.88000 137.510
54.92000 131.049
54.96000 143.273
55.00000 147.194
55.04000 142.368
55.08000 145.108
55.12000 156.645
55.16000 144.707
55.20000 147.111
55.24000 149.698
55.28000 157.175
55.32000 163.357
55.36000 155.809
55.40000 163.445
55.44000 176.500
55.48000 173.045
55.52000 184.776
55.56000 184.154
55.60000 204.029
55.64000 233.445
55.68000 232.583
55.72000 253.352
55.76000 263.517
55.80000 289.477
55.84000 303.432
55.88000 316.098
55.92000 320.985
55.96000 325.549
56.00000 333.146
56.04000 304.126
56.08000 290.824
56.12000 288.159
56.16000 257.091
56.20000 250.061
56.24000 235.943
56.28000 206.366
56.32000 193.396
56.36000 181.887
56.40000 172.040
56.44000 171.541
56.48000 163.048
56.52000 148.618
56.56000 143.035
56.60000 153.675
56.64000 153.521
56.68000 137.210
56.72000 141.298
56.76000 136.898
56.80000 135.436
56.84000 134.098
56.88000 134.805
56.92000 144.054
56.96000 128.665
57.00000 133.059
57.04000 134.497
57.08000 134.639
57.12000 137.457
57.16000 123.762
57.20000 128.750
57.24000 131.540
57.28000 129.821
57.32000 132.514
57.36000 128.098
57.40000 129.352
57.44000 130.422
57.48000 132.405
57.52000 122.089
57.56000 126.851
57.60000 127.343
57.64000 117.330
57.68000 126.535
57.72000 126.859
57.76000 126.042
57.80000 123.833
57.84000 125.947
57.88000 116.608
57.92000 126.344
57.96000 125.855
58.00000 126.828
58.04000 128.126
58.08000 123.032
58.12000 124.794
58.16000 115.073
58.20000 122.272
58.24000 127.405
58.28000 117.292
58.32000 132.407
58.36000 122.578
58.40000 125.090
58.44000 113.398
58.48000 126.389
58.52000 123.223
58.56000 115.862
58.60000 121.579
58.64000 111.703
58.68000 112.756
58.72000 118.714
58.76000 126.535
58.80000 116.670
58.84000 122.716
58.88000 115.005
58.92000 120.333
58.96000 118.165
59.00000 125.130
59.04000 117.004
59.08000 122.345
59.12000 127.230
59.16000 118.013
59.20000 120.049
59.24000 122.322
59.28000 122.049
59.32000 125.696
59.36000 123.449
59.40000 117.782
59.44000 115.155
59.48000 112.438
59.52000 125.502
59.56000 120.751
59.60000 119.082
59.64000 126.977
59.68000 122.304
59.72000 125.509
59.76000 117.099
59.80000 110.527
59.84000 119.468
59.88000 121.148
59.92000 128.892
59.96000 120.670
60.00000 120.341
60.04000 118.737
60.08000 123.295
60.12000 116.879
60.16000 116.358
60.20000 112.442
60.24000 99.050
60.28000 114.968
60.32000 117.160
60.36000 117.371
60.40000 126.020
60.44000 131.502
60.48000 115.237
60.52000 128.421
60.56000 112.112
60.60000 115.522
60.64000 107.682
60.68000 118.400
60.72000 121.399
60.76000 121.348
60.80000 127.656
60.84000 131.812
60.88000 122.906
60.92000 122.786
60.96000 117.317
61.00000 125.790
61.04000 126.041
61.08000 128.358
61.12000 123.702
61.16000 113.955
61.20000 124.896
61.24000 122.360
61.28000 121.449
61.32000 125.704
61.36000 133.613
61.40000 125.861
61.44000 136.664
61.48000 132.271
61.52000 156.738
61.56000 199.533
61.60000 251.989
61.64000 279.911
61.68000 300.290
61.72000 298.904
61.76000 285.301
61.80000 236.539
61.84000 176.402
61.88000 150.599
61.92000 136.969
61.96000 133.799
62.00000 140.585
62.04000 133.321
62.08000 130.654
62.12000 125.464
62.16000 129.084
62.20000 124.254
62.24000 131.882
62.28000 138.097
62.32000 117.096
62.36000 136.602
62.40000 124.640
62.44000 117.810
62.48000 123.814
62.52000 127.058
62.56000 128.098
62.60000 136.787
62.64000 128.136
62.68000 128.670
62.72000 127.030
62.76000 129.796
62.80000 133.027
62.84000 135.112
62.88000 134.367
62.92000 124.508
62.96000 137.258
63.00000 134.473
63.04000 140.619
63.08000 138.047
63.12000 136.884
63.16000 126.317
63.20000 131.147
63.24000 137.864
63.28000 126.552
63.32000 129.774
63.36000 139.158
63.40000 132.371
63.44000 145.297
63.48000 133.381
63.52000 144.598
63.56000 130.585
63.60000 129.709
63.64000 137.951
63.68000 141.749
63.72000 134.718
63.76000 147.436
63.80000 148.877
63.84000 150.072
63.88000 151.957
63.92000 153.044
63.96000 140.048
64.00000 146.899
64.04000 149.735
64.08000 142.616
64.12000 150.305
64.16000 148.707
64.20000 154.261
64.24000 155.187
64.28000 155.437
64.32000 157.668
64.36000 144.597
64.40000 155.639
64.44000 158.691
64.48000 156.821
64.52000 160.423
64.56000 151.894
64.60000 166.434
64.64000 167.762
64.68000 170.354
64.72000 161.904
64.76000 176.978
64.80000 176.328
64.84000 183.216
64.88000 186.972
64.92000 188.612
64.96000 186.358
65.00000 202.227
65.04000 188.567
65.08000 198.992
65.12000 203.882
65.16000 210.428
65.20000 221.747
65.24000 222.562
65.28000 230.570
65.32000 241.928
65.36000 249.089
65.40000 248.554
65.44000 251.625
65.48000 281.770
65.52000 287.141
65.56000 326.033
65.60000 359.726
65.64000 406.507
65.68000 561.330
65.72000 865.621
65.76000 1351.869
65.80000 1725.352
65.84000 1968.812
65.88000 1939.513
65.92000 1927.123
65.96000 1518.950
66.00000 1060.414
66.04000 648.340
66.08000 491.678
66.12000 391.011
66.16000 382.168
66.20000 363.422
66.24000 398.098
66.28000 447.437
66.32000 526.437
66.36000 604.951
66.40000 629.535
66.44000 643.799
66.48000 599.944
66.52000 542.293
66.56000 463.063
66.60000 404.438
66.64000 366.223
66.68000 360.189
66.72000 339.689
66.76000 323.756
66.80000 344.283
66.84000 366.103
66.88000 354.831
66.92000 353.623
66.96000 376.201
67.00000 372.599
67.04000 391.662
67.08000 385.843
67.12000 403.422
67.16000 387.854
67.20000 376.615
67.24000 381.698
67.28000 393.003
67.32000 407.166
67.36000 409.997
67.40000 412.580
67.44000 410.417
67.48000 431.105
67.52000 417.291
67.56000 425.875
67.60000 441.939
67.64000 454.811
67.68000 448.443
67.72000 462.334
67.76000 466.725
67.80000 478.404
67.84000 463.082
67.88000 483.853
67.92000 498.944
67.96000 491.178
68.00000 491.441
68.04000 523.297
68.08000 511.729
68.12000 519.171
68.16000 544.152
68.20000 561.316
68.24000 556.894
68.28000 603.775
68.32000 617.947
68.36000 612.627
68.40000 638.768
68.44000 641.619
68.48000 677.761
68.52000 717.525
68.56000 781.873
68.60000 848.971
68.64000 979.478
68.68000 1132.082
68.72000 1305.418
68.76000 1508.859
68.80000 1633.527
68.84000 1893.993
68.88000 2285.613
68.92000 3525.865
68.96000 8345.369
69.00000 20286.406
69.04000 33429.438
69.08000 40910.539
69.12000 43928.215
69.16000 46972.484
69.20000 46969.285
69.24000 38355.832
69.28000 27626.783
69.32000 22868.449
69.36000 21297.492
69.40000 18202.916
69.44000 11360.443
69.48000 5158.882
69.52000 2366.546
69.56000 1408.423
69.60000 1071.858
69.64000 940.767
69.68000 823.499
69.72000 749.102
69.76000 691.355
69.80000 637.983
69.84000 595.257
69.88000 566.572
69.92000 527.778
69.96000 510.769
70.00000 516.947