File: XRD/30-09-2025 Dep 1/XY Data/BTO_Mapping_Theta2Theta_30-09-2025_001_05_40-000_0-000.xy
20.00000 567.986
20.04000 585.776
20.08000 558.195
20.12000 563.154
20.16000 589.183
20.20000 567.463
20.24000 550.485
20.28000 559.640
20.32000 551.427
20.36000 579.072
20.40000 604.382
20.44000 553.507
20.48000 568.030
20.52000 567.491
20.56000 563.840
20.60000 577.634
20.64000 551.583
20.68000 559.160
20.72000 572.855
20.76000 569.978
20.80000 559.359
20.84000 569.360
20.88000 550.061
20.92000 556.233
20.96000 545.815
21.00000 544.711
21.04000 556.504
21.08000 573.451
21.12000 567.513
21.16000 566.351
21.20000 567.012
21.24000 553.771
21.28000 538.839
21.32000 544.269
21.36000 556.157
21.40000 552.641
21.44000 543.348
21.48000 542.331
21.52000 548.171
21.56000 557.214
21.60000 560.100
21.64000 561.920
21.68000 583.497
21.72000 586.395
21.76000 619.171
21.80000 617.886
21.84000 647.182
21.88000 678.610
21.92000 717.153
21.96000 784.001
22.00000 807.709
22.04000 804.293
22.08000 795.324
22.12000 763.101
22.16000 751.619
22.20000 663.342
22.24000 627.682
22.28000 592.449
22.32000 572.098
22.36000 571.744
22.40000 548.577
22.44000 545.443
22.48000 539.285
22.52000 536.309
22.56000 542.688
22.60000 534.292
22.64000 518.473
22.68000 545.382
22.72000 531.634
22.76000 533.253
22.80000 534.979
22.84000 526.118
22.88000 519.296
22.92000 516.784
22.96000 532.323
23.00000 501.298
23.04000 533.274
23.08000 509.562
23.12000 495.279
23.16000 501.759
23.20000 523.804
23.24000 515.750
23.28000 531.738
23.32000 509.252
23.36000 526.120
23.40000 517.142
23.44000 498.981
23.48000 515.792
23.52000 486.808
23.56000 505.126
23.60000 498.831
23.64000 515.051
23.68000 494.151
23.72000 505.074
23.76000 503.928
23.80000 514.295
23.84000 498.290
23.88000 501.032
23.92000 498.929
23.96000 479.769
24.00000 506.238
24.04000 516.922
24.08000 485.482
24.12000 481.668
24.16000 519.961
24.20000 514.587
24.24000 508.480
24.28000 481.397
24.32000 495.496
24.36000 491.365
24.40000 501.469
24.44000 490.596
24.48000 494.370
24.52000 477.687
24.56000 496.043
24.60000 474.285
24.64000 489.669
24.68000 475.162
24.72000 489.278
24.76000 474.564
24.80000 476.327
24.84000 473.009
24.88000 468.505
24.92000 486.015
24.96000 499.546
25.00000 477.591
25.04000 480.846
25.08000 467.925
25.12000 476.040
25.16000 464.208
25.20000 485.257
25.24000 494.916
25.28000 491.437
25.32000 475.840
25.36000 474.621
25.40000 484.015
25.44000 468.998
25.48000 477.909
25.52000 464.229
25.56000 467.215
25.60000 467.390
25.64000 486.048
25.68000 471.003
25.72000 479.009
25.76000 461.902
25.80000 466.393
25.84000 476.155
25.88000 453.284
25.92000 464.183
25.96000 458.203
26.00000 473.391
26.04000 481.684
26.08000 471.638
26.12000 464.949
26.16000 457.487
26.20000 455.472
26.24000 470.966
26.28000 459.334
26.32000 466.422
26.36000 463.686
26.40000 463.139
26.44000 462.171
26.48000 440.384
26.52000 447.605
26.56000 446.160
26.60000 458.874
26.64000 466.212
26.68000 448.172
26.72000 472.879
26.76000 450.372
26.80000 437.896
26.84000 460.663
26.88000 457.638
26.92000 436.547
26.96000 430.122
27.00000 449.049
27.04000 433.656
27.08000 450.255
27.12000 467.844
27.16000 464.245
27.20000 444.127
27.24000 445.963
27.28000 437.927
27.32000 440.034
27.36000 466.377
27.40000 446.715
27.44000 455.628
27.48000 449.504
27.52000 442.826
27.56000 440.347
27.60000 447.819
27.64000 445.228
27.68000 443.383
27.72000 443.386
27.76000 462.152
27.80000 419.575
27.84000 445.438
27.88000 444.999
27.92000 453.845
27.96000 426.585
28.00000 439.722
28.04000 443.247
28.08000 451.057
28.12000 437.095
28.16000 444.235
28.20000 452.368
28.24000 440.742
28.28000 445.716
28.32000 454.345
28.36000 442.370
28.40000 433.822
28.44000 421.950
28.48000 427.999
28.52000 432.843
28.56000 434.987
28.60000 436.361
28.64000 424.699
28.68000 426.228
28.72000 412.083
28.76000 416.035
28.80000 413.858
28.84000 419.438
28.88000 412.416
28.92000 415.695
28.96000 399.023
29.00000 443.313
29.04000 428.067
29.08000 401.681
29.12000 419.489
29.16000 419.711
29.20000 413.664
29.24000 429.628
29.28000 406.697
29.32000 433.960
29.36000 428.099
29.40000 413.560
29.44000 412.860
29.48000 424.935
29.52000 414.979
29.56000 425.681
29.60000 414.704
29.64000 403.000
29.68000 413.226
29.72000 417.946
29.76000 421.995
29.80000 436.956
29.84000 442.915
29.88000 437.535
29.92000 454.756
29.96000 451.364
30.00000 465.272
30.04000 445.653
30.08000 467.137
30.12000 447.383
30.16000 475.195
30.20000 437.092
30.24000 421.637
30.28000 431.223
30.32000 446.366
30.36000 455.637
30.40000 430.949
30.44000 437.536
30.48000 438.942
30.52000 449.279
30.56000 457.546
30.60000 432.348
30.64000 446.661
30.68000 447.586
30.72000 457.052
30.76000 470.351
30.80000 476.464
30.84000 484.878
30.88000 505.794
30.92000 542.735
30.96000 571.340
31.00000 634.094
31.04000 742.455
31.08000 907.092
31.12000 1180.588
31.16000 1555.880
31.20000 2143.333
31.24000 2800.172
31.28000 3528.085
31.32000 3979.708
31.36000 4243.985
31.40000 4133.182
31.44000 3708.265
31.48000 3129.019
31.52000 2445.120
31.56000 1764.363
31.60000 1284.703
31.64000 905.583
31.68000 699.039
31.72000 602.682
31.76000 524.500
31.80000 495.076
31.84000 458.116
31.88000 454.664
31.92000 438.271
31.96000 437.754
32.00000 434.129
32.04000 409.303
32.08000 413.671
32.12000 408.815
32.16000 406.013
32.20000 428.644
32.24000 407.185
32.28000 392.284
32.32000 406.859
32.36000 404.797
32.40000 392.459
32.44000 394.958
32.48000 394.621
32.52000 384.247
32.56000 388.152
32.60000 376.595
32.64000 373.029
32.68000 376.797
32.72000 380.655
32.76000 382.592
32.80000 380.655
32.84000 386.467
32.88000 416.517
32.92000 451.696
32.96000 455.345
33.00000 485.094
33.04000 455.469
33.08000 427.207
33.12000 421.413
33.16000 390.025
33.20000 361.621
33.24000 368.797
33.28000 349.731
33.32000 353.557
33.36000 359.448
33.40000 358.586
33.44000 361.653
33.48000 355.098
33.52000 341.652
33.56000 366.424
33.60000 354.686
33.64000 336.438
33.68000 335.717
33.72000 350.400
33.76000 337.775
33.80000 352.271
33.84000 347.427
33.88000 351.117
33.92000 330.830
33.96000 354.458
34.00000 338.830
34.04000 336.320
34.08000 344.003
34.12000 335.455
34.16000 324.836
34.20000 331.060
34.24000 326.159
34.28000 326.377
34.32000 328.598
34.36000 319.988
34.40000 344.865
34.44000 337.082
34.48000 338.403
34.52000 319.359
34.56000 329.515
34.60000 318.867
34.64000 324.578
34.68000 324.714
34.72000 326.269
34.76000 325.862
34.80000 312.925
34.84000 319.086
34.88000 326.235
34.92000 317.562
34.96000 329.196
35.00000 333.472
35.04000 318.612
35.08000 322.137
35.12000 323.939
35.16000 310.117
35.20000 310.893
35.24000 318.709
35.28000 310.905
35.32000 316.893
35.36000 312.322
35.40000 310.073
35.44000 298.968
35.48000 320.645
35.52000 327.863
35.56000 310.170
35.60000 307.700
35.64000 324.395
35.68000 315.179
35.72000 311.656
35.76000 315.059
35.80000 314.628
35.84000 301.617
35.88000 315.697
35.92000 313.226
35.96000 302.722
36.00000 312.392
36.04000 315.697
36.08000 302.764
36.12000 303.421
36.16000 302.596
36.20000 307.279
36.24000 310.525
36.28000 297.415
36.32000 308.244
36.36000 317.581
36.40000 297.298
36.44000 290.581
36.48000 286.009
36.52000 300.529
36.56000 297.560
36.60000 302.804
36.64000 301.395
36.68000 301.947
36.72000 303.872
36.76000 313.649
36.80000 289.805
36.84000 303.660
36.88000 300.515
36.92000 302.506
36.96000 301.231
37.00000 305.855
37.04000 304.962
37.08000 305.541
37.12000 294.241
37.16000 300.991
37.20000 315.314
37.24000 301.727
37.28000 287.864
37.32000 305.671
37.36000 314.695
37.40000 286.881
37.44000 298.107
37.48000 297.570
37.52000 282.124
37.56000 283.489
37.60000 280.998
37.64000 289.215
37.68000 304.145
37.72000 297.538
37.76000 297.016
37.80000 282.132
37.84000 297.961
37.88000 293.497
37.92000 300.497
37.96000 294.967
38.00000 315.518
38.04000 301.608
38.08000 301.484
38.12000 301.240
38.16000 292.578
38.20000 301.430
38.24000 314.171
38.28000 297.358
38.32000 300.655
38.36000 334.436
38.40000 349.707
38.44000 376.931
38.48000 431.925
38.52000 470.893
38.56000 586.193
38.60000 654.800
38.64000 738.445
38.68000 766.568
38.72000 787.032
38.76000 793.824
38.80000 752.668
38.84000 626.596
38.88000 550.530
38.92000 463.179
38.96000 413.536
39.00000 360.348
39.04000 326.412
39.08000 308.642
39.12000 293.439
39.16000 283.920
39.20000 297.419
39.24000 292.982
39.28000 279.460
39.32000 278.684
39.36000 276.344
39.40000 276.788
39.44000 278.454
39.48000 284.227
39.52000 281.248
39.56000 267.189
39.60000 273.282
39.64000 266.201
39.68000 267.132
39.72000 280.929
39.76000 289.624
39.80000 273.782
39.84000 255.606
39.88000 272.909
39.92000 256.662
39.96000 253.263
40.00000 257.967
40.04000 262.362
40.08000 278.793
40.12000 274.970
40.16000 261.610
40.20000 248.401
40.24000 260.571
40.28000 261.253
40.32000 258.249
40.36000 266.134
40.40000 259.610
40.44000 260.531
40.48000 266.290
40.52000 247.919
40.56000 254.935
40.60000 252.026
40.64000 261.811
40.68000 258.696
40.72000 257.344
40.76000 252.204
40.80000 243.246
40.84000 252.072
40.88000 244.151
40.92000 255.359
40.96000 243.089
41.00000 246.742
41.04000 247.389
41.08000 254.520
41.12000 249.354
41.16000 254.433
41.20000 246.786
41.24000 250.086
41.28000 248.103
41.32000 246.305
41.36000 250.118
41.40000 245.730
41.44000 251.037
41.48000 253.148
41.52000 241.562
41.56000 242.939
41.60000 238.351
41.64000 239.392
41.68000 242.996
41.72000 240.652
41.76000 237.118
41.80000 237.386
41.84000 237.314
41.88000 240.648
41.92000 247.712
41.96000 251.520
42.00000 238.572
42.04000 234.789
42.08000 233.102
42.12000 235.685
42.16000 227.207
42.20000 233.648
42.24000 234.897
42.28000 232.755
42.32000 233.020
42.36000 225.072
42.40000 236.189
42.44000 227.142
42.48000 234.184
42.52000 232.864
42.56000 246.625
42.60000 236.150
42.64000 229.027
42.68000 221.884
42.72000 240.526
42.76000 237.524
42.80000 236.564
42.84000 223.982
42.88000 230.263
42.92000 216.598
42.96000 227.994
43.00000 219.463
43.04000 234.919
43.08000 232.589
43.12000 213.631
43.16000 222.546
43.20000 249.056
43.24000 227.674
43.28000 231.895
43.32000 236.313
43.36000 225.601
43.40000 214.801
43.44000 225.081
43.48000 225.968
43.52000 222.711
43.56000 233.390
43.60000 235.701
43.64000 222.192
43.68000 207.954
43.72000 218.902
43.76000 233.869
43.80000 209.908
43.84000 227.379
43.88000 227.857
43.92000 216.308
43.96000 229.340
44.00000 215.464
44.04000 219.796
44.08000 218.287
44.12000 222.404
44.16000 223.952
44.20000 219.712
44.24000 234.872
44.28000 224.724
44.32000 229.753
44.36000 230.293
44.40000 232.440
44.44000 228.612
44.48000 228.292
44.52000 216.752
44.56000 222.636
44.60000 227.024
44.64000 240.113
44.68000 243.859
44.72000 268.273
44.76000 263.180
44.80000 284.717
44.84000 315.054
44.88000 333.430
44.92000 371.272
44.96000 384.853
45.00000 414.770
45.04000 435.776
45.08000 445.174
45.12000 431.382
45.16000 386.425
45.20000 366.772
45.24000 348.813
45.28000 323.199
45.32000 302.902
45.36000 286.550
45.40000 263.786
45.44000 252.143
45.48000 242.147
45.52000 239.431
45.56000 240.849
45.60000 243.925
45.64000 227.939
45.68000 205.226
45.72000 208.619
45.76000 213.242
45.80000 207.420
45.84000 220.789
45.88000 218.764
45.92000 213.479
45.96000 211.862
46.00000 217.790
46.04000 217.753
46.08000 218.174
46.12000 213.310
46.16000 217.011
46.20000 209.389
46.24000 210.194
46.28000 201.928
46.32000 218.279
46.36000 211.884
46.40000 208.540
46.44000 195.587
46.48000 200.818
46.52000 215.138
46.56000 210.541
46.60000 220.290
46.64000 210.696
46.68000 205.703
46.72000 200.859
46.76000 204.486
46.80000 182.669
46.84000 207.485
46.88000 189.478
46.92000 190.321
46.96000 196.480
47.00000 192.932
47.04000 213.100
47.08000 206.782
47.12000 188.062
47.16000 191.246
47.20000 186.873
47.24000 184.347
47.28000 195.111
47.32000 183.960
47.36000 185.063
47.40000 198.534
47.44000 196.185
47.48000 189.214
47.52000 190.778
47.56000 192.594
47.60000 178.313
47.64000 191.130
47.68000 201.127
47.72000 188.481
47.76000 193.649
47.80000 185.830
47.84000 178.131
47.88000 183.889
47.92000 183.155
47.96000 181.739
48.00000 174.746
48.04000 190.111
48.08000 185.007
48.12000 198.028
48.16000 189.677
48.20000 190.969
48.24000 191.618
48.28000 179.684
48.32000 179.528
48.36000 177.860
48.40000 184.565
48.44000 189.302
48.48000 199.605
48.52000 175.594
48.56000 185.059
48.60000 186.781
48.64000 192.692
48.68000 170.471
48.72000 181.451
48.76000 198.918
48.80000 179.681
48.84000 183.480
48.88000 177.059
48.92000 180.575
48.96000 185.771
49.00000 186.793
49.04000 186.099
49.08000 175.049
49.12000 181.142
49.16000 171.545
49.20000 185.883
49.24000 176.906
49.28000 166.029
49.32000 170.589
49.36000 173.210
49.40000 192.101
49.44000 171.668
49.48000 191.734
49.52000 178.754
49.56000 180.648
49.60000 170.553
49.64000 181.016
49.68000 177.934
49.72000 188.273
49.76000 169.027
49.80000 181.812
49.84000 174.348
49.88000 176.822
49.92000 177.413
49.96000 180.208
50.00000 182.722
50.04000 186.489
50.08000 179.869
50.12000 190.199
50.16000 183.403
50.20000 186.449
50.24000 188.087
50.28000 202.993
50.32000 194.311
50.36000 196.126
50.40000 209.364
50.44000 195.860
50.48000 226.856
50.52000 236.319
50.56000 252.115
50.60000 269.919
50.64000 296.508
50.68000 289.050
50.72000 281.209
50.76000 282.973
50.80000 272.567
50.84000 266.036
50.88000 230.576
50.92000 229.738
50.96000 211.650
51.00000 204.628
51.04000 198.032
51.08000 190.981
51.12000 183.908
51.16000 178.272
51.20000 170.212
51.24000 175.901
51.28000 177.541
51.32000 173.338
51.36000 170.000
51.40000 164.974
51.44000 174.436
51.48000 170.792
51.52000 171.769
51.56000 165.558
51.60000 155.669
51.64000 158.178
51.68000 163.654
51.72000 163.101
51.76000 157.292
51.80000 160.712
51.84000 170.681
51.88000 167.640
51.92000 162.192
51.96000 160.475
52.00000 174.095
52.04000 170.346
52.08000 166.557
52.12000 155.911
52.16000 162.275
52.20000 162.506
52.24000 167.586
52.28000 164.349
52.32000 155.418
52.36000 164.093
52.40000 163.743
52.44000 167.374
52.48000 170.931
52.52000 155.598
52.56000 152.668
52.60000 161.458
52.64000 156.793
52.68000 160.171
52.72000 159.676
52.76000 163.367
52.80000 160.953
52.84000 163.399
52.88000 155.847
52.92000 167.442
52.96000 149.429
53.00000 164.732
53.04000 159.844
53.08000 162.513
53.12000 161.720
53.16000 159.604
53.20000 152.619
53.24000 151.462
53.28000 166.233
53.32000 172.994
53.36000 161.646
53.40000 164.448
53.44000 169.713
53.48000 167.479
53.52000 162.470
53.56000 156.129
53.60000 155.805
53.64000 156.767
53.68000 157.095
53.72000 148.569
53.76000 155.545
53.80000 147.949
53.84000 163.174
53.88000 153.527
53.92000 156.461
53.96000 166.208
54.00000 160.316
54.04000 149.768
54.08000 165.237
54.12000 156.966
54.16000 152.922
54.20000 162.529
54.24000 148.779
54.28000 144.820
54.32000 154.524
54.36000 158.026
54.40000 164.822
54.44000 150.156
54.48000 164.288
54.52000 166.678
54.56000 155.728
54.60000 160.636
54.64000 155.180
54.68000 161.064
54.72000 159.132
54.76000 154.020
54.80000 154.713
54.84000 153.723
54.88000 153.623
54.92000 164.283
54.96000 153.559
55.00000 147.190
55.04000 154.683
55.08000 150.091
55.12000 158.196
55.16000 160.135
55.20000 163.322
55.24000 163.629
55.28000 168.402
55.32000 174.101
55.36000 171.029
55.40000 190.565
55.44000 180.064
55.48000 207.050
55.52000 198.566
55.56000 214.866
55.60000 235.424
55.64000 276.294
55.68000 318.877
55.72000 392.190
55.76000 466.953
55.80000 525.382
55.84000 594.349
55.88000 650.514
55.92000 666.647
55.96000 673.964
56.00000 656.777
56.04000 600.283
56.08000 533.927
56.12000 477.508
56.16000 391.656
56.20000 331.684
56.24000 284.856
56.28000 246.295
56.32000 226.590
56.36000 202.601
56.40000 187.392
56.44000 178.995
56.48000 172.118
56.52000 159.788
56.56000 153.641
56.60000 160.367
56.64000 163.351
56.68000 164.188
56.72000 159.072
56.76000 145.438
56.80000 149.079
56.84000 154.002
56.88000 148.163
56.92000 150.604
56.96000 146.013
57.00000 150.224
57.04000 137.505
57.08000 140.194
57.12000 143.164
57.16000 146.830
57.20000 145.091
57.24000 152.004
57.28000 142.838
57.32000 148.590
57.36000 150.950
57.40000 142.838
57.44000 141.622
57.48000 141.525
57.52000 142.354
57.56000 153.215
57.60000 144.200
57.64000 144.708
57.68000 142.811
57.72000 143.965
57.76000 148.123
57.80000 140.438
57.84000 141.998
57.88000 146.488
57.92000 146.994
57.96000 146.523
58.00000 157.191
58.04000 149.645
58.08000 143.804
58.12000 150.408
58.16000 147.380
58.20000 144.772
58.24000 151.412
58.28000 146.657
58.32000 141.069
58.36000 144.097
58.40000 132.652
58.44000 136.968
58.48000 130.440
58.52000 142.421
58.56000 137.993
58.60000 142.202
58.64000 143.811
58.68000 130.923
58.72000 138.292
58.76000 137.624
58.80000 124.241
58.84000 133.627
58.88000 128.402
58.92000 142.827
58.96000 137.236
59.00000 131.457
59.04000 127.247
59.08000 130.094
59.12000 131.936
59.16000 138.801
59.20000 130.739
59.24000 138.307
59.28000 132.564
59.32000 139.660
59.36000 127.553
59.40000 130.170
59.44000 130.205
59.48000 127.738
59.52000 142.443
59.56000 131.943
59.60000 136.848
59.64000 132.985
59.68000 131.042
59.72000 132.666
59.76000 137.319
59.80000 143.042
59.84000 128.415
59.88000 137.670
59.92000 136.858
59.96000 132.850
60.00000 132.452
60.04000 133.558
60.08000 130.226
60.12000 132.722
60.16000 130.672
60.20000 128.243
60.24000 133.736
60.28000 134.618
60.32000 128.377
60.36000 135.488
60.40000 138.652
60.44000 136.293
60.48000 134.030
60.52000 133.976
60.56000 129.030
60.60000 137.620
60.64000 131.047
60.68000 134.329
60.72000 129.186
60.76000 145.063
60.80000 143.872
60.84000 132.404
60.88000 143.766
60.92000 132.994
60.96000 132.193
61.00000 142.395
61.04000 135.590
61.08000 135.247
61.12000 147.189
61.16000 134.702
61.20000 143.314
61.24000 145.420
61.28000 134.647
61.32000 144.001
61.36000 143.647
61.40000 143.863
61.44000 144.593
61.48000 145.842
61.52000 180.273
61.56000 240.864
61.60000 304.247
61.64000 306.053
61.68000 317.090
61.72000 323.858
61.76000 287.365
61.80000 236.465
61.84000 172.773
61.88000 162.460
61.92000 148.579
61.96000 148.358
62.00000 146.106
62.04000 137.136
62.08000 152.611
62.12000 138.504
62.16000 138.360
62.20000 142.886
62.24000 141.991
62.28000 146.851
62.32000 129.529
62.36000 146.487
62.40000 148.407
62.44000 138.432
62.48000 149.911
62.52000 151.999
62.56000 135.488
62.60000 143.275
62.64000 143.847
62.68000 143.963
62.72000 137.369
62.76000 148.891
62.80000 139.710
62.84000 147.646
62.88000 148.251
62.92000 140.484
62.96000 155.038
63.00000 135.192
63.04000 147.924
63.08000 139.287
63.12000 147.425
63.16000 157.843
63.20000 152.038
63.24000 153.151
63.28000 138.296
63.32000 147.430
63.36000 138.931
63.40000 155.859
63.44000 145.195
63.48000 144.942
63.52000 146.962
63.56000 147.410
63.60000 163.578
63.64000 145.027
63.68000 158.145
63.72000 148.692
63.76000 149.990
63.80000 153.531
63.84000 149.090
63.88000 153.169
63.92000 152.130
63.96000 160.215
64.00000 154.920
64.04000 169.540
64.08000 174.258
64.12000 153.020
64.16000 163.707
64.20000 162.851
64.24000 167.649
64.28000 170.923
64.32000 171.596
64.36000 171.985
64.40000 162.851
64.44000 169.419
64.48000 163.888
64.52000 167.088
64.56000 173.866
64.60000 173.763
64.64000 179.039
64.68000 175.655
64.72000 178.553
64.76000 178.292
64.80000 176.088
64.84000 174.946
64.88000 186.121
64.92000 203.240
64.96000 193.860
65.00000 191.561
65.04000 209.294
65.08000 217.318
65.12000 217.005
65.16000 231.258
65.20000 260.472
65.24000 265.832
65.28000 289.515
65.32000 319.741
65.36000 344.725
65.40000 364.540
65.44000 389.844
65.48000 454.786
65.52000 479.918
65.56000 471.633
65.60000 498.005
65.64000 536.795
65.68000 657.720
65.72000 877.469
65.76000 1108.574
65.80000 1284.838
65.84000 1367.972
65.88000 1353.683
65.92000 1239.751
65.96000 1021.511
66.00000 674.872
66.04000 451.614
66.08000 384.167
66.12000 333.435
66.16000 339.605
66.20000 342.451
66.24000 350.750
66.28000 377.114
66.32000 433.484
66.36000 501.907
66.40000 509.640
66.44000 495.306
66.48000 476.349
66.52000 445.198
66.56000 378.392
66.60000 345.636
66.64000 326.413
66.68000 345.730
66.72000 334.803
66.76000 336.700
66.80000 339.880
66.84000 346.924
66.88000 365.522
66.92000 358.485
66.96000 370.787
67.00000 370.491
67.04000 380.045
67.08000 389.543
67.12000 394.733
67.16000 383.983
67.20000 399.190
67.24000 395.723
67.28000 396.486
67.32000 418.457
67.36000 412.243
67.40000 446.893
67.44000 452.643
67.48000 431.126
67.52000 453.031
67.56000 484.246
67.60000 480.163
67.64000 481.079
67.68000 495.924
67.72000 503.592
67.76000 508.638
67.80000 527.271
67.84000 534.067
67.88000 540.347
67.92000 554.628
67.96000 574.688
68.00000 582.576
68.04000 597.173
68.08000 608.925
68.12000 607.926
68.16000 631.572
68.20000 656.514
68.24000 700.448
68.28000 687.628
68.32000 724.844
68.36000 703.100
68.40000 775.505
68.44000 822.847
68.48000 848.687
68.52000 921.721
68.56000 1025.502
68.60000 1186.791
68.64000 1386.757
68.68000 1628.733
68.72000 1938.426
68.76000 2220.010
68.80000 2511.213
68.84000 3090.241
68.88000 4187.438
68.92000 9735.009
68.96000 23546.605
69.00000 47434.180
69.04000 67581.008
69.08000 75764.148
69.12000 77588.109
69.16000 80544.844
69.20000 76149.836
69.24000 61451.461
69.28000 47401.156
69.32000 40519.992
69.36000 35731.512
69.40000 27061.840
69.44000 14988.661
69.48000 6500.773
69.52000 3211.834
69.56000 2098.052
69.60000 1625.646
69.64000 1402.234
69.68000 1236.807
69.72000 1140.673
69.76000 1038.162
69.80000 947.189
69.84000 906.586
69.88000 827.345
69.92000 803.838
69.96000 792.539
70.00000 761.590