File: XRD/30-09-2025 Dep 1/XY Data/BTO_Mapping_Theta2Theta_30-09-2025_001_46_-1-045_-9-945.xy
20.00000 555.645
20.04000 596.833
20.08000 564.607
20.12000 551.446
20.16000 558.477
20.20000 574.560
20.24000 565.551
20.28000 573.621
20.32000 552.591
20.36000 571.207
20.40000 577.254
20.44000 565.597
20.48000 561.598
20.52000 537.781
20.56000 566.484
20.60000 563.765
20.64000 573.143
20.68000 549.350
20.72000 551.193
20.76000 561.464
20.80000 571.181
20.84000 575.645
20.88000 555.592
20.92000 539.307
20.96000 558.683
21.00000 565.576
21.04000 564.921
21.08000 567.797
21.12000 577.636
21.16000 563.135
21.20000 554.590
21.24000 567.799
21.28000 561.061
21.32000 540.849
21.36000 565.847
21.40000 549.481
21.44000 559.615
21.48000 553.583
21.52000 566.431
21.56000 560.094
21.60000 582.755
21.64000 566.814
21.68000 579.629
21.72000 578.711
21.76000 641.068
21.80000 632.708
21.84000 684.139
21.88000 719.792
21.92000 781.665
21.96000 849.292
22.00000 900.087
22.04000 907.117
22.08000 863.860
22.12000 812.215
22.16000 765.825
22.20000 727.094
22.24000 665.681
22.28000 606.660
22.32000 594.949
22.36000 576.737
22.40000 558.648
22.44000 561.774
22.48000 543.683
22.52000 533.668
22.56000 547.898
22.60000 548.264
22.64000 527.270
22.68000 515.227
22.72000 530.652
22.76000 527.487
22.80000 511.641
22.84000 522.771
22.88000 527.417
22.92000 528.361
22.96000 530.417
23.00000 533.126
23.04000 525.382
23.08000 524.270
23.12000 527.096
23.16000 518.039
23.20000 510.875
23.24000 507.906
23.28000 502.738
23.32000 515.993
23.36000 510.097
23.40000 520.598
23.44000 499.187
23.48000 501.251
23.52000 497.544
23.56000 495.660
23.60000 526.963
23.64000 523.491
23.68000 500.208
23.72000 501.945
23.76000 513.687
23.80000 511.192
23.84000 499.961
23.88000 512.330
23.92000 519.708
23.96000 484.516
24.00000 482.175
24.04000 490.778
24.08000 516.932
24.12000 505.489
24.16000 494.049
24.20000 485.144
24.24000 497.231
24.28000 483.046
24.32000 487.949
24.36000 482.010
24.40000 490.965
24.44000 503.699
24.48000 503.926
24.52000 502.205
24.56000 498.309
24.60000 503.227
24.64000 483.540
24.68000 489.312
24.72000 477.984
24.76000 480.834
24.80000 482.889
24.84000 482.226
24.88000 501.947
24.92000 482.525
24.96000 488.992
25.00000 489.412
25.04000 495.734
25.08000 473.352
25.12000 482.856
25.16000 484.105
25.20000 494.098
25.24000 481.845
25.28000 484.731
25.32000 485.894
25.36000 479.712
25.40000 490.006
25.44000 469.903
25.48000 502.998
25.52000 485.155
25.56000 479.777
25.60000 481.444
25.64000 487.547
25.68000 469.780
25.72000 477.762
25.76000 480.446
25.80000 471.280
25.84000 476.888
25.88000 474.553
25.92000 484.817
25.96000 482.260
26.00000 472.016
26.04000 461.399
26.08000 466.096
26.12000 454.078
26.16000 465.636
26.20000 465.088
26.24000 475.955
26.28000 476.913
26.32000 437.913
26.36000 469.508
26.40000 464.451
26.44000 469.718
26.48000 464.666
26.52000 457.732
26.56000 471.735
26.60000 459.614
26.64000 442.255
26.68000 450.947
26.72000 449.813
26.76000 454.640
26.80000 454.662
26.84000 440.446
26.88000 459.900
26.92000 453.240
26.96000 462.536
27.00000 473.711
27.04000 432.278
27.08000 456.053
27.12000 438.758
27.16000 470.998
27.20000 447.945
27.24000 431.322
27.28000 449.389
27.32000 441.070
27.36000 450.568
27.40000 444.238
27.44000 454.968
27.48000 439.966
27.52000 460.152
27.56000 446.632
27.60000 435.807
27.64000 453.623
27.68000 454.119
27.72000 461.667
27.76000 445.901
27.80000 436.081
27.84000 433.604
27.88000 444.740
27.92000 434.428
27.96000 444.663
28.00000 435.582
28.04000 448.519
28.08000 415.760
28.12000 431.744
28.16000 437.836
28.20000 435.280
28.24000 438.256
28.28000 471.287
28.32000 451.909
28.36000 445.174
28.40000 454.721
28.44000 443.475
28.48000 427.252
28.52000 434.728
28.56000 438.481
28.60000 403.633
28.64000 431.856
28.68000 430.000
28.72000 436.269
28.76000 440.388
28.80000 445.835
28.84000 430.355
28.88000 419.585
28.92000 441.427
28.96000 422.749
29.00000 414.340
29.04000 422.645
29.08000 433.387
29.12000 419.431
29.16000 421.720
29.20000 424.053
29.24000 427.289
29.28000 418.478
29.32000 434.648
29.36000 424.675
29.40000 416.821
29.44000 417.856
29.48000 431.308
29.52000 426.865
29.56000 415.665
29.60000 435.628
29.64000 395.328
29.68000 419.944
29.72000 410.474
29.76000 427.758
29.80000 431.933
29.84000 435.946
29.88000 446.219
29.92000 449.827
29.96000 455.232
30.00000 471.635
30.04000 471.920
30.08000 469.635
30.12000 463.242
30.16000 438.704
30.20000 449.828
30.24000 455.243
30.28000 440.239
30.32000 438.814
30.36000 448.279
30.40000 450.919
30.44000 449.414
30.48000 442.586
30.52000 461.941
30.56000 440.211
30.60000 450.712
30.64000 457.559
30.68000 468.890
30.72000 461.406
30.76000 485.032
30.80000 484.447
30.84000 492.030
30.88000 503.697
30.92000 528.571
30.96000 567.945
31.00000 640.841
31.04000 715.373
31.08000 874.711
31.12000 1139.297
31.16000 1525.376
31.20000 2025.129
31.24000 2679.378
31.28000 3327.846
31.32000 3677.067
31.36000 3917.953
31.40000 3812.278
31.44000 3367.031
31.48000 2781.794
31.52000 2123.186
31.56000 1562.530
31.60000 1057.987
31.64000 827.102
31.68000 681.924
31.72000 578.805
31.76000 514.961
31.80000 492.401
31.84000 469.363
31.88000 454.667
31.92000 459.887
31.96000 442.153
32.00000 436.600
32.04000 429.688
32.08000 420.788
32.12000 422.985
32.16000 403.382
32.20000 409.534
32.24000 407.109
32.28000 418.601
32.32000 402.293
32.36000 408.215
32.40000 395.256
32.44000 416.355
32.48000 386.542
32.52000 396.826
32.56000 401.509
32.60000 385.178
32.64000 391.364
32.68000 388.114
32.72000 378.850
32.76000 385.476
32.80000 377.911
32.84000 389.478
32.88000 414.637
32.92000 458.078
32.96000 472.055
33.00000 496.676
33.04000 471.120
33.08000 451.657
33.12000 427.625
33.16000 411.545
33.20000 391.953
33.24000 371.603
33.28000 371.354
33.32000 356.817
33.36000 366.885
33.40000 348.449
33.44000 363.993
33.48000 353.987
33.52000 349.846
33.56000 353.963
33.60000 334.745
33.64000 328.658
33.68000 347.600
33.72000 351.052
33.76000 343.952
33.80000 335.234
33.84000 351.047
33.88000 335.913
33.92000 335.920
33.96000 341.135
34.00000 338.716
34.04000 344.734
34.08000 357.520
34.12000 338.114
34.16000 357.857
34.20000 330.731
34.24000 339.247
34.28000 341.557
34.32000 329.132
34.36000 332.362
34.40000 328.345
34.44000 324.008
34.48000 321.705
34.52000 339.313
34.56000 332.443
34.60000 328.699
34.64000 326.320
34.68000 323.560
34.72000 323.814
34.76000 334.447
34.80000 322.223
34.84000 312.139
34.88000 316.353
34.92000 314.080
34.96000 305.898
35.00000 318.492
35.04000 331.055
35.08000 330.982
35.12000 329.107
35.16000 323.266
35.20000 318.493
35.24000 324.914
35.28000 316.541
35.32000 327.521
35.36000 313.721
35.40000 309.442
35.44000 330.797
35.48000 306.285
35.52000 313.035
35.56000 314.144
35.60000 316.184
35.64000 293.470
35.68000 315.681
35.72000 319.164
35.76000 332.857
35.80000 312.190
35.84000 312.408
35.88000 309.407
35.92000 318.380
35.96000 301.154
36.00000 312.336
36.04000 329.552
36.08000 303.315
36.12000 301.810
36.16000 308.967
36.20000 308.917
36.24000 305.168
36.28000 305.565
36.32000 297.665
36.36000 309.285
36.40000 308.979
36.44000 300.909
36.48000 300.784
36.52000 300.877
36.56000 298.739
36.60000 312.444
36.64000 304.695
36.68000 306.257
36.72000 302.975
36.76000 306.284
36.80000 299.203
36.84000 304.463
36.88000 297.216
36.92000 317.594
36.96000 320.163
37.00000 325.040
37.04000 307.594
37.08000 295.433
37.12000 303.995
37.16000 298.094
37.20000 305.047
37.24000 310.042
37.28000 306.179
37.32000 309.071
37.36000 293.885
37.40000 294.420
37.44000 292.922
37.48000 326.680
37.52000 293.400
37.56000 290.747
37.60000 287.242
37.64000 305.883
37.68000 304.714
37.72000 297.592
37.76000 300.190
37.80000 300.930
37.84000 299.843
37.88000 306.646
37.92000 287.847
37.96000 305.915
38.00000 300.161
38.04000 292.670
38.08000 287.104
38.12000 289.758
38.16000 309.198
38.20000 319.706
38.24000 313.111
38.28000 312.708
38.32000 330.318
38.36000 339.636
38.40000 365.685
38.44000 377.663
38.48000 442.574
38.52000 494.687
38.56000 560.543
38.60000 622.778
38.64000 685.183
38.68000 706.137
38.72000 671.637
38.76000 672.790
38.80000 637.619
38.84000 573.708
38.88000 480.691
38.92000 417.524
38.96000 380.041
39.00000 341.503
39.04000 326.247
39.08000 297.459
39.12000 295.217
39.16000 306.117
39.20000 297.107
39.24000 285.738
39.28000 286.361
39.32000 281.230
39.36000 289.000
39.40000 269.420
39.44000 281.620
39.48000 268.099
39.52000 278.155
39.56000 264.744
39.60000 275.578
39.64000 261.655
39.68000 270.812
39.72000 278.670
39.76000 259.769
39.80000 274.815
39.84000 272.167
39.88000 273.008
39.92000 263.691
39.96000 267.863
40.00000 266.353
40.04000 261.613
40.08000 284.345
40.12000 272.044
40.16000 259.843
40.20000 257.772
40.24000 263.303
40.28000 270.653
40.32000 261.819
40.36000 266.456
40.40000 252.234
40.44000 254.385
40.48000 265.329
40.52000 266.009
40.56000 266.405
40.60000 249.905
40.64000 264.451
40.68000 250.949
40.72000 244.133
40.76000 260.581
40.80000 260.443
40.84000 259.940
40.88000 253.801
40.92000 246.638
40.96000 267.734
41.00000 255.866
41.04000 256.974
41.08000 254.535
41.12000 250.998
41.16000 246.596
41.20000 234.465
41.24000 246.551
41.28000 251.235
41.32000 239.647
41.36000 239.487
41.40000 245.299
41.44000 252.766
41.48000 247.352
41.52000 233.474
41.56000 247.845
41.60000 243.762
41.64000 252.388
41.68000 237.405
41.72000 240.302
41.76000 251.715
41.80000 241.938
41.84000 237.222
41.88000 236.062
41.92000 235.885
41.96000 237.086
42.00000 240.864
42.04000 232.057
42.08000 239.664
42.12000 241.919
42.16000 222.794
42.20000 239.055
42.24000 251.164
42.28000 231.524
42.32000 229.595
42.36000 250.549
42.40000 227.434
42.44000 238.727
42.48000 246.025
42.52000 230.797
42.56000 233.229
42.60000 240.962
42.64000 251.303
42.68000 240.088
42.72000 232.302
42.76000 232.460
42.80000 239.896
42.84000 238.156
42.88000 233.366
42.92000 236.883
42.96000 245.588
43.00000 252.174
43.04000 242.102
43.08000 234.908
43.12000 225.372
43.16000 227.139
43.20000 229.592
43.24000 235.827
43.28000 224.408
43.32000 220.511
43.36000 242.035
43.40000 223.059
43.44000 246.848
43.48000 232.855
43.52000 226.971
43.56000 217.151
43.60000 225.417
43.64000 229.395
43.68000 221.753
43.72000 221.400
43.76000 224.705
43.80000 233.976
43.84000 227.759
43.88000 233.824
43.92000 246.231
43.96000 230.876
44.00000 249.319
44.04000 232.807
44.08000 244.622
44.12000 244.157
44.16000 223.372
44.20000 223.812
44.24000 233.392
44.28000 239.410
44.32000 223.118
44.36000 226.216
44.40000 219.246
44.44000 222.736
44.48000 241.423
44.52000 240.378
44.56000 234.602
44.60000 238.452
44.64000 255.264
44.68000 275.223
44.72000 278.559
44.76000 314.184
44.80000 327.447
44.84000 375.133
44.88000 409.911
44.92000 469.059
44.96000 502.050
45.00000 538.946
45.04000 562.286
45.08000 528.378
45.12000 505.660
45.16000 462.207
45.20000 414.873
45.24000 373.284
45.28000 349.055
45.32000 280.202
45.36000 276.902
45.40000 263.683
45.44000 250.964
45.48000 250.952
45.52000 234.112
45.56000 243.567
45.60000 222.831
45.64000 226.228
45.68000 216.986
45.72000 235.594
45.76000 210.797
45.80000 229.521
45.84000 218.925
45.88000 218.692
45.92000 211.246
45.96000 216.618
46.00000 221.924
46.04000 211.824
46.08000 196.490
46.12000 202.475
46.16000 214.585
46.20000 196.726
46.24000 221.345
46.28000 204.553
46.32000 209.050
46.36000 209.365
46.40000 207.711
46.44000 202.409
46.48000 205.818
46.52000 200.388
46.56000 205.419
46.60000 197.168
46.64000 214.868
46.68000 207.374
46.72000 193.065
46.76000 203.533
46.80000 204.472
46.84000 216.411
46.88000 209.891
46.92000 193.272
46.96000 195.421
47.00000 188.882
47.04000 195.745
47.08000 193.230
47.12000 192.692
47.16000 199.021
47.20000 197.864
47.24000 207.748
47.28000 200.017
47.32000 201.080
47.36000 197.783
47.40000 184.386
47.44000 201.902
47.48000 190.989
47.52000 204.169
47.56000 194.252
47.60000 186.116
47.64000 198.933
47.68000 182.373
47.72000 197.765
47.76000 199.257
47.80000 178.776
47.84000 173.242
47.88000 185.601
47.92000 183.044
47.96000 191.631
48.00000 202.311
48.04000 192.286
48.08000 201.966
48.12000 177.857
48.16000 194.818
48.20000 195.570
48.24000 187.381
48.28000 185.578
48.32000 179.548
48.36000 187.703
48.40000 189.510
48.44000 181.439
48.48000 184.439
48.52000 189.427
48.56000 179.578
48.60000 182.287
48.64000 193.200
48.68000 185.369
48.72000 179.095
48.76000 181.657
48.80000 176.920
48.84000 183.137
48.88000 183.971
48.92000 174.537
48.96000 184.615
49.00000 187.541
49.04000 185.140
49.08000 181.736
49.12000 189.549
49.16000 181.819
49.20000 179.207
49.24000 180.222
49.28000 185.446
49.32000 177.371
49.36000 183.290
49.40000 169.965
49.44000 179.187
49.48000 185.794
49.52000 185.353
49.56000 189.082
49.60000 180.997
49.64000 177.952
49.68000 173.207
49.72000 189.953
49.76000 189.210
49.80000 181.276
49.84000 178.239
49.88000 181.285
49.92000 172.009
49.96000 191.071
50.00000 180.360
50.04000 182.449
50.08000 177.315
50.12000 179.421
50.16000 190.673
50.20000 182.557
50.24000 179.396
50.28000 180.134
50.32000 194.013
50.36000 199.768
50.40000 220.671
50.44000 238.236
50.48000 238.184
50.52000 251.347
50.56000 266.621
50.60000 276.951
50.64000 296.062
50.68000 296.712
50.72000 292.039
50.76000 276.357
50.80000 263.677
50.84000 240.234
50.88000 238.585
50.92000 216.268
50.96000 206.837
51.00000 200.624
51.04000 210.582
51.08000 171.904
51.12000 186.311
51.16000 184.709
51.20000 179.292
51.24000 183.383
51.28000 167.012
51.32000 169.075
51.36000 163.113
51.40000 170.705
51.44000 171.998
51.48000 171.521
51.52000 168.661
51.56000 169.588
51.60000 164.338
51.64000 164.592
51.68000 163.149
51.72000 162.110
51.76000 171.004
51.80000 165.064
51.84000 161.979
51.88000 171.915
51.92000 164.009
51.96000 164.324
52.00000 165.470
52.04000 170.929
52.08000 171.608
52.12000 160.764
52.16000 159.755
52.20000 168.135
52.24000 172.117
52.28000 169.464
52.32000 161.410
52.36000 164.344
52.40000 161.937
52.44000 161.691
52.48000 169.065
52.52000 172.479
52.56000 165.939
52.60000 156.150
52.64000 158.537
52.68000 164.605
52.72000 155.928
52.76000 171.317
52.80000 158.739
52.84000 148.150
52.88000 162.987
52.92000 142.953
52.96000 162.287
53.00000 152.775
53.04000 159.575
53.08000 163.989
53.12000 156.074
53.16000 165.342
53.20000 165.912
53.24000 155.414
53.28000 168.849
53.32000 158.533
53.36000 158.065
53.40000 153.896
53.44000 162.168
53.48000 165.451
53.52000 163.623
53.56000 168.560
53.60000 157.948
53.64000 155.122
53.68000 155.193
53.72000 161.576
53.76000 159.284
53.80000 151.613
53.84000 164.261
53.88000 161.175
53.92000 160.216
53.96000 152.296
54.00000 160.956
54.04000 154.365
54.08000 156.442
54.12000 155.173
54.16000 146.781
54.20000 158.604
54.24000 163.868
54.28000 158.311
54.32000 153.070
54.36000 157.678
54.40000 152.185
54.44000 158.098
54.48000 163.138
54.52000 164.263
54.56000 158.069
54.60000 155.919
54.64000 164.945
54.68000 177.338
54.72000 169.262
54.76000 155.425
54.80000 161.841
54.84000 154.856
54.88000 158.461
54.92000 160.895
54.96000 163.539
55.00000 157.443
55.04000 161.871
55.08000 165.079
55.12000 168.856
55.16000 169.806
55.20000 166.560
55.24000 164.104
55.28000 178.971
55.32000 179.924
55.36000 178.109
55.40000 183.474
55.44000 195.663
55.48000 200.314
55.52000 211.205
55.56000 233.665
55.60000 266.950
55.64000 315.532
55.68000 359.610
55.72000 427.996
55.76000 491.836
55.80000 553.658
55.84000 621.024
55.88000 644.767
55.92000 661.870
55.96000 651.693
56.00000 604.617
56.04000 525.983
56.08000 444.630
56.12000 399.868
56.16000 338.373
56.20000 284.598
56.24000 237.863
56.28000 212.919
56.32000 192.610
56.36000 185.531
56.40000 184.729
56.44000 169.455
56.48000 166.320
56.52000 178.907
56.56000 178.121
56.60000 157.514
56.64000 157.987
56.68000 152.597
56.72000 145.002
56.76000 150.177
56.80000 157.049
56.84000 164.817
56.88000 150.643
56.92000 155.225
56.96000 148.822
57.00000 142.112
57.04000 154.156
57.08000 154.080
57.12000 165.306
57.16000 151.397
57.20000 150.140
57.24000 150.773
57.28000 149.826
57.32000 155.372
57.36000 158.794
57.40000 140.263
57.44000 137.029
57.48000 143.883
57.52000 144.221
57.56000 144.171
57.60000 152.424
57.64000 149.139
57.68000 149.857
57.72000 150.437
57.76000 141.786
57.80000 144.250
57.84000 144.329
57.88000 152.065
57.92000 137.657
57.96000 144.649
58.00000 140.927
58.04000 149.829
58.08000 148.984
58.12000 149.034
58.16000 133.921
58.20000 144.988
58.24000 138.492
58.28000 137.308
58.32000 134.112
58.36000 143.763
58.40000 142.983
58.44000 140.904
58.48000 142.076
58.52000 141.687
58.56000 148.862
58.60000 142.498
58.64000 148.430
58.68000 142.132
58.72000 152.586
58.76000 134.945
58.80000 141.537
58.84000 133.769
58.88000 137.536
58.92000 133.966
58.96000 139.676
59.00000 133.693
59.04000 127.235
59.08000 134.167
59.12000 134.566
59.16000 134.752
59.20000 143.615
59.24000 145.957
59.28000 137.263
59.32000 138.644
59.36000 129.815
59.40000 140.721
59.44000 134.312
59.48000 136.652
59.52000 128.726
59.56000 123.321
59.60000 133.852
59.64000 142.669
59.68000 136.371
59.72000 142.256
59.76000 140.779
59.80000 144.669
59.84000 137.941
59.88000 140.592
59.92000 132.630
59.96000 144.043
60.00000 129.812
60.04000 141.844
60.08000 135.518
60.12000 134.162
60.16000 130.122
60.20000 132.018
60.24000 135.943
60.28000 132.759
60.32000 129.821
60.36000 147.121
60.40000 140.740
60.44000 139.935
60.48000 135.764
60.52000 137.547
60.56000 138.514
60.60000 137.796
60.64000 139.682
60.68000 137.265
60.72000 126.803
60.76000 127.504
60.80000 137.694
60.84000 138.188
60.88000 128.986
60.92000 130.551
60.96000 130.774
61.00000 133.121
61.04000 144.262
61.08000 131.637
61.12000 141.441
61.16000 134.063
61.20000 130.865
61.24000 141.212
61.28000 140.954
61.32000 135.915
61.36000 145.207
61.40000 137.307
61.44000 135.360
61.48000 148.498
61.52000 173.362
61.56000 222.405
61.60000 272.130
61.64000 307.138
61.68000 331.563
61.72000 343.143
61.76000 321.336
61.80000 256.264
61.84000 212.033
61.88000 164.692
61.92000 135.253
61.96000 145.765
62.00000 150.382
62.04000 149.538
62.08000 142.944
62.12000 151.893
62.16000 149.184
62.20000 140.513
62.24000 139.441
62.28000 141.574
62.32000 140.264
62.36000 140.885
62.40000 139.883
62.44000 144.498
62.48000 148.533
62.52000 145.275
62.56000 151.124
62.60000 142.337
62.64000 136.377
62.68000 142.053
62.72000 145.848
62.76000 136.520
62.80000 147.043
62.84000 141.473
62.88000 149.904
62.92000 141.784
62.96000 153.405
63.00000 151.014
63.04000 159.878
63.08000 151.394
63.12000 144.534
63.16000 149.753
63.20000 153.808
63.24000 146.087
63.28000 143.869
63.32000 142.155
63.36000 148.932
63.40000 150.388
63.44000 152.855
63.48000 159.722
63.52000 153.193
63.56000 155.601
63.60000 151.054
63.64000 155.893
63.68000 151.780
63.72000 158.155
63.76000 161.121
63.80000 154.892
63.84000 161.842
63.88000 164.517
63.92000 148.899
63.96000 158.410
64.00000 154.389
64.04000 158.958
64.08000 166.569
64.12000 164.998
64.16000 147.642
64.20000 185.790
64.24000 167.844
64.28000 173.406
64.32000 159.808
64.36000 172.123
64.40000 170.912
64.44000 181.987
64.48000 168.030
64.52000 159.158
64.56000 164.452
64.60000 183.805
64.64000 178.509
64.68000 177.320
64.72000 183.876
64.76000 183.223
64.80000 187.194
64.84000 190.501
64.88000 195.199
64.92000 206.878
64.96000 193.561
65.00000 202.959
65.04000 217.181
65.08000 211.667
65.12000 220.152
65.16000 234.036
65.20000 259.676
65.24000 271.122
65.28000 295.885
65.32000 311.065
65.36000 371.136
65.40000 397.806
65.44000 416.275
65.48000 440.167
65.52000 442.785
65.56000 459.312
65.60000 467.788
65.64000 490.003
65.68000 541.357
65.72000 719.037
65.76000 977.183
65.80000 1179.834
65.84000 1312.747
65.88000 1336.768
65.92000 1297.272
65.96000 1104.432
66.00000 771.859
66.04000 508.285
66.08000 387.391
66.12000 338.591
66.16000 322.097
66.20000 304.277
66.24000 347.898
66.28000 365.020
66.32000 432.989
66.36000 483.715
66.40000 496.813
66.44000 515.608
66.48000 489.657
66.52000 456.185
66.56000 398.858
66.60000 359.382
66.64000 333.076
66.68000 327.458
66.72000 326.542
66.76000 333.368
66.80000 352.845
66.84000 345.609
66.88000 357.798
66.92000 362.573
66.96000 363.398
67.00000 364.056
67.04000 380.048
67.08000 384.820
67.12000 392.302
67.16000 408.261
67.20000 401.010
67.24000 411.713
67.28000 407.369
67.32000 408.388
67.36000 425.419
67.40000 453.498
67.44000 449.996
67.48000 452.453
67.52000 472.016
67.56000 468.188
67.60000 479.029
67.64000 493.589
67.68000 493.726
67.72000 512.226
67.76000 503.311
67.80000 529.426
67.84000 549.689
67.88000 550.159
67.92000 550.098
67.96000 566.346
68.00000 577.441
68.04000 597.948
68.08000 600.316
68.12000 632.938
68.16000 638.051
68.20000 658.270
68.24000 674.027
68.28000 691.922
68.32000 711.123
68.36000 738.803
68.40000 759.333
68.44000 804.289
68.48000 858.531
68.52000 893.019
68.56000 974.036
68.60000 1123.019
68.64000 1291.432
68.68000 1550.379
68.72000 1788.891
68.76000 2083.486
68.80000 2365.800
68.84000 2758.224
68.88000 3414.039
68.92000 6649.667
68.96000 15923.754
69.00000 37960.977
69.04000 61834.664
69.08000 74985.180
69.12000 77576.047
69.16000 80355.984
69.20000 79813.836
69.24000 67906.898
69.28000 52500.363
69.32000 42839.137
69.36000 38248.531
69.40000 31551.305
69.44000 19450.545
69.48000 9264.028
69.52000 4034.456
69.56000 2338.432
69.60000 1791.733
69.64000 1520.373
69.68000 1328.932
69.72000 1177.903
69.76000 1054.726
69.80000 976.531
69.84000 925.511
69.88000 886.456
69.92000 866.882
69.96000 819.630
70.00000 765.569