File: XRD/30-09-2025 Dep 1/XY Data/BTO_Mapping_Theta2Theta_30-09-2025_001_13_26-765_29-726.xy
20.00000 569.407
20.04000 543.063
20.08000 564.243
20.12000 595.416
20.16000 557.562
20.20000 564.652
20.24000 536.899
20.28000 555.433
20.32000 558.582
20.36000 552.283
20.40000 569.294
20.44000 569.182
20.48000 559.672
20.52000 540.257
20.56000 557.162
20.60000 553.070
20.64000 559.286
20.68000 552.767
20.72000 552.510
20.76000 560.067
20.80000 542.431
20.84000 537.566
20.88000 564.345
20.92000 567.549
20.96000 552.766
21.00000 549.357
21.04000 552.220
21.08000 555.454
21.12000 571.115
21.16000 537.723
21.20000 550.254
21.24000 560.957
21.28000 572.806
21.32000 566.251
21.36000 532.298
21.40000 545.051
21.44000 532.387
21.48000 558.306
21.52000 543.026
21.56000 545.530
21.60000 546.435
21.64000 521.548
21.68000 547.054
21.72000 557.251
21.76000 584.920
21.80000 573.575
21.84000 558.683
21.88000 580.346
21.92000 588.201
21.96000 602.452
22.00000 624.240
22.04000 623.835
22.08000 630.757
22.12000 641.757
22.16000 604.531
22.20000 613.364
22.24000 628.145
22.28000 588.147
22.32000 575.263
22.36000 570.902
22.40000 539.867
22.44000 529.650
22.48000 531.192
22.52000 512.009
22.56000 532.646
22.60000 546.870
22.64000 536.682
22.68000 541.424
22.72000 516.176
22.76000 530.760
22.80000 527.592
22.84000 528.103
22.88000 501.098
22.92000 529.121
22.96000 521.559
23.00000 532.892
23.04000 521.512
23.08000 521.760
23.12000 510.928
23.16000 516.824
23.20000 496.734
23.24000 502.477
23.28000 506.920
23.32000 513.789
23.36000 516.273
23.40000 511.588
23.44000 525.442
23.48000 505.353
23.52000 517.749
23.56000 496.871
23.60000 509.368
23.64000 518.145
23.68000 505.146
23.72000 496.095
23.76000 522.629
23.80000 517.642
23.84000 520.543
23.88000 522.189
23.92000 523.918
23.96000 522.951
24.00000 506.425
24.04000 539.744
24.08000 542.377
24.12000 532.322
24.16000 530.539
24.20000 508.442
24.24000 501.224
24.28000 502.672
24.32000 507.676
24.36000 496.482
24.40000 497.212
24.44000 506.366
24.48000 483.526
24.52000 497.255
24.56000 482.365
24.60000 473.413
24.64000 471.235
24.68000 488.809
24.72000 478.908
24.76000 479.042
24.80000 497.855
24.84000 506.695
24.88000 477.151
24.92000 481.479
24.96000 467.440
25.00000 467.395
25.04000 449.312
25.08000 501.756
25.12000 473.526
25.16000 465.947
25.20000 475.870
25.24000 472.379
25.28000 459.972
25.32000 472.786
25.36000 481.301
25.40000 472.434
25.44000 457.531
25.48000 472.564
25.52000 470.615
25.56000 458.911
25.60000 456.239
25.64000 454.031
25.68000 471.094
25.72000 475.396
25.76000 483.917
25.80000 455.080
25.84000 451.446
25.88000 457.872
25.92000 477.260
25.96000 465.100
26.00000 493.530
26.04000 470.205
26.08000 451.565
26.12000 468.402
26.16000 451.652
26.20000 455.901
26.24000 455.612
26.28000 456.622
26.32000 448.570
26.36000 457.590
26.40000 444.534
26.44000 457.539
26.48000 449.019
26.52000 449.970
26.56000 443.864
26.60000 445.443
26.64000 462.091
26.68000 451.180
26.72000 428.852
26.76000 445.261
26.80000 453.233
26.84000 462.219
26.88000 444.071
26.92000 445.661
26.96000 435.203
27.00000 445.186
27.04000 445.108
27.08000 432.078
27.12000 442.508
27.16000 419.593
27.20000 435.894
27.24000 431.951
27.28000 450.457
27.32000 426.652
27.36000 430.748
27.40000 450.930
27.44000 414.886
27.48000 434.163
27.52000 443.354
27.56000 443.111
27.60000 463.822
27.64000 455.061
27.68000 440.558
27.72000 430.475
27.76000 431.013
27.80000 442.294
27.84000 429.623
27.88000 438.901
27.92000 428.800
27.96000 431.598
28.00000 443.200
28.04000 438.417
28.08000 441.585
28.12000 436.347
28.16000 444.475
28.20000 433.337
28.24000 434.818
28.28000 447.240
28.32000 438.349
28.36000 435.868
28.40000 426.630
28.44000 426.972
28.48000 421.177
28.52000 404.300
28.56000 431.002
28.60000 404.599
28.64000 420.516
28.68000 424.203
28.72000 421.451
28.76000 415.073
28.80000 446.401
28.84000 425.025
28.88000 418.150
28.92000 419.000
28.96000 423.681
29.00000 414.094
29.04000 406.934
29.08000 427.484
29.12000 408.983
29.16000 412.981
29.20000 410.962
29.24000 412.901
29.28000 423.700
29.32000 433.995
29.36000 411.934
29.40000 416.758
29.44000 407.726
29.48000 401.834
29.52000 397.385
29.56000 397.405
29.60000 401.153
29.64000 397.951
29.68000 416.170
29.72000 393.799
29.76000 418.690
29.80000 415.102
29.84000 423.972
29.88000 429.898
29.92000 422.171
29.96000 432.358
30.00000 425.334
30.04000 425.626
30.08000 424.267
30.12000 411.266
30.16000 407.853
30.20000 423.305
30.24000 430.219
30.28000 422.044
30.32000 404.734
30.36000 435.666
30.40000 406.603
30.44000 392.744
30.48000 426.191
30.52000 424.225
30.56000 410.990
30.60000 408.429
30.64000 408.307
30.68000 417.759
30.72000 434.738
30.76000 434.536
30.80000 436.335
30.84000 438.583
30.88000 453.072
30.92000 477.600
30.96000 469.736
31.00000 502.506
31.04000 546.292
31.08000 608.256
31.12000 762.999
31.16000 952.477
31.20000 1202.839
31.24000 1538.847
31.28000 1959.006
31.32000 2284.895
31.36000 2499.094
31.40000 2562.906
31.44000 2397.711
31.48000 2125.373
31.52000 1779.951
31.56000 1421.069
31.60000 1105.057
31.64000 843.896
31.68000 673.603
31.72000 584.449
31.76000 514.884
31.80000 470.849
31.84000 456.394
31.88000 435.831
31.92000 411.798
31.96000 414.027
32.00000 408.172
32.04000 403.715
32.08000 394.840
32.12000 399.112
32.16000 404.686
32.20000 394.357
32.24000 382.433
32.28000 406.291
32.32000 388.519
32.36000 399.443
32.40000 383.535
32.44000 387.397
32.48000 381.997
32.52000 378.207
32.56000 374.905
32.60000 376.685
32.64000 390.524
32.68000 374.671
32.72000 363.268
32.76000 365.817
32.80000 374.419
32.84000 383.815
32.88000 381.957
32.92000 367.266
32.96000 406.052
33.00000 385.879
33.04000 391.414
33.08000 378.026
33.12000 391.096
33.16000 363.569
33.20000 339.471
33.24000 345.947
33.28000 347.135
33.32000 337.466
33.36000 350.763
33.40000 357.109
33.44000 345.399
33.48000 330.033
33.52000 327.234
33.56000 334.001
33.60000 348.062
33.64000 349.619
33.68000 321.325
33.72000 343.228
33.76000 345.251
33.80000 344.402
33.84000 334.054
33.88000 352.661
33.92000 351.087
33.96000 349.641
34.00000 343.346
34.04000 343.360
34.08000 346.772
34.12000 348.336
34.16000 363.797
34.20000 363.817
34.24000 364.559
34.28000 361.564
34.32000 335.483
34.36000 357.713
34.40000 363.275
34.44000 366.400
34.48000 369.260
34.52000 353.509
34.56000 363.249
34.60000 363.136
34.64000 342.738
34.68000 348.611
34.72000 343.941
34.76000 327.601
34.80000 335.890
34.84000 335.945
34.88000 341.010
34.92000 335.440
34.96000 323.279
35.00000 334.265
35.04000 319.707
35.08000 322.240
35.12000 322.721
35.16000 326.196
35.20000 319.058
35.24000 324.156
35.28000 305.329
35.32000 306.869
35.36000 302.568
35.40000 314.033
35.44000 313.012
35.48000 321.973
35.52000 315.785
35.56000 323.168
35.60000 312.573
35.64000 297.085
35.68000 314.079
35.72000 303.031
35.76000 318.136
35.80000 305.155
35.84000 309.786
35.88000 305.183
35.92000 313.604
35.96000 322.855
36.00000 304.305
36.04000 308.271
36.08000 314.228
36.12000 305.131
36.16000 298.543
36.20000 304.302
36.24000 315.702
36.28000 304.691
36.32000 301.387
36.36000 315.683
36.40000 291.054
36.44000 302.137
36.48000 282.971
36.52000 296.027
36.56000 308.762
36.60000 297.226
36.64000 305.840
36.68000 300.708
36.72000 292.235
36.76000 304.684
36.80000 312.461
36.84000 291.293
36.88000 297.532
36.92000 301.514
36.96000 311.513
37.00000 319.433
37.04000 312.133
37.08000 318.764
37.12000 298.509
37.16000 304.770
37.20000 298.225
37.24000 302.460
37.28000 282.812
37.32000 295.970
37.36000 296.350
37.40000 298.972
37.44000 291.169
37.48000 310.965
37.52000 289.815
37.56000 303.100
37.60000 302.714
37.64000 315.203
37.68000 307.434
37.72000 285.217
37.76000 297.626
37.80000 305.247
37.84000 296.025
37.88000 280.538
37.92000 299.184
37.96000 289.647
38.00000 284.468
38.04000 297.932
38.08000 284.844
38.12000 304.546
38.16000 302.533
38.20000 311.382
38.24000 302.444
38.28000 307.693
38.32000 315.749
38.36000 322.917
38.40000 335.779
38.44000 389.683
38.48000 443.471
38.52000 511.811
38.56000 617.668
38.60000 700.955
38.64000 854.479
38.68000 985.655
38.72000 1053.284
38.76000 1077.564
38.80000 1033.753
38.84000 902.969
38.88000 793.797
38.92000 648.421
38.96000 519.922
39.00000 435.703
39.04000 367.054
39.08000 325.807
39.12000 317.461
39.16000 294.352
39.20000 289.447
39.24000 290.969
39.28000 286.260
39.32000 278.397
39.36000 277.098
39.40000 268.955
39.44000 286.424
39.48000 263.585
39.52000 285.046
39.56000 275.828
39.60000 273.417
39.64000 283.311
39.68000 284.483
39.72000 267.218
39.76000 270.735
39.80000 274.670
39.84000 280.696
39.88000 269.005
39.92000 274.695
39.96000 266.536
40.00000 267.848
40.04000 260.914
40.08000 265.388
40.12000 266.750
40.16000 252.778
40.20000 262.432
40.24000 250.671
40.28000 271.496
40.32000 262.323
40.36000 262.909
40.40000 260.137
40.44000 252.507
40.48000 250.541
40.52000 270.735
40.56000 255.772
40.60000 247.146
40.64000 243.208
40.68000 255.728
40.72000 245.781
40.76000 253.203
40.80000 260.323
40.84000 244.621
40.88000 244.844
40.92000 247.424
40.96000 238.786
41.00000 234.072
41.04000 254.543
41.08000 246.153
41.12000 246.811
41.16000 251.237
41.20000 239.787
41.24000 247.613
41.28000 244.404
41.32000 247.920
41.36000 236.666
41.40000 247.056
41.44000 244.299
41.48000 238.393
41.52000 236.954
41.56000 240.581
41.60000 237.142
41.64000 238.966
41.68000 237.316
41.72000 232.942
41.76000 235.662
41.80000 239.881
41.84000 232.785
41.88000 244.720
41.92000 244.227
41.96000 239.236
42.00000 246.396
42.04000 248.320
42.08000 236.829
42.12000 238.036
42.16000 243.849
42.20000 241.111
42.24000 242.549
42.28000 254.849
42.32000 237.392
42.36000 242.014
42.40000 243.363
42.44000 226.559
42.48000 230.518
42.52000 232.719
42.56000 238.258
42.60000 238.207
42.64000 232.801
42.68000 223.283
42.72000 239.434
42.76000 238.286
42.80000 241.218
42.84000 228.189
42.88000 227.264
42.92000 224.087
42.96000 228.857
43.00000 245.766
43.04000 240.018
43.08000 238.437
43.12000 243.699
43.16000 232.461
43.20000 238.327
43.24000 223.357
43.28000 227.963
43.32000 231.173
43.36000 222.791
43.40000 241.565
43.44000 239.027
43.48000 225.978
43.52000 224.452
43.56000 236.115
43.60000 234.633
43.64000 220.537
43.68000 222.221
43.72000 209.502
43.76000 231.614
43.80000 224.929
43.84000 223.817
43.88000 217.146
43.92000 213.482
43.96000 221.951
44.00000 226.348
44.04000 215.610
44.08000 205.676
44.12000 219.890
44.16000 236.068
44.20000 236.790
44.24000 220.993
44.28000 213.664
44.32000 199.413
44.36000 219.632
44.40000 237.172
44.44000 229.200
44.48000 231.671
44.52000 219.704
44.56000 227.813
44.60000 231.742
44.64000 243.072
44.68000 245.021
44.72000 238.937
44.76000 243.785
44.80000 243.455
44.84000 249.678
44.88000 259.845
44.92000 264.632
44.96000 272.274
45.00000 271.051
45.04000 286.368
45.08000 296.541
45.12000 298.623
45.16000 292.461
45.20000 286.226
45.24000 310.670
45.28000 269.549
45.32000 260.785
45.36000 250.967
45.40000 252.944
45.44000 232.638
45.48000 227.006
45.52000 232.944
45.56000 226.403
45.60000 220.366
45.64000 221.530
45.68000 217.771
45.72000 216.541
45.76000 193.873
45.80000 219.859
45.84000 208.444
45.88000 213.874
45.92000 210.674
45.96000 199.894
46.00000 210.541
46.04000 219.168
46.08000 206.459
46.12000 206.502
46.16000 199.645
46.20000 216.223
46.24000 199.761
46.28000 202.302
46.32000 202.296
46.36000 213.399
46.40000 207.994
46.44000 211.261
46.48000 199.129
46.52000 223.584
46.56000 202.794
46.60000 214.413
46.64000 208.380
46.68000 215.248
46.72000 206.194
46.76000 191.924
46.80000 195.666
46.84000 199.777
46.88000 196.850
46.92000 178.221
46.96000 194.758
47.00000 200.986
47.04000 197.291
47.08000 196.897
47.12000 186.556
47.16000 191.394
47.20000 199.818
47.24000 205.199
47.28000 189.034
47.32000 190.237
47.36000 193.742
47.40000 191.856
47.44000 184.139
47.48000 182.860
47.52000 187.151
47.56000 195.266
47.60000 191.417
47.64000 195.843
47.68000 188.441
47.72000 183.357
47.76000 190.869
47.80000 195.575
47.84000 189.666
47.88000 193.522
47.92000 186.298
47.96000 191.042
48.00000 185.762
48.04000 194.128
48.08000 187.247
48.12000 172.581
48.16000 173.975
48.20000 188.762
48.24000 179.419
48.28000 185.038
48.32000 182.876
48.36000 192.421
48.40000 195.280
48.44000 178.672
48.48000 179.573
48.52000 176.783
48.56000 172.329
48.60000 186.346
48.64000 180.665
48.68000 195.972
48.72000 180.422
48.76000 184.762
48.80000 176.398
48.84000 181.837
48.88000 174.989
48.92000 183.682
48.96000 180.192
49.00000 178.218
49.04000 174.107
49.08000 188.208
49.12000 175.954
49.16000 181.336
49.20000 189.074
49.24000 169.643
49.28000 176.974
49.32000 177.148
49.36000 188.701
49.40000 183.093
49.44000 171.660
49.48000 179.417
49.52000 166.807
49.56000 182.143
49.60000 173.754
49.64000 176.410
49.68000 172.321
49.72000 175.703
49.76000 177.331
49.80000 183.595
49.84000 173.661
49.88000 181.408
49.92000 180.390
49.96000 185.303
50.00000 180.601
50.04000 177.834
50.08000 186.099
50.12000 174.551
50.16000 178.775
50.20000 182.101
50.24000 183.689
50.28000 179.109
50.32000 187.100
50.36000 180.634
50.40000 194.753
50.44000 195.030
50.48000 191.821
50.52000 206.890
50.56000 203.012
50.60000 218.705
50.64000 217.952
50.68000 227.014
50.72000 225.606
50.76000 231.865
50.80000 221.569
50.84000 210.337
50.88000 209.502
50.92000 216.553
50.96000 207.593
51.00000 191.517
51.04000 193.267
51.08000 169.391
51.12000 175.823
51.16000 177.655
51.20000 172.423
51.24000 174.552
51.28000 162.212
51.32000 167.537
51.36000 182.004
51.40000 177.829
51.44000 172.982
51.48000 169.490
51.52000 163.123
51.56000 170.087
51.60000 162.657
51.64000 165.563
51.68000 169.745
51.72000 171.292
51.76000 154.307
51.80000 177.292
51.84000 164.157
51.88000 162.504
51.92000 161.869
51.96000 174.106
52.00000 150.001
52.04000 162.473
52.08000 166.950
52.12000 158.756
52.16000 168.030
52.20000 176.393
52.24000 161.302
52.28000 164.186
52.32000 153.601
52.36000 153.673
52.40000 157.704
52.44000 155.041
52.48000 147.051
52.52000 166.202
52.56000 152.905
52.60000 160.212
52.64000 156.984
52.68000 172.828
52.72000 154.015
52.76000 159.401
52.80000 162.601
52.84000 143.420
52.88000 171.418
52.92000 149.562
52.96000 155.359
53.00000 155.623
53.04000 152.527
53.08000 154.714
53.12000 161.045
53.16000 158.291
53.20000 164.655
53.24000 166.283
53.28000 156.149
53.32000 173.978
53.36000 160.456
53.40000 166.578
53.44000 163.537
53.48000 165.929
53.52000 168.009
53.56000 152.252
53.60000 162.636
53.64000 159.973
53.68000 156.604
53.72000 160.688
53.76000 164.643
53.80000 157.722
53.84000 158.919
53.88000 165.433
53.92000 162.465
53.96000 151.972
54.00000 162.708
54.04000 165.383
54.08000 161.913
54.12000 170.633
54.16000 152.129
54.20000 154.247
54.24000 163.763
54.28000 158.339
54.32000 156.051
54.36000 150.798
54.40000 158.408
54.44000 159.460
54.48000 156.678
54.52000 153.972
54.56000 150.579
54.60000 156.545
54.64000 159.477
54.68000 150.321
54.72000 161.664
54.76000 167.881
54.80000 150.028
54.84000 159.327
54.88000 148.335
54.92000 160.165
54.96000 155.272
55.00000 154.285
55.04000 157.023
55.08000 161.254
55.12000 163.289
55.16000 153.369
55.20000 158.629
55.24000 150.457
55.28000 174.116
55.32000 164.786
55.36000 171.742
55.40000 167.906
55.44000 186.480
55.48000 191.010
55.52000 179.595
55.56000 212.760
55.60000 232.189
55.64000 245.270
55.68000 280.431
55.72000 311.505
55.76000 371.498
55.80000 443.723
55.84000 518.123
55.88000 557.290
55.92000 587.044
55.96000 617.364
56.00000 599.886
56.04000 589.844
56.08000 553.762
56.12000 485.508
56.16000 425.159
56.20000 356.858
56.24000 311.143
56.28000 271.529
56.32000 237.515
56.36000 213.958
56.40000 200.192
56.44000 188.853
56.48000 173.976
56.52000 161.893
56.56000 163.786
56.60000 152.607
56.64000 154.020
56.68000 163.599
56.72000 152.815
56.76000 142.044
56.80000 157.389
56.84000 151.288
56.88000 146.718
56.92000 148.856
56.96000 149.950
57.00000 157.435
57.04000 140.396
57.08000 147.719
57.12000 149.120
57.16000 137.886
57.20000 142.202
57.24000 142.289
57.28000 129.095
57.32000 146.258
57.36000 141.877
57.40000 142.466
57.44000 135.059
57.48000 139.294
57.52000 144.652
57.56000 142.885
57.60000 147.143
57.64000 137.760
57.68000 141.918
57.72000 145.171
57.76000 137.152
57.80000 129.417
57.84000 137.622
57.88000 143.725
57.92000 143.743
57.96000 151.530
58.00000 142.095
58.04000 147.995
58.08000 132.236
58.12000 142.980
58.16000 133.841
58.20000 135.839
58.24000 137.765
58.28000 144.258
58.32000 159.722
58.36000 130.464
58.40000 128.790
58.44000 136.769
58.48000 142.043
58.52000 137.080
58.56000 147.068
58.60000 133.090
58.64000 138.191
58.68000 140.727
58.72000 138.075
58.76000 147.107
58.80000 135.936
58.84000 142.188
58.88000 133.682
58.92000 131.780
58.96000 135.020
59.00000 133.167
59.04000 126.518
59.08000 138.672
59.12000 129.817
59.16000 135.014
59.20000 129.186
59.24000 137.095
59.28000 132.915
59.32000 139.590
59.36000 140.468
59.40000 142.144
59.44000 141.722
59.48000 136.218
59.52000 125.488
59.56000 134.959
59.60000 138.288
59.64000 137.267
59.68000 129.888
59.72000 137.126
59.76000 127.141
59.80000 126.025
59.84000 124.700
59.88000 133.361
59.92000 131.750
59.96000 134.854
60.00000 132.722
60.04000 132.586
60.08000 124.671
60.12000 136.037
60.16000 145.388
60.20000 136.115
60.24000 141.104
60.28000 127.652
60.32000 128.447
60.36000 123.159
60.40000 135.184
60.44000 137.925
60.48000 140.685
60.52000 129.924
60.56000 134.343
60.60000 135.681
60.64000 134.176
60.68000 134.136
60.72000 138.532
60.76000 138.117
60.80000 133.374
60.84000 136.683
60.88000 141.948
60.92000 136.538
60.96000 138.446
61.00000 140.671
61.04000 137.290
61.08000 133.143
61.12000 131.096
61.16000 142.409
61.20000 137.784
61.24000 149.669
61.28000 143.402
61.32000 141.904
61.36000 141.694
61.40000 144.321
61.44000 129.212
61.48000 148.063
61.52000 154.631
61.56000 194.137
61.60000 224.204
61.64000 237.326
61.68000 249.247
61.72000 256.685
61.76000 235.653
61.80000 206.727
61.84000 171.091
61.88000 145.789
61.92000 151.881
61.96000 145.604
62.00000 147.454
62.04000 143.505
62.08000 143.683
62.12000 134.779
62.16000 136.736
62.20000 136.241
62.24000 136.932
62.28000 141.731
62.32000 132.981
62.36000 139.895
62.40000 139.258
62.44000 141.106
62.48000 146.459
62.52000 155.656
62.56000 144.225
62.60000 143.151
62.64000 140.543
62.68000 138.861
62.72000 142.587
62.76000 139.686
62.80000 147.165
62.84000 135.344
62.88000 134.897
62.92000 143.221
62.96000 139.410
63.00000 149.968
63.04000 144.332
63.08000 157.877
63.12000 144.552
63.16000 155.435
63.20000 151.473
63.24000 144.296
63.28000 138.170
63.32000 150.344
63.36000 146.309
63.40000 155.606
63.44000 147.322
63.48000 153.103
63.52000 145.770
63.56000 145.114
63.60000 158.264
63.64000 152.132
63.68000 150.540
63.72000 152.148
63.76000 152.842
63.80000 154.732
63.84000 152.233
63.88000 146.668
63.92000 159.076
63.96000 148.220
64.00000 139.511
64.04000 157.803
64.08000 160.957
64.12000 153.522
64.16000 142.162
64.20000 145.875
64.24000 153.535
64.28000 154.621
64.32000 155.622
64.36000 158.498
64.40000 160.236
64.44000 159.026
64.48000 161.550
64.52000 159.049
64.56000 164.473
64.60000 165.351
64.64000 165.368
64.68000 165.504
64.72000 165.251
64.76000 186.213
64.80000 175.685
64.84000 178.715
64.88000 174.115
64.92000 189.112
64.96000 179.869
65.00000 192.075
65.04000 183.775
65.08000 192.161
65.12000 193.159
65.16000 206.111
65.20000 204.224
65.24000 222.659
65.28000 219.854
65.32000 238.650
65.36000 250.068
65.40000 274.726
65.44000 282.282
65.48000 310.840
65.52000 327.891
65.56000 355.713
65.60000 375.677
65.64000 386.126
65.68000 453.879
65.72000 579.280
65.76000 736.606
65.80000 841.512
65.84000 914.789
65.88000 928.180
65.92000 879.532
65.96000 730.664
66.00000 534.285
66.04000 383.866
66.08000 306.270
66.12000 289.069
66.16000 275.456
66.20000 284.276
66.24000 301.408
66.28000 313.358
66.32000 355.208
66.36000 383.647
66.40000 403.492
66.44000 391.672
66.48000 369.659
66.52000 379.453
66.56000 318.450
66.60000 297.051
66.64000 300.707
66.68000 302.962
66.72000 294.711
66.76000 294.959
66.80000 298.466
66.84000 311.759
66.88000 308.115
66.92000 319.000
66.96000 322.407
67.00000 312.962
67.04000 316.598
67.08000 330.816
67.12000 335.745
67.16000 342.638
67.20000 344.154
67.24000 361.118
67.28000 361.204
67.32000 363.178
67.36000 360.821
67.40000 368.992
67.44000 391.687
67.48000 401.083
67.52000 402.457
67.56000 408.440
67.60000 409.857
67.64000 414.868
67.68000 424.128
67.72000 431.420
67.76000 443.172
67.80000 441.692
67.84000 455.103
67.88000 479.131
67.92000 479.560
67.96000 480.103
68.00000 505.567
68.04000 503.870
68.08000 521.715
68.12000 516.204
68.16000 558.010
68.20000 562.663
68.24000 554.321
68.28000 580.281
68.32000 594.847
68.36000 646.139
68.40000 636.134
68.44000 655.751
68.48000 705.645
68.52000 730.236
68.56000 790.503
68.60000 904.209
68.64000 1029.430
68.68000 1212.083
68.72000 1387.601
68.76000 1525.061
68.80000 1783.211
68.84000 2040.638
68.88000 2458.115
68.92000 4665.762
68.96000 11710.504
69.00000 26832.438
69.04000 41468.988
69.08000 47741.664
69.12000 48543.547
69.16000 50741.117
69.20000 49833.492
69.24000 40894.883
69.28000 30901.500
69.32000 25927.549
69.36000 23468.299
69.40000 18990.500
69.44000 10891.860
69.48000 4790.871
69.52000 2323.097
69.56000 1535.232
69.60000 1249.908
69.64000 1082.328
69.68000 956.639
69.72000 888.697
69.76000 832.556
69.80000 771.799
69.84000 743.622
69.88000 713.602
69.92000 677.568
69.96000 652.017
70.00000 627.641