File: XRD/30-09-2025 Dep 1/XY Data/BTO_Mapping_Theta2Theta_30-09-2025_001_07_18-271_8-135.xy
20.00000 568.164
20.04000 559.890
20.08000 589.883
20.12000 562.188
20.16000 560.396
20.20000 573.740
20.24000 563.152
20.28000 580.603
20.32000 583.758
20.36000 573.650
20.40000 554.184
20.44000 567.694
20.48000 560.566
20.52000 572.733
20.56000 566.431
20.60000 580.555
20.64000 574.283
20.68000 554.095
20.72000 572.146
20.76000 552.389
20.80000 556.183
20.84000 581.982
20.88000 566.463
20.92000 558.201
20.96000 554.997
21.00000 559.690
21.04000 543.405
21.08000 560.074
21.12000 543.288
21.16000 559.063
21.20000 548.976
21.24000 554.530
21.28000 539.547
21.32000 534.448
21.36000 561.631
21.40000 558.897
21.44000 513.958
21.48000 550.665
21.52000 563.204
21.56000 574.158
21.60000 548.086
21.64000 537.811
21.68000 560.681
21.72000 570.362
21.76000 589.674
21.80000 577.871
21.84000 610.215
21.88000 674.116
21.92000 666.081
21.96000 709.717
22.00000 743.208
22.04000 751.707
22.08000 765.925
22.12000 748.178
22.16000 699.377
22.20000 668.293
22.24000 631.942
22.28000 596.107
22.32000 565.088
22.36000 571.784
22.40000 565.559
22.44000 552.848
22.48000 551.417
22.52000 536.683
22.56000 528.069
22.60000 517.300
22.64000 530.836
22.68000 504.918
22.72000 528.760
22.76000 537.391
22.80000 535.758
22.84000 510.731
22.88000 534.175
22.92000 527.809
22.96000 532.826
23.00000 508.874
23.04000 526.194
23.08000 521.184
23.12000 522.835
23.16000 513.122
23.20000 505.969
23.24000 515.994
23.28000 520.791
23.32000 498.286
23.36000 519.735
23.40000 510.288
23.44000 522.408
23.48000 508.922
23.52000 513.625
23.56000 503.997
23.60000 503.373
23.64000 483.396
23.68000 512.392
23.72000 512.388
23.76000 498.782
23.80000 519.020
23.84000 523.314
23.88000 527.730
23.92000 512.475
23.96000 519.418
24.00000 532.669
24.04000 524.717
24.08000 533.185
24.12000 518.316
24.16000 517.129
24.20000 511.047
24.24000 531.034
24.28000 517.955
24.32000 515.852
24.36000 526.003
24.40000 512.217
24.44000 503.103
24.48000 506.680
24.52000 496.688
24.56000 500.923
24.60000 492.053
24.64000 476.277
24.68000 500.701
24.72000 479.290
24.76000 470.207
24.80000 502.281
24.84000 491.121
24.88000 477.748
24.92000 471.572
24.96000 485.416
25.00000 477.986
25.04000 473.460
25.08000 466.573
25.12000 468.760
25.16000 460.683
25.20000 458.962
25.24000 464.725
25.28000 478.972
25.32000 458.845
25.36000 467.570
25.40000 473.906
25.44000 474.456
25.48000 490.709
25.52000 468.898
25.56000 472.641
25.60000 475.088
25.64000 466.115
25.68000 487.420
25.72000 468.648
25.76000 462.437
25.80000 476.638
25.84000 470.713
25.88000 473.477
25.92000 463.352
25.96000 453.611
26.00000 460.530
26.04000 452.194
26.08000 454.320
26.12000 470.689
26.16000 460.315
26.20000 452.917
26.24000 461.094
26.28000 448.079
26.32000 457.042
26.36000 454.571
26.40000 468.411
26.44000 468.907
26.48000 451.895
26.52000 463.156
26.56000 450.916
26.60000 459.305
26.64000 448.587
26.68000 450.084
26.72000 441.717
26.76000 453.377
26.80000 462.965
26.84000 450.237
26.88000 453.316
26.92000 443.427
26.96000 441.862
27.00000 444.298
27.04000 455.696
27.08000 437.332
27.12000 453.121
27.16000 437.427
27.20000 445.532
27.24000 443.759
27.28000 427.401
27.32000 459.565
27.36000 463.776
27.40000 436.012
27.44000 455.123
27.48000 446.381
27.52000 447.364
27.56000 440.902
27.60000 445.921
27.64000 433.531
27.68000 424.269
27.72000 453.223
27.76000 437.816
27.80000 434.256
27.84000 448.394
27.88000 434.866
27.92000 434.432
27.96000 430.140
28.00000 425.605
28.04000 434.757
28.08000 440.246
28.12000 415.838
28.16000 419.062
28.20000 442.001
28.24000 435.598
28.28000 428.610
28.32000 441.551
28.36000 422.822
28.40000 422.342
28.44000 428.178
28.48000 430.774
28.52000 430.575
28.56000 429.827
28.60000 429.135
28.64000 439.728
28.68000 411.907
28.72000 427.274
28.76000 429.999
28.80000 433.745
28.84000 425.271
28.88000 426.790
28.92000 430.238
28.96000 402.759
29.00000 427.940
29.04000 415.042
29.08000 418.746
29.12000 410.605
29.16000 422.856
29.20000 417.820
29.24000 415.514
29.28000 409.466
29.32000 427.470
29.36000 418.746
29.40000 403.561
29.44000 427.388
29.48000 426.282
29.52000 413.232
29.56000 417.701
29.60000 408.056
29.64000 415.752
29.68000 424.941
29.72000 405.201
29.76000 412.239
29.80000 425.811
29.84000 436.053
29.88000 423.998
29.92000 445.383
29.96000 448.537
30.00000 469.543
30.04000 453.473
30.08000 451.594
30.12000 465.717
30.16000 455.853
30.20000 439.317
30.24000 442.167
30.28000 434.484
30.32000 439.223
30.36000 454.152
30.40000 432.506
30.44000 433.860
30.48000 416.623
30.52000 435.973
30.56000 442.916
30.60000 423.043
30.64000 429.943
30.68000 444.485
30.72000 437.019
30.76000 463.886
30.80000 479.873
30.84000 477.218
30.88000 470.953
30.92000 505.961
30.96000 510.333
31.00000 581.923
31.04000 648.855
31.08000 799.966
31.12000 980.531
31.16000 1327.119
31.20000 1777.251
31.24000 2357.467
31.28000 2939.073
31.32000 3467.500
31.36000 3638.216
31.40000 3713.105
31.44000 3322.168
31.48000 2829.973
31.52000 2186.174
31.56000 1649.919
31.60000 1198.029
31.64000 875.694
31.68000 682.357
31.72000 580.960
31.76000 522.361
31.80000 481.200
31.84000 462.912
31.88000 452.154
31.92000 446.124
31.96000 423.229
32.00000 405.289
32.04000 426.748
32.08000 422.284
32.12000 400.805
32.16000 401.197
32.20000 418.960
32.24000 412.525
32.28000 402.482
32.32000 377.637
32.36000 386.734
32.40000 402.422
32.44000 392.138
32.48000 398.403
32.52000 378.892
32.56000 377.769
32.60000 394.272
32.64000 388.030
32.68000 374.909
32.72000 366.589
32.76000 360.881
32.80000 363.681
32.84000 361.745
32.88000 396.883
32.92000 419.782
32.96000 435.196
33.00000 431.076
33.04000 420.664
33.08000 406.531
33.12000 398.699
33.16000 363.579
33.20000 357.056
33.24000 340.944
33.28000 360.615
33.32000 342.065
33.36000 352.767
33.40000 356.424
33.44000 352.127
33.48000 342.661
33.52000 340.554
33.56000 347.305
33.60000 346.413
33.64000 353.318
33.68000 351.561
33.72000 337.781
33.76000 348.203
33.80000 346.549
33.84000 347.624
33.88000 337.508
33.92000 347.539
33.96000 339.920
34.00000 351.669
34.04000 352.861
34.08000 329.912
34.12000 334.685
34.16000 341.465
34.20000 337.041
34.24000 340.548
34.28000 341.905
34.32000 348.333
34.36000 341.481
34.40000 345.300
34.44000 334.701
34.48000 332.446
34.52000 332.077
34.56000 339.778
34.60000 318.300
34.64000 333.989
34.68000 323.140
34.72000 334.304
34.76000 329.363
34.80000 323.695
34.84000 333.579
34.88000 324.140
34.92000 325.504
34.96000 318.005
35.00000 312.663
35.04000 330.138
35.08000 312.521
35.12000 309.057
35.16000 331.504
35.20000 301.313
35.24000 313.417
35.28000 320.358
35.32000 317.309
35.36000 310.437
35.40000 305.267
35.44000 315.873
35.48000 314.269
35.52000 304.789
35.56000 308.785
35.60000 313.780
35.64000 321.837
35.68000 312.939
35.72000 301.717
35.76000 304.956
35.80000 304.093
35.84000 310.756
35.88000 304.490
35.92000 309.755
35.96000 298.393
36.00000 294.517
36.04000 325.156
36.08000 303.677
36.12000 306.087
36.16000 307.032
36.20000 304.960
36.24000 287.068
36.28000 305.544
36.32000 314.827
36.36000 302.618
36.40000 300.483
36.44000 307.263
36.48000 289.830
36.52000 294.546
36.56000 291.660
36.60000 300.542
36.64000 281.470
36.68000 312.177
36.72000 293.002
36.76000 288.558
36.80000 301.564
36.84000 299.114
36.88000 283.291
36.92000 291.727
36.96000 310.921
37.00000 298.845
37.04000 301.119
37.08000 309.896
37.12000 302.552
37.16000 294.776
37.20000 289.266
37.24000 306.567
37.28000 293.462
37.32000 290.990
37.36000 297.558
37.40000 303.405
37.44000 296.208
37.48000 287.815
37.52000 282.167
37.56000 291.225
37.60000 276.527
37.64000 298.877
37.68000 282.129
37.72000 289.377
37.76000 288.047
37.80000 294.817
37.84000 287.727
37.88000 297.734
37.92000 298.967
37.96000 299.231
38.00000 298.739
38.04000 304.493
38.08000 308.662
38.12000 310.142
38.16000 299.233
38.20000 312.832
38.24000 314.159
38.28000 312.609
38.32000 326.301
38.36000 326.269
38.40000 350.460
38.44000 390.510
38.48000 415.702
38.52000 480.981
38.56000 590.001
38.60000 696.287
38.64000 770.615
38.68000 866.868
38.72000 925.196
38.76000 862.104
38.80000 836.838
38.84000 705.940
38.88000 605.054
38.92000 501.974
38.96000 429.292
39.00000 377.520
39.04000 358.940
39.08000 314.320
39.12000 296.027
39.16000 307.078
39.20000 284.427
39.24000 292.644
39.28000 267.061
39.32000 277.199
39.36000 264.832
39.40000 276.372
39.44000 277.391
39.48000 281.967
39.52000 282.148
39.56000 288.364
39.60000 276.741
39.64000 259.039
39.68000 263.857
39.72000 259.605
39.76000 254.930
39.80000 269.967
39.84000 274.585
39.88000 259.612
39.92000 257.118
39.96000 275.868
40.00000 265.654
40.04000 256.904
40.08000 251.936
40.12000 264.092
40.16000 261.796
40.20000 283.405
40.24000 262.782
40.28000 255.131
40.32000 251.798
40.36000 256.067
40.40000 237.756
40.44000 262.794
40.48000 259.469
40.52000 249.410
40.56000 250.219
40.60000 262.047
40.64000 256.136
40.68000 256.136
40.72000 253.662
40.76000 249.298
40.80000 262.797
40.84000 263.746
40.88000 244.518
40.92000 248.940
40.96000 249.519
41.00000 239.672
41.04000 248.379
41.08000 246.812
41.12000 252.145
41.16000 244.812
41.20000 234.281
41.24000 238.800
41.28000 237.974
41.32000 245.330
41.36000 247.748
41.40000 252.972
41.44000 253.854
41.48000 256.160
41.52000 248.166
41.56000 248.653
41.60000 253.373
41.64000 227.396
41.68000 237.795
41.72000 245.941
41.76000 243.671
41.80000 225.367
41.84000 251.303
41.88000 251.381
41.92000 237.624
41.96000 253.222
42.00000 229.809
42.04000 228.096
42.08000 248.443
42.12000 238.918
42.16000 235.940
42.20000 227.115
42.24000 248.212
42.28000 244.848
42.32000 245.660
42.36000 224.563
42.40000 236.172
42.44000 232.369
42.48000 244.166
42.52000 243.489
42.56000 238.476
42.60000 247.538
42.64000 235.594
42.68000 237.041
42.72000 236.901
42.76000 241.233
42.80000 240.803
42.84000 235.347
42.88000 227.142
42.92000 220.429
42.96000 239.783
43.00000 224.700
43.04000 230.018
43.08000 219.043
43.12000 223.183
43.16000 221.542
43.20000 240.297
43.24000 235.088
43.28000 242.280
43.32000 224.607
43.36000 237.424
43.40000 220.623
43.44000 230.938
43.48000 230.699
43.52000 227.211
43.56000 223.824
43.60000 228.919
43.64000 231.027
43.68000 227.869
43.72000 225.371
43.76000 229.553
43.80000 232.633
43.84000 231.271
43.88000 230.679
43.92000 229.410
43.96000 221.313
44.00000 233.474
44.04000 216.568
44.08000 232.564
44.12000 229.535
44.16000 220.736
44.20000 218.767
44.24000 226.337
44.28000 226.067
44.32000 240.307
44.36000 232.206
44.40000 233.652
44.44000 217.660
44.48000 216.737
44.52000 225.127
44.56000 233.476
44.60000 254.355
44.64000 250.507
44.68000 234.373
44.72000 248.439
44.76000 266.227
44.80000 271.216
44.84000 285.502
44.88000 298.225
44.92000 340.087
44.96000 347.513
45.00000 382.729
45.04000 410.340
45.08000 417.865
45.12000 396.534
45.16000 417.767
45.20000 353.318
45.24000 349.021
45.28000 321.173
45.32000 294.009
45.36000 264.559
45.40000 259.097
45.44000 245.857
45.48000 240.504
45.52000 241.892
45.56000 235.769
45.60000 231.125
45.64000 220.149
45.68000 228.663
45.72000 200.755
45.76000 204.435
45.80000 218.180
45.84000 210.867
45.88000 210.100
45.92000 207.310
45.96000 197.638
46.00000 206.352
46.04000 208.971
46.08000 206.469
46.12000 215.676
46.16000 211.157
46.20000 206.366
46.24000 203.439
46.28000 210.817
46.32000 203.568
46.36000 202.777
46.40000 212.436
46.44000 218.324
46.48000 211.208
46.52000 211.058
46.56000 208.197
46.60000 213.551
46.64000 202.489
46.68000 200.663
46.72000 207.255
46.76000 195.034
46.80000 195.471
46.84000 206.442
46.88000 192.115
46.92000 210.433
46.96000 202.853
47.00000 191.692
47.04000 200.246
47.08000 200.642
47.12000 183.331
47.16000 191.828
47.20000 202.037
47.24000 201.727
47.28000 199.354
47.32000 182.579
47.36000 199.119
47.40000 196.703
47.44000 190.482
47.48000 186.132
47.52000 192.561
47.56000 192.658
47.60000 189.071
47.64000 192.572
47.68000 182.373
47.72000 177.145
47.76000 188.921
47.80000 189.089
47.84000 176.580
47.88000 189.411
47.92000 176.166
47.96000 187.491
48.00000 191.237
48.04000 185.819
48.08000 199.825
48.12000 183.740
48.16000 184.838
48.20000 191.653
48.24000 188.003
48.28000 177.528
48.32000 180.161
48.36000 186.100
48.40000 194.877
48.44000 198.875
48.48000 186.521
48.52000 187.337
48.56000 188.497
48.60000 187.826
48.64000 191.177
48.68000 183.220
48.72000 186.049
48.76000 173.596
48.80000 178.711
48.84000 177.229
48.88000 182.438
48.92000 187.706
48.96000 178.957
49.00000 179.809
49.04000 183.023
49.08000 176.942
49.12000 179.617
49.16000 169.978
49.20000 173.692
49.24000 189.959
49.28000 188.323
49.32000 190.025
49.36000 180.402
49.40000 183.847
49.44000 175.911
49.48000 176.539
49.52000 186.306
49.56000 178.806
49.60000 183.089
49.64000 172.135
49.68000 178.155
49.72000 173.206
49.76000 172.009
49.80000 184.330
49.84000 190.137
49.88000 171.014
49.92000 182.984
49.96000 172.366
50.00000 169.745
50.04000 171.410
50.08000 174.705
50.12000 185.750
50.16000 183.458
50.20000 180.600
50.24000 181.202
50.28000 187.257
50.32000 185.824
50.36000 191.608
50.40000 194.190
50.44000 208.067
50.48000 219.490
50.52000 221.995
50.56000 234.263
50.60000 251.236
50.64000 257.594
50.68000 278.324
50.72000 280.277
50.76000 267.920
50.80000 267.074
50.84000 249.934
50.88000 236.788
50.92000 207.336
50.96000 196.224
51.00000 197.841
51.04000 195.217
51.08000 178.764
51.12000 184.115
51.16000 176.034
51.20000 178.268
51.24000 191.724
51.28000 171.247
51.32000 171.186
51.36000 168.517
51.40000 167.268
51.44000 165.140
51.48000 170.606
51.52000 164.924
51.56000 151.527
51.60000 180.827
51.64000 158.523
51.68000 161.529
51.72000 170.106
51.76000 169.883
51.80000 168.987
51.84000 161.173
51.88000 174.891
51.92000 163.364
51.96000 161.992
52.00000 152.553
52.04000 160.395
52.08000 164.552
52.12000 172.395
52.16000 171.129
52.20000 155.092
52.24000 155.942
52.28000 163.896
52.32000 156.953
52.36000 163.840
52.40000 156.920
52.44000 172.690
52.48000 169.595
52.52000 157.665
52.56000 160.619
52.60000 164.608
52.64000 158.536
52.68000 163.117
52.72000 150.908
52.76000 159.999
52.80000 165.321
52.84000 162.300
52.88000 164.130
52.92000 160.261
52.96000 161.920
53.00000 149.773
53.04000 162.170
53.08000 161.043
53.12000 162.768
53.16000 156.891
53.20000 159.928
53.24000 156.874
53.28000 161.158
53.32000 163.685
53.36000 164.918
53.40000 165.481
53.44000 172.132
53.48000 165.468
53.52000 140.816
53.56000 157.126
53.60000 158.175
53.64000 162.871
53.68000 157.386
53.72000 151.067
53.76000 147.913
53.80000 154.732
53.84000 157.698
53.88000 154.072
53.92000 154.642
53.96000 159.605
54.00000 161.238
54.04000 157.747
54.08000 161.299
54.12000 150.432
54.16000 152.612
54.20000 152.630
54.24000 155.717
54.28000 140.413
54.32000 160.400
54.36000 138.896
54.40000 157.319
54.44000 156.107
54.48000 161.804
54.52000 143.034
54.56000 163.206
54.60000 159.313
54.64000 156.606
54.68000 144.987
54.72000 152.565
54.76000 145.467
54.80000 160.724
54.84000 154.528
54.88000 157.308
54.92000 158.259
54.96000 166.146
55.00000 156.662
55.04000 166.715
55.08000 145.559
55.12000 168.950
55.16000 162.384
55.20000 162.358
55.24000 164.458
55.28000 170.943
55.32000 162.752
55.36000 166.998
55.40000 168.253
55.44000 178.589
55.48000 189.547
55.52000 202.232
55.56000 217.701
55.60000 228.579
55.64000 280.745
55.68000 302.864
55.72000 348.572
55.76000 418.466
55.80000 511.444
55.84000 578.901
55.88000 628.993
55.92000 666.403
55.96000 648.824
56.00000 644.809
56.04000 593.277
56.08000 536.118
56.12000 466.191
56.16000 392.199
56.20000 328.341
56.24000 309.788
56.28000 226.830
56.32000 208.428
56.36000 196.747
56.40000 181.777
56.44000 182.506
56.48000 174.326
56.52000 173.928
56.56000 164.810
56.60000 154.310
56.64000 165.264
56.68000 158.014
56.72000 158.169
56.76000 161.179
56.80000 153.781
56.84000 140.509
56.88000 151.089
56.92000 145.681
56.96000 151.805
57.00000 143.161
57.04000 148.026
57.08000 151.532
57.12000 139.147
57.16000 142.773
57.20000 144.347
57.24000 154.595
57.28000 139.698
57.32000 138.568
57.36000 144.978
57.40000 143.991
57.44000 140.615
57.48000 145.964
57.52000 142.439
57.56000 141.663
57.60000 141.747
57.64000 148.163
57.68000 142.008
57.72000 156.650
57.76000 154.112
57.80000 135.951
57.84000 147.099
57.88000 148.019
57.92000 140.351
57.96000 148.253
58.00000 135.154
58.04000 134.529
58.08000 149.501
58.12000 139.691
58.16000 133.858
58.20000 140.474
58.24000 139.413
58.28000 128.589
58.32000 138.036
58.36000 134.455
58.40000 145.612
58.44000 136.794
58.48000 130.587
58.52000 134.717
58.56000 132.064
58.60000 133.065
58.64000 137.247
58.68000 145.149
58.72000 127.168
58.76000 139.816
58.80000 140.373
58.84000 142.057
58.88000 135.151
58.92000 139.816
58.96000 134.718
59.00000 146.830
59.04000 130.878
59.08000 130.794
59.12000 121.283
59.16000 124.456
59.20000 135.895
59.24000 137.832
59.28000 140.531
59.32000 138.382
59.36000 134.454
59.40000 151.554
59.44000 144.429
59.48000 138.954
59.52000 130.020
59.56000 123.299
59.60000 134.412
59.64000 135.230
59.68000 132.770
59.72000 143.473
59.76000 128.002
59.80000 136.200
59.84000 134.079
59.88000 137.908
59.92000 139.617
59.96000 147.247
60.00000 142.531
60.04000 125.438
60.08000 132.192
60.12000 125.880
60.16000 140.177
60.20000 132.696
60.24000 123.555
60.28000 127.760
60.32000 143.285
60.36000 132.484
60.40000 125.949
60.44000 129.031
60.48000 130.225
60.52000 140.568
60.56000 131.674
60.60000 129.390
60.64000 128.974
60.68000 135.424
60.72000 136.034
60.76000 139.247
60.80000 131.889
60.84000 134.822
60.88000 138.276
60.92000 128.311
60.96000 134.062
61.00000 140.952
61.04000 133.292
61.08000 135.132
61.12000 135.883
61.16000 139.991
61.20000 138.358
61.24000 145.175
61.28000 137.005
61.32000 151.274
61.36000 135.858
61.40000 128.007
61.44000 133.069
61.48000 138.504
61.52000 163.435
61.56000 225.966
61.60000 261.508
61.64000 280.689
61.68000 288.307
61.72000 320.595
61.76000 300.869
61.80000 231.510
61.84000 177.167
61.88000 160.778
61.92000 154.249
61.96000 142.648
62.00000 145.710
62.04000 133.413
62.08000 143.045
62.12000 143.167
62.16000 142.048
62.20000 140.331
62.24000 132.718
62.28000 140.472
62.32000 137.143
62.36000 132.936
62.40000 146.971
62.44000 143.538
62.48000 147.569
62.52000 152.294
62.56000 146.864
62.60000 147.771
62.64000 150.911
62.68000 156.425
62.72000 147.589
62.76000 148.836
62.80000 146.442
62.84000 142.460
62.88000 145.316
62.92000 146.791
62.96000 152.657
63.00000 144.962
63.04000 149.019
63.08000 139.796
63.12000 152.192
63.16000 146.120
63.20000 144.421
63.24000 151.443
63.28000 143.901
63.32000 143.474
63.36000 149.619
63.40000 137.553
63.44000 143.332
63.48000 135.590
63.52000 157.929
63.56000 157.626
63.60000 140.972
63.64000 149.596
63.68000 153.470
63.72000 156.130
63.76000 144.446
63.80000 153.139
63.84000 155.610
63.88000 160.388
63.92000 159.042
63.96000 174.986
64.00000 159.923
64.04000 149.465
64.08000 154.155
64.12000 159.697
64.16000 153.975
64.20000 156.512
64.24000 157.740
64.28000 159.850
64.32000 157.830
64.36000 167.637
64.40000 159.389
64.44000 163.495
64.48000 164.385
64.52000 166.617
64.56000 175.184
64.60000 163.247
64.64000 181.876
64.68000 186.424
64.72000 183.906
64.76000 176.931
64.80000 181.366
64.84000 183.548
64.88000 181.969
64.92000 186.336
64.96000 189.923
65.00000 192.412
65.04000 202.268
65.08000 212.868
65.12000 216.561
65.16000 216.509
65.20000 241.056
65.24000 254.881
65.28000 265.771
65.32000 299.559
65.36000 319.320
65.40000 349.282
65.44000 374.467
65.48000 411.233
65.52000 430.342
65.56000 416.182
65.60000 452.074
65.64000 474.598
65.68000 565.709
65.72000 733.664
65.76000 952.175
65.80000 1112.459
65.84000 1198.299
65.88000 1196.814
65.92000 1159.015
65.96000 914.119
66.00000 650.078
66.04000 451.134
66.08000 371.689
66.12000 315.471
66.16000 311.678
66.20000 323.496
66.24000 322.905
66.28000 353.147
66.32000 414.845
66.36000 434.314
66.40000 464.230
66.44000 457.826
66.48000 467.422
66.52000 416.661
66.56000 366.440
66.60000 330.974
66.64000 329.451
66.68000 319.559
66.72000 319.336
66.76000 319.666
66.80000 326.480
66.84000 353.663
66.88000 351.221
66.92000 341.879
66.96000 345.822
67.00000 356.369
67.04000 369.564
67.08000 365.665
67.12000 383.650
67.16000 373.657
67.20000 387.945
67.24000 390.514
67.28000 393.852
67.32000 397.723
67.36000 405.305
67.40000 421.348
67.44000 405.230
67.48000 445.598
67.52000 423.455
67.56000 452.218
67.60000 453.296
67.64000 469.094
67.68000 481.902
67.72000 496.250
67.76000 486.469
67.80000 504.228
67.84000 509.958
67.88000 524.899
67.92000 519.581
67.96000 536.538
68.00000 573.888
68.04000 577.332
68.08000 569.312
68.12000 599.186
68.16000 585.095
68.20000 617.384
68.24000 658.307
68.28000 668.930
68.32000 680.456
68.36000 695.159
68.40000 736.729
68.44000 765.757
68.48000 776.061
68.52000 830.744
68.56000 911.416
68.60000 1067.469
68.64000 1246.606
68.68000 1483.909
68.72000 1725.771
68.76000 1919.423
68.80000 2211.444
68.84000 2563.235
68.88000 3042.059
68.92000 6247.741
68.96000 16116.968
69.00000 37442.941
69.04000 57355.207
69.08000 66396.039
69.12000 67709.617
69.16000 70256.781
69.20000 69410.516
69.24000 56688.340
69.28000 43232.414
69.32000 36191.445
69.36000 32647.168
69.40000 26073.207
69.44000 14818.304
69.48000 6433.566
69.52000 2968.104
69.56000 1953.059
69.60000 1555.301
69.64000 1317.501
69.68000 1193.071
69.72000 1053.551
69.76000 987.369
69.80000 908.536
69.84000 858.800
69.88000 814.097
69.92000 750.286
69.96000 736.097
70.00000 732.219