File: XRD/30-09-2025 Dep 1/XY Data/BTO_Mapping_Theta2Theta_30-09-2025_001_50_3-090_-9-511.xy
20.00000 590.188
20.04000 581.092
20.08000 576.369
20.12000 573.857
20.16000 573.851
20.20000 567.806
20.24000 557.053
20.28000 560.412
20.32000 583.287
20.36000 566.189
20.40000 559.840
20.44000 565.950
20.48000 571.252
20.52000 567.870
20.56000 550.312
20.60000 562.019
20.64000 582.042
20.68000 559.988
20.72000 554.279
20.76000 539.674
20.80000 561.874
20.84000 566.656
20.88000 561.651
20.92000 574.342
20.96000 588.651
21.00000 564.372
21.04000 550.063
21.08000 559.846
21.12000 556.137
21.16000 549.098
21.20000 561.565
21.24000 573.906
21.28000 541.804
21.32000 551.233
21.36000 567.563
21.40000 549.609
21.44000 550.459
21.48000 552.993
21.52000 568.794
21.56000 564.262
21.60000 567.333
21.64000 562.589
21.68000 586.769
21.72000 601.446
21.76000 616.672
21.80000 645.589
21.84000 713.869
21.88000 755.881
21.92000 807.254
21.96000 860.314
22.00000 919.259
22.04000 900.354
22.08000 888.181
22.12000 842.960
22.16000 782.068
22.20000 710.436
22.24000 635.720
22.28000 605.234
22.32000 589.921
22.36000 571.331
22.40000 557.201
22.44000 569.086
22.48000 553.852
22.52000 557.616
22.56000 545.428
22.60000 542.167
22.64000 538.158
22.68000 528.696
22.72000 500.059
22.76000 538.064
22.80000 526.454
22.84000 524.786
22.88000 531.919
22.92000 512.557
22.96000 518.802
23.00000 526.862
23.04000 512.663
23.08000 525.649
23.12000 500.550
23.16000 523.446
23.20000 532.207
23.24000 525.492
23.28000 536.958
23.32000 539.619
23.36000 506.696
23.40000 518.758
23.44000 502.761
23.48000 507.226
23.52000 526.124
23.56000 510.802
23.60000 495.530
23.64000 514.951
23.68000 489.777
23.72000 496.236
23.76000 498.971
23.80000 510.089
23.84000 515.030
23.88000 505.167
23.92000 499.835
23.96000 502.613
24.00000 500.231
24.04000 501.100
24.08000 499.644
24.12000 498.900
24.16000 514.821
24.20000 507.256
24.24000 513.745
24.28000 500.503
24.32000 489.539
24.36000 478.000
24.40000 471.394
24.44000 483.337
24.48000 494.324
24.52000 486.966
24.56000 515.613
24.60000 496.202
24.64000 501.998
24.68000 498.466
24.72000 503.321
24.76000 489.601
24.80000 489.920
24.84000 470.842
24.88000 489.341
24.92000 503.043
24.96000 505.961
25.00000 484.439
25.04000 507.287
25.08000 471.170
25.12000 481.541
25.16000 481.066
25.20000 475.074
25.24000 489.236
25.28000 500.711
25.32000 487.319
25.36000 501.986
25.40000 485.081
25.44000 472.807
25.48000 478.292
25.52000 473.514
25.56000 487.329
25.60000 475.478
25.64000 464.874
25.68000 475.816
25.72000 467.936
25.76000 469.990
25.80000 472.577
25.84000 471.423
25.88000 465.452
25.92000 476.576
25.96000 482.305
26.00000 468.009
26.04000 458.790
26.08000 460.318
26.12000 471.355
26.16000 459.183
26.20000 472.726
26.24000 483.480
26.28000 468.223
26.32000 459.781
26.36000 470.189
26.40000 465.964
26.44000 461.443
26.48000 447.295
26.52000 448.947
26.56000 447.852
26.60000 449.776
26.64000 445.359
26.68000 473.912
26.72000 473.501
26.76000 448.273
26.80000 442.126
26.84000 462.703
26.88000 460.603
26.92000 452.889
26.96000 462.926
27.00000 460.441
27.04000 459.873
27.08000 459.438
27.12000 457.681
27.16000 441.087
27.20000 449.554
27.24000 433.561
27.28000 437.792
27.32000 453.016
27.36000 458.442
27.40000 445.112
27.44000 452.291
27.48000 462.946
27.52000 451.416
27.56000 435.663
27.60000 437.326
27.64000 439.454
27.68000 440.134
27.72000 441.560
27.76000 445.686
27.80000 438.765
27.84000 455.992
27.88000 450.045
27.92000 440.731
27.96000 452.132
28.00000 440.189
28.04000 448.371
28.08000 463.488
28.12000 457.708
28.16000 458.584
28.20000 432.574
28.24000 454.630
28.28000 457.071
28.32000 443.078
28.36000 435.972
28.40000 435.326
28.44000 430.901
28.48000 417.426
28.52000 433.123
28.56000 427.568
28.60000 431.808
28.64000 418.671
28.68000 425.925
28.72000 417.011
28.76000 426.838
28.80000 438.644
28.84000 430.276
28.88000 437.409
28.92000 433.551
28.96000 426.620
29.00000 429.141
29.04000 418.422
29.08000 433.359
29.12000 427.449
29.16000 426.640
29.20000 430.473
29.24000 415.276
29.28000 417.531
29.32000 421.319
29.36000 422.926
29.40000 444.420
29.44000 412.805
29.48000 417.994
29.52000 402.849
29.56000 444.394
29.60000 437.025
29.64000 435.876
29.68000 428.195
29.72000 433.365
29.76000 438.604
29.80000 443.841
29.84000 444.056
29.88000 442.863
29.92000 459.045
29.96000 455.641
30.00000 465.906
30.04000 466.927
30.08000 469.436
30.12000 458.306
30.16000 473.031
30.20000 447.685
30.24000 443.899
30.28000 459.987
30.32000 458.360
30.36000 457.478
30.40000 437.995
30.44000 425.037
30.48000 451.030
30.52000 457.302
30.56000 438.924
30.60000 438.758
30.64000 448.356
30.68000 454.455
30.72000 461.747
30.76000 472.983
30.80000 472.851
30.84000 492.640
30.88000 534.770
30.92000 529.562
30.96000 574.245
31.00000 622.413
31.04000 723.569
31.08000 872.255
31.12000 1183.572
31.16000 1575.515
31.20000 2110.872
31.24000 2755.329
31.28000 3397.540
31.32000 3798.086
31.36000 3968.921
31.40000 3847.218
31.44000 3376.759
31.48000 2770.359
31.52000 2099.540
31.56000 1493.161
31.60000 1054.850
31.64000 817.880
31.68000 659.344
31.72000 561.711
31.76000 526.212
31.80000 514.998
31.84000 488.164
31.88000 466.120
31.92000 433.228
31.96000 424.805
32.00000 444.375
32.04000 435.051
32.08000 410.371
32.12000 419.149
32.16000 434.002
32.20000 410.134
32.24000 390.189
32.28000 402.243
32.32000 376.671
32.36000 395.268
32.40000 391.420
32.44000 389.173
32.48000 391.506
32.52000 390.068
32.56000 399.973
32.60000 388.717
32.64000 388.159
32.68000 378.948
32.72000 376.697
32.76000 359.847
32.80000 385.608
32.84000 410.590
32.88000 414.827
32.92000 459.104
32.96000 482.641
33.00000 483.378
33.04000 495.733
33.08000 481.423
33.12000 437.154
33.16000 425.622
33.20000 393.795
33.24000 377.523
33.28000 351.547
33.32000 359.837
33.36000 349.899
33.40000 358.183
33.44000 359.274
33.48000 348.039
33.52000 345.771
33.56000 364.482
33.60000 346.518
33.64000 349.627
33.68000 347.207
33.72000 334.067
33.76000 336.556
33.80000 341.067
33.84000 356.044
33.88000 365.535
33.92000 339.048
33.96000 339.576
34.00000 341.397
34.04000 331.873
34.08000 359.470
34.12000 353.062
34.16000 352.777
34.20000 334.956
34.24000 334.098
34.28000 332.257
34.32000 332.318
34.36000 328.933
34.40000 344.663
34.44000 351.749
34.48000 330.866
34.52000 338.882
34.56000 339.082
34.60000 345.700
34.64000 316.986
34.68000 324.764
34.72000 328.683
34.76000 333.718
34.80000 326.681
34.84000 330.015
34.88000 332.834
34.92000 328.271
34.96000 319.206
35.00000 325.612
35.04000 338.400
35.08000 320.689
35.12000 313.505
35.16000 331.665
35.20000 326.019
35.24000 320.846
35.28000 319.067
35.32000 318.675
35.36000 318.212
35.40000 324.637
35.44000 330.864
35.48000 311.371
35.52000 304.990
35.56000 333.600
35.60000 320.910
35.64000 305.857
35.68000 318.272
35.72000 316.183
35.76000 308.187
35.80000 307.144
35.84000 305.092
35.88000 316.215
35.92000 306.320
35.96000 293.356
36.00000 326.503
36.04000 304.277
36.08000 306.965
36.12000 307.390
36.16000 307.729
36.20000 318.148
36.24000 303.626
36.28000 311.880
36.32000 308.052
36.36000 322.955
36.40000 313.492
36.44000 300.048
36.48000 296.375
36.52000 296.797
36.56000 302.704
36.60000 303.651
36.64000 308.457
36.68000 307.349
36.72000 305.102
36.76000 316.267
36.80000 313.366
36.84000 317.811
36.88000 296.171
36.92000 313.446
36.96000 316.115
37.00000 322.084
37.04000 310.276
37.08000 311.516
37.12000 315.320
37.16000 292.648
37.20000 302.282
37.24000 305.763
37.28000 312.177
37.32000 294.306
37.36000 293.312
37.40000 303.204
37.44000 305.917
37.48000 312.179
37.52000 298.295
37.56000 296.787
37.60000 292.260
37.64000 290.105
37.68000 287.835
37.72000 308.739
37.76000 295.103
37.80000 302.755
37.84000 287.883
37.88000 283.086
37.92000 306.355
37.96000 297.562
38.00000 297.500
38.04000 317.296
38.08000 295.382
38.12000 297.539
38.16000 309.726
38.20000 320.751
38.24000 310.028
38.28000 322.836
38.32000 328.259
38.36000 350.205
38.40000 368.377
38.44000 403.874
38.48000 422.949
38.52000 464.852
38.56000 546.348
38.60000 619.292
38.64000 656.319
38.68000 706.948
38.72000 701.334
38.76000 668.557
38.80000 631.915
38.84000 535.491
38.88000 452.301
38.92000 404.833
38.96000 363.425
39.00000 341.292
39.04000 323.533
39.08000 303.750
39.12000 280.492
39.16000 295.808
39.20000 287.264
39.24000 288.346
39.28000 276.801
39.32000 285.262
39.36000 261.423
39.40000 268.347
39.44000 278.312
39.48000 267.114
39.52000 270.050
39.56000 279.854
39.60000 273.816
39.64000 264.009
39.68000 264.639
39.72000 274.818
39.76000 266.055
39.80000 274.327
39.84000 266.026
39.88000 273.041
39.92000 272.125
39.96000 267.664
40.00000 255.368
40.04000 265.382
40.08000 254.443
40.12000 270.723
40.16000 255.880
40.20000 261.129
40.24000 260.851
40.28000 265.688
40.32000 257.922
40.36000 262.982
40.40000 248.259
40.44000 262.284
40.48000 259.702
40.52000 253.064
40.56000 256.563
40.60000 259.822
40.64000 259.982
40.68000 257.615
40.72000 260.944
40.76000 256.547
40.80000 240.662
40.84000 248.525
40.88000 250.420
40.92000 244.507
40.96000 257.223
41.00000 255.154
41.04000 268.346
41.08000 249.790
41.12000 255.118
41.16000 255.949
41.20000 239.865
41.24000 233.280
41.28000 250.099
41.32000 256.599
41.36000 249.509
41.40000 253.122
41.44000 249.843
41.48000 252.220
41.52000 266.569
41.56000 245.628
41.60000 237.217
41.64000 246.721
41.68000 250.395
41.72000 253.380
41.76000 240.896
41.80000 228.914
41.84000 245.585
41.88000 249.001
41.92000 250.751
41.96000 249.901
42.00000 241.133
42.04000 252.207
42.08000 239.415
42.12000 244.660
42.16000 223.751
42.20000 239.553
42.24000 239.156
42.28000 225.655
42.32000 237.944
42.36000 247.991
42.40000 246.786
42.44000 244.668
42.48000 240.515
42.52000 244.099
42.56000 245.937
42.60000 243.059
42.64000 241.079
42.68000 230.213
42.72000 220.276
42.76000 230.359
42.80000 232.234
42.84000 236.747
42.88000 233.102
42.92000 238.413
42.96000 235.290
43.00000 222.807
43.04000 236.829
43.08000 247.802
43.12000 232.388
43.16000 228.035
43.20000 235.214
43.24000 226.023
43.28000 223.098
43.32000 221.162
43.36000 227.070
43.40000 239.404
43.44000 229.423
43.48000 236.356
43.52000 233.793
43.56000 239.055
43.60000 231.096
43.64000 215.607
43.68000 213.830
43.72000 220.129
43.76000 218.331
43.80000 227.179
43.84000 227.516
43.88000 234.054
43.92000 222.060
43.96000 224.401
44.00000 226.933
44.04000 226.088
44.08000 223.637
44.12000 229.237
44.16000 236.225
44.20000 216.604
44.24000 230.852
44.28000 225.321
44.32000 220.879
44.36000 224.786
44.40000 229.721
44.44000 226.461
44.48000 238.713
44.52000 248.606
44.56000 248.686
44.60000 249.525
44.64000 259.243
44.68000 266.309
44.72000 280.835
44.76000 295.801
44.80000 323.072
44.84000 359.042
44.88000 435.325
44.92000 483.505
44.96000 519.571
45.00000 527.033
45.04000 529.376
45.08000 529.749
45.12000 499.833
45.16000 458.029
45.20000 413.499
45.24000 365.089
45.28000 328.468
45.32000 296.451
45.36000 280.713
45.40000 272.362
45.44000 254.107
45.48000 245.975
45.52000 260.615
45.56000 232.196
45.60000 227.220
45.64000 220.768
45.68000 232.812
45.72000 217.516
45.76000 215.203
45.80000 198.370
45.84000 209.353
45.88000 220.047
45.92000 220.148
45.96000 216.242
46.00000 214.942
46.04000 214.155
46.08000 216.002
46.12000 204.033
46.16000 212.909
46.20000 221.366
46.24000 210.754
46.28000 200.651
46.32000 202.274
46.36000 207.580
46.40000 208.971
46.44000 214.877
46.48000 198.140
46.52000 203.916
46.56000 208.116
46.60000 199.606
46.64000 211.468
46.68000 196.741
46.72000 202.224
46.76000 207.673
46.80000 203.864
46.84000 198.854
46.88000 205.131
46.92000 207.731
46.96000 206.206
47.00000 209.683
47.04000 195.946
47.08000 203.151
47.12000 188.663
47.16000 192.706
47.20000 201.780
47.24000 208.419
47.28000 189.051
47.32000 200.374
47.36000 192.182
47.40000 188.469
47.44000 195.397
47.48000 188.245
47.52000 190.592
47.56000 189.685
47.60000 189.050
47.64000 188.170
47.68000 193.319
47.72000 190.285
47.76000 188.943
47.80000 184.535
47.84000 199.074
47.88000 194.070
47.92000 194.794
47.96000 201.265
48.00000 192.471
48.04000 193.024
48.08000 194.754
48.12000 188.271
48.16000 189.318
48.20000 178.773
48.24000 192.291
48.28000 193.855
48.32000 186.515
48.36000 186.279
48.40000 190.501
48.44000 175.261
48.48000 181.930
48.52000 183.394
48.56000 188.953
48.60000 183.965
48.64000 176.455
48.68000 186.876
48.72000 176.184
48.76000 188.521
48.80000 195.179
48.84000 188.731
48.88000 174.853
48.92000 176.756
48.96000 178.749
49.00000 195.526
49.04000 187.110
49.08000 187.269
49.12000 179.528
49.16000 185.231
49.20000 177.790
49.24000 174.869
49.28000 182.016
49.32000 185.088
49.36000 176.091
49.40000 180.233
49.44000 181.380
49.48000 184.418
49.52000 181.458
49.56000 174.341
49.60000 194.447
49.64000 171.145
49.68000 198.280
49.72000 189.452
49.76000 179.148
49.80000 187.085
49.84000 191.985
49.88000 185.194
49.92000 182.779
49.96000 172.341
50.00000 173.819
50.04000 174.170
50.08000 191.049
50.12000 194.013
50.16000 187.763
50.20000 186.267
50.24000 198.778
50.28000 203.594
50.32000 201.167
50.36000 202.651
50.40000 205.202
50.44000 227.970
50.48000 245.075
50.52000 249.172
50.56000 280.755
50.60000 284.467
50.64000 292.452
50.68000 297.731
50.72000 284.711
50.76000 277.605
50.80000 267.354
50.84000 259.883
50.88000 212.151
50.92000 201.913
50.96000 205.315
51.00000 194.032
51.04000 183.021
51.08000 182.426
51.12000 170.114
51.16000 186.381
51.20000 179.267
51.24000 165.290
51.28000 175.153
51.32000 168.639
51.36000 173.353
51.40000 182.861
51.44000 167.904
51.48000 174.304
51.52000 172.511
51.56000 166.811
51.60000 174.218
51.64000 172.942
51.68000 166.507
51.72000 164.677
51.76000 182.119
51.80000 165.236
51.84000 172.322
51.88000 156.429
51.92000 171.915
51.96000 174.990
52.00000 160.963
52.04000 164.768
52.08000 167.326
52.12000 161.869
52.16000 172.103
52.20000 167.575
52.24000 162.189
52.28000 175.142
52.32000 161.560
52.36000 159.350
52.40000 161.204
52.44000 165.844
52.48000 158.986
52.52000 166.040
52.56000 169.424
52.60000 175.845
52.64000 163.235
52.68000 156.396
52.72000 154.223
52.76000 179.456
52.80000 159.599
52.84000 171.292
52.88000 163.121
52.92000 160.157
52.96000 166.228
53.00000 162.771
53.04000 165.097
53.08000 155.269
53.12000 158.451
53.16000 159.332
53.20000 163.106
53.24000 158.086
53.28000 165.110
53.32000 167.652
53.36000 165.826
53.40000 161.911
53.44000 160.037
53.48000 170.945
53.52000 152.186
53.56000 154.999
53.60000 163.624
53.64000 160.173
53.68000 163.828
53.72000 158.230
53.76000 148.639
53.80000 168.635
53.84000 163.584
53.88000 156.974
53.92000 157.397
53.96000 153.885
54.00000 166.437
54.04000 144.527
54.08000 161.432
54.12000 154.561
54.16000 157.779
54.20000 153.295
54.24000 150.477
54.28000 160.459
54.32000 153.952
54.36000 156.713
54.40000 160.238
54.44000 157.931
54.48000 164.754
54.52000 156.958
54.56000 160.197
54.60000 159.504
54.64000 160.333
54.68000 159.772
54.72000 158.028
54.76000 166.343
54.80000 152.000
54.84000 156.502
54.88000 174.343
54.92000 167.177
54.96000 161.896
55.00000 155.575
55.04000 158.489
55.08000 154.591
55.12000 153.045
55.16000 173.762
55.20000 154.467
55.24000 168.653
55.28000 166.104
55.32000 180.546
55.36000 176.094
55.40000 193.765
55.44000 196.022
55.48000 210.931
55.52000 207.101
55.56000 236.605
55.60000 269.994
55.64000 317.155
55.68000 370.136
55.72000 427.827
55.76000 522.794
55.80000 580.083
55.84000 631.590
55.88000 661.329
55.92000 671.038
55.96000 625.719
56.00000 573.667
56.04000 510.199
56.08000 467.128
56.12000 393.982
56.16000 322.740
56.20000 279.326
56.24000 230.303
56.28000 216.087
56.32000 197.217
56.36000 195.165
56.40000 180.260
56.44000 159.237
56.48000 167.516
56.52000 170.524
56.56000 163.446
56.60000 166.198
56.64000 155.074
56.68000 140.588
56.72000 143.501
56.76000 141.730
56.80000 155.530
56.84000 152.081
56.88000 154.846
56.92000 141.709
56.96000 140.173
57.00000 156.286
57.04000 151.773
57.08000 150.234
57.12000 143.415
57.16000 158.135
57.20000 141.934
57.24000 149.981
57.28000 144.779
57.32000 144.169
57.36000 149.587
57.40000 160.844
57.44000 142.650
57.48000 148.202
57.52000 143.046
57.56000 142.736
57.60000 152.139
57.64000 142.896
57.68000 144.053
57.72000 143.345
57.76000 155.121
57.80000 134.252
57.84000 149.667
57.88000 138.929
57.92000 149.551
57.96000 144.752
58.00000 148.691
58.04000 144.116
58.08000 149.759
58.12000 147.276
58.16000 143.237
58.20000 129.556
58.24000 145.281
58.28000 138.842
58.32000 141.084
58.36000 142.394
58.40000 143.875
58.44000 140.757
58.48000 135.315
58.52000 147.264
58.56000 139.739
58.60000 141.984
58.64000 141.400
58.68000 144.988
58.72000 140.670
58.76000 139.750
58.80000 140.764
58.84000 130.414
58.88000 141.493
58.92000 139.857
58.96000 135.750
59.00000 139.165
59.04000 141.448
59.08000 139.898
59.12000 137.041
59.16000 134.837
59.20000 135.311
59.24000 143.168
59.28000 137.875
59.32000 133.877
59.36000 136.941
59.40000 144.197
59.44000 132.368
59.48000 131.987
59.52000 133.044
59.56000 133.934
59.60000 133.884
59.64000 129.927
59.68000 134.571
59.72000 139.113
59.76000 150.716
59.80000 134.135
59.84000 129.548
59.88000 140.854
59.92000 138.967
59.96000 139.231
60.00000 129.637
60.04000 126.895
60.08000 126.887
60.12000 141.564
60.16000 126.369
60.20000 139.251
60.24000 128.499
60.28000 143.955
60.32000 129.690
60.36000 145.996
60.40000 135.642
60.44000 143.065
60.48000 135.699
60.52000 133.844
60.56000 140.443
60.60000 143.177
60.64000 136.526
60.68000 139.427
60.72000 130.567
60.76000 145.602
60.80000 137.372
60.84000 133.010
60.88000 128.959
60.92000 124.296
60.96000 136.413
61.00000 139.849
61.04000 139.605
61.08000 143.380
61.12000 138.922
61.16000 139.835
61.20000 137.984
61.24000 132.067
61.28000 142.962
61.32000 146.396
61.36000 143.948
61.40000 148.252
61.44000 150.033
61.48000 143.137
61.52000 164.015
61.56000 221.337
61.60000 289.317
61.64000 312.999
61.68000 329.363
61.72000 332.716
61.76000 309.964
61.80000 258.610
61.84000 183.469
61.88000 157.094
61.92000 158.770
61.96000 149.834
62.00000 144.483
62.04000 143.493
62.08000 151.038
62.12000 152.788
62.16000 133.552
62.20000 138.522
62.24000 148.410
62.28000 144.138
62.32000 150.918
62.36000 137.232
62.40000 142.702
62.44000 155.976
62.48000 139.936
62.52000 139.202
62.56000 144.277
62.60000 151.718
62.64000 143.179
62.68000 139.505
62.72000 145.873
62.76000 154.978
62.80000 135.754
62.84000 145.123
62.88000 155.304
62.92000 143.655
62.96000 140.788
63.00000 151.028
63.04000 147.958
63.08000 151.293
63.12000 148.598
63.16000 159.971
63.20000 150.854
63.24000 156.357
63.28000 159.787
63.32000 152.967
63.36000 148.636
63.40000 145.026
63.44000 155.095
63.48000 147.996
63.52000 148.834
63.56000 152.084
63.60000 152.139
63.64000 145.742
63.68000 160.658
63.72000 144.210
63.76000 159.281
63.80000 153.918
63.84000 155.389
63.88000 157.815
63.92000 154.958
63.96000 158.939
64.00000 163.554
64.04000 156.484
64.08000 153.280
64.12000 163.929
64.16000 165.144
64.20000 170.232
64.24000 163.545
64.28000 178.147
64.32000 173.874
64.36000 158.945
64.40000 175.321
64.44000 173.098
64.48000 182.370
64.52000 167.021
64.56000 173.658
64.60000 182.042
64.64000 169.680
64.68000 171.918
64.72000 185.395
64.76000 171.433
64.80000 180.266
64.84000 180.137
64.88000 183.902
64.92000 195.845
64.96000 197.435
65.00000 194.646
65.04000 208.344
65.08000 211.924
65.12000 244.373
65.16000 237.903
65.20000 257.013
65.24000 282.256
65.28000 300.546
65.32000 332.613
65.36000 347.983
65.40000 390.121
65.44000 412.204
65.48000 431.458
65.52000 447.903
65.56000 456.008
65.60000 475.044
65.64000 495.286
65.68000 584.468
65.72000 738.590
65.76000 939.147
65.80000 1208.163
65.84000 1316.735
65.88000 1337.320
65.92000 1290.575
65.96000 1119.027
66.00000 777.194
66.04000 529.899
66.08000 366.778
66.12000 330.659
66.16000 311.830
66.20000 317.017
66.24000 342.417
66.28000 380.556
66.32000 415.257
66.36000 460.476
66.40000 506.149
66.44000 511.144
66.48000 495.450
66.52000 461.553
66.56000 395.807
66.60000 370.815
66.64000 340.410
66.68000 326.576
66.72000 348.496
66.76000 345.355
66.80000 343.499
66.84000 353.062
66.88000 339.753
66.92000 349.081
66.96000 365.017
67.00000 378.441
67.04000 376.556
67.08000 382.907
67.12000 386.530
67.16000 397.401
67.20000 400.282
67.24000 401.504
67.28000 408.829
67.32000 431.987
67.36000 431.958
67.40000 441.486
67.44000 447.640
67.48000 441.627
67.52000 463.763
67.56000 460.539
67.60000 486.782
67.64000 489.284
67.68000 500.593
67.72000 499.161
67.76000 509.406
67.80000 510.157
67.84000 541.021
67.88000 530.438
67.92000 559.890
67.96000 584.443
68.00000 577.784
68.04000 594.564
68.08000 590.112
68.12000 637.701
68.16000 638.935
68.20000 640.197
68.24000 676.506
68.28000 680.035
68.32000 717.063
68.36000 724.698
68.40000 790.011
68.44000 787.911
68.48000 824.363
68.52000 891.440
68.56000 959.412
68.60000 1111.938
68.64000 1315.971
68.68000 1581.992
68.72000 1838.860
68.76000 2059.936
68.80000 2370.963
68.84000 2765.375
68.88000 3482.844
68.92000 7012.925
68.96000 17022.533
69.00000 39491.934
69.04000 63071.719
69.08000 75561.273
69.12000 77860.969
69.16000 80772.227
69.20000 79960.750
69.24000 67283.469
69.28000 52066.023
69.32000 42689.336
69.36000 38232.129
69.40000 31190.621
69.44000 19126.285
69.48000 8941.205
69.52000 3961.980
69.56000 2296.105
69.60000 1775.800
69.64000 1484.555
69.68000 1307.469
69.72000 1155.987
69.76000 1042.367
69.80000 994.402
69.84000 925.921
69.88000 846.902
69.92000 841.295
69.96000 793.080
70.00000 757.574