File: XRD/30-09-2025 Dep 1/XY Data/BTO_Mapping_Theta2Theta_30-09-2025_001_16_9-271_28-532.xy
20.00000 571.452
20.04000 570.038
20.08000 561.428
20.12000 569.898
20.16000 550.768
20.20000 552.325
20.24000 572.263
20.28000 562.975
20.32000 570.148
20.36000 544.257
20.40000 546.984
20.44000 557.050
20.48000 571.629
20.52000 569.502
20.56000 552.337
20.60000 559.001
20.64000 560.982
20.68000 541.346
20.72000 571.313
20.76000 546.901
20.80000 572.207
20.84000 579.017
20.88000 560.248
20.92000 538.599
20.96000 566.856
21.00000 547.490
21.04000 536.752
21.08000 544.074
21.12000 552.023
21.16000 548.802
21.20000 557.444
21.24000 544.660
21.28000 559.285
21.32000 565.366
21.36000 531.259
21.40000 537.861
21.44000 542.360
21.48000 549.843
21.52000 547.576
21.56000 528.667
21.60000 534.666
21.64000 560.017
21.68000 549.446
21.72000 557.705
21.76000 566.553
21.80000 565.151
21.84000 566.727
21.88000 591.775
21.92000 612.810
21.96000 629.787
22.00000 626.946
22.04000 641.380
22.08000 638.796
22.12000 655.518
22.16000 613.371
22.20000 637.651
22.24000 587.156
22.28000 600.828
22.32000 556.022
22.36000 557.116
22.40000 542.244
22.44000 542.687
22.48000 539.405
22.52000 522.650
22.56000 510.052
22.60000 538.548
22.64000 520.260
22.68000 504.428
22.72000 542.052
22.76000 531.331
22.80000 499.367
22.84000 516.112
22.88000 523.623
22.92000 518.687
22.96000 523.626
23.00000 504.046
23.04000 492.383
23.08000 515.981
23.12000 521.385
23.16000 514.810
23.20000 491.913
23.24000 512.209
23.28000 521.910
23.32000 516.294
23.36000 506.552
23.40000 519.569
23.44000 508.017
23.48000 520.368
23.52000 515.393
23.56000 499.835
23.60000 505.719
23.64000 517.963
23.68000 518.458
23.72000 526.558
23.76000 509.645
23.80000 530.557
23.84000 529.378
23.88000 521.268
23.92000 540.416
23.96000 519.342
24.00000 523.140
24.04000 534.903
24.08000 526.309
24.12000 522.431
24.16000 510.610
24.20000 521.265
24.24000 511.003
24.28000 524.849
24.32000 517.025
24.36000 490.487
24.40000 493.322
24.44000 485.347
24.48000 475.373
24.52000 485.633
24.56000 505.222
24.60000 490.710
24.64000 486.572
24.68000 478.331
24.72000 485.320
24.76000 480.913
24.80000 490.678
24.84000 478.134
24.88000 494.913
24.92000 491.266
24.96000 484.739
25.00000 473.109
25.04000 485.860
25.08000 481.457
25.12000 500.482
25.16000 488.780
25.20000 479.374
25.24000 465.568
25.28000 472.104
25.32000 462.977
25.36000 460.054
25.40000 467.475
25.44000 477.390
25.48000 473.286
25.52000 469.690
25.56000 472.777
25.60000 429.374
25.64000 462.382
25.68000 450.320
25.72000 453.447
25.76000 464.344
25.80000 452.076
25.84000 461.461
25.88000 449.816
25.92000 443.680
25.96000 462.343
26.00000 472.162
26.04000 463.611
26.08000 465.141
26.12000 455.823
26.16000 460.794
26.20000 448.548
26.24000 458.120
26.28000 454.190
26.32000 461.903
26.36000 451.812
26.40000 436.145
26.44000 467.547
26.48000 453.899
26.52000 444.936
26.56000 452.724
26.60000 468.499
26.64000 456.025
26.68000 452.836
26.72000 457.384
26.76000 458.023
26.80000 453.445
26.84000 445.588
26.88000 448.950
26.92000 451.058
26.96000 442.593
27.00000 438.320
27.04000 454.111
27.08000 449.922
27.12000 441.697
27.16000 431.061
27.20000 432.266
27.24000 454.552
27.28000 447.833
27.32000 460.172
27.36000 457.249
27.40000 447.243
27.44000 458.362
27.48000 441.921
27.52000 438.863
27.56000 443.081
27.60000 432.001
27.64000 454.413
27.68000 448.803
27.72000 425.878
27.76000 441.443
27.80000 429.562
27.84000 438.043
27.88000 433.358
27.92000 426.551
27.96000 436.858
28.00000 440.893
28.04000 448.316
28.08000 412.776
28.12000 430.686
28.16000 426.792
28.20000 435.409
28.24000 434.268
28.28000 433.330
28.32000 431.220
28.36000 428.207
28.40000 414.020
28.44000 425.271
28.48000 443.771
28.52000 412.630
28.56000 415.557
28.60000 428.284
28.64000 427.885
28.68000 411.750
28.72000 423.980
28.76000 429.904
28.80000 417.958
28.84000 418.403
28.88000 431.967
28.92000 433.780
28.96000 412.421
29.00000 408.058
29.04000 423.564
29.08000 411.091
29.12000 419.477
29.16000 412.415
29.20000 414.465
29.24000 423.999
29.28000 420.984
29.32000 411.659
29.36000 397.879
29.40000 396.853
29.44000 410.794
29.48000 411.229
29.52000 414.353
29.56000 411.315
29.60000 396.315
29.64000 425.763
29.68000 409.702
29.72000 400.150
29.76000 425.342
29.80000 422.991
29.84000 419.547
29.88000 427.021
29.92000 404.652
29.96000 414.716
30.00000 431.172
30.04000 432.450
30.08000 416.999
30.12000 417.514
30.16000 430.051
30.20000 422.304
30.24000 421.174
30.28000 426.929
30.32000 435.991
30.36000 404.696
30.40000 421.964
30.44000 414.673
30.48000 417.864
30.52000 427.306
30.56000 423.367
30.60000 429.302
30.64000 428.286
30.68000 407.492
30.72000 419.618
30.76000 425.790
30.80000 438.827
30.84000 445.390
30.88000 433.719
30.92000 463.804
30.96000 466.047
31.00000 511.495
31.04000 536.293
31.08000 633.567
31.12000 713.075
31.16000 890.210
31.20000 1121.892
31.24000 1453.832
31.28000 1790.785
31.32000 2087.783
31.36000 2330.681
31.40000 2356.066
31.44000 2281.660
31.48000 2021.166
31.52000 1688.779
31.56000 1341.658
31.60000 1043.492
31.64000 805.780
31.68000 668.113
31.72000 558.865
31.76000 509.943
31.80000 493.838
31.84000 443.286
31.88000 441.368
31.92000 429.817
31.96000 419.304
32.00000 421.290
32.04000 412.201
32.08000 403.316
32.12000 417.657
32.16000 405.212
32.20000 390.512
32.24000 389.269
32.28000 393.175
32.32000 374.964
32.36000 374.223
32.40000 395.206
32.44000 385.868
32.48000 388.470
32.52000 379.309
32.56000 361.410
32.60000 375.288
32.64000 373.735
32.68000 378.965
32.72000 370.495
32.76000 363.670
32.80000 357.512
32.84000 364.846
32.88000 357.167
32.92000 371.501
32.96000 393.323
33.00000 379.803
33.04000 392.156
33.08000 375.604
33.12000 366.234
33.16000 357.675
33.20000 356.108
33.24000 343.123
33.28000 343.837
33.32000 345.522
33.36000 334.269
33.40000 346.210
33.44000 348.227
33.48000 338.556
33.52000 336.736
33.56000 346.876
33.60000 327.669
33.64000 346.872
33.68000 353.042
33.72000 344.724
33.76000 345.017
33.80000 351.355
33.84000 333.747
33.88000 359.183
33.92000 356.960
33.96000 336.650
34.00000 342.841
34.04000 347.556
34.08000 344.618
34.12000 364.350
34.16000 380.929
34.20000 371.022
34.24000 352.104
34.28000 358.271
34.32000 351.995
34.36000 351.233
34.40000 352.659
34.44000 366.880
34.48000 361.194
34.52000 344.720
34.56000 339.713
34.60000 360.177
34.64000 340.824
34.68000 329.885
34.72000 347.640
34.76000 342.057
34.80000 366.434
34.84000 343.035
34.88000 334.001
34.92000 340.555
34.96000 338.307
35.00000 327.375
35.04000 334.465
35.08000 332.587
35.12000 316.015
35.16000 321.164
35.20000 311.454
35.24000 329.941
35.28000 319.387
35.32000 322.357
35.36000 310.859
35.40000 296.184
35.44000 309.107
35.48000 310.396
35.52000 314.207
35.56000 296.515
35.60000 312.361
35.64000 307.365
35.68000 302.641
35.72000 306.924
35.76000 315.067
35.80000 311.609
35.84000 296.719
35.88000 313.605
35.92000 310.818
35.96000 308.683
36.00000 320.091
36.04000 289.427
36.08000 286.096
36.12000 299.407
36.16000 288.170
36.20000 302.206
36.24000 295.791
36.28000 295.508
36.32000 296.941
36.36000 308.332
36.40000 299.019
36.44000 303.153
36.48000 309.496
36.52000 297.394
36.56000 291.183
36.60000 296.421
36.64000 302.881
36.68000 332.321
36.72000 308.621
36.76000 302.828
36.80000 307.438
36.84000 313.674
36.88000 304.726
36.92000 314.024
36.96000 318.773
37.00000 323.869
37.04000 300.827
37.08000 310.986
37.12000 311.227
37.16000 319.969
37.20000 304.866
37.24000 302.368
37.28000 295.630
37.32000 300.501
37.36000 312.685
37.40000 316.579
37.44000 301.046
37.48000 297.012
37.52000 297.105
37.56000 289.088
37.60000 283.258
37.64000 305.229
37.68000 297.995
37.72000 285.673
37.76000 299.259
37.80000 289.733
37.84000 289.983
37.88000 298.808
37.92000 301.616
37.96000 290.639
38.00000 287.810
38.04000 289.707
38.08000 300.336
38.12000 298.427
38.16000 304.515
38.20000 307.359
38.24000 297.858
38.28000 319.439
38.32000 324.463
38.36000 339.286
38.40000 363.164
38.44000 375.938
38.48000 442.740
38.52000 551.869
38.56000 642.221
38.60000 785.366
38.64000 921.425
38.68000 1061.792
38.72000 1195.327
38.76000 1161.739
38.80000 1105.943
38.84000 1029.829
38.88000 851.682
38.92000 689.008
38.96000 550.302
39.00000 464.495
39.04000 386.951
39.08000 334.344
39.12000 308.771
39.16000 300.569
39.20000 299.903
39.24000 300.345
39.28000 285.265
39.32000 290.260
39.36000 295.196
39.40000 287.281
39.44000 289.780
39.48000 276.789
39.52000 281.038
39.56000 277.066
39.60000 271.109
39.64000 265.157
39.68000 287.322
39.72000 262.492
39.76000 259.423
39.80000 281.221
39.84000 263.597
39.88000 272.060
39.92000 271.484
39.96000 264.423
40.00000 272.131
40.04000 271.170
40.08000 251.969
40.12000 257.116
40.16000 253.956
40.20000 253.381
40.24000 260.960
40.28000 262.408
40.32000 263.505
40.36000 265.832
40.40000 270.103
40.44000 256.119
40.48000 244.968
40.52000 259.684
40.56000 263.844
40.60000 242.516
40.64000 256.462
40.68000 253.117
40.72000 257.176
40.76000 250.825
40.80000 267.090
40.84000 244.165
40.88000 245.528
40.92000 241.104
40.96000 249.550
41.00000 250.239
41.04000 249.787
41.08000 248.539
41.12000 233.166
41.16000 238.898
41.20000 251.142
41.24000 236.482
41.28000 249.131
41.32000 240.314
41.36000 236.372
41.40000 250.803
41.44000 246.706
41.48000 252.430
41.52000 252.326
41.56000 247.287
41.60000 239.267
41.64000 249.156
41.68000 246.402
41.72000 233.323
41.76000 240.109
41.80000 229.773
41.84000 257.423
41.88000 236.295
41.92000 241.146
41.96000 254.077
42.00000 243.146
42.04000 226.677
42.08000 254.399
42.12000 244.371
42.16000 247.991
42.20000 241.237
42.24000 250.118
42.28000 233.857
42.32000 227.368
42.36000 221.275
42.40000 233.146
42.44000 242.007
42.48000 249.728
42.52000 236.334
42.56000 246.590
42.60000 253.658
42.64000 245.000
42.68000 221.930
42.72000 230.010
42.76000 245.291
42.80000 234.850
42.84000 227.438
42.88000 229.028
42.92000 232.004
42.96000 236.440
43.00000 223.973
43.04000 241.520
43.08000 229.058
43.12000 225.745
43.16000 230.302
43.20000 243.024
43.24000 231.809
43.28000 221.302
43.32000 230.545
43.36000 223.842
43.40000 219.028
43.44000 218.496
43.48000 228.341
43.52000 225.872
43.56000 224.956
43.60000 221.974
43.64000 221.250
43.68000 224.892
43.72000 217.062
43.76000 219.262
43.80000 215.319
43.84000 225.924
43.88000 227.095
43.92000 212.901
43.96000 221.245
44.00000 219.808
44.04000 229.935
44.08000 228.060
44.12000 205.682
44.16000 220.734
44.20000 223.345
44.24000 220.471
44.28000 223.569
44.32000 217.322
44.36000 207.703
44.40000 223.309
44.44000 231.496
44.48000 226.344
44.52000 214.043
44.56000 226.304
44.60000 229.342
44.64000 216.676
44.68000 244.465
44.72000 242.427
44.76000 258.092
44.80000 249.959
44.84000 238.296
44.88000 241.269
44.92000 269.942
44.96000 268.402
45.00000 286.102
45.04000 296.568
45.08000 294.858
45.12000 304.354
45.16000 303.091
45.20000 278.305
45.24000 283.884
45.28000 274.457
45.32000 272.552
45.36000 263.270
45.40000 245.889
45.44000 234.478
45.48000 233.042
45.52000 233.731
45.56000 221.547
45.60000 229.423
45.64000 230.987
45.68000 219.526
45.72000 217.023
45.76000 213.770
45.80000 223.335
45.84000 222.727
45.88000 212.393
45.92000 209.937
45.96000 203.750
46.00000 208.559
46.04000 210.315
46.08000 201.246
46.12000 201.779
46.16000 201.777
46.20000 209.102
46.24000 207.269
46.28000 205.905
46.32000 223.306
46.36000 207.243
46.40000 214.954
46.44000 207.701
46.48000 194.124
46.52000 197.903
46.56000 208.638
46.60000 199.998
46.64000 202.310
46.68000 198.892
46.72000 211.980
46.76000 202.559
46.80000 206.916
46.84000 201.491
46.88000 198.357
46.92000 204.950
46.96000 200.743
47.00000 199.365
47.04000 194.590
47.08000 192.056
47.12000 207.695
47.16000 199.214
47.20000 188.083
47.24000 190.203
47.28000 191.630
47.32000 188.138
47.36000 199.066
47.40000 184.228
47.44000 204.021
47.48000 193.191
47.52000 193.694
47.56000 187.777
47.60000 193.223
47.64000 180.497
47.68000 193.007
47.72000 187.652
47.76000 193.986
47.80000 198.986
47.84000 182.151
47.88000 175.892
47.92000 185.789
47.96000 182.689
48.00000 189.339
48.04000 187.783
48.08000 187.187
48.12000 183.996
48.16000 187.038
48.20000 185.715
48.24000 188.691
48.28000 176.430
48.32000 183.672
48.36000 194.066
48.40000 179.017
48.44000 188.517
48.48000 172.627
48.52000 181.299
48.56000 176.196
48.60000 183.790
48.64000 179.738
48.68000 189.558
48.72000 176.560
48.76000 183.141
48.80000 178.884
48.84000 188.956
48.88000 184.064
48.92000 189.723
48.96000 180.829
49.00000 176.856
49.04000 192.506
49.08000 182.332
49.12000 173.963
49.16000 171.351
49.20000 185.078
49.24000 177.363
49.28000 166.283
49.32000 166.860
49.36000 175.908
49.40000 182.990
49.44000 177.628
49.48000 170.242
49.52000 164.788
49.56000 174.925
49.60000 173.420
49.64000 171.126
49.68000 171.986
49.72000 192.255
49.76000 184.565
49.80000 168.426
49.84000 171.561
49.88000 174.569
49.92000 178.908
49.96000 171.570
50.00000 181.055
50.04000 174.536
50.08000 182.492
50.12000 182.680
50.16000 171.967
50.20000 177.243
50.24000 176.070
50.28000 189.548
50.32000 185.819
50.36000 182.006
50.40000 199.241
50.44000 166.823
50.48000 190.531
50.52000 196.169
50.56000 199.076
50.60000 223.586
50.64000 210.983
50.68000 221.651
50.72000 213.566
50.76000 221.980
50.80000 209.976
50.84000 219.699
50.88000 207.634
50.92000 207.490
50.96000 215.279
51.00000 176.450
51.04000 185.398
51.08000 176.310
51.12000 188.371
51.16000 181.368
51.20000 169.969
51.24000 174.288
51.28000 172.735
51.32000 165.994
51.36000 172.343
51.40000 170.923
51.44000 170.118
51.48000 166.336
51.52000 173.503
51.56000 161.941
51.60000 171.999
51.64000 164.487
51.68000 169.090
51.72000 166.846
51.76000 172.322
51.80000 158.170
51.84000 163.006
51.88000 159.247
51.92000 168.095
51.96000 162.372
52.00000 155.306
52.04000 172.062
52.08000 154.314
52.12000 148.169
52.16000 166.511
52.20000 165.106
52.24000 171.999
52.28000 158.119
52.32000 160.387
52.36000 167.121
52.40000 169.218
52.44000 166.078
52.48000 165.590
52.52000 156.975
52.56000 153.477
52.60000 153.257
52.64000 161.677
52.68000 164.143
52.72000 162.807
52.76000 149.017
52.80000 155.144
52.84000 154.812
52.88000 158.095
52.92000 168.819
52.96000 162.840
53.00000 153.137
53.04000 155.454
53.08000 164.211
53.12000 156.576
53.16000 168.751
53.20000 154.673
53.24000 163.783
53.28000 164.255
53.32000 165.800
53.36000 162.520
53.40000 164.097
53.44000 162.968
53.48000 155.181
53.52000 148.261
53.56000 164.340
53.60000 164.535
53.64000 170.887
53.68000 153.287
53.72000 153.373
53.76000 157.024
53.80000 168.887
53.84000 159.488
53.88000 162.649
53.92000 155.704
53.96000 158.094
54.00000 162.200
54.04000 152.696
54.08000 165.197
54.12000 159.518
54.16000 161.001
54.20000 164.975
54.24000 150.434
54.28000 165.348
54.32000 154.561
54.36000 156.316
54.40000 154.689
54.44000 162.209
54.48000 155.419
54.52000 155.188
54.56000 141.657
54.60000 159.403
54.64000 167.124
54.68000 151.977
54.72000 151.266
54.76000 149.618
54.80000 154.702
54.84000 157.400
54.88000 148.224
54.92000 153.468
54.96000 162.453
55.00000 164.082
55.04000 149.848
55.08000 155.977
55.12000 167.274
55.16000 167.695
55.20000 178.549
55.24000 163.214
55.28000 162.736
55.32000 170.044
55.36000 162.559
55.40000 177.151
55.44000 176.245
55.48000 191.065
55.52000 181.436
55.56000 210.791
55.60000 211.595
55.64000 242.149
55.68000 278.533
55.72000 323.120
55.76000 379.338
55.80000 433.023
55.84000 506.170
55.88000 562.637
55.92000 608.279
55.96000 603.322
56.00000 606.196
56.04000 571.034
56.08000 524.228
56.12000 482.101
56.16000 422.299
56.20000 375.037
56.24000 317.409
56.28000 285.406
56.32000 238.876
56.36000 229.835
56.40000 187.271
56.44000 203.038
56.48000 171.402
56.52000 169.666
56.56000 160.562
56.60000 164.141
56.64000 161.722
56.68000 162.305
56.72000 149.750
56.76000 144.702
56.80000 155.990
56.84000 154.954
56.88000 154.913
56.92000 157.029
56.96000 144.859
57.00000 141.295
57.04000 147.250
57.08000 140.558
57.12000 145.225
57.16000 137.958
57.20000 148.705
57.24000 151.052
57.28000 137.435
57.32000 149.278
57.36000 149.149
57.40000 138.650
57.44000 148.388
57.48000 148.988
57.52000 142.971
57.56000 136.227
57.60000 144.775
57.64000 142.877
57.68000 143.342
57.72000 146.424
57.76000 157.463
57.80000 143.551
57.84000 143.584
57.88000 138.843
57.92000 141.723
57.96000 138.253
58.00000 125.309
58.04000 141.158
58.08000 133.653
58.12000 138.252
58.16000 135.528
58.20000 128.311
58.24000 134.809
58.28000 130.865
58.32000 142.868
58.36000 147.813
58.40000 140.569
58.44000 147.257
58.48000 131.764
58.52000 139.725
58.56000 140.279
58.60000 138.223
58.64000 131.854
58.68000 150.762
58.72000 145.380
58.76000 130.794
58.80000 139.422
58.84000 139.835
58.88000 130.158
58.92000 128.872
58.96000 136.877
59.00000 142.017
59.04000 126.770
59.08000 134.149
59.12000 136.128
59.16000 136.470
59.20000 132.921
59.24000 133.080
59.28000 131.993
59.32000 133.695
59.36000 125.825
59.40000 124.235
59.44000 141.299
59.48000 135.960
59.52000 134.182
59.56000 136.921
59.60000 133.716
59.64000 128.178
59.68000 133.058
59.72000 133.577
59.76000 142.805
59.80000 142.551
59.84000 132.824
59.88000 120.666
59.92000 132.317
59.96000 138.394
60.00000 135.755
60.04000 143.936
60.08000 135.739
60.12000 131.523
60.16000 135.181
60.20000 125.107
60.24000 141.871
60.28000 135.916
60.32000 130.300
60.36000 127.087
60.40000 130.206
60.44000 137.446
60.48000 120.871
60.52000 133.897
60.56000 126.910
60.60000 135.424
60.64000 135.218
60.68000 131.305
60.72000 132.591
60.76000 128.043
60.80000 119.787
60.84000 136.021
60.88000 127.108
60.92000 136.109
60.96000 138.308
61.00000 136.581
61.04000 130.443
61.08000 130.900
61.12000 137.935
61.16000 131.901
61.20000 135.795
61.24000 137.693
61.28000 136.451
61.32000 143.623
61.36000 138.246
61.40000 147.842
61.44000 149.480
61.48000 140.500
61.52000 153.585
61.56000 186.213
61.60000 220.586
61.64000 235.672
61.68000 244.020
61.72000 240.685
61.76000 242.053
61.80000 200.667
61.84000 170.193
61.88000 148.142
61.92000 137.317
61.96000 138.300
62.00000 144.618
62.04000 133.403
62.08000 134.823
62.12000 139.474
62.16000 135.631
62.20000 136.812
62.24000 152.542
62.28000 145.617
62.32000 133.380
62.36000 125.769
62.40000 145.997
62.44000 134.706
62.48000 141.954
62.52000 140.681
62.56000 126.985
62.60000 141.775
62.64000 138.723
62.68000 144.015
62.72000 142.106
62.76000 145.974
62.80000 144.243
62.84000 141.456
62.88000 143.023
62.92000 149.981
62.96000 144.611
63.00000 134.332
63.04000 138.509
63.08000 151.244
63.12000 139.474
63.16000 140.339
63.20000 147.520
63.24000 150.152
63.28000 148.428
63.32000 146.075
63.36000 134.495
63.40000 150.489
63.44000 147.946
63.48000 161.191
63.52000 143.703
63.56000 151.358
63.60000 140.785
63.64000 156.790
63.68000 154.271
63.72000 150.103
63.76000 142.177
63.80000 152.878
63.84000 150.053
63.88000 147.754
63.92000 154.023
63.96000 160.571
64.00000 151.427
64.04000 156.709
64.08000 157.907
64.12000 162.633
64.16000 162.313
64.20000 150.231
64.24000 148.044
64.28000 149.561
64.32000 161.638
64.36000 158.049
64.40000 165.908
64.44000 168.301
64.48000 158.593
64.52000 163.239
64.56000 171.074
64.60000 176.222
64.64000 171.850
64.68000 174.553
64.72000 165.461
64.76000 166.856
64.80000 175.091
64.84000 163.759
64.88000 178.440
64.92000 176.317
64.96000 187.684
65.00000 176.331
65.04000 193.802
65.08000 204.987
65.12000 186.283
65.16000 201.878
65.20000 212.941
65.24000 219.256
65.28000 239.149
65.32000 252.580
65.36000 256.907
65.40000 270.821
65.44000 294.650
65.48000 325.392
65.52000 325.932
65.56000 324.924
65.60000 354.373
65.64000 366.748
65.68000 432.914
65.72000 528.285
65.76000 650.923
65.80000 819.581
65.84000 877.528
65.88000 942.222
65.92000 856.206
65.96000 737.246
66.00000 555.505
66.04000 396.658
66.08000 318.126
66.12000 293.890
66.16000 286.165
66.20000 269.391
66.24000 289.305
66.28000 313.922
66.32000 341.066
66.36000 386.579
66.40000 388.468
66.44000 387.454
66.48000 389.336
66.52000 367.487
66.56000 326.591
66.60000 299.215
66.64000 298.002
66.68000 292.098
66.72000 272.516
66.76000 294.251
66.80000 309.049
66.84000 303.678
66.88000 312.071
66.92000 327.000
66.96000 319.946
67.00000 320.257
67.04000 335.109
67.08000 333.507
67.12000 324.910
67.16000 342.723
67.20000 345.300
67.24000 354.646
67.28000 346.756
67.32000 374.020
67.36000 377.151
67.40000 367.061
67.44000 385.413
67.48000 385.416
67.52000 380.829
67.56000 411.066
67.60000 416.660
67.64000 423.778
67.68000 432.227
67.72000 434.923
67.76000 432.113
67.80000 440.645
67.84000 469.187
67.88000 461.431
67.92000 458.209
67.96000 473.206
68.00000 479.619
68.04000 507.067
68.08000 500.946
68.12000 530.458
68.16000 533.168
68.20000 539.290
68.24000 581.928
68.28000 570.442
68.32000 593.535
68.36000 643.450
68.40000 649.613
68.44000 679.791
68.48000 675.243
68.52000 745.313
68.56000 787.351
68.60000 859.441
68.64000 995.293
68.68000 1178.067
68.72000 1347.602
68.76000 1570.980
68.80000 1691.743
68.84000 1922.338
68.88000 2360.308
68.92000 4043.980
68.96000 9635.925
69.00000 23806.236
69.04000 38571.000
69.08000 46401.414
69.12000 47565.809
69.16000 49246.582
69.20000 49619.887
69.24000 41489.277
69.28000 31565.773
69.32000 25868.963
69.36000 23452.139
69.40000 19526.451
69.44000 11833.808
69.48000 5383.732
69.52000 2507.097
69.56000 1574.633
69.60000 1280.746
69.64000 1101.235
69.68000 983.033
69.72000 900.526
69.76000 855.026
69.80000 798.141
69.84000 751.620
69.88000 721.243
69.92000 685.794
69.96000 646.487
70.00000 651.782