File: XRD/30-09-2025 Dep 1/XY Data/BTO_Mapping_Theta2Theta_30-09-2025_001_24_-15-000_25-981.xy
20.00000 575.284
20.04000 585.086
20.08000 582.525
20.12000 570.732
20.16000 573.024
20.20000 564.844
20.24000 572.551
20.28000 558.316
20.32000 572.887
20.36000 581.526
20.40000 573.959
20.44000 567.434
20.48000 560.644
20.52000 567.572
20.56000 557.208
20.60000 556.354
20.64000 563.784
20.68000 568.492
20.72000 548.019
20.76000 550.582
20.80000 579.000
20.84000 564.605
20.88000 541.673
20.92000 554.920
20.96000 542.010
21.00000 545.263
21.04000 558.156
21.08000 550.826
21.12000 552.489
21.16000 536.946
21.20000 550.838
21.24000 538.651
21.28000 536.668
21.32000 550.171
21.36000 533.823
21.40000 542.345
21.44000 542.407
21.48000 537.644
21.52000 540.417
21.56000 549.760
21.60000 538.538
21.64000 592.763
21.68000 539.670
21.72000 550.240
21.76000 553.365
21.80000 574.764
21.84000 607.519
21.88000 562.862
21.92000 615.496
21.96000 625.955
22.00000 640.542
22.04000 651.780
22.08000 669.500
22.12000 648.163
22.16000 643.594
22.20000 613.877
22.24000 600.782
22.28000 590.505
22.32000 576.328
22.36000 558.521
22.40000 552.763
22.44000 550.738
22.48000 537.826
22.52000 541.044
22.56000 528.158
22.60000 541.722
22.64000 531.131
22.68000 526.413
22.72000 522.953
22.76000 513.013
22.80000 524.851
22.84000 521.559
22.88000 498.915
22.92000 496.638
22.96000 527.714
23.00000 513.572
23.04000 511.211
23.08000 506.346
23.12000 521.692
23.16000 500.461
23.20000 510.410
23.24000 542.481
23.28000 504.647
23.32000 520.142
23.36000 515.000
23.40000 500.337
23.44000 513.755
23.48000 511.613
23.52000 498.313
23.56000 516.961
23.60000 522.600
23.64000 512.562
23.68000 499.220
23.72000 513.173
23.76000 512.962
23.80000 517.132
23.84000 523.796
23.88000 533.486
23.92000 519.254
23.96000 536.135
24.00000 552.732
24.04000 537.520
24.08000 529.600
24.12000 548.471
24.16000 509.375
24.20000 522.026
24.24000 537.262
24.28000 516.512
24.32000 520.552
24.36000 499.122
24.40000 500.840
24.44000 502.682
24.48000 503.112
24.52000 500.222
24.56000 508.874
24.60000 474.257
24.64000 502.070
24.68000 503.201
24.72000 496.251
24.76000 488.642
24.80000 470.822
24.84000 484.938
24.88000 456.592
24.92000 481.769
24.96000 466.334
25.00000 476.298
25.04000 494.841
25.08000 477.933
25.12000 486.438
25.16000 485.394
25.20000 450.920
25.24000 451.817
25.28000 460.498
25.32000 470.778
25.36000 461.701
25.40000 471.878
25.44000 481.570
25.48000 475.028
25.52000 473.666
25.56000 474.253
25.60000 462.364
25.64000 467.051
25.68000 470.382
25.72000 471.366
25.76000 461.358
25.80000 462.266
25.84000 470.237
25.88000 470.622
25.92000 458.469
25.96000 466.229
26.00000 444.519
26.04000 459.466
26.08000 439.718
26.12000 448.567
26.16000 471.781
26.20000 477.806
26.24000 462.990
26.28000 457.035
26.32000 466.189
26.36000 461.416
26.40000 443.902
26.44000 456.962
26.48000 458.787
26.52000 458.613
26.56000 449.715
26.60000 463.908
26.64000 456.829
26.68000 453.525
26.72000 437.019
26.76000 438.194
26.80000 443.213
26.84000 449.140
26.88000 456.365
26.92000 447.785
26.96000 460.108
27.00000 455.613
27.04000 429.772
27.08000 448.980
27.12000 445.920
27.16000 448.216
27.20000 432.465
27.24000 429.830
27.28000 461.102
27.32000 435.374
27.36000 427.969
27.40000 446.267
27.44000 422.872
27.48000 452.311
27.52000 431.470
27.56000 434.836
27.60000 451.786
27.64000 438.410
27.68000 436.758
27.72000 447.632
27.76000 416.570
27.80000 433.516
27.84000 428.610
27.88000 415.854
27.92000 437.492
27.96000 446.577
28.00000 428.957
28.04000 424.976
28.08000 412.426
28.12000 421.108
28.16000 423.747
28.20000 438.303
28.24000 442.688
28.28000 425.548
28.32000 428.678
28.36000 411.986
28.40000 438.695
28.44000 430.703
28.48000 414.722
28.52000 428.574
28.56000 422.217
28.60000 441.286
28.64000 411.970
28.68000 426.443
28.72000 412.993
28.76000 407.845
28.80000 415.219
28.84000 412.062
28.88000 433.582
28.92000 433.219
28.96000 410.769
29.00000 414.836
29.04000 427.106
29.08000 431.012
29.12000 393.817
29.16000 416.146
29.20000 432.989
29.24000 417.032
29.28000 425.862
29.32000 417.185
29.36000 409.441
29.40000 401.248
29.44000 392.108
29.48000 419.300
29.52000 424.417
29.56000 414.669
29.60000 409.740
29.64000 392.440
29.68000 422.594
29.72000 402.541
29.76000 405.476
29.80000 410.894
29.84000 404.361
29.88000 397.829
29.92000 404.697
29.96000 433.163
30.00000 428.084
30.04000 429.499
30.08000 422.877
30.12000 425.252
30.16000 417.000
30.20000 425.386
30.24000 405.503
30.28000 404.989
30.32000 423.094
30.36000 416.418
30.40000 411.389
30.44000 419.821
30.48000 429.222
30.52000 409.752
30.56000 425.060
30.60000 428.505
30.64000 429.108
30.68000 401.742
30.72000 431.428
30.76000 422.027
30.80000 425.899
30.84000 423.476
30.88000 435.438
30.92000 452.098
30.96000 463.448
31.00000 497.238
31.04000 526.549
31.08000 585.790
31.12000 673.974
31.16000 787.169
31.20000 1008.724
31.24000 1253.953
31.28000 1514.869
31.32000 1777.810
31.36000 1956.489
31.40000 2012.684
31.44000 1991.594
31.48000 1776.384
31.52000 1511.809
31.56000 1245.587
31.60000 995.210
31.64000 788.921
31.68000 658.975
31.72000 577.138
31.76000 503.170
31.80000 478.780
31.84000 446.365
31.88000 424.757
31.92000 450.625
31.96000 419.227
32.00000 402.348
32.04000 401.765
32.08000 401.019
32.12000 388.604
32.16000 387.959
32.20000 408.773
32.24000 378.918
32.28000 401.040
32.32000 384.510
32.36000 407.371
32.40000 408.573
32.44000 409.620
32.48000 388.104
32.52000 390.008
32.56000 365.385
32.60000 368.736
32.64000 365.797
32.68000 359.579
32.72000 367.220
32.76000 364.594
32.80000 361.490
32.84000 370.173
32.88000 372.177
32.92000 376.908
32.96000 367.474
33.00000 383.046
33.04000 376.036
33.08000 370.043
33.12000 375.589
33.16000 365.649
33.20000 356.615
33.24000 344.887
33.28000 337.194
33.32000 341.260
33.36000 337.657
33.40000 343.270
33.44000 345.640
33.48000 335.210
33.52000 340.067
33.56000 343.968
33.60000 332.696
33.64000 343.223
33.68000 348.535
33.72000 346.868
33.76000 341.919
33.80000 345.050
33.84000 348.646
33.88000 343.628
33.92000 336.228
33.96000 368.992
34.00000 351.296
34.04000 356.871
34.08000 349.142
34.12000 356.475
34.16000 358.366
34.20000 353.067
34.24000 360.598
34.28000 350.357
34.32000 366.815
34.36000 361.338
34.40000 359.589
34.44000 371.712
34.48000 352.645
34.52000 345.997
34.56000 343.091
34.60000 359.720
34.64000 341.706
34.68000 346.906
34.72000 320.312
34.76000 332.956
34.80000 347.967
34.84000 334.125
34.88000 342.208
34.92000 352.817
34.96000 316.249
35.00000 309.972
35.04000 338.725
35.08000 316.027
35.12000 340.793
35.16000 312.379
35.20000 327.933
35.24000 306.704
35.28000 317.826
35.32000 318.285
35.36000 323.862
35.40000 310.106
35.44000 323.736
35.48000 315.115
35.52000 319.286
35.56000 301.227
35.60000 315.047
35.64000 310.417
35.68000 303.990
35.72000 317.813
35.76000 308.909
35.80000 314.117
35.84000 290.530
35.88000 305.644
35.92000 306.375
35.96000 311.093
36.00000 307.349
36.04000 296.342
36.08000 307.458
36.12000 307.253
36.16000 321.450
36.20000 298.256
36.24000 307.566
36.28000 319.826
36.32000 298.560
36.36000 299.218
36.40000 301.451
36.44000 285.927
36.48000 296.824
36.52000 284.776
36.56000 295.578
36.60000 304.393
36.64000 299.254
36.68000 308.895
36.72000 297.284
36.76000 304.487
36.80000 286.499
36.84000 297.479
36.88000 297.783
36.92000 302.840
36.96000 303.808
37.00000 308.703
37.04000 306.697
37.08000 296.087
37.12000 307.785
37.16000 312.174
37.20000 318.718
37.24000 295.982
37.28000 304.518
37.32000 305.863
37.36000 297.492
37.40000 302.605
37.44000 294.278
37.48000 298.124
37.52000 294.451
37.56000 290.549
37.60000 296.286
37.64000 303.868
37.68000 309.159
37.72000 287.544
37.76000 284.718
37.80000 298.501
37.84000 288.171
37.88000 302.730
37.92000 288.531
37.96000 293.271
38.00000 292.515
38.04000 281.476
38.08000 293.256
38.12000 311.609
38.16000 300.956
38.20000 299.198
38.24000 309.078
38.28000 293.590
38.32000 302.560
38.36000 328.595
38.40000 345.911
38.44000 384.011
38.48000 419.670
38.52000 490.592
38.56000 598.092
38.60000 729.719
38.64000 881.837
38.68000 1013.254
38.72000 1123.868
38.76000 1146.642
38.80000 1098.526
38.84000 1014.626
38.88000 876.261
38.92000 730.136
38.96000 582.655
39.00000 478.948
39.04000 406.683
39.08000 354.818
39.12000 323.461
39.16000 301.302
39.20000 303.657
39.24000 296.424
39.28000 298.000
39.32000 286.630
39.36000 272.832
39.40000 273.126
39.44000 265.031
39.48000 272.123
39.52000 277.778
39.56000 272.983
39.60000 281.753
39.64000 270.709
39.68000 272.496
39.72000 270.559
39.76000 276.049
39.80000 273.574
39.84000 272.934
39.88000 286.355
39.92000 280.205
39.96000 273.941
40.00000 258.901
40.04000 264.438
40.08000 265.571
40.12000 260.370
40.16000 263.904
40.20000 271.397
40.24000 266.506
40.28000 254.572
40.32000 255.224
40.36000 247.817
40.40000 251.692
40.44000 263.073
40.48000 251.215
40.52000 245.838
40.56000 256.463
40.60000 247.869
40.64000 252.837
40.68000 249.717
40.72000 259.440
40.76000 253.902
40.80000 245.160
40.84000 259.841
40.88000 247.639
40.92000 236.802
40.96000 254.250
41.00000 245.699
41.04000 256.495
41.08000 251.071
41.12000 243.455
41.16000 243.508
41.20000 230.708
41.24000 246.191
41.28000 236.945
41.32000 249.551
41.36000 249.137
41.40000 250.415
41.44000 258.339
41.48000 237.486
41.52000 252.185
41.56000 226.377
41.60000 241.410
41.64000 232.780
41.68000 235.855
41.72000 239.524
41.76000 243.286
41.80000 244.132
41.84000 239.558
41.88000 246.371
41.92000 240.038
41.96000 244.356
42.00000 246.790
42.04000 240.521
42.08000 242.763
42.12000 243.744
42.16000 239.212
42.20000 254.220
42.24000 252.162
42.28000 251.469
42.32000 240.004
42.36000 243.053
42.40000 239.712
42.44000 243.041
42.48000 233.281
42.52000 236.712
42.56000 233.546
42.60000 246.163
42.64000 230.220
42.68000 238.155
42.72000 246.296
42.76000 223.831
42.80000 240.643
42.84000 240.331
42.88000 236.688
42.92000 232.143
42.96000 226.617
43.00000 241.986
43.04000 232.463
43.08000 227.836
43.12000 235.563
43.16000 227.496
43.20000 231.164
43.24000 221.552
43.28000 221.944
43.32000 235.965
43.36000 230.085
43.40000 224.143
43.44000 227.885
43.48000 218.256
43.52000 226.194
43.56000 229.436
43.60000 221.146
43.64000 230.325
43.68000 221.377
43.72000 225.562
43.76000 227.574
43.80000 223.179
43.84000 237.837
43.88000 225.393
43.92000 226.533
43.96000 226.861
44.00000 229.622
44.04000 226.441
44.08000 214.648
44.12000 218.308
44.16000 223.785
44.20000 226.195
44.24000 228.694
44.28000 224.309
44.32000 222.709
44.36000 221.440
44.40000 223.340
44.44000 230.360
44.48000 232.770
44.52000 229.311
44.56000 222.594
44.60000 239.483
44.64000 229.341
44.68000 232.755
44.72000 240.969
44.76000 251.083
44.80000 262.722
44.84000 258.176
44.88000 279.824
44.92000 275.901
44.96000 281.908
45.00000 304.350
45.04000 302.310
45.08000 318.717
45.12000 315.908
45.16000 312.950
45.20000 308.811
45.24000 283.421
45.28000 291.432
45.32000 272.011
45.36000 255.959
45.40000 259.913
45.44000 240.997
45.48000 229.338
45.52000 223.442
45.56000 231.339
45.60000 223.626
45.64000 219.569
45.68000 211.360
45.72000 219.042
45.76000 218.352
45.80000 212.179
45.84000 202.664
45.88000 207.520
45.92000 210.230
45.96000 212.778
46.00000 212.090
46.04000 206.766
46.08000 207.716
46.12000 217.951
46.16000 204.059
46.20000 199.058
46.24000 194.644
46.28000 213.519
46.32000 203.256
46.36000 206.252
46.40000 214.016
46.44000 216.250
46.48000 206.040
46.52000 207.795
46.56000 208.166
46.60000 204.089
46.64000 213.658
46.68000 213.534
46.72000 217.725
46.76000 204.694
46.80000 197.011
46.84000 193.060
46.88000 197.774
46.92000 203.209
46.96000 207.709
47.00000 205.724
47.04000 207.712
47.08000 206.152
47.12000 219.618
47.16000 192.912
47.20000 182.424
47.24000 187.658
47.28000 195.352
47.32000 196.324
47.36000 192.491
47.40000 184.141
47.44000 192.847
47.48000 194.490
47.52000 195.985
47.56000 189.465
47.60000 196.338
47.64000 195.007
47.68000 182.418
47.72000 188.474
47.76000 185.093
47.80000 190.268
47.84000 186.148
47.88000 184.736
47.92000 190.471
47.96000 185.805
48.00000 179.270
48.04000 198.245
48.08000 181.359
48.12000 186.197
48.16000 184.650
48.20000 183.240
48.24000 184.198
48.28000 184.117
48.32000 184.459
48.36000 191.504
48.40000 178.314
48.44000 181.998
48.48000 187.326
48.52000 187.899
48.56000 174.848
48.60000 179.201
48.64000 183.735
48.68000 187.053
48.72000 180.258
48.76000 182.057
48.80000 178.065
48.84000 182.801
48.88000 171.918
48.92000 178.980
48.96000 178.557
49.00000 175.490
49.04000 181.126
49.08000 178.537
49.12000 172.092
49.16000 169.310
49.20000 183.866
49.24000 183.128
49.28000 181.415
49.32000 188.250
49.36000 177.037
49.40000 179.968
49.44000 173.445
49.48000 185.466
49.52000 174.162
49.56000 179.908
49.60000 175.102
49.64000 172.857
49.68000 170.885
49.72000 187.898
49.76000 177.305
49.80000 181.695
49.84000 178.036
49.88000 184.152
49.92000 173.755
49.96000 175.366
50.00000 179.178
50.04000 173.341
50.08000 169.779
50.12000 193.334
50.16000 170.905
50.20000 180.750
50.24000 177.788
50.28000 186.092
50.32000 171.384
50.36000 172.236
50.40000 183.009
50.44000 188.868
50.48000 189.262
50.52000 198.581
50.56000 200.365
50.60000 211.533
50.64000 213.839
50.68000 213.676
50.72000 212.105
50.76000 228.990
50.80000 213.966
50.84000 210.907
50.88000 201.910
50.92000 197.859
50.96000 175.105
51.00000 185.019
51.04000 192.339
51.08000 185.861
51.12000 166.333
51.16000 176.499
51.20000 178.560
51.24000 182.106
51.28000 171.656
51.32000 169.553
51.36000 159.085
51.40000 165.512
51.44000 163.949
51.48000 183.639
51.52000 164.157
51.56000 173.051
51.60000 177.195
51.64000 174.665
51.68000 161.124
51.72000 165.653
51.76000 169.052
51.80000 165.754
51.84000 160.907
51.88000 164.332
51.92000 174.496
51.96000 162.285
52.00000 158.552
52.04000 164.890
52.08000 169.900
52.12000 167.214
52.16000 158.136
52.20000 147.267
52.24000 152.618
52.28000 166.944
52.32000 164.041
52.36000 168.329
52.40000 147.397
52.44000 158.369
52.48000 158.162
52.52000 149.328
52.56000 158.146
52.60000 160.344
52.64000 147.389
52.68000 164.216
52.72000 148.612
52.76000 152.998
52.80000 156.876
52.84000 147.984
52.88000 160.359
52.92000 151.046
52.96000 163.585
53.00000 172.636
53.04000 158.689
53.08000 158.707
53.12000 146.142
53.16000 170.336
53.20000 158.543
53.24000 174.474
53.28000 161.959
53.32000 169.270
53.36000 158.468
53.40000 158.538
53.44000 172.353
53.48000 165.452
53.52000 167.249
53.56000 160.292
53.60000 159.994
53.64000 155.963
53.68000 162.477
53.72000 156.703
53.76000 159.436
53.80000 168.955
53.84000 171.701
53.88000 152.591
53.92000 166.912
53.96000 154.602
54.00000 150.596
54.04000 157.673
54.08000 157.825
54.12000 153.474
54.16000 153.359
54.20000 152.949
54.24000 148.950
54.28000 158.856
54.32000 148.879
54.36000 153.581
54.40000 163.763
54.44000 150.525
54.48000 149.245
54.52000 149.777
54.56000 156.936
54.60000 158.468
54.64000 145.981
54.68000 156.393
54.72000 158.824
54.76000 164.835
54.80000 151.621
54.84000 166.466
54.88000 149.590
54.92000 159.248
54.96000 153.849
55.00000 161.988
55.04000 162.276
55.08000 158.934
55.12000 160.646
55.16000 164.785
55.20000 160.690
55.24000 173.639
55.28000 163.687
55.32000 163.259
55.36000 165.364
55.40000 169.520
55.44000 176.303
55.48000 183.986
55.52000 188.422
55.56000 198.895
55.60000 221.685
55.64000 231.887
55.68000 273.375
55.72000 320.335
55.76000 353.745
55.80000 415.127
55.84000 478.575
55.88000 524.148
55.92000 572.353
55.96000 590.864
56.00000 583.991
56.04000 557.105
56.08000 535.614
56.12000 487.824
56.16000 423.207
56.20000 361.351
56.24000 309.580
56.28000 284.311
56.32000 231.185
56.36000 207.646
56.40000 198.956
56.44000 185.721
56.48000 183.184
56.52000 170.757
56.56000 172.978
56.60000 155.261
56.64000 155.837
56.68000 157.961
56.72000 169.374
56.76000 151.151
56.80000 153.890
56.84000 144.802
56.88000 153.541
56.92000 145.764
56.96000 144.855
57.00000 139.760
57.04000 144.749
57.08000 148.109
57.12000 148.617
57.16000 140.308
57.20000 150.088
57.24000 138.971
57.28000 158.230
57.32000 140.063
57.36000 155.450
57.40000 136.312
57.44000 144.419
57.48000 154.296
57.52000 148.855
57.56000 147.020
57.60000 143.384
57.64000 137.415
57.68000 142.795
57.72000 144.128
57.76000 149.076
57.80000 127.420
57.84000 148.391
57.88000 140.320
57.92000 135.193
57.96000 144.941
58.00000 148.360
58.04000 140.833
58.08000 149.900
58.12000 150.017
58.16000 131.789
58.20000 126.156
58.24000 139.780
58.28000 138.102
58.32000 145.432
58.36000 134.974
58.40000 145.487
58.44000 138.187
58.48000 131.019
58.52000 140.397
58.56000 131.421
58.60000 132.597
58.64000 135.665
58.68000 137.916
58.72000 142.061
58.76000 126.456
58.80000 144.746
58.84000 135.701
58.88000 140.486
58.92000 134.674
58.96000 136.834
59.00000 141.008
59.04000 147.445
59.08000 147.941
59.12000 127.324
59.16000 141.359
59.20000 135.829
59.24000 139.342
59.28000 127.663
59.32000 128.465
59.36000 135.536
59.40000 141.479
59.44000 137.928
59.48000 133.907
59.52000 132.471
59.56000 132.806
59.60000 135.341
59.64000 133.215
59.68000 129.642
59.72000 136.299
59.76000 125.627
59.80000 132.710
59.84000 137.038
59.88000 129.314
59.92000 133.308
59.96000 127.781
60.00000 137.700
60.04000 143.651
60.08000 138.001
60.12000 130.245
60.16000 130.556
60.20000 134.663
60.24000 135.466
60.28000 137.514
60.32000 136.569
60.36000 124.898
60.40000 133.635
60.44000 134.389
60.48000 123.364
60.52000 142.728
60.56000 119.265
60.60000 125.389
60.64000 126.741
60.68000 141.360
60.72000 134.165
60.76000 140.164
60.80000 128.352
60.84000 149.768
60.88000 129.651
60.92000 132.789
60.96000 130.305
61.00000 154.409
61.04000 137.173
61.08000 136.174
61.12000 141.189
61.16000 138.283
61.20000 139.073
61.24000 140.882
61.28000 138.002
61.32000 127.478
61.36000 144.074
61.40000 147.575
61.44000 135.101
61.48000 147.640
61.52000 136.420
61.56000 178.779
61.60000 216.090
61.64000 231.287
61.68000 242.452
61.72000 249.695
61.76000 242.561
61.80000 210.944
61.84000 180.822
61.88000 163.251
61.92000 143.508
61.96000 142.006
62.00000 137.850
62.04000 152.310
62.08000 141.377
62.12000 137.803
62.16000 139.276
62.20000 138.344
62.24000 135.192
62.28000 141.421
62.32000 147.873
62.36000 139.937
62.40000 142.084
62.44000 137.703
62.48000 134.209
62.52000 144.873
62.56000 149.434
62.60000 143.905
62.64000 138.891
62.68000 145.718
62.72000 150.393
62.76000 154.779
62.80000 140.572
62.84000 145.387
62.88000 137.901
62.92000 143.501
62.96000 143.440
63.00000 142.586
63.04000 141.301
63.08000 148.980
63.12000 145.838
63.16000 134.179
63.20000 142.297
63.24000 145.993
63.28000 151.549
63.32000 141.712
63.36000 146.590
63.40000 148.293
63.44000 145.953
63.48000 143.527
63.52000 147.134
63.56000 153.985
63.60000 140.067
63.64000 147.344
63.68000 155.112
63.72000 152.858
63.76000 146.271
63.80000 152.506
63.84000 147.759
63.88000 161.670
63.92000 155.219
63.96000 151.802
64.00000 141.232
64.04000 148.697
64.08000 155.663
64.12000 156.838
64.16000 158.169
64.20000 167.812
64.24000 162.343
64.28000 167.679
64.32000 157.512
64.36000 158.251
64.40000 164.245
64.44000 161.857
64.48000 162.715
64.52000 169.977
64.56000 167.883
64.60000 171.058
64.64000 166.764
64.68000 166.004
64.72000 173.770
64.76000 166.031
64.80000 172.294
64.84000 178.055
64.88000 179.248
64.92000 176.706
64.96000 178.207
65.00000 178.110
65.04000 188.539
65.08000 196.126
65.12000 189.206
65.16000 194.927
65.20000 214.051
65.24000 208.248
65.28000 221.782
65.32000 225.845
65.36000 256.902
65.40000 275.989
65.44000 265.411
65.48000 272.254
65.52000 308.464
65.56000 317.422
65.60000 331.432
65.64000 352.604
65.68000 408.006
65.72000 472.682
65.76000 606.039
65.80000 804.699
65.84000 910.986
65.88000 902.281
65.92000 907.262
65.96000 795.031
66.00000 593.782
66.04000 426.939
66.08000 310.627
66.12000 297.225
66.16000 281.182
66.20000 286.835
66.24000 289.024
66.28000 297.143
66.32000 335.125
66.36000 373.044
66.40000 380.918
66.44000 403.910
66.48000 380.557
66.52000 378.360
66.56000 344.791
66.60000 324.269
66.64000 297.053
66.68000 290.777
66.72000 296.914
66.76000 280.768
66.80000 300.033
66.84000 307.954
66.88000 318.870
66.92000 319.301
66.96000 318.955
67.00000 336.198
67.04000 342.209
67.08000 335.669
67.12000 325.609
67.16000 336.143
67.20000 345.818
67.24000 344.425
67.28000 358.972
67.32000 359.785
67.36000 369.237
67.40000 397.777
67.44000 382.460
67.48000 374.172
67.52000 378.923
67.56000 399.948
67.60000 403.714
67.64000 397.160
67.68000 422.204
67.72000 439.028
67.76000 440.541
67.80000 447.716
67.84000 463.941
67.88000 469.665
67.92000 488.708
67.96000 480.710
68.00000 504.421
68.04000 491.093
68.08000 496.025
68.12000 510.574
68.16000 546.040
68.20000 552.743
68.24000 566.963
68.28000 569.630
68.32000 583.359
68.36000 611.133
68.40000 632.513
68.44000 657.606
68.48000 671.655
68.52000 719.667
68.56000 787.526
68.60000 865.557
68.64000 947.993
68.68000 1129.879
68.72000 1274.076
68.76000 1493.453
68.80000 1646.437
68.84000 1871.062
68.88000 2231.769
68.92000 3443.136
68.96000 7738.356
69.00000 20383.193
69.04000 36288.789
69.08000 46023.832
69.12000 47657.051
69.16000 49065.145
69.20000 50023.195
69.24000 43707.277
69.28000 33906.770
69.32000 27077.467
69.36000 24091.102
69.40000 20969.564
69.44000 13632.212
69.48000 6638.120
69.52000 2965.067
69.56000 1720.696
69.60000 1371.158
69.64000 1158.149
69.68000 1012.575
69.72000 907.337
69.76000 864.574
69.80000 791.853
69.84000 741.796
69.88000 707.904
69.92000 674.111
69.96000 674.369
70.00000 635.195