File: XRD/30-09-2025 Dep 1/XY Data/BTO_Mapping_Theta2Theta_30-09-2025_001_26_-8-090_5-878.xy
20.00000 573.720
20.04000 574.096
20.08000 572.449
20.12000 568.059
20.16000 571.602
20.20000 581.529
20.24000 556.577
20.28000 558.613
20.32000 562.779
20.36000 569.984
20.40000 569.153
20.44000 561.604
20.48000 568.272
20.52000 552.392
20.56000 544.307
20.60000 548.603
20.64000 549.846
20.68000 555.712
20.72000 541.351
20.76000 553.536
20.80000 546.975
20.84000 560.236
20.88000 538.353
20.92000 526.380
20.96000 557.311
21.00000 555.962
21.04000 549.213
21.08000 555.908
21.12000 560.551
21.16000 555.604
21.20000 563.065
21.24000 566.376
21.28000 533.567
21.32000 563.206
21.36000 531.900
21.40000 547.562
21.44000 548.233
21.48000 554.584
21.52000 552.284
21.56000 563.534
21.60000 552.479
21.64000 563.648
21.68000 567.747
21.72000 565.899
21.76000 567.903
21.80000 594.256
21.84000 607.832
21.88000 600.631
21.92000 638.519
21.96000 661.233
22.00000 705.633
22.04000 714.391
22.08000 717.704
22.12000 730.585
22.16000 710.633
22.20000 625.682
22.24000 618.919
22.28000 582.994
22.32000 559.743
22.36000 549.358
22.40000 530.941
22.44000 537.339
22.48000 558.454
22.52000 536.312
22.56000 522.812
22.60000 524.514
22.64000 533.518
22.68000 529.732
22.72000 527.613
22.76000 537.178
22.80000 518.582
22.84000 534.179
22.88000 514.464
22.92000 537.113
22.96000 540.573
23.00000 525.826
23.04000 542.557
23.08000 531.262
23.12000 529.691
23.16000 515.773
23.20000 532.252
23.24000 515.271
23.28000 519.531
23.32000 508.945
23.36000 519.227
23.40000 502.189
23.44000 514.832
23.48000 519.431
23.52000 523.958
23.56000 512.454
23.60000 535.897
23.64000 504.574
23.68000 498.488
23.72000 506.773
23.76000 515.099
23.80000 524.975
23.84000 525.773
23.88000 522.696
23.92000 525.544
23.96000 526.010
24.00000 530.096
24.04000 517.655
24.08000 519.091
24.12000 542.573
24.16000 500.876
24.20000 529.617
24.24000 526.728
24.28000 517.123
24.32000 522.730
24.36000 515.253
24.40000 505.021
24.44000 504.948
24.48000 481.664
24.52000 489.492
24.56000 489.163
24.60000 484.297
24.64000 482.282
24.68000 469.929
24.72000 489.441
24.76000 487.662
24.80000 477.850
24.84000 492.742
24.88000 498.273
24.92000 484.261
24.96000 479.629
25.00000 474.404
25.04000 489.915
25.08000 474.258
25.12000 474.603
25.16000 487.492
25.20000 472.925
25.24000 459.327
25.28000 485.024
25.32000 490.940
25.36000 465.327
25.40000 476.761
25.44000 470.906
25.48000 486.210
25.52000 470.905
25.56000 474.075
25.60000 483.262
25.64000 465.088
25.68000 492.035
25.72000 472.513
25.76000 473.395
25.80000 484.146
25.84000 472.242
25.88000 480.101
25.92000 475.900
25.96000 472.406
26.00000 478.727
26.04000 456.484
26.08000 456.601
26.12000 473.373
26.16000 457.903
26.20000 445.940
26.24000 459.590
26.28000 461.773
26.32000 464.502
26.36000 478.440
26.40000 461.915
26.44000 460.798
26.48000 451.961
26.52000 449.981
26.56000 450.325
26.60000 469.099
26.64000 463.441
26.68000 446.187
26.72000 456.862
26.76000 436.817
26.80000 444.817
26.84000 451.345
26.88000 457.143
26.92000 456.087
26.96000 450.343
27.00000 443.833
27.04000 437.689
27.08000 439.122
27.12000 433.299
27.16000 431.924
27.20000 448.198
27.24000 438.446
27.28000 451.139
27.32000 454.520
27.36000 440.824
27.40000 431.623
27.44000 424.430
27.48000 458.766
27.52000 437.165
27.56000 438.812
27.60000 436.991
27.64000 438.978
27.68000 454.123
27.72000 453.576
27.76000 451.293
27.80000 450.983
27.84000 446.616
27.88000 428.701
27.92000 426.622
27.96000 432.289
28.00000 431.546
28.04000 429.664
28.08000 447.273
28.12000 425.856
28.16000 422.020
28.20000 416.267
28.24000 427.562
28.28000 445.004
28.32000 439.839
28.36000 438.773
28.40000 429.782
28.44000 438.064
28.48000 424.373
28.52000 432.837
28.56000 442.546
28.60000 438.312
28.64000 430.322
28.68000 421.540
28.72000 423.891
28.76000 412.852
28.80000 424.487
28.84000 420.064
28.88000 424.599
28.92000 429.444
28.96000 436.844
29.00000 411.215
29.04000 417.140
29.08000 421.713
29.12000 403.956
29.16000 429.804
29.20000 430.161
29.24000 419.191
29.28000 421.859
29.32000 408.031
29.36000 414.874
29.40000 411.265
29.44000 437.819
29.48000 425.826
29.52000 403.202
29.56000 413.042
29.60000 414.943
29.64000 413.687
29.68000 419.982
29.72000 418.973
29.76000 416.716
29.80000 417.094
29.84000 432.205
29.88000 428.170
29.92000 433.024
29.96000 434.422
30.00000 444.636
30.04000 448.239
30.08000 456.198
30.12000 461.060
30.16000 447.624
30.20000 426.581
30.24000 455.464
30.28000 428.223
30.32000 423.032
30.36000 440.512
30.40000 436.965
30.44000 424.584
30.48000 438.244
30.52000 443.490
30.56000 417.937
30.60000 409.479
30.64000 413.555
30.68000 445.012
30.72000 454.241
30.76000 451.808
30.80000 456.887
30.84000 474.733
30.88000 485.793
30.92000 484.530
30.96000 505.741
31.00000 554.671
31.04000 611.099
31.08000 706.820
31.12000 876.264
31.16000 1142.623
31.20000 1494.529
31.24000 2007.440
31.28000 2561.172
31.32000 3046.917
31.36000 3349.262
31.40000 3465.756
31.44000 3189.464
31.48000 2816.310
31.52000 2302.220
31.56000 1717.709
31.60000 1266.348
31.64000 910.513
31.68000 723.425
31.72000 614.186
31.76000 548.587
31.80000 491.635
31.84000 452.917
31.88000 462.576
31.92000 415.293
31.96000 429.598
32.00000 412.500
32.04000 414.329
32.08000 416.503
32.12000 418.465
32.16000 408.744
32.20000 399.733
32.24000 394.091
32.28000 402.028
32.32000 390.999
32.36000 411.045
32.40000 389.135
32.44000 403.292
32.48000 396.871
32.52000 368.212
32.56000 378.260
32.60000 392.838
32.64000 378.691
32.68000 370.713
32.72000 379.000
32.76000 362.887
32.80000 366.339
32.84000 371.473
32.88000 375.132
32.92000 377.037
32.96000 383.067
33.00000 394.170
33.04000 395.348
33.08000 395.963
33.12000 389.901
33.16000 379.924
33.20000 356.049
33.24000 352.588
33.28000 339.125
33.32000 340.441
33.36000 345.981
33.40000 352.042
33.44000 347.723
33.48000 352.740
33.52000 347.098
33.56000 363.223
33.60000 343.555
33.64000 342.242
33.68000 340.742
33.72000 335.579
33.76000 342.629
33.80000 340.430
33.84000 333.361
33.88000 348.532
33.92000 347.561
33.96000 333.542
34.00000 342.825
34.04000 351.876
34.08000 355.673
34.12000 336.275
34.16000 339.047
34.20000 351.133
34.24000 352.202
34.28000 331.110
34.32000 340.669
34.36000 344.886
34.40000 343.433
34.44000 356.735
34.48000 342.466
34.52000 341.875
34.56000 346.261
34.60000 345.997
34.64000 346.045
34.68000 329.978
34.72000 335.061
34.76000 331.612
34.80000 333.142
34.84000 331.019
34.88000 327.429
34.92000 320.797
34.96000 333.111
35.00000 335.262
35.04000 305.473
35.08000 322.164
35.12000 312.071
35.16000 317.717
35.20000 319.792
35.24000 328.478
35.28000 327.618
35.32000 324.296
35.36000 318.509
35.40000 314.903
35.44000 307.457
35.48000 322.645
35.52000 324.170
35.56000 313.190
35.60000 329.464
35.64000 305.731
35.68000 298.351
35.72000 311.257
35.76000 322.880
35.80000 316.553
35.84000 308.760
35.88000 299.448
35.92000 308.282
35.96000 316.992
36.00000 300.566
36.04000 300.153
36.08000 299.072
36.12000 307.794
36.16000 293.051
36.20000 306.888
36.24000 313.015
36.28000 302.232
36.32000 296.354
36.36000 305.137
36.40000 298.679
36.44000 310.852
36.48000 313.555
36.52000 310.693
36.56000 286.775
36.60000 293.016
36.64000 312.818
36.68000 295.414
36.72000 302.357
36.76000 292.117
36.80000 275.410
36.84000 292.862
36.88000 280.395
36.92000 294.063
36.96000 290.397
37.00000 297.777
37.04000 311.298
37.08000 281.089
37.12000 305.602
37.16000 301.185
37.20000 303.712
37.24000 296.226
37.28000 287.500
37.32000 312.403
37.36000 304.964
37.40000 300.996
37.44000 297.797
37.48000 299.736
37.52000 293.138
37.56000 287.162
37.60000 293.737
37.64000 287.750
37.68000 290.060
37.72000 280.053
37.76000 295.190
37.80000 295.208
37.84000 300.439
37.88000 298.731
37.92000 281.940
37.96000 293.616
38.00000 290.803
38.04000 290.583
38.08000 276.762
38.12000 309.488
38.16000 301.427
38.20000 288.166
38.24000 317.160
38.28000 305.234
38.32000 333.152
38.36000 319.408
38.40000 343.001
38.44000 372.319
38.48000 424.715
38.52000 477.644
38.56000 572.380
38.60000 698.405
38.64000 778.086
38.68000 866.577
38.72000 914.146
38.76000 915.847
38.80000 866.465
38.84000 798.613
38.88000 669.950
38.92000 553.361
38.96000 461.681
39.00000 388.034
39.04000 327.401
39.08000 326.162
39.12000 318.155
39.16000 312.120
39.20000 284.185
39.24000 281.727
39.28000 289.427
39.32000 279.840
39.36000 293.459
39.40000 289.111
39.44000 274.933
39.48000 289.350
39.52000 264.483
39.56000 244.158
39.60000 273.573
39.64000 270.674
39.68000 267.470
39.72000 267.629
39.76000 268.596
39.80000 275.769
39.84000 258.316
39.88000 283.651
39.92000 261.018
39.96000 267.319
40.00000 277.773
40.04000 254.834
40.08000 252.068
40.12000 253.893
40.16000 271.941
40.20000 251.111
40.24000 245.375
40.28000 254.636
40.32000 264.605
40.36000 265.961
40.40000 263.003
40.44000 256.007
40.48000 269.786
40.52000 251.080
40.56000 264.517
40.60000 256.624
40.64000 254.511
40.68000 259.708
40.72000 260.694
40.76000 251.406
40.80000 252.474
40.84000 246.956
40.88000 237.593
40.92000 248.702
40.96000 257.733
41.00000 263.156
41.04000 252.053
41.08000 236.834
41.12000 251.826
41.16000 247.817
41.20000 242.309
41.24000 251.320
41.28000 243.990
41.32000 243.126
41.36000 243.812
41.40000 257.455
41.44000 238.708
41.48000 254.456
41.52000 245.621
41.56000 253.779
41.60000 235.577
41.64000 263.409
41.68000 245.546
41.72000 250.374
41.76000 238.418
41.80000 215.574
41.84000 260.336
41.88000 245.976
41.92000 229.205
41.96000 258.776
42.00000 236.948
42.04000 233.907
42.08000 247.084
42.12000 235.781
42.16000 230.178
42.20000 233.065
42.24000 246.123
42.28000 243.156
42.32000 251.306
42.36000 223.443
42.40000 242.645
42.44000 235.161
42.48000 243.377
42.52000 233.659
42.56000 235.505
42.60000 246.966
42.64000 242.565
42.68000 220.037
42.72000 234.234
42.76000 252.214
42.80000 225.552
42.84000 233.937
42.88000 223.858
42.92000 225.953
42.96000 233.081
43.00000 235.840
43.04000 230.269
43.08000 221.751
43.12000 236.606
43.16000 243.994
43.20000 235.197
43.24000 233.316
43.28000 239.191
43.32000 229.557
43.36000 222.456
43.40000 235.106
43.44000 235.562
43.48000 223.867
43.52000 214.004
43.56000 225.741
43.60000 218.136
43.64000 216.921
43.68000 234.760
43.72000 217.846
43.76000 219.574
43.80000 211.601
43.84000 221.674
43.88000 212.828
43.92000 220.006
43.96000 240.396
44.00000 230.733
44.04000 229.238
44.08000 222.105
44.12000 230.194
44.16000 227.737
44.20000 221.848
44.24000 222.613
44.28000 215.122
44.32000 207.756
44.36000 225.925
44.40000 220.309
44.44000 224.799
44.48000 225.241
44.52000 230.516
44.56000 220.782
44.60000 234.035
44.64000 231.794
44.68000 236.785
44.72000 246.921
44.76000 245.709
44.80000 261.639
44.84000 269.136
44.88000 277.831
44.92000 296.783
44.96000 332.196
45.00000 345.732
45.04000 351.516
45.08000 386.116
45.12000 394.705
45.16000 376.563
45.20000 350.610
45.24000 338.497
45.28000 315.308
45.32000 292.893
45.36000 270.907
45.40000 269.867
45.44000 255.655
45.48000 255.122
45.52000 242.955
45.56000 229.821
45.60000 222.582
45.64000 224.878
45.68000 226.072
45.72000 233.930
45.76000 208.413
45.80000 217.565
45.84000 212.985
45.88000 225.688
45.92000 199.774
45.96000 200.011
46.00000 204.717
46.04000 202.840
46.08000 205.682
46.12000 211.048
46.16000 199.604
46.20000 210.873
46.24000 205.736
46.28000 208.833
46.32000 207.570
46.36000 204.011
46.40000 192.605
46.44000 204.110
46.48000 209.265
46.52000 199.409
46.56000 199.661
46.60000 196.199
46.64000 205.262
46.68000 207.856
46.72000 202.843
46.76000 195.144
46.80000 206.422
46.84000 188.979
46.88000 201.465
46.92000 205.835
46.96000 195.823
47.00000 196.984
47.04000 202.915
47.08000 203.086
47.12000 192.847
47.16000 202.779
47.20000 202.748
47.24000 191.343
47.28000 198.279
47.32000 203.184
47.36000 187.253
47.40000 184.654
47.44000 178.185
47.48000 193.470
47.52000 193.814
47.56000 191.939
47.60000 185.121
47.64000 187.361
47.68000 180.236
47.72000 183.432
47.76000 204.386
47.80000 186.220
47.84000 198.327
47.88000 191.823
47.92000 187.426
47.96000 187.950
48.00000 189.060
48.04000 193.987
48.08000 189.442
48.12000 190.698
48.16000 188.390
48.20000 189.392
48.24000 174.287
48.28000 185.706
48.32000 181.699
48.36000 205.582
48.40000 175.060
48.44000 181.411
48.48000 182.680
48.52000 179.522
48.56000 182.589
48.60000 181.867
48.64000 188.902
48.68000 186.004
48.72000 191.572
48.76000 173.242
48.80000 184.417
48.84000 181.902
48.88000 176.130
48.92000 170.913
48.96000 183.601
49.00000 189.665
49.04000 175.958
49.08000 177.829
49.12000 184.347
49.16000 179.428
49.20000 184.285
49.24000 178.719
49.28000 173.909
49.32000 185.196
49.36000 186.489
49.40000 174.873
49.44000 178.938
49.48000 189.577
49.52000 184.515
49.56000 177.735
49.60000 189.644
49.64000 174.491
49.68000 175.756
49.72000 169.971
49.76000 180.006
49.80000 168.735
49.84000 181.211
49.88000 169.826
49.92000 171.141
49.96000 184.981
50.00000 181.032
50.04000 176.609
50.08000 179.139
50.12000 171.435
50.16000 188.489
50.20000 181.040
50.24000 198.907
50.28000 177.928
50.32000 184.458
50.36000 186.919
50.40000 191.855
50.44000 195.069
50.48000 207.211
50.52000 214.188
50.56000 225.146
50.60000 246.953
50.64000 261.207
50.68000 264.164
50.72000 272.542
50.76000 276.229
50.80000 259.861
50.84000 254.331
50.88000 241.807
50.92000 206.958
50.96000 199.931
51.00000 198.192
51.04000 197.547
51.08000 184.632
51.12000 176.394
51.16000 188.470
51.20000 185.960
51.24000 176.433
51.28000 169.793
51.32000 163.929
51.36000 168.277
51.40000 172.066
51.44000 177.436
51.48000 165.618
51.52000 173.620
51.56000 158.083
51.60000 167.316
51.64000 165.268
51.68000 160.600
51.72000 162.837
51.76000 170.126
51.80000 170.173
51.84000 165.750
51.88000 159.297
51.92000 165.083
51.96000 150.896
52.00000 158.251
52.04000 154.106
52.08000 161.281
52.12000 160.852
52.16000 163.568
52.20000 156.825
52.24000 161.907
52.28000 169.525
52.32000 163.942
52.36000 164.768
52.40000 169.013
52.44000 166.409
52.48000 164.882
52.52000 159.266
52.56000 161.553
52.60000 175.513
52.64000 168.933
52.68000 158.688
52.72000 165.442
52.76000 162.559
52.80000 176.721
52.84000 176.084
52.88000 162.840
52.92000 163.263
52.96000 150.740
53.00000 156.771
53.04000 153.919
53.08000 168.606
53.12000 157.052
53.16000 157.108
53.20000 167.896
53.24000 165.238
53.28000 151.873
53.32000 158.191
53.36000 167.911
53.40000 167.881
53.44000 157.750
53.48000 163.063
53.52000 172.040
53.56000 154.406
53.60000 163.348
53.64000 169.488
53.68000 161.511
53.72000 166.934
53.76000 167.663
53.80000 158.051
53.84000 149.315
53.88000 152.369
53.92000 153.924
53.96000 160.350
54.00000 152.238
54.04000 148.405
54.08000 151.488
54.12000 161.825
54.16000 148.828
54.20000 163.391
54.24000 162.776
54.28000 170.472
54.32000 151.835
54.36000 158.084
54.40000 165.760
54.44000 155.426
54.48000 165.206
54.52000 155.216
54.56000 160.787
54.60000 155.055
54.64000 160.543
54.68000 159.238
54.72000 160.917
54.76000 160.361
54.80000 156.595
54.84000 164.143
54.88000 158.015
54.92000 171.053
54.96000 162.727
55.00000 147.312
55.04000 151.764
55.08000 154.303
55.12000 160.537
55.16000 164.462
55.20000 157.985
55.24000 157.821
55.28000 173.610
55.32000 170.630
55.36000 172.912
55.40000 176.358
55.44000 179.479
55.48000 178.346
55.52000 185.125
55.56000 206.283
55.60000 237.268
55.64000 246.520
55.68000 289.612
55.72000 334.568
55.76000 386.824
55.80000 430.414
55.84000 543.564
55.88000 596.223
55.92000 646.518
55.96000 637.468
56.00000 624.866
56.04000 594.700
56.08000 533.204
56.12000 465.110
56.16000 410.825
56.20000 339.666
56.24000 286.467
56.28000 246.463
56.32000 215.440
56.36000 193.743
56.40000 197.769
56.44000 172.992
56.48000 177.650
56.52000 152.628
56.56000 166.716
56.60000 169.703
56.64000 160.286
56.68000 148.119
56.72000 155.125
56.76000 141.279
56.80000 154.817
56.84000 149.716
56.88000 149.735
56.92000 149.031
56.96000 148.188
57.00000 155.985
57.04000 154.262
57.08000 143.856
57.12000 146.674
57.16000 139.289
57.20000 151.572
57.24000 145.990
57.28000 136.113
57.32000 141.968
57.36000 150.971
57.40000 150.167
57.44000 150.057
57.48000 139.286
57.52000 145.198
57.56000 143.713
57.60000 146.273
57.64000 148.332
57.68000 133.317
57.72000 146.807
57.76000 148.258
57.80000 152.705
57.84000 145.278
57.88000 148.019
57.92000 137.296
57.96000 148.712
58.00000 144.811
58.04000 145.342
58.08000 150.565
58.12000 138.832
58.16000 142.192
58.20000 138.229
58.24000 138.877
58.28000 134.985
58.32000 136.453
58.36000 137.998
58.40000 147.431
58.44000 135.739
58.48000 143.788
58.52000 140.022
58.56000 133.527
58.60000 129.778
58.64000 131.648
58.68000 141.634
58.72000 135.969
58.76000 141.002
58.80000 146.001
58.84000 135.750
58.88000 130.579
58.92000 145.828
58.96000 134.435
59.00000 134.014
59.04000 138.314
59.08000 136.923
59.12000 138.114
59.16000 141.905
59.20000 145.600
59.24000 131.396
59.28000 140.582
59.32000 129.410
59.36000 146.062
59.40000 131.607
59.44000 126.802
59.48000 136.279
59.52000 133.169
59.56000 142.558
59.60000 138.127
59.64000 132.092
59.68000 125.839
59.72000 124.570
59.76000 132.093
59.80000 130.200
59.84000 138.284
59.88000 131.913
59.92000 134.609
59.96000 129.635
60.00000 129.394
60.04000 124.751
60.08000 136.432
60.12000 136.377
60.16000 129.432
60.20000 136.392
60.24000 136.801
60.28000 131.497
60.32000 131.275
60.36000 128.235
60.40000 131.927
60.44000 134.045
60.48000 134.390
60.52000 131.044
60.56000 138.727
60.60000 136.361
60.64000 137.440
60.68000 137.167
60.72000 129.448
60.76000 133.615
60.80000 132.868
60.84000 132.305
60.88000 133.448
60.92000 139.718
60.96000 136.082
61.00000 147.807
61.04000 137.841
61.08000 135.395
61.12000 130.912
61.16000 133.486
61.20000 138.429
61.24000 137.096
61.28000 128.193
61.32000 146.913
61.36000 132.994
61.40000 141.101
61.44000 149.325
61.48000 144.511
61.52000 157.087
61.56000 187.014
61.60000 240.407
61.64000 240.790
61.68000 255.798
61.72000 263.440
61.76000 243.471
61.80000 214.627
61.84000 171.009
61.88000 159.537
61.92000 140.775
61.96000 145.077
62.00000 135.437
62.04000 136.744
62.08000 141.668
62.12000 147.252
62.16000 142.196
62.20000 145.230
62.24000 146.543
62.28000 141.631
62.32000 146.011
62.36000 151.235
62.40000 145.624
62.44000 146.591
62.48000 139.577
62.52000 141.573
62.56000 135.140
62.60000 143.838
62.64000 141.325
62.68000 146.482
62.72000 137.512
62.76000 140.244
62.80000 133.007
62.84000 138.127
62.88000 135.298
62.92000 149.147
62.96000 148.813
63.00000 152.409
63.04000 147.700
63.08000 151.923
63.12000 141.793
63.16000 153.074
63.20000 145.394
63.24000 154.139
63.28000 135.644
63.32000 137.593
63.36000 160.413
63.40000 139.014
63.44000 143.648
63.48000 141.915
63.52000 144.159
63.56000 151.390
63.60000 159.823
63.64000 149.927
63.68000 144.650
63.72000 156.984
63.76000 154.424
63.80000 149.662
63.84000 154.012
63.88000 141.224
63.92000 155.950
63.96000 152.945
64.00000 152.444
64.04000 154.655
64.08000 151.027
64.12000 158.380
64.16000 164.085
64.20000 156.040
64.24000 151.223
64.28000 160.763
64.32000 163.730
64.36000 170.169
64.40000 166.397
64.44000 162.878
64.48000 163.355
64.52000 161.820
64.56000 159.140
64.60000 164.431
64.64000 170.413
64.68000 172.137
64.72000 172.294
64.76000 158.552
64.80000 166.952
64.84000 176.891
64.88000 188.057
64.92000 188.252
64.96000 175.964
65.00000 178.525
65.04000 183.757
65.08000 193.867
65.12000 198.424
65.16000 211.377
65.20000 217.788
65.24000 221.730
65.28000 248.315
65.32000 267.954
65.36000 284.025
65.40000 323.037
65.44000 331.537
65.48000 362.137
65.52000 390.059
65.56000 416.748
65.60000 424.092
65.64000 432.377
65.68000 479.560
65.72000 570.896
65.76000 690.850
65.80000 881.225
65.84000 964.341
65.88000 975.014
65.92000 946.414
65.96000 858.560
66.00000 614.271
66.04000 452.164
66.08000 348.201
66.12000 307.763
66.16000 290.832
66.20000 275.435
66.24000 279.923
66.28000 302.924
66.32000 356.921
66.36000 379.213
66.40000 402.771
66.44000 407.266
66.48000 402.596
66.52000 393.463
66.56000 348.191
66.60000 319.949
66.64000 301.821
66.68000 303.288
66.72000 313.684
66.76000 299.868
66.80000 299.437
66.84000 315.371
66.88000 317.915
66.92000 319.363
66.96000 326.836
67.00000 325.411
67.04000 320.003
67.08000 359.153
67.12000 335.318
67.16000 355.482
67.20000 339.857
67.24000 348.564
67.28000 374.459
67.32000 388.323
67.36000 383.016
67.40000 375.250
67.44000 384.440
67.48000 384.407
67.52000 407.191
67.56000 414.252
67.60000 417.744
67.64000 412.713
67.68000 436.669
67.72000 458.261
67.76000 451.990
67.80000 462.888
67.84000 465.689
67.88000 466.123
67.92000 471.044
67.96000 490.574
68.00000 499.083
68.04000 516.229
68.08000 516.793
68.12000 509.682
68.16000 541.497
68.20000 552.045
68.24000 600.743
68.28000 596.345
68.32000 605.517
68.36000 612.424
68.40000 638.556
68.44000 685.424
68.48000 718.676
68.52000 721.784
68.56000 764.548
68.60000 860.368
68.64000 1003.422
68.68000 1188.703
68.72000 1391.013
68.76000 1571.225
68.80000 1743.009
68.84000 2001.226
68.88000 2338.088
68.92000 3873.375
68.96000 8954.760
69.00000 23249.018
69.04000 40225.543
69.08000 50182.570
69.12000 51918.055
69.16000 53720.742
69.20000 54505.621
69.24000 47120.801
69.28000 36314.195
69.32000 29194.922
69.36000 26201.125
69.40000 22243.039
69.44000 14195.341
69.48000 6825.758
69.52000 2996.894
69.56000 1798.385
69.60000 1392.115
69.64000 1192.852
69.68000 1037.348
69.72000 938.463
69.76000 872.955
69.80000 799.623
69.84000 751.370
69.88000 732.291
69.92000 694.956
69.96000 683.182
70.00000 650.250