File: XRD/30-09-2025 Dep 1/XY Data/BTO_Mapping_Theta2Theta_30-09-2025_001_59_18-271_-8-135.xy
20.00000 551.255
20.04000 575.149
20.08000 581.203
20.12000 576.651
20.16000 575.640
20.20000 535.558
20.24000 551.572
20.28000 563.946
20.32000 563.213
20.36000 559.010
20.40000 585.145
20.44000 571.641
20.48000 581.397
20.52000 569.633
20.56000 557.901
20.60000 587.413
20.64000 547.808
20.68000 555.158
20.72000 554.232
20.76000 553.832
20.80000 563.137
20.84000 564.462
20.88000 546.757
20.92000 556.093
20.96000 565.999
21.00000 554.298
21.04000 566.449
21.08000 556.995
21.12000 558.047
21.16000 565.060
21.20000 563.957
21.24000 556.260
21.28000 551.485
21.32000 569.748
21.36000 539.167
21.40000 555.038
21.44000 558.313
21.48000 562.596
21.52000 561.571
21.56000 548.207
21.60000 551.144
21.64000 584.478
21.68000 590.130
21.72000 607.933
21.76000 641.702
21.80000 657.781
21.84000 714.047
21.88000 760.074
21.92000 792.729
21.96000 881.527
22.00000 869.478
22.04000 880.795
22.08000 848.246
22.12000 806.135
22.16000 748.974
22.20000 693.857
22.24000 624.225
22.28000 595.679
22.32000 583.829
22.36000 557.707
22.40000 563.409
22.44000 551.837
22.48000 550.830
22.52000 547.013
22.56000 530.055
22.60000 543.625
22.64000 540.213
22.68000 535.843
22.72000 528.313
22.76000 526.115
22.80000 532.813
22.84000 523.736
22.88000 520.190
22.92000 541.155
22.96000 512.939
23.00000 516.093
23.04000 515.186
23.08000 539.505
23.12000 528.273
23.16000 517.109
23.20000 519.261
23.24000 507.544
23.28000 526.572
23.32000 494.726
23.36000 493.587
23.40000 516.506
23.44000 494.991
23.48000 501.476
23.52000 508.331
23.56000 513.059
23.60000 517.757
23.64000 524.587
23.68000 497.044
23.72000 511.201
23.76000 496.538
23.80000 510.971
23.84000 525.587
23.88000 500.328
23.92000 517.952
23.96000 497.660
24.00000 533.825
24.04000 509.137
24.08000 510.573
24.12000 493.357
24.16000 494.643
24.20000 497.371
24.24000 492.085
24.28000 507.050
24.32000 495.014
24.36000 516.547
24.40000 483.611
24.44000 505.952
24.48000 512.343
24.52000 501.538
24.56000 483.341
24.60000 496.828
24.64000 489.476
24.68000 498.642
24.72000 476.622
24.76000 481.449
24.80000 491.658
24.84000 490.945
24.88000 479.039
24.92000 489.144
24.96000 485.852
25.00000 466.079
25.04000 495.950
25.08000 489.220
25.12000 472.963
25.16000 492.860
25.20000 472.978
25.24000 471.599
25.28000 491.253
25.32000 481.781
25.36000 467.153
25.40000 480.182
25.44000 471.533
25.48000 473.813
25.52000 475.331
25.56000 462.948
25.60000 476.413
25.64000 483.681
25.68000 479.368
25.72000 466.915
25.76000 471.293
25.80000 463.652
25.84000 466.641
25.88000 476.119
25.92000 463.446
25.96000 464.629
26.00000 464.703
26.04000 461.125
26.08000 472.611
26.12000 455.112
26.16000 470.992
26.20000 465.822
26.24000 460.223
26.28000 454.853
26.32000 470.443
26.36000 463.574
26.40000 481.706
26.44000 470.443
26.48000 452.262
26.52000 477.638
26.56000 443.221
26.60000 440.030
26.64000 447.476
26.68000 464.812
26.72000 466.545
26.76000 457.045
26.80000 450.109
26.84000 473.975
26.88000 451.092
26.92000 439.640
26.96000 452.497
27.00000 454.546
27.04000 469.540
27.08000 449.233
27.12000 448.760
27.16000 464.739
27.20000 445.212
27.24000 446.256
27.28000 453.216
27.32000 452.215
27.36000 451.954
27.40000 464.356
27.44000 452.311
27.48000 443.335
27.52000 456.147
27.56000 442.716
27.60000 430.913
27.64000 442.494
27.68000 459.640
27.72000 446.560
27.76000 433.455
27.80000 436.567
27.84000 433.115
27.88000 471.344
27.92000 445.022
27.96000 428.566
28.00000 442.886
28.04000 421.745
28.08000 451.360
28.12000 455.676
28.16000 444.277
28.20000 433.947
28.24000 432.537
28.28000 453.626
28.32000 427.632
28.36000 442.616
28.40000 448.776
28.44000 435.058
28.48000 444.047
28.52000 434.288
28.56000 441.297
28.60000 402.718
28.64000 432.077
28.68000 440.161
28.72000 434.479
28.76000 443.103
28.80000 418.910
28.84000 440.306
28.88000 406.277
28.92000 432.168
28.96000 428.783
29.00000 426.145
29.04000 437.795
29.08000 422.443
29.12000 443.636
29.16000 415.795
29.20000 430.009
29.24000 416.314
29.28000 412.238
29.32000 431.370
29.36000 434.511
29.40000 422.275
29.44000 428.595
29.48000 432.912
29.52000 425.037
29.56000 445.231
29.60000 449.041
29.64000 431.429
29.68000 443.280
29.72000 439.829
29.76000 426.817
29.80000 435.065
29.84000 467.499
29.88000 458.879
29.92000 480.397
29.96000 469.769
30.00000 465.313
30.04000 458.022
30.08000 476.196
30.12000 454.231
30.16000 445.813
30.20000 446.696
30.24000 454.632
30.28000 452.473
30.32000 434.416
30.36000 437.690
30.40000 452.120
30.44000 426.668
30.48000 449.733
30.52000 446.937
30.56000 452.121
30.60000 439.882
30.64000 445.118
30.68000 458.512
30.72000 483.319
30.76000 475.352
30.80000 496.284
30.84000 504.148
30.88000 504.673
30.92000 543.814
30.96000 577.678
31.00000 656.067
31.04000 795.518
31.08000 982.877
31.12000 1311.736
31.16000 1814.936
31.20000 2425.299
31.24000 3120.261
31.28000 3733.874
31.32000 4103.260
31.36000 4158.169
31.40000 3954.781
31.44000 3426.840
31.48000 2741.541
31.52000 2043.699
31.56000 1456.078
31.60000 1013.867
31.64000 763.712
31.68000 635.438
31.72000 566.528
31.76000 508.138
31.80000 494.735
31.84000 468.809
31.88000 457.581
31.92000 425.951
31.96000 439.661
32.00000 445.351
32.04000 434.013
32.08000 437.837
32.12000 419.213
32.16000 418.092
32.20000 417.207
32.24000 401.149
32.28000 406.844
32.32000 429.846
32.36000 402.841
32.40000 417.453
32.44000 408.942
32.48000 384.313
32.52000 392.704
32.56000 383.681
32.60000 376.905
32.64000 364.094
32.68000 378.342
32.72000 380.634
32.76000 389.090
32.80000 393.064
32.84000 410.019
32.88000 436.162
32.92000 475.216
32.96000 479.689
33.00000 498.788
33.04000 486.283
33.08000 451.195
33.12000 437.759
33.16000 395.630
33.20000 364.597
33.24000 343.456
33.28000 348.602
33.32000 344.313
33.36000 356.189
33.40000 353.644
33.44000 356.606
33.48000 354.121
33.52000 360.315
33.56000 344.217
33.60000 351.135
33.64000 350.360
33.68000 349.815
33.72000 342.306
33.76000 333.733
33.80000 337.283
33.84000 354.231
33.88000 353.900
33.92000 340.416
33.96000 347.091
34.00000 338.704
34.04000 335.782
34.08000 332.869
34.12000 325.153
34.16000 341.237
34.20000 346.380
34.24000 337.434
34.28000 332.013
34.32000 335.616
34.36000 345.282
34.40000 331.953
34.44000 329.251
34.48000 337.619
34.52000 333.994
34.56000 328.062
34.60000 357.608
34.64000 335.995
34.68000 320.135
34.72000 325.577
34.76000 328.373
34.80000 336.900
34.84000 346.683
34.88000 321.864
34.92000 335.964
34.96000 315.301
35.00000 327.516
35.04000 334.842
35.08000 326.085
35.12000 322.007
35.16000 305.795
35.20000 305.263
35.24000 318.676
35.28000 312.169
35.32000 300.395
35.36000 332.163
35.40000 332.962
35.44000 325.801
35.48000 325.929
35.52000 310.896
35.56000 300.360
35.60000 312.738
35.64000 315.761
35.68000 303.333
35.72000 313.308
35.76000 325.268
35.80000 322.310
35.84000 311.999
35.88000 308.465
35.92000 309.506
35.96000 303.185
36.00000 312.261
36.04000 307.651
36.08000 314.363
36.12000 323.314
36.16000 303.726
36.20000 304.221
36.24000 310.406
36.28000 295.908
36.32000 303.182
36.36000 308.626
36.40000 311.175
36.44000 319.673
36.48000 309.364
36.52000 307.630
36.56000 291.629
36.60000 293.605
36.64000 292.376
36.68000 314.348
36.72000 319.939
36.76000 294.616
36.80000 307.867
36.84000 309.330
36.88000 304.824
36.92000 300.228
36.96000 298.776
37.00000 307.791
37.04000 314.028
37.08000 289.753
37.12000 308.831
37.16000 314.052
37.20000 301.989
37.24000 303.271
37.28000 303.212
37.32000 299.734
37.36000 293.734
37.40000 312.140
37.44000 292.515
37.48000 287.141
37.52000 302.460
37.56000 296.838
37.60000 296.702
37.64000 289.084
37.68000 296.386
37.72000 283.310
37.76000 304.156
37.80000 300.574
37.84000 299.946
37.88000 290.640
37.92000 299.403
37.96000 300.954
38.00000 294.128
38.04000 293.878
38.08000 296.831
38.12000 316.724
38.16000 292.117
38.20000 296.741
38.24000 300.703
38.28000 304.497
38.32000 321.395
38.36000 353.809
38.40000 343.429
38.44000 396.522
38.48000 438.214
38.52000 478.411
38.56000 569.289
38.60000 603.515
38.64000 671.904
38.68000 713.889
38.72000 697.116
38.76000 641.239
38.80000 568.701
38.84000 523.025
38.88000 445.872
38.92000 402.004
38.96000 370.142
39.00000 342.582
39.04000 326.381
39.08000 296.866
39.12000 277.370
39.16000 293.687
39.20000 275.109
39.24000 295.231
39.28000 278.993
39.32000 277.548
39.36000 285.563
39.40000 278.091
39.44000 275.193
39.48000 269.105
39.52000 286.935
39.56000 261.233
39.60000 269.662
39.64000 262.546
39.68000 274.844
39.72000 271.322
39.76000 263.687
39.80000 270.452
39.84000 272.064
39.88000 263.819
39.92000 261.427
39.96000 261.866
40.00000 277.911
40.04000 269.293
40.08000 265.604
40.12000 268.149
40.16000 268.624
40.20000 255.277
40.24000 266.263
40.28000 259.547
40.32000 267.490
40.36000 260.465
40.40000 256.338
40.44000 268.698
40.48000 252.537
40.52000 255.883
40.56000 260.137
40.60000 261.714
40.64000 253.728
40.68000 257.104
40.72000 238.374
40.76000 254.434
40.80000 249.007
40.84000 257.921
40.88000 251.911
40.92000 242.020
40.96000 247.229
41.00000 238.829
41.04000 254.447
41.08000 249.033
41.12000 231.909
41.16000 260.527
41.20000 256.274
41.24000 245.439
41.28000 253.453
41.32000 246.997
41.36000 244.829
41.40000 249.907
41.44000 255.225
41.48000 251.515
41.52000 256.938
41.56000 240.602
41.60000 237.908
41.64000 245.716
41.68000 246.317
41.72000 247.998
41.76000 242.841
41.80000 231.910
41.84000 226.608
41.88000 238.497
41.92000 245.405
41.96000 243.472
42.00000 233.005
42.04000 237.723
42.08000 242.978
42.12000 240.804
42.16000 227.269
42.20000 241.146
42.24000 245.024
42.28000 255.099
42.32000 233.007
42.36000 232.140
42.40000 232.807
42.44000 241.262
42.48000 233.173
42.52000 240.748
42.56000 232.449
42.60000 225.760
42.64000 233.800
42.68000 234.820
42.72000 217.734
42.76000 227.581
42.80000 235.484
42.84000 235.740
42.88000 231.932
42.92000 227.676
42.96000 227.157
43.00000 244.931
43.04000 232.158
43.08000 239.528
43.12000 232.738
43.16000 229.849
43.20000 216.047
43.24000 223.331
43.28000 233.949
43.32000 236.198
43.36000 230.452
43.40000 225.256
43.44000 241.024
43.48000 226.538
43.52000 233.868
43.56000 228.864
43.60000 227.741
43.64000 219.439
43.68000 221.843
43.72000 236.557
43.76000 226.161
43.80000 226.597
43.84000 212.793
43.88000 235.489
43.92000 212.121
43.96000 239.263
44.00000 226.055
44.04000 229.970
44.08000 217.816
44.12000 238.455
44.16000 243.784
44.20000 221.590
44.24000 233.804
44.28000 221.513
44.32000 223.973
44.36000 240.285
44.40000 230.927
44.44000 235.348
44.48000 224.537
44.52000 241.990
44.56000 241.395
44.60000 257.440
44.64000 274.174
44.68000 279.239
44.72000 294.262
44.76000 317.860
44.80000 346.437
44.84000 396.356
44.88000 432.094
44.92000 476.663
44.96000 500.717
45.00000 515.609
45.04000 506.411
45.08000 526.152
45.12000 476.934
45.16000 421.740
45.20000 395.194
45.24000 355.785
45.28000 309.173
45.32000 292.872
45.36000 278.370
45.40000 264.545
45.44000 240.785
45.48000 234.227
45.52000 245.261
45.56000 241.233
45.60000 232.827
45.64000 235.983
45.68000 225.247
45.72000 217.122
45.76000 215.647
45.80000 218.754
45.84000 227.088
45.88000 226.723
45.92000 196.929
45.96000 212.709
46.00000 210.362
46.04000 210.893
46.08000 194.630
46.12000 208.028
46.16000 217.872
46.20000 201.474
46.24000 202.990
46.28000 204.846
46.32000 211.090
46.36000 214.035
46.40000 214.844
46.44000 203.406
46.48000 214.719
46.52000 207.450
46.56000 196.715
46.60000 211.422
46.64000 200.672
46.68000 198.191
46.72000 207.538
46.76000 206.000
46.80000 199.563
46.84000 196.478
46.88000 202.334
46.92000 212.288
46.96000 197.533
47.00000 203.591
47.04000 197.877
47.08000 203.854
47.12000 202.356
47.16000 189.473
47.20000 199.231
47.24000 192.376
47.28000 190.614
47.32000 186.606
47.36000 193.822
47.40000 198.916
47.44000 186.562
47.48000 199.797
47.52000 190.598
47.56000 190.223
47.60000 195.542
47.64000 196.773
47.68000 194.032
47.72000 187.411
47.76000 194.238
47.80000 187.137
47.84000 199.711
47.88000 195.776
47.92000 195.963
47.96000 192.474
48.00000 177.985
48.04000 200.763
48.08000 187.983
48.12000 187.541
48.16000 175.799
48.20000 180.348
48.24000 185.460
48.28000 184.201
48.32000 186.609
48.36000 202.826
48.40000 177.828
48.44000 183.465
48.48000 188.298
48.52000 193.456
48.56000 178.843
48.60000 174.074
48.64000 177.700
48.68000 187.198
48.72000 181.938
48.76000 190.239
48.80000 194.453
48.84000 176.055
48.88000 180.227
48.92000 176.835
48.96000 176.468
49.00000 188.622
49.04000 173.962
49.08000 190.097
49.12000 166.228
49.16000 193.389
49.20000 184.960
49.24000 186.448
49.28000 182.829
49.32000 170.022
49.36000 179.513
49.40000 184.198
49.44000 171.870
49.48000 179.588
49.52000 183.804
49.56000 186.868
49.60000 174.540
49.64000 180.574
49.68000 192.477
49.72000 172.813
49.76000 174.602
49.80000 184.168
49.84000 175.039
49.88000 172.467
49.92000 194.452
49.96000 180.526
50.00000 182.775
50.04000 177.008
50.08000 181.285
50.12000 174.831
50.16000 190.641
50.20000 189.343
50.24000 184.785
50.28000 196.182
50.32000 186.513
50.36000 208.733
50.40000 214.198
50.44000 240.432
50.48000 243.726
50.52000 269.077
50.56000 273.116
50.60000 292.012
50.64000 300.596
50.68000 274.597
50.72000 288.411
50.76000 279.636
50.80000 250.843
50.84000 239.961
50.88000 229.524
50.92000 217.530
50.96000 204.751
51.00000 188.326
51.04000 194.320
51.08000 175.283
51.12000 178.122
51.16000 179.703
51.20000 168.499
51.24000 182.698
51.28000 176.065
51.32000 174.581
51.36000 182.255
51.40000 171.070
51.44000 167.245
51.48000 163.368
51.52000 178.650
51.56000 166.996
51.60000 177.504
51.64000 165.411
51.68000 164.922
51.72000 174.148
51.76000 162.917
51.80000 164.912
51.84000 165.033
51.88000 157.421
51.92000 164.852
51.96000 169.034
52.00000 162.295
52.04000 166.600
52.08000 153.864
52.12000 169.879
52.16000 154.876
52.20000 146.698
52.24000 159.926
52.28000 155.834
52.32000 160.526
52.36000 169.299
52.40000 155.701
52.44000 158.870
52.48000 164.598
52.52000 160.604
52.56000 163.895
52.60000 156.630
52.64000 154.212
52.68000 157.410
52.72000 166.559
52.76000 162.956
52.80000 166.687
52.84000 169.629
52.88000 165.182
52.92000 173.422
52.96000 156.085
53.00000 173.733
53.04000 164.325
53.08000 171.922
53.12000 157.597
53.16000 165.760
53.20000 157.115
53.24000 160.236
53.28000 156.200
53.32000 153.863
53.36000 174.559
53.40000 175.131
53.44000 158.130
53.48000 167.604
53.52000 160.297
53.56000 158.374
53.60000 170.525
53.64000 150.829
53.68000 156.801
53.72000 162.352
53.76000 161.998
53.80000 152.940
53.84000 161.835
53.88000 158.092
53.92000 152.990
53.96000 152.842
54.00000 168.293
54.04000 163.057
54.08000 158.309
54.12000 155.167
54.16000 157.829
54.20000 167.715
54.24000 151.563
54.28000 155.702
54.32000 146.459
54.36000 150.386
54.40000 154.201
54.44000 149.379
54.48000 152.025
54.52000 156.261
54.56000 155.428
54.60000 157.425
54.64000 156.856
54.68000 154.996
54.72000 161.511
54.76000 156.405
54.80000 143.733
54.84000 156.440
54.88000 148.425
54.92000 149.213
54.96000 158.481
55.00000 166.852
55.04000 170.042
55.08000 168.239
55.12000 160.673
55.16000 168.604
55.20000 157.621
55.24000 176.765
55.28000 182.635
55.32000 172.633
55.36000 167.715
55.40000 175.826
55.44000 206.355
55.48000 219.556
55.52000 218.397
55.56000 243.346
55.60000 295.707
55.64000 324.067
55.68000 376.170
55.72000 460.243
55.76000 527.878
55.80000 603.957
55.84000 638.776
55.88000 696.272
55.92000 691.067
55.96000 639.341
56.00000 604.717
56.04000 547.435
56.08000 449.030
56.12000 379.840
56.16000 320.374
56.20000 281.735
56.24000 234.206
56.28000 210.246
56.32000 197.689
56.36000 200.158
56.40000 175.304
56.44000 167.929
56.48000 170.801
56.52000 163.798
56.56000 159.540
56.60000 162.459
56.64000 157.797
56.68000 165.155
56.72000 156.668
56.76000 159.791
56.80000 147.004
56.84000 142.722
56.88000 149.734
56.92000 135.613
56.96000 150.964
57.00000 154.463
57.04000 154.901
57.08000 149.311
57.12000 144.303
57.16000 156.018
57.20000 147.095
57.24000 147.439
57.28000 150.893
57.32000 145.847
57.36000 136.792
57.40000 142.965
57.44000 147.815
57.48000 154.050
57.52000 145.511
57.56000 148.543
57.60000 138.367
57.64000 147.736
57.68000 149.164
57.72000 148.607
57.76000 151.009
57.80000 148.562
57.84000 143.604
57.88000 143.638
57.92000 144.343
57.96000 149.764
58.00000 134.184
58.04000 139.227
58.08000 139.245
58.12000 133.891
58.16000 140.630
58.20000 154.956
58.24000 145.466
58.28000 146.653
58.32000 143.544
58.36000 145.541
58.40000 132.216
58.44000 139.257
58.48000 144.954
58.52000 133.850
58.56000 137.800
58.60000 141.929
58.64000 137.392
58.68000 128.791
58.72000 135.671
58.76000 134.589
58.80000 143.352
58.84000 132.395
58.88000 134.395
58.92000 141.040
58.96000 143.333
59.00000 147.452
59.04000 142.951
59.08000 134.762
59.12000 135.991
59.16000 134.847
59.20000 146.046
59.24000 149.281
59.28000 134.287
59.32000 125.482
59.36000 135.068
59.40000 132.404
59.44000 135.926
59.48000 138.550
59.52000 131.897
59.56000 133.692
59.60000 134.646
59.64000 145.385
59.68000 139.862
59.72000 138.809
59.76000 123.764
59.80000 140.140
59.84000 129.606
59.88000 143.607
59.92000 132.572
59.96000 147.585
60.00000 133.854
60.04000 131.951
60.08000 127.331
60.12000 136.700
60.16000 133.559
60.20000 136.414
60.24000 142.296
60.28000 126.136
60.32000 139.541
60.36000 136.804
60.40000 135.410
60.44000 131.726
60.48000 140.893
60.52000 128.686
60.56000 134.286
60.60000 130.528
60.64000 128.707
60.68000 134.232
60.72000 134.285
60.76000 140.333
60.80000 137.904
60.84000 139.615
60.88000 142.307
60.92000 133.230
60.96000 138.004
61.00000 147.089
61.04000 124.674
61.08000 138.746
61.12000 144.268
61.16000 149.618
61.20000 139.311
61.24000 135.001
61.28000 145.513
61.32000 140.381
61.36000 141.203
61.40000 134.850
61.44000 137.054
61.48000 158.777
61.52000 182.052
61.56000 234.289
61.60000 279.280
61.64000 327.353
61.68000 320.668
61.72000 337.593
61.76000 307.122
61.80000 236.005
61.84000 191.043
61.88000 159.140
61.92000 153.268
61.96000 136.890
62.00000 135.074
62.04000 151.190
62.08000 143.997
62.12000 150.143
62.16000 136.714
62.20000 148.600
62.24000 136.263
62.28000 134.005
62.32000 150.512
62.36000 135.631
62.40000 135.776
62.44000 138.650
62.48000 141.022
62.52000 150.180
62.56000 144.867
62.60000 142.423
62.64000 157.782
62.68000 147.244
62.72000 138.548
62.76000 137.823
62.80000 149.617
62.84000 143.686
62.88000 137.682
62.92000 150.481
62.96000 148.095
63.00000 154.732
63.04000 146.901
63.08000 138.893
63.12000 153.121
63.16000 156.878
63.20000 146.611
63.24000 143.138
63.28000 154.325
63.32000 163.783
63.36000 147.254
63.40000 146.875
63.44000 150.372
63.48000 143.876
63.52000 156.149
63.56000 153.240
63.60000 166.572
63.64000 155.474
63.68000 163.538
63.72000 152.875
63.76000 151.699
63.80000 158.624
63.84000 170.944
63.88000 150.734
63.92000 155.573
63.96000 157.674
64.00000 162.463
64.04000 159.897
64.08000 153.822
64.12000 161.664
64.16000 160.304
64.20000 155.331
64.24000 160.682
64.28000 163.209
64.32000 161.196
64.36000 169.793
64.40000 161.994
64.44000 174.795
64.48000 169.075
64.52000 172.348
64.56000 174.087
64.60000 182.363
64.64000 172.844
64.68000 188.318
64.72000 180.500
64.76000 184.104
64.80000 177.759
64.84000 190.170
64.88000 181.277
64.92000 189.103
64.96000 207.090
65.00000 212.353
65.04000 227.342
65.08000 216.986
65.12000 223.422
65.16000 258.490
65.20000 267.642
65.24000 283.530
65.28000 314.783
65.32000 345.553
65.36000 375.472
65.40000 416.300
65.44000 423.743
65.48000 466.628
65.52000 470.132
65.56000 493.751
65.60000 502.148
65.64000 520.477
65.68000 589.961
65.72000 797.103
65.76000 1060.385
65.80000 1257.277
65.84000 1365.134
65.88000 1387.477
65.92000 1301.207
65.96000 1063.385
66.00000 735.288
66.04000 465.266
66.08000 383.032
66.12000 330.835
66.16000 331.942
66.20000 319.768
66.24000 345.600
66.28000 386.913
66.32000 453.793
66.36000 489.554
66.40000 517.327
66.44000 507.280
66.48000 524.429
66.52000 451.133
66.56000 393.353
66.60000 350.771
66.64000 344.481
66.68000 344.377
66.72000 337.637
66.76000 339.348
66.80000 345.367
66.84000 346.663
66.88000 375.865
66.92000 362.861
66.96000 355.356
67.00000 377.256
67.04000 375.332
67.08000 386.777
67.12000 384.826
67.16000 390.886
67.20000 411.222
67.24000 393.039
67.28000 418.392
67.32000 408.926
67.36000 430.445
67.40000 440.432
67.44000 450.496
67.48000 465.516
67.52000 447.337
67.56000 475.754
67.60000 482.789
67.64000 510.501
67.68000 496.200
67.72000 510.111
67.76000 541.719
67.80000 539.046
67.84000 548.979
67.88000 557.046
67.92000 554.863
67.96000 594.766
68.00000 605.843
68.04000 587.001
68.08000 602.444
68.12000 613.539
68.16000 635.162
68.20000 652.642
68.24000 698.266
68.28000 691.339
68.32000 726.489
68.36000 750.537
68.40000 802.585
68.44000 830.573
68.48000 882.596
68.52000 922.794
68.56000 1040.163
68.60000 1176.635
68.64000 1364.513
68.68000 1661.945
68.72000 1919.207
68.76000 2194.625
68.80000 2478.996
68.84000 2949.928
68.88000 3880.801
68.92000 8400.230
68.96000 20639.027
69.00000 44746.090
69.04000 67234.445
69.08000 77399.086
69.12000 79946.820
69.16000 82942.445
69.20000 80085.188
69.24000 66115.836
69.28000 51012.836
69.32000 42784.254
69.36000 38076.242
69.40000 29972.754
69.44000 17346.947
69.48000 7815.650
69.52000 3569.362
69.56000 2232.141
69.60000 1727.917
69.64000 1455.722
69.68000 1273.368
69.72000 1139.441
69.76000 1078.630
69.80000 995.964
69.84000 895.015
69.88000 884.018
69.92000 854.915
69.96000 805.396
70.00000 787.288