File: XRD/30-09-2025 Dep 1/XY Data/BTO_Mapping_Theta2Theta_30-09-2025_001_44_-15-000_-25-981.xy
20.00000 557.560
20.04000 569.584
20.08000 548.120
20.12000 599.150
20.16000 572.326
20.20000 596.193
20.24000 570.168
20.28000 566.251
20.32000 551.683
20.36000 571.605
20.40000 562.073
20.44000 585.158
20.48000 565.283
20.52000 553.451
20.56000 551.390
20.60000 569.261
20.64000 545.739
20.68000 562.109
20.72000 552.848
20.76000 551.198
20.80000 558.753
20.84000 559.265
20.88000 551.947
20.92000 567.580
20.96000 537.599
21.00000 541.867
21.04000 558.905
21.08000 568.819
21.12000 584.992
21.16000 557.310
21.20000 556.271
21.24000 568.776
21.28000 537.270
21.32000 562.459
21.36000 547.724
21.40000 554.196
21.44000 558.641
21.48000 548.258
21.52000 558.841
21.56000 557.112
21.60000 567.858
21.64000 568.895
21.68000 584.658
21.72000 604.452
21.76000 627.329
21.80000 660.017
21.84000 707.747
21.88000 752.785
21.92000 777.782
21.96000 885.103
22.00000 924.907
22.04000 916.059
22.08000 916.524
22.12000 858.803
22.16000 785.921
22.20000 693.255
22.24000 635.126
22.28000 603.278
22.32000 582.534
22.36000 557.408
22.40000 546.217
22.44000 544.293
22.48000 524.236
22.52000 547.596
22.56000 563.140
22.60000 543.158
22.64000 541.200
22.68000 520.780
22.72000 543.660
22.76000 517.366
22.80000 541.654
22.84000 526.977
22.88000 506.613
22.92000 523.027
22.96000 531.982
23.00000 502.041
23.04000 517.741
23.08000 527.338
23.12000 516.002
23.16000 530.901
23.20000 537.149
23.24000 499.570
23.28000 512.569
23.32000 523.829
23.36000 525.658
23.40000 513.283
23.44000 539.786
23.48000 522.006
23.52000 522.441
23.56000 502.094
23.60000 488.270
23.64000 508.771
23.68000 493.063
23.72000 493.808
23.76000 502.721
23.80000 499.154
23.84000 529.847
23.88000 512.759
23.92000 508.614
23.96000 486.016
24.00000 501.424
24.04000 500.537
24.08000 503.338
24.12000 517.489
24.16000 501.522
24.20000 497.218
24.24000 492.935
24.28000 488.060
24.32000 497.490
24.36000 492.098
24.40000 521.875
24.44000 513.789
24.48000 504.962
24.52000 494.907
24.56000 484.368
24.60000 518.310
24.64000 510.654
24.68000 499.775
24.72000 492.416
24.76000 490.415
24.80000 484.987
24.84000 491.727
24.88000 479.894
24.92000 505.514
24.96000 479.297
25.00000 455.019
25.04000 490.485
25.08000 462.646
25.12000 482.510
25.16000 496.324
25.20000 483.941
25.24000 491.159
25.28000 489.788
25.32000 469.407
25.36000 475.748
25.40000 487.902
25.44000 486.071
25.48000 490.375
25.52000 485.419
25.56000 472.006
25.60000 474.002
25.64000 479.729
25.68000 482.172
25.72000 482.869
25.76000 484.676
25.80000 481.160
25.84000 477.717
25.88000 473.642
25.92000 475.849
25.96000 467.227
26.00000 471.035
26.04000 462.174
26.08000 462.695
26.12000 450.411
26.16000 477.091
26.20000 442.333
26.24000 475.184
26.28000 464.363
26.32000 474.974
26.36000 472.625
26.40000 464.091
26.44000 458.246
26.48000 481.007
26.52000 462.568
26.56000 452.192
26.60000 442.350
26.64000 438.534
26.68000 454.707
26.72000 448.296
26.76000 475.484
26.80000 473.755
26.84000 458.422
26.88000 476.851
26.92000 453.358
26.96000 466.278
27.00000 440.348
27.04000 453.109
27.08000 453.954
27.12000 448.180
27.16000 448.224
27.20000 454.855
27.24000 473.477
27.28000 445.338
27.32000 448.175
27.36000 433.553
27.40000 467.967
27.44000 436.626
27.48000 439.053
27.52000 455.887
27.56000 455.100
27.60000 431.006
27.64000 435.379
27.68000 453.153
27.72000 445.894
27.76000 427.700
27.80000 455.440
27.84000 446.112
27.88000 436.838
27.92000 439.590
27.96000 457.820
28.00000 436.221
28.04000 417.769
28.08000 440.419
28.12000 418.851
28.16000 452.248
28.20000 447.005
28.24000 440.541
28.28000 444.900
28.32000 450.910
28.36000 443.256
28.40000 435.373
28.44000 419.608
28.48000 438.440
28.52000 437.411
28.56000 435.299
28.60000 448.388
28.64000 440.153
28.68000 424.378
28.72000 430.511
28.76000 420.897
28.80000 421.215
28.84000 419.949
28.88000 433.081
28.92000 416.823
28.96000 417.910
29.00000 436.529
29.04000 423.106
29.08000 432.829
29.12000 442.614
29.16000 438.494
29.20000 426.533
29.24000 428.873
29.28000 425.047
29.32000 433.628
29.36000 441.799
29.40000 426.066
29.44000 423.812
29.48000 426.200
29.52000 400.452
29.56000 427.454
29.60000 415.279
29.64000 430.885
29.68000 455.823
29.72000 426.422
29.76000 432.011
29.80000 441.291
29.84000 437.612
29.88000 439.471
29.92000 461.165
29.96000 456.583
30.00000 462.575
30.04000 490.651
30.08000 462.465
30.12000 466.668
30.16000 450.782
30.20000 466.279
30.24000 441.889
30.28000 451.687
30.32000 450.993
30.36000 436.295
30.40000 429.891
30.44000 442.102
30.48000 452.183
30.52000 461.300
30.56000 445.882
30.60000 459.346
30.64000 453.846
30.68000 464.368
30.72000 471.731
30.76000 495.085
30.80000 477.513
30.84000 506.680
30.88000 514.557
30.92000 529.797
30.96000 563.940
31.00000 628.115
31.04000 745.794
31.08000 920.166
31.12000 1241.706
31.16000 1637.227
31.20000 2286.107
31.24000 2934.332
31.28000 3601.917
31.32000 3985.247
31.36000 4177.449
31.40000 4012.491
31.44000 3485.231
31.48000 2853.388
31.52000 2129.293
31.56000 1518.069
31.60000 1083.299
31.64000 799.008
31.68000 671.393
31.72000 568.437
31.76000 529.683
31.80000 494.730
31.84000 471.186
31.88000 443.075
31.92000 422.777
31.96000 445.748
32.00000 428.173
32.04000 420.141
32.08000 436.523
32.12000 408.213
32.16000 418.796
32.20000 406.126
32.24000 404.814
32.28000 414.516
32.32000 385.466
32.36000 408.831
32.40000 395.369
32.44000 381.726
32.48000 398.288
32.52000 411.053
32.56000 398.733
32.60000 381.070
32.64000 371.611
32.68000 380.683
32.72000 382.687
32.76000 381.394
32.80000 380.578
32.84000 379.971
32.88000 400.095
32.92000 418.587
32.96000 488.614
33.00000 487.075
33.04000 476.198
33.08000 479.740
33.12000 445.810
33.16000 424.485
33.20000 398.427
33.24000 393.353
33.28000 372.513
33.32000 352.776
33.36000 356.882
33.40000 360.321
33.44000 346.823
33.48000 340.722
33.52000 353.306
33.56000 364.704
33.60000 361.253
33.64000 366.710
33.68000 342.336
33.72000 348.467
33.76000 340.645
33.80000 362.582
33.84000 341.882
33.88000 340.902
33.92000 352.375
33.96000 332.500
34.00000 356.391
34.04000 348.354
34.08000 337.734
34.12000 342.219
34.16000 350.487
34.20000 344.278
34.24000 345.157
34.28000 345.097
34.32000 339.545
34.36000 316.899
34.40000 334.257
34.44000 334.151
34.48000 346.417
34.52000 330.141
34.56000 336.439
34.60000 324.997
34.64000 338.938
34.68000 330.534
34.72000 326.337
34.76000 325.178
34.80000 309.490
34.84000 316.721
34.88000 328.683
34.92000 325.338
34.96000 331.522
35.00000 321.707
35.04000 312.504
35.08000 325.137
35.12000 319.513
35.16000 324.579
35.20000 315.449
35.24000 309.889
35.28000 326.676
35.32000 327.977
35.36000 334.964
35.40000 321.212
35.44000 317.544
35.48000 308.865
35.52000 322.371
35.56000 307.823
35.60000 318.345
35.64000 321.555
35.68000 339.025
35.72000 313.028
35.76000 313.765
35.80000 301.180
35.84000 327.457
35.88000 321.342
35.92000 324.110
35.96000 316.967
36.00000 308.812
36.04000 309.240
36.08000 298.321
36.12000 314.593
36.16000 308.988
36.20000 303.002
36.24000 305.381
36.28000 309.539
36.32000 301.692
36.36000 299.073
36.40000 304.221
36.44000 310.131
36.48000 298.183
36.52000 301.136
36.56000 311.807
36.60000 322.918
36.64000 314.797
36.68000 328.380
36.72000 310.571
36.76000 311.485
36.80000 304.784
36.84000 314.775
36.88000 301.924
36.92000 306.480
36.96000 304.792
37.00000 304.923
37.04000 300.708
37.08000 310.658
37.12000 297.960
37.16000 311.648
37.20000 327.635
37.24000 305.426
37.28000 295.560
37.32000 298.766
37.36000 302.493
37.40000 294.831
37.44000 304.407
37.48000 302.746
37.52000 292.787
37.56000 324.672
37.60000 311.377
37.64000 306.392
37.68000 300.040
37.72000 292.033
37.76000 299.370
37.80000 306.416
37.84000 297.271
37.88000 296.321
37.92000 291.616
37.96000 309.352
38.00000 303.556
38.04000 300.523
38.08000 312.359
38.12000 299.439
38.16000 289.745
38.20000 306.954
38.24000 320.379
38.28000 299.463
38.32000 332.850
38.36000 346.585
38.40000 355.564
38.44000 361.033
38.48000 412.346
38.52000 433.538
38.56000 498.531
38.60000 548.867
38.64000 556.650
38.68000 602.332
38.72000 637.611
38.76000 573.677
38.80000 515.971
38.84000 472.371
38.88000 422.668
38.92000 383.229
38.96000 327.808
39.00000 333.306
39.04000 320.642
39.08000 317.060
39.12000 289.506
39.16000 294.211
39.20000 290.648
39.24000 281.117
39.28000 295.021
39.32000 293.391
39.36000 276.069
39.40000 265.049
39.44000 270.025
39.48000 276.702
39.52000 274.729
39.56000 271.083
39.60000 270.281
39.64000 265.738
39.68000 283.017
39.72000 270.908
39.76000 270.001
39.80000 263.228
39.84000 283.376
39.88000 275.472
39.92000 267.531
39.96000 264.566
40.00000 271.144
40.04000 270.763
40.08000 264.301
40.12000 252.041
40.16000 256.815
40.20000 253.879
40.24000 263.125
40.28000 253.495
40.32000 261.441
40.36000 263.078
40.40000 255.530
40.44000 244.881
40.48000 248.997
40.52000 249.647
40.56000 254.539
40.60000 251.103
40.64000 246.894
40.68000 272.363
40.72000 248.132
40.76000 245.889
40.80000 269.240
40.84000 260.100
40.88000 249.621
40.92000 259.321
40.96000 264.101
41.00000 258.825
41.04000 266.676
41.08000 257.045
41.12000 249.033
41.16000 251.830
41.20000 249.736
41.24000 258.242
41.28000 253.575
41.32000 249.754
41.36000 250.479
41.40000 251.484
41.44000 262.343
41.48000 237.060
41.52000 243.756
41.56000 245.927
41.60000 236.622
41.64000 256.345
41.68000 241.452
41.72000 261.053
41.76000 250.403
41.80000 237.769
41.84000 238.024
41.88000 249.170
41.92000 245.627
41.96000 243.016
42.00000 229.384
42.04000 241.523
42.08000 232.512
42.12000 245.445
42.16000 248.657
42.20000 243.804
42.24000 253.136
42.28000 249.376
42.32000 241.723
42.36000 237.683
42.40000 234.188
42.44000 225.796
42.48000 260.175
42.52000 242.515
42.56000 223.182
42.60000 229.957
42.64000 241.417
42.68000 238.081
42.72000 231.104
42.76000 230.154
42.80000 237.377
42.84000 234.104
42.88000 224.160
42.92000 234.286
42.96000 240.062
43.00000 231.203
43.04000 227.758
43.08000 242.862
43.12000 227.559
43.16000 223.356
43.20000 231.414
43.24000 240.789
43.28000 238.169
43.32000 242.282
43.36000 233.561
43.40000 229.565
43.44000 227.586
43.48000 217.282
43.52000 234.381
43.56000 230.131
43.60000 216.637
43.64000 229.163
43.68000 222.300
43.72000 235.998
43.76000 229.446
43.80000 234.440
43.84000 226.641
43.88000 238.091
43.92000 245.948
43.96000 239.264
44.00000 225.049
44.04000 225.642
44.08000 226.905
44.12000 233.744
44.16000 221.608
44.20000 218.817
44.24000 227.282
44.28000 219.493
44.32000 237.344
44.36000 225.880
44.40000 234.287
44.44000 229.240
44.48000 236.788
44.52000 242.254
44.56000 239.311
44.60000 252.514
44.64000 247.375
44.68000 266.638
44.72000 296.716
44.76000 311.340
44.80000 365.207
44.84000 412.390
44.88000 472.895
44.92000 490.454
44.96000 517.078
45.00000 548.649
45.04000 562.230
45.08000 512.526
45.12000 485.362
45.16000 441.574
45.20000 407.803
45.24000 361.064
45.28000 315.556
45.32000 303.589
45.36000 273.136
45.40000 258.850
45.44000 265.495
45.48000 254.752
45.52000 240.777
45.56000 243.391
45.60000 234.942
45.64000 232.839
45.68000 225.472
45.72000 226.365
45.76000 216.736
45.80000 214.921
45.84000 220.067
45.88000 212.029
45.92000 206.740
45.96000 232.066
46.00000 215.359
46.04000 221.063
46.08000 211.950
46.12000 224.896
46.16000 222.099
46.20000 222.435
46.24000 210.578
46.28000 203.056
46.32000 199.765
46.36000 217.263
46.40000 200.856
46.44000 211.847
46.48000 208.453
46.52000 210.913
46.56000 206.114
46.60000 212.235
46.64000 213.615
46.68000 203.080
46.72000 211.066
46.76000 206.180
46.80000 205.015
46.84000 193.833
46.88000 200.561
46.92000 201.396
46.96000 201.481
47.00000 187.140
47.04000 191.640
47.08000 196.576
47.12000 187.082
47.16000 185.491
47.20000 194.893
47.24000 211.671
47.28000 189.750
47.32000 198.986
47.36000 192.418
47.40000 192.926
47.44000 184.421
47.48000 192.702
47.52000 197.588
47.56000 197.033
47.60000 193.049
47.64000 189.473
47.68000 196.242
47.72000 196.625
47.76000 187.703
47.80000 193.891
47.84000 198.548
47.88000 192.903
47.92000 187.015
47.96000 192.739
48.00000 193.316
48.04000 190.502
48.08000 190.169
48.12000 181.787
48.16000 190.362
48.20000 194.755
48.24000 197.248
48.28000 191.857
48.32000 185.832
48.36000 170.671
48.40000 183.207
48.44000 181.775
48.48000 191.087
48.52000 185.619
48.56000 190.526
48.60000 187.533
48.64000 186.760
48.68000 193.532
48.72000 180.390
48.76000 182.102
48.80000 185.958
48.84000 182.235
48.88000 175.509
48.92000 185.474
48.96000 201.206
49.00000 179.716
49.04000 190.510
49.08000 182.459
49.12000 171.659
49.16000 181.411
49.20000 187.581
49.24000 188.681
49.28000 177.595
49.32000 181.432
49.36000 178.522
49.40000 189.058
49.44000 187.211
49.48000 181.558
49.52000 184.645
49.56000 177.599
49.60000 180.121
49.64000 179.247
49.68000 182.124
49.72000 199.013
49.76000 165.639
49.80000 173.687
49.84000 169.496
49.88000 185.039
49.92000 177.908
49.96000 189.760
50.00000 183.799
50.04000 183.740
50.08000 188.276
50.12000 190.368
50.16000 197.853
50.20000 177.401
50.24000 208.493
50.28000 185.710
50.32000 200.804
50.36000 203.711
50.40000 224.135
50.44000 226.372
50.48000 245.681
50.52000 266.441
50.56000 280.886
50.60000 292.218
50.64000 293.477
50.68000 295.959
50.72000 289.974
50.76000 282.312
50.80000 273.556
50.84000 242.233
50.88000 238.546
50.92000 218.607
50.96000 213.070
51.00000 198.013
51.04000 186.450
51.08000 181.401
51.12000 185.846
51.16000 168.134
51.20000 177.451
51.24000 171.337
51.28000 166.153
51.32000 173.291
51.36000 180.978
51.40000 178.374
51.44000 177.238
51.48000 179.060
51.52000 167.150
51.56000 173.509
51.60000 162.344
51.64000 175.525
51.68000 167.667
51.72000 167.775
51.76000 172.397
51.80000 165.748
51.84000 169.097
51.88000 180.853
51.92000 163.834
51.96000 168.637
52.00000 174.795
52.04000 154.300
52.08000 163.688
52.12000 174.078
52.16000 171.732
52.20000 179.461
52.24000 166.490
52.28000 164.373
52.32000 156.932
52.36000 171.687
52.40000 172.724
52.44000 172.971
52.48000 160.461
52.52000 181.053
52.56000 160.995
52.60000 175.486
52.64000 166.407
52.68000 171.098
52.72000 148.867
52.76000 163.583
52.80000 170.214
52.84000 156.288
52.88000 163.458
52.92000 152.553
52.96000 168.058
53.00000 163.819
53.04000 163.351
53.08000 165.013
53.12000 164.287
53.16000 163.007
53.20000 152.150
53.24000 167.751
53.28000 165.829
53.32000 159.701
53.36000 175.573
53.40000 161.039
53.44000 172.778
53.48000 165.947
53.52000 169.492
53.56000 168.428
53.60000 161.216
53.64000 159.716
53.68000 166.618
53.72000 160.065
53.76000 154.769
53.80000 161.983
53.84000 152.416
53.88000 158.953
53.92000 150.632
53.96000 163.884
54.00000 155.366
54.04000 157.037
54.08000 155.937
54.12000 156.671
54.16000 167.416
54.20000 153.662
54.24000 158.084
54.28000 153.926
54.32000 153.247
54.36000 162.589
54.40000 153.939
54.44000 165.788
54.48000 160.512
54.52000 153.787
54.56000 163.698
54.60000 157.655
54.64000 160.761
54.68000 151.688
54.72000 164.913
54.76000 150.292
54.80000 156.394
54.84000 162.919
54.88000 169.346
54.92000 164.112
54.96000 165.549
55.00000 162.026
55.04000 159.346
55.08000 147.841
55.12000 174.126
55.16000 166.824
55.20000 167.424
55.24000 170.760
55.28000 172.865
55.32000 184.161
55.36000 192.587
55.40000 195.350
55.44000 205.027
55.48000 205.551
55.52000 235.301
55.56000 248.749
55.60000 289.159
55.64000 336.478
55.68000 403.500
55.72000 439.779
55.76000 540.288
55.80000 611.957
55.84000 632.505
55.88000 665.458
55.92000 666.603
55.96000 615.964
56.00000 549.461
56.04000 505.491
56.08000 439.901
56.12000 363.683
56.16000 309.853
56.20000 261.947
56.24000 245.272
56.28000 215.179
56.32000 198.082
56.36000 185.874
56.40000 174.931
56.44000 178.726
56.48000 170.850
56.52000 167.769
56.56000 154.530
56.60000 160.264
56.64000 153.447
56.68000 145.784
56.72000 140.268
56.76000 152.842
56.80000 160.380
56.84000 166.859
56.88000 142.714
56.92000 143.944
56.96000 167.957
57.00000 147.189
57.04000 149.861
57.08000 142.460
57.12000 155.058
57.16000 152.793
57.20000 147.213
57.24000 158.949
57.28000 143.596
57.32000 146.493
57.36000 152.081
57.40000 138.911
57.44000 147.291
57.48000 145.197
57.52000 146.117
57.56000 143.665
57.60000 140.064
57.64000 143.591
57.68000 139.922
57.72000 144.056
57.76000 145.882
57.80000 148.892
57.84000 148.344
57.88000 146.711
57.92000 142.564
57.96000 144.813
58.00000 137.231
58.04000 142.302
58.08000 142.602
58.12000 138.123
58.16000 145.275
58.20000 146.373
58.24000 145.686
58.28000 140.939
58.32000 137.621
58.36000 142.593
58.40000 139.250
58.44000 143.643
58.48000 145.944
58.52000 137.040
58.56000 146.036
58.60000 145.208
58.64000 131.780
58.68000 134.674
58.72000 129.007
58.76000 137.737
58.80000 142.670
58.84000 153.079
58.88000 148.600
58.92000 138.820
58.96000 144.201
59.00000 138.422
59.04000 140.163
59.08000 129.504
59.12000 134.097
59.16000 144.234
59.20000 145.630
59.24000 145.961
59.28000 124.028
59.32000 133.384
59.36000 136.640
59.40000 137.845
59.44000 138.902
59.48000 137.714
59.52000 132.488
59.56000 129.452
59.60000 139.433
59.64000 138.183
59.68000 136.843
59.72000 133.395
59.76000 136.347
59.80000 131.957
59.84000 117.141
59.88000 140.116
59.92000 131.847
59.96000 134.920
60.00000 127.371
60.04000 139.907
60.08000 132.285
60.12000 135.707
60.16000 134.650
60.20000 138.772
60.24000 132.910
60.28000 134.104
60.32000 136.927
60.36000 139.143
60.40000 129.487
60.44000 126.825
60.48000 130.478
60.52000 140.154
60.56000 136.287
60.60000 127.404
60.64000 135.969
60.68000 131.424
60.72000 127.437
60.76000 134.868
60.80000 140.269
60.84000 132.842
60.88000 128.740
60.92000 138.969
60.96000 136.683
61.00000 140.681
61.04000 133.159
61.08000 141.311
61.12000 138.608
61.16000 135.004
61.20000 148.521
61.24000 138.806
61.28000 148.572
61.32000 138.688
61.36000 140.040
61.40000 145.319
61.44000 139.499
61.48000 150.887
61.52000 165.340
61.56000 218.141
61.60000 275.893
61.64000 302.012
61.68000 335.190
61.72000 352.181
61.76000 322.159
61.80000 277.465
61.84000 198.820
61.88000 167.201
61.92000 148.411
61.96000 148.894
62.00000 149.324
62.04000 144.080
62.08000 146.167
62.12000 150.136
62.16000 147.964
62.20000 153.893
62.24000 140.067
62.28000 144.590
62.32000 137.618
62.36000 141.782
62.40000 143.126
62.44000 146.228
62.48000 140.926
62.52000 150.078
62.56000 123.082
62.60000 150.791
62.64000 140.065
62.68000 145.377
62.72000 150.713
62.76000 153.345
62.80000 143.501
62.84000 149.369
62.88000 151.476
62.92000 135.926
62.96000 140.438
63.00000 150.531
63.04000 137.437
63.08000 147.508
63.12000 145.029
63.16000 138.060
63.20000 157.741
63.24000 148.450
63.28000 167.178
63.32000 145.139
63.36000 141.140
63.40000 142.088
63.44000 148.992
63.48000 153.644
63.52000 149.809
63.56000 147.860
63.60000 162.666
63.64000 151.767
63.68000 159.754
63.72000 153.326
63.76000 152.505
63.80000 169.755
63.84000 162.252
63.88000 155.086
63.92000 158.494
63.96000 159.554
64.00000 164.529
64.04000 162.229
64.08000 164.170
64.12000 168.409
64.16000 160.920
64.20000 174.434
64.24000 169.703
64.28000 171.427
64.32000 168.905
64.36000 168.488
64.40000 167.648
64.44000 173.968
64.48000 172.848
64.52000 172.448
64.56000 170.103
64.60000 173.920
64.64000 171.901
64.68000 185.366
64.72000 180.980
64.76000 186.885
64.80000 183.127
64.84000 182.494
64.88000 188.333
64.92000 184.220
64.96000 209.276
65.00000 203.051
65.04000 219.989
65.08000 222.637
65.12000 225.846
65.16000 245.007
65.20000 266.996
65.24000 280.846
65.28000 316.071
65.32000 345.668
65.36000 395.048
65.40000 412.009
65.44000 455.188
65.48000 480.865
65.52000 477.712
65.56000 462.803
65.60000 478.237
65.64000 472.127
65.68000 555.191
65.72000 697.558
65.76000 967.562
65.80000 1204.214
65.84000 1337.050
65.88000 1425.232
65.92000 1365.235
65.96000 1178.713
66.00000 872.889
66.04000 587.491
66.08000 429.608
66.12000 357.403
66.16000 330.325
66.20000 329.023
66.24000 358.644
66.28000 374.290
66.32000 434.179
66.36000 489.966
66.40000 511.377
66.44000 527.680
66.48000 499.262
66.52000 462.790
66.56000 413.054
66.60000 369.706
66.64000 350.668
66.68000 328.118
66.72000 342.236
66.76000 342.261
66.80000 350.192
66.84000 358.154
66.88000 351.095
66.92000 349.050
66.96000 366.148
67.00000 372.175
67.04000 376.900
67.08000 385.543
67.12000 395.609
67.16000 407.061
67.20000 404.231
67.24000 401.957
67.28000 422.054
67.32000 441.248
67.36000 431.298
67.40000 450.776
67.44000 455.753
67.48000 464.812
67.52000 469.792
67.56000 484.490
67.60000 497.413
67.64000 494.784
67.68000 508.766
67.72000 514.768
67.76000 505.416
67.80000 539.030
67.84000 552.112
67.88000 549.477
67.92000 557.809
67.96000 574.509
68.00000 611.764
68.04000 587.251
68.08000 610.174
68.12000 638.901
68.16000 622.646
68.20000 663.398
68.24000 697.572
68.28000 725.797
68.32000 745.543
68.36000 731.793
68.40000 764.279
68.44000 825.759
68.48000 842.838
68.52000 916.329
68.56000 994.407
68.60000 1108.832
68.64000 1307.834
68.68000 1551.490
68.72000 1887.254
68.76000 2117.021
68.80000 2405.892
68.84000 2823.270
68.88000 3410.573
68.92000 6257.194
68.96000 14777.214
69.00000 35538.406
69.04000 61011.391
69.08000 77685.492
69.12000 81383.641
69.16000 84416.063
69.20000 85020.070
69.24000 74704.422
69.28000 59381.324
69.32000 47370.391
69.36000 41542.387
69.40000 35079.730
69.44000 23125.986
69.48000 11771.733
69.52000 5128.765
69.56000 2732.867
69.60000 1932.578
69.64000 1630.421
69.68000 1415.673
69.72000 1215.066
69.76000 1122.669
69.80000 1023.360
69.84000 975.633
69.88000 918.238
69.92000 861.275
69.96000 826.932
70.00000 798.597