File: XRD/30-09-2025 Dep 1/XY Data/BTO_Mapping_Theta2Theta_30-09-2025_001_15_6-180_19-021.xy
20.00000 592.233
20.04000 571.474
20.08000 560.713
20.12000 552.014
20.16000 569.237
20.20000 574.895
20.24000 551.868
20.28000 567.946
20.32000 545.335
20.36000 558.059
20.40000 565.749
20.44000 569.192
20.48000 562.334
20.52000 540.346
20.56000 560.339
20.60000 561.250
20.64000 549.512
20.68000 561.567
20.72000 559.331
20.76000 556.589
20.80000 562.252
20.84000 557.546
20.88000 570.427
20.92000 559.016
20.96000 561.576
21.00000 532.855
21.04000 549.278
21.08000 547.204
21.12000 545.599
21.16000 540.710
21.20000 549.528
21.24000 535.677
21.28000 543.443
21.32000 551.147
21.36000 544.875
21.40000 549.001
21.44000 530.307
21.48000 546.381
21.52000 548.992
21.56000 550.601
21.60000 561.717
21.64000 565.650
21.68000 547.252
21.72000 530.989
21.76000 563.604
21.80000 569.507
21.84000 570.889
21.88000 591.188
21.92000 595.016
21.96000 619.946
22.00000 637.088
22.04000 639.210
22.08000 635.150
22.12000 659.983
22.16000 654.355
22.20000 638.072
22.24000 604.545
22.28000 578.181
22.32000 558.978
22.36000 549.090
22.40000 543.359
22.44000 528.023
22.48000 553.971
22.52000 547.708
22.56000 530.396
22.60000 529.740
22.64000 528.607
22.68000 494.714
22.72000 547.995
22.76000 526.300
22.80000 542.033
22.84000 526.168
22.88000 516.730
22.92000 509.491
22.96000 523.105
23.00000 519.006
23.04000 525.506
23.08000 521.508
23.12000 531.451
23.16000 518.074
23.20000 499.420
23.24000 523.555
23.28000 515.552
23.32000 487.742
23.36000 509.629
23.40000 529.935
23.44000 504.378
23.48000 484.136
23.52000 514.952
23.56000 501.360
23.60000 508.092
23.64000 504.177
23.68000 519.150
23.72000 509.455
23.76000 509.539
23.80000 508.983
23.84000 527.955
23.88000 520.284
23.92000 508.585
23.96000 526.998
24.00000 521.328
24.04000 525.006
24.08000 517.948
24.12000 525.494
24.16000 507.310
24.20000 515.204
24.24000 503.774
24.28000 514.317
24.32000 528.266
24.36000 511.226
24.40000 501.362
24.44000 493.742
24.48000 481.181
24.52000 489.683
24.56000 491.038
24.60000 502.168
24.64000 485.736
24.68000 491.056
24.72000 495.708
24.76000 494.998
24.80000 475.405
24.84000 482.537
24.88000 481.082
24.92000 469.056
24.96000 481.255
25.00000 480.482
25.04000 494.286
25.08000 498.879
25.12000 483.060
25.16000 470.190
25.20000 469.045
25.24000 473.733
25.28000 456.604
25.32000 468.084
25.36000 464.346
25.40000 478.828
25.44000 473.751
25.48000 472.781
25.52000 463.811
25.56000 465.611
25.60000 481.356
25.64000 471.952
25.68000 469.402
25.72000 467.600
25.76000 469.271
25.80000 460.423
25.84000 479.636
25.88000 444.745
25.92000 457.095
25.96000 461.241
26.00000 461.276
26.04000 440.400
26.08000 456.104
26.12000 463.249
26.16000 456.535
26.20000 468.838
26.24000 477.483
26.28000 464.742
26.32000 457.830
26.36000 450.949
26.40000 451.310
26.44000 476.227
26.48000 447.906
26.52000 436.790
26.56000 450.395
26.60000 443.558
26.64000 450.001
26.68000 457.418
26.72000 456.818
26.76000 439.741
26.80000 445.842
26.84000 445.515
26.88000 446.322
26.92000 485.493
26.96000 439.776
27.00000 439.205
27.04000 435.937
27.08000 449.324
27.12000 453.202
27.16000 432.835
27.20000 436.218
27.24000 430.730
27.28000 440.601
27.32000 447.823
27.36000 430.531
27.40000 451.289
27.44000 463.159
27.48000 436.507
27.52000 430.092
27.56000 446.526
27.60000 451.520
27.64000 434.266
27.68000 465.395
27.72000 445.354
27.76000 446.835
27.80000 445.628
27.84000 420.315
27.88000 424.359
27.92000 455.535
27.96000 404.991
28.00000 434.381
28.04000 417.222
28.08000 431.210
28.12000 441.278
28.16000 448.938
28.20000 436.347
28.24000 430.532
28.28000 426.662
28.32000 424.464
28.36000 432.676
28.40000 438.511
28.44000 431.041
28.48000 428.385
28.52000 418.460
28.56000 420.644
28.60000 418.739
28.64000 426.300
28.68000 419.615
28.72000 434.840
28.76000 425.292
28.80000 401.017
28.84000 420.283
28.88000 437.015
28.92000 409.847
28.96000 417.742
29.00000 427.026
29.04000 407.918
29.08000 404.722
29.12000 403.574
29.16000 419.823
29.20000 412.253
29.24000 414.907
29.28000 409.507
29.32000 414.450
29.36000 427.879
29.40000 424.097
29.44000 423.344
29.48000 426.247
29.52000 416.104
29.56000 421.381
29.60000 428.783
29.64000 417.842
29.68000 409.311
29.72000 425.561
29.76000 417.717
29.80000 425.736
29.84000 427.332
29.88000 416.842
29.92000 420.656
29.96000 445.224
30.00000 454.533
30.04000 428.590
30.08000 416.619
30.12000 448.959
30.16000 416.675
30.20000 425.969
30.24000 410.897
30.28000 414.903
30.32000 417.546
30.36000 419.630
30.40000 420.653
30.44000 417.439
30.48000 429.244
30.52000 422.218
30.56000 413.069
30.60000 427.780
30.64000 434.978
30.68000 432.208
30.72000 447.666
30.76000 443.722
30.80000 441.339
30.84000 472.237
30.88000 452.004
30.92000 471.481
30.96000 487.535
31.00000 514.463
31.04000 571.361
31.08000 644.810
31.12000 783.819
31.16000 1034.293
31.20000 1351.772
31.24000 1779.154
31.28000 2264.518
31.32000 2723.198
31.36000 2975.503
31.40000 3051.361
31.44000 2909.862
31.48000 2550.500
31.52000 2127.885
31.56000 1620.249
31.60000 1224.376
31.64000 895.593
31.68000 686.868
31.72000 598.989
31.76000 536.465
31.80000 478.496
31.84000 447.128
31.88000 443.281
31.92000 432.594
31.96000 408.937
32.00000 412.980
32.04000 415.877
32.08000 391.571
32.12000 414.003
32.16000 404.070
32.20000 382.100
32.24000 399.803
32.28000 396.495
32.32000 394.114
32.36000 407.063
32.40000 394.708
32.44000 386.872
32.48000 375.548
32.52000 391.793
32.56000 387.904
32.60000 379.065
32.64000 379.413
32.68000 367.492
32.72000 372.116
32.76000 369.536
32.80000 361.608
32.84000 362.326
32.88000 371.677
32.92000 372.824
32.96000 379.306
33.00000 386.229
33.04000 394.971
33.08000 373.477
33.12000 370.401
33.16000 352.493
33.20000 353.059
33.24000 337.356
33.28000 368.043
33.32000 338.341
33.36000 352.016
33.40000 351.030
33.44000 339.147
33.48000 336.638
33.52000 336.062
33.56000 320.964
33.60000 341.520
33.64000 329.941
33.68000 357.070
33.72000 343.824
33.76000 350.044
33.80000 344.076
33.84000 342.253
33.88000 324.038
33.92000 358.681
33.96000 346.540
34.00000 319.530
34.04000 346.337
34.08000 359.622
34.12000 360.763
34.16000 347.213
34.20000 354.480
34.24000 358.292
34.28000 324.724
34.32000 341.907
34.36000 354.307
34.40000 337.340
34.44000 359.085
34.48000 359.980
34.52000 358.236
34.56000 350.693
34.60000 378.328
34.64000 350.878
34.68000 343.160
34.72000 356.722
34.76000 339.902
34.80000 330.989
34.84000 324.637
34.88000 330.943
34.92000 327.655
34.96000 338.036
35.00000 339.982
35.04000 321.205
35.08000 322.422
35.12000 304.185
35.16000 338.277
35.20000 327.572
35.24000 320.258
35.28000 322.003
35.32000 332.407
35.36000 311.254
35.40000 328.698
35.44000 318.271
35.48000 302.988
35.52000 318.048
35.56000 320.692
35.60000 320.545
35.64000 310.324
35.68000 313.696
35.72000 320.276
35.76000 310.799
35.80000 308.977
35.84000 292.836
35.88000 305.306
35.92000 311.979
35.96000 299.023
36.00000 309.466
36.04000 315.424
36.08000 312.431
36.12000 308.011
36.16000 317.962
36.20000 299.001
36.24000 299.421
36.28000 305.180
36.32000 298.166
36.36000 298.470
36.40000 306.092
36.44000 296.579
36.48000 306.342
36.52000 301.449
36.56000 316.374
36.60000 293.736
36.64000 301.711
36.68000 297.840
36.72000 314.924
36.76000 302.632
36.80000 294.583
36.84000 303.131
36.88000 303.813
36.92000 305.519
36.96000 301.534
37.00000 295.450
37.04000 311.913
37.08000 313.186
37.12000 316.765
37.16000 317.270
37.20000 299.886
37.24000 297.297
37.28000 311.104
37.32000 299.595
37.36000 298.837
37.40000 310.396
37.44000 306.053
37.48000 302.605
37.52000 291.816
37.56000 305.519
37.60000 291.663
37.64000 301.512
37.68000 300.132
37.72000 293.350
37.76000 292.391
37.80000 294.217
37.84000 289.793
37.88000 291.965
37.92000 283.695
37.96000 296.386
38.00000 290.483
38.04000 302.052
38.08000 299.838
38.12000 280.549
38.16000 316.777
38.20000 300.530
38.24000 303.005
38.28000 311.234
38.32000 327.112
38.36000 330.327
38.40000 353.360
38.44000 380.378
38.48000 429.203
38.52000 511.868
38.56000 615.072
38.60000 742.896
38.64000 862.413
38.68000 971.210
38.72000 1043.997
38.76000 1060.466
38.80000 1019.647
38.84000 909.822
38.88000 753.733
38.92000 665.003
38.96000 515.785
39.00000 419.044
39.04000 367.705
39.08000 320.300
39.12000 309.245
39.16000 327.407
39.20000 288.737
39.24000 283.725
39.28000 272.176
39.32000 288.382
39.36000 287.905
39.40000 286.145
39.44000 280.883
39.48000 262.567
39.52000 268.797
39.56000 282.664
39.60000 268.025
39.64000 272.829
39.68000 284.765
39.72000 270.207
39.76000 278.556
39.80000 263.628
39.84000 266.360
39.88000 270.610
39.92000 267.964
39.96000 266.916
40.00000 262.808
40.04000 264.014
40.08000 258.237
40.12000 255.565
40.16000 269.602
40.20000 249.233
40.24000 271.010
40.28000 262.856
40.32000 250.764
40.36000 258.609
40.40000 259.754
40.44000 261.749
40.48000 262.428
40.52000 256.575
40.56000 255.638
40.60000 259.553
40.64000 260.116
40.68000 254.783
40.72000 247.559
40.76000 255.879
40.80000 260.436
40.84000 247.848
40.88000 251.100
40.92000 264.243
40.96000 246.258
41.00000 256.065
41.04000 233.061
41.08000 255.048
41.12000 243.010
41.16000 255.734
41.20000 245.221
41.24000 251.454
41.28000 243.104
41.32000 269.483
41.36000 245.651
41.40000 242.739
41.44000 247.753
41.48000 233.242
41.52000 232.397
41.56000 262.440
41.60000 254.168
41.64000 229.576
41.68000 245.909
41.72000 239.983
41.76000 229.481
41.80000 229.514
41.84000 231.916
41.88000 236.575
41.92000 241.754
41.96000 236.285
42.00000 239.349
42.04000 246.658
42.08000 247.310
42.12000 250.749
42.16000 259.478
42.20000 237.738
42.24000 235.535
42.28000 246.768
42.32000 243.200
42.36000 225.113
42.40000 230.058
42.44000 230.375
42.48000 242.886
42.52000 240.458
42.56000 227.933
42.60000 239.871
42.64000 228.510
42.68000 239.782
42.72000 232.337
42.76000 235.668
42.80000 225.015
42.84000 224.761
42.88000 229.622
42.92000 228.124
42.96000 236.974
43.00000 229.903
43.04000 227.667
43.08000 214.582
43.12000 215.370
43.16000 228.360
43.20000 216.013
43.24000 230.588
43.28000 230.588
43.32000 226.707
43.36000 233.014
43.40000 228.573
43.44000 231.912
43.48000 222.540
43.52000 213.711
43.56000 215.089
43.60000 204.474
43.64000 227.357
43.68000 223.323
43.72000 220.635
43.76000 221.763
43.80000 229.695
43.84000 213.750
43.88000 214.683
43.92000 228.381
43.96000 217.021
44.00000 230.185
44.04000 217.197
44.08000 224.773
44.12000 213.594
44.16000 218.250
44.20000 224.978
44.24000 213.495
44.28000 218.796
44.32000 236.702
44.36000 216.654
44.40000 214.639
44.44000 220.586
44.48000 236.017
44.52000 223.752
44.56000 227.997
44.60000 239.247
44.64000 228.665
44.68000 234.073
44.72000 237.348
44.76000 239.835
44.80000 254.513
44.84000 261.498
44.88000 265.111
44.92000 279.342
44.96000 272.842
45.00000 299.196
45.04000 316.425
45.08000 306.831
45.12000 320.149
45.16000 322.530
45.20000 308.371
45.24000 307.833
45.28000 284.769
45.32000 285.786
45.36000 257.962
45.40000 256.698
45.44000 243.420
45.48000 244.318
45.52000 242.101
45.56000 230.098
45.60000 224.176
45.64000 218.215
45.68000 216.159
45.72000 197.205
45.76000 209.159
45.80000 202.332
45.84000 215.808
45.88000 210.396
45.92000 212.668
45.96000 218.508
46.00000 200.297
46.04000 216.005
46.08000 205.045
46.12000 210.096
46.16000 199.081
46.20000 200.730
46.24000 213.671
46.28000 197.803
46.32000 212.297
46.36000 218.188
46.40000 205.796
46.44000 208.155
46.48000 200.285
46.52000 213.690
46.56000 206.858
46.60000 217.717
46.64000 199.835
46.68000 197.915
46.72000 194.290
46.76000 195.889
46.80000 194.849
46.84000 202.048
46.88000 202.319
46.92000 196.547
46.96000 200.615
47.00000 198.347
47.04000 188.882
47.08000 198.648
47.12000 197.668
47.16000 192.989
47.20000 190.260
47.24000 205.408
47.28000 204.200
47.32000 199.378
47.36000 189.617
47.40000 190.754
47.44000 195.846
47.48000 196.113
47.52000 187.477
47.56000 197.910
47.60000 195.624
47.64000 194.107
47.68000 198.631
47.72000 189.609
47.76000 200.622
47.80000 186.051
47.84000 173.771
47.88000 187.110
47.92000 192.311
47.96000 179.555
48.00000 184.890
48.04000 181.710
48.08000 180.597
48.12000 185.184
48.16000 186.046
48.20000 187.626
48.24000 185.276
48.28000 170.193
48.32000 182.748
48.36000 191.347
48.40000 178.457
48.44000 183.011
48.48000 177.164
48.52000 186.842
48.56000 180.935
48.60000 181.965
48.64000 180.459
48.68000 178.881
48.72000 174.549
48.76000 195.717
48.80000 172.379
48.84000 181.030
48.88000 184.935
48.92000 177.161
48.96000 177.321
49.00000 183.406
49.04000 175.761
49.08000 172.456
49.12000 184.212
49.16000 191.083
49.20000 173.223
49.24000 179.458
49.28000 182.943
49.32000 188.303
49.36000 178.888
49.40000 167.430
49.44000 173.479
49.48000 172.528
49.52000 177.753
49.56000 185.548
49.60000 183.451
49.64000 183.516
49.68000 196.479
49.72000 178.688
49.76000 168.334
49.80000 184.557
49.84000 174.420
49.88000 176.837
49.92000 175.313
49.96000 178.574
50.00000 179.627
50.04000 179.006
50.08000 169.079
50.12000 177.014
50.16000 172.707
50.20000 186.906
50.24000 181.848
50.28000 186.370
50.32000 171.707
50.36000 184.976
50.40000 183.769
50.44000 182.791
50.48000 207.568
50.52000 206.611
50.56000 218.522
50.60000 222.036
50.64000 235.135
50.68000 233.507
50.72000 251.640
50.76000 253.285
50.80000 247.569
50.84000 224.625
50.88000 226.791
50.92000 211.386
50.96000 199.490
51.00000 191.613
51.04000 183.402
51.08000 175.936
51.12000 172.216
51.16000 170.671
51.20000 173.397
51.24000 167.564
51.28000 163.471
51.32000 156.214
51.36000 172.177
51.40000 164.842
51.44000 155.236
51.48000 163.162
51.52000 169.744
51.56000 162.086
51.60000 164.062
51.64000 167.961
51.68000 164.837
51.72000 160.824
51.76000 153.950
51.80000 162.176
51.84000 162.173
51.88000 158.018
51.92000 170.903
51.96000 160.165
52.00000 169.043
52.04000 153.002
52.08000 166.412
52.12000 167.719
52.16000 162.495
52.20000 151.733
52.24000 147.468
52.28000 160.110
52.32000 154.825
52.36000 160.518
52.40000 159.074
52.44000 165.656
52.48000 162.391
52.52000 148.923
52.56000 168.179
52.60000 157.722
52.64000 156.661
52.68000 152.562
52.72000 166.334
52.76000 163.261
52.80000 161.853
52.84000 161.393
52.88000 162.228
52.92000 150.926
52.96000 145.137
53.00000 157.232
53.04000 168.470
53.08000 160.754
53.12000 156.666
53.16000 152.358
53.20000 154.343
53.24000 153.142
53.28000 159.696
53.32000 171.259
53.36000 166.178
53.40000 168.490
53.44000 175.066
53.48000 159.735
53.52000 167.504
53.56000 163.171
53.60000 156.301
53.64000 159.932
53.68000 155.872
53.72000 152.594
53.76000 151.698
53.80000 162.424
53.84000 152.192
53.88000 160.813
53.92000 163.582
53.96000 147.666
54.00000 155.966
54.04000 162.547
54.08000 155.298
54.12000 170.779
54.16000 150.850
54.20000 157.542
54.24000 150.110
54.28000 157.089
54.32000 155.499
54.36000 152.718
54.40000 158.655
54.44000 152.048
54.48000 153.723
54.52000 151.558
54.56000 151.200
54.60000 158.549
54.64000 163.526
54.68000 141.658
54.72000 151.830
54.76000 161.672
54.80000 150.405
54.84000 159.978
54.88000 154.110
54.92000 157.734
54.96000 154.649
55.00000 151.226
55.04000 153.202
55.08000 158.859
55.12000 160.442
55.16000 149.434
55.20000 161.503
55.24000 154.593
55.28000 162.806
55.32000 168.545
55.36000 175.308
55.40000 170.721
55.44000 175.597
55.48000 194.605
55.52000 185.189
55.56000 194.181
55.60000 212.364
55.64000 238.712
55.68000 266.066
55.72000 334.534
55.76000 376.466
55.80000 445.226
55.84000 519.060
55.88000 555.276
55.92000 626.665
55.96000 639.546
56.00000 624.653
56.04000 584.345
56.08000 533.828
56.12000 457.427
56.16000 419.047
56.20000 332.985
56.24000 292.572
56.28000 285.587
56.32000 243.177
56.36000 203.057
56.40000 193.488
56.44000 171.521
56.48000 180.402
56.52000 157.483
56.56000 165.644
56.60000 154.704
56.64000 150.193
56.68000 162.269
56.72000 150.346
56.76000 153.027
56.80000 158.234
56.84000 143.509
56.88000 151.617
56.92000 143.990
56.96000 148.297
57.00000 147.696
57.04000 153.800
57.08000 145.484
57.12000 149.549
57.16000 156.627
57.20000 131.057
57.24000 143.633
57.28000 146.189
57.32000 144.577
57.36000 145.120
57.40000 139.168
57.44000 134.399
57.48000 139.390
57.52000 145.353
57.56000 151.198
57.60000 134.251
57.64000 148.578
57.68000 144.340
57.72000 139.196
57.76000 137.205
57.80000 154.340
57.84000 147.158
57.88000 140.727
57.92000 149.880
57.96000 138.271
58.00000 139.824
58.04000 139.207
58.08000 135.402
58.12000 134.944
58.16000 130.755
58.20000 144.275
58.24000 141.038
58.28000 142.761
58.32000 144.541
58.36000 141.793
58.40000 132.727
58.44000 145.038
58.48000 139.345
58.52000 132.995
58.56000 142.256
58.60000 141.978
58.64000 142.814
58.68000 145.609
58.72000 142.916
58.76000 144.181
58.80000 137.372
58.84000 135.101
58.88000 138.656
58.92000 139.158
58.96000 135.690
59.00000 136.214
59.04000 136.607
59.08000 132.049
59.12000 134.863
59.16000 140.774
59.20000 137.554
59.24000 123.847
59.28000 135.840
59.32000 136.457
59.36000 131.273
59.40000 132.376
59.44000 124.341
59.48000 131.585
59.52000 143.145
59.56000 133.804
59.60000 137.721
59.64000 133.699
59.68000 136.988
59.72000 133.003
59.76000 138.298
59.80000 134.305
59.84000 132.280
59.88000 128.928
59.92000 120.337
59.96000 131.758
60.00000 145.890
60.04000 146.164
60.08000 133.917
60.12000 136.720
60.16000 137.230
60.20000 131.119
60.24000 127.477
60.28000 134.841
60.32000 124.874
60.36000 128.998
60.40000 133.935
60.44000 125.217
60.48000 135.632
60.52000 129.882
60.56000 135.845
60.60000 132.840
60.64000 137.763
60.68000 131.484
60.72000 125.373
60.76000 134.094
60.80000 140.061
60.84000 134.102
60.88000 121.866
60.92000 121.568
60.96000 131.224
61.00000 135.978
61.04000 136.593
61.08000 129.741
61.12000 135.876
61.16000 136.959
61.20000 137.253
61.24000 136.745
61.28000 139.551
61.32000 134.334
61.36000 141.268
61.40000 136.172
61.44000 143.910
61.48000 142.653
61.52000 162.279
61.56000 187.321
61.60000 212.862
61.64000 217.901
61.68000 248.501
61.72000 268.860
61.76000 242.441
61.80000 208.757
61.84000 176.778
61.88000 147.034
61.92000 139.836
61.96000 142.165
62.00000 134.956
62.04000 135.980
62.08000 145.081
62.12000 143.993
62.16000 132.296
62.20000 145.122
62.24000 148.997
62.28000 141.703
62.32000 136.421
62.36000 131.125
62.40000 137.656
62.44000 139.426
62.48000 135.142
62.52000 138.397
62.56000 145.836
62.60000 147.392
62.64000 149.838
62.68000 144.308
62.72000 157.041
62.76000 139.907
62.80000 139.987
62.84000 153.015
62.88000 139.561
62.92000 136.644
62.96000 143.440
63.00000 142.423
63.04000 138.011
63.08000 162.655
63.12000 150.259
63.16000 155.996
63.20000 150.109
63.24000 148.512
63.28000 140.765
63.32000 141.681
63.36000 137.295
63.40000 142.611
63.44000 152.568
63.48000 148.666
63.52000 151.673
63.56000 143.279
63.60000 156.552
63.64000 149.815
63.68000 150.391
63.72000 162.070
63.76000 144.541
63.80000 161.219
63.84000 148.773
63.88000 139.178
63.92000 156.142
63.96000 153.185
64.00000 155.568
64.04000 161.355
64.08000 160.008
64.12000 164.665
64.16000 153.573
64.20000 163.113
64.24000 161.263
64.28000 154.628
64.32000 160.544
64.36000 163.922
64.40000 160.140
64.44000 165.019
64.48000 161.806
64.52000 145.104
64.56000 163.291
64.60000 171.415
64.64000 167.348
64.68000 174.169
64.72000 173.717
64.76000 169.483
64.80000 160.376
64.84000 168.184
64.88000 175.745
64.92000 171.621
64.96000 177.174
65.00000 191.136
65.04000 192.553
65.08000 200.770
65.12000 199.445
65.16000 193.303
65.20000 215.921
65.24000 221.867
65.28000 244.854
65.32000 253.051
65.36000 278.150
65.40000 297.343
65.44000 328.266
65.48000 339.970
65.52000 366.886
65.56000 382.478
65.60000 389.332
65.64000 420.272
65.68000 451.275
65.72000 541.736
65.76000 683.115
65.80000 825.103
65.84000 910.228
65.88000 924.526
65.92000 894.002
65.96000 731.191
66.00000 567.240
66.04000 418.226
66.08000 326.910
66.12000 283.360
66.16000 283.861
66.20000 255.185
66.24000 294.148
66.28000 299.619
66.32000 354.923
66.36000 371.147
66.40000 369.144
66.44000 397.842
66.48000 393.089
66.52000 366.642
66.56000 332.398
66.60000 285.362
66.64000 308.853
66.68000 295.889
66.72000 292.503
66.76000 298.144
66.80000 311.198
66.84000 304.160
66.88000 315.286
66.92000 294.211
66.96000 312.709
67.00000 328.882
67.04000 316.779
67.08000 313.677
67.12000 327.117
67.16000 344.791
67.20000 342.655
67.24000 354.220
67.28000 356.915
67.32000 365.471
67.36000 363.056
67.40000 376.849
67.44000 382.662
67.48000 379.562
67.52000 398.509
67.56000 399.831
67.60000 407.734
67.64000 402.384
67.68000 411.587
67.72000 426.959
67.76000 426.335
67.80000 408.608
67.84000 468.601
67.88000 452.146
67.92000 457.914
67.96000 479.361
68.00000 480.373
68.04000 477.711
68.08000 517.791
68.12000 540.742
68.16000 527.079
68.20000 546.479
68.24000 564.526
68.28000 581.372
68.32000 576.273
68.36000 592.669
68.40000 628.141
68.44000 647.779
68.48000 685.042
68.52000 725.042
68.56000 753.598
68.60000 849.164
68.64000 981.619
68.68000 1149.965
68.72000 1280.142
68.76000 1506.451
68.80000 1647.778
68.84000 1917.887
68.88000 2256.076
68.92000 3914.177
68.96000 9224.205
69.00000 22843.113
69.04000 37843.477
69.08000 45776.629
69.12000 46836.578
69.16000 48569.219
69.20000 48869.871
69.24000 41368.656
69.28000 31461.141
69.32000 25901.252
69.36000 23239.436
69.40000 19534.166
69.44000 12037.372
69.48000 5548.058
69.52000 2538.956
69.56000 1578.717
69.60000 1284.798
69.64000 1106.277
69.68000 968.643
69.72000 880.018
69.76000 814.949
69.80000 804.352
69.84000 724.296
69.88000 695.389
69.92000 692.840
69.96000 649.047
70.00000 646.340