File: XRD/30-09-2025 Dep 1/XY Data/BTO_Mapping_Theta2Theta_30-09-2025_001_55_13-383_-14-863.xy
20.00000 570.001
20.04000 559.322
20.08000 564.280
20.12000 570.275
20.16000 566.593
20.20000 553.326
20.24000 581.523
20.28000 575.806
20.32000 597.008
20.36000 568.124
20.40000 561.190
20.44000 569.394
20.48000 547.837
20.52000 566.869
20.56000 580.964
20.60000 560.101
20.64000 566.145
20.68000 558.161
20.72000 560.801
20.76000 571.233
20.80000 564.391
20.84000 568.743
20.88000 561.230
20.92000 572.822
20.96000 563.811
21.00000 558.044
21.04000 587.990
21.08000 572.144
21.12000 571.474
21.16000 551.887
21.20000 568.622
21.24000 548.943
21.28000 552.257
21.32000 555.157
21.36000 554.887
21.40000 557.823
21.44000 556.667
21.48000 559.357
21.52000 567.357
21.56000 549.095
21.60000 557.778
21.64000 593.152
21.68000 577.680
21.72000 620.291
21.76000 666.393
21.80000 700.968
21.84000 751.071
21.88000 815.430
21.92000 873.010
21.96000 911.497
22.00000 938.079
22.04000 916.526
22.08000 865.526
22.12000 796.590
22.16000 720.758
22.20000 691.908
22.24000 652.240
22.28000 602.762
22.32000 575.756
22.36000 560.720
22.40000 586.649
22.44000 557.652
22.48000 537.428
22.52000 567.543
22.56000 551.687
22.60000 546.673
22.64000 546.752
22.68000 538.818
22.72000 531.390
22.76000 535.908
22.80000 532.208
22.84000 537.568
22.88000 521.108
22.92000 529.965
22.96000 511.953
23.00000 517.716
23.04000 529.418
23.08000 509.619
23.12000 517.449
23.16000 528.679
23.20000 517.396
23.24000 530.568
23.28000 520.284
23.32000 520.794
23.36000 525.616
23.40000 506.646
23.44000 521.559
23.48000 531.155
23.52000 530.051
23.56000 531.984
23.60000 507.327
23.64000 533.452
23.68000 523.868
23.72000 490.775
23.76000 507.917
23.80000 501.985
23.84000 518.264
23.88000 509.028
23.92000 516.617
23.96000 524.353
24.00000 494.159
24.04000 523.057
24.08000 498.348
24.12000 506.038
24.16000 491.686
24.20000 500.978
24.24000 495.196
24.28000 501.464
24.32000 509.516
24.36000 495.352
24.40000 503.957
24.44000 488.243
24.48000 491.754
24.52000 491.294
24.56000 487.355
24.60000 489.557
24.64000 482.351
24.68000 487.433
24.72000 509.394
24.76000 503.956
24.80000 482.206
24.84000 480.468
24.88000 493.917
24.92000 477.384
24.96000 494.781
25.00000 467.447
25.04000 496.924
25.08000 468.897
25.12000 492.548
25.16000 505.774
25.20000 493.615
25.24000 495.260
25.28000 471.171
25.32000 474.138
25.36000 474.279
25.40000 474.225
25.44000 480.272
25.48000 504.657
25.52000 492.065
25.56000 469.083
25.60000 482.835
25.64000 475.309
25.68000 486.270
25.72000 487.014
25.76000 460.642
25.80000 462.924
25.84000 458.666
25.88000 481.167
25.92000 455.265
25.96000 468.750
26.00000 462.405
26.04000 460.411
26.08000 466.246
26.12000 484.547
26.16000 463.382
26.20000 467.360
26.24000 476.565
26.28000 470.539
26.32000 456.813
26.36000 461.457
26.40000 456.986
26.44000 467.121
26.48000 487.493
26.52000 478.286
26.56000 445.673
26.60000 477.408
26.64000 464.483
26.68000 462.337
26.72000 472.177
26.76000 452.301
26.80000 453.795
26.84000 450.926
26.88000 448.441
26.92000 452.519
26.96000 474.725
27.00000 460.197
27.04000 462.644
27.08000 465.133
27.12000 462.928
27.16000 470.210
27.20000 456.645
27.24000 465.179
27.28000 458.531
27.32000 456.242
27.36000 455.023
27.40000 454.607
27.44000 467.076
27.48000 440.139
27.52000 426.632
27.56000 434.614
27.60000 457.861
27.64000 462.131
27.68000 426.124
27.72000 444.842
27.76000 428.426
27.80000 434.914
27.84000 448.119
27.88000 447.379
27.92000 434.628
27.96000 440.612
28.00000 443.305
28.04000 456.334
28.08000 447.832
28.12000 452.529
28.16000 451.770
28.20000 445.624
28.24000 448.018
28.28000 444.884
28.32000 458.045
28.36000 436.184
28.40000 443.311
28.44000 431.184
28.48000 453.643
28.52000 430.517
28.56000 429.860
28.60000 446.762
28.64000 434.882
28.68000 439.059
28.72000 447.950
28.76000 427.778
28.80000 449.039
28.84000 435.299
28.88000 426.355
28.92000 436.785
28.96000 423.702
29.00000 435.551
29.04000 436.936
29.08000 439.553
29.12000 427.664
29.16000 432.356
29.20000 420.608
29.24000 421.502
29.28000 425.154
29.32000 443.119
29.36000 412.873
29.40000 421.394
29.44000 427.675
29.48000 437.495
29.52000 419.747
29.56000 434.521
29.60000 444.499
29.64000 430.719
29.68000 449.690
29.72000 429.313
29.76000 445.943
29.80000 450.984
29.84000 444.718
29.88000 462.665
29.92000 456.132
29.96000 478.085
30.00000 471.529
30.04000 471.750
30.08000 470.763
30.12000 456.949
30.16000 460.846
30.20000 452.540
30.24000 434.579
30.28000 446.244
30.32000 457.302
30.36000 459.139
30.40000 431.862
30.44000 434.315
30.48000 441.779
30.52000 454.082
30.56000 451.892
30.60000 448.201
30.64000 470.900
30.68000 451.214
30.72000 462.372
30.76000 472.612
30.80000 486.852
30.84000 506.562
30.88000 529.369
30.92000 566.740
30.96000 617.392
31.00000 702.076
31.04000 895.313
31.08000 1155.393
31.12000 1579.443
31.16000 2124.377
31.20000 2805.524
31.24000 3484.653
31.28000 4030.286
31.32000 4273.128
31.36000 4158.141
31.40000 3786.884
31.44000 3129.639
31.48000 2405.954
31.52000 1736.013
31.56000 1231.545
31.60000 912.942
31.64000 719.213
31.68000 604.374
31.72000 536.093
31.76000 504.603
31.80000 480.235
31.84000 466.666
31.88000 453.043
31.92000 439.104
31.96000 430.825
32.00000 429.159
32.04000 424.763
32.08000 414.601
32.12000 427.858
32.16000 421.069
32.20000 418.204
32.24000 411.527
32.28000 414.598
32.32000 413.283
32.36000 403.984
32.40000 404.357
32.44000 400.479
32.48000 385.303
32.52000 378.416
32.56000 405.997
32.60000 380.936
32.64000 380.052
32.68000 382.569
32.72000 381.738
32.76000 379.139
32.80000 377.112
32.84000 416.947
32.88000 433.999
32.92000 464.142
32.96000 478.907
33.00000 493.563
33.04000 481.599
33.08000 458.548
33.12000 425.651
33.16000 414.858
33.20000 391.860
33.24000 372.701
33.28000 373.269
33.32000 361.906
33.36000 345.029
33.40000 359.252
33.44000 352.817
33.48000 358.279
33.52000 340.934
33.56000 340.956
33.60000 355.264
33.64000 342.164
33.68000 345.650
33.72000 342.240
33.76000 329.882
33.80000 362.781
33.84000 353.351
33.88000 343.397
33.92000 347.131
33.96000 347.300
34.00000 332.946
34.04000 338.751
34.08000 339.698
34.12000 339.550
34.16000 353.672
34.20000 350.553
34.24000 343.200
34.28000 343.187
34.32000 336.064
34.36000 332.480
34.40000 322.336
34.44000 331.397
34.48000 331.149
34.52000 346.104
34.56000 332.749
34.60000 331.227
34.64000 333.487
34.68000 320.638
34.72000 330.336
34.76000 334.180
34.80000 340.540
34.84000 323.733
34.88000 328.974
34.92000 326.825
34.96000 327.894
35.00000 325.750
35.04000 320.087
35.08000 320.542
35.12000 343.218
35.16000 324.452
35.20000 327.293
35.24000 331.102
35.28000 336.308
35.32000 328.613
35.36000 319.880
35.40000 316.232
35.44000 335.985
35.48000 311.126
35.52000 319.852
35.56000 317.949
35.60000 324.204
35.64000 311.735
35.68000 312.416
35.72000 313.051
35.76000 320.910
35.80000 305.839
35.84000 310.921
35.88000 323.557
35.92000 308.612
35.96000 307.721
36.00000 305.186
36.04000 321.939
36.08000 302.661
36.12000 321.017
36.16000 292.285
36.20000 307.694
36.24000 328.046
36.28000 290.806
36.32000 296.320
36.36000 313.999
36.40000 313.352
36.44000 315.871
36.48000 301.618
36.52000 319.127
36.56000 293.884
36.60000 314.106
36.64000 319.246
36.68000 309.051
36.72000 296.592
36.76000 306.677
36.80000 311.250
36.84000 311.096
36.88000 307.516
36.92000 315.428
36.96000 306.480
37.00000 313.799
37.04000 309.180
37.08000 290.098
37.12000 307.974
37.16000 311.700
37.20000 296.358
37.24000 301.759
37.28000 314.236
37.32000 296.030
37.36000 301.254
37.40000 305.068
37.44000 298.025
37.48000 294.026
37.52000 298.789
37.56000 306.556
37.60000 306.987
37.64000 287.199
37.68000 294.692
37.72000 289.605
37.76000 296.455
37.80000 308.215
37.84000 300.349
37.88000 309.014
37.92000 320.248
37.96000 294.698
38.00000 303.972
38.04000 300.656
38.08000 304.370
38.12000 311.630
38.16000 304.964
38.20000 335.104
38.24000 309.400
38.28000 324.760
38.32000 345.547
38.36000 342.271
38.40000 356.652
38.44000 391.626
38.48000 444.144
38.52000 486.724
38.56000 528.983
38.60000 575.977
38.64000 612.974
38.68000 617.866
38.72000 600.115
38.76000 539.738
38.80000 490.708
38.84000 433.990
38.88000 398.459
38.92000 347.347
38.96000 329.608
39.00000 302.459
39.04000 289.646
39.08000 304.099
39.12000 296.915
39.16000 278.067
39.20000 282.529
39.24000 283.039
39.28000 273.423
39.32000 273.326
39.36000 296.401
39.40000 274.943
39.44000 276.501
39.48000 278.636
39.52000 274.202
39.56000 274.866
39.60000 266.300
39.64000 267.066
39.68000 284.335
39.72000 275.841
39.76000 283.548
39.80000 266.190
39.84000 261.319
39.88000 276.626
39.92000 260.862
39.96000 265.210
40.00000 248.423
40.04000 260.251
40.08000 265.038
40.12000 258.809
40.16000 275.466
40.20000 266.181
40.24000 263.521
40.28000 272.283
40.32000 258.950
40.36000 258.045
40.40000 252.929
40.44000 263.905
40.48000 255.159
40.52000 253.614
40.56000 258.787
40.60000 247.026
40.64000 247.628
40.68000 256.665
40.72000 255.497
40.76000 262.547
40.80000 247.933
40.84000 253.558
40.88000 248.414
40.92000 250.314
40.96000 252.286
41.00000 256.554
41.04000 262.680
41.08000 257.153
41.12000 258.960
41.16000 246.285
41.20000 264.070
41.24000 253.245
41.28000 261.699
41.32000 257.412
41.36000 254.542
41.40000 249.166
41.44000 237.337
41.48000 255.347
41.52000 237.006
41.56000 251.649
41.60000 242.127
41.64000 253.058
41.68000 240.886
41.72000 253.160
41.76000 247.500
41.80000 243.414
41.84000 234.623
41.88000 247.690
41.92000 234.197
41.96000 239.232
42.00000 239.786
42.04000 239.787
42.08000 243.852
42.12000 245.337
42.16000 230.897
42.20000 240.009
42.24000 232.896
42.28000 244.613
42.32000 244.154
42.36000 247.781
42.40000 247.102
42.44000 244.509
42.48000 233.240
42.52000 239.032
42.56000 242.405
42.60000 237.224
42.64000 232.116
42.68000 236.959
42.72000 235.263
42.76000 250.511
42.80000 229.858
42.84000 240.903
42.88000 248.947
42.92000 233.712
42.96000 245.346
43.00000 233.944
43.04000 236.971
43.08000 238.568
43.12000 232.100
43.16000 239.983
43.20000 235.464
43.24000 245.602
43.28000 221.177
43.32000 225.593
43.36000 236.760
43.40000 240.286
43.44000 229.136
43.48000 219.324
43.52000 228.700
43.56000 227.831
43.60000 228.851
43.64000 214.120
43.68000 222.560
43.72000 228.094
43.76000 228.057
43.80000 236.870
43.84000 232.405
43.88000 232.042
43.92000 213.514
43.96000 229.924
44.00000 235.118
44.04000 237.695
44.08000 222.910
44.12000 237.405
44.16000 236.786
44.20000 247.284
44.24000 223.235
44.28000 233.240
44.32000 230.461
44.36000 234.809
44.40000 244.619
44.44000 240.727
44.48000 241.989
44.52000 247.386
44.56000 244.831
44.60000 256.791
44.64000 270.433
44.68000 301.693
44.72000 331.817
44.76000 360.782
44.80000 406.575
44.84000 459.221
44.88000 522.131
44.92000 546.646
44.96000 569.653
45.00000 555.948
45.04000 540.782
45.08000 492.128
45.12000 473.959
45.16000 435.419
45.20000 374.332
45.24000 342.138
45.28000 325.754
45.32000 291.828
45.36000 290.371
45.40000 268.815
45.44000 248.437
45.48000 239.703
45.52000 246.655
45.56000 228.605
45.60000 239.173
45.64000 218.327
45.68000 221.191
45.72000 217.117
45.76000 215.059
45.80000 221.082
45.84000 217.135
45.88000 213.809
45.92000 212.997
45.96000 211.905
46.00000 214.511
46.04000 214.138
46.08000 220.218
46.12000 218.960
46.16000 224.279
46.20000 227.744
46.24000 220.272
46.28000 206.035
46.32000 217.872
46.36000 204.352
46.40000 218.575
46.44000 208.340
46.48000 203.666
46.52000 202.232
46.56000 202.414
46.60000 196.784
46.64000 207.813
46.68000 199.235
46.72000 208.656
46.76000 210.068
46.80000 198.108
46.84000 197.132
46.88000 204.405
46.92000 194.700
46.96000 212.810
47.00000 204.238
47.04000 198.393
47.08000 188.556
47.12000 203.374
47.16000 197.957
47.20000 193.261
47.24000 198.782
47.28000 195.798
47.32000 198.497
47.36000 199.107
47.40000 202.418
47.44000 203.232
47.48000 189.618
47.52000 178.602
47.56000 190.829
47.60000 186.183
47.64000 204.204
47.68000 194.544
47.72000 185.834
47.76000 194.425
47.80000 196.058
47.84000 201.509
47.88000 192.510
47.92000 193.181
47.96000 175.291
48.00000 196.400
48.04000 199.389
48.08000 181.889
48.12000 185.309
48.16000 173.329
48.20000 187.553
48.24000 196.297
48.28000 189.791
48.32000 189.369
48.36000 193.378
48.40000 189.010
48.44000 187.072
48.48000 178.960
48.52000 186.161
48.56000 189.072
48.60000 177.735
48.64000 191.008
48.68000 179.790
48.72000 190.123
48.76000 183.830
48.80000 188.931
48.84000 184.373
48.88000 184.942
48.92000 191.720
48.96000 174.626
49.00000 182.941
49.04000 185.054
49.08000 180.220
49.12000 192.035
49.16000 182.539
49.20000 185.087
49.24000 192.118
49.28000 191.933
49.32000 187.679
49.36000 189.380
49.40000 173.238
49.44000 194.778
49.48000 190.163
49.52000 194.533
49.56000 186.772
49.60000 176.969
49.64000 174.925
49.68000 185.207
49.72000 182.305
49.76000 172.870
49.80000 179.876
49.84000 185.473
49.88000 185.924
49.92000 185.722
49.96000 182.418
50.00000 176.874
50.04000 184.366
50.08000 186.664
50.12000 178.852
50.16000 183.438
50.20000 184.816
50.24000 201.394
50.28000 196.345
50.32000 211.183
50.36000 217.520
50.40000 237.966
50.44000 247.636
50.48000 270.418
50.52000 262.648
50.56000 285.054
50.60000 302.773
50.64000 309.205
50.68000 294.377
50.72000 304.315
50.76000 278.201
50.80000 253.917
50.84000 245.784
50.88000 221.000
50.92000 205.537
50.96000 203.935
51.00000 194.880
51.04000 173.296
51.08000 181.161
51.12000 192.136
51.16000 178.106
51.20000 180.561
51.24000 179.919
51.28000 170.583
51.32000 173.848
51.36000 166.592
51.40000 168.140
51.44000 164.533
51.48000 177.925
51.52000 177.490
51.56000 167.047
51.60000 167.081
51.64000 163.925
51.68000 159.791
51.72000 170.045
51.76000 163.180
51.80000 174.761
51.84000 163.482
51.88000 158.804
51.92000 177.850
51.96000 170.302
52.00000 172.033
52.04000 164.036
52.08000 162.544
52.12000 172.418
52.16000 161.527
52.20000 176.036
52.24000 169.716
52.28000 167.256
52.32000 153.990
52.36000 155.701
52.40000 164.809
52.44000 162.782
52.48000 165.088
52.52000 175.470
52.56000 161.008
52.60000 169.631
52.64000 162.389
52.68000 167.305
52.72000 164.538
52.76000 173.741
52.80000 158.837
52.84000 166.330
52.88000 157.819
52.92000 165.912
52.96000 161.831
53.00000 175.371
53.04000 169.693
53.08000 172.315
53.12000 158.406
53.16000 168.912
53.20000 159.376
53.24000 165.108
53.28000 157.996
53.32000 175.312
53.36000 160.865
53.40000 169.512
53.44000 171.367
53.48000 157.765
53.52000 159.075
53.56000 158.623
53.60000 168.215
53.64000 149.832
53.68000 156.977
53.72000 165.167
53.76000 161.856
53.80000 157.715
53.84000 156.592
53.88000 153.519
53.92000 153.893
53.96000 159.157
54.00000 162.727
54.04000 158.341
54.08000 156.497
54.12000 159.178
54.16000 170.215
54.20000 158.843
54.24000 165.926
54.28000 155.927
54.32000 163.802
54.36000 167.622
54.40000 155.750
54.44000 160.597
54.48000 159.723
54.52000 154.688
54.56000 159.278
54.60000 154.192
54.64000 167.647
54.68000 154.205
54.72000 153.669
54.76000 167.561
54.80000 177.362
54.84000 171.566
54.88000 158.982
54.92000 156.691
54.96000 151.851
55.00000 150.038
55.04000 159.970
55.08000 159.281
55.12000 165.886
55.16000 166.666
55.20000 170.627
55.24000 173.727
55.28000 182.373
55.32000 181.625
55.36000 193.944
55.40000 186.549
55.44000 197.342
55.48000 217.206
55.52000 261.584
55.56000 275.048
55.60000 332.097
55.64000 388.846
55.68000 446.257
55.72000 508.201
55.76000 587.286
55.80000 645.321
55.84000 671.825
55.88000 652.328
55.92000 625.961
55.96000 580.380
56.00000 500.432
56.04000 439.398
56.08000 379.456
56.12000 316.455
56.16000 281.193
56.20000 248.080
56.24000 229.171
56.28000 203.072
56.32000 183.065
56.36000 182.794
56.40000 162.498
56.44000 174.141
56.48000 166.589
56.52000 159.966
56.56000 170.482
56.60000 161.740
56.64000 154.229
56.68000 150.894
56.72000 154.797
56.76000 154.713
56.80000 151.720
56.84000 161.344
56.88000 165.625
56.92000 149.681
56.96000 147.244
57.00000 153.150
57.04000 156.981
57.08000 157.101
57.12000 148.558
57.16000 141.734
57.20000 145.363
57.24000 150.755
57.28000 136.249
57.32000 155.397
57.36000 156.801
57.40000 143.147
57.44000 141.511
57.48000 146.090
57.52000 140.753
57.56000 139.661
57.60000 143.057
57.64000 145.306
57.68000 143.504
57.72000 149.940
57.76000 139.752
57.80000 150.234
57.84000 146.510
57.88000 158.615
57.92000 140.106
57.96000 140.065
58.00000 135.754
58.04000 143.208
58.08000 134.731
58.12000 140.724
58.16000 145.422
58.20000 137.341
58.24000 137.109
58.28000 146.432
58.32000 138.650
58.36000 136.921
58.40000 130.343
58.44000 144.489
58.48000 145.571
58.52000 146.266
58.56000 139.670
58.60000 130.548
58.64000 136.047
58.68000 140.740
58.72000 134.463
58.76000 144.008
58.80000 141.896
58.84000 142.371
58.88000 134.248
58.92000 130.415
58.96000 147.178
59.00000 130.097
59.04000 137.881
59.08000 139.949
59.12000 131.494
59.16000 127.777
59.20000 132.527
59.24000 132.584
59.28000 140.183
59.32000 138.632
59.36000 142.309
59.40000 136.114
59.44000 137.923
59.48000 128.794
59.52000 136.473
59.56000 144.522
59.60000 134.148
59.64000 127.995
59.68000 139.883
59.72000 136.338
59.76000 131.951
59.80000 141.476
59.84000 144.622
59.88000 135.332
59.92000 137.039
59.96000 129.460
60.00000 138.443
60.04000 132.410
60.08000 137.125
60.12000 138.031
60.16000 138.063
60.20000 135.324
60.24000 140.365
60.28000 129.254
60.32000 133.234
60.36000 134.456
60.40000 132.843
60.44000 145.045
60.48000 120.571
60.52000 135.857
60.56000 147.334
60.60000 141.262
60.64000 134.794
60.68000 136.964
60.72000 142.206
60.76000 141.686
60.80000 127.789
60.84000 133.685
60.88000 139.724
60.92000 141.461
60.96000 129.777
61.00000 130.408
61.04000 139.458
61.08000 133.837
61.12000 133.408
61.16000 132.443
61.20000 139.481
61.24000 143.750
61.28000 139.881
61.32000 133.825
61.36000 141.265
61.40000 143.294
61.44000 143.642
61.48000 156.101
61.52000 179.327
61.56000 236.953
61.60000 282.404
61.64000 332.129
61.68000 346.308
61.72000 330.586
61.76000 316.485
61.80000 242.828
61.84000 190.522
61.88000 168.113
61.92000 149.137
61.96000 147.904
62.00000 141.842
62.04000 146.235
62.08000 145.957
62.12000 146.257
62.16000 142.034
62.20000 142.225
62.24000 142.905
62.28000 139.066
62.32000 138.125
62.36000 146.696
62.40000 148.790
62.44000 137.118
62.48000 144.163
62.52000 155.883
62.56000 153.403
62.60000 149.411
62.64000 154.902
62.68000 141.707
62.72000 144.178
62.76000 145.974
62.80000 145.212
62.84000 148.263
62.88000 151.306
62.92000 151.524
62.96000 139.530
63.00000 150.202
63.04000 143.965
63.08000 141.281
63.12000 161.527
63.16000 156.408
63.20000 156.385
63.24000 157.806
63.28000 141.805
63.32000 153.689
63.36000 151.788
63.40000 154.305
63.44000 146.548
63.48000 159.228
63.52000 158.427
63.56000 145.753
63.60000 152.935
63.64000 153.233
63.68000 147.132
63.72000 155.320
63.76000 164.162
63.80000 157.182
63.84000 157.243
63.88000 163.465
63.92000 156.176
63.96000 169.604
64.00000 175.082
64.04000 155.083
64.08000 156.490
64.12000 162.816
64.16000 160.151
64.20000 163.074
64.24000 174.058
64.28000 164.064
64.32000 164.584
64.36000 168.112
64.40000 172.276
64.44000 179.541
64.48000 180.209
64.52000 180.234
64.56000 165.254
64.60000 175.919
64.64000 176.299
64.68000 182.355
64.72000 182.429
64.76000 182.726
64.80000 181.727
64.84000 174.475
64.88000 196.617
64.92000 212.244
64.96000 213.114
65.00000 202.734
65.04000 216.524
65.08000 227.588
65.12000 248.185
65.16000 265.563
65.20000 282.880
65.24000 313.580
65.28000 350.269
65.32000 380.581
65.36000 391.136
65.40000 438.147
65.44000 452.629
65.48000 455.838
65.52000 455.678
65.56000 462.432
65.60000 463.437
65.64000 493.937
65.68000 551.271
65.72000 766.303
65.76000 1017.390
65.80000 1268.612
65.84000 1376.881
65.88000 1365.493
65.92000 1317.809
65.96000 1083.429
66.00000 752.243
66.04000 504.349
66.08000 395.694
66.12000 345.026
66.16000 327.876
66.20000 334.645
66.24000 355.563
66.28000 412.675
66.32000 456.132
66.36000 495.763
66.40000 517.267
66.44000 507.982
66.48000 509.996
66.52000 459.562
66.56000 391.756
66.60000 363.248
66.64000 336.097
66.68000 321.074
66.72000 354.334
66.76000 354.810
66.80000 341.718
66.84000 347.551
66.88000 356.872
66.92000 349.773
66.96000 350.159
67.00000 376.963
67.04000 382.581
67.08000 385.224
67.12000 389.424
67.16000 408.181
67.20000 406.764
67.24000 415.809
67.28000 406.519
67.32000 426.518
67.36000 419.835
67.40000 439.688
67.44000 447.292
67.48000 462.840
67.52000 456.630
67.56000 481.654
67.60000 499.217
67.64000 489.732
67.68000 515.282
67.72000 528.781
67.76000 516.003
67.80000 512.655
67.84000 563.766
67.88000 561.441
67.92000 534.789
67.96000 575.839
68.00000 595.046
68.04000 628.403
68.08000 621.996
68.12000 625.397
68.16000 665.401
68.20000 680.742
68.24000 680.145
68.28000 710.704
68.32000 728.095
68.36000 775.303
68.40000 788.600
68.44000 821.519
68.48000 853.496
68.52000 921.664
68.56000 1050.442
68.60000 1151.872
68.64000 1397.033
68.68000 1659.261
68.72000 1914.823
68.76000 2175.577
68.80000 2531.805
68.84000 3000.283
68.88000 3797.507
68.92000 8562.509
68.96000 20744.982
69.00000 45104.047
69.04000 68130.469
69.08000 78894.047
69.12000 81538.758
69.16000 84694.828
69.20000 82045.117
69.24000 67950.539
69.28000 52860.500
69.32000 43983.715
69.36000 39107.945
69.40000 30801.803
69.44000 18052.176
69.48000 8319.528
69.52000 3869.427
69.56000 2274.672
69.60000 1766.977
69.64000 1506.081
69.68000 1336.194
69.72000 1170.068
69.76000 1097.331
69.80000 1011.405
69.84000 954.015
69.88000 904.323
69.92000 851.557
69.96000 823.627
70.00000 789.886