File: XRD/30-09-2025 Dep 1/XY Data/BTO_Mapping_Theta2Theta_30-09-2025_001_30_-9-781_2-079.xy
20.00000 580.793
20.04000 572.099
20.08000 573.491
20.12000 562.760
20.16000 571.477
20.20000 557.277
20.24000 562.641
20.28000 549.488
20.32000 542.549
20.36000 583.438
20.40000 556.485
20.44000 572.678
20.48000 569.272
20.52000 538.060
20.56000 543.975
20.60000 557.944
20.64000 589.227
20.68000 558.701
20.72000 566.688
20.76000 565.729
20.80000 562.808
20.84000 547.648
20.88000 549.399
20.92000 555.052
20.96000 541.528
21.00000 547.644
21.04000 564.117
21.08000 576.605
21.12000 560.499
21.16000 560.064
21.20000 559.984
21.24000 546.985
21.28000 550.249
21.32000 562.785
21.36000 556.587
21.40000 554.006
21.44000 566.293
21.48000 552.606
21.52000 543.170
21.56000 554.125
21.60000 577.532
21.64000 561.005
21.68000 556.680
21.72000 559.968
21.76000 564.457
21.80000 605.195
21.84000 598.923
21.88000 619.042
21.92000 667.621
21.96000 687.712
22.00000 726.948
22.04000 747.794
22.08000 757.084
22.12000 738.256
22.16000 695.736
22.20000 683.220
22.24000 638.745
22.28000 612.739
22.32000 566.412
22.36000 576.037
22.40000 559.791
22.44000 572.235
22.48000 548.513
22.52000 552.705
22.56000 538.586
22.60000 558.799
22.64000 521.188
22.68000 516.806
22.72000 533.249
22.76000 538.659
22.80000 519.878
22.84000 516.631
22.88000 522.013
22.92000 537.263
22.96000 538.565
23.00000 538.580
23.04000 510.607
23.08000 533.476
23.12000 505.301
23.16000 527.629
23.20000 494.487
23.24000 514.843
23.28000 504.846
23.32000 514.471
23.36000 505.601
23.40000 512.434
23.44000 504.560
23.48000 511.948
23.52000 512.003
23.56000 496.387
23.60000 506.551
23.64000 505.910
23.68000 504.911
23.72000 532.605
23.76000 510.073
23.80000 496.376
23.84000 509.931
23.88000 513.504
23.92000 522.715
23.96000 538.972
24.00000 535.997
24.04000 554.420
24.08000 532.688
24.12000 558.501
24.16000 531.702
24.20000 534.264
24.24000 540.683
24.28000 517.446
24.32000 520.744
24.36000 533.329
24.40000 511.912
24.44000 509.508
24.48000 496.256
24.52000 498.123
24.56000 511.302
24.60000 502.575
24.64000 514.208
24.68000 507.858
24.72000 488.096
24.76000 486.294
24.80000 503.460
24.84000 501.108
24.88000 480.824
24.92000 486.507
24.96000 490.549
25.00000 482.925
25.04000 486.761
25.08000 501.266
25.12000 477.355
25.16000 467.598
25.20000 487.590
25.24000 482.184
25.28000 463.169
25.32000 471.760
25.36000 487.433
25.40000 476.031
25.44000 473.838
25.48000 465.115
25.52000 477.580
25.56000 461.158
25.60000 464.652
25.64000 451.699
25.68000 481.665
25.72000 455.320
25.76000 461.950
25.80000 480.816
25.84000 480.239
25.88000 484.874
25.92000 470.824
25.96000 468.947
26.00000 457.986
26.04000 459.513
26.08000 459.470
26.12000 462.938
26.16000 471.620
26.20000 456.349
26.24000 467.373
26.28000 457.640
26.32000 440.864
26.36000 474.668
26.40000 464.641
26.44000 449.271
26.48000 456.542
26.52000 448.303
26.56000 452.118
26.60000 464.514
26.64000 440.923
26.68000 444.180
26.72000 450.212
26.76000 448.018
26.80000 458.375
26.84000 446.246
26.88000 446.705
26.92000 461.048
26.96000 441.566
27.00000 438.778
27.04000 443.520
27.08000 448.986
27.12000 477.931
27.16000 460.353
27.20000 454.492
27.24000 452.185
27.28000 436.615
27.32000 455.981
27.36000 437.927
27.40000 469.119
27.44000 439.606
27.48000 449.741
27.52000 431.935
27.56000 437.967
27.60000 438.880
27.64000 443.829
27.68000 456.601
27.72000 442.348
27.76000 439.658
27.80000 436.919
27.84000 428.364
27.88000 454.555
27.92000 438.339
27.96000 433.219
28.00000 431.161
28.04000 432.866
28.08000 427.953
28.12000 435.805
28.16000 420.235
28.20000 445.509
28.24000 436.898
28.28000 431.842
28.32000 446.444
28.36000 412.397
28.40000 420.388
28.44000 426.437
28.48000 437.754
28.52000 423.201
28.56000 424.990
28.60000 425.554
28.64000 439.939
28.68000 430.518
28.72000 412.703
28.76000 399.037
28.80000 423.876
28.84000 424.790
28.88000 430.804
28.92000 408.561
28.96000 410.132
29.00000 438.081
29.04000 429.177
29.08000 409.877
29.12000 420.286
29.16000 418.127
29.20000 409.246
29.24000 442.599
29.28000 418.411
29.32000 413.119
29.36000 419.306
29.40000 418.222
29.44000 414.453
29.48000 417.190
29.52000 430.674
29.56000 422.409
29.60000 405.959
29.64000 423.031
29.68000 404.225
29.72000 429.021
29.76000 417.775
29.80000 413.964
29.84000 435.193
29.88000 437.876
29.92000 433.797
29.96000 444.808
30.00000 453.806
30.04000 450.998
30.08000 447.266
30.12000 457.103
30.16000 455.092
30.20000 432.892
30.24000 434.699
30.28000 409.285
30.32000 413.462
30.36000 429.229
30.40000 420.409
30.44000 404.648
30.48000 421.037
30.52000 439.291
30.56000 426.368
30.60000 432.641
30.64000 417.750
30.68000 430.148
30.72000 456.374
30.76000 462.078
30.80000 469.737
30.84000 454.409
30.88000 478.929
30.92000 504.774
30.96000 531.593
31.00000 564.640
31.04000 627.708
31.08000 740.308
31.12000 905.399
31.16000 1200.605
31.20000 1561.758
31.24000 2110.125
31.28000 2669.917
31.32000 3149.169
31.36000 3464.063
31.40000 3597.596
31.44000 3323.177
31.48000 2852.787
31.52000 2312.232
31.56000 1712.145
31.60000 1264.671
31.64000 918.639
31.68000 713.788
31.72000 586.038
31.76000 527.236
31.80000 488.081
31.84000 452.389
31.88000 463.388
31.92000 444.424
31.96000 427.421
32.00000 435.113
32.04000 412.055
32.08000 411.640
32.12000 395.823
32.16000 413.449
32.20000 425.963
32.24000 418.961
32.28000 394.351
32.32000 399.141
32.36000 388.751
32.40000 388.837
32.44000 380.168
32.48000 380.674
32.52000 388.511
32.56000 384.944
32.60000 378.790
32.64000 374.365
32.68000 384.379
32.72000 378.861
32.76000 365.727
32.80000 365.000
32.84000 385.845
32.88000 394.809
32.92000 405.789
32.96000 425.197
33.00000 431.489
33.04000 403.493
33.08000 428.479
33.12000 396.066
33.16000 389.986
33.20000 358.327
33.24000 358.415
33.28000 356.614
33.32000 345.242
33.36000 346.498
33.40000 354.906
33.44000 341.914
33.48000 341.645
33.52000 348.682
33.56000 354.548
33.60000 341.695
33.64000 347.091
33.68000 354.390
33.72000 349.187
33.76000 345.884
33.80000 359.352
33.84000 338.840
33.88000 322.968
33.92000 354.476
33.96000 326.598
34.00000 336.016
34.04000 330.194
34.08000 345.402
34.12000 341.791
34.16000 339.926
34.20000 330.309
34.24000 331.333
34.28000 351.617
34.32000 341.990
34.36000 330.099
34.40000 320.690
34.44000 339.776
34.48000 337.015
34.52000 335.197
34.56000 343.650
34.60000 367.303
34.64000 321.274
34.68000 330.862
34.72000 333.209
34.76000 327.520
34.80000 335.090
34.84000 330.910
34.88000 333.087
34.92000 324.704
34.96000 328.978
35.00000 327.461
35.04000 300.380
35.08000 323.013
35.12000 330.773
35.16000 318.464
35.20000 314.752
35.24000 324.333
35.28000 317.193
35.32000 319.599
35.36000 318.230
35.40000 313.812
35.44000 316.193
35.48000 318.271
35.52000 304.816
35.56000 317.206
35.60000 320.223
35.64000 344.943
35.68000 314.115
35.72000 330.882
35.76000 315.110
35.80000 308.452
35.84000 314.459
35.88000 306.690
35.92000 306.359
35.96000 302.342
36.00000 301.358
36.04000 316.253
36.08000 301.863
36.12000 290.360
36.16000 299.452
36.20000 296.113
36.24000 298.240
36.28000 306.551
36.32000 313.134
36.36000 288.078
36.40000 290.782
36.44000 287.581
36.48000 296.365
36.52000 312.179
36.56000 293.881
36.60000 308.077
36.64000 309.942
36.68000 312.754
36.72000 294.206
36.76000 316.629
36.80000 299.158
36.84000 297.103
36.88000 290.121
36.92000 302.739
36.96000 308.635
37.00000 313.159
37.04000 316.421
37.08000 308.415
37.12000 311.735
37.16000 320.256
37.20000 336.895
37.24000 296.761
37.28000 289.525
37.32000 291.683
37.36000 292.327
37.40000 294.803
37.44000 303.742
37.48000 297.045
37.52000 300.155
37.56000 290.289
37.60000 300.686
37.64000 290.360
37.68000 284.312
37.72000 288.024
37.76000 302.097
37.80000 309.877
37.84000 304.711
37.88000 289.733
37.92000 292.666
37.96000 310.242
38.00000 303.294
38.04000 299.625
38.08000 298.777
38.12000 281.602
38.16000 319.650
38.20000 309.096
38.24000 298.160
38.28000 311.907
38.32000 313.559
38.36000 329.235
38.40000 350.211
38.44000 374.474
38.48000 408.957
38.52000 473.431
38.56000 571.478
38.60000 688.606
38.64000 764.040
38.68000 845.583
38.72000 865.912
38.76000 870.464
38.80000 820.800
38.84000 714.659
38.88000 611.923
38.92000 531.541
38.96000 437.763
39.00000 375.297
39.04000 342.961
39.08000 313.405
39.12000 315.101
39.16000 305.850
39.20000 283.659
39.24000 277.077
39.28000 287.860
39.32000 282.635
39.36000 270.794
39.40000 264.015
39.44000 277.720
39.48000 292.262
39.52000 275.854
39.56000 277.976
39.60000 267.657
39.64000 263.940
39.68000 268.307
39.72000 263.948
39.76000 268.471
39.80000 257.421
39.84000 265.670
39.88000 264.705
39.92000 264.773
39.96000 265.280
40.00000 252.888
40.04000 252.766
40.08000 274.782
40.12000 263.667
40.16000 262.137
40.20000 260.287
40.24000 250.111
40.28000 260.825
40.32000 259.617
40.36000 260.124
40.40000 262.273
40.44000 255.516
40.48000 251.944
40.52000 256.071
40.56000 261.565
40.60000 253.361
40.64000 251.661
40.68000 258.623
40.72000 249.179
40.76000 260.033
40.80000 257.424
40.84000 250.855
40.88000 259.217
40.92000 255.519
40.96000 244.027
41.00000 248.078
41.04000 252.180
41.08000 251.646
41.12000 248.911
41.16000 257.922
41.20000 256.404
41.24000 253.875
41.28000 250.372
41.32000 238.636
41.36000 257.626
41.40000 242.310
41.44000 242.193
41.48000 242.585
41.52000 237.489
41.56000 239.159
41.60000 243.469
41.64000 244.019
41.68000 253.372
41.72000 237.246
41.76000 240.668
41.80000 237.047
41.84000 221.451
41.88000 240.220
41.92000 229.397
41.96000 248.328
42.00000 239.238
42.04000 230.774
42.08000 247.416
42.12000 240.600
42.16000 234.312
42.20000 230.091
42.24000 230.547
42.28000 239.839
42.32000 241.658
42.36000 236.122
42.40000 250.682
42.44000 244.877
42.48000 238.233
42.52000 231.396
42.56000 245.678
42.60000 248.581
42.64000 243.249
42.68000 250.428
42.72000 235.315
42.76000 247.529
42.80000 227.942
42.84000 242.609
42.88000 238.734
42.92000 232.278
42.96000 224.807
43.00000 232.771
43.04000 226.588
43.08000 223.037
43.12000 231.752
43.16000 239.850
43.20000 242.328
43.24000 225.799
43.28000 231.313
43.32000 227.163
43.36000 219.283
43.40000 221.871
43.44000 231.978
43.48000 225.774
43.52000 221.014
43.56000 223.427
43.60000 229.510
43.64000 231.756
43.68000 222.558
43.72000 227.538
43.76000 219.833
43.80000 208.386
43.84000 224.969
43.88000 219.550
43.92000 220.753
43.96000 235.299
44.00000 231.965
44.04000 216.904
44.08000 219.559
44.12000 236.085
44.16000 210.674
44.20000 223.548
44.24000 214.572
44.28000 223.765
44.32000 226.178
44.36000 234.111
44.40000 237.974
44.44000 236.796
44.48000 226.117
44.52000 237.917
44.56000 230.005
44.60000 238.005
44.64000 236.010
44.68000 241.198
44.72000 253.328
44.76000 246.658
44.80000 266.308
44.84000 287.713
44.88000 305.600
44.92000 319.499
44.96000 358.541
45.00000 369.778
45.04000 412.958
45.08000 402.389
45.12000 407.132
45.16000 397.700
45.20000 366.694
45.24000 364.292
45.28000 330.147
45.32000 302.729
45.36000 298.850
45.40000 266.711
45.44000 263.000
45.48000 248.243
45.52000 239.027
45.56000 229.370
45.60000 222.657
45.64000 219.289
45.68000 222.878
45.72000 213.665
45.76000 218.432
45.80000 199.113
45.84000 208.132
45.88000 204.308
45.92000 204.296
45.96000 196.421
46.00000 216.041
46.04000 212.409
46.08000 201.225
46.12000 207.154
46.16000 198.753
46.20000 200.507
46.24000 204.752
46.28000 201.603
46.32000 194.705
46.36000 196.660
46.40000 219.103
46.44000 210.891
46.48000 211.648
46.52000 199.404
46.56000 189.642
46.60000 217.130
46.64000 205.370
46.68000 211.993
46.72000 207.696
46.76000 200.955
46.80000 204.039
46.84000 198.364
46.88000 200.910
46.92000 196.128
46.96000 187.900
47.00000 199.061
47.04000 197.422
47.08000 199.617
47.12000 197.042
47.16000 204.734
47.20000 193.315
47.24000 186.333
47.28000 190.492
47.32000 199.161
47.36000 201.250
47.40000 196.474
47.44000 189.440
47.48000 196.000
47.52000 186.177
47.56000 182.076
47.60000 191.225
47.64000 202.039
47.68000 189.871
47.72000 182.699
47.76000 205.542
47.80000 188.104
47.84000 188.247
47.88000 199.002
47.92000 187.319
47.96000 183.467
48.00000 186.351
48.04000 181.833
48.08000 184.901
48.12000 196.398
48.16000 181.504
48.20000 181.773
48.24000 173.636
48.28000 192.273
48.32000 182.262
48.36000 179.655
48.40000 188.617
48.44000 193.283
48.48000 188.836
48.52000 186.750
48.56000 184.066
48.60000 187.227
48.64000 181.693
48.68000 197.695
48.72000 183.203
48.76000 189.445
48.80000 178.231
48.84000 178.340
48.88000 186.765
48.92000 188.227
48.96000 184.131
49.00000 176.106
49.04000 183.028
49.08000 187.052
49.12000 181.481
49.16000 188.333
49.20000 167.958
49.24000 188.457
49.28000 180.509
49.32000 171.116
49.36000 179.458
49.40000 184.217
49.44000 183.483
49.48000 187.481
49.52000 181.223
49.56000 170.470
49.60000 179.145
49.64000 187.419
49.68000 173.464
49.72000 174.056
49.76000 183.424
49.80000 184.089
49.84000 172.411
49.88000 168.623
49.92000 190.659
49.96000 180.199
50.00000 180.147
50.04000 178.321
50.08000 167.024
50.12000 177.914
50.16000 182.951
50.20000 181.801
50.24000 180.773
50.28000 188.275
50.32000 187.610
50.36000 175.699
50.40000 188.258
50.44000 199.809
50.48000 215.191
50.52000 226.581
50.56000 240.359
50.60000 259.575
50.64000 263.367
50.68000 266.134
50.72000 270.426
50.76000 272.822
50.80000 263.354
50.84000 238.559
50.88000 240.875
50.92000 223.781
50.96000 190.900
51.00000 219.605
51.04000 201.056
51.08000 180.686
51.12000 178.304
51.16000 184.598
51.20000 181.568
51.24000 186.071
51.28000 173.101
51.32000 167.444
51.36000 167.732
51.40000 174.376
51.44000 168.254
51.48000 167.622
51.52000 160.845
51.56000 165.245
51.60000 162.592
51.64000 169.401
51.68000 165.062
51.72000 156.712
51.76000 162.312
51.80000 165.650
51.84000 159.842
51.88000 163.127
51.92000 154.795
51.96000 163.612
52.00000 164.114
52.04000 168.550
52.08000 159.473
52.12000 166.035
52.16000 161.714
52.20000 164.052
52.24000 163.728
52.28000 162.019
52.32000 155.154
52.36000 159.748
52.40000 154.588
52.44000 157.675
52.48000 154.517
52.52000 155.693
52.56000 155.060
52.60000 159.878
52.64000 154.881
52.68000 153.610
52.72000 165.537
52.76000 154.388
52.80000 166.071
52.84000 166.754
52.88000 153.878
52.92000 164.201
52.96000 150.597
53.00000 172.950
53.04000 167.630
53.08000 151.974
53.12000 160.593
53.16000 163.753
53.20000 157.375
53.24000 167.075
53.28000 167.384
53.32000 169.451
53.36000 164.051
53.40000 169.033
53.44000 165.085
53.48000 157.473
53.52000 159.273
53.56000 168.947
53.60000 163.905
53.64000 164.893
53.68000 149.982
53.72000 159.536
53.76000 149.359
53.80000 151.139
53.84000 164.587
53.88000 162.113
53.92000 157.871
53.96000 160.947
54.00000 162.727
54.04000 156.698
54.08000 154.860
54.12000 150.710
54.16000 152.617
54.20000 160.337
54.24000 165.457
54.28000 141.556
54.32000 161.189
54.36000 162.431
54.40000 155.754
54.44000 160.875
54.48000 156.813
54.52000 155.685
54.56000 165.525
54.60000 151.539
54.64000 156.591
54.68000 151.053
54.72000 152.188
54.76000 152.925
54.80000 147.321
54.84000 164.661
54.88000 161.819
54.92000 162.159
54.96000 158.156
55.00000 159.310
55.04000 163.248
55.08000 175.116
55.12000 168.418
55.16000 159.872
55.20000 163.675
55.24000 170.245
55.28000 167.763
55.32000 179.089
55.36000 170.066
55.40000 183.216
55.44000 173.578
55.48000 191.300
55.52000 185.747
55.56000 211.437
55.60000 239.148
55.64000 254.837
55.68000 292.035
55.72000 332.014
55.76000 408.919
55.80000 477.851
55.84000 544.917
55.88000 609.614
55.92000 632.482
55.96000 641.736
56.00000 628.225
56.04000 598.409
56.08000 522.052
56.12000 451.326
56.16000 388.616
56.20000 333.323
56.24000 290.447
56.28000 252.327
56.32000 231.075
56.36000 200.774
56.40000 195.640
56.44000 188.146
56.48000 182.195
56.52000 171.678
56.56000 154.682
56.60000 164.171
56.64000 158.456
56.68000 165.995
56.72000 160.175
56.76000 153.048
56.80000 145.729
56.84000 154.366
56.88000 153.790
56.92000 164.193
56.96000 153.984
57.00000 152.652
57.04000 139.495
57.08000 158.981
57.12000 144.842
57.16000 140.505
57.20000 147.514
57.24000 151.930
57.28000 145.368
57.32000 145.740
57.36000 149.854
57.40000 140.006
57.44000 134.631
57.48000 140.352
57.52000 135.792
57.56000 146.808
57.60000 153.391
57.64000 147.763
57.68000 149.953
57.72000 142.468
57.76000 140.242
57.80000 138.839
57.84000 151.586
57.88000 143.660
57.92000 142.906
57.96000 139.812
58.00000 141.516
58.04000 142.209
58.08000 152.580
58.12000 144.908
58.16000 147.159
58.20000 130.343
58.24000 143.902
58.28000 144.049
58.32000 138.502
58.36000 131.861
58.40000 140.255
58.44000 147.182
58.48000 139.453
58.52000 139.244
58.56000 144.430
58.60000 130.292
58.64000 134.370
58.68000 130.744
58.72000 128.443
58.76000 144.015
58.80000 135.550
58.84000 135.021
58.88000 139.359
58.92000 143.004
58.96000 120.807
59.00000 136.111
59.04000 134.148
59.08000 135.620
59.12000 145.080
59.16000 134.599
59.20000 135.540
59.24000 142.134
59.28000 137.274
59.32000 140.007
59.36000 128.722
59.40000 140.098
59.44000 133.569
59.48000 134.949
59.52000 134.473
59.56000 134.784
59.60000 133.917
59.64000 140.722
59.68000 133.706
59.72000 143.843
59.76000 130.360
59.80000 128.261
59.84000 144.869
59.88000 137.057
59.92000 141.810
59.96000 136.670
60.00000 127.793
60.04000 134.490
60.08000 138.601
60.12000 139.296
60.16000 140.392
60.20000 135.222
60.24000 133.398
60.28000 121.322
60.32000 127.094
60.36000 125.539
60.40000 127.225
60.44000 138.858
60.48000 139.841
60.52000 134.714
60.56000 138.898
60.60000 141.883
60.64000 131.158
60.68000 130.650
60.72000 136.658
60.76000 141.254
60.80000 140.407
60.84000 134.343
60.88000 131.762
60.92000 149.524
60.96000 134.209
61.00000 141.857
61.04000 135.715
61.08000 134.507
61.12000 138.004
61.16000 137.251
61.20000 131.163
61.24000 141.967
61.28000 141.894
61.32000 135.257
61.36000 143.872
61.40000 140.638
61.44000 142.907
61.48000 142.846
61.52000 167.046
61.56000 188.630
61.60000 233.517
61.64000 272.888
61.68000 286.475
61.72000 292.280
61.76000 283.898
61.80000 242.162
61.84000 185.344
61.88000 160.548
61.92000 147.007
61.96000 138.936
62.00000 135.884
62.04000 133.604
62.08000 145.725
62.12000 144.292
62.16000 142.114
62.20000 143.322
62.24000 137.732
62.28000 146.386
62.32000 138.939
62.36000 145.303
62.40000 141.746
62.44000 135.699
62.48000 148.980
62.52000 146.655
62.56000 142.973
62.60000 139.447
62.64000 137.531
62.68000 142.346
62.72000 144.220
62.76000 141.937
62.80000 139.201
62.84000 129.396
62.88000 143.355
62.92000 141.421
62.96000 141.723
63.00000 147.270
63.04000 142.908
63.08000 158.237
63.12000 152.436
63.16000 140.313
63.20000 147.038
63.24000 148.153
63.28000 143.057
63.32000 152.161
63.36000 154.968
63.40000 152.555
63.44000 151.853
63.48000 146.928
63.52000 153.253
63.56000 138.451
63.60000 154.130
63.64000 154.334
63.68000 146.686
63.72000 155.267
63.76000 151.025
63.80000 151.425
63.84000 152.486
63.88000 132.590
63.92000 149.815
63.96000 146.678
64.00000 154.710
64.04000 152.839
64.08000 151.883
64.12000 158.154
64.16000 161.344
64.20000 163.260
64.24000 160.119
64.28000 163.270
64.32000 165.260
64.36000 167.713
64.40000 164.789
64.44000 158.766
64.48000 167.710
64.52000 155.263
64.56000 178.720
64.60000 173.745
64.64000 169.486
64.68000 172.478
64.72000 171.507
64.76000 170.808
64.80000 172.403
64.84000 187.279
64.88000 193.713
64.92000 181.651
64.96000 182.481
65.00000 185.680
65.04000 200.760
65.08000 204.001
65.12000 201.346
65.16000 218.775
65.20000 229.295
65.24000 246.382
65.28000 250.462
65.32000 276.446
65.36000 299.317
65.40000 319.122
65.44000 353.879
65.48000 384.174
65.52000 404.583
65.56000 428.145
65.60000 447.461
65.64000 466.730
65.68000 518.969
65.72000 622.067
65.76000 804.661
65.80000 1011.241
65.84000 1100.597
65.88000 1134.362
65.92000 1101.446
65.96000 955.726
66.00000 709.477
66.04000 470.796
66.08000 350.202
66.12000 311.492
66.16000 297.655
66.20000 287.263
66.24000 298.885
66.28000 339.179
66.32000 380.477
66.36000 405.866
66.40000 447.554
66.44000 456.564
66.48000 447.734
66.52000 423.367
66.56000 367.099
66.60000 327.628
66.64000 318.880
66.68000 312.630
66.72000 332.053
66.76000 322.462
66.80000 304.878
66.84000 328.619
66.88000 335.522
66.92000 330.040
66.96000 342.753
67.00000 347.396
67.04000 337.594
67.08000 351.059
67.12000 356.351
67.16000 363.399
67.20000 350.870
67.24000 375.700
67.28000 377.393
67.32000 388.004
67.36000 384.321
67.40000 410.468
67.44000 417.560
67.48000 411.730
67.52000 426.834
67.56000 431.805
67.60000 446.283
67.64000 451.135
67.68000 472.731
67.72000 463.130
67.76000 457.396
67.80000 468.884
67.84000 482.343
67.88000 504.725
67.92000 516.655
67.96000 542.549
68.00000 557.591
68.04000 550.139
68.08000 559.801
68.12000 558.896
68.16000 582.144
68.20000 602.861
68.24000 620.583
68.28000 649.905
68.32000 679.894
68.36000 677.521
68.40000 700.923
68.44000 742.217
68.48000 769.893
68.52000 798.539
68.56000 881.057
68.60000 972.591
68.64000 1084.674
68.68000 1291.283
68.72000 1551.974
68.76000 1762.182
68.80000 1987.498
68.84000 2244.469
68.88000 2712.583
68.92000 4402.294
68.96000 10466.805
69.00000 27466.553
69.04000 48059.816
69.08000 60323.664
69.12000 62441.559
69.16000 64373.594
69.20000 65677.023
69.24000 56756.328
69.28000 43800.180
69.32000 35135.898
69.36000 31554.934
69.40000 26825.350
69.44000 17181.316
69.48000 8167.417
69.52000 3500.831
69.56000 2023.317
69.60000 1555.000
69.64000 1309.056
69.68000 1143.185
69.72000 1059.913
69.76000 950.981
69.80000 891.970
69.84000 837.760
69.88000 772.340
69.92000 773.073
69.96000 742.171
70.00000 721.338