File: XRD/30-09-2025 Dep 1/XY Data/BTO_Mapping_Theta2Theta_30-09-2025_001_31_-19-563_4-158.xy
20.00000 547.521
20.04000 561.484
20.08000 564.193
20.12000 556.003
20.16000 564.355
20.20000 565.573
20.24000 568.280
20.28000 571.366
20.32000 569.983
20.36000 562.411
20.40000 552.029
20.44000 551.086
20.48000 548.383
20.52000 540.040
20.56000 584.658
20.60000 576.145
20.64000 556.394
20.68000 541.898
20.72000 533.606
20.76000 543.155
20.80000 551.879
20.84000 558.278
20.88000 551.869
20.92000 562.313
20.96000 546.138
21.00000 548.792
21.04000 566.134
21.08000 529.322
21.12000 545.404
21.16000 547.526
21.20000 533.547
21.24000 553.726
21.28000 548.310
21.32000 538.452
21.36000 551.569
21.40000 566.907
21.44000 549.415
21.48000 561.948
21.52000 543.784
21.56000 546.550
21.60000 542.686
21.64000 533.384
21.68000 561.620
21.72000 563.669
21.76000 557.135
21.80000 567.521
21.84000 576.641
21.88000 596.270
21.92000 622.648
21.96000 643.511
22.00000 655.159
22.04000 662.843
22.08000 720.802
22.12000 677.662
22.16000 650.737
22.20000 651.852
22.24000 616.056
22.28000 582.788
22.32000 564.293
22.36000 565.578
22.40000 549.509
22.44000 555.230
22.48000 542.099
22.52000 525.446
22.56000 535.450
22.60000 542.343
22.64000 512.354
22.68000 514.503
22.72000 513.463
22.76000 520.933
22.80000 520.666
22.84000 525.856
22.88000 521.181
22.92000 499.760
22.96000 519.719
23.00000 531.253
23.04000 513.128
23.08000 516.310
23.12000 520.031
23.16000 500.546
23.20000 504.720
23.24000 508.154
23.28000 513.736
23.32000 504.690
23.36000 496.531
23.40000 514.077
23.44000 502.798
23.48000 504.723
23.52000 488.732
23.56000 497.098
23.60000 500.129
23.64000 508.638
23.68000 511.993
23.72000 507.733
23.76000 503.443
23.80000 504.880
23.84000 512.484
23.88000 526.029
23.92000 484.288
23.96000 518.408
24.00000 519.688
24.04000 516.208
24.08000 515.684
24.12000 535.159
24.16000 528.092
24.20000 517.697
24.24000 523.895
24.28000 525.391
24.32000 513.162
24.36000 494.450
24.40000 508.212
24.44000 496.233
24.48000 499.919
24.52000 486.841
24.56000 502.086
24.60000 506.416
24.64000 505.504
24.68000 503.913
24.72000 475.537
24.76000 486.072
24.80000 482.783
24.84000 498.025
24.88000 486.354
24.92000 478.235
24.96000 472.428
25.00000 489.381
25.04000 489.279
25.08000 487.665
25.12000 468.525
25.16000 495.071
25.20000 481.775
25.24000 475.361
25.28000 468.098
25.32000 478.890
25.36000 480.557
25.40000 471.065
25.44000 478.613
25.48000 449.337
25.52000 473.155
25.56000 472.801
25.60000 469.084
25.64000 462.113
25.68000 464.590
25.72000 468.922
25.76000 463.715
25.80000 452.420
25.84000 455.203
25.88000 471.317
25.92000 466.365
25.96000 463.334
26.00000 468.189
26.04000 469.697
26.08000 480.387
26.12000 458.663
26.16000 471.800
26.20000 462.788
26.24000 462.573
26.28000 467.568
26.32000 450.743
26.36000 454.969
26.40000 473.462
26.44000 458.145
26.48000 467.806
26.52000 465.999
26.56000 451.458
26.60000 447.303
26.64000 432.314
26.68000 445.718
26.72000 463.702
26.76000 466.439
26.80000 446.762
26.84000 438.573
26.88000 451.454
26.92000 440.948
26.96000 438.087
27.00000 442.356
27.04000 451.844
27.08000 462.193
27.12000 460.201
27.16000 454.035
27.20000 445.481
27.24000 444.393
27.28000 436.610
27.32000 448.466
27.36000 445.030
27.40000 441.812
27.44000 443.399
27.48000 433.946
27.52000 466.807
27.56000 435.602
27.60000 436.810
27.64000 450.118
27.68000 441.230
27.72000 444.883
27.76000 443.601
27.80000 440.401
27.84000 446.421
27.88000 439.131
27.92000 445.579
27.96000 443.346
28.00000 433.803
28.04000 444.063
28.08000 417.569
28.12000 433.844
28.16000 438.782
28.20000 446.594
28.24000 432.614
28.28000 432.022
28.32000 461.757
28.36000 424.485
28.40000 429.189
28.44000 437.401
28.48000 429.111
28.52000 446.659
28.56000 434.260
28.60000 429.026
28.64000 441.106
28.68000 419.031
28.72000 415.624
28.76000 408.432
28.80000 403.961
28.84000 436.205
28.88000 415.938
28.92000 440.542
28.96000 405.845
29.00000 411.470
29.04000 417.224
29.08000 417.856
29.12000 404.803
29.16000 415.512
29.20000 427.825
29.24000 414.435
29.28000 405.679
29.32000 422.204
29.36000 410.476
29.40000 410.799
29.44000 403.128
29.48000 404.839
29.52000 399.785
29.56000 410.765
29.60000 399.409
29.64000 407.827
29.68000 410.687
29.72000 417.345
29.76000 416.962
29.80000 424.328
29.84000 422.108
29.88000 428.410
29.92000 445.228
29.96000 436.480
30.00000 449.700
30.04000 431.885
30.08000 449.378
30.12000 456.230
30.16000 441.969
30.20000 432.740
30.24000 440.864
30.28000 428.049
30.32000 433.084
30.36000 408.525
30.40000 422.679
30.44000 424.500
30.48000 431.792
30.52000 424.722
30.56000 403.888
30.60000 423.824
30.64000 427.817
30.68000 432.897
30.72000 451.640
30.76000 418.524
30.80000 457.336
30.84000 460.645
30.88000 445.944
30.92000 494.135
30.96000 496.913
31.00000 550.794
31.04000 583.233
31.08000 662.758
31.12000 777.094
31.16000 1015.997
31.20000 1346.501
31.24000 1807.448
31.28000 2295.533
31.32000 2813.091
31.36000 3209.088
31.40000 3393.624
31.44000 3286.774
31.48000 2934.398
31.52000 2456.217
31.56000 1924.798
31.60000 1376.429
31.64000 1036.980
31.68000 785.350
31.72000 638.560
31.76000 534.736
31.80000 493.081
31.84000 485.550
31.88000 461.567
31.92000 419.152
31.96000 426.746
32.00000 410.743
32.04000 422.757
32.08000 417.325
32.12000 414.839
32.16000 409.260
32.20000 397.987
32.24000 394.285
32.28000 390.040
32.32000 414.819
32.36000 386.203
32.40000 405.717
32.44000 394.751
32.48000 380.264
32.52000 369.090
32.56000 382.206
32.60000 384.812
32.64000 382.161
32.68000 365.031
32.72000 359.447
32.76000 380.322
32.80000 373.000
32.84000 373.579
32.88000 375.021
32.92000 377.759
32.96000 387.858
33.00000 377.978
33.04000 384.949
33.08000 385.496
33.12000 372.634
33.16000 366.086
33.20000 368.366
33.24000 362.435
33.28000 342.731
33.32000 339.767
33.36000 336.270
33.40000 347.071
33.44000 340.293
33.48000 350.113
33.52000 337.740
33.56000 363.973
33.60000 343.072
33.64000 324.326
33.68000 366.622
33.72000 351.085
33.76000 328.225
33.80000 346.445
33.84000 347.002
33.88000 332.173
33.92000 335.771
33.96000 326.195
34.00000 330.040
34.04000 326.444
34.08000 333.860
34.12000 342.700
34.16000 349.126
34.20000 341.961
34.24000 345.370
34.28000 336.046
34.32000 358.168
34.36000 352.378
34.40000 355.413
34.44000 353.441
34.48000 343.704
34.52000 351.649
34.56000 348.982
34.60000 345.928
34.64000 343.734
34.68000 345.262
34.72000 342.571
34.76000 336.979
34.80000 335.202
34.84000 333.713
34.88000 341.774
34.92000 318.979
34.96000 309.631
35.00000 323.223
35.04000 320.109
35.08000 319.276
35.12000 318.614
35.16000 326.335
35.20000 310.303
35.24000 321.229
35.28000 321.371
35.32000 333.654
35.36000 313.907
35.40000 332.520
35.44000 309.282
35.48000 298.841
35.52000 306.804
35.56000 314.826
35.60000 314.524
35.64000 311.351
35.68000 306.988
35.72000 308.580
35.76000 322.354
35.80000 307.290
35.84000 312.512
35.88000 315.054
35.92000 307.589
35.96000 305.318
36.00000 294.137
36.04000 309.171
36.08000 298.282
36.12000 308.628
36.16000 314.279
36.20000 284.039
36.24000 316.817
36.28000 307.528
36.32000 302.089
36.36000 318.979
36.40000 297.828
36.44000 286.450
36.48000 314.428
36.52000 295.156
36.56000 296.461
36.60000 289.831
36.64000 297.399
36.68000 307.337
36.72000 296.850
36.76000 301.465
36.80000 307.092
36.84000 307.296
36.88000 284.804
36.92000 308.349
36.96000 314.156
37.00000 303.353
37.04000 309.097
37.08000 320.328
37.12000 297.849
37.16000 293.339
37.20000 308.385
37.24000 307.552
37.28000 286.767
37.32000 285.347
37.36000 287.354
37.40000 296.518
37.44000 290.662
37.48000 312.088
37.52000 279.467
37.56000 300.382
37.60000 281.732
37.64000 296.411
37.68000 302.726
37.72000 293.728
37.76000 283.799
37.80000 290.798
37.84000 298.618
37.88000 305.734
37.92000 288.700
37.96000 286.539
38.00000 292.371
38.04000 303.537
38.08000 302.133
38.12000 292.607
38.16000 300.555
38.20000 288.597
38.24000 298.462
38.28000 303.830
38.32000 323.115
38.36000 325.569
38.40000 348.786
38.44000 367.645
38.48000 397.869
38.52000 447.678
38.56000 549.946
38.60000 634.871
38.64000 762.583
38.68000 863.864
38.72000 917.644
38.76000 953.899
38.80000 903.864
38.84000 826.144
38.88000 715.597
38.92000 615.024
38.96000 496.427
39.00000 417.263
39.04000 379.096
39.08000 334.054
39.12000 317.030
39.16000 296.934
39.20000 291.042
39.24000 286.434
39.28000 282.002
39.32000 279.208
39.36000 271.813
39.40000 295.687
39.44000 280.318
39.48000 270.432
39.52000 277.711
39.56000 274.612
39.60000 259.281
39.64000 260.115
39.68000 272.935
39.72000 276.634
39.76000 253.918
39.80000 283.071
39.84000 281.997
39.88000 257.447
39.92000 268.413
39.96000 269.870
40.00000 272.673
40.04000 260.189
40.08000 268.101
40.12000 265.817
40.16000 260.648
40.20000 260.189
40.24000 260.173
40.28000 273.525
40.32000 263.042
40.36000 254.138
40.40000 245.936
40.44000 241.626
40.48000 249.677
40.52000 264.862
40.56000 275.549
40.60000 266.102
40.64000 257.112
40.68000 255.889
40.72000 266.124
40.76000 259.287
40.80000 239.274
40.84000 244.794
40.88000 242.083
40.92000 251.563
40.96000 250.972
41.00000 244.114
41.04000 250.753
41.08000 248.184
41.12000 252.794
41.16000 242.375
41.20000 246.977
41.24000 252.434
41.28000 247.886
41.32000 242.826
41.36000 246.352
41.40000 251.542
41.44000 241.773
41.48000 248.612
41.52000 246.373
41.56000 237.644
41.60000 238.451
41.64000 246.823
41.68000 232.022
41.72000 255.734
41.76000 242.655
41.80000 245.477
41.84000 246.616
41.88000 240.830
41.92000 239.872
41.96000 231.274
42.00000 239.387
42.04000 245.007
42.08000 236.763
42.12000 235.624
42.16000 234.689
42.20000 242.616
42.24000 248.400
42.28000 227.216
42.32000 238.076
42.36000 241.315
42.40000 249.867
42.44000 235.884
42.48000 247.281
42.52000 234.474
42.56000 237.402
42.60000 232.985
42.64000 230.726
42.68000 235.612
42.72000 240.262
42.76000 252.845
42.80000 239.625
42.84000 236.463
42.88000 241.832
42.92000 245.265
42.96000 237.486
43.00000 228.156
43.04000 231.883
43.08000 233.457
43.12000 235.440
43.16000 243.572
43.20000 222.966
43.24000 240.931
43.28000 225.867
43.32000 235.319
43.36000 222.293
43.40000 218.440
43.44000 225.238
43.48000 219.750
43.52000 238.545
43.56000 223.906
43.60000 236.921
43.64000 222.003
43.68000 220.316
43.72000 215.750
43.76000 221.394
43.80000 227.209
43.84000 222.755
43.88000 230.407
43.92000 215.530
43.96000 224.484
44.00000 218.399
44.04000 214.393
44.08000 213.028
44.12000 223.487
44.16000 222.816
44.20000 225.864
44.24000 219.359
44.28000 221.881
44.32000 227.643
44.36000 219.147
44.40000 219.485
44.44000 213.623
44.48000 224.188
44.52000 237.998
44.56000 225.084
44.60000 227.554
44.64000 252.210
44.68000 243.606
44.72000 241.433
44.76000 250.670
44.80000 246.096
44.84000 255.387
44.88000 262.827
44.92000 269.728
44.96000 306.279
45.00000 323.014
45.04000 315.126
45.08000 336.137
45.12000 342.890
45.16000 368.213
45.20000 356.160
45.24000 314.801
45.28000 304.561
45.32000 297.624
45.36000 265.134
45.40000 265.592
45.44000 238.847
45.48000 235.184
45.52000 239.178
45.56000 229.133
45.60000 240.445
45.64000 224.941
45.68000 230.000
45.72000 214.419
45.76000 217.512
45.80000 204.056
45.84000 222.234
45.88000 213.453
45.92000 211.793
45.96000 206.569
46.00000 201.613
46.04000 205.533
46.08000 208.146
46.12000 210.803
46.16000 205.617
46.20000 214.166
46.24000 210.733
46.28000 203.279
46.32000 211.665
46.36000 215.223
46.40000 217.510
46.44000 202.653
46.48000 204.666
46.52000 212.942
46.56000 204.965
46.60000 182.276
46.64000 200.936
46.68000 209.025
46.72000 201.045
46.76000 205.742
46.80000 198.720
46.84000 197.438
46.88000 198.410
46.92000 206.025
46.96000 201.609
47.00000 204.292
47.04000 197.293
47.08000 200.188
47.12000 191.878
47.16000 200.708
47.20000 197.293
47.24000 197.133
47.28000 196.988
47.32000 203.842
47.36000 191.709
47.40000 204.446
47.44000 194.780
47.48000 185.811
47.52000 183.602
47.56000 185.502
47.60000 189.146
47.64000 181.577
47.68000 195.514
47.72000 187.801
47.76000 192.254
47.80000 179.937
47.84000 180.515
47.88000 198.471
47.92000 198.430
47.96000 184.754
48.00000 198.755
48.04000 185.189
48.08000 178.710
48.12000 180.243
48.16000 191.656
48.20000 181.270
48.24000 183.741
48.28000 177.465
48.32000 186.418
48.36000 182.808
48.40000 186.047
48.44000 193.594
48.48000 196.403
48.52000 187.783
48.56000 190.672
48.60000 186.063
48.64000 176.884
48.68000 193.196
48.72000 176.683
48.76000 179.265
48.80000 183.774
48.84000 187.781
48.88000 189.109
48.92000 178.291
48.96000 197.236
49.00000 187.132
49.04000 183.544
49.08000 181.230
49.12000 190.613
49.16000 178.823
49.20000 178.184
49.24000 177.661
49.28000 170.526
49.32000 186.531
49.36000 174.866
49.40000 181.823
49.44000 191.710
49.48000 179.750
49.52000 186.497
49.56000 179.760
49.60000 180.277
49.64000 188.633
49.68000 185.592
49.72000 179.576
49.76000 179.180
49.80000 168.628
49.84000 168.211
49.88000 174.951
49.92000 154.216
49.96000 180.129
50.00000 177.783
50.04000 173.516
50.08000 176.490
50.12000 179.924
50.16000 171.142
50.20000 172.272
50.24000 181.516
50.28000 177.220
50.32000 174.713
50.36000 192.574
50.40000 191.247
50.44000 200.381
50.48000 199.281
50.52000 206.423
50.56000 229.247
50.60000 238.326
50.64000 242.292
50.68000 256.085
50.72000 261.899
50.76000 255.183
50.80000 254.311
50.84000 242.334
50.88000 230.335
50.92000 214.551
50.96000 212.907
51.00000 200.924
51.04000 188.701
51.08000 181.737
51.12000 175.774
51.16000 181.962
51.20000 181.659
51.24000 164.929
51.28000 179.318
51.32000 178.621
51.36000 170.418
51.40000 164.651
51.44000 168.127
51.48000 164.244
51.52000 167.109
51.56000 159.735
51.60000 169.300
51.64000 171.355
51.68000 156.897
51.72000 164.149
51.76000 167.218
51.80000 169.738
51.84000 165.748
51.88000 166.198
51.92000 159.990
51.96000 156.344
52.00000 166.522
52.04000 169.848
52.08000 167.755
52.12000 164.923
52.16000 173.038
52.20000 157.840
52.24000 160.044
52.28000 160.145
52.32000 169.354
52.36000 155.104
52.40000 168.214
52.44000 162.111
52.48000 163.361
52.52000 152.233
52.56000 157.796
52.60000 163.650
52.64000 164.742
52.68000 152.192
52.72000 162.027
52.76000 160.798
52.80000 153.788
52.84000 153.165
52.88000 164.661
52.92000 156.807
52.96000 164.238
53.00000 163.203
53.04000 160.244
53.08000 159.971
53.12000 164.548
53.16000 162.701
53.20000 160.366
53.24000 162.195
53.28000 155.869
53.32000 160.224
53.36000 163.221
53.40000 155.378
53.44000 155.210
53.48000 163.097
53.52000 167.942
53.56000 163.325
53.60000 162.525
53.64000 140.747
53.68000 152.261
53.72000 163.627
53.76000 157.008
53.80000 173.203
53.84000 166.039
53.88000 152.385
53.92000 161.010
53.96000 173.985
54.00000 150.841
54.04000 158.583
54.08000 167.180
54.12000 168.654
54.16000 166.328
54.20000 145.824
54.24000 158.844
54.28000 156.156
54.32000 154.711
54.36000 149.115
54.40000 149.909
54.44000 161.778
54.48000 153.240
54.52000 158.778
54.56000 144.176
54.60000 171.551
54.64000 156.386
54.68000 155.125
54.72000 152.889
54.76000 165.625
54.80000 167.512
54.84000 149.600
54.88000 139.255
54.92000 157.661
54.96000 161.971
55.00000 156.306
55.04000 157.226
55.08000 160.479
55.12000 161.663
55.16000 167.752
55.20000 165.485
55.24000 168.793
55.28000 172.236
55.32000 163.868
55.36000 169.754
55.40000 161.946
55.44000 178.494
55.48000 177.647
55.52000 188.970
55.56000 192.995
55.60000 217.815
55.64000 238.471
55.68000 282.283
55.72000 297.076
55.76000 369.580
55.80000 440.279
55.84000 520.137
55.88000 581.522
55.92000 600.187
55.96000 620.912
56.00000 630.593
56.04000 618.486
56.08000 551.368
56.12000 481.456
56.16000 433.399
56.20000 378.414
56.24000 315.408
56.28000 262.440
56.32000 225.524
56.36000 201.914
56.40000 187.910
56.44000 182.099
56.48000 179.831
56.52000 165.957
56.56000 163.113
56.60000 157.551
56.64000 159.160
56.68000 158.618
56.72000 156.543
56.76000 162.797
56.80000 141.799
56.84000 161.601
56.88000 167.650
56.92000 146.477
56.96000 147.303
57.00000 140.533
57.04000 146.662
57.08000 145.097
57.12000 143.125
57.16000 148.471
57.20000 145.789
57.24000 144.103
57.28000 140.596
57.32000 142.557
57.36000 153.995
57.40000 146.734
57.44000 143.552
57.48000 145.106
57.52000 147.119
57.56000 134.859
57.60000 159.691
57.64000 139.133
57.68000 139.705
57.72000 136.407
57.76000 140.464
57.80000 142.572
57.84000 139.656
57.88000 140.806
57.92000 138.402
57.96000 153.243
58.00000 139.576
58.04000 137.470
58.08000 134.698
58.12000 143.040
58.16000 145.882
58.20000 148.785
58.24000 132.075
58.28000 146.770
58.32000 146.075
58.36000 131.299
58.40000 139.943
58.44000 131.085
58.48000 135.013
58.52000 142.481
58.56000 144.676
58.60000 136.244
58.64000 138.322
58.68000 149.559
58.72000 135.656
58.76000 146.044
58.80000 148.723
58.84000 142.359
58.88000 135.979
58.92000 146.136
58.96000 132.639
59.00000 131.511
59.04000 134.293
59.08000 141.778
59.12000 140.894
59.16000 137.718
59.20000 130.275
59.24000 129.857
59.28000 139.522
59.32000 127.245
59.36000 135.442
59.40000 147.576
59.44000 132.593
59.48000 133.087
59.52000 131.412
59.56000 128.925
59.60000 134.620
59.64000 138.344
59.68000 133.905
59.72000 131.088
59.76000 134.802
59.80000 136.576
59.84000 140.357
59.88000 134.741
59.92000 138.825
59.96000 130.247
60.00000 133.686
60.04000 128.793
60.08000 133.875
60.12000 132.772
60.16000 141.638
60.20000 127.069
60.24000 127.611
60.28000 136.537
60.32000 133.088
60.36000 133.980
60.40000 139.326
60.44000 135.230
60.48000 139.517
60.52000 123.367
60.56000 138.764
60.60000 123.070
60.64000 125.360
60.68000 129.515
60.72000 136.033
60.76000 139.631
60.80000 144.639
60.84000 137.893
60.88000 126.109
60.92000 139.237
60.96000 134.767
61.00000 138.558
61.04000 132.615
61.08000 128.414
61.12000 139.475
61.16000 129.065
61.20000 136.342
61.24000 130.357
61.28000 132.715
61.32000 138.609
61.36000 141.306
61.40000 137.648
61.44000 135.457
61.48000 137.406
61.52000 140.900
61.56000 170.891
61.60000 213.032
61.64000 234.497
61.68000 243.436
61.72000 261.998
61.76000 242.321
61.80000 197.723
61.84000 178.092
61.88000 152.965
61.92000 153.079
61.96000 132.353
62.00000 135.127
62.04000 133.585
62.08000 140.276
62.12000 147.734
62.16000 135.120
62.20000 140.921
62.24000 133.042
62.28000 143.787
62.32000 136.232
62.36000 141.745
62.40000 132.893
62.44000 130.097
62.48000 140.739
62.52000 138.385
62.56000 129.952
62.60000 144.440
62.64000 135.942
62.68000 141.230
62.72000 142.672
62.76000 144.635
62.80000 142.358
62.84000 138.962
62.88000 148.678
62.92000 145.558
62.96000 148.087
63.00000 144.084
63.04000 136.566
63.08000 152.811
63.12000 144.837
63.16000 142.978
63.20000 146.865
63.24000 140.426
63.28000 144.859
63.32000 149.011
63.36000 143.044
63.40000 145.842
63.44000 144.824
63.48000 144.384
63.52000 151.695
63.56000 144.544
63.60000 154.006
63.64000 140.728
63.68000 148.260
63.72000 145.570
63.76000 149.917
63.80000 145.475
63.84000 150.043
63.88000 139.716
63.92000 145.490
63.96000 153.862
64.00000 157.240
64.04000 157.963
64.08000 163.525
64.12000 150.574
64.16000 158.848
64.20000 154.999
64.24000 151.841
64.28000 168.905
64.32000 157.036
64.36000 164.780
64.40000 164.567
64.44000 165.543
64.48000 165.835
64.52000 154.938
64.56000 163.151
64.60000 168.022
64.64000 166.633
64.68000 168.975
64.72000 173.444
64.76000 164.858
64.80000 182.781
64.84000 171.365
64.88000 180.964
64.92000 170.842
64.96000 186.492
65.00000 187.854
65.04000 199.478
65.08000 202.905
65.12000 202.720
65.16000 199.279
65.20000 223.063
65.24000 241.366
65.28000 237.875
65.32000 249.312
65.36000 277.502
65.40000 317.778
65.44000 309.981
65.48000 350.116
65.52000 374.037
65.56000 382.791
65.60000 393.454
65.64000 440.109
65.68000 462.436
65.72000 530.710
65.76000 643.255
65.80000 819.295
65.84000 897.156
65.88000 922.234
65.92000 905.787
65.96000 833.347
66.00000 646.849
66.04000 463.332
66.08000 337.080
66.12000 294.027
66.16000 290.677
66.20000 291.000
66.24000 289.690
66.28000 308.219
66.32000 338.208
66.36000 352.989
66.40000 396.638
66.44000 393.358
66.48000 398.920
66.52000 373.292
66.56000 348.824
66.60000 324.198
66.64000 298.601
66.68000 294.768
66.72000 267.788
66.76000 289.881
66.80000 290.240
66.84000 311.073
66.88000 310.288
66.92000 322.454
66.96000 325.010
67.00000 312.674
67.04000 324.537
67.08000 326.331
67.12000 333.624
67.16000 326.304
67.20000 343.311
67.24000 340.624
67.28000 361.959
67.32000 342.965
67.36000 369.030
67.40000 359.745
67.44000 393.028
67.48000 385.831
67.52000 398.836
67.56000 398.384
67.60000 403.695
67.64000 410.755
67.68000 407.717
67.72000 437.053
67.76000 434.164
67.80000 428.791
67.84000 440.558
67.88000 455.817
67.92000 479.088
67.96000 486.447
68.00000 487.980
68.04000 490.663
68.08000 510.941
68.12000 527.427
68.16000 517.976
68.20000 539.838
68.24000 570.607
68.28000 567.568
68.32000 585.778
68.36000 618.154
68.40000 622.333
68.44000 664.664
68.48000 681.000
68.52000 692.678
68.56000 752.563
68.60000 825.779
68.64000 967.075
68.68000 1099.012
68.72000 1295.068
68.76000 1418.716
68.80000 1646.805
68.84000 1837.261
68.88000 2119.757
68.92000 3255.363
68.96000 6867.104
69.00000 18557.354
69.04000 34579.711
69.08000 45146.762
69.12000 47398.535
69.16000 48502.406
69.20000 49970.668
69.24000 44611.285
69.28000 34926.684
69.32000 27493.900
69.36000 24267.059
69.40000 21248.582
69.44000 14373.775
69.48000 7350.587
69.52000 3164.982
69.56000 1809.071
69.60000 1369.502
69.64000 1161.953
69.68000 1030.557
69.72000 924.009
69.76000 857.897
69.80000 790.801
69.84000 754.586
69.88000 705.855
69.92000 682.546
69.96000 665.999
70.00000 649.387