File: XRD/30-09-2025 Dep 1/XY Data/BTO_Mapping_Theta2Theta_30-09-2025_001_60_27-406_-12-202.xy
20.00000 591.737
20.04000 557.399
20.08000 583.935
20.12000 547.272
20.16000 566.866
20.20000 574.597
20.24000 563.362
20.28000 590.892
20.32000 532.621
20.36000 560.316
20.40000 569.123
20.44000 590.378
20.48000 572.720
20.52000 562.007
20.56000 565.000
20.60000 574.814
20.64000 570.919
20.68000 574.830
20.72000 550.108
20.76000 566.206
20.80000 565.044
20.84000 584.314
20.88000 564.589
20.92000 561.791
20.96000 560.179
21.00000 562.652
21.04000 554.069
21.08000 568.146
21.12000 558.741
21.16000 551.918
21.20000 557.582
21.24000 556.581
21.28000 562.962
21.32000 572.453
21.36000 579.497
21.40000 548.179
21.44000 556.597
21.48000 571.090
21.52000 566.932
21.56000 546.090
21.60000 570.789
21.64000 566.981
21.68000 587.775
21.72000 624.158
21.76000 665.529
21.80000 683.990
21.84000 751.058
21.88000 778.075
21.92000 856.641
21.96000 850.039
22.00000 893.134
22.04000 869.997
22.08000 839.547
22.12000 799.951
22.16000 719.711
22.20000 662.614
22.24000 635.610
22.28000 582.919
22.32000 591.899
22.36000 558.820
22.40000 558.689
22.44000 545.455
22.48000 540.801
22.52000 544.946
22.56000 531.654
22.60000 537.189
22.64000 544.455
22.68000 540.101
22.72000 531.147
22.76000 528.854
22.80000 531.018
22.84000 535.043
22.88000 517.974
22.92000 552.583
22.96000 519.775
23.00000 546.758
23.04000 525.777
23.08000 534.594
23.12000 522.413
23.16000 509.560
23.20000 523.525
23.24000 512.437
23.28000 499.473
23.32000 515.022
23.36000 516.870
23.40000 521.663
23.44000 523.429
23.48000 513.796
23.52000 494.387
23.56000 484.565
23.60000 520.109
23.64000 513.038
23.68000 526.413
23.72000 520.501
23.76000 509.198
23.80000 514.534
23.84000 510.374
23.88000 507.648
23.92000 522.251
23.96000 505.800
24.00000 508.177
24.04000 507.866
24.08000 503.734
24.12000 500.678
24.16000 504.554
24.20000 486.979
24.24000 486.306
24.28000 490.756
24.32000 489.197
24.36000 502.469
24.40000 485.993
24.44000 507.222
24.48000 509.669
24.52000 505.433
24.56000 487.217
24.60000 497.009
24.64000 471.794
24.68000 485.827
24.72000 500.665
24.76000 495.272
24.80000 485.284
24.84000 487.663
24.88000 501.208
24.92000 483.493
24.96000 467.651
25.00000 487.587
25.04000 480.517
25.08000 489.872
25.12000 500.015
25.16000 485.725
25.20000 471.955
25.24000 463.760
25.28000 475.910
25.32000 492.858
25.36000 486.067
25.40000 498.775
25.44000 487.023
25.48000 477.633
25.52000 489.873
25.56000 485.434
25.60000 460.875
25.64000 469.751
25.68000 502.329
25.72000 472.743
25.76000 482.463
25.80000 473.086
25.84000 455.982
25.88000 481.060
25.92000 478.181
25.96000 467.600
26.00000 485.308
26.04000 474.055
26.08000 475.051
26.12000 459.817
26.16000 479.541
26.20000 455.745
26.24000 479.813
26.28000 474.174
26.32000 454.558
26.36000 469.379
26.40000 463.110
26.44000 463.821
26.48000 454.202
26.52000 464.173
26.56000 470.891
26.60000 466.575
26.64000 461.586
26.68000 471.498
26.72000 464.506
26.76000 444.021
26.80000 463.720
26.84000 460.048
26.88000 471.180
26.92000 460.054
26.96000 454.246
27.00000 464.316
27.04000 424.368
27.08000 446.398
27.12000 450.645
27.16000 432.903
27.20000 451.970
27.24000 455.848
27.28000 457.176
27.32000 468.629
27.36000 435.114
27.40000 459.833
27.44000 461.694
27.48000 439.489
27.52000 446.698
27.56000 450.187
27.60000 442.839
27.64000 457.956
27.68000 447.351
27.72000 455.733
27.76000 443.333
27.80000 438.046
27.84000 449.382
27.88000 427.952
27.92000 435.037
27.96000 444.173
28.00000 430.974
28.04000 431.667
28.08000 443.956
28.12000 431.571
28.16000 434.221
28.20000 449.928
28.24000 420.217
28.28000 460.340
28.32000 433.658
28.36000 435.557
28.40000 451.159
28.44000 438.932
28.48000 459.609
28.52000 436.438
28.56000 444.877
28.60000 431.589
28.64000 432.722
28.68000 438.427
28.72000 435.989
28.76000 437.202
28.80000 413.177
28.84000 403.595
28.88000 411.056
28.92000 413.491
28.96000 421.673
29.00000 431.314
29.04000 432.195
29.08000 425.082
29.12000 442.941
29.16000 420.708
29.20000 422.979
29.24000 435.337
29.28000 421.487
29.32000 432.432
29.36000 424.780
29.40000 417.850
29.44000 424.152
29.48000 423.647
29.52000 416.527
29.56000 437.696
29.60000 419.615
29.64000 438.910
29.68000 430.530
29.72000 435.202
29.76000 423.117
29.80000 442.097
29.84000 458.702
29.88000 460.966
29.92000 468.082
29.96000 464.509
30.00000 485.356
30.04000 461.975
30.08000 468.429
30.12000 461.613
30.16000 454.018
30.20000 451.922
30.24000 436.560
30.28000 441.222
30.32000 436.096
30.36000 444.068
30.40000 436.769
30.44000 446.729
30.48000 434.207
30.52000 454.532
30.56000 444.987
30.60000 444.986
30.64000 448.265
30.68000 460.103
30.72000 462.738
30.76000 483.630
30.80000 510.557
30.84000 522.723
30.88000 526.384
30.92000 544.554
30.96000 616.647
31.00000 718.097
31.04000 889.619
31.08000 1180.185
31.12000 1637.165
31.16000 2229.855
31.20000 2968.580
31.24000 3651.995
31.28000 4156.772
31.32000 4355.763
31.36000 4300.067
31.40000 3911.638
31.44000 3206.278
31.48000 2448.827
31.52000 1804.218
31.56000 1278.676
31.60000 940.216
31.64000 699.321
31.68000 589.616
31.72000 539.084
31.76000 509.460
31.80000 487.530
31.84000 463.538
31.88000 454.083
31.92000 446.937
31.96000 426.636
32.00000 435.294
32.04000 444.193
32.08000 426.414
32.12000 418.965
32.16000 416.818
32.20000 413.025
32.24000 406.879
32.28000 413.753
32.32000 398.544
32.36000 402.234
32.40000 410.218
32.44000 400.113
32.48000 387.575
32.52000 379.571
32.56000 398.248
32.60000 378.921
32.64000 389.815
32.68000 388.387
32.72000 369.632
32.76000 382.116
32.80000 390.574
32.84000 408.275
32.88000 429.507
32.92000 485.558
32.96000 504.218
33.00000 488.531
33.04000 500.711
33.08000 463.970
33.12000 457.191
33.16000 397.626
33.20000 378.136
33.24000 383.527
33.28000 366.887
33.32000 347.562
33.36000 366.943
33.40000 347.082
33.44000 369.073
33.48000 362.826
33.52000 351.369
33.56000 337.711
33.60000 340.573
33.64000 351.626
33.68000 350.149
33.72000 344.863
33.76000 348.066
33.80000 339.336
33.84000 337.033
33.88000 343.434
33.92000 348.843
33.96000 357.879
34.00000 360.343
34.04000 350.027
34.08000 337.797
34.12000 337.826
34.16000 332.028
34.20000 349.275
34.24000 328.550
34.28000 333.450
34.32000 323.823
34.36000 317.884
34.40000 340.482
34.44000 335.057
34.48000 332.740
34.52000 327.949
34.56000 319.566
34.60000 320.323
34.64000 341.729
34.68000 335.753
34.72000 331.470
34.76000 330.816
34.80000 331.070
34.84000 328.154
34.88000 320.340
34.92000 329.553
34.96000 320.257
35.00000 341.700
35.04000 311.089
35.08000 326.956
35.12000 312.638
35.16000 313.290
35.20000 307.400
35.24000 314.955
35.28000 329.390
35.32000 320.466
35.36000 328.973
35.40000 317.250
35.44000 325.204
35.48000 321.979
35.52000 329.414
35.56000 330.699
35.60000 317.266
35.64000 308.093
35.68000 314.606
35.72000 312.519
35.76000 308.744
35.80000 306.258
35.84000 302.195
35.88000 301.097
35.92000 318.022
35.96000 304.934
36.00000 309.351
36.04000 313.356
36.08000 316.007
36.12000 308.868
36.16000 318.472
36.20000 312.920
36.24000 305.384
36.28000 296.011
36.32000 302.161
36.36000 301.286
36.40000 301.782
36.44000 290.741
36.48000 323.426
36.52000 312.637
36.56000 298.605
36.60000 293.971
36.64000 301.465
36.68000 309.059
36.72000 313.811
36.76000 303.368
36.80000 309.601
36.84000 296.170
36.88000 316.324
36.92000 312.743
36.96000 306.798
37.00000 298.904
37.04000 318.164
37.08000 313.445
37.12000 305.583
37.16000 301.836
37.20000 300.722
37.24000 306.357
37.28000 308.276
37.32000 304.016
37.36000 311.850
37.40000 291.587
37.44000 295.399
37.48000 289.675
37.52000 294.115
37.56000 288.302
37.60000 301.059
37.64000 295.393
37.68000 304.542
37.72000 296.888
37.76000 297.943
37.80000 299.663
37.84000 289.273
37.88000 299.793
37.92000 290.717
37.96000 301.038
38.00000 294.428
38.04000 299.039
38.08000 302.197
38.12000 284.489
38.16000 296.599
38.20000 314.614
38.24000 306.204
38.28000 319.598
38.32000 343.102
38.36000 349.638
38.40000 375.955
38.44000 392.740
38.48000 429.368
38.52000 477.100
38.56000 558.578
38.60000 591.973
38.64000 625.740
38.68000 611.316
38.72000 595.417
38.76000 569.454
38.80000 521.374
38.84000 461.196
38.88000 415.581
38.92000 364.702
38.96000 337.265
39.00000 308.846
39.04000 315.226
39.08000 292.234
39.12000 291.547
39.16000 285.051
39.20000 275.752
39.24000 285.809
39.28000 296.955
39.32000 287.491
39.36000 279.160
39.40000 273.521
39.44000 274.240
39.48000 287.590
39.52000 282.270
39.56000 269.179
39.60000 280.898
39.64000 276.673
39.68000 272.536
39.72000 279.893
39.76000 259.738
39.80000 265.491
39.84000 273.737
39.88000 261.811
39.92000 275.066
39.96000 280.304
40.00000 270.611
40.04000 262.875
40.08000 267.023
40.12000 259.060
40.16000 258.264
40.20000 271.292
40.24000 256.297
40.28000 254.325
40.32000 257.773
40.36000 266.048
40.40000 260.911
40.44000 259.298
40.48000 246.086
40.52000 264.927
40.56000 255.162
40.60000 264.388
40.64000 257.017
40.68000 242.750
40.72000 254.620
40.76000 258.786
40.80000 233.119
40.84000 254.953
40.88000 262.787
40.92000 252.588
40.96000 244.174
41.00000 253.040
41.04000 245.504
41.08000 249.452
41.12000 255.168
41.16000 258.721
41.20000 254.441
41.24000 238.961
41.28000 242.118
41.32000 231.944
41.36000 255.254
41.40000 244.214
41.44000 250.868
41.48000 251.026
41.52000 242.023
41.56000 237.908
41.60000 240.786
41.64000 242.869
41.68000 252.244
41.72000 239.653
41.76000 251.110
41.80000 245.660
41.84000 246.614
41.88000 244.760
41.92000 240.240
41.96000 263.490
42.00000 233.787
42.04000 247.685
42.08000 248.309
42.12000 244.404
42.16000 228.711
42.20000 242.614
42.24000 244.220
42.28000 245.775
42.32000 246.744
42.36000 246.678
42.40000 236.124
42.44000 243.114
42.48000 223.720
42.52000 234.617
42.56000 233.687
42.60000 241.980
42.64000 241.810
42.68000 237.061
42.72000 244.176
42.76000 253.440
42.80000 230.993
42.84000 237.041
42.88000 248.209
42.92000 236.199
42.96000 234.698
43.00000 248.088
43.04000 242.766
43.08000 223.927
43.12000 240.779
43.16000 235.425
43.20000 236.384
43.24000 226.239
43.28000 219.144
43.32000 235.547
43.36000 237.159
43.40000 232.953
43.44000 225.033
43.48000 229.349
43.52000 236.011
43.56000 227.364
43.60000 236.079
43.64000 224.411
43.68000 233.352
43.72000 227.470
43.76000 213.934
43.80000 223.602
43.84000 221.331
43.88000 231.481
43.92000 233.983
43.96000 225.757
44.00000 232.115
44.04000 214.048
44.08000 237.354
44.12000 242.157
44.16000 227.900
44.20000 242.363
44.24000 221.275
44.28000 220.481
44.32000 234.012
44.36000 255.843
44.40000 242.356
44.44000 249.452
44.48000 237.293
44.52000 242.153
44.56000 249.072
44.60000 259.458
44.64000 269.253
44.68000 298.578
44.72000 313.930
44.76000 342.064
44.80000 404.680
44.84000 431.695
44.88000 481.067
44.92000 526.638
44.96000 542.842
45.00000 528.170
45.04000 511.652
45.08000 485.431
45.12000 433.086
45.16000 414.425
45.20000 374.690
45.24000 326.921
45.28000 313.044
45.32000 282.371
45.36000 289.772
45.40000 258.133
45.44000 251.243
45.48000 244.145
45.52000 243.864
45.56000 232.745
45.60000 230.994
45.64000 230.437
45.68000 235.196
45.72000 225.729
45.76000 211.989
45.80000 221.278
45.84000 213.884
45.88000 228.753
45.92000 224.870
45.96000 212.374
46.00000 218.234
46.04000 218.177
46.08000 211.314
46.12000 214.482
46.16000 209.366
46.20000 218.986
46.24000 208.747
46.28000 206.257
46.32000 202.943
46.36000 196.387
46.40000 219.209
46.44000 208.980
46.48000 201.210
46.52000 215.555
46.56000 206.950
46.60000 198.323
46.64000 210.533
46.68000 199.821
46.72000 196.781
46.76000 204.122
46.80000 203.492
46.84000 192.361
46.88000 190.506
46.92000 192.274
46.96000 197.821
47.00000 194.524
47.04000 188.682
47.08000 195.952
47.12000 202.935
47.16000 202.800
47.20000 210.027
47.24000 202.490
47.28000 191.118
47.32000 189.983
47.36000 197.829
47.40000 193.221
47.44000 192.345
47.48000 185.398
47.52000 194.867
47.56000 184.589
47.60000 190.988
47.64000 204.449
47.68000 190.249
47.72000 191.255
47.76000 191.613
47.80000 186.016
47.84000 195.724
47.88000 195.752
47.92000 197.632
47.96000 187.097
48.00000 184.520
48.04000 191.064
48.08000 189.551
48.12000 188.508
48.16000 198.732
48.20000 190.617
48.24000 193.080
48.28000 170.953
48.32000 178.973
48.36000 187.226
48.40000 188.085
48.44000 184.212
48.48000 189.766
48.52000 186.141
48.56000 171.406
48.60000 173.777
48.64000 168.508
48.68000 191.821
48.72000 189.215
48.76000 186.855
48.80000 193.146
48.84000 192.568
48.88000 186.221
48.92000 187.181
48.96000 177.257
49.00000 188.090
49.04000 191.426
49.08000 194.365
49.12000 198.147
49.16000 174.515
49.20000 182.751
49.24000 181.499
49.28000 177.857
49.32000 177.969
49.36000 186.126
49.40000 172.662
49.44000 182.900
49.48000 182.567
49.52000 174.668
49.56000 188.401
49.60000 177.100
49.64000 187.549
49.68000 175.667
49.72000 186.451
49.76000 174.306
49.80000 186.034
49.84000 179.723
49.88000 188.168
49.92000 182.623
49.96000 191.531
50.00000 185.749
50.04000 169.122
50.08000 188.722
50.12000 187.429
50.16000 192.561
50.20000 190.472
50.24000 191.071
50.28000 196.908
50.32000 202.895
50.36000 203.694
50.40000 228.450
50.44000 229.848
50.48000 264.590
50.52000 258.507
50.56000 281.964
50.60000 309.863
50.64000 296.899
50.68000 294.900
50.72000 293.843
50.76000 257.302
50.80000 269.269
50.84000 242.373
50.88000 223.572
50.92000 214.494
50.96000 207.771
51.00000 195.316
51.04000 172.266
51.08000 187.168
51.12000 173.267
51.16000 179.284
51.20000 167.012
51.24000 180.224
51.28000 169.661
51.32000 177.657
51.36000 176.160
51.40000 165.936
51.44000 186.291
51.48000 169.833
51.52000 162.160
51.56000 168.113
51.60000 182.553
51.64000 167.079
51.68000 170.377
51.72000 170.794
51.76000 171.472
51.80000 174.749
51.84000 162.585
51.88000 170.037
51.92000 170.603
51.96000 167.033
52.00000 171.600
52.04000 166.070
52.08000 161.685
52.12000 170.744
52.16000 169.651
52.20000 167.292
52.24000 159.350
52.28000 154.477
52.32000 163.187
52.36000 164.129
52.40000 165.821
52.44000 154.725
52.48000 166.452
52.52000 147.503
52.56000 171.895
52.60000 153.295
52.64000 161.792
52.68000 155.715
52.72000 152.498
52.76000 170.332
52.80000 164.027
52.84000 157.263
52.88000 162.011
52.92000 156.850
52.96000 165.319
53.00000 160.606
53.04000 161.627
53.08000 170.628
53.12000 162.904
53.16000 161.512
53.20000 168.287
53.24000 159.926
53.28000 165.421
53.32000 165.519
53.36000 156.569
53.40000 163.349
53.44000 166.728
53.48000 158.701
53.52000 169.973
53.56000 162.479
53.60000 160.471
53.64000 154.960
53.68000 151.897
53.72000 167.913
53.76000 155.111
53.80000 162.793
53.84000 160.613
53.88000 165.094
53.92000 145.925
53.96000 168.584
54.00000 157.981
54.04000 141.791
54.08000 163.819
54.12000 157.376
54.16000 159.095
54.20000 165.276
54.24000 156.801
54.28000 155.518
54.32000 148.583
54.36000 163.751
54.40000 154.283
54.44000 156.296
54.48000 159.386
54.52000 156.925
54.56000 160.420
54.60000 166.346
54.64000 157.484
54.68000 164.628
54.72000 169.676
54.76000 153.050
54.80000 163.706
54.84000 162.813
54.88000 164.458
54.92000 154.840
54.96000 161.211
55.00000 148.973
55.04000 163.585
55.08000 161.295
55.12000 167.216
55.16000 175.003
55.20000 169.855
55.24000 171.375
55.28000 175.267
55.32000 180.589
55.36000 184.375
55.40000 182.479
55.44000 217.105
55.48000 226.886
55.52000 224.914
55.56000 281.685
55.60000 334.813
55.64000 389.222
55.68000 463.456
55.72000 534.823
55.76000 595.399
55.80000 646.406
55.84000 668.041
55.88000 680.319
55.92000 652.997
55.96000 609.220
56.00000 548.373
56.04000 457.139
56.08000 399.694
56.12000 356.859
56.16000 305.310
56.20000 254.429
56.24000 217.728
56.28000 215.324
56.32000 200.125
56.36000 166.046
56.40000 168.753
56.44000 175.958
56.48000 167.615
56.52000 169.049
56.56000 160.662
56.60000 163.137
56.64000 154.109
56.68000 154.799
56.72000 154.316
56.76000 148.150
56.80000 155.471
56.84000 138.920
56.88000 157.421
56.92000 150.107
56.96000 150.663
57.00000 148.718
57.04000 154.787
57.08000 145.492
57.12000 142.765
57.16000 144.604
57.20000 150.178
57.24000 154.084
57.28000 149.623
57.32000 151.514
57.36000 147.754
57.40000 157.929
57.44000 142.967
57.48000 148.946
57.52000 144.453
57.56000 145.912
57.60000 149.904
57.64000 156.539
57.68000 141.026
57.72000 154.821
57.76000 141.632
57.80000 151.730
57.84000 138.331
57.88000 136.086
57.92000 153.843
57.96000 145.539
58.00000 138.467
58.04000 159.645
58.08000 138.464
58.12000 139.908
58.16000 139.528
58.20000 142.920
58.24000 141.051
58.28000 145.314
58.32000 135.062
58.36000 149.776
58.40000 143.235
58.44000 141.661
58.48000 140.445
58.52000 138.259
58.56000 129.629
58.60000 130.770
58.64000 139.694
58.68000 139.534
58.72000 141.998
58.76000 137.212
58.80000 122.518
58.84000 143.163
58.88000 143.453
58.92000 137.703
58.96000 137.740
59.00000 135.084
59.04000 135.814
59.08000 136.332
59.12000 138.633
59.16000 144.912
59.20000 144.523
59.24000 137.572
59.28000 133.836
59.32000 138.316
59.36000 137.959
59.40000 134.302
59.44000 138.873
59.48000 138.137
59.52000 129.996
59.56000 139.996
59.60000 153.166
59.64000 136.125
59.68000 143.649
59.72000 136.723
59.76000 131.161
59.80000 138.260
59.84000 131.781
59.88000 149.395
59.92000 134.420
59.96000 127.603
60.00000 133.435
60.04000 131.742
60.08000 138.115
60.12000 130.719
60.16000 120.217
60.20000 140.378
60.24000 142.805
60.28000 139.393
60.32000 132.755
60.36000 138.224
60.40000 134.822
60.44000 136.146
60.48000 131.349
60.52000 135.893
60.56000 130.320
60.60000 135.686
60.64000 139.225
60.68000 139.503
60.72000 138.477
60.76000 124.115
60.80000 128.085
60.84000 136.687
60.88000 138.949
60.92000 143.274
60.96000 141.771
61.00000 121.471
61.04000 131.483
61.08000 141.293
61.12000 139.466
61.16000 139.543
61.20000 137.829
61.24000 144.866
61.28000 139.542
61.32000 145.838
61.36000 144.995
61.40000 147.374
61.44000 146.704
61.48000 155.062
61.52000 192.580
61.56000 238.567
61.60000 302.118
61.64000 330.473
61.68000 327.655
61.72000 352.568
61.76000 294.690
61.80000 244.734
61.84000 176.811
61.88000 155.278
61.92000 142.405
61.96000 144.485
62.00000 145.756
62.04000 143.655
62.08000 140.796
62.12000 133.383
62.16000 148.140
62.20000 159.403
62.24000 139.241
62.28000 148.107
62.32000 131.952
62.36000 150.753
62.40000 142.090
62.44000 148.982
62.48000 132.839
62.52000 143.114
62.56000 133.094
62.60000 147.039
62.64000 151.615
62.68000 150.590
62.72000 146.629
62.76000 141.350
62.80000 144.144
62.84000 147.689
62.88000 144.511
62.92000 147.259
62.96000 145.575
63.00000 144.130
63.04000 142.974
63.08000 149.418
63.12000 143.770
63.16000 137.397
63.20000 147.298
63.24000 156.066
63.28000 155.311
63.32000 155.279
63.36000 155.493
63.40000 152.839
63.44000 151.641
63.48000 153.642
63.52000 158.406
63.56000 155.914
63.60000 169.574
63.64000 161.386
63.68000 151.268
63.72000 146.121
63.76000 162.117
63.80000 162.176
63.84000 161.856
63.88000 150.668
63.92000 168.215
63.96000 155.332
64.00000 163.712
64.04000 165.859
64.08000 163.790
64.12000 164.736
64.16000 158.769
64.20000 159.064
64.24000 155.265
64.28000 169.600
64.32000 162.625
64.36000 163.437
64.40000 167.934
64.44000 171.437
64.48000 166.900
64.52000 170.204
64.56000 178.914
64.60000 177.123
64.64000 182.333
64.68000 188.255
64.72000 181.522
64.76000 184.735
64.80000 190.634
64.84000 197.852
64.88000 195.279
64.92000 192.083
64.96000 204.874
65.00000 205.637
65.04000 209.097
65.08000 234.855
65.12000 240.308
65.16000 262.674
65.20000 279.004
65.24000 318.387
65.28000 349.136
65.32000 371.665
65.36000 401.628
65.40000 439.134
65.44000 448.414
65.48000 465.429
65.52000 464.660
65.56000 479.171
65.60000 468.706
65.64000 522.994
65.68000 631.130
65.72000 815.741
65.76000 1112.128
65.80000 1310.090
65.84000 1399.193
65.88000 1383.390
65.92000 1308.714
65.96000 1033.760
66.00000 713.600
66.04000 497.685
66.08000 378.605
66.12000 337.438
66.16000 329.171
66.20000 350.066
66.24000 360.468
66.28000 387.143
66.32000 461.957
66.36000 496.312
66.40000 531.558
66.44000 527.360
66.48000 491.806
66.52000 447.331
66.56000 384.031
66.60000 354.826
66.64000 354.949
66.68000 313.131
66.72000 343.991
66.76000 354.456
66.80000 340.115
66.84000 353.126
66.88000 366.091
66.92000 361.087
66.96000 381.178
67.00000 360.162
67.04000 363.217
67.08000 374.982
67.12000 392.907
67.16000 404.664
67.20000 419.835
67.24000 388.056
67.28000 439.562
67.32000 417.053
67.36000 426.047
67.40000 450.953
67.44000 455.208
67.48000 456.755
67.52000 463.638
67.56000 480.091
67.60000 478.421
67.64000 522.984
67.68000 505.609
67.72000 506.260
67.76000 541.471
67.80000 547.087
67.84000 554.710
67.88000 560.110
67.92000 572.958
67.96000 583.191
68.00000 592.783
68.04000 622.770
68.08000 618.092
68.12000 640.143
68.16000 651.800
68.20000 662.408
68.24000 667.474
68.28000 708.709
68.32000 721.756
68.36000 759.339
68.40000 810.786
68.44000 840.049
68.48000 874.654
68.52000 938.995
68.56000 1044.535
68.60000 1230.708
68.64000 1415.235
68.68000 1698.118
68.72000 1972.655
68.76000 2277.943
68.80000 2579.905
68.84000 3131.946
68.88000 4222.618
68.92000 9849.183
68.96000 23781.740
69.00000 49060.746
69.04000 70660.406
69.08000 80154.664
69.12000 82544.195
69.16000 85357.375
69.20000 81570.930
69.24000 66140.938
69.28000 51550.797
69.32000 43667.109
69.36000 38336.762
69.40000 29547.564
69.44000 16709.902
69.48000 7493.412
69.52000 3565.036
69.56000 2227.700
69.60000 1756.964
69.64000 1473.198
69.68000 1307.416
69.72000 1186.929
69.76000 1075.350
69.80000 1020.471
69.84000 925.797
69.88000 916.280
69.92000 847.396
69.96000 808.172
70.00000 764.131