File: XRD/30-09-2025 Dep 1/XY Data/BTO_Mapping_Theta2Theta_30-09-2025_001_09_36-542_16-269.xy
20.00000 605.223
20.04000 558.987
20.08000 582.494
20.12000 535.482
20.16000 554.214
20.20000 553.647
20.24000 564.561
20.28000 574.120
20.32000 543.489
20.36000 580.201
20.40000 561.732
20.44000 564.523
20.48000 562.859
20.52000 561.015
20.56000 554.493
20.60000 563.370
20.64000 565.650
20.68000 553.875
20.72000 543.126
20.76000 564.215
20.80000 561.104
20.84000 548.637
20.88000 555.736
20.92000 557.192
20.96000 547.202
21.00000 546.183
21.04000 573.619
21.08000 562.905
21.12000 551.648
21.16000 544.500
21.20000 548.804
21.24000 529.778
21.28000 540.251
21.32000 535.043
21.36000 538.220
21.40000 553.355
21.44000 562.305
21.48000 547.156
21.52000 558.779
21.56000 526.534
21.60000 558.862
21.64000 524.666
21.68000 555.097
21.72000 556.965
21.76000 564.684
21.80000 571.973
21.84000 572.299
21.88000 594.827
21.92000 618.192
21.96000 647.143
22.00000 670.499
22.04000 679.333
22.08000 690.975
22.12000 695.160
22.16000 665.114
22.20000 647.324
22.24000 619.101
22.28000 581.257
22.32000 578.042
22.36000 566.402
22.40000 559.297
22.44000 544.749
22.48000 548.182
22.52000 524.933
22.56000 549.740
22.60000 536.035
22.64000 515.567
22.68000 525.910
22.72000 509.320
22.76000 514.002
22.80000 537.401
22.84000 524.249
22.88000 534.077
22.92000 525.918
22.96000 523.200
23.00000 531.183
23.04000 499.685
23.08000 513.307
23.12000 538.761
23.16000 536.391
23.20000 510.235
23.24000 500.659
23.28000 515.843
23.32000 504.537
23.36000 511.317
23.40000 526.320
23.44000 496.885
23.48000 527.906
23.52000 510.490
23.56000 501.679
23.60000 504.485
23.64000 510.298
23.68000 527.287
23.72000 527.270
23.76000 500.285
23.80000 523.979
23.84000 507.093
23.88000 513.777
23.92000 511.319
23.96000 506.658
24.00000 515.643
24.04000 502.250
24.08000 512.296
24.12000 509.059
24.16000 506.012
24.20000 513.318
24.24000 497.835
24.28000 488.328
24.32000 482.750
24.36000 492.611
24.40000 496.938
24.44000 503.303
24.48000 516.136
24.52000 484.782
24.56000 483.241
24.60000 498.079
24.64000 476.816
24.68000 491.810
24.72000 490.363
24.76000 502.723
24.80000 491.560
24.84000 489.895
24.88000 472.451
24.92000 471.300
24.96000 473.829
25.00000 477.555
25.04000 478.486
25.08000 484.514
25.12000 479.001
25.16000 477.814
25.20000 487.250
25.24000 484.695
25.28000 460.115
25.32000 462.532
25.36000 464.908
25.40000 483.913
25.44000 453.198
25.48000 480.064
25.52000 478.678
25.56000 465.285
25.60000 467.560
25.64000 473.758
25.68000 458.649
25.72000 453.885
25.76000 466.226
25.80000 477.734
25.84000 474.020
25.88000 468.669
25.92000 476.961
25.96000 459.476
26.00000 463.964
26.04000 474.507
26.08000 463.710
26.12000 463.632
26.16000 466.976
26.20000 467.691
26.24000 457.871
26.28000 464.693
26.32000 451.726
26.36000 447.639
26.40000 450.421
26.44000 461.115
26.48000 450.437
26.52000 462.053
26.56000 447.805
26.60000 453.915
26.64000 444.880
26.68000 456.300
26.72000 445.975
26.76000 443.413
26.80000 464.857
26.84000 444.929
26.88000 452.382
26.92000 461.048
26.96000 429.567
27.00000 429.079
27.04000 473.092
27.08000 435.678
27.12000 439.304
27.16000 414.936
27.20000 435.468
27.24000 451.520
27.28000 451.427
27.32000 449.831
27.36000 452.922
27.40000 452.188
27.44000 444.253
27.48000 446.935
27.52000 438.665
27.56000 461.974
27.60000 444.535
27.64000 451.371
27.68000 425.981
27.72000 450.592
27.76000 428.112
27.80000 442.209
27.84000 450.280
27.88000 429.771
27.92000 424.484
27.96000 433.347
28.00000 447.553
28.04000 445.503
28.08000 429.645
28.12000 437.365
28.16000 420.491
28.20000 435.329
28.24000 428.226
28.28000 430.694
28.32000 414.487
28.36000 435.215
28.40000 439.290
28.44000 431.252
28.48000 427.852
28.52000 422.337
28.56000 429.174
28.60000 430.598
28.64000 424.152
28.68000 418.342
28.72000 432.872
28.76000 418.776
28.80000 418.308
28.84000 413.705
28.88000 415.246
28.92000 434.346
28.96000 429.351
29.00000 423.782
29.04000 423.633
29.08000 417.955
29.12000 415.919
29.16000 407.762
29.20000 426.567
29.24000 404.375
29.28000 404.462
29.32000 421.244
29.36000 416.502
29.40000 424.603
29.44000 424.166
29.48000 418.114
29.52000 404.365
29.56000 423.971
29.60000 405.608
29.64000 412.779
29.68000 411.060
29.72000 430.088
29.76000 409.447
29.80000 416.978
29.84000 395.633
29.88000 435.613
29.92000 455.071
29.96000 441.299
30.00000 447.603
30.04000 445.411
30.08000 440.086
30.12000 441.168
30.16000 449.019
30.20000 435.921
30.24000 437.305
30.28000 427.481
30.32000 421.789
30.36000 401.050
30.40000 429.344
30.44000 423.250
30.48000 430.030
30.52000 412.814
30.56000 417.772
30.60000 432.652
30.64000 446.404
30.68000 419.574
30.72000 432.566
30.76000 436.716
30.80000 434.268
30.84000 464.832
30.88000 448.695
30.92000 473.366
30.96000 503.858
31.00000 548.034
31.04000 628.475
31.08000 706.699
31.12000 921.863
31.16000 1211.148
31.20000 1530.839
31.24000 2050.749
31.28000 2661.809
31.32000 3117.174
31.36000 3425.443
31.40000 3527.434
31.44000 3289.616
31.48000 2821.645
31.52000 2314.157
31.56000 1765.308
31.60000 1322.142
31.64000 918.012
31.68000 732.124
31.72000 593.791
31.76000 519.123
31.80000 486.445
31.84000 467.207
31.88000 443.016
31.92000 433.203
31.96000 410.938
32.00000 416.022
32.04000 411.206
32.08000 414.346
32.12000 395.991
32.16000 408.955
32.20000 405.945
32.24000 405.514
32.28000 397.182
32.32000 394.228
32.36000 397.671
32.40000 390.595
32.44000 378.054
32.48000 380.889
32.52000 381.617
32.56000 383.312
32.60000 391.993
32.64000 367.694
32.68000 372.681
32.72000 346.706
32.76000 373.403
32.80000 372.048
32.84000 366.527
32.88000 383.246
32.92000 396.317
32.96000 413.760
33.00000 404.331
33.04000 407.973
33.08000 425.614
33.12000 403.093
33.16000 364.224
33.20000 357.380
33.24000 344.476
33.28000 347.429
33.32000 345.629
33.36000 346.272
33.40000 345.589
33.44000 353.755
33.48000 347.663
33.52000 334.329
33.56000 348.044
33.60000 336.844
33.64000 350.539
33.68000 349.944
33.72000 329.164
33.76000 354.458
33.80000 335.710
33.84000 337.012
33.88000 332.328
33.92000 338.165
33.96000 338.129
34.00000 328.242
34.04000 339.654
34.08000 320.188
34.12000 337.197
34.16000 344.670
34.20000 348.933
34.24000 353.500
34.28000 358.523
34.32000 357.193
34.36000 346.068
34.40000 345.290
34.44000 347.697
34.48000 356.834
34.52000 339.147
34.56000 353.332
34.60000 334.957
34.64000 322.483
34.68000 332.214
34.72000 329.665
34.76000 332.593
34.80000 333.396
34.84000 322.366
34.88000 327.013
34.92000 322.435
34.96000 329.018
35.00000 342.050
35.04000 316.697
35.08000 326.765
35.12000 323.981
35.16000 320.044
35.20000 326.931
35.24000 323.886
35.28000 313.773
35.32000 315.615
35.36000 303.482
35.40000 314.910
35.44000 330.794
35.48000 318.337
35.52000 316.144
35.56000 302.843
35.60000 297.005
35.64000 311.095
35.68000 308.216
35.72000 315.371
35.76000 316.485
35.80000 307.622
35.84000 302.016
35.88000 317.403
35.92000 312.510
35.96000 305.010
36.00000 317.321
36.04000 287.180
36.08000 303.931
36.12000 302.757
36.16000 285.973
36.20000 299.079
36.24000 299.367
36.28000 311.467
36.32000 298.196
36.36000 299.886
36.40000 293.992
36.44000 292.007
36.48000 295.833
36.52000 287.015
36.56000 305.101
36.60000 290.799
36.64000 292.994
36.68000 306.635
36.72000 311.790
36.76000 297.256
36.80000 301.510
36.84000 296.630
36.88000 291.072
36.92000 304.066
36.96000 300.653
37.00000 310.239
37.04000 298.319
37.08000 284.500
37.12000 309.291
37.16000 312.201
37.20000 317.659
37.24000 297.531
37.28000 291.554
37.32000 297.199
37.36000 295.407
37.40000 298.601
37.44000 303.600
37.48000 292.967
37.52000 291.989
37.56000 302.081
37.60000 282.111
37.64000 294.784
37.68000 287.248
37.72000 281.970
37.76000 277.810
37.80000 289.477
37.84000 289.542
37.88000 310.504
37.92000 307.504
37.96000 298.898
38.00000 280.890
38.04000 301.233
38.08000 291.966
38.12000 306.588
38.16000 298.703
38.20000 314.887
38.24000 317.750
38.28000 314.256
38.32000 340.015
38.36000 337.405
38.40000 349.743
38.44000 368.165
38.48000 429.794
38.52000 481.242
38.56000 559.431
38.60000 671.182
38.64000 805.509
38.68000 882.665
38.72000 926.505
38.76000 897.888
38.80000 877.970
38.84000 765.365
38.88000 673.498
38.92000 550.240
38.96000 444.398
39.00000 374.506
39.04000 344.420
39.08000 314.542
39.12000 300.368
39.16000 296.835
39.20000 297.652
39.24000 293.633
39.28000 278.012
39.32000 278.140
39.36000 293.752
39.40000 275.840
39.44000 271.412
39.48000 279.965
39.52000 269.259
39.56000 255.150
39.60000 265.768
39.64000 266.024
39.68000 258.528
39.72000 281.763
39.76000 262.929
39.80000 274.959
39.84000 265.864
39.88000 263.988
39.92000 266.231
39.96000 266.091
40.00000 263.621
40.04000 258.242
40.08000 261.950
40.12000 257.489
40.16000 240.890
40.20000 257.940
40.24000 266.337
40.28000 259.991
40.32000 240.860
40.36000 248.599
40.40000 246.979
40.44000 243.426
40.48000 252.041
40.52000 260.272
40.56000 267.435
40.60000 258.340
40.64000 246.458
40.68000 246.182
40.72000 237.610
40.76000 238.700
40.80000 247.500
40.84000 252.794
40.88000 261.471
40.92000 257.175
40.96000 236.527
41.00000 240.102
41.04000 249.959
41.08000 247.380
41.12000 263.259
41.16000 259.024
41.20000 249.904
41.24000 245.984
41.28000 245.765
41.32000 238.925
41.36000 246.184
41.40000 236.651
41.44000 243.922
41.48000 242.728
41.52000 240.896
41.56000 233.272
41.60000 235.046
41.64000 241.603
41.68000 235.401
41.72000 246.187
41.76000 232.147
41.80000 247.916
41.84000 239.591
41.88000 240.485
41.92000 255.843
41.96000 245.582
42.00000 240.225
42.04000 227.967
42.08000 235.735
42.12000 236.111
42.16000 236.992
42.20000 218.694
42.24000 228.267
42.28000 235.764
42.32000 242.866
42.36000 240.451
42.40000 237.276
42.44000 244.060
42.48000 233.638
42.52000 239.905
42.56000 226.291
42.60000 239.279
42.64000 233.747
42.68000 234.238
42.72000 242.116
42.76000 235.081
42.80000 213.118
42.84000 225.300
42.88000 227.525
42.92000 242.641
42.96000 228.033
43.00000 237.035
43.04000 220.843
43.08000 223.328
43.12000 231.239
43.16000 245.838
43.20000 232.291
43.24000 229.664
43.28000 209.073
43.32000 227.951
43.36000 228.492
43.40000 228.309
43.44000 225.803
43.48000 233.363
43.52000 232.442
43.56000 226.914
43.60000 209.845
43.64000 222.024
43.68000 221.447
43.72000 208.371
43.76000 217.924
43.80000 240.828
43.84000 224.745
43.88000 216.080
43.92000 214.155
43.96000 226.566
44.00000 219.173
44.04000 225.305
44.08000 214.449
44.12000 235.616
44.16000 221.489
44.20000 216.623
44.24000 226.797
44.28000 231.517
44.32000 218.980
44.36000 222.507
44.40000 221.403
44.44000 211.262
44.48000 228.081
44.52000 227.229
44.56000 223.551
44.60000 232.236
44.64000 224.411
44.68000 236.830
44.72000 234.262
44.76000 245.071
44.80000 250.432
44.84000 260.854
44.88000 261.723
44.92000 270.892
44.96000 304.136
45.00000 312.073
45.04000 310.958
45.08000 324.195
45.12000 330.508
45.16000 329.564
45.20000 327.317
45.24000 316.409
45.28000 303.989
45.32000 292.525
45.36000 275.001
45.40000 274.181
45.44000 250.831
45.48000 238.543
45.52000 245.150
45.56000 236.398
45.60000 223.477
45.64000 227.589
45.68000 229.071
45.72000 217.786
45.76000 216.519
45.80000 219.465
45.84000 209.073
45.88000 209.361
45.92000 217.896
45.96000 204.535
46.00000 212.249
46.04000 199.798
46.08000 208.795
46.12000 205.393
46.16000 204.811
46.20000 207.006
46.24000 204.495
46.28000 212.569
46.32000 203.523
46.36000 197.455
46.40000 210.665
46.44000 207.428
46.48000 211.602
46.52000 199.909
46.56000 208.947
46.60000 196.712
46.64000 201.334
46.68000 205.604
46.72000 186.156
46.76000 199.856
46.80000 202.032
46.84000 189.775
46.88000 192.476
46.92000 191.477
46.96000 193.836
47.00000 190.865
47.04000 194.476
47.08000 192.475
47.12000 201.236
47.16000 196.986
47.20000 201.105
47.24000 206.097
47.28000 185.376
47.32000 190.736
47.36000 199.061
47.40000 187.927
47.44000 196.996
47.48000 194.083
47.52000 189.494
47.56000 187.524
47.60000 188.651
47.64000 190.988
47.68000 189.373
47.72000 199.253
47.76000 175.641
47.80000 189.420
47.84000 182.246
47.88000 181.797
47.92000 181.000
47.96000 187.148
48.00000 186.424
48.04000 189.110
48.08000 190.935
48.12000 181.828
48.16000 184.995
48.20000 189.599
48.24000 183.895
48.28000 180.627
48.32000 182.871
48.36000 188.975
48.40000 176.278
48.44000 187.242
48.48000 178.106
48.52000 185.312
48.56000 177.251
48.60000 177.104
48.64000 181.316
48.68000 182.575
48.72000 191.794
48.76000 184.692
48.80000 171.034
48.84000 181.640
48.88000 190.488
48.92000 184.163
48.96000 167.146
49.00000 184.023
49.04000 182.623
49.08000 179.087
49.12000 184.175
49.16000 178.921
49.20000 191.724
49.24000 175.240
49.28000 190.051
49.32000 170.660
49.36000 172.740
49.40000 179.796
49.44000 180.277
49.48000 181.386
49.52000 182.197
49.56000 174.840
49.60000 176.923
49.64000 185.024
49.68000 177.806
49.72000 171.725
49.76000 180.395
49.80000 185.517
49.84000 186.402
49.88000 176.482
49.92000 176.887
49.96000 173.934
50.00000 187.332
50.04000 179.811
50.08000 173.805
50.12000 179.815
50.16000 181.882
50.20000 174.812
50.24000 197.872
50.28000 186.547
50.32000 187.489
50.36000 192.353
50.40000 196.763
50.44000 203.598
50.48000 204.828
50.52000 215.080
50.56000 232.332
50.60000 239.733
50.64000 268.542
50.68000 264.146
50.72000 262.094
50.76000 262.000
50.80000 263.141
50.84000 243.978
50.88000 235.014
50.92000 217.867
50.96000 202.222
51.00000 202.659
51.04000 180.499
51.08000 187.561
51.12000 187.066
51.16000 175.834
51.20000 164.357
51.24000 178.909
51.28000 168.148
51.32000 170.613
51.36000 183.578
51.40000 164.282
51.44000 161.539
51.48000 164.791
51.52000 173.472
51.56000 163.445
51.60000 171.622
51.64000 166.826
51.68000 174.923
51.72000 168.712
51.76000 157.958
51.80000 163.128
51.84000 161.496
51.88000 159.812
51.92000 165.056
51.96000 164.577
52.00000 165.945
52.04000 156.869
52.08000 159.535
52.12000 165.765
52.16000 165.287
52.20000 151.351
52.24000 170.872
52.28000 150.976
52.32000 172.745
52.36000 170.614
52.40000 165.267
52.44000 152.731
52.48000 153.403
52.52000 165.702
52.56000 159.459
52.60000 160.751
52.64000 153.320
52.68000 159.694
52.72000 164.448
52.76000 165.415
52.80000 145.328
52.84000 154.795
52.88000 164.558
52.92000 163.075
52.96000 154.375
53.00000 153.930
53.04000 160.670
53.08000 159.727
53.12000 160.551
53.16000 159.153
53.20000 163.833
53.24000 163.648
53.28000 156.736
53.32000 162.089
53.36000 166.854
53.40000 163.405
53.44000 162.253
53.48000 164.044
53.52000 161.242
53.56000 151.719
53.60000 153.534
53.64000 157.182
53.68000 160.024
53.72000 164.470
53.76000 170.738
53.80000 156.690
53.84000 157.918
53.88000 159.607
53.92000 161.245
53.96000 157.413
54.00000 156.440
54.04000 157.292
54.08000 149.515
54.12000 158.369
54.16000 154.688
54.20000 158.275
54.24000 157.982
54.28000 154.856
54.32000 157.478
54.36000 149.489
54.40000 156.210
54.44000 153.256
54.48000 148.926
54.52000 154.440
54.56000 161.895
54.60000 172.711
54.64000 161.680
54.68000 155.052
54.72000 149.884
54.76000 150.489
54.80000 167.886
54.84000 160.015
54.88000 167.419
54.92000 156.807
54.96000 166.585
55.00000 156.931
55.04000 156.809
55.08000 158.164
55.12000 162.278
55.16000 151.714
55.20000 153.949
55.24000 170.304
55.28000 162.788
55.32000 169.854
55.36000 178.209
55.40000 169.623
55.44000 178.872
55.48000 181.047
55.52000 203.589
55.56000 210.382
55.60000 227.871
55.64000 253.797
55.68000 279.727
55.72000 327.466
55.76000 392.471
55.80000 439.855
55.84000 519.518
55.88000 577.151
55.92000 627.696
55.96000 629.674
56.00000 639.814
56.04000 629.808
56.08000 580.995
56.12000 485.887
56.16000 425.121
56.20000 381.586
56.24000 292.598
56.28000 260.577
56.32000 214.574
56.36000 200.636
56.40000 197.670
56.44000 189.071
56.48000 180.215
56.52000 174.216
56.56000 185.560
56.60000 158.499
56.64000 157.825
56.68000 154.286
56.72000 163.411
56.76000 158.152
56.80000 152.194
56.84000 155.732
56.88000 159.286
56.92000 159.586
56.96000 151.167
57.00000 152.357
57.04000 153.235
57.08000 155.107
57.12000 141.942
57.16000 148.368
57.20000 142.737
57.24000 140.227
57.28000 137.500
57.32000 150.250
57.36000 152.485
57.40000 142.785
57.44000 149.701
57.48000 136.720
57.52000 141.425
57.56000 152.294
57.60000 145.409
57.64000 138.668
57.68000 137.641
57.72000 149.012
57.76000 148.925
57.80000 147.108
57.84000 149.715
57.88000 153.320
57.92000 134.883
57.96000 137.777
58.00000 145.138
58.04000 141.868
58.08000 138.542
58.12000 145.967
58.16000 142.810
58.20000 138.888
58.24000 140.859
58.28000 134.009
58.32000 142.047
58.36000 138.365
58.40000 138.201
58.44000 131.234
58.48000 146.304
58.52000 141.880
58.56000 139.839
58.60000 139.211
58.64000 119.466
58.68000 135.195
58.72000 151.590
58.76000 141.053
58.80000 133.329
58.84000 133.592
58.88000 129.802
58.92000 136.244
58.96000 130.993
59.00000 129.936
59.04000 138.797
59.08000 134.285
59.12000 133.819
59.16000 131.096
59.20000 137.815
59.24000 124.865
59.28000 142.488
59.32000 131.196
59.36000 137.842
59.40000 137.365
59.44000 145.740
59.48000 139.929
59.52000 135.339
59.56000 131.277
59.60000 131.002
59.64000 132.017
59.68000 128.691
59.72000 134.179
59.76000 130.900
59.80000 136.355
59.84000 130.353
59.88000 137.979
59.92000 136.951
59.96000 131.883
60.00000 125.851
60.04000 128.793
60.08000 137.066
60.12000 143.724
60.16000 130.220
60.20000 128.170
60.24000 139.272
60.28000 128.833
60.32000 142.032
60.36000 138.890
60.40000 140.501
60.44000 138.908
60.48000 123.589
60.52000 132.067
60.56000 139.942
60.60000 128.643
60.64000 130.017
60.68000 131.574
60.72000 126.441
60.76000 128.562
60.80000 137.228
60.84000 135.417
60.88000 147.090
60.92000 136.724
60.96000 133.084
61.00000 127.259
61.04000 142.397
61.08000 145.263
61.12000 133.103
61.16000 134.349
61.20000 137.098
61.24000 139.408
61.28000 138.065
61.32000 137.124
61.36000 136.305
61.40000 142.773
61.44000 131.586
61.48000 146.557
61.52000 176.173
61.56000 206.627
61.60000 245.517
61.64000 275.214
61.68000 280.706
61.72000 275.710
61.76000 254.551
61.80000 206.644
61.84000 166.909
61.88000 152.713
61.92000 143.052
61.96000 143.146
62.00000 129.434
62.04000 136.207
62.08000 140.325
62.12000 137.500
62.16000 142.468
62.20000 139.505
62.24000 134.976
62.28000 151.691
62.32000 138.315
62.36000 137.904
62.40000 143.958
62.44000 131.832
62.48000 153.111
62.52000 148.556
62.56000 137.718
62.60000 143.082
62.64000 145.768
62.68000 143.052
62.72000 135.852
62.76000 131.478
62.80000 126.753
62.84000 131.375
62.88000 148.362
62.92000 141.019
62.96000 145.287
63.00000 149.229
63.04000 149.632
63.08000 133.183
63.12000 148.925
63.16000 152.465
63.20000 141.007
63.24000 144.760
63.28000 143.982
63.32000 149.088
63.36000 138.640
63.40000 143.326
63.44000 146.003
63.48000 146.393
63.52000 153.121
63.56000 149.793
63.60000 146.041
63.64000 152.147
63.68000 152.728
63.72000 156.433
63.76000 155.839
63.80000 155.896
63.84000 153.539
63.88000 155.547
63.92000 158.816
63.96000 147.613
64.00000 153.753
64.04000 154.249
64.08000 151.734
64.12000 172.247
64.16000 173.970
64.20000 165.016
64.24000 151.912
64.28000 163.883
64.32000 149.529
64.36000 163.196
64.40000 154.895
64.44000 165.177
64.48000 170.208
64.52000 161.298
64.56000 168.183
64.60000 185.911
64.64000 172.602
64.68000 187.596
64.72000 186.717
64.76000 179.695
64.80000 172.225
64.84000 175.084
64.88000 183.327
64.92000 190.606
64.96000 183.236
65.00000 190.639
65.04000 199.343
65.08000 196.415
65.12000 210.434
65.16000 223.165
65.20000 228.633
65.24000 249.704
65.28000 255.401
65.32000 264.773
65.36000 294.911
65.40000 315.517
65.44000 348.018
65.48000 369.169
65.52000 392.581
65.56000 427.639
65.60000 441.293
65.64000 473.969
65.68000 543.885
65.72000 704.630
65.76000 890.447
65.80000 1071.339
65.84000 1102.832
65.88000 1111.604
65.92000 1053.067
65.96000 851.864
66.00000 607.604
66.04000 428.174
66.08000 340.811
66.12000 313.094
66.16000 287.888
66.20000 300.346
66.24000 306.398
66.28000 330.381
66.32000 387.281
66.36000 414.586
66.40000 426.991
66.44000 442.120
66.48000 448.628
66.52000 393.986
66.56000 366.381
66.60000 325.634
66.64000 317.768
66.68000 317.092
66.72000 309.143
66.76000 310.717
66.80000 307.601
66.84000 313.397
66.88000 339.833
66.92000 322.253
66.96000 319.928
67.00000 347.108
67.04000 332.388
67.08000 341.409
67.12000 374.809
67.16000 369.322
67.20000 370.908
67.24000 376.229
67.28000 370.714
67.32000 389.696
67.36000 391.371
67.40000 414.513
67.44000 403.618
67.48000 409.879
67.52000 412.493
67.56000 432.679
67.60000 437.503
67.64000 452.263
67.68000 462.605
67.72000 476.951
67.76000 459.756
67.80000 469.859
67.84000 497.267
67.88000 505.041
67.92000 494.718
67.96000 515.395
68.00000 542.022
68.04000 546.413
68.08000 563.563
68.12000 567.040
68.16000 582.439
68.20000 584.393
68.24000 611.066
68.28000 619.804
68.32000 636.285
68.36000 656.524
68.40000 700.088
68.44000 718.876
68.48000 770.307
68.52000 808.304
68.56000 881.979
68.60000 976.083
68.64000 1153.493
68.68000 1346.004
68.72000 1564.650
68.76000 1821.238
68.80000 2044.451
68.84000 2374.533
68.88000 2989.917
68.92000 6197.446
68.96000 15912.563
69.00000 35164.180
69.04000 52198.297
69.08000 58930.926
69.12000 60318.855
69.16000 62983.801
69.20000 61066.484
69.24000 49201.578
69.28000 37048.984
69.32000 31558.783
69.36000 28589.211
69.40000 22391.336
69.44000 12468.698
69.48000 5291.582
69.52000 2560.175
69.56000 1740.308
69.60000 1411.208
69.64000 1249.718
69.68000 1090.681
69.72000 973.730
69.76000 911.442
69.80000 885.190
69.84000 801.358
69.88000 741.218
69.92000 731.987
69.96000 696.776
70.00000 675.095