File: XRD/30-09-2025 Dep 1/XY Data/BTO_Mapping_Theta2Theta_30-09-2025_001_19_-2-091_19-890.xy
20.00000 566.938
20.04000 584.046
20.08000 569.827
20.12000 572.886
20.16000 570.011
20.20000 553.971
20.24000 582.193
20.28000 557.203
20.32000 535.984
20.36000 567.474
20.40000 563.804
20.44000 556.373
20.48000 555.547
20.52000 575.928
20.56000 564.519
20.60000 559.937
20.64000 561.153
20.68000 552.201
20.72000 570.184
20.76000 578.103
20.80000 571.511
20.84000 538.227
20.88000 541.512
20.92000 557.277
20.96000 560.114
21.00000 553.541
21.04000 544.592
21.08000 538.892
21.12000 544.472
21.16000 546.362
21.20000 542.729
21.24000 554.895
21.28000 542.541
21.32000 522.293
21.36000 567.499
21.40000 552.545
21.44000 549.507
21.48000 540.493
21.52000 557.835
21.56000 542.280
21.60000 547.174
21.64000 569.646
21.68000 538.980
21.72000 556.250
21.76000 559.165
21.80000 567.212
21.84000 553.614
21.88000 580.999
21.92000 591.905
21.96000 603.970
22.00000 625.680
22.04000 641.849
22.08000 675.103
22.12000 651.325
22.16000 626.331
22.20000 599.152
22.24000 598.612
22.28000 579.126
22.32000 567.739
22.36000 573.468
22.40000 555.678
22.44000 541.267
22.48000 526.184
22.52000 546.384
22.56000 522.558
22.60000 525.953
22.64000 532.050
22.68000 526.661
22.72000 537.088
22.76000 514.215
22.80000 515.921
22.84000 527.329
22.88000 509.609
22.92000 490.625
22.96000 508.316
23.00000 532.149
23.04000 512.479
23.08000 501.324
23.12000 523.498
23.16000 534.793
23.20000 520.839
23.24000 517.837
23.28000 499.017
23.32000 502.873
23.36000 504.590
23.40000 506.821
23.44000 515.593
23.48000 487.071
23.52000 508.863
23.56000 516.576
23.60000 493.147
23.64000 530.221
23.68000 515.661
23.72000 504.087
23.76000 506.585
23.80000 514.477
23.84000 532.850
23.88000 521.782
23.92000 517.059
23.96000 538.163
24.00000 516.209
24.04000 527.737
24.08000 527.023
24.12000 527.562
24.16000 528.257
24.20000 513.411
24.24000 537.261
24.28000 507.650
24.32000 512.284
24.36000 508.766
24.40000 507.968
24.44000 511.467
24.48000 512.660
24.52000 487.182
24.56000 475.169
24.60000 476.949
24.64000 498.687
24.68000 490.938
24.72000 479.577
24.76000 496.832
24.80000 489.880
24.84000 466.144
24.88000 487.158
24.92000 474.186
24.96000 494.327
25.00000 483.733
25.04000 496.538
25.08000 463.621
25.12000 482.554
25.16000 465.698
25.20000 498.525
25.24000 477.127
25.28000 471.865
25.32000 455.855
25.36000 494.546
25.40000 462.020
25.44000 465.185
25.48000 454.786
25.52000 469.935
25.56000 476.032
25.60000 480.598
25.64000 452.458
25.68000 461.025
25.72000 470.357
25.76000 453.494
25.80000 452.406
25.84000 469.690
25.88000 472.249
25.92000 495.825
25.96000 476.969
26.00000 467.589
26.04000 470.783
26.08000 460.136
26.12000 465.863
26.16000 452.279
26.20000 452.354
26.24000 452.122
26.28000 474.254
26.32000 453.163
26.36000 463.382
26.40000 465.741
26.44000 452.822
26.48000 454.572
26.52000 450.105
26.56000 449.610
26.60000 445.604
26.64000 474.014
26.68000 444.507
26.72000 429.462
26.76000 442.729
26.80000 437.007
26.84000 460.870
26.88000 452.489
26.92000 459.648
26.96000 442.426
27.00000 442.159
27.04000 455.546
27.08000 440.460
27.12000 443.349
27.16000 433.513
27.20000 450.962
27.24000 456.430
27.28000 429.260
27.32000 447.133
27.36000 438.464
27.40000 444.065
27.44000 450.111
27.48000 449.130
27.52000 430.720
27.56000 436.359
27.60000 459.437
27.64000 446.334
27.68000 440.395
27.72000 451.584
27.76000 444.586
27.80000 450.532
27.84000 442.401
27.88000 445.775
27.92000 436.605
27.96000 442.170
28.00000 441.523
28.04000 434.282
28.08000 451.121
28.12000 425.466
28.16000 441.961
28.20000 420.933
28.24000 439.695
28.28000 438.052
28.32000 446.352
28.36000 430.052
28.40000 414.484
28.44000 416.188
28.48000 436.943
28.52000 436.804
28.56000 416.979
28.60000 406.471
28.64000 415.086
28.68000 424.856
28.72000 423.501
28.76000 425.583
28.80000 431.572
28.84000 404.612
28.88000 420.018
28.92000 434.434
28.96000 429.538
29.00000 436.954
29.04000 411.952
29.08000 417.567
29.12000 421.950
29.16000 425.717
29.20000 410.959
29.24000 416.402
29.28000 409.998
29.32000 392.109
29.36000 410.587
29.40000 397.460
29.44000 404.844
29.48000 392.148
29.52000 406.871
29.56000 395.353
29.60000 397.842
29.64000 431.488
29.68000 425.383
29.72000 408.356
29.76000 405.857
29.80000 428.907
29.84000 415.333
29.88000 428.456
29.92000 424.274
29.96000 426.285
30.00000 446.080
30.04000 423.655
30.08000 437.781
30.12000 445.051
30.16000 423.350
30.20000 438.219
30.24000 417.523
30.28000 425.456
30.32000 419.642
30.36000 413.229
30.40000 418.150
30.44000 414.980
30.48000 410.531
30.52000 408.706
30.56000 410.821
30.60000 414.683
30.64000 398.141
30.68000 425.159
30.72000 405.632
30.76000 453.251
30.80000 437.286
30.84000 442.965
30.88000 471.156
30.92000 471.160
30.96000 486.333
31.00000 503.640
31.04000 541.242
31.08000 652.817
31.12000 746.395
31.16000 958.881
31.20000 1246.224
31.24000 1638.353
31.28000 2065.691
31.32000 2489.199
31.36000 2733.832
31.40000 2849.581
31.44000 2677.663
31.48000 2484.264
31.52000 2009.479
31.56000 1548.538
31.60000 1167.806
31.64000 919.803
31.68000 717.086
31.72000 585.173
31.76000 520.452
31.80000 476.896
31.84000 450.795
31.88000 446.169
31.92000 432.071
31.96000 422.392
32.00000 405.057
32.04000 423.069
32.08000 416.733
32.12000 414.470
32.16000 412.885
32.20000 413.189
32.24000 391.796
32.28000 388.652
32.32000 388.447
32.36000 384.177
32.40000 391.964
32.44000 396.568
32.48000 392.762
32.52000 389.706
32.56000 376.071
32.60000 373.019
32.64000 368.313
32.68000 374.638
32.72000 347.332
32.76000 381.192
32.80000 349.715
32.84000 356.324
32.88000 365.302
32.92000 374.617
32.96000 368.392
33.00000 375.679
33.04000 360.115
33.08000 390.701
33.12000 381.171
33.16000 382.520
33.20000 355.569
33.24000 347.778
33.28000 343.831
33.32000 351.119
33.36000 358.870
33.40000 345.654
33.44000 325.764
33.48000 338.202
33.52000 338.744
33.56000 371.310
33.60000 349.743
33.64000 335.728
33.68000 341.130
33.72000 350.976
33.76000 354.299
33.80000 353.415
33.84000 355.388
33.88000 347.008
33.92000 337.488
33.96000 355.441
34.00000 342.709
34.04000 339.762
34.08000 344.510
34.12000 332.802
34.16000 343.258
34.20000 366.139
34.24000 352.037
34.28000 354.382
34.32000 343.849
34.36000 356.904
34.40000 352.226
34.44000 351.115
34.48000 356.562
34.52000 372.502
34.56000 366.763
34.60000 333.098
34.64000 337.114
34.68000 348.820
34.72000 348.416
34.76000 355.773
34.80000 360.847
34.84000 332.485
34.88000 342.387
34.92000 328.227
34.96000 323.312
35.00000 318.562
35.04000 321.425
35.08000 330.876
35.12000 321.498
35.16000 318.574
35.20000 316.380
35.24000 313.085
35.28000 308.849
35.32000 308.999
35.36000 321.549
35.40000 305.202
35.44000 308.473
35.48000 326.661
35.52000 331.761
35.56000 311.830
35.60000 310.088
35.64000 303.479
35.68000 315.469
35.72000 307.058
35.76000 322.398
35.80000 309.616
35.84000 324.801
35.88000 307.637
35.92000 295.921
35.96000 305.783
36.00000 297.758
36.04000 300.794
36.08000 303.332
36.12000 309.587
36.16000 301.944
36.20000 305.436
36.24000 295.392
36.28000 297.002
36.32000 297.146
36.36000 288.377
36.40000 295.855
36.44000 298.265
36.48000 284.810
36.52000 293.503
36.56000 310.230
36.60000 296.125
36.64000 301.725
36.68000 310.713
36.72000 300.578
36.76000 298.122
36.80000 311.299
36.84000 299.805
36.88000 272.649
36.92000 309.409
36.96000 314.027
37.00000 307.346
37.04000 311.309
37.08000 313.627
37.12000 311.433
37.16000 286.433
37.20000 301.008
37.24000 304.648
37.28000 304.359
37.32000 299.718
37.36000 295.431
37.40000 308.701
37.44000 297.227
37.48000 286.245
37.52000 288.083
37.56000 291.167
37.60000 289.444
37.64000 296.839
37.68000 297.167
37.72000 301.203
37.76000 294.393
37.80000 302.017
37.84000 285.440
37.88000 287.292
37.92000 300.344
37.96000 301.519
38.00000 299.759
38.04000 310.253
38.08000 301.713
38.12000 301.386
38.16000 297.844
38.20000 305.980
38.24000 299.361
38.28000 313.205
38.32000 310.895
38.36000 333.136
38.40000 357.650
38.44000 399.726
38.48000 437.834
38.52000 495.405
38.56000 609.486
38.60000 768.073
38.64000 903.994
38.68000 1029.335
38.72000 1115.401
38.76000 1139.947
38.80000 1086.129
38.84000 973.941
38.88000 826.344
38.92000 679.556
38.96000 520.403
39.00000 438.090
39.04000 390.346
39.08000 341.041
39.12000 319.192
39.16000 308.577
39.20000 293.543
39.24000 289.938
39.28000 282.081
39.32000 285.759
39.36000 281.329
39.40000 282.752
39.44000 282.474
39.48000 276.198
39.52000 279.710
39.56000 294.216
39.60000 273.504
39.64000 268.171
39.68000 284.147
39.72000 279.534
39.76000 267.699
39.80000 264.054
39.84000 253.121
39.88000 261.568
39.92000 260.584
39.96000 267.249
40.00000 265.328
40.04000 268.540
40.08000 255.153
40.12000 251.453
40.16000 267.945
40.20000 263.780
40.24000 275.231
40.28000 254.695
40.32000 257.948
40.36000 263.603
40.40000 253.497
40.44000 261.750
40.48000 264.265
40.52000 254.494
40.56000 261.112
40.60000 250.060
40.64000 247.151
40.68000 251.855
40.72000 261.902
40.76000 239.197
40.80000 252.793
40.84000 245.863
40.88000 247.051
40.92000 258.198
40.96000 245.577
41.00000 250.061
41.04000 237.063
41.08000 248.909
41.12000 254.198
41.16000 240.366
41.20000 250.469
41.24000 237.903
41.28000 252.583
41.32000 247.441
41.36000 250.180
41.40000 234.853
41.44000 257.636
41.48000 249.752
41.52000 244.911
41.56000 246.303
41.60000 251.299
41.64000 237.308
41.68000 238.041
41.72000 241.026
41.76000 243.687
41.80000 242.854
41.84000 247.446
41.88000 246.145
41.92000 250.747
41.96000 253.708
42.00000 225.674
42.04000 236.463
42.08000 239.261
42.12000 236.001
42.16000 250.811
42.20000 248.908
42.24000 250.510
42.28000 241.675
42.32000 234.522
42.36000 241.581
42.40000 229.976
42.44000 241.968
42.48000 221.413
42.52000 239.582
42.56000 247.028
42.60000 238.036
42.64000 230.865
42.68000 242.081
42.72000 236.159
42.76000 224.960
42.80000 232.112
42.84000 222.100
42.88000 242.336
42.92000 232.181
42.96000 239.212
43.00000 232.732
43.04000 231.475
43.08000 237.456
43.12000 222.893
43.16000 233.443
43.20000 228.699
43.24000 232.961
43.28000 233.225
43.32000 235.355
43.36000 221.007
43.40000 225.668
43.44000 219.465
43.48000 236.902
43.52000 225.444
43.56000 219.573
43.60000 225.260
43.64000 239.830
43.68000 227.572
43.72000 233.204
43.76000 225.382
43.80000 225.904
43.84000 220.836
43.88000 224.224
43.92000 217.094
43.96000 226.730
44.00000 222.073
44.04000 218.744
44.08000 217.451
44.12000 222.819
44.16000 227.093
44.20000 218.530
44.24000 215.045
44.28000 223.082
44.32000 219.809
44.36000 216.618
44.40000 218.990
44.44000 219.427
44.48000 219.257
44.52000 222.213
44.56000 230.642
44.60000 218.805
44.64000 228.917
44.68000 233.969
44.72000 236.286
44.76000 226.778
44.80000 246.271
44.84000 232.705
44.88000 253.264
44.92000 272.172
44.96000 279.554
45.00000 295.716
45.04000 288.169
45.08000 297.054
45.12000 314.982
45.16000 318.454
45.20000 303.556
45.24000 297.171
45.28000 287.173
45.32000 271.963
45.36000 258.457
45.40000 244.522
45.44000 235.404
45.48000 240.228
45.52000 236.082
45.56000 234.141
45.60000 225.563
45.64000 215.876
45.68000 216.801
45.72000 214.857
45.76000 220.288
45.80000 206.008
45.84000 203.462
45.88000 208.538
45.92000 210.578
45.96000 210.455
46.00000 188.760
46.04000 207.504
46.08000 206.191
46.12000 204.594
46.16000 211.162
46.20000 213.462
46.24000 206.049
46.28000 200.981
46.32000 199.819
46.36000 208.045
46.40000 208.553
46.44000 208.505
46.48000 218.414
46.52000 207.246
46.56000 205.999
46.60000 211.685
46.64000 202.322
46.68000 200.045
46.72000 208.988
46.76000 210.532
46.80000 206.430
46.84000 202.578
46.88000 198.861
46.92000 187.814
46.96000 197.187
47.00000 202.103
47.04000 188.687
47.08000 197.735
47.12000 184.633
47.16000 199.527
47.20000 194.290
47.24000 194.161
47.28000 197.567
47.32000 188.597
47.36000 199.352
47.40000 194.658
47.44000 199.079
47.48000 190.432
47.52000 179.579
47.56000 197.919
47.60000 203.447
47.64000 196.034
47.68000 188.962
47.72000 198.966
47.76000 196.073
47.80000 184.697
47.84000 185.737
47.88000 183.129
47.92000 180.917
47.96000 170.992
48.00000 189.180
48.04000 194.874
48.08000 188.387
48.12000 181.413
48.16000 197.287
48.20000 191.211
48.24000 187.039
48.28000 199.231
48.32000 191.194
48.36000 168.607
48.40000 201.858
48.44000 178.378
48.48000 187.184
48.52000 183.336
48.56000 184.325
48.60000 171.836
48.64000 184.551
48.68000 178.622
48.72000 176.364
48.76000 190.656
48.80000 182.101
48.84000 188.164
48.88000 173.430
48.92000 183.319
48.96000 179.994
49.00000 174.948
49.04000 184.213
49.08000 174.020
49.12000 188.234
49.16000 170.577
49.20000 182.257
49.24000 182.023
49.28000 172.284
49.32000 177.407
49.36000 187.494
49.40000 181.465
49.44000 163.470
49.48000 171.779
49.52000 170.582
49.56000 174.512
49.60000 188.401
49.64000 181.687
49.68000 174.064
49.72000 178.050
49.76000 176.632
49.80000 175.030
49.84000 165.179
49.88000 162.046
49.92000 175.081
49.96000 177.108
50.00000 168.134
50.04000 171.618
50.08000 184.995
50.12000 171.461
50.16000 182.950
50.20000 170.697
50.24000 183.373
50.28000 182.863
50.32000 186.372
50.36000 180.657
50.40000 189.552
50.44000 181.306
50.48000 197.445
50.52000 214.070
50.56000 222.283
50.60000 221.386
50.64000 252.069
50.68000 239.878
50.72000 239.587
50.76000 235.090
50.80000 244.581
50.84000 224.503
50.88000 214.839
50.92000 214.277
50.96000 198.977
51.00000 193.819
51.04000 183.862
51.08000 176.278
51.12000 175.018
51.16000 171.883
51.20000 164.718
51.24000 163.659
51.28000 177.065
51.32000 171.431
51.36000 178.986
51.40000 175.488
51.44000 172.972
51.48000 163.571
51.52000 168.321
51.56000 170.445
51.60000 173.846
51.64000 166.237
51.68000 166.240
51.72000 164.616
51.76000 160.748
51.80000 155.063
51.84000 169.485
51.88000 162.069
51.92000 156.530
51.96000 164.644
52.00000 172.794
52.04000 169.560
52.08000 175.120
52.12000 153.751
52.16000 156.231
52.20000 160.329
52.24000 171.051
52.28000 170.913
52.32000 164.239
52.36000 155.395
52.40000 158.631
52.44000 161.677
52.48000 165.247
52.52000 165.124
52.56000 165.667
52.60000 162.299
52.64000 161.675
52.68000 163.246
52.72000 153.876
52.76000 161.706
52.80000 156.451
52.84000 159.685
52.88000 163.762
52.92000 157.863
52.96000 159.498
53.00000 156.259
53.04000 155.515
53.08000 159.399
53.12000 167.679
53.16000 151.407
53.20000 161.501
53.24000 160.984
53.28000 163.520
53.32000 159.607
53.36000 152.416
53.40000 163.327
53.44000 162.446
53.48000 159.263
53.52000 143.913
53.56000 160.119
53.60000 164.069
53.64000 156.892
53.68000 159.009
53.72000 162.247
53.76000 155.083
53.80000 157.517
53.84000 160.077
53.88000 155.817
53.92000 159.253
53.96000 151.187
54.00000 158.207
54.04000 147.069
54.08000 150.357
54.12000 156.122
54.16000 153.744
54.20000 161.880
54.24000 160.454
54.28000 148.927
54.32000 154.235
54.36000 156.678
54.40000 151.900
54.44000 161.308
54.48000 159.317
54.52000 159.720
54.56000 161.322
54.60000 154.895
54.64000 149.975
54.68000 157.394
54.72000 147.741
54.76000 158.182
54.80000 157.785
54.84000 150.449
54.88000 149.439
54.92000 161.687
54.96000 157.330
55.00000 158.790
55.04000 158.490
55.08000 159.319
55.12000 160.132
55.16000 163.040
55.20000 159.815
55.24000 170.138
55.28000 170.380
55.32000 168.886
55.36000 174.421
55.40000 171.825
55.44000 179.089
55.48000 193.520
55.52000 200.879
55.56000 211.832
55.60000 218.850
55.64000 242.612
55.68000 285.690
55.72000 323.435
55.76000 370.500
55.80000 437.744
55.84000 524.253
55.88000 564.336
55.92000 603.725
55.96000 627.084
56.00000 607.412
56.04000 563.703
56.08000 547.773
56.12000 474.416
56.16000 427.793
56.20000 378.218
56.24000 316.613
56.28000 272.324
56.32000 237.473
56.36000 214.703
56.40000 203.604
56.44000 192.276
56.48000 185.027
56.52000 187.001
56.56000 170.496
56.60000 168.717
56.64000 165.672
56.68000 158.626
56.72000 162.382
56.76000 161.597
56.80000 161.334
56.84000 161.171
56.88000 145.487
56.92000 142.933
56.96000 150.860
57.00000 140.124
57.04000 144.214
57.08000 140.046
57.12000 142.950
57.16000 147.278
57.20000 143.266
57.24000 151.465
57.28000 145.012
57.32000 141.612
57.36000 148.179
57.40000 160.044
57.44000 139.906
57.48000 146.277
57.52000 146.963
57.56000 142.964
57.60000 143.623
57.64000 132.225
57.68000 132.937
57.72000 134.369
57.76000 147.507
57.80000 145.194
57.84000 143.702
57.88000 134.661
57.92000 143.651
57.96000 141.425
58.00000 140.673
58.04000 139.810
58.08000 140.356
58.12000 140.857
58.16000 140.597
58.20000 144.183
58.24000 150.255
58.28000 149.497
58.32000 137.162
58.36000 137.341
58.40000 151.880
58.44000 132.128
58.48000 128.933
58.52000 137.216
58.56000 137.211
58.60000 144.640
58.64000 130.992
58.68000 140.911
58.72000 133.566
58.76000 135.860
58.80000 134.270
58.84000 139.810
58.88000 138.884
58.92000 129.075
58.96000 127.580
59.00000 132.616
59.04000 135.494
59.08000 129.797
59.12000 133.958
59.16000 140.504
59.20000 142.374
59.24000 137.462
59.28000 141.679
59.32000 144.140
59.36000 135.967
59.40000 134.227
59.44000 130.183
59.48000 137.521
59.52000 132.194
59.56000 129.399
59.60000 130.892
59.64000 129.913
59.68000 139.049
59.72000 137.290
59.76000 136.067
59.80000 135.170
59.84000 131.452
59.88000 131.013
59.92000 132.617
59.96000 131.132
60.00000 134.885
60.04000 139.888
60.08000 136.141
60.12000 136.407
60.16000 129.882
60.20000 130.150
60.24000 143.161
60.28000 137.200
60.32000 135.149
60.36000 135.156
60.40000 134.012
60.44000 137.133
60.48000 141.146
60.52000 133.543
60.56000 146.862
60.60000 131.395
60.64000 133.386
60.68000 141.209
60.72000 135.120
60.76000 130.443
60.80000 146.050
60.84000 130.503
60.88000 129.004
60.92000 135.001
60.96000 132.417
61.00000 132.179
61.04000 138.349
61.08000 137.278
61.12000 139.065
61.16000 136.874
61.20000 135.802
61.24000 136.446
61.28000 133.000
61.32000 145.085
61.36000 135.884
61.40000 145.571
61.44000 134.202
61.48000 141.736
61.52000 154.624
61.56000 180.646
61.60000 212.736
61.64000 228.157
61.68000 246.296
61.72000 257.682
61.76000 239.975
61.80000 210.455
61.84000 170.298
61.88000 153.375
61.92000 143.683
61.96000 155.504
62.00000 152.152
62.04000 140.436
62.08000 139.036
62.12000 139.400
62.16000 145.717
62.20000 148.439
62.24000 138.772
62.28000 140.345
62.32000 138.718
62.36000 148.234
62.40000 148.390
62.44000 136.785
62.48000 142.897
62.52000 148.059
62.56000 144.336
62.60000 137.528
62.64000 144.981
62.68000 136.876
62.72000 139.593
62.76000 141.704
62.80000 141.258
62.84000 146.696
62.88000 149.213
62.92000 134.521
62.96000 142.674
63.00000 149.026
63.04000 150.930
63.08000 148.286
63.12000 147.959
63.16000 145.797
63.20000 150.982
63.24000 131.204
63.28000 143.085
63.32000 155.872
63.36000 139.701
63.40000 151.585
63.44000 142.485
63.48000 139.221
63.52000 144.655
63.56000 136.951
63.60000 141.256
63.64000 148.114
63.68000 147.027
63.72000 148.512
63.76000 145.598
63.80000 147.403
63.84000 156.481
63.88000 156.796
63.92000 148.741
63.96000 141.454
64.00000 144.059
64.04000 151.674
64.08000 153.940
64.12000 155.790
64.16000 157.436
64.20000 170.612
64.24000 162.005
64.28000 161.476
64.32000 169.672
64.36000 165.236
64.40000 159.381
64.44000 164.251
64.48000 156.857
64.52000 166.216
64.56000 163.011
64.60000 156.361
64.64000 168.619
64.68000 173.240
64.72000 168.091
64.76000 160.482
64.80000 164.460
64.84000 173.548
64.88000 175.034
64.92000 182.553
64.96000 182.605
65.00000 186.000
65.04000 193.694
65.08000 184.749
65.12000 195.264
65.16000 203.296
65.20000 213.367
65.24000 237.765
65.28000 245.210
65.32000 259.854
65.36000 274.488
65.40000 294.898
65.44000 312.936
65.48000 334.710
65.52000 329.972
65.56000 385.731
65.60000 385.372
65.64000 409.338
65.68000 424.457
65.72000 532.122
65.76000 659.819
65.80000 827.461
65.84000 884.609
65.88000 915.591
65.92000 861.086
65.96000 774.547
66.00000 587.573
66.04000 387.560
66.08000 340.834
66.12000 306.766
66.16000 269.259
66.20000 273.678
66.24000 281.480
66.28000 311.539
66.32000 332.560
66.36000 363.112
66.40000 396.958
66.44000 392.888
66.48000 381.187
66.52000 358.491
66.56000 339.190
66.60000 308.358
66.64000 288.622
66.68000 291.803
66.72000 292.966
66.76000 297.373
66.80000 313.870
66.84000 303.711
66.88000 303.121
66.92000 305.534
66.96000 315.669
67.00000 331.647
67.04000 322.729
67.08000 324.960
67.12000 324.549
67.16000 343.979
67.20000 348.694
67.24000 361.090
67.28000 363.499
67.32000 375.248
67.36000 357.493
67.40000 369.208
67.44000 381.489
67.48000 385.674
67.52000 389.168
67.56000 389.229
67.60000 382.712
67.64000 423.033
67.68000 428.338
67.72000 413.248
67.76000 440.727
67.80000 447.332
67.84000 451.088
67.88000 471.638
67.92000 471.508
67.96000 474.356
68.00000 477.773
68.04000 487.742
68.08000 518.966
68.12000 501.584
68.16000 518.416
68.20000 537.542
68.24000 555.146
68.28000 563.580
68.32000 595.632
68.36000 607.562
68.40000 647.244
68.44000 650.684
68.48000 692.380
68.52000 729.750
68.56000 776.843
68.60000 857.117
68.64000 969.534
68.68000 1132.094
68.72000 1316.457
68.76000 1490.918
68.80000 1657.389
68.84000 1912.212
68.88000 2261.682
68.92000 3707.426
68.96000 8536.381
69.00000 21706.604
69.04000 36846.383
69.08000 45538.598
69.12000 46972.289
69.16000 48677.988
69.20000 49205.016
69.24000 42274.230
69.28000 32204.467
69.32000 26070.979
69.36000 23413.668
69.40000 20095.010
69.44000 12598.117
69.48000 6049.316
69.52000 2694.415
69.56000 1635.923
69.60000 1314.004
69.64000 1109.873
69.68000 947.267
69.72000 911.463
69.76000 855.629
69.80000 812.857
69.84000 746.699
69.88000 706.494
69.92000 706.343
69.96000 671.126
70.00000 655.549