File: XRD/30-09-2025 Dep 1/XY Data/BTO_Mapping_Theta2Theta_30-09-2025_001_48_-3-136_-29-836.xy
20.00000 578.604
20.04000 601.366
20.08000 571.089
20.12000 578.686
20.16000 598.039
20.20000 574.705
20.24000 567.522
20.28000 571.426
20.32000 559.234
20.36000 552.426
20.40000 566.267
20.44000 569.427
20.48000 559.388
20.52000 561.824
20.56000 580.364
20.60000 582.030
20.64000 581.342
20.68000 577.582
20.72000 559.700
20.76000 569.818
20.80000 583.003
20.84000 559.770
20.88000 555.544
20.92000 584.570
20.96000 575.452
21.00000 578.878
21.04000 565.175
21.08000 569.589
21.12000 562.847
21.16000 581.338
21.20000 568.121
21.24000 563.635
21.28000 565.055
21.32000 553.456
21.36000 567.427
21.40000 553.317
21.44000 580.687
21.48000 568.045
21.52000 570.557
21.56000 563.481
21.60000 580.851
21.64000 590.020
21.68000 646.121
21.72000 688.402
21.76000 704.706
21.80000 800.427
21.84000 879.287
21.88000 946.446
21.92000 1024.662
21.96000 1065.013
22.00000 1057.743
22.04000 1010.236
22.08000 904.949
22.12000 828.561
22.16000 763.969
22.20000 681.535
22.24000 652.864
22.28000 611.679
22.32000 582.497
22.36000 594.950
22.40000 579.324
22.44000 550.104
22.48000 532.933
22.52000 549.353
22.56000 567.528
22.60000 551.918
22.64000 540.810
22.68000 543.969
22.72000 549.693
22.76000 523.337
22.80000 546.789
22.84000 559.326
22.88000 526.928
22.92000 519.665
22.96000 529.845
23.00000 530.604
23.04000 525.117
23.08000 525.856
23.12000 523.262
23.16000 518.044
23.20000 529.913
23.24000 517.877
23.28000 514.826
23.32000 525.659
23.36000 512.858
23.40000 510.365
23.44000 529.369
23.48000 527.296
23.52000 507.424
23.56000 530.542
23.60000 530.476
23.64000 524.099
23.68000 515.867
23.72000 498.864
23.76000 518.348
23.80000 483.088
23.84000 506.318
23.88000 494.945
23.92000 494.776
23.96000 517.543
24.00000 488.801
24.04000 529.856
24.08000 513.486
24.12000 510.431
24.16000 494.121
24.20000 509.785
24.24000 516.212
24.28000 514.269
24.32000 513.693
24.36000 494.582
24.40000 495.644
24.44000 521.903
24.48000 507.722
24.52000 497.910
24.56000 489.021
24.60000 487.430
24.64000 485.410
24.68000 499.700
24.72000 498.384
24.76000 491.787
24.80000 485.649
24.84000 483.892
24.88000 486.977
24.92000 501.961
24.96000 512.677
25.00000 506.080
25.04000 488.610
25.08000 474.964
25.12000 468.651
25.16000 480.163
25.20000 488.103
25.24000 470.092
25.28000 491.240
25.32000 495.739
25.36000 490.875
25.40000 497.218
25.44000 481.261
25.48000 483.469
25.52000 476.396
25.56000 476.748
25.60000 464.373
25.64000 489.517
25.68000 476.430
25.72000 501.928
25.76000 484.737
25.80000 481.951
25.84000 496.215
25.88000 479.381
25.92000 455.080
25.96000 468.540
26.00000 489.690
26.04000 466.222
26.08000 479.976
26.12000 464.467
26.16000 456.912
26.20000 473.239
26.24000 454.712
26.28000 469.191
26.32000 498.157
26.36000 477.871
26.40000 471.492
26.44000 472.867
26.48000 457.805
26.52000 477.617
26.56000 473.609
26.60000 463.004
26.64000 479.222
26.68000 473.397
26.72000 467.626
26.76000 463.191
26.80000 468.913
26.84000 476.485
26.88000 473.718
26.92000 458.784
26.96000 465.986
27.00000 461.672
27.04000 457.998
27.08000 466.579
27.12000 451.047
27.16000 457.938
27.20000 454.282
27.24000 465.251
27.28000 476.219
27.32000 470.696
27.36000 452.361
27.40000 452.527
27.44000 446.543
27.48000 458.482
27.52000 445.669
27.56000 459.840
27.60000 447.538
27.64000 471.786
27.68000 446.811
27.72000 452.574
27.76000 447.713
27.80000 451.366
27.84000 434.102
27.88000 453.136
27.92000 458.766
27.96000 437.600
28.00000 448.573
28.04000 450.098
28.08000 451.008
28.12000 466.268
28.16000 455.901
28.20000 452.876
28.24000 454.562
28.28000 459.468
28.32000 461.379
28.36000 451.067
28.40000 433.379
28.44000 440.486
28.48000 456.659
28.52000 448.575
28.56000 440.197
28.60000 441.617
28.64000 447.206
28.68000 453.162
28.72000 429.845
28.76000 423.611
28.80000 441.017
28.84000 444.979
28.88000 451.835
28.92000 437.561
28.96000 439.748
29.00000 452.169
29.04000 423.517
29.08000 440.715
29.12000 424.696
29.16000 452.066
29.20000 418.538
29.24000 439.948
29.28000 434.004
29.32000 447.459
29.36000 435.852
29.40000 435.774
29.44000 451.832
29.48000 436.808
29.52000 440.709
29.56000 430.518
29.60000 437.960
29.64000 439.175
29.68000 432.476
29.72000 429.922
29.76000 459.293
29.80000 471.473
29.84000 439.181
29.88000 473.904
29.92000 466.248
29.96000 468.127
30.00000 468.969
30.04000 483.134
30.08000 456.713
30.12000 455.932
30.16000 444.196
30.20000 463.293
30.24000 445.640
30.28000 448.964
30.32000 464.001
30.36000 449.506
30.40000 452.718
30.44000 448.455
30.48000 440.107
30.52000 449.524
30.56000 466.969
30.60000 466.759
30.64000 478.699
30.68000 482.391
30.72000 494.144
30.76000 518.718
30.80000 519.836
30.84000 530.652
30.88000 565.234
30.92000 627.211
30.96000 727.369
31.00000 889.318
31.04000 1174.757
31.08000 1562.156
31.12000 2129.478
31.16000 2781.596
31.20000 3349.111
31.24000 3860.951
31.28000 4091.480
31.32000 3956.667
31.36000 3487.882
31.40000 2972.791
31.44000 2334.510
31.48000 1698.749
31.52000 1282.353
31.56000 932.873
31.60000 751.558
31.64000 656.402
31.68000 579.704
31.72000 533.798
31.76000 512.264
31.80000 483.765
31.84000 479.829
31.88000 463.210
31.92000 469.693
31.96000 452.088
32.00000 451.381
32.04000 415.933
32.08000 425.227
32.12000 403.143
32.16000 423.214
32.20000 426.531
32.24000 407.565
32.28000 410.827
32.32000 421.146
32.36000 418.383
32.40000 391.266
32.44000 415.147
32.48000 409.575
32.52000 394.069
32.56000 396.134
32.60000 409.097
32.64000 396.129
32.68000 392.476
32.72000 390.834
32.76000 376.908
32.80000 395.118
32.84000 402.135
32.88000 415.732
32.92000 446.243
32.96000 492.913
33.00000 506.671
33.04000 480.346
33.08000 474.351
33.12000 453.197
33.16000 416.979
33.20000 395.699
33.24000 390.557
33.28000 363.196
33.32000 353.436
33.36000 364.077
33.40000 362.882
33.44000 364.535
33.48000 357.452
33.52000 359.855
33.56000 346.939
33.60000 345.541
33.64000 352.930
33.68000 361.770
33.72000 346.507
33.76000 339.014
33.80000 342.727
33.84000 347.723
33.88000 354.076
33.92000 341.315
33.96000 354.457
34.00000 348.245
34.04000 344.724
34.08000 338.110
34.12000 354.255
34.16000 335.422
34.20000 343.889
34.24000 342.032
34.28000 337.889
34.32000 329.774
34.36000 349.500
34.40000 351.105
34.44000 327.711
34.48000 334.761
34.52000 350.405
34.56000 347.306
34.60000 331.960
34.64000 337.168
34.68000 335.566
34.72000 322.020
34.76000 340.089
34.80000 332.778
34.84000 321.107
34.88000 321.222
34.92000 326.794
34.96000 332.355
35.00000 325.353
35.04000 327.651
35.08000 328.712
35.12000 337.854
35.16000 331.461
35.20000 329.801
35.24000 321.933
35.28000 320.974
35.32000 308.935
35.36000 323.442
35.40000 332.828
35.44000 306.302
35.48000 323.272
35.52000 336.057
35.56000 319.305
35.60000 311.935
35.64000 324.733
35.68000 314.059
35.72000 317.158
35.76000 320.855
35.80000 317.583
35.84000 289.547
35.88000 309.363
35.92000 332.021
35.96000 302.767
36.00000 304.231
36.04000 310.954
36.08000 314.537
36.12000 309.251
36.16000 324.852
36.20000 311.950
36.24000 304.913
36.28000 302.451
36.32000 304.477
36.36000 297.520
36.40000 314.908
36.44000 304.571
36.48000 308.271
36.52000 306.026
36.56000 308.672
36.60000 300.869
36.64000 303.922
36.68000 303.294
36.72000 314.152
36.76000 301.207
36.80000 319.732
36.84000 294.768
36.88000 316.121
36.92000 305.308
36.96000 322.157
37.00000 307.724
37.04000 299.875
37.08000 296.533
37.12000 309.150
37.16000 298.988
37.20000 305.555
37.24000 324.007
37.28000 302.425
37.32000 307.157
37.36000 318.188
37.40000 293.571
37.44000 299.851
37.48000 306.203
37.52000 295.325
37.56000 293.359
37.60000 301.790
37.64000 288.152
37.68000 304.181
37.72000 306.502
37.76000 296.602
37.80000 294.877
37.84000 300.585
37.88000 303.102
37.92000 324.812
37.96000 297.895
38.00000 304.463
38.04000 300.961
38.08000 314.087
38.12000 319.926
38.16000 301.927
38.20000 321.411
38.24000 332.990
38.28000 336.474
38.32000 358.026
38.36000 380.792
38.40000 397.355
38.44000 425.732
38.48000 458.549
38.52000 478.804
38.56000 512.300
38.60000 510.413
38.64000 510.662
38.68000 499.019
38.72000 449.835
38.76000 423.205
38.80000 404.409
38.84000 373.653
38.88000 343.144
38.92000 330.420
38.96000 310.504
39.00000 304.661
39.04000 279.910
39.08000 304.342
39.12000 302.245
39.16000 288.339
39.20000 282.508
39.24000 284.350
39.28000 289.071
39.32000 297.344
39.36000 274.820
39.40000 286.195
39.44000 270.256
39.48000 271.077
39.52000 278.772
39.56000 279.228
39.60000 273.632
39.64000 280.237
39.68000 269.546
39.72000 266.152
39.76000 273.687
39.80000 286.632
39.84000 284.708
39.88000 275.937
39.92000 275.371
39.96000 261.535
40.00000 282.760
40.04000 269.071
40.08000 257.817
40.12000 262.739
40.16000 271.569
40.20000 265.581
40.24000 263.069
40.28000 263.833
40.32000 265.390
40.36000 256.041
40.40000 276.818
40.44000 259.574
40.48000 245.584
40.52000 263.202
40.56000 260.174
40.60000 258.538
40.64000 264.580
40.68000 271.465
40.72000 250.185
40.76000 250.774
40.80000 259.512
40.84000 258.719
40.88000 251.662
40.92000 249.344
40.96000 253.024
41.00000 262.863
41.04000 253.872
41.08000 251.146
41.12000 255.388
41.16000 255.295
41.20000 260.497
41.24000 246.183
41.28000 246.537
41.32000 247.012
41.36000 268.054
41.40000 263.968
41.44000 246.849
41.48000 263.828
41.52000 256.608
41.56000 247.432
41.60000 250.939
41.64000 249.811
41.68000 245.275
41.72000 244.536
41.76000 248.033
41.80000 257.155
41.84000 248.635
41.88000 248.122
41.92000 254.625
41.96000 254.089
42.00000 240.808
42.04000 245.261
42.08000 236.190
42.12000 239.603
42.16000 244.705
42.20000 234.391
42.24000 252.115
42.28000 240.304
42.32000 251.811
42.36000 245.431
42.40000 247.897
42.44000 255.912
42.48000 246.446
42.52000 249.640
42.56000 250.014
42.60000 239.773
42.64000 238.888
42.68000 235.491
42.72000 245.290
42.76000 248.788
42.80000 233.424
42.84000 243.064
42.88000 237.596
42.92000 228.321
42.96000 239.123
43.00000 238.957
43.04000 229.805
43.08000 230.382
43.12000 234.776
43.16000 235.352
43.20000 243.847
43.24000 232.755
43.28000 248.522
43.32000 241.164
43.36000 226.162
43.40000 237.883
43.44000 226.485
43.48000 219.863
43.52000 231.658
43.56000 237.445
43.60000 233.333
43.64000 225.011
43.68000 228.988
43.72000 239.944
43.76000 245.133
43.80000 228.204
43.84000 235.193
43.88000 233.137
43.92000 241.023
43.96000 243.574
44.00000 240.345
44.04000 240.256
44.08000 234.243
44.12000 241.148
44.16000 236.158
44.20000 239.211
44.24000 243.260
44.28000 241.957
44.32000 244.152
44.36000 250.296
44.40000 263.373
44.44000 259.552
44.48000 262.731
44.52000 284.025
44.56000 303.011
44.60000 324.472
44.64000 354.550
44.68000 421.106
44.72000 469.280
44.76000 514.986
44.80000 599.926
44.84000 626.390
44.88000 656.008
44.92000 691.410
44.96000 661.220
45.00000 629.577
45.04000 573.204
45.08000 519.732
45.12000 476.046
45.16000 415.938
45.20000 374.658
45.24000 333.644
45.28000 313.374
45.32000 302.658
45.36000 280.827
45.40000 266.122
45.44000 253.335
45.48000 240.463
45.52000 242.777
45.56000 229.330
45.60000 237.257
45.64000 224.328
45.68000 242.210
45.72000 232.648
45.76000 216.560
45.80000 226.422
45.84000 229.276
45.88000 228.618
45.92000 225.880
45.96000 222.596
46.00000 220.709
46.04000 214.003
46.08000 217.292
46.12000 221.474
46.16000 219.755
46.20000 207.267
46.24000 210.216
46.28000 201.134
46.32000 211.307
46.36000 218.031
46.40000 206.044
46.44000 206.781
46.48000 195.751
46.52000 210.375
46.56000 205.481
46.60000 206.347
46.64000 204.462
46.68000 204.496
46.72000 201.507
46.76000 209.126
46.80000 199.228
46.84000 213.000
46.88000 202.462
46.92000 216.870
46.96000 212.379
47.00000 207.317
47.04000 195.360
47.08000 216.883
47.12000 202.550
47.16000 202.029
47.20000 196.935
47.24000 197.974
47.28000 208.616
47.32000 206.310
47.36000 187.325
47.40000 205.600
47.44000 196.517
47.48000 202.673
47.52000 198.247
47.56000 198.784
47.60000 195.250
47.64000 180.477
47.68000 194.417
47.72000 193.804
47.76000 198.387
47.80000 191.385
47.84000 176.042
47.88000 203.728
47.92000 202.233
47.96000 187.872
48.00000 191.150
48.04000 207.104
48.08000 186.598
48.12000 188.552
48.16000 187.677
48.20000 191.095
48.24000 206.797
48.28000 183.419
48.32000 185.417
48.36000 186.195
48.40000 196.122
48.44000 186.524
48.48000 195.514
48.52000 180.787
48.56000 186.601
48.60000 192.585
48.64000 188.781
48.68000 185.396
48.72000 194.985
48.76000 182.038
48.80000 184.936
48.84000 192.302
48.88000 188.783
48.92000 183.770
48.96000 191.112
49.00000 183.137
49.04000 187.899
49.08000 179.346
49.12000 182.941
49.16000 190.243
49.20000 190.073
49.24000 185.912
49.28000 191.949
49.32000 180.437
49.36000 184.405
49.40000 190.412
49.44000 187.043
49.48000 192.652
49.52000 184.406
49.56000 178.994
49.60000 184.348
49.64000 185.341
49.68000 176.865
49.72000 182.297
49.76000 192.053
49.80000 180.499
49.84000 192.439
49.88000 180.210
49.92000 192.188
49.96000 193.358
50.00000 181.977
50.04000 182.706
50.08000 198.391
50.12000 181.928
50.16000 198.887
50.20000 199.087
50.24000 209.216
50.28000 222.537
50.32000 235.677
50.36000 242.231
50.40000 262.743
50.44000 276.050
50.48000 285.481
50.52000 286.617
50.56000 292.765
50.60000 294.356
50.64000 318.965
50.68000 290.287
50.72000 255.057
50.76000 250.839
50.80000 232.498
50.84000 219.771
50.88000 202.353
50.92000 198.428
50.96000 197.704
51.00000 184.185
51.04000 185.437
51.08000 179.474
51.12000 180.037
51.16000 188.162
51.20000 188.825
51.24000 177.074
51.28000 170.986
51.32000 169.501
51.36000 193.695
51.40000 170.574
51.44000 171.420
51.48000 169.870
51.52000 183.975
51.56000 165.874
51.60000 170.417
51.64000 174.111
51.68000 181.987
51.72000 161.861
51.76000 163.135
51.80000 172.660
51.84000 171.823
51.88000 164.289
51.92000 164.060
51.96000 168.063
52.00000 169.935
52.04000 165.535
52.08000 163.182
52.12000 165.984
52.16000 163.090
52.20000 158.889
52.24000 167.849
52.28000 165.190
52.32000 162.346
52.36000 168.977
52.40000 160.960
52.44000 164.237
52.48000 164.639
52.52000 161.651
52.56000 164.221
52.60000 166.907
52.64000 156.407
52.68000 159.097
52.72000 164.767
52.76000 159.228
52.80000 176.070
52.84000 165.030
52.88000 169.051
52.92000 148.782
52.96000 170.050
53.00000 174.027
53.04000 152.171
53.08000 171.812
53.12000 172.101
53.16000 166.938
53.20000 162.482
53.24000 169.223
53.28000 165.268
53.32000 171.422
53.36000 162.013
53.40000 168.894
53.44000 167.452
53.48000 162.560
53.52000 165.221
53.56000 165.782
53.60000 156.340
53.64000 154.670
53.68000 154.645
53.72000 153.748
53.76000 161.706
53.80000 166.511
53.84000 167.083
53.88000 154.548
53.92000 158.844
53.96000 153.271
54.00000 161.535
54.04000 166.145
54.08000 160.891
54.12000 152.679
54.16000 174.337
54.20000 159.696
54.24000 159.165
54.28000 163.639
54.32000 163.180
54.36000 162.503
54.40000 157.210
54.44000 162.491
54.48000 161.457
54.52000 162.472
54.56000 160.866
54.60000 159.632
54.64000 157.997
54.68000 160.266
54.72000 157.984
54.76000 166.810
54.80000 179.295
54.84000 166.586
54.88000 160.488
54.92000 166.808
54.96000 167.691
55.00000 160.408
55.04000 177.280
55.08000 164.877
55.12000 168.531
55.16000 173.296
55.20000 173.541
55.24000 181.006
55.28000 185.676
55.32000 199.045
55.36000 217.145
55.40000 237.964
55.44000 251.711
55.48000 292.743
55.52000 318.724
55.56000 392.466
55.60000 439.038
55.64000 493.211
55.68000 525.950
55.72000 572.425
55.76000 571.335
55.80000 599.867
55.84000 543.508
55.88000 507.067
55.92000 446.997
55.96000 421.386
56.00000 370.807
56.04000 309.443
56.08000 275.781
56.12000 252.937
56.16000 243.252
56.20000 210.350
56.24000 186.343
56.28000 194.852
56.32000 176.559
56.36000 171.102
56.40000 168.584
56.44000 167.097
56.48000 166.707
56.52000 161.712
56.56000 166.055
56.60000 150.886
56.64000 158.579
56.68000 157.827
56.72000 153.781
56.76000 152.566
56.80000 154.763
56.84000 151.868
56.88000 155.214
56.92000 159.805
56.96000 158.839
57.00000 157.374
57.04000 151.524
57.08000 144.637
57.12000 157.479
57.16000 144.824
57.20000 150.492
57.24000 147.084
57.28000 149.912
57.32000 150.391
57.36000 143.802
57.40000 152.388
57.44000 142.693
57.48000 160.471
57.52000 151.654
57.56000 149.250
57.60000 139.782
57.64000 143.989
57.68000 141.355
57.72000 143.196
57.76000 150.737
57.80000 136.368
57.84000 150.102
57.88000 143.876
57.92000 142.871
57.96000 154.520
58.00000 138.452
58.04000 140.860
58.08000 147.083
58.12000 148.627
58.16000 145.749
58.20000 144.699
58.24000 147.772
58.28000 145.623
58.32000 140.848
58.36000 140.379
58.40000 147.662
58.44000 152.563
58.48000 135.625
58.52000 136.209
58.56000 144.703
58.60000 141.631
58.64000 145.274
58.68000 140.222
58.72000 135.756
58.76000 137.790
58.80000 144.565
58.84000 131.905
58.88000 140.458
58.92000 148.780
58.96000 142.003
59.00000 135.652
59.04000 133.033
59.08000 134.125
59.12000 136.772
59.16000 142.127
59.20000 146.375
59.24000 141.792
59.28000 138.266
59.32000 135.542
59.36000 136.399
59.40000 143.638
59.44000 129.766
59.48000 139.472
59.52000 135.653
59.56000 131.303
59.60000 136.223
59.64000 128.998
59.68000 133.391
59.72000 141.564
59.76000 133.672
59.80000 129.397
59.84000 139.570
59.88000 142.825
59.92000 138.690
59.96000 128.796
60.00000 130.368
60.04000 141.648
60.08000 138.275
60.12000 139.982
60.16000 134.238
60.20000 143.474
60.24000 141.410
60.28000 134.194
60.32000 140.160
60.36000 136.798
60.40000 137.436
60.44000 131.231
60.48000 141.410
60.52000 130.031
60.56000 133.045
60.60000 131.348
60.64000 140.975
60.68000 126.386
60.72000 133.706
60.76000 132.903
60.80000 137.708
60.84000 137.642
60.88000 139.622
60.92000 147.052
60.96000 142.400
61.00000 139.572
61.04000 137.616
61.08000 138.824
61.12000 136.859
61.16000 133.704
61.20000 127.737
61.24000 131.848
61.28000 135.490
61.32000 134.814
61.36000 138.545
61.40000 139.322
61.44000 152.994
61.48000 156.328
61.52000 180.365
61.56000 218.765
61.60000 281.242
61.64000 324.189
61.68000 328.714
61.72000 340.255
61.76000 335.710
61.80000 259.380
61.84000 206.239
61.88000 171.365
61.92000 161.779
61.96000 153.822
62.00000 155.285
62.04000 150.172
62.08000 145.572
62.12000 143.830
62.16000 146.775
62.20000 142.060
62.24000 154.423
62.28000 148.742
62.32000 145.489
62.36000 141.135
62.40000 141.025
62.44000 140.894
62.48000 152.387
62.52000 146.164
62.56000 146.107
62.60000 147.779
62.64000 134.197
62.68000 143.121
62.72000 138.179
62.76000 149.273
62.80000 145.305
62.84000 148.729
62.88000 156.480
62.92000 149.971
62.96000 147.325
63.00000 149.348
63.04000 150.834
63.08000 160.110
63.12000 153.381
63.16000 149.700
63.20000 146.738
63.24000 141.370
63.28000 153.911
63.32000 149.713
63.36000 150.737
63.40000 153.904
63.44000 149.878
63.48000 153.900
63.52000 152.725
63.56000 151.783
63.60000 155.026
63.64000 151.795
63.68000 153.889
63.72000 147.877
63.76000 153.056
63.80000 165.694
63.84000 163.228
63.88000 158.965
63.92000 155.073
63.96000 160.468
64.00000 165.929
64.04000 158.086
64.08000 167.406
64.12000 158.136
64.16000 161.879
64.20000 164.126
64.24000 167.938
64.28000 165.449
64.32000 172.883
64.36000 162.410
64.40000 151.415
64.44000 174.875
64.48000 177.319
64.52000 164.368
64.56000 178.662
64.60000 166.894
64.64000 180.792
64.68000 173.956
64.72000 182.935
64.76000 181.314
64.80000 179.384
64.84000 193.818
64.88000 196.691
64.92000 185.369
64.96000 233.939
65.00000 223.835
65.04000 241.683
65.08000 267.851
65.12000 290.488
65.16000 323.564
65.20000 364.407
65.24000 372.585
65.28000 397.023
65.32000 420.700
65.36000 427.625
65.40000 419.990
65.44000 442.591
65.48000 419.110
65.52000 394.447
65.56000 383.391
65.60000 387.938
65.64000 389.831
65.68000 493.807
65.72000 674.811
65.76000 942.998
65.80000 1169.708
65.84000 1336.297
65.88000 1365.907
65.92000 1333.387
65.96000 1138.119
66.00000 818.898
66.04000 528.475
66.08000 415.497
66.12000 356.558
66.16000 323.968
66.20000 322.223
66.24000 341.970
66.28000 369.112
66.32000 436.820
66.36000 491.391
66.40000 496.180
66.44000 534.414
66.48000 506.609
66.52000 465.745
66.56000 410.337
66.60000 375.532
66.64000 333.755
66.68000 322.512
66.72000 339.683
66.76000 346.351
66.80000 356.936
66.84000 352.860
66.88000 350.262
66.92000 368.405
66.96000 347.659
67.00000 369.764
67.04000 382.414
67.08000 390.085
67.12000 387.271
67.16000 397.374
67.20000 402.549
67.24000 410.061
67.28000 414.250
67.32000 428.431
67.36000 433.312
67.40000 443.021
67.44000 444.696
67.48000 463.020
67.52000 476.246
67.56000 474.086
67.60000 471.004
67.64000 484.011
67.68000 495.010
67.72000 498.007
67.76000 516.334
67.80000 519.951
67.84000 534.808
67.88000 580.386
67.92000 555.669
67.96000 585.510
68.00000 602.781
68.04000 584.209
68.08000 611.504
68.12000 618.778
68.16000 659.876
68.20000 646.090
68.24000 687.310
68.28000 691.610
68.32000 720.173
68.36000 746.925
68.40000 787.415
68.44000 813.933
68.48000 850.155
68.52000 891.405
68.56000 990.485
68.60000 1127.445
68.64000 1346.594
68.68000 1593.413
68.72000 1892.764
68.76000 2172.497
68.80000 2491.900
68.84000 2882.250
68.88000 3621.632
68.92000 7326.028
68.96000 17473.131
69.00000 40257.598
69.04000 64486.188
69.08000 78397.891
69.12000 81972.625
69.16000 84762.250
69.20000 83846.063
69.24000 71544.594
69.28000 56462.742
69.32000 45764.402
69.36000 40415.297
69.40000 33155.457
69.44000 20831.211
69.48000 10299.391
69.52000 4579.692
69.56000 2581.000
69.60000 1820.013
69.64000 1604.589
69.68000 1385.741
69.72000 1245.427
69.76000 1121.356
69.80000 1004.050
69.84000 977.947
69.88000 910.347
69.92000 861.117
69.96000 820.234
70.00000 774.372