File: XRD/30-09-2025 Dep 1/XY Data/BTO_Mapping_Theta2Theta_30-09-2025_001_25_-20-000_34-641.xy
20.00000 579.782
20.04000 548.247
20.08000 580.563
20.12000 574.755
20.16000 572.270
20.20000 547.201
20.24000 570.263
20.28000 560.248
20.32000 554.051
20.36000 572.003
20.40000 567.460
20.44000 572.921
20.48000 567.830
20.52000 561.020
20.56000 557.136
20.60000 547.448
20.64000 565.724
20.68000 565.112
20.72000 565.366
20.76000 547.182
20.80000 577.695
20.84000 555.327
20.88000 565.201
20.92000 541.471
20.96000 549.518
21.00000 535.201
21.04000 547.499
21.08000 568.102
21.12000 565.213
21.16000 548.247
21.20000 552.436
21.24000 551.061
21.28000 536.303
21.32000 557.190
21.36000 550.258
21.40000 550.172
21.44000 556.169
21.48000 551.634
21.52000 554.195
21.56000 531.377
21.60000 547.938
21.64000 567.164
21.68000 568.728
21.72000 575.039
21.76000 588.574
21.80000 583.085
21.84000 586.989
21.88000 600.702
21.92000 628.782
21.96000 652.965
22.00000 655.075
22.04000 672.495
22.08000 678.455
22.12000 692.794
22.16000 677.576
22.20000 649.391
22.24000 643.072
22.28000 596.924
22.32000 610.720
22.36000 566.186
22.40000 555.220
22.44000 548.502
22.48000 552.385
22.52000 531.429
22.56000 534.562
22.60000 518.934
22.64000 536.431
22.68000 514.918
22.72000 525.805
22.76000 530.927
22.80000 520.984
22.84000 534.990
22.88000 532.067
22.92000 521.895
22.96000 521.761
23.00000 524.020
23.04000 505.397
23.08000 489.647
23.12000 507.360
23.16000 513.137
23.20000 522.708
23.24000 521.653
23.28000 535.198
23.32000 507.593
23.36000 519.582
23.40000 521.167
23.44000 515.470
23.48000 505.704
23.52000 518.587
23.56000 521.490
23.60000 526.341
23.64000 535.505
23.68000 529.557
23.72000 525.091
23.76000 533.010
23.80000 527.658
23.84000 558.966
23.88000 542.585
23.92000 555.913
23.96000 559.993
24.00000 557.741
24.04000 565.864
24.08000 562.009
24.12000 553.493
24.16000 550.136
24.20000 528.119
24.24000 505.428
24.28000 509.390
24.32000 513.120
24.36000 529.926
24.40000 514.901
24.44000 516.502
24.48000 503.162
24.52000 489.847
24.56000 494.284
24.60000 488.767
24.64000 477.807
24.68000 480.275
24.72000 493.251
24.76000 494.443
24.80000 460.337
24.84000 463.336
24.88000 487.540
24.92000 485.189
24.96000 500.443
25.00000 455.584
25.04000 463.085
25.08000 459.075
25.12000 481.275
25.16000 487.802
25.20000 474.088
25.24000 471.404
25.28000 456.837
25.32000 477.995
25.36000 482.024
25.40000 478.108
25.44000 468.920
25.48000 479.134
25.52000 448.486
25.56000 476.066
25.60000 455.413
25.64000 461.884
25.68000 460.130
25.72000 485.877
25.76000 458.566
25.80000 477.853
25.84000 454.496
25.88000 481.501
25.92000 471.865
25.96000 460.275
26.00000 442.548
26.04000 455.747
26.08000 459.523
26.12000 465.036
26.16000 461.657
26.20000 453.036
26.24000 464.149
26.28000 432.367
26.32000 468.407
26.36000 450.699
26.40000 479.158
26.44000 455.075
26.48000 456.164
26.52000 444.300
26.56000 460.214
26.60000 445.152
26.64000 435.882
26.68000 459.229
26.72000 475.101
26.76000 440.236
26.80000 447.372
26.84000 445.085
26.88000 444.765
26.92000 449.492
26.96000 432.728
27.00000 440.424
27.04000 449.164
27.08000 449.456
27.12000 439.768
27.16000 435.866
27.20000 440.696
27.24000 423.464
27.28000 449.819
27.32000 444.278
27.36000 437.869
27.40000 444.506
27.44000 427.736
27.48000 440.087
27.52000 442.115
27.56000 437.969
27.60000 442.254
27.64000 424.174
27.68000 453.831
27.72000 430.675
27.76000 440.192
27.80000 421.631
27.84000 440.155
27.88000 430.437
27.92000 429.392
27.96000 452.219
28.00000 445.064
28.04000 428.189
28.08000 444.564
28.12000 441.878
28.16000 440.028
28.20000 421.803
28.24000 425.196
28.28000 423.948
28.32000 424.853
28.36000 418.564
28.40000 417.193
28.44000 428.455
28.48000 433.811
28.52000 414.520
28.56000 406.029
28.60000 438.758
28.64000 420.148
28.68000 411.594
28.72000 416.825
28.76000 394.053
28.80000 417.343
28.84000 417.188
28.88000 419.129
28.92000 428.771
28.96000 413.647
29.00000 403.993
29.04000 409.233
29.08000 412.867
29.12000 414.297
29.16000 407.796
29.20000 423.077
29.24000 411.835
29.28000 394.007
29.32000 395.122
29.36000 398.832
29.40000 405.300
29.44000 401.026
29.48000 409.737
29.52000 419.337
29.56000 412.966
29.60000 397.805
29.64000 403.643
29.68000 403.363
29.72000 406.581
29.76000 400.188
29.80000 411.722
29.84000 425.111
29.88000 408.794
29.92000 418.523
29.96000 415.564
30.00000 422.273
30.04000 415.910
30.08000 427.917
30.12000 426.857
30.16000 426.393
30.20000 419.802
30.24000 397.245
30.28000 395.664
30.32000 407.201
30.36000 422.509
30.40000 417.885
30.44000 411.764
30.48000 409.459
30.52000 404.986
30.56000 408.603
30.60000 413.811
30.64000 416.408
30.68000 431.948
30.72000 408.859
30.76000 410.473
30.80000 435.071
30.84000 430.382
30.88000 439.851
30.92000 447.090
30.96000 469.046
31.00000 480.997
31.04000 522.139
31.08000 541.984
31.12000 614.672
31.16000 722.563
31.20000 810.899
31.24000 997.111
31.28000 1173.368
31.32000 1365.699
31.36000 1523.689
31.40000 1555.588
31.44000 1535.667
31.48000 1477.749
31.52000 1303.814
31.56000 1096.827
31.60000 902.108
31.64000 779.000
31.68000 657.655
31.72000 553.371
31.76000 497.788
31.80000 478.298
31.84000 449.210
31.88000 434.208
31.92000 413.901
31.96000 415.348
32.00000 404.462
32.04000 414.582
32.08000 406.204
32.12000 402.547
32.16000 411.517
32.20000 394.250
32.24000 398.857
32.28000 389.483
32.32000 397.680
32.36000 389.712
32.40000 382.352
32.44000 403.480
32.48000 383.582
32.52000 396.623
32.56000 385.905
32.60000 362.816
32.64000 387.676
32.68000 384.308
32.72000 362.059
32.76000 382.328
32.80000 365.636
32.84000 368.669
32.88000 363.715
32.92000 377.475
32.96000 387.870
33.00000 397.563
33.04000 389.791
33.08000 386.881
33.12000 379.732
33.16000 363.242
33.20000 363.058
33.24000 359.404
33.28000 365.643
33.32000 353.871
33.36000 352.041
33.40000 352.028
33.44000 349.094
33.48000 339.278
33.52000 347.474
33.56000 349.059
33.60000 348.142
33.64000 342.834
33.68000 342.999
33.72000 341.931
33.76000 336.636
33.80000 334.762
33.84000 350.354
33.88000 337.028
33.92000 346.642
33.96000 361.173
34.00000 341.883
34.04000 359.818
34.08000 359.364
34.12000 372.636
34.16000 353.116
34.20000 357.288
34.24000 356.182
34.28000 362.299
34.32000 364.678
34.36000 377.374
34.40000 380.510
34.44000 366.230
34.48000 354.704
34.52000 364.373
34.56000 376.577
34.60000 362.704
34.64000 351.598
34.68000 330.304
34.72000 350.257
34.76000 336.281
34.80000 348.144
34.84000 348.030
34.88000 334.972
34.92000 333.540
34.96000 329.093
35.00000 334.017
35.04000 325.197
35.08000 307.263
35.12000 311.882
35.16000 327.467
35.20000 323.310
35.24000 320.983
35.28000 314.605
35.32000 309.504
35.36000 308.956
35.40000 312.205
35.44000 312.516
35.48000 306.192
35.52000 327.565
35.56000 311.022
35.60000 307.983
35.64000 323.909
35.68000 301.894
35.72000 309.473
35.76000 302.197
35.80000 311.780
35.84000 323.687
35.88000 302.010
35.92000 299.022
35.96000 306.987
36.00000 292.695
36.04000 303.022
36.08000 306.224
36.12000 316.638
36.16000 334.802
36.20000 305.330
36.24000 293.919
36.28000 309.058
36.32000 311.033
36.36000 284.394
36.40000 299.243
36.44000 298.907
36.48000 305.499
36.52000 302.225
36.56000 304.027
36.60000 281.030
36.64000 286.247
36.68000 273.360
36.72000 295.150
36.76000 295.677
36.80000 289.352
36.84000 276.867
36.88000 292.561
36.92000 305.771
36.96000 301.624
37.00000 283.928
37.04000 301.112
37.08000 295.618
37.12000 297.319
37.16000 303.728
37.20000 303.897
37.24000 294.431
37.28000 299.113
37.32000 298.686
37.36000 294.310
37.40000 277.139
37.44000 269.623
37.48000 295.479
37.52000 296.761
37.56000 294.713
37.60000 292.585
37.64000 293.834
37.68000 298.755
37.72000 290.690
37.76000 300.916
37.80000 285.319
37.84000 294.871
37.88000 290.579
37.92000 294.663
37.96000 294.274
38.00000 290.021
38.04000 287.056
38.08000 292.358
38.12000 298.246
38.16000 290.771
38.20000 287.410
38.24000 295.550
38.28000 315.305
38.32000 303.095
38.36000 322.134
38.40000 335.541
38.44000 349.769
38.48000 395.136
38.52000 440.033
38.56000 521.690
38.60000 626.638
38.64000 722.662
38.68000 826.119
38.72000 889.009
38.76000 944.194
38.80000 885.977
38.84000 799.502
38.88000 735.229
38.92000 619.518
38.96000 497.578
39.00000 427.317
39.04000 383.052
39.08000 340.986
39.12000 310.785
39.16000 319.008
39.20000 283.227
39.24000 291.007
39.28000 287.806
39.32000 277.156
39.36000 287.488
39.40000 280.608
39.44000 264.358
39.48000 267.673
39.52000 281.296
39.56000 265.230
39.60000 276.379
39.64000 269.214
39.68000 265.613
39.72000 278.801
39.76000 278.235
39.80000 265.908
39.84000 265.516
39.88000 262.129
39.92000 267.401
39.96000 270.533
40.00000 266.114
40.04000 267.731
40.08000 264.231
40.12000 255.970
40.16000 265.888
40.20000 261.693
40.24000 262.251
40.28000 255.957
40.32000 254.141
40.36000 265.392
40.40000 264.542
40.44000 262.519
40.48000 257.307
40.52000 243.974
40.56000 256.725
40.60000 247.283
40.64000 252.070
40.68000 268.933
40.72000 251.251
40.76000 255.017
40.80000 245.501
40.84000 254.619
40.88000 245.250
40.92000 243.245
40.96000 246.230
41.00000 239.006
41.04000 248.007
41.08000 246.706
41.12000 259.440
41.16000 248.910
41.20000 252.312
41.24000 246.165
41.28000 246.522
41.32000 249.425
41.36000 249.011
41.40000 253.963
41.44000 258.847
41.48000 243.241
41.52000 239.410
41.56000 230.063
41.60000 243.768
41.64000 239.765
41.68000 237.917
41.72000 245.832
41.76000 245.440
41.80000 243.540
41.84000 245.602
41.88000 239.574
41.92000 247.662
41.96000 247.822
42.00000 244.470
42.04000 248.586
42.08000 238.172
42.12000 237.865
42.16000 242.001
42.20000 244.319
42.24000 238.004
42.28000 241.000
42.32000 246.142
42.36000 250.498
42.40000 239.639
42.44000 249.944
42.48000 218.514
42.52000 243.465
42.56000 243.225
42.60000 237.531
42.64000 228.363
42.68000 219.886
42.72000 222.046
42.76000 219.676
42.80000 234.133
42.84000 234.599
42.88000 248.951
42.92000 236.682
42.96000 229.271
43.00000 224.751
43.04000 230.629
43.08000 240.312
43.12000 227.573
43.16000 222.738
43.20000 227.492
43.24000 225.290
43.28000 230.884
43.32000 219.447
43.36000 230.238
43.40000 221.245
43.44000 226.447
43.48000 231.013
43.52000 219.267
43.56000 224.499
43.60000 218.006
43.64000 226.434
43.68000 212.896
43.72000 224.031
43.76000 223.968
43.80000 223.620
43.84000 219.629
43.88000 220.033
43.92000 227.179
43.96000 214.315
44.00000 216.561
44.04000 216.675
44.08000 225.275
44.12000 230.386
44.16000 218.722
44.20000 228.284
44.24000 227.689
44.28000 228.076
44.32000 228.699
44.36000 229.385
44.40000 231.055
44.44000 222.481
44.48000 236.184
44.52000 238.897
44.56000 226.758
44.60000 242.307
44.64000 240.330
44.68000 244.625
44.72000 253.876
44.76000 252.482
44.80000 253.927
44.84000 277.871
44.88000 279.515
44.92000 280.944
44.96000 304.605
45.00000 305.580
45.04000 314.250
45.08000 332.786
45.12000 326.971
45.16000 328.167
45.20000 319.755
45.24000 318.476
45.28000 293.458
45.32000 290.187
45.36000 272.483
45.40000 261.960
45.44000 269.958
45.48000 254.281
45.52000 238.785
45.56000 240.490
45.60000 228.570
45.64000 227.086
45.68000 233.009
45.72000 213.941
45.76000 222.923
45.80000 210.121
45.84000 207.683
45.88000 217.336
45.92000 210.736
45.96000 211.836
46.00000 213.334
46.04000 199.379
46.08000 227.551
46.12000 211.773
46.16000 218.739
46.20000 193.226
46.24000 213.213
46.28000 202.592
46.32000 223.196
46.36000 211.791
46.40000 209.141
46.44000 222.561
46.48000 202.055
46.52000 202.742
46.56000 206.490
46.60000 208.783
46.64000 204.440
46.68000 207.655
46.72000 190.652
46.76000 200.210
46.80000 195.491
46.84000 202.730
46.88000 193.551
46.92000 188.741
46.96000 193.414
47.00000 201.727
47.04000 199.425
47.08000 203.976
47.12000 196.385
47.16000 198.841
47.20000 200.817
47.24000 199.315
47.28000 198.649
47.32000 197.089
47.36000 191.926
47.40000 196.878
47.44000 187.870
47.48000 184.495
47.52000 188.413
47.56000 188.006
47.60000 188.605
47.64000 188.892
47.68000 185.965
47.72000 188.638
47.76000 191.020
47.80000 193.592
47.84000 181.780
47.88000 182.184
47.92000 190.713
47.96000 180.962
48.00000 183.668
48.04000 188.330
48.08000 183.831
48.12000 195.905
48.16000 180.639
48.20000 185.925
48.24000 187.375
48.28000 172.290
48.32000 185.640
48.36000 196.676
48.40000 191.807
48.44000 192.041
48.48000 178.522
48.52000 181.898
48.56000 176.879
48.60000 182.658
48.64000 173.707
48.68000 185.638
48.72000 176.714
48.76000 181.903
48.80000 186.936
48.84000 187.643
48.88000 174.467
48.92000 183.742
48.96000 182.442
49.00000 175.747
49.04000 181.026
49.08000 180.035
49.12000 178.905
49.16000 186.563
49.20000 177.516
49.24000 172.338
49.28000 169.802
49.32000 185.096
49.36000 174.874
49.40000 180.335
49.44000 180.498
49.48000 174.533
49.52000 176.655
49.56000 186.494
49.60000 171.760
49.64000 176.347
49.68000 177.447
49.72000 179.043
49.76000 172.470
49.80000 171.190
49.84000 176.508
49.88000 175.050
49.92000 170.066
49.96000 181.956
50.00000 179.589
50.04000 187.248
50.08000 173.695
50.12000 183.109
50.16000 186.066
50.20000 185.329
50.24000 183.504
50.28000 175.319
50.32000 173.212
50.36000 173.507
50.40000 182.346
50.44000 185.219
50.48000 194.023
50.52000 192.863
50.56000 191.632
50.60000 203.640
50.64000 204.544
50.68000 207.762
50.72000 218.416
50.76000 206.727
50.80000 214.061
50.84000 209.144
50.88000 198.058
50.92000 188.466
50.96000 184.739
51.00000 187.498
51.04000 181.825
51.08000 175.374
51.12000 180.721
51.16000 175.282
51.20000 175.354
51.24000 163.029
51.28000 169.728
51.32000 165.061
51.36000 178.999
51.40000 159.192
51.44000 160.709
51.48000 173.780
51.52000 164.025
51.56000 165.735
51.60000 166.977
51.64000 157.241
51.68000 167.125
51.72000 167.619
51.76000 161.629
51.80000 166.538
51.84000 161.242
51.88000 159.046
51.92000 163.569
51.96000 163.462
52.00000 158.693
52.04000 166.429
52.08000 158.198
52.12000 163.914
52.16000 152.838
52.20000 165.662
52.24000 166.926
52.28000 165.424
52.32000 156.123
52.36000 152.968
52.40000 157.189
52.44000 158.291
52.48000 159.234
52.52000 166.135
52.56000 167.765
52.60000 166.000
52.64000 168.126
52.68000 160.454
52.72000 164.601
52.76000 152.973
52.80000 153.886
52.84000 160.860
52.88000 153.099
52.92000 155.219
52.96000 163.317
53.00000 160.730
53.04000 145.658
53.08000 150.289
53.12000 156.790
53.16000 154.558
53.20000 160.281
53.24000 160.393
53.28000 153.012
53.32000 164.353
53.36000 165.749
53.40000 164.893
53.44000 170.038
53.48000 169.554
53.52000 157.861
53.56000 159.795
53.60000 159.470
53.64000 166.401
53.68000 158.540
53.72000 159.346
53.76000 153.112
53.80000 165.663
53.84000 148.173
53.88000 150.813
53.92000 157.056
53.96000 155.895
54.00000 161.277
54.04000 159.629
54.08000 148.086
54.12000 157.018
54.16000 160.223
54.20000 150.435
54.24000 152.291
54.28000 157.945
54.32000 157.593
54.36000 156.387
54.40000 166.838
54.44000 160.810
54.48000 154.798
54.52000 153.959
54.56000 158.390
54.60000 159.032
54.64000 150.886
54.68000 152.367
54.72000 146.782
54.76000 157.982
54.80000 161.079
54.84000 164.623
54.88000 160.037
54.92000 162.857
54.96000 156.036
55.00000 162.956
55.04000 164.769
55.08000 168.277
55.12000 166.157
55.16000 159.678
55.20000 166.525
55.24000 170.654
55.28000 159.097
55.32000 161.781
55.36000 171.710
55.40000 178.015
55.44000 181.353
55.48000 186.620
55.52000 194.288
55.56000 196.604
55.60000 221.349
55.64000 235.148
55.68000 253.669
55.72000 280.772
55.76000 341.983
55.80000 375.089
55.84000 417.865
55.88000 449.950
55.92000 487.352
55.96000 517.308
56.00000 524.692
56.04000 484.979
56.08000 458.732
56.12000 441.411
56.16000 382.785
56.20000 338.820
56.24000 298.581
56.28000 251.106
56.32000 230.295
56.36000 214.631
56.40000 195.068
56.44000 184.594
56.48000 172.588
56.52000 169.705
56.56000 156.472
56.60000 169.477
56.64000 160.355
56.68000 161.626
56.72000 153.935
56.76000 151.328
56.80000 146.075
56.84000 148.918
56.88000 152.870
56.92000 156.128
56.96000 153.464
57.00000 147.412
57.04000 153.388
57.08000 146.606
57.12000 153.952
57.16000 148.986
57.20000 133.413
57.24000 144.913
57.28000 144.636
57.32000 141.905
57.36000 146.608
57.40000 145.322
57.44000 150.730
57.48000 143.142
57.52000 148.198
57.56000 135.620
57.60000 146.020
57.64000 142.969
57.68000 144.948
57.72000 144.146
57.76000 147.802
57.80000 147.666
57.84000 140.083
57.88000 148.955
57.92000 142.547
57.96000 151.973
58.00000 143.487
58.04000 147.137
58.08000 147.837
58.12000 144.985
58.16000 137.903
58.20000 126.302
58.24000 147.191
58.28000 134.627
58.32000 139.070
58.36000 137.439
58.40000 138.218
58.44000 145.567
58.48000 139.863
58.52000 141.673
58.56000 133.385
58.60000 136.769
58.64000 141.965
58.68000 142.368
58.72000 130.541
58.76000 142.918
58.80000 132.052
58.84000 136.560
58.88000 142.163
58.92000 124.767
58.96000 125.937
59.00000 133.582
59.04000 145.468
59.08000 143.298
59.12000 143.001
59.16000 141.448
59.20000 137.505
59.24000 128.331
59.28000 133.688
59.32000 122.545
59.36000 123.473
59.40000 131.013
59.44000 134.773
59.48000 140.148
59.52000 130.407
59.56000 140.267
59.60000 136.052
59.64000 144.837
59.68000 139.487
59.72000 134.711
59.76000 132.795
59.80000 132.230
59.84000 127.074
59.88000 130.439
59.92000 136.182
59.96000 145.440
60.00000 133.767
60.04000 133.503
60.08000 134.996
60.12000 132.953
60.16000 133.933
60.20000 135.531
60.24000 134.747
60.28000 125.947
60.32000 126.076
60.36000 123.891
60.40000 133.493
60.44000 129.836
60.48000 133.754
60.52000 138.284
60.56000 129.273
60.60000 136.355
60.64000 127.671
60.68000 132.489
60.72000 144.907
60.76000 130.846
60.80000 146.273
60.84000 139.096
60.88000 142.957
60.92000 134.028
60.96000 129.790
61.00000 142.179
61.04000 137.971
61.08000 139.560
61.12000 139.082
61.16000 144.096
61.20000 135.154
61.24000 138.650
61.28000 133.293
61.32000 144.362
61.36000 141.967
61.40000 139.870
61.44000 126.632
61.48000 134.236
61.52000 161.457
61.56000 177.584
61.60000 204.539
61.64000 222.280
61.68000 247.659
61.72000 255.703
61.76000 246.935
61.80000 220.121
61.84000 183.761
61.88000 156.200
61.92000 134.766
61.96000 153.780
62.00000 139.277
62.04000 144.435
62.08000 140.436
62.12000 138.074
62.16000 142.229
62.20000 135.564
62.24000 140.471
62.28000 140.852
62.32000 150.454
62.36000 143.900
62.40000 152.794
62.44000 143.510
62.48000 143.639
62.52000 137.771
62.56000 130.355
62.60000 137.718
62.64000 133.394
62.68000 152.035
62.72000 149.792
62.76000 140.425
62.80000 130.402
62.84000 146.947
62.88000 148.020
62.92000 143.543
62.96000 154.598
63.00000 146.359
63.04000 139.665
63.08000 132.928
63.12000 144.571
63.16000 140.927
63.20000 136.990
63.24000 140.734
63.28000 151.410
63.32000 135.667
63.36000 153.725
63.40000 153.330
63.44000 148.251
63.48000 148.873
63.52000 151.341
63.56000 152.421
63.60000 147.122
63.64000 150.190
63.68000 151.417
63.72000 148.039
63.76000 147.418
63.80000 152.603
63.84000 158.872
63.88000 154.715
63.92000 146.016
63.96000 153.050
64.00000 149.412
64.04000 152.966
64.08000 155.105
64.12000 160.903
64.16000 159.590
64.20000 152.258
64.24000 164.937
64.28000 161.747
64.32000 161.929
64.36000 158.951
64.40000 157.490
64.44000 160.986
64.48000 160.964
64.52000 176.292
64.56000 161.364
64.60000 167.836
64.64000 166.574
64.68000 167.436
64.72000 178.271
64.76000 172.965
64.80000 162.215
64.84000 182.050
64.88000 179.488
64.92000 177.531
64.96000 187.523
65.00000 173.183
65.04000 176.627
65.08000 200.663
65.12000 196.048
65.16000 206.954
65.20000 203.858
65.24000 202.686
65.28000 215.814
65.32000 228.882
65.36000 226.777
65.40000 251.334
65.44000 255.020
65.48000 261.519
65.52000 269.398
65.56000 286.629
65.60000 307.688
65.64000 317.375
65.68000 370.607
65.72000 450.820
65.76000 573.046
65.80000 751.913
65.84000 879.876
65.88000 906.956
65.92000 891.678
65.96000 849.784
66.00000 646.089
66.04000 463.382
66.08000 332.021
66.12000 303.247
66.16000 269.490
66.20000 281.388
66.24000 278.493
66.28000 294.940
66.32000 326.047
66.36000 355.851
66.40000 403.453
66.44000 402.552
66.48000 388.593
66.52000 382.573
66.56000 355.825
66.60000 325.377
66.64000 302.262
66.68000 307.593
66.72000 298.731
66.76000 297.963
66.80000 304.507
66.84000 301.292
66.88000 314.472
66.92000 319.095
66.96000 329.633
67.00000 334.259
67.04000 318.018
67.08000 352.072
67.12000 345.195
67.16000 351.374
67.20000 342.696
67.24000 383.659
67.28000 353.868
67.32000 370.778
67.36000 378.674
67.40000 377.659
67.44000 392.326
67.48000 394.965
67.52000 403.661
67.56000 418.765
67.60000 430.146
67.64000 416.414
67.68000 437.809
67.72000 458.998
67.76000 455.561
67.80000 442.879
67.84000 462.183
67.88000 467.185
67.92000 480.061
67.96000 487.586
68.00000 501.609
68.04000 516.469
68.08000 518.183
68.12000 538.232
68.16000 549.919
68.20000 553.099
68.24000 571.739
68.28000 580.340
68.32000 635.380
68.36000 629.653
68.40000 639.750
68.44000 669.672
68.48000 683.628
68.52000 728.873
68.56000 792.593
68.60000 856.596
68.64000 955.742
68.68000 1134.391
68.72000 1325.010
68.76000 1474.285
68.80000 1664.358
68.84000 1896.791
68.88000 2126.273
68.92000 3110.254
68.96000 6446.483
69.00000 18080.283
69.04000 34315.008
69.08000 45989.512
69.12000 48671.973
69.16000 49823.590
69.20000 51801.984
69.24000 47116.363
69.28000 36678.109
69.32000 28899.352
69.36000 25328.250
69.40000 22452.121
69.44000 15668.867
69.48000 7984.084
69.52000 3568.819
69.56000 1928.024
69.60000 1386.093
69.64000 1193.645
69.68000 1062.637
69.72000 956.363
69.76000 883.386
69.80000 808.144
69.84000 776.516
69.88000 726.515
69.92000 715.927
69.96000 672.001
70.00000 648.311