File: XRD/30-09-2025 Dep 1/XY Data/BTO_Mapping_Theta2Theta_30-09-2025_001_40_-24-271_-17-634.xy
20.00000 567.126
20.04000 572.782
20.08000 591.902
20.12000 551.050
20.16000 549.085
20.20000 567.575
20.24000 567.763
20.28000 570.307
20.32000 535.656
20.36000 563.584
20.40000 579.039
20.44000 563.593
20.48000 563.195
20.52000 571.027
20.56000 549.643
20.60000 557.093
20.64000 550.081
20.68000 550.793
20.72000 551.570
20.76000 552.711
20.80000 538.488
20.84000 557.454
20.88000 551.541
20.92000 574.780
20.96000 553.985
21.00000 560.549
21.04000 551.269
21.08000 561.272
21.12000 565.534
21.16000 531.974
21.20000 565.868
21.24000 553.083
21.28000 562.564
21.32000 537.821
21.36000 530.815
21.40000 553.380
21.44000 531.474
21.48000 542.154
21.52000 555.122
21.56000 563.258
21.60000 549.800
21.64000 553.532
21.68000 571.182
21.72000 579.413
21.76000 578.680
21.80000 626.896
21.84000 633.091
21.88000 659.103
21.92000 704.392
21.96000 772.828
22.00000 788.378
22.04000 834.165
22.08000 829.733
22.12000 796.212
22.16000 786.500
22.20000 736.997
22.24000 680.448
22.28000 623.947
22.32000 592.436
22.36000 559.547
22.40000 562.452
22.44000 561.741
22.48000 525.830
22.52000 542.836
22.56000 539.435
22.60000 551.531
22.64000 542.906
22.68000 523.175
22.72000 532.020
22.76000 513.997
22.80000 525.627
22.84000 527.124
22.88000 525.656
22.92000 520.819
22.96000 524.335
23.00000 521.339
23.04000 511.826
23.08000 513.265
23.12000 518.548
23.16000 521.379
23.20000 509.199
23.24000 507.458
23.28000 532.108
23.32000 513.184
23.36000 521.389
23.40000 498.172
23.44000 489.804
23.48000 512.778
23.52000 518.358
23.56000 511.017
23.60000 503.316
23.64000 509.773
23.68000 517.590
23.72000 526.544
23.76000 492.235
23.80000 490.443
23.84000 506.005
23.88000 496.874
23.92000 512.887
23.96000 523.164
24.00000 520.376
24.04000 497.681
24.08000 499.248
24.12000 491.932
24.16000 517.244
24.20000 508.527
24.24000 498.615
24.28000 493.864
24.32000 504.665
24.36000 502.223
24.40000 489.893
24.44000 502.545
24.48000 485.708
24.52000 504.717
24.56000 485.027
24.60000 484.484
24.64000 495.134
24.68000 490.357
24.72000 489.337
24.76000 480.461
24.80000 470.132
24.84000 464.721
24.88000 495.898
24.92000 477.049
24.96000 499.837
25.00000 490.752
25.04000 496.518
25.08000 485.536
25.12000 473.654
25.16000 490.456
25.20000 464.707
25.24000 488.297
25.28000 474.673
25.32000 494.968
25.36000 490.929
25.40000 473.979
25.44000 485.803
25.48000 482.700
25.52000 465.005
25.56000 486.964
25.60000 463.187
25.64000 487.220
25.68000 483.095
25.72000 469.551
25.76000 476.379
25.80000 468.405
25.84000 466.596
25.88000 458.682
25.92000 476.413
25.96000 471.721
26.00000 453.570
26.04000 454.727
26.08000 470.820
26.12000 455.901
26.16000 462.891
26.20000 469.908
26.24000 472.108
26.28000 464.506
26.32000 469.734
26.36000 461.192
26.40000 458.624
26.44000 471.386
26.48000 450.265
26.52000 426.535
26.56000 463.485
26.60000 451.238
26.64000 451.934
26.68000 454.221
26.72000 457.727
26.76000 434.455
26.80000 441.828
26.84000 446.789
26.88000 455.172
26.92000 455.838
26.96000 449.121
27.00000 469.145
27.04000 434.787
27.08000 430.666
27.12000 449.142
27.16000 444.211
27.20000 431.590
27.24000 460.507
27.28000 444.197
27.32000 430.819
27.36000 428.613
27.40000 453.607
27.44000 435.880
27.48000 448.378
27.52000 448.687
27.56000 441.555
27.60000 436.382
27.64000 421.011
27.68000 435.662
27.72000 438.633
27.76000 432.785
27.80000 443.920
27.84000 423.064
27.88000 422.003
27.92000 435.504
27.96000 442.027
28.00000 437.434
28.04000 421.949
28.08000 449.596
28.12000 447.598
28.16000 445.828
28.20000 439.751
28.24000 443.831
28.28000 447.778
28.32000 444.489
28.36000 440.493
28.40000 444.972
28.44000 432.359
28.48000 432.406
28.52000 428.148
28.56000 429.784
28.60000 408.129
28.64000 431.172
28.68000 435.408
28.72000 414.375
28.76000 428.157
28.80000 428.013
28.84000 437.300
28.88000 429.027
28.92000 410.210
28.96000 429.023
29.00000 434.475
29.04000 423.967
29.08000 407.996
29.12000 423.923
29.16000 417.304
29.20000 426.823
29.24000 407.887
29.28000 420.662
29.32000 416.088
29.36000 422.910
29.40000 428.136
29.44000 413.268
29.48000 413.384
29.52000 426.585
29.56000 418.889
29.60000 428.150
29.64000 411.083
29.68000 413.920
29.72000 415.584
29.76000 432.907
29.80000 431.849
29.84000 419.403
29.88000 444.144
29.92000 443.791
29.96000 464.637
30.00000 464.948
30.04000 464.455
30.08000 453.232
30.12000 448.522
30.16000 445.319
30.20000 444.547
30.24000 449.374
30.28000 455.787
30.32000 438.924
30.36000 411.392
30.40000 456.356
30.44000 441.815
30.48000 428.572
30.52000 427.460
30.56000 456.252
30.60000 443.557
30.64000 449.348
30.68000 453.087
30.72000 464.454
30.76000 459.676
30.80000 472.618
30.84000 477.404
30.88000 473.777
30.92000 511.730
30.96000 541.157
31.00000 583.710
31.04000 633.348
31.08000 729.101
31.12000 943.860
31.16000 1207.145
31.20000 1657.351
31.24000 2176.756
31.28000 2905.802
31.32000 3525.774
31.36000 3910.682
31.40000 4131.914
31.44000 3875.475
31.48000 3461.547
31.52000 2780.631
31.56000 2068.022
31.60000 1516.797
31.64000 1085.093
31.68000 780.599
31.72000 639.173
31.76000 540.452
31.80000 525.481
31.84000 482.337
31.88000 459.333
31.92000 463.787
31.96000 433.571
32.00000 442.620
32.04000 428.493
32.08000 434.339
32.12000 410.844
32.16000 410.629
32.20000 408.315
32.24000 410.849
32.28000 411.164
32.32000 398.987
32.36000 401.135
32.40000 396.413
32.44000 389.223
32.48000 393.423
32.52000 390.018
32.56000 373.303
32.60000 386.871
32.64000 370.513
32.68000 381.106
32.72000 362.328
32.76000 386.674
32.80000 382.985
32.84000 387.111
32.88000 411.938
32.92000 429.943
32.96000 456.580
33.00000 454.128
33.04000 489.227
33.08000 467.909
33.12000 437.475
33.16000 412.011
33.20000 384.180
33.24000 371.007
33.28000 362.468
33.32000 338.271
33.36000 359.879
33.40000 337.079
33.44000 348.748
33.48000 350.878
33.52000 354.496
33.56000 362.429
33.60000 345.152
33.64000 340.585
33.68000 333.955
33.72000 346.193
33.76000 347.110
33.80000 350.284
33.84000 351.499
33.88000 347.129
33.92000 346.541
33.96000 349.877
34.00000 337.859
34.04000 333.772
34.08000 352.253
34.12000 320.588
34.16000 339.605
34.20000 346.421
34.24000 347.124
34.28000 321.442
34.32000 326.029
34.36000 323.595
34.40000 331.338
34.44000 338.467
34.48000 309.249
34.52000 318.334
34.56000 325.343
34.60000 328.917
34.64000 342.626
34.68000 334.102
34.72000 341.970
34.76000 316.965
34.80000 313.668
34.84000 329.526
34.88000 315.681
34.92000 323.617
34.96000 320.003
35.00000 321.322
35.04000 308.808
35.08000 322.118
35.12000 333.643
35.16000 322.320
35.20000 333.037
35.24000 325.717
35.28000 309.826
35.32000 314.272
35.36000 303.086
35.40000 328.737
35.44000 310.340
35.48000 326.914
35.52000 318.015
35.56000 316.184
35.60000 312.820
35.64000 314.163
35.68000 316.074
35.72000 322.630
35.76000 313.009
35.80000 322.023
35.84000 288.870
35.88000 310.308
35.92000 308.095
35.96000 303.308
36.00000 317.621
36.04000 299.846
36.08000 312.675
36.12000 304.303
36.16000 304.407
36.20000 301.950
36.24000 309.097
36.28000 310.916
36.32000 307.537
36.36000 301.833
36.40000 308.957
36.44000 302.359
36.48000 290.536
36.52000 304.597
36.56000 295.680
36.60000 312.718
36.64000 302.007
36.68000 291.610
36.72000 289.584
36.76000 308.907
36.80000 306.373
36.84000 314.259
36.88000 308.707
36.92000 284.983
36.96000 308.330
37.00000 306.091
37.04000 305.672
37.08000 301.336
37.12000 291.399
37.16000 294.254
37.20000 299.363
37.24000 304.282
37.28000 303.942
37.32000 312.165
37.36000 295.499
37.40000 292.686
37.44000 304.249
37.48000 312.345
37.52000 297.917
37.56000 300.239
37.60000 302.102
37.64000 296.497
37.68000 297.629
37.72000 297.114
37.76000 292.534
37.80000 304.814
37.84000 299.859
37.88000 295.527
37.92000 277.996
37.96000 296.795
38.00000 299.135
38.04000 287.525
38.08000 296.141
38.12000 288.895
38.16000 291.813
38.20000 299.198
38.24000 298.338
38.28000 307.109
38.32000 318.902
38.36000 317.423
38.40000 320.787
38.44000 352.050
38.48000 383.700
38.52000 441.682
38.56000 489.365
38.60000 592.283
38.64000 637.522
38.68000 706.093
38.72000 749.586
38.76000 732.031
38.80000 743.080
38.84000 665.140
38.88000 573.936
38.92000 482.940
38.96000 445.744
39.00000 361.394
39.04000 334.622
39.08000 313.157
39.12000 311.668
39.16000 304.358
39.20000 296.655
39.24000 278.824
39.28000 276.038
39.32000 279.284
39.36000 268.157
39.40000 284.351
39.44000 278.455
39.48000 270.617
39.52000 276.413
39.56000 260.236
39.60000 258.442
39.64000 267.748
39.68000 268.024
39.72000 264.907
39.76000 273.681
39.80000 261.044
39.84000 271.054
39.88000 264.641
39.92000 262.101
39.96000 270.849
40.00000 258.904
40.04000 268.532
40.08000 252.623
40.12000 259.295
40.16000 258.713
40.20000 249.205
40.24000 262.044
40.28000 264.949
40.32000 254.997
40.36000 259.713
40.40000 271.702
40.44000 251.562
40.48000 256.939
40.52000 256.037
40.56000 259.147
40.60000 254.155
40.64000 269.410
40.68000 259.042
40.72000 256.227
40.76000 260.723
40.80000 242.306
40.84000 255.664
40.88000 256.114
40.92000 263.423
40.96000 255.087
41.00000 250.528
41.04000 235.948
41.08000 257.679
41.12000 258.826
41.16000 265.358
41.20000 247.354
41.24000 237.893
41.28000 236.676
41.32000 245.399
41.36000 234.916
41.40000 231.421
41.44000 248.053
41.48000 253.556
41.52000 250.044
41.56000 235.991
41.60000 234.707
41.64000 244.781
41.68000 251.667
41.72000 233.962
41.76000 242.215
41.80000 244.614
41.84000 236.670
41.88000 225.659
41.92000 230.207
41.96000 248.046
42.00000 250.950
42.04000 251.863
42.08000 241.289
42.12000 241.227
42.16000 233.696
42.20000 232.278
42.24000 230.604
42.28000 230.987
42.32000 235.123
42.36000 233.427
42.40000 234.484
42.44000 227.704
42.48000 229.580
42.52000 236.825
42.56000 236.517
42.60000 237.645
42.64000 232.715
42.68000 226.399
42.72000 233.048
42.76000 245.645
42.80000 235.654
42.84000 229.822
42.88000 232.324
42.92000 233.407
42.96000 236.573
43.00000 223.209
43.04000 233.825
43.08000 227.214
43.12000 223.535
43.16000 231.305
43.20000 225.183
43.24000 229.963
43.28000 225.824
43.32000 240.806
43.36000 233.587
43.40000 240.750
43.44000 236.903
43.48000 226.085
43.52000 218.134
43.56000 223.106
43.60000 219.309
43.64000 224.583
43.68000 224.755
43.72000 224.932
43.76000 232.594
43.80000 220.618
43.84000 219.444
43.88000 234.692
43.92000 217.004
43.96000 224.717
44.00000 234.607
44.04000 228.221
44.08000 223.665
44.12000 227.840
44.16000 235.082
44.20000 224.596
44.24000 227.539
44.28000 220.831
44.32000 226.323
44.36000 222.499
44.40000 226.963
44.44000 234.117
44.48000 225.897
44.52000 217.099
44.56000 239.575
44.60000 240.474
44.64000 239.873
44.68000 247.193
44.72000 259.150
44.76000 259.036
44.80000 281.635
44.84000 317.026
44.88000 327.728
44.92000 377.888
44.96000 430.129
45.00000 442.813
45.04000 497.877
45.08000 485.701
45.12000 486.364
45.16000 451.718
45.20000 410.146
45.24000 376.352
45.28000 367.550
45.32000 325.082
45.36000 288.678
45.40000 269.648
45.44000 271.078
45.48000 254.094
45.52000 238.503
45.56000 222.219
45.60000 225.841
45.64000 230.583
45.68000 227.461
45.72000 219.669
45.76000 221.417
45.80000 216.505
45.84000 210.992
45.88000 215.138
45.92000 213.137
45.96000 209.146
46.00000 209.134
46.04000 213.536
46.08000 216.248
46.12000 210.533
46.16000 211.914
46.20000 214.684
46.24000 212.803
46.28000 208.790
46.32000 207.768
46.36000 204.813
46.40000 208.849
46.44000 208.843
46.48000 201.217
46.52000 213.636
46.56000 208.970
46.60000 202.285
46.64000 205.164
46.68000 210.899
46.72000 201.488
46.76000 200.756
46.80000 198.244
46.84000 198.634
46.88000 196.176
46.92000 215.474
46.96000 193.862
47.00000 196.093
47.04000 190.562
47.08000 192.107
47.12000 195.368
47.16000 194.463
47.20000 187.647
47.24000 186.382
47.28000 192.383
47.32000 181.205
47.36000 191.384
47.40000 195.501
47.44000 204.163
47.48000 197.867
47.52000 175.015
47.56000 197.949
47.60000 191.893
47.64000 204.364
47.68000 190.789
47.72000 197.438
47.76000 192.787
47.80000 193.444
47.84000 193.728
47.88000 197.796
47.92000 187.727
47.96000 188.754
48.00000 188.278
48.04000 188.779
48.08000 179.134
48.12000 188.760
48.16000 167.015
48.20000 183.646
48.24000 180.488
48.28000 185.266
48.32000 190.236
48.36000 181.387
48.40000 188.879
48.44000 189.316
48.48000 193.159
48.52000 190.037
48.56000 177.176
48.60000 183.676
48.64000 186.150
48.68000 181.612
48.72000 186.913
48.76000 175.965
48.80000 183.194
48.84000 179.779
48.88000 174.429
48.92000 172.750
48.96000 175.047
49.00000 190.046
49.04000 177.491
49.08000 183.656
49.12000 185.061
49.16000 184.229
49.20000 192.162
49.24000 185.021
49.28000 188.118
49.32000 186.897
49.36000 183.824
49.40000 168.148
49.44000 182.645
49.48000 173.569
49.52000 167.314
49.56000 177.975
49.60000 174.736
49.64000 181.697
49.68000 170.124
49.72000 172.137
49.76000 166.663
49.80000 171.916
49.84000 186.260
49.88000 169.193
49.92000 190.033
49.96000 181.030
50.00000 182.063
50.04000 196.329
50.08000 182.921
50.12000 178.973
50.16000 179.064
50.20000 187.207
50.24000 187.581
50.28000 187.060
50.32000 190.496
50.36000 188.151
50.40000 195.824
50.44000 206.440
50.48000 215.115
50.52000 229.472
50.56000 239.494
50.60000 264.228
50.64000 276.904
50.68000 297.267
50.72000 297.293
50.76000 287.133
50.80000 284.250
50.84000 261.737
50.88000 254.058
50.92000 237.247
50.96000 212.563
51.00000 199.961
51.04000 204.226
51.08000 194.311
51.12000 190.250
51.16000 190.984
51.20000 167.532
51.24000 163.166
51.28000 171.788
51.32000 180.158
51.36000 176.898
51.40000 182.994
51.44000 177.310
51.48000 161.704
51.52000 169.154
51.56000 157.820
51.60000 161.461
51.64000 166.522
51.68000 157.456
51.72000 163.421
51.76000 159.651
51.80000 164.327
51.84000 159.278
51.88000 164.056
51.92000 159.656
51.96000 158.819
52.00000 168.626
52.04000 157.464
52.08000 175.517
52.12000 160.022
52.16000 164.109
52.20000 164.261
52.24000 162.951
52.28000 171.911
52.32000 146.170
52.36000 160.549
52.40000 163.364
52.44000 172.883
52.48000 161.064
52.52000 158.938
52.56000 162.119
52.60000 143.354
52.64000 155.834
52.68000 162.872
52.72000 167.206
52.76000 160.019
52.80000 166.381
52.84000 150.931
52.88000 157.319
52.92000 158.293
52.96000 162.193
53.00000 162.889
53.04000 167.859
53.08000 158.342
53.12000 155.573
53.16000 169.058
53.20000 161.482
53.24000 167.086
53.28000 166.897
53.32000 170.399
53.36000 157.836
53.40000 173.121
53.44000 159.820
53.48000 165.030
53.52000 168.971
53.56000 171.079
53.60000 170.106
53.64000 164.385
53.68000 162.121
53.72000 171.415
53.76000 162.506
53.80000 152.535
53.84000 158.344
53.88000 168.413
53.92000 150.852
53.96000 156.047
54.00000 167.403
54.04000 163.092
54.08000 165.490
54.12000 157.552
54.16000 168.611
54.20000 158.393
54.24000 161.982
54.28000 164.784
54.32000 157.495
54.36000 146.462
54.40000 156.763
54.44000 159.650
54.48000 157.653
54.52000 152.553
54.56000 151.501
54.60000 160.161
54.64000 145.613
54.68000 159.043
54.72000 152.788
54.76000 159.231
54.80000 161.563
54.84000 155.027
54.88000 156.346
54.92000 158.374
54.96000 161.722
55.00000 158.237
55.04000 159.725
55.08000 150.799
55.12000 154.205
55.16000 160.469
55.20000 159.185
55.24000 167.950
55.28000 175.518
55.32000 165.053
55.36000 159.896
55.40000 179.002
55.44000 175.250
55.48000 182.846
55.52000 185.159
55.56000 216.108
55.60000 220.821
55.64000 247.575
55.68000 296.279
55.72000 345.018
55.76000 409.642
55.80000 479.442
55.84000 565.680
55.88000 613.948
55.92000 665.906
55.96000 644.415
56.00000 625.511
56.04000 596.910
56.08000 520.458
56.12000 476.801
56.16000 395.241
56.20000 340.672
56.24000 303.763
56.28000 255.867
56.32000 224.454
56.36000 200.138
56.40000 197.856
56.44000 167.406
56.48000 172.307
56.52000 170.369
56.56000 156.357
56.60000 153.334
56.64000 159.753
56.68000 152.887
56.72000 160.831
56.76000 167.506
56.80000 162.696
56.84000 164.794
56.88000 148.773
56.92000 144.497
56.96000 143.538
57.00000 142.737
57.04000 149.562
57.08000 140.598
57.12000 155.994
57.16000 155.780
57.20000 145.285
57.24000 134.550
57.28000 139.122
57.32000 146.981
57.36000 155.569
57.40000 145.118
57.44000 150.185
57.48000 152.515
57.52000 140.780
57.56000 147.337
57.60000 139.436
57.64000 153.592
57.68000 155.137
57.72000 149.952
57.76000 140.266
57.80000 151.636
57.84000 143.329
57.88000 142.518
57.92000 143.052
57.96000 146.492
58.00000 145.910
58.04000 141.428
58.08000 141.809
58.12000 133.185
58.16000 142.348
58.20000 152.588
58.24000 138.257
58.28000 140.260
58.32000 138.305
58.36000 145.359
58.40000 125.132
58.44000 143.934
58.48000 152.119
58.52000 134.903
58.56000 137.245
58.60000 142.130
58.64000 139.967
58.68000 143.973
58.72000 137.487
58.76000 142.250
58.80000 141.054
58.84000 146.416
58.88000 146.898
58.92000 130.094
58.96000 129.802
59.00000 132.981
59.04000 134.865
59.08000 133.020
59.12000 130.756
59.16000 139.631
59.20000 142.651
59.24000 139.391
59.28000 138.649
59.32000 138.004
59.36000 130.708
59.40000 131.741
59.44000 138.468
59.48000 135.668
59.52000 146.906
59.56000 138.858
59.60000 131.680
59.64000 130.631
59.68000 128.531
59.72000 136.699
59.76000 139.034
59.80000 137.122
59.84000 132.517
59.88000 128.477
59.92000 136.297
59.96000 133.673
60.00000 129.134
60.04000 135.538
60.08000 129.579
60.12000 135.602
60.16000 126.935
60.20000 137.983
60.24000 138.692
60.28000 137.512
60.32000 139.137
60.36000 140.117
60.40000 131.976
60.44000 130.352
60.48000 138.400
60.52000 136.157
60.56000 132.920
60.60000 141.218
60.64000 134.224
60.68000 139.898
60.72000 137.129
60.76000 142.069
60.80000 128.241
60.84000 129.744
60.88000 132.129
60.92000 135.151
60.96000 125.124
61.00000 143.019
61.04000 137.977
61.08000 142.576
61.12000 150.936
61.16000 139.246
61.20000 138.757
61.24000 139.325
61.28000 144.328
61.32000 133.049
61.36000 138.762
61.40000 142.037
61.44000 135.637
61.48000 151.719
61.52000 145.634
61.56000 193.461
61.60000 257.665
61.64000 300.036
61.68000 314.586
61.72000 323.065
61.76000 332.672
61.80000 290.890
61.84000 216.839
61.88000 173.529
61.92000 144.198
61.96000 150.834
62.00000 153.638
62.04000 142.980
62.08000 149.734
62.12000 142.751
62.16000 146.622
62.20000 140.281
62.24000 131.444
62.28000 146.633
62.32000 136.081
62.36000 148.048
62.40000 141.831
62.44000 134.562
62.48000 141.679
62.52000 134.150
62.56000 142.494
62.60000 146.653
62.64000 146.654
62.68000 146.089
62.72000 143.705
62.76000 143.620
62.80000 134.993
62.84000 144.382
62.88000 136.489
62.92000 135.113
62.96000 139.381
63.00000 147.463
63.04000 138.511
63.08000 154.496
63.12000 156.781
63.16000 153.408
63.20000 154.239
63.24000 156.347
63.28000 150.145
63.32000 149.481
63.36000 134.398
63.40000 156.938
63.44000 152.700
63.48000 138.045
63.52000 147.384
63.56000 144.380
63.60000 151.668
63.64000 159.435
63.68000 161.908
63.72000 158.790
63.76000 159.062
63.80000 145.836
63.84000 158.922
63.88000 151.380
63.92000 165.473
63.96000 160.811
64.00000 153.987
64.04000 159.461
64.08000 154.915
64.12000 151.013
64.16000 170.880
64.20000 176.350
64.24000 158.096
64.28000 161.465
64.32000 162.329
64.36000 169.921
64.40000 161.681
64.44000 159.927
64.48000 164.705
64.52000 169.649
64.56000 177.118
64.60000 169.700
64.64000 167.800
64.68000 167.468
64.72000 188.863
64.76000 198.198
64.80000 188.339
64.84000 181.185
64.88000 190.258
64.92000 194.162
64.96000 192.124
65.00000 201.108
65.04000 194.390
65.08000 210.697
65.12000 234.117
65.16000 226.739
65.20000 240.060
65.24000 262.796
65.28000 281.073
65.32000 301.956
65.36000 317.135
65.40000 356.061
65.44000 365.486
65.48000 448.428
65.52000 450.063
65.56000 463.004
65.60000 501.981
65.64000 518.624
65.68000 562.702
65.72000 669.451
65.76000 900.286
65.80000 1124.562
65.84000 1300.762
65.88000 1367.309
65.92000 1310.291
65.96000 1178.240
66.00000 907.297
66.04000 612.654
66.08000 433.309
66.12000 367.225
66.16000 327.200
66.20000 323.199
66.24000 334.348
66.28000 342.470
66.32000 412.267
66.36000 450.680
66.40000 499.926
66.44000 500.986
66.48000 487.058
66.52000 468.912
66.56000 421.367
66.60000 368.933
66.64000 347.596
66.68000 337.136
66.72000 341.564
66.76000 342.916
66.80000 313.209
66.84000 336.343
66.88000 345.126
66.92000 359.380
66.96000 358.461
67.00000 366.744
67.04000 384.567
67.08000 373.515
67.12000 395.652
67.16000 398.738
67.20000 387.864
67.24000 388.056
67.28000 413.963
67.32000 394.596
67.36000 434.790
67.40000 427.062
67.44000 444.571
67.48000 460.092
67.52000 451.711
67.56000 471.156
67.60000 485.797
67.64000 480.827
67.68000 490.124
67.72000 506.176
67.76000 506.836
67.80000 548.132
67.84000 514.586
67.88000 541.945
67.92000 553.963
67.96000 574.357
68.00000 597.487
68.04000 600.357
68.08000 594.952
68.12000 604.732
68.16000 639.456
68.20000 659.420
68.24000 671.037
68.28000 673.485
68.32000 705.072
68.36000 723.682
68.40000 752.599
68.44000 783.369
68.48000 816.335
68.52000 876.608
68.56000 936.649
68.60000 1057.858
68.64000 1202.082
68.68000 1437.649
68.72000 1722.144
68.76000 1991.502
68.80000 2231.545
68.84000 2558.426
68.88000 3008.827
68.92000 5014.358
68.96000 10958.155
69.00000 29109.000
69.04000 54022.227
69.08000 72171.305
69.12000 76740.273
69.16000 78766.570
69.20000 80538.750
69.24000 73167.453
69.28000 58299.570
69.32000 45690.660
69.36000 39698.973
69.40000 34441.098
69.44000 23908.596
69.48000 12644.166
69.52000 5392.548
69.56000 2736.142
69.60000 1907.714
69.64000 1571.199
69.68000 1398.506
69.72000 1212.638
69.76000 1104.621
69.80000 1019.099
69.84000 944.328
69.88000 880.442
69.92000 868.021
69.96000 821.371
70.00000 766.563