File: XRD/30-09-2025 Dep 1/XY Data/BTO_Mapping_Theta2Theta_30-09-2025_001_32_-29-344_6-237.xy
20.00000 576.865
20.04000 561.175
20.08000 555.877
20.12000 553.109
20.16000 556.236
20.20000 574.918
20.24000 564.570
20.28000 575.808
20.32000 560.877
20.36000 566.819
20.40000 573.582
20.44000 547.057
20.48000 567.111
20.52000 557.988
20.56000 568.445
20.60000 556.630
20.64000 562.975
20.68000 544.346
20.72000 532.277
20.76000 525.449
20.80000 541.315
20.84000 552.602
20.88000 552.722
20.92000 532.579
20.96000 537.130
21.00000 549.041
21.04000 538.564
21.08000 540.259
21.12000 533.949
21.16000 543.758
21.20000 552.478
21.24000 541.724
21.28000 554.596
21.32000 553.678
21.36000 523.574
21.40000 532.930
21.44000 560.613
21.48000 542.633
21.52000 550.118
21.56000 551.908
21.60000 527.312
21.64000 523.326
21.68000 544.614
21.72000 549.246
21.76000 526.132
21.80000 553.926
21.84000 587.073
21.88000 614.948
21.92000 591.255
21.96000 594.326
22.00000 625.346
22.04000 642.243
22.08000 638.651
22.12000 640.790
22.16000 644.584
22.20000 651.818
22.24000 622.987
22.28000 586.572
22.32000 575.016
22.36000 544.080
22.40000 552.748
22.44000 559.611
22.48000 537.916
22.52000 530.998
22.56000 519.763
22.60000 532.658
22.64000 517.989
22.68000 531.779
22.72000 527.014
22.76000 537.926
22.80000 511.501
22.84000 495.264
22.88000 512.088
22.92000 509.461
22.96000 528.000
23.00000 500.375
23.04000 504.691
23.08000 534.857
23.12000 509.544
23.16000 509.805
23.20000 512.120
23.24000 524.803
23.28000 510.834
23.32000 519.450
23.36000 494.220
23.40000 510.267
23.44000 525.889
23.48000 527.257
23.52000 507.839
23.56000 510.050
23.60000 508.501
23.64000 499.445
23.68000 488.232
23.72000 506.383
23.76000 521.754
23.80000 507.886
23.84000 518.025
23.88000 502.993
23.92000 513.823
23.96000 511.710
24.00000 510.229
24.04000 514.564
24.08000 524.930
24.12000 524.797
24.16000 530.087
24.20000 514.540
24.24000 527.159
24.28000 514.861
24.32000 513.915
24.36000 494.722
24.40000 486.531
24.44000 479.913
24.48000 502.364
24.52000 491.806
24.56000 501.819
24.60000 465.077
24.64000 490.450
24.68000 487.016
24.72000 480.724
24.76000 480.151
24.80000 503.766
24.84000 484.402
24.88000 477.536
24.92000 484.114
24.96000 476.134
25.00000 492.135
25.04000 485.682
25.08000 484.923
25.12000 488.091
25.16000 457.885
25.20000 467.963
25.24000 460.014
25.28000 471.876
25.32000 468.992
25.36000 471.639
25.40000 476.824
25.44000 484.203
25.48000 464.185
25.52000 466.362
25.56000 475.414
25.60000 491.476
25.64000 468.815
25.68000 458.957
25.72000 456.706
25.76000 468.657
25.80000 460.008
25.84000 470.248
25.88000 450.248
25.92000 456.195
25.96000 461.183
26.00000 466.532
26.04000 442.959
26.08000 460.345
26.12000 462.963
26.16000 438.888
26.20000 454.829
26.24000 471.327
26.28000 447.777
26.32000 455.342
26.36000 472.528
26.40000 470.266
26.44000 458.888
26.48000 466.896
26.52000 451.434
26.56000 447.227
26.60000 455.174
26.64000 438.900
26.68000 448.217
26.72000 466.047
26.76000 437.836
26.80000 440.300
26.84000 438.124
26.88000 451.897
26.92000 455.752
26.96000 452.811
27.00000 449.324
27.04000 458.691
27.08000 453.395
27.12000 457.509
27.16000 467.201
27.20000 439.897
27.24000 457.747
27.28000 435.958
27.32000 434.515
27.36000 431.553
27.40000 440.804
27.44000 424.625
27.48000 448.070
27.52000 436.246
27.56000 434.305
27.60000 445.254
27.64000 432.702
27.68000 438.301
27.72000 438.445
27.76000 445.934
27.80000 441.833
27.84000 426.139
27.88000 423.629
27.92000 428.622
27.96000 435.072
28.00000 434.487
28.04000 424.333
28.08000 432.551
28.12000 443.294
28.16000 425.649
28.20000 440.318
28.24000 450.801
28.28000 417.213
28.32000 437.100
28.36000 437.423
28.40000 431.792
28.44000 424.321
28.48000 415.924
28.52000 425.206
28.56000 423.327
28.60000 441.042
28.64000 424.822
28.68000 425.321
28.72000 416.816
28.76000 410.069
28.80000 410.828
28.84000 413.496
28.88000 409.263
28.92000 401.274
28.96000 404.767
29.00000 401.810
29.04000 405.241
29.08000 416.911
29.12000 408.754
29.16000 411.594
29.20000 408.873
29.24000 402.152
29.28000 399.875
29.32000 430.604
29.36000 404.074
29.40000 424.153
29.44000 417.735
29.48000 398.150
29.52000 401.298
29.56000 419.900
29.60000 401.958
29.64000 410.217
29.68000 420.736
29.72000 412.268
29.76000 415.849
29.80000 419.100
29.84000 418.690
29.88000 411.019
29.92000 418.972
29.96000 438.496
30.00000 447.956
30.04000 419.666
30.08000 430.352
30.12000 431.347
30.16000 431.808
30.20000 427.366
30.24000 428.285
30.28000 421.444
30.32000 418.203
30.36000 427.228
30.40000 426.151
30.44000 426.812
30.48000 419.744
30.52000 411.298
30.56000 428.326
30.60000 405.084
30.64000 392.526
30.68000 420.569
30.72000 426.028
30.76000 443.198
30.80000 439.834
30.84000 455.875
30.88000 474.044
30.92000 448.476
30.96000 488.545
31.00000 496.424
31.04000 539.797
31.08000 607.549
31.12000 678.274
31.16000 875.373
31.20000 1113.161
31.24000 1477.963
31.28000 1892.038
31.32000 2343.722
31.36000 2750.314
31.40000 2997.387
31.44000 2928.352
31.48000 2717.626
31.52000 2400.438
31.56000 1878.418
31.60000 1427.788
31.64000 1080.636
31.68000 825.868
31.72000 662.917
31.76000 581.290
31.80000 501.385
31.84000 472.753
31.88000 446.440
31.92000 453.492
31.96000 427.411
32.00000 416.482
32.04000 417.567
32.08000 413.867
32.12000 400.111
32.16000 422.258
32.20000 415.307
32.24000 406.066
32.28000 395.286
32.32000 399.434
32.36000 395.819
32.40000 386.074
32.44000 385.891
32.48000 385.951
32.52000 369.025
32.56000 387.756
32.60000 383.800
32.64000 362.240
32.68000 384.944
32.72000 378.896
32.76000 380.876
32.80000 380.308
32.84000 366.290
32.88000 371.102
32.92000 368.816
32.96000 394.276
33.00000 386.828
33.04000 383.610
33.08000 386.689
33.12000 377.323
33.16000 377.331
33.20000 358.954
33.24000 334.974
33.28000 351.449
33.32000 352.304
33.36000 348.797
33.40000 355.149
33.44000 350.292
33.48000 342.368
33.52000 347.168
33.56000 361.884
33.60000 335.011
33.64000 341.899
33.68000 333.932
33.72000 342.615
33.76000 347.704
33.80000 335.105
33.84000 338.349
33.88000 350.793
33.92000 347.424
33.96000 334.459
34.00000 339.615
34.04000 356.580
34.08000 344.431
34.12000 348.960
34.16000 338.814
34.20000 345.267
34.24000 369.231
34.28000 368.945
34.32000 348.630
34.36000 343.573
34.40000 352.532
34.44000 360.155
34.48000 364.062
34.52000 371.279
34.56000 363.540
34.60000 360.596
34.64000 357.031
34.68000 332.911
34.72000 326.253
34.76000 343.968
34.80000 346.093
34.84000 336.075
34.88000 343.463
34.92000 309.706
34.96000 321.629
35.00000 327.037
35.04000 350.395
35.08000 320.299
35.12000 324.628
35.16000 316.518
35.20000 330.053
35.24000 325.636
35.28000 306.658
35.32000 311.142
35.36000 306.689
35.40000 307.267
35.44000 303.399
35.48000 314.276
35.52000 319.086
35.56000 313.034
35.60000 322.143
35.64000 324.032
35.68000 308.224
35.72000 300.573
35.76000 300.659
35.80000 290.515
35.84000 319.124
35.88000 311.621
35.92000 319.902
35.96000 293.022
36.00000 298.592
36.04000 311.714
36.08000 294.679
36.12000 295.268
36.16000 293.600
36.20000 306.702
36.24000 301.310
36.28000 307.914
36.32000 285.552
36.36000 306.940
36.40000 301.652
36.44000 309.418
36.48000 298.820
36.52000 291.403
36.56000 282.552
36.60000 308.486
36.64000 293.841
36.68000 297.407
36.72000 305.314
36.76000 313.973
36.80000 298.743
36.84000 307.336
36.88000 299.824
36.92000 290.294
36.96000 305.565
37.00000 301.318
37.04000 313.746
37.08000 294.313
37.12000 307.235
37.16000 298.868
37.20000 287.681
37.24000 302.209
37.28000 292.664
37.32000 296.737
37.36000 287.454
37.40000 285.068
37.44000 288.985
37.48000 278.960
37.52000 298.948
37.56000 307.473
37.60000 305.119
37.64000 303.472
37.68000 302.803
37.72000 283.742
37.76000 298.008
37.80000 295.888
37.84000 286.487
37.88000 288.430
37.92000 286.682
37.96000 284.842
38.00000 280.517
38.04000 284.254
38.08000 298.470
38.12000 296.450
38.16000 290.861
38.20000 303.267
38.24000 313.824
38.28000 320.452
38.32000 313.314
38.36000 334.501
38.40000 341.388
38.44000 357.361
38.48000 396.076
38.52000 457.497
38.56000 546.997
38.60000 659.475
38.64000 790.731
38.68000 896.649
38.72000 1010.128
38.76000 1046.731
38.80000 1042.968
38.84000 960.193
38.88000 851.116
38.92000 690.355
38.96000 580.031
39.00000 472.854
39.04000 399.341
39.08000 355.196
39.12000 338.282
39.16000 304.762
39.20000 305.195
39.24000 305.647
39.28000 293.454
39.32000 281.121
39.36000 283.784
39.40000 279.670
39.44000 279.046
39.48000 268.687
39.52000 272.833
39.56000 277.326
39.60000 271.434
39.64000 262.998
39.68000 274.220
39.72000 264.899
39.76000 265.025
39.80000 271.602
39.84000 276.791
39.88000 266.111
39.92000 264.881
39.96000 258.466
40.00000 267.423
40.04000 266.022
40.08000 254.771
40.12000 263.047
40.16000 267.460
40.20000 269.327
40.24000 257.416
40.28000 269.862
40.32000 258.856
40.36000 253.446
40.40000 261.822
40.44000 244.544
40.48000 257.781
40.52000 238.158
40.56000 248.440
40.60000 250.043
40.64000 248.928
40.68000 256.328
40.72000 258.930
40.76000 246.554
40.80000 237.123
40.84000 237.606
40.88000 249.264
40.92000 251.053
40.96000 256.509
41.00000 249.701
41.04000 242.517
41.08000 244.495
41.12000 246.472
41.16000 251.527
41.20000 250.743
41.24000 262.733
41.28000 254.734
41.32000 252.801
41.36000 232.526
41.40000 245.103
41.44000 249.815
41.48000 250.894
41.52000 238.116
41.56000 233.589
41.60000 230.946
41.64000 245.007
41.68000 243.694
41.72000 244.768
41.76000 236.838
41.80000 242.387
41.84000 233.863
41.88000 231.957
41.92000 248.412
41.96000 239.557
42.00000 245.611
42.04000 237.364
42.08000 238.638
42.12000 234.085
42.16000 241.557
42.20000 240.117
42.24000 234.828
42.28000 245.823
42.32000 239.209
42.36000 232.944
42.40000 234.643
42.44000 230.635
42.48000 232.132
42.52000 242.445
42.56000 240.679
42.60000 232.615
42.64000 230.637
42.68000 228.952
42.72000 230.184
42.76000 232.106
42.80000 230.849
42.84000 234.211
42.88000 244.217
42.92000 225.012
42.96000 238.978
43.00000 229.015
43.04000 228.035
43.08000 219.115
43.12000 218.029
43.16000 237.171
43.20000 218.733
43.24000 234.589
43.28000 240.345
43.32000 224.567
43.36000 227.106
43.40000 216.381
43.44000 217.136
43.48000 216.647
43.52000 227.213
43.56000 225.413
43.60000 226.001
43.64000 227.188
43.68000 242.156
43.72000 230.814
43.76000 224.497
43.80000 217.477
43.84000 223.962
43.88000 226.075
43.92000 217.226
43.96000 220.804
44.00000 210.422
44.04000 222.040
44.08000 234.795
44.12000 221.268
44.16000 216.760
44.20000 213.865
44.24000 214.816
44.28000 211.646
44.32000 218.654
44.36000 224.771
44.40000 223.126
44.44000 223.118
44.48000 227.843
44.52000 230.145
44.56000 236.477
44.60000 222.411
44.64000 232.538
44.68000 247.414
44.72000 243.105
44.76000 240.000
44.80000 235.775
44.84000 246.195
44.88000 264.594
44.92000 267.490
44.96000 281.314
45.00000 286.805
45.04000 306.661
45.08000 308.970
45.12000 319.664
45.16000 296.622
45.20000 304.922
45.24000 304.856
45.28000 280.123
45.32000 273.564
45.36000 276.232
45.40000 254.900
45.44000 233.288
45.48000 240.661
45.52000 237.303
45.56000 224.633
45.60000 230.655
45.64000 228.728
45.68000 219.279
45.72000 210.238
45.76000 217.910
45.80000 203.468
45.84000 211.540
45.88000 200.800
45.92000 216.640
45.96000 208.407
46.00000 194.377
46.04000 197.575
46.08000 202.766
46.12000 204.478
46.16000 205.296
46.20000 209.591
46.24000 206.198
46.28000 205.487
46.32000 208.621
46.36000 208.911
46.40000 203.563
46.44000 202.672
46.48000 214.483
46.52000 209.935
46.56000 208.231
46.60000 204.551
46.64000 207.184
46.68000 204.656
46.72000 183.483
46.76000 201.754
46.80000 207.757
46.84000 194.630
46.88000 206.626
46.92000 206.326
46.96000 206.240
47.00000 216.855
47.04000 198.323
47.08000 189.744
47.12000 181.760
47.16000 202.385
47.20000 188.515
47.24000 198.575
47.28000 199.579
47.32000 183.807
47.36000 182.727
47.40000 188.737
47.44000 188.498
47.48000 199.995
47.52000 193.336
47.56000 194.343
47.60000 185.751
47.64000 189.080
47.68000 187.869
47.72000 193.863
47.76000 189.094
47.80000 190.137
47.84000 181.669
47.88000 194.564
47.92000 189.623
47.96000 186.182
48.00000 183.670
48.04000 179.383
48.08000 182.045
48.12000 187.313
48.16000 179.902
48.20000 184.864
48.24000 190.203
48.28000 196.281
48.32000 180.366
48.36000 175.819
48.40000 193.600
48.44000 181.298
48.48000 174.718
48.52000 189.096
48.56000 175.539
48.60000 185.824
48.64000 188.508
48.68000 175.007
48.72000 180.981
48.76000 176.565
48.80000 176.432
48.84000 180.309
48.88000 179.122
48.92000 174.558
48.96000 173.718
49.00000 183.408
49.04000 177.851
49.08000 170.264
49.12000 174.404
49.16000 175.164
49.20000 178.620
49.24000 179.423
49.28000 191.479
49.32000 174.148
49.36000 178.921
49.40000 180.480
49.44000 178.208
49.48000 175.828
49.52000 175.911
49.56000 180.187
49.60000 167.138
49.64000 187.330
49.68000 182.848
49.72000 183.772
49.76000 182.576
49.80000 176.963
49.84000 169.311
49.88000 178.646
49.92000 161.846
49.96000 172.976
50.00000 182.364
50.04000 168.647
50.08000 177.143
50.12000 173.346
50.16000 174.465
50.20000 182.035
50.24000 189.233
50.28000 177.155
50.32000 176.807
50.36000 188.322
50.40000 185.533
50.44000 204.590
50.48000 191.666
50.52000 202.996
50.56000 218.797
50.60000 223.817
50.64000 235.704
50.68000 242.839
50.72000 232.319
50.76000 238.850
50.80000 243.679
50.84000 249.791
50.88000 228.793
50.92000 215.720
50.96000 197.205
51.00000 195.566
51.04000 201.418
51.08000 186.033
51.12000 183.082
51.16000 185.624
51.20000 175.100
51.24000 172.696
51.28000 179.952
51.32000 181.550
51.36000 165.237
51.40000 169.595
51.44000 161.990
51.48000 154.124
51.52000 166.208
51.56000 157.110
51.60000 163.944
51.64000 162.437
51.68000 153.053
51.72000 167.818
51.76000 168.200
51.80000 150.391
51.84000 168.579
51.88000 179.663
51.92000 156.959
51.96000 167.494
52.00000 159.547
52.04000 162.414
52.08000 161.918
52.12000 161.682
52.16000 161.408
52.20000 162.734
52.24000 161.686
52.28000 160.119
52.32000 160.114
52.36000 164.720
52.40000 169.929
52.44000 171.502
52.48000 165.367
52.52000 158.230
52.56000 154.925
52.60000 157.176
52.64000 160.957
52.68000 159.713
52.72000 154.395
52.76000 160.821
52.80000 164.412
52.84000 155.503
52.88000 157.670
52.92000 161.551
52.96000 163.914
53.00000 149.901
53.04000 161.749
53.08000 160.282
53.12000 171.535
53.16000 161.746
53.20000 167.796
53.24000 176.649
53.28000 156.108
53.32000 170.208
53.36000 164.530
53.40000 155.999
53.44000 161.715
53.48000 163.381
53.52000 159.099
53.56000 162.235
53.60000 162.855
53.64000 154.737
53.68000 158.107
53.72000 162.247
53.76000 163.393
53.80000 157.640
53.84000 162.482
53.88000 153.122
53.92000 157.653
53.96000 156.761
54.00000 150.407
54.04000 145.695
54.08000 152.699
54.12000 162.916
54.16000 152.210
54.20000 143.504
54.24000 143.591
54.28000 172.724
54.32000 165.700
54.36000 172.049
54.40000 167.819
54.44000 166.459
54.48000 162.225
54.52000 157.109
54.56000 158.590
54.60000 153.797
54.64000 160.195
54.68000 156.154
54.72000 155.440
54.76000 159.778
54.80000 144.821
54.84000 156.046
54.88000 162.664
54.92000 152.736
54.96000 152.455
55.00000 163.870
55.04000 163.561
55.08000 163.939
55.12000 159.342
55.16000 152.884
55.20000 167.910
55.24000 161.839
55.28000 166.166
55.32000 170.909
55.36000 162.509
55.40000 178.009
55.44000 182.493
55.48000 169.206
55.52000 202.558
55.56000 206.813
55.60000 202.160
55.64000 228.493
55.68000 255.351
55.72000 297.667
55.76000 349.854
55.80000 424.584
55.84000 470.532
55.88000 537.982
55.92000 593.459
55.96000 625.709
56.00000 634.490
56.04000 586.233
56.08000 565.964
56.12000 518.110
56.16000 449.906
56.20000 391.791
56.24000 321.914
56.28000 290.234
56.32000 258.422
56.36000 216.501
56.40000 195.758
56.44000 176.310
56.48000 173.371
56.52000 178.332
56.56000 169.008
56.60000 160.592
56.64000 168.237
56.68000 153.116
56.72000 152.163
56.76000 150.358
56.80000 158.084
56.84000 161.927
56.88000 155.676
56.92000 151.467
56.96000 147.685
57.00000 152.078
57.04000 151.502
57.08000 142.948
57.12000 137.677
57.16000 149.026
57.20000 148.553
57.24000 153.157
57.28000 138.335
57.32000 135.577
57.36000 158.619
57.40000 140.437
57.44000 144.504
57.48000 144.633
57.52000 137.713
57.56000 148.485
57.60000 139.378
57.64000 145.582
57.68000 128.470
57.72000 150.112
57.76000 138.432
57.80000 164.220
57.84000 147.180
57.88000 140.743
57.92000 140.761
57.96000 141.305
58.00000 139.333
58.04000 131.752
58.08000 129.877
58.12000 152.103
58.16000 143.238
58.20000 146.725
58.24000 141.712
58.28000 125.954
58.32000 140.883
58.36000 139.938
58.40000 136.440
58.44000 133.678
58.48000 128.532
58.52000 145.315
58.56000 136.412
58.60000 134.319
58.64000 139.131
58.68000 137.800
58.72000 132.372
58.76000 132.722
58.80000 135.626
58.84000 140.563
58.88000 137.070
58.92000 131.398
58.96000 135.425
59.00000 134.632
59.04000 132.101
59.08000 134.976
59.12000 135.273
59.16000 135.072
59.20000 129.415
59.24000 135.584
59.28000 137.585
59.32000 141.564
59.36000 141.946
59.40000 133.596
59.44000 129.042
59.48000 134.711
59.52000 119.965
59.56000 134.610
59.60000 128.142
59.64000 127.049
59.68000 137.655
59.72000 129.451
59.76000 124.012
59.80000 130.813
59.84000 127.648
59.88000 134.115
59.92000 142.968
59.96000 124.548
60.00000 133.998
60.04000 137.578
60.08000 133.048
60.12000 131.384
60.16000 134.377
60.20000 128.294
60.24000 130.403
60.28000 136.611
60.32000 134.834
60.36000 122.902
60.40000 133.084
60.44000 133.863
60.48000 140.578
60.52000 138.730
60.56000 121.891
60.60000 138.348
60.64000 134.985
60.68000 133.505
60.72000 134.209
60.76000 130.050
60.80000 132.165
60.84000 139.145
60.88000 141.859
60.92000 135.493
60.96000 138.776
61.00000 138.664
61.04000 131.122
61.08000 140.267
61.12000 142.967
61.16000 132.942
61.20000 138.248
61.24000 131.160
61.28000 139.258
61.32000 145.565
61.36000 135.783
61.40000 137.665
61.44000 139.821
61.48000 149.501
61.52000 147.715
61.56000 171.071
61.60000 203.283
61.64000 234.146
61.68000 239.314
61.72000 254.439
61.76000 244.177
61.80000 218.458
61.84000 190.399
61.88000 164.996
61.92000 150.732
61.96000 150.740
62.00000 150.098
62.04000 150.158
62.08000 150.366
62.12000 141.788
62.16000 147.883
62.20000 130.813
62.24000 137.332
62.28000 150.108
62.32000 140.757
62.36000 146.084
62.40000 146.148
62.44000 149.683
62.48000 139.528
62.52000 149.402
62.56000 125.265
62.60000 137.565
62.64000 140.899
62.68000 137.127
62.72000 142.242
62.76000 137.905
62.80000 137.267
62.84000 140.048
62.88000 140.249
62.92000 141.808
62.96000 141.209
63.00000 144.896
63.04000 144.857
63.08000 144.274
63.12000 139.941
63.16000 148.836
63.20000 144.601
63.24000 142.567
63.28000 142.426
63.32000 141.703
63.36000 146.402
63.40000 145.891
63.44000 137.649
63.48000 141.907
63.52000 150.859
63.56000 148.647
63.60000 141.482
63.64000 153.636
63.68000 148.637
63.72000 156.402
63.76000 146.420
63.80000 162.496
63.84000 139.963
63.88000 150.444
63.92000 158.939
63.96000 160.237
64.00000 161.370
64.04000 154.741
64.08000 153.432
64.12000 141.864
64.16000 150.642
64.20000 162.580
64.24000 149.237
64.28000 152.800
64.32000 160.470
64.36000 166.113
64.40000 159.456
64.44000 159.481
64.48000 160.103
64.52000 169.631
64.56000 161.720
64.60000 168.270
64.64000 161.533
64.68000 167.503
64.72000 158.768
64.76000 171.265
64.80000 170.174
64.84000 178.839
64.88000 178.367
64.92000 172.483
64.96000 179.047
65.00000 180.297
65.04000 189.691
65.08000 188.602
65.12000 193.979
65.16000 198.411
65.20000 201.251
65.24000 217.757
65.28000 219.720
65.32000 244.235
65.36000 265.775
65.40000 287.498
65.44000 295.913
65.48000 323.981
65.52000 359.110
65.56000 374.068
65.60000 378.046
65.64000 408.040
65.68000 417.719
65.72000 497.798
65.76000 610.429
65.80000 772.440
65.84000 875.578
65.88000 895.739
65.92000 873.108
65.96000 842.676
66.00000 661.546
66.04000 476.894
66.08000 347.767
66.12000 303.130
66.16000 278.920
66.20000 278.297
66.24000 290.448
66.28000 300.792
66.32000 331.018
66.36000 370.147
66.40000 384.634
66.44000 393.973
66.48000 367.948
66.52000 369.031
66.56000 353.332
66.60000 309.452
66.64000 288.383
66.68000 295.800
66.72000 288.383
66.76000 298.468
66.80000 307.894
66.84000 287.231
66.88000 306.650
66.92000 308.269
66.96000 312.344
67.00000 309.329
67.04000 307.489
67.08000 319.674
67.12000 330.956
67.16000 337.639
67.20000 338.004
67.24000 349.611
67.28000 341.861
67.32000 357.093
67.36000 358.826
67.40000 366.080
67.44000 366.052
67.48000 388.685
67.52000 390.580
67.56000 385.743
67.60000 376.371
67.64000 408.271
67.68000 419.525
67.72000 401.443
67.76000 414.786
67.80000 426.756
67.84000 459.560
67.88000 453.250
67.92000 481.047
67.96000 483.117
68.00000 474.984
68.04000 510.670
68.08000 509.391
68.12000 517.810
68.16000 536.698
68.20000 529.399
68.24000 552.491
68.28000 564.120
68.32000 560.581
68.36000 594.689
68.40000 642.484
68.44000 660.265
68.48000 643.119
68.52000 663.945
68.56000 779.524
68.60000 813.909
68.64000 924.931
68.68000 1084.868
68.72000 1241.390
68.76000 1424.748
68.80000 1545.921
68.84000 1745.283
68.88000 2015.978
68.92000 2826.166
68.96000 5682.781
69.00000 15930.440
69.04000 31569.422
69.08000 43177.047
69.12000 46491.711
69.16000 47661.680
69.20000 49256.367
69.24000 45455.613
69.28000 36392.902
69.32000 28089.322
69.36000 24369.514
69.40000 21762.396
69.44000 15351.925
69.48000 8167.370
69.52000 3581.619
69.56000 1883.582
69.60000 1385.601
69.64000 1207.628
69.68000 1036.993
69.72000 932.436
69.76000 855.867
69.80000 788.926
69.84000 774.675
69.88000 722.058
69.92000 696.391
69.96000 663.682
70.00000 638.391