File: XRD/30-09-2025 Dep 1/XY Data/BTO_Mapping_Theta2Theta_30-09-2025_001_06_9-135_4-067.xy
20.00000 574.631
20.04000 578.858
20.08000 569.849
20.12000 552.887
20.16000 569.507
20.20000 572.424
20.24000 585.369
20.28000 576.796
20.32000 569.263
20.36000 559.342
20.40000 549.503
20.44000 568.627
20.48000 557.190
20.52000 582.711
20.56000 559.067
20.60000 566.718
20.64000 535.639
20.68000 567.706
20.72000 573.843
20.76000 545.599
20.80000 548.843
20.84000 547.984
20.88000 553.802
20.92000 562.445
20.96000 550.836
21.00000 545.572
21.04000 575.081
21.08000 562.420
21.12000 578.706
21.16000 548.092
21.20000 561.918
21.24000 536.060
21.28000 544.153
21.32000 551.084
21.36000 561.100
21.40000 551.358
21.44000 551.560
21.48000 555.852
21.52000 539.339
21.56000 555.159
21.60000 554.366
21.64000 545.662
21.68000 552.412
21.72000 580.009
21.76000 600.107
21.80000 624.101
21.84000 629.452
21.88000 699.369
21.92000 711.345
21.96000 730.789
22.00000 798.361
22.04000 812.666
22.08000 804.349
22.12000 757.834
22.16000 712.879
22.20000 658.040
22.24000 633.362
22.28000 594.291
22.32000 577.480
22.36000 580.105
22.40000 544.692
22.44000 552.079
22.48000 536.013
22.52000 518.585
22.56000 524.390
22.60000 528.461
22.64000 548.192
22.68000 560.403
22.72000 532.839
22.76000 526.359
22.80000 557.323
22.84000 532.692
22.88000 522.474
22.92000 527.144
22.96000 522.341
23.00000 525.416
23.04000 512.536
23.08000 498.204
23.12000 524.206
23.16000 517.536
23.20000 499.847
23.24000 528.385
23.28000 525.049
23.32000 489.401
23.36000 489.827
23.40000 507.298
23.44000 510.618
23.48000 520.241
23.52000 534.160
23.56000 517.109
23.60000 511.173
23.64000 514.976
23.68000 532.734
23.72000 521.246
23.76000 512.133
23.80000 524.248
23.84000 505.422
23.88000 502.685
23.92000 530.930
23.96000 508.170
24.00000 519.324
24.04000 515.584
24.08000 536.099
24.12000 528.885
24.16000 529.746
24.20000 517.226
24.24000 507.366
24.28000 523.029
24.32000 491.950
24.36000 512.972
24.40000 498.103
24.44000 514.263
24.48000 510.409
24.52000 497.340
24.56000 480.319
24.60000 503.961
24.64000 487.306
24.68000 502.716
24.72000 483.016
24.76000 495.056
24.80000 487.553
24.84000 494.699
24.88000 483.320
24.92000 493.638
24.96000 488.944
25.00000 478.309
25.04000 470.469
25.08000 485.993
25.12000 502.037
25.16000 475.085
25.20000 479.167
25.24000 487.340
25.28000 488.555
25.32000 478.376
25.36000 482.094
25.40000 490.911
25.44000 471.011
25.48000 466.773
25.52000 475.815
25.56000 471.018
25.60000 463.668
25.64000 472.648
25.68000 473.720
25.72000 477.053
25.76000 472.637
25.80000 481.398
25.84000 486.362
25.88000 465.798
25.92000 460.004
25.96000 480.137
26.00000 482.315
26.04000 470.740
26.08000 472.703
26.12000 455.456
26.16000 456.463
26.20000 462.157
26.24000 452.400
26.28000 463.106
26.32000 485.059
26.36000 462.987
26.40000 470.203
26.44000 465.626
26.48000 462.611
26.52000 475.295
26.56000 453.441
26.60000 451.585
26.64000 464.724
26.68000 458.530
26.72000 438.288
26.76000 461.677
26.80000 442.018
26.84000 451.358
26.88000 435.067
26.92000 462.975
26.96000 452.758
27.00000 452.154
27.04000 461.943
27.08000 444.296
27.12000 451.951
27.16000 460.464
27.20000 442.383
27.24000 457.494
27.28000 451.296
27.32000 441.853
27.36000 452.351
27.40000 459.997
27.44000 440.675
27.48000 459.331
27.52000 444.568
27.56000 433.784
27.60000 454.697
27.64000 463.651
27.68000 452.160
27.72000 439.613
27.76000 424.542
27.80000 433.349
27.84000 447.906
27.88000 439.086
27.92000 428.728
27.96000 416.825
28.00000 463.029
28.04000 435.914
28.08000 452.488
28.12000 420.764
28.16000 439.602
28.20000 429.041
28.24000 429.078
28.28000 446.737
28.32000 445.604
28.36000 433.669
28.40000 448.190
28.44000 445.270
28.48000 438.103
28.52000 428.433
28.56000 420.895
28.60000 418.204
28.64000 432.853
28.68000 419.851
28.72000 429.772
28.76000 413.877
28.80000 423.312
28.84000 432.526
28.88000 432.225
28.92000 440.022
28.96000 411.039
29.00000 421.557
29.04000 418.313
29.08000 421.793
29.12000 412.766
29.16000 444.535
29.20000 421.199
29.24000 434.567
29.28000 415.833
29.32000 431.565
29.36000 419.106
29.40000 411.535
29.44000 427.420
29.48000 431.424
29.52000 422.808
29.56000 416.819
29.60000 403.427
29.64000 415.611
29.68000 409.692
29.72000 387.970
29.76000 426.224
29.80000 444.820
29.84000 417.101
29.88000 455.923
29.92000 435.044
29.96000 449.691
30.00000 460.638
30.04000 469.710
30.08000 457.433
30.12000 455.641
30.16000 441.067
30.20000 436.373
30.24000 443.694
30.28000 428.020
30.32000 419.970
30.36000 433.043
30.40000 415.215
30.44000 415.771
30.48000 445.247
30.52000 431.588
30.56000 453.338
30.60000 428.613
30.64000 434.752
30.68000 449.434
30.72000 454.483
30.76000 461.970
30.80000 461.580
30.84000 483.759
30.88000 481.272
30.92000 515.810
30.96000 530.236
31.00000 602.585
31.04000 680.745
31.08000 796.811
31.12000 1008.994
31.16000 1357.388
31.20000 1743.023
31.24000 2391.646
31.28000 2951.776
31.32000 3494.711
31.36000 3746.293
31.40000 3607.418
31.44000 3302.245
31.48000 2817.802
31.52000 2214.950
31.56000 1606.334
31.60000 1163.611
31.64000 866.248
31.68000 669.283
31.72000 589.368
31.76000 525.323
31.80000 475.723
31.84000 458.364
31.88000 453.064
31.92000 452.703
31.96000 437.356
32.00000 425.853
32.04000 406.514
32.08000 403.290
32.12000 418.571
32.16000 417.522
32.20000 418.605
32.24000 403.112
32.28000 388.998
32.32000 396.224
32.36000 396.362
32.40000 388.548
32.44000 393.871
32.48000 390.110
32.52000 398.019
32.56000 377.049
32.60000 381.604
32.64000 364.323
32.68000 370.005
32.72000 372.759
32.76000 368.807
32.80000 377.831
32.84000 374.064
32.88000 386.738
32.92000 418.789
32.96000 443.666
33.00000 447.769
33.04000 433.806
33.08000 423.583
33.12000 396.879
33.16000 392.434
33.20000 368.781
33.24000 357.379
33.28000 356.437
33.32000 360.572
33.36000 365.193
33.40000 352.163
33.44000 355.208
33.48000 357.717
33.52000 345.594
33.56000 344.211
33.60000 347.972
33.64000 347.667
33.68000 347.584
33.72000 333.296
33.76000 336.209
33.80000 339.639
33.84000 340.607
33.88000 329.725
33.92000 331.570
33.96000 339.013
34.00000 332.737
34.04000 342.031
34.08000 347.453
34.12000 343.332
34.16000 351.307
34.20000 339.098
34.24000 326.879
34.28000 340.854
34.32000 338.767
34.36000 340.321
34.40000 324.926
34.44000 326.067
34.48000 321.068
34.52000 327.509
34.56000 326.537
34.60000 335.360
34.64000 335.824
34.68000 349.020
34.72000 333.717
34.76000 322.788
34.80000 326.784
34.84000 324.829
34.88000 329.996
34.92000 323.122
34.96000 326.491
35.00000 327.423
35.04000 332.908
35.08000 328.603
35.12000 333.507
35.16000 314.432
35.20000 310.127
35.24000 321.333
35.28000 312.588
35.32000 308.705
35.36000 300.090
35.40000 306.212
35.44000 319.021
35.48000 317.468
35.52000 302.308
35.56000 323.879
35.60000 313.854
35.64000 314.586
35.68000 308.481
35.72000 309.580
35.76000 313.131
35.80000 303.421
35.84000 313.655
35.88000 308.080
35.92000 312.321
35.96000 303.390
36.00000 305.697
36.04000 316.134
36.08000 302.875
36.12000 310.350
36.16000 310.072
36.20000 303.876
36.24000 314.255
36.28000 301.544
36.32000 298.424
36.36000 288.560
36.40000 295.195
36.44000 308.002
36.48000 290.088
36.52000 294.554
36.56000 302.874
36.60000 306.391
36.64000 303.497
36.68000 296.824
36.72000 301.969
36.76000 281.944
36.80000 309.825
36.84000 288.753
36.88000 302.869
36.92000 297.187
36.96000 296.672
37.00000 310.924
37.04000 302.262
37.08000 304.500
37.12000 309.581
37.16000 307.774
37.20000 295.357
37.24000 303.040
37.28000 302.619
37.32000 300.206
37.36000 289.969
37.40000 292.252
37.44000 297.129
37.48000 292.755
37.52000 298.135
37.56000 294.527
37.60000 285.881
37.64000 294.267
37.68000 304.072
37.72000 309.200
37.76000 283.149
37.80000 292.457
37.84000 287.040
37.88000 302.947
37.92000 316.019
37.96000 282.818
38.00000 301.269
38.04000 287.838
38.08000 296.895
38.12000 297.854
38.16000 307.683
38.20000 297.899
38.24000 304.795
38.28000 315.560
38.32000 334.134
38.36000 329.232
38.40000 351.832
38.44000 380.258
38.48000 437.180
38.52000 496.500
38.56000 577.590
38.60000 684.872
38.64000 772.315
38.68000 830.537
38.72000 872.722
38.76000 837.437
38.80000 764.699
38.84000 681.301
38.88000 568.068
38.92000 487.388
38.96000 406.256
39.00000 352.160
39.04000 341.064
39.08000 315.375
39.12000 302.758
39.16000 290.735
39.20000 285.054
39.24000 288.718
39.28000 278.166
39.32000 284.174
39.36000 306.691
39.40000 281.639
39.44000 264.217
39.48000 267.355
39.52000 261.756
39.56000 269.126
39.60000 275.343
39.64000 279.191
39.68000 259.984
39.72000 273.491
39.76000 254.867
39.80000 270.402
39.84000 273.917
39.88000 262.033
39.92000 264.969
39.96000 262.655
40.00000 269.441
40.04000 268.271
40.08000 266.052
40.12000 265.452
40.16000 257.601
40.20000 269.831
40.24000 248.020
40.28000 262.702
40.32000 250.549
40.36000 256.527
40.40000 251.524
40.44000 258.104
40.48000 256.233
40.52000 254.933
40.56000 259.495
40.60000 244.933
40.64000 255.405
40.68000 259.361
40.72000 263.931
40.76000 247.251
40.80000 250.406
40.84000 249.898
40.88000 241.568
40.92000 250.282
40.96000 251.828
41.00000 241.841
41.04000 239.431
41.08000 247.836
41.12000 233.070
41.16000 257.697
41.20000 240.279
41.24000 266.813
41.28000 248.063
41.32000 237.557
41.36000 248.255
41.40000 249.933
41.44000 242.708
41.48000 243.715
41.52000 238.173
41.56000 238.880
41.60000 248.122
41.64000 261.382
41.68000 248.975
41.72000 239.827
41.76000 238.024
41.80000 234.293
41.84000 229.310
41.88000 239.479
41.92000 239.682
41.96000 231.277
42.00000 240.186
42.04000 231.716
42.08000 242.240
42.12000 245.157
42.16000 259.713
42.20000 233.848
42.24000 230.226
42.28000 239.237
42.32000 233.152
42.36000 230.823
42.40000 239.027
42.44000 227.628
42.48000 245.150
42.52000 230.995
42.56000 224.752
42.60000 235.643
42.64000 236.486
42.68000 235.474
42.72000 230.390
42.76000 232.989
42.80000 228.913
42.84000 223.349
42.88000 245.822
42.92000 234.054
42.96000 238.958
43.00000 234.046
43.04000 237.710
43.08000 232.804
43.12000 227.111
43.16000 228.803
43.20000 233.151
43.24000 234.093
43.28000 218.818
43.32000 230.806
43.36000 232.272
43.40000 234.051
43.44000 231.306
43.48000 211.880
43.52000 227.673
43.56000 232.360
43.60000 226.189
43.64000 227.428
43.68000 232.920
43.72000 229.487
43.76000 223.377
43.80000 210.817
43.84000 232.179
43.88000 229.713
43.92000 219.093
43.96000 205.789
44.00000 225.431
44.04000 226.142
44.08000 233.775
44.12000 234.137
44.16000 229.684
44.20000 225.824
44.24000 231.752
44.28000 215.978
44.32000 231.406
44.36000 232.007
44.40000 217.906
44.44000 221.319
44.48000 227.122
44.52000 230.906
44.56000 245.676
44.60000 224.851
44.64000 238.795
44.68000 251.066
44.72000 251.381
44.76000 267.770
44.80000 279.537
44.84000 306.168
44.88000 320.070
44.92000 349.607
44.96000 409.682
45.00000 424.935
45.04000 446.059
45.08000 449.045
45.12000 438.785
45.16000 425.259
45.20000 393.239
45.24000 353.202
45.28000 313.006
45.32000 290.462
45.36000 275.693
45.40000 259.684
45.44000 236.247
45.48000 245.604
45.52000 216.363
45.56000 225.823
45.60000 219.982
45.64000 225.027
45.68000 223.548
45.72000 212.860
45.76000 220.814
45.80000 225.839
45.84000 211.875
45.88000 227.809
45.92000 206.109
45.96000 202.468
46.00000 204.852
46.04000 203.274
46.08000 207.706
46.12000 219.495
46.16000 212.360
46.20000 209.610
46.24000 210.226
46.28000 215.070
46.32000 214.998
46.36000 210.364
46.40000 212.802
46.44000 205.596
46.48000 211.675
46.52000 210.633
46.56000 199.167
46.60000 192.764
46.64000 216.062
46.68000 219.778
46.72000 203.683
46.76000 197.039
46.80000 197.357
46.84000 189.108
46.88000 198.128
46.92000 200.520
46.96000 194.904
47.00000 197.688
47.04000 198.759
47.08000 195.350
47.12000 190.852
47.16000 190.824
47.20000 188.634
47.24000 184.327
47.28000 193.799
47.32000 199.526
47.36000 198.994
47.40000 196.062
47.44000 191.140
47.48000 191.401
47.52000 194.515
47.56000 199.252
47.60000 198.226
47.64000 177.608
47.68000 186.433
47.72000 187.880
47.76000 197.545
47.80000 196.530
47.84000 181.258
47.88000 189.313
47.92000 193.123
47.96000 181.400
48.00000 186.018
48.04000 179.476
48.08000 181.656
48.12000 190.568
48.16000 204.034
48.20000 184.967
48.24000 185.702
48.28000 195.040
48.32000 195.692
48.36000 189.701
48.40000 183.826
48.44000 201.433
48.48000 174.542
48.52000 182.990
48.56000 191.982
48.60000 189.091
48.64000 192.303
48.68000 185.771
48.72000 180.282
48.76000 188.103
48.80000 173.111
48.84000 169.587
48.88000 168.059
48.92000 174.693
48.96000 181.778
49.00000 193.727
49.04000 187.926
49.08000 174.205
49.12000 197.408
49.16000 190.004
49.20000 173.382
49.24000 179.249
49.28000 176.541
49.32000 187.778
49.36000 183.921
49.40000 188.110
49.44000 182.034
49.48000 182.595
49.52000 177.949
49.56000 175.990
49.60000 183.663
49.64000 184.671
49.68000 185.241
49.72000 174.156
49.76000 179.544
49.80000 179.539
49.84000 177.839
49.88000 175.490
49.92000 180.181
49.96000 172.057
50.00000 174.450
50.04000 171.580
50.08000 182.941
50.12000 164.233
50.16000 180.067
50.20000 178.021
50.24000 190.881
50.28000 181.830
50.32000 194.944
50.36000 194.891
50.40000 197.848
50.44000 218.376
50.48000 218.450
50.52000 221.489
50.56000 246.477
50.60000 263.284
50.64000 270.315
50.68000 276.420
50.72000 270.059
50.76000 267.752
50.80000 264.917
50.84000 255.229
50.88000 226.814
50.92000 223.445
50.96000 222.262
51.00000 198.377
51.04000 200.676
51.08000 176.728
51.12000 173.955
51.16000 190.785
51.20000 177.299
51.24000 172.723
51.28000 167.914
51.32000 161.645
51.36000 170.873
51.40000 153.738
51.44000 164.341
51.48000 150.252
51.52000 167.326
51.56000 170.502
51.60000 169.692
51.64000 161.741
51.68000 160.542
51.72000 162.137
51.76000 160.370
51.80000 163.832
51.84000 157.099
51.88000 161.296
51.92000 167.091
51.96000 170.767
52.00000 163.297
52.04000 170.670
52.08000 174.501
52.12000 160.828
52.16000 164.013
52.20000 149.638
52.24000 163.280
52.28000 148.529
52.32000 165.023
52.36000 159.499
52.40000 160.734
52.44000 160.243
52.48000 161.611
52.52000 171.456
52.56000 169.012
52.60000 154.550
52.64000 154.317
52.68000 169.202
52.72000 167.159
52.76000 164.559
52.80000 161.593
52.84000 151.679
52.88000 164.293
52.92000 156.328
52.96000 171.804
53.00000 159.601
53.04000 167.755
53.08000 159.790
53.12000 141.386
53.16000 163.699
53.20000 170.449
53.24000 162.874
53.28000 157.295
53.32000 158.802
53.36000 163.377
53.40000 158.972
53.44000 157.605
53.48000 165.541
53.52000 159.906
53.56000 149.351
53.60000 158.218
53.64000 162.095
53.68000 152.346
53.72000 155.016
53.76000 163.926
53.80000 159.554
53.84000 165.458
53.88000 171.080
53.92000 162.549
53.96000 160.244
54.00000 147.993
54.04000 161.729
54.08000 161.772
54.12000 155.243
54.16000 158.693
54.20000 155.788
54.24000 157.092
54.28000 153.380
54.32000 155.657
54.36000 172.238
54.40000 155.285
54.44000 160.889
54.48000 150.251
54.52000 163.020
54.56000 155.479
54.60000 151.806
54.64000 156.896
54.68000 162.423
54.72000 152.580
54.76000 159.317
54.80000 151.808
54.84000 152.920
54.88000 160.154
54.92000 159.696
54.96000 153.884
55.00000 171.052
55.04000 162.230
55.08000 156.784
55.12000 158.323
55.16000 161.705
55.20000 171.768
55.24000 164.922
55.28000 173.767
55.32000 180.316
55.36000 169.682
55.40000 170.569
55.44000 180.181
55.48000 185.395
55.52000 194.534
55.56000 220.885
55.60000 236.150
55.64000 258.737
55.68000 302.929
55.72000 382.795
55.76000 428.158
55.80000 506.443
55.84000 575.489
55.88000 640.601
55.92000 651.581
55.96000 651.663
56.00000 633.952
56.04000 582.622
56.08000 509.308
56.12000 452.276
56.16000 361.202
56.20000 321.891
56.24000 272.195
56.28000 247.756
56.32000 214.770
56.36000 186.275
56.40000 177.442
56.44000 179.706
56.48000 169.443
56.52000 155.740
56.56000 169.545
56.60000 168.996
56.64000 172.672
56.68000 162.086
56.72000 156.208
56.76000 164.518
56.80000 151.818
56.84000 146.381
56.88000 155.107
56.92000 148.661
56.96000 150.324
57.00000 138.993
57.04000 140.985
57.08000 155.129
57.12000 148.529
57.16000 147.013
57.20000 143.581
57.24000 156.535
57.28000 151.718
57.32000 144.734
57.36000 142.866
57.40000 143.196
57.44000 140.062
57.48000 144.134
57.52000 146.723
57.56000 148.722
57.60000 152.855
57.64000 146.378
57.68000 134.025
57.72000 147.308
57.76000 148.546
57.80000 142.711
57.84000 138.544
57.88000 136.379
57.92000 145.140
57.96000 144.374
58.00000 154.072
58.04000 138.976
58.08000 136.464
58.12000 137.749
58.16000 145.315
58.20000 135.008
58.24000 141.715
58.28000 140.513
58.32000 134.389
58.36000 143.532
58.40000 148.620
58.44000 131.801
58.48000 140.700
58.52000 129.947
58.56000 139.783
58.60000 135.656
58.64000 136.238
58.68000 142.768
58.72000 140.674
58.76000 135.928
58.80000 121.090
58.84000 139.588
58.88000 138.576
58.92000 140.441
58.96000 140.228
59.00000 124.913
59.04000 139.327
59.08000 134.051
59.12000 144.340
59.16000 141.913
59.20000 136.580
59.24000 133.718
59.28000 133.786
59.32000 134.367
59.36000 138.701
59.40000 134.902
59.44000 131.378
59.48000 127.409
59.52000 142.262
59.56000 130.476
59.60000 139.292
59.64000 141.032
59.68000 133.142
59.72000 140.845
59.76000 136.820
59.80000 134.107
59.84000 135.750
59.88000 130.209
59.92000 129.535
59.96000 133.174
60.00000 139.052
60.04000 130.782
60.08000 130.338
60.12000 132.372
60.16000 138.385
60.20000 136.522
60.24000 132.867
60.28000 130.314
60.32000 129.024
60.36000 128.988
60.40000 134.392
60.44000 136.495
60.48000 130.482
60.52000 123.188
60.56000 126.252
60.60000 124.853
60.64000 129.897
60.68000 131.241
60.72000 143.989
60.76000 133.040
60.80000 127.975
60.84000 130.763
60.88000 134.760
60.92000 140.476
60.96000 134.856
61.00000 137.207
61.04000 139.156
61.08000 131.996
61.12000 140.660
61.16000 135.133
61.20000 131.889
61.24000 133.804
61.28000 139.842
61.32000 132.729
61.36000 135.902
61.40000 144.905
61.44000 146.219
61.48000 158.963
61.52000 167.247
61.56000 208.848
61.60000 255.371
61.64000 291.174
61.68000 311.974
61.72000 312.582
61.76000 298.869
61.80000 237.926
61.84000 178.507
61.88000 163.779
61.92000 157.152
61.96000 141.484
62.00000 141.337
62.04000 154.408
62.08000 147.362
62.12000 138.749
62.16000 138.162
62.20000 136.871
62.24000 139.245
62.28000 139.967
62.32000 138.006
62.36000 139.802
62.40000 141.662
62.44000 143.761
62.48000 142.221
62.52000 143.597
62.56000 144.950
62.60000 144.745
62.64000 142.412
62.68000 142.572
62.72000 145.985
62.76000 141.917
62.80000 136.283
62.84000 138.705
62.88000 146.306
62.92000 150.734
62.96000 142.140
63.00000 150.879
63.04000 143.861
63.08000 140.315
63.12000 151.891
63.16000 148.351
63.20000 161.142
63.24000 153.252
63.28000 153.798
63.32000 149.367
63.36000 145.323
63.40000 136.335
63.44000 141.139
63.48000 146.355
63.52000 155.783
63.56000 160.077
63.60000 144.993
63.64000 149.973
63.68000 152.293
63.72000 158.979
63.76000 163.266
63.80000 147.361
63.84000 164.795
63.88000 162.734
63.92000 149.933
63.96000 147.331
64.00000 155.879
64.04000 166.744
64.08000 165.414
64.12000 172.291
64.16000 164.016
64.20000 164.831
64.24000 160.215
64.28000 160.301
64.32000 166.145
64.36000 163.157
64.40000 164.409
64.44000 172.031
64.48000 171.332
64.52000 169.947
64.56000 172.217
64.60000 176.022
64.64000 172.253
64.68000 168.666
64.72000 170.027
64.76000 172.103
64.80000 183.179
64.84000 178.085
64.88000 175.414
64.92000 188.525
64.96000 205.253
65.00000 203.838
65.04000 200.721
65.08000 209.795
65.12000 219.529
65.16000 227.388
65.20000 232.084
65.24000 248.637
65.28000 275.434
65.32000 294.415
65.36000 320.689
65.40000 337.159
65.44000 389.132
65.48000 416.683
65.52000 437.713
65.56000 429.014
65.60000 472.232
65.64000 501.387
65.68000 546.315
65.72000 680.256
65.76000 933.032
65.80000 1139.720
65.84000 1250.010
65.88000 1271.166
65.92000 1213.115
65.96000 1020.216
66.00000 720.487
66.04000 469.329
66.08000 355.607
66.12000 336.964
66.16000 322.587
66.20000 315.049
66.24000 330.434
66.28000 362.543
66.32000 397.993
66.36000 443.903
66.40000 474.273
66.44000 483.030
66.48000 473.342
66.52000 455.654
66.56000 380.849
66.60000 334.243
66.64000 314.007
66.68000 332.346
66.72000 327.600
66.76000 318.591
66.80000 342.611
66.84000 364.230
66.88000 337.657
66.92000 339.217
66.96000 339.391
67.00000 361.708
67.04000 359.339
67.08000 365.008
67.12000 384.781
67.16000 391.822
67.20000 388.486
67.24000 403.094
67.28000 395.412
67.32000 405.118
67.36000 426.936
67.40000 415.583
67.44000 443.413
67.48000 443.371
67.52000 456.518
67.56000 456.849
67.60000 456.286
67.64000 468.961
67.68000 484.464
67.72000 489.903
67.76000 499.749
67.80000 503.275
67.84000 510.674
67.88000 508.112
67.92000 554.861
67.96000 554.225
68.00000 579.955
68.04000 560.556
68.08000 576.217
68.12000 619.264
68.16000 656.394
68.20000 641.419
68.24000 626.580
68.28000 664.432
68.32000 668.422
68.36000 728.639
68.40000 750.597
68.44000 762.535
68.48000 803.213
68.52000 866.270
68.56000 926.177
68.60000 1058.802
68.64000 1276.378
68.68000 1502.806
68.72000 1750.469
68.76000 1967.169
68.80000 2237.194
68.84000 2579.347
68.88000 3118.017
68.92000 6010.983
68.96000 15383.353
69.00000 36627.461
69.04000 58503.352
69.08000 69263.438
69.12000 70854.977
69.16000 73746.977
69.20000 73356.680
69.24000 60999.184
69.28000 46506.297
69.32000 38443.875
69.36000 34793.824
69.40000 28407.684
69.44000 16802.502
69.48000 7595.939
69.52000 3328.773
69.56000 2107.667
69.60000 1641.035
69.64000 1383.624
69.68000 1191.754
69.72000 1093.551
69.76000 992.951
69.80000 951.469
69.84000 878.785
69.88000 833.908
69.92000 782.960
69.96000 778.996
70.00000 731.888