File: XRD/30-09-2025 Dep 1/XY Data/BTO_Mapping_Theta2Theta_30-09-2025_001_43_-10-000_-17-321.xy
20.00000 565.073
20.04000 573.443
20.08000 575.131
20.12000 588.153
20.16000 559.066
20.20000 581.824
20.24000 562.011
20.28000 560.263
20.32000 539.591
20.36000 562.849
20.40000 569.027
20.44000 563.426
20.48000 563.359
20.52000 558.485
20.56000 574.627
20.60000 580.650
20.64000 553.765
20.68000 559.466
20.72000 574.212
20.76000 555.661
20.80000 558.169
20.84000 581.718
20.88000 550.612
20.92000 552.692
20.96000 556.384
21.00000 550.779
21.04000 561.914
21.08000 558.478
21.12000 550.659
21.16000 558.181
21.20000 583.501
21.24000 549.808
21.28000 554.621
21.32000 561.406
21.36000 548.315
21.40000 560.272
21.44000 548.747
21.48000 559.722
21.52000 575.433
21.56000 564.859
21.60000 549.662
21.64000 553.348
21.68000 587.045
21.72000 608.412
21.76000 608.310
21.80000 661.358
21.84000 687.628
21.88000 717.025
21.92000 799.768
21.96000 875.767
22.00000 893.065
22.04000 915.437
22.08000 855.877
22.12000 839.356
22.16000 761.772
22.20000 726.442
22.24000 656.096
22.28000 628.373
22.32000 591.447
22.36000 568.023
22.40000 580.319
22.44000 569.881
22.48000 543.149
22.52000 548.101
22.56000 551.534
22.60000 550.999
22.64000 519.846
22.68000 541.571
22.72000 537.053
22.76000 548.492
22.80000 519.882
22.84000 523.769
22.88000 520.490
22.92000 528.227
22.96000 514.999
23.00000 526.752
23.04000 515.962
23.08000 510.163
23.12000 507.405
23.16000 527.610
23.20000 506.395
23.24000 508.534
23.28000 520.781
23.32000 517.750
23.36000 517.900
23.40000 513.044
23.44000 513.020
23.48000 521.027
23.52000 488.603
23.56000 509.375
23.60000 514.048
23.64000 523.950
23.68000 510.722
23.72000 498.066
23.76000 507.251
23.80000 514.194
23.84000 518.196
23.88000 509.548
23.92000 514.295
23.96000 490.845
24.00000 508.762
24.04000 518.605
24.08000 502.331
24.12000 494.748
24.16000 508.231
24.20000 488.990
24.24000 491.987
24.28000 500.683
24.32000 509.711
24.36000 505.843
24.40000 506.738
24.44000 501.501
24.48000 502.111
24.52000 493.384
24.56000 496.065
24.60000 472.981
24.64000 502.866
24.68000 495.619
24.72000 496.732
24.76000 491.993
24.80000 503.522
24.84000 504.510
24.88000 496.422
24.92000 506.193
24.96000 493.842
25.00000 474.555
25.04000 477.327
25.08000 482.832
25.12000 499.175
25.16000 479.445
25.20000 481.947
25.24000 476.248
25.28000 473.959
25.32000 488.494
25.36000 495.849
25.40000 474.950
25.44000 470.831
25.48000 479.208
25.52000 481.693
25.56000 469.989
25.60000 496.642
25.64000 472.622
25.68000 477.221
25.72000 469.146
25.76000 481.671
25.80000 487.086
25.84000 454.232
25.88000 463.447
25.92000 480.366
25.96000 476.768
26.00000 487.079
26.04000 474.760
26.08000 456.304
26.12000 446.698
26.16000 473.274
26.20000 477.225
26.24000 477.781
26.28000 464.822
26.32000 469.357
26.36000 475.571
26.40000 472.880
26.44000 460.577
26.48000 467.875
26.52000 452.421
26.56000 458.028
26.60000 476.496
26.64000 462.412
26.68000 453.825
26.72000 464.667
26.76000 450.366
26.80000 455.791
26.84000 459.072
26.88000 460.288
26.92000 433.389
26.96000 466.927
27.00000 451.110
27.04000 458.447
27.08000 463.682
27.12000 453.826
27.16000 471.031
27.20000 463.132
27.24000 456.555
27.28000 438.370
27.32000 449.749
27.36000 454.399
27.40000 459.621
27.44000 440.274
27.48000 438.838
27.52000 455.812
27.56000 433.938
27.60000 453.207
27.64000 433.185
27.68000 467.153
27.72000 433.094
27.76000 433.576
27.80000 450.054
27.84000 422.711
27.88000 456.881
27.92000 448.972
27.96000 438.527
28.00000 439.685
28.04000 454.046
28.08000 434.037
28.12000 443.400
28.16000 438.964
28.20000 448.918
28.24000 460.752
28.28000 438.137
28.32000 436.182
28.36000 439.713
28.40000 437.844
28.44000 438.407
28.48000 423.651
28.52000 429.068
28.56000 432.496
28.60000 435.088
28.64000 433.244
28.68000 426.787
28.72000 422.994
28.76000 433.137
28.80000 423.906
28.84000 427.552
28.88000 448.903
28.92000 419.917
28.96000 441.852
29.00000 425.097
29.04000 438.017
29.08000 429.417
29.12000 417.885
29.16000 426.203
29.20000 420.823
29.24000 417.598
29.28000 415.574
29.32000 415.694
29.36000 419.440
29.40000 416.002
29.44000 415.872
29.48000 429.668
29.52000 424.139
29.56000 419.393
29.60000 419.995
29.64000 415.842
29.68000 415.558
29.72000 435.069
29.76000 410.542
29.80000 441.431
29.84000 445.081
29.88000 453.749
29.92000 460.958
29.96000 469.564
30.00000 471.558
30.04000 451.210
30.08000 452.856
30.12000 451.474
30.16000 469.796
30.20000 440.132
30.24000 441.481
30.28000 448.498
30.32000 454.933
30.36000 465.047
30.40000 423.058
30.44000 447.783
30.48000 460.757
30.52000 462.219
30.56000 457.906
30.60000 449.421
30.64000 452.949
30.68000 467.175
30.72000 433.569
30.76000 460.070
30.80000 480.661
30.84000 487.810
30.88000 517.308
30.92000 556.776
30.96000 565.526
31.00000 617.321
31.04000 717.964
31.08000 880.918
31.12000 1140.627
31.16000 1529.940
31.20000 2090.122
31.24000 2703.847
31.28000 3317.636
31.32000 3829.368
31.36000 4017.689
31.40000 3929.189
31.44000 3550.359
31.48000 2878.608
31.52000 2204.450
31.56000 1603.625
31.60000 1148.651
31.64000 862.672
31.68000 686.613
31.72000 598.092
31.76000 530.294
31.80000 517.530
31.84000 480.283
31.88000 444.262
31.92000 437.442
31.96000 443.974
32.00000 433.699
32.04000 437.779
32.08000 438.381
32.12000 420.260
32.16000 407.049
32.20000 421.457
32.24000 453.358
32.28000 425.610
32.32000 401.501
32.36000 393.725
32.40000 387.641
32.44000 405.139
32.48000 401.135
32.52000 398.229
32.56000 381.804
32.60000 399.774
32.64000 374.314
32.68000 386.680
32.72000 369.953
32.76000 392.498
32.80000 400.253
32.84000 374.123
32.88000 419.004
32.92000 443.443
32.96000 470.525
33.00000 478.970
33.04000 473.376
33.08000 461.033
33.12000 434.006
33.16000 410.208
33.20000 394.148
33.24000 370.582
33.28000 344.732
33.32000 349.245
33.36000 354.844
33.40000 353.733
33.44000 345.485
33.48000 359.939
33.52000 360.324
33.56000 355.455
33.60000 345.361
33.64000 346.561
33.68000 362.436
33.72000 353.658
33.76000 349.098
33.80000 342.548
33.84000 345.574
33.88000 342.631
33.92000 334.110
33.96000 346.705
34.00000 345.518
34.04000 338.739
34.08000 338.338
34.12000 328.768
34.16000 348.521
34.20000 345.386
34.24000 340.132
34.28000 352.550
34.32000 326.801
34.36000 322.667
34.40000 349.075
34.44000 337.073
34.48000 342.178
34.52000 334.534
34.56000 334.706
34.60000 327.185
34.64000 331.606
34.68000 329.828
34.72000 338.291
34.76000 324.211
34.80000 332.401
34.84000 322.064
34.88000 322.336
34.92000 317.817
34.96000 340.152
35.00000 323.343
35.04000 324.751
35.08000 323.522
35.12000 308.472
35.16000 324.471
35.20000 310.886
35.24000 313.326
35.28000 313.204
35.32000 321.533
35.36000 316.755
35.40000 298.341
35.44000 325.244
35.48000 317.279
35.52000 319.352
35.56000 328.508
35.60000 327.866
35.64000 291.273
35.68000 303.715
35.72000 298.156
35.76000 308.822
35.80000 310.078
35.84000 317.411
35.88000 312.920
35.92000 315.848
35.96000 301.426
36.00000 299.541
36.04000 307.075
36.08000 312.328
36.12000 300.547
36.16000 305.225
36.20000 313.437
36.24000 322.448
36.28000 294.722
36.32000 301.467
36.36000 304.916
36.40000 299.069
36.44000 313.591
36.48000 305.495
36.52000 319.129
36.56000 312.847
36.60000 303.460
36.64000 303.833
36.68000 288.539
36.72000 299.928
36.76000 327.888
36.80000 308.197
36.84000 298.922
36.88000 318.285
36.92000 308.045
36.96000 314.936
37.00000 305.507
37.04000 317.132
37.08000 301.099
37.12000 304.787
37.16000 318.315
37.20000 296.804
37.24000 300.419
37.28000 300.564
37.32000 310.631
37.36000 304.069
37.40000 305.706
37.44000 296.717
37.48000 294.591
37.52000 286.828
37.56000 292.191
37.60000 304.608
37.64000 303.466
37.68000 309.073
37.72000 294.724
37.76000 302.544
37.80000 288.304
37.84000 296.224
37.88000 298.315
37.92000 298.600
37.96000 305.741
38.00000 303.699
38.04000 299.822
38.08000 292.203
38.12000 310.516
38.16000 318.387
38.20000 313.382
38.24000 329.463
38.28000 323.816
38.32000 321.683
38.36000 348.392
38.40000 371.321
38.44000 379.718
38.48000 405.419
38.52000 453.727
38.56000 520.075
38.60000 572.714
38.64000 671.814
38.68000 677.742
38.72000 664.556
38.76000 654.415
38.80000 591.956
38.84000 537.779
38.88000 459.718
38.92000 376.123
38.96000 354.120
39.00000 333.125
39.04000 322.451
39.08000 300.143
39.12000 293.419
39.16000 291.222
39.20000 283.925
39.24000 289.401
39.28000 284.946
39.32000 270.426
39.36000 294.569
39.40000 278.709
39.44000 275.941
39.48000 271.029
39.52000 263.317
39.56000 276.799
39.60000 269.806
39.64000 270.366
39.68000 266.225
39.72000 259.989
39.76000 264.314
39.80000 272.602
39.84000 265.877
39.88000 261.685
39.92000 273.351
39.96000 281.218
40.00000 268.016
40.04000 269.733
40.08000 267.872
40.12000 261.928
40.16000 261.060
40.20000 250.947
40.24000 257.791
40.28000 263.682
40.32000 268.090
40.36000 261.413
40.40000 259.851
40.44000 259.523
40.48000 263.308
40.52000 252.968
40.56000 252.207
40.60000 246.302
40.64000 270.644
40.68000 266.197
40.72000 262.790
40.76000 254.211
40.80000 249.286
40.84000 254.094
40.88000 250.459
40.92000 261.394
40.96000 258.066
41.00000 255.255
41.04000 239.740
41.08000 237.890
41.12000 253.549
41.16000 252.748
41.20000 246.453
41.24000 237.445
41.28000 246.995
41.32000 270.136
41.36000 246.635
41.40000 240.268
41.44000 246.856
41.48000 251.794
41.52000 239.752
41.56000 240.773
41.60000 256.710
41.64000 249.781
41.68000 248.672
41.72000 250.243
41.76000 268.338
41.80000 234.388
41.84000 232.544
41.88000 246.112
41.92000 243.329
41.96000 250.151
42.00000 246.754
42.04000 249.277
42.08000 252.973
42.12000 243.941
42.16000 218.991
42.20000 231.933
42.24000 238.168
42.28000 236.972
42.32000 236.421
42.36000 225.296
42.40000 240.708
42.44000 247.077
42.48000 238.379
42.52000 236.838
42.56000 236.533
42.60000 211.350
42.64000 234.569
42.68000 236.351
42.72000 241.049
42.76000 231.941
42.80000 226.797
42.84000 242.983
42.88000 221.694
42.92000 237.760
42.96000 246.083
43.00000 240.673
43.04000 239.377
43.08000 238.190
43.12000 227.807
43.16000 242.012
43.20000 222.635
43.24000 231.111
43.28000 228.844
43.32000 233.028
43.36000 246.007
43.40000 227.547
43.44000 234.027
43.48000 245.124
43.52000 227.549
43.56000 218.097
43.60000 227.658
43.64000 235.968
43.68000 230.550
43.72000 224.984
43.76000 223.383
43.80000 242.123
43.84000 231.053
43.88000 232.503
43.92000 223.145
43.96000 231.440
44.00000 229.708
44.04000 227.780
44.08000 227.584
44.12000 226.674
44.16000 239.076
44.20000 247.448
44.24000 231.788
44.28000 223.806
44.32000 232.165
44.36000 231.479
44.40000 234.792
44.44000 234.676
44.48000 227.247
44.52000 233.375
44.56000 250.805
44.60000 240.680
44.64000 254.080
44.68000 261.762
44.72000 266.415
44.76000 301.742
44.80000 341.210
44.84000 394.348
44.88000 436.024
44.92000 470.617
44.96000 508.730
45.00000 560.379
45.04000 543.272
45.08000 535.452
45.12000 506.105
45.16000 455.783
45.20000 410.120
45.24000 376.146
45.28000 339.094
45.32000 304.500
45.36000 286.159
45.40000 263.182
45.44000 254.135
45.48000 247.932
45.52000 238.596
45.56000 240.182
45.60000 234.733
45.64000 231.105
45.68000 221.335
45.72000 222.461
45.76000 223.072
45.80000 224.859
45.84000 229.273
45.88000 221.871
45.92000 220.835
45.96000 201.881
46.00000 206.106
46.04000 221.661
46.08000 216.830
46.12000 207.668
46.16000 213.039
46.20000 209.355
46.24000 209.572
46.28000 211.333
46.32000 213.555
46.36000 197.772
46.40000 212.576
46.44000 216.980
46.48000 221.628
46.52000 211.826
46.56000 204.621
46.60000 207.934
46.64000 201.934
46.68000 216.014
46.72000 180.486
46.76000 202.676
46.80000 197.517
46.84000 206.431
46.88000 197.707
46.92000 203.840
46.96000 196.261
47.00000 195.722
47.04000 196.011
47.08000 194.097
47.12000 202.038
47.16000 195.793
47.20000 187.135
47.24000 189.374
47.28000 185.572
47.32000 190.389
47.36000 190.570
47.40000 198.921
47.44000 195.598
47.48000 194.563
47.52000 195.960
47.56000 199.768
47.60000 203.153
47.64000 194.256
47.68000 204.672
47.72000 183.907
47.76000 181.404
47.80000 181.884
47.84000 186.614
47.88000 192.631
47.92000 181.035
47.96000 186.883
48.00000 187.885
48.04000 189.987
48.08000 185.078
48.12000 185.771
48.16000 189.249
48.20000 190.740
48.24000 196.964
48.28000 190.311
48.32000 201.878
48.36000 192.384
48.40000 174.466
48.44000 190.501
48.48000 188.676
48.52000 181.880
48.56000 175.888
48.60000 187.496
48.64000 186.585
48.68000 198.566
48.72000 183.012
48.76000 173.917
48.80000 175.318
48.84000 188.641
48.88000 201.267
48.92000 182.282
48.96000 184.491
49.00000 198.697
49.04000 188.712
49.08000 188.068
49.12000 175.098
49.16000 180.121
49.20000 180.822
49.24000 172.969
49.28000 182.922
49.32000 177.011
49.36000 182.339
49.40000 165.827
49.44000 180.283
49.48000 192.799
49.52000 175.966
49.56000 180.437
49.60000 186.205
49.64000 176.177
49.68000 181.777
49.72000 191.442
49.76000 182.889
49.80000 177.095
49.84000 183.013
49.88000 178.051
49.92000 172.765
49.96000 188.165
50.00000 182.236
50.04000 188.384
50.08000 183.804
50.12000 179.467
50.16000 183.279
50.20000 186.403
50.24000 183.595
50.28000 185.821
50.32000 195.480
50.36000 198.327
50.40000 215.170
50.44000 215.629
50.48000 235.937
50.52000 257.616
50.56000 283.068
50.60000 283.844
50.64000 286.009
50.68000 307.119
50.72000 295.733
50.76000 287.466
50.80000 269.244
50.84000 256.004
50.88000 240.550
50.92000 225.365
50.96000 216.947
51.00000 194.136
51.04000 195.538
51.08000 195.409
51.12000 181.195
51.16000 174.050
51.20000 174.576
51.24000 177.020
51.28000 175.364
51.32000 175.145
51.36000 185.617
51.40000 174.357
51.44000 186.129
51.48000 182.159
51.52000 173.773
51.56000 173.909
51.60000 169.030
51.64000 169.128
51.68000 177.530
51.72000 161.495
51.76000 166.811
51.80000 168.719
51.84000 176.766
51.88000 170.995
51.92000 162.780
51.96000 166.306
52.00000 166.762
52.04000 168.707
52.08000 172.745
52.12000 168.838
52.16000 170.046
52.20000 171.423
52.24000 160.977
52.28000 171.184
52.32000 152.171
52.36000 163.461
52.40000 157.572
52.44000 162.110
52.48000 161.111
52.52000 148.664
52.56000 165.169
52.60000 168.212
52.64000 161.931
52.68000 156.877
52.72000 149.519
52.76000 166.280
52.80000 162.318
52.84000 161.931
52.88000 154.167
52.92000 162.403
52.96000 163.123
53.00000 181.129
53.04000 168.637
53.08000 163.136
53.12000 165.939
53.16000 170.906
53.20000 168.383
53.24000 172.429
53.28000 162.231
53.32000 154.227
53.36000 161.486
53.40000 172.659
53.44000 171.725
53.48000 165.831
53.52000 166.879
53.56000 171.136
53.60000 155.006
53.64000 154.714
53.68000 152.758
53.72000 163.878
53.76000 173.353
53.80000 165.379
53.84000 154.069
53.88000 165.842
53.92000 150.713
53.96000 167.719
54.00000 158.881
54.04000 141.456
54.08000 152.180
54.12000 154.405
54.16000 151.194
54.20000 160.037
54.24000 160.068
54.28000 153.391
54.32000 158.014
54.36000 151.266
54.40000 161.917
54.44000 157.363
54.48000 162.524
54.52000 152.810
54.56000 158.673
54.60000 158.901
54.64000 165.379
54.68000 152.590
54.72000 163.593
54.76000 155.974
54.80000 169.229
54.84000 160.860
54.88000 164.741
54.92000 161.816
54.96000 167.356
55.00000 170.969
55.04000 155.939
55.08000 148.228
55.12000 161.490
55.16000 161.816
55.20000 180.584
55.24000 166.947
55.28000 169.475
55.32000 174.149
55.36000 165.366
55.40000 187.291
55.44000 180.978
55.48000 206.855
55.52000 218.025
55.56000 238.856
55.60000 268.932
55.64000 311.347
55.68000 353.351
55.72000 424.493
55.76000 503.158
55.80000 565.534
55.84000 625.431
55.88000 648.449
55.92000 645.278
55.96000 631.007
56.00000 576.078
56.04000 519.586
56.08000 455.579
56.12000 380.650
56.16000 322.555
56.20000 278.264
56.24000 250.993
56.28000 213.030
56.32000 203.294
56.36000 191.147
56.40000 181.724
56.44000 176.549
56.48000 170.148
56.52000 157.133
56.56000 168.247
56.60000 155.939
56.64000 153.349
56.68000 160.769
56.72000 153.736
56.76000 143.317
56.80000 142.990
56.84000 160.623
56.88000 146.224
56.92000 149.717
56.96000 141.877
57.00000 146.975
57.04000 160.886
57.08000 151.436
57.12000 148.513
57.16000 145.669
57.20000 143.574
57.24000 147.685
57.28000 146.155
57.32000 142.909
57.36000 157.242
57.40000 155.674
57.44000 152.781
57.48000 139.584
57.52000 143.574
57.56000 137.872
57.60000 149.999
57.64000 154.445
57.68000 156.867
57.72000 142.984
57.76000 145.189
57.80000 150.204
57.84000 131.299
57.88000 146.686
57.92000 136.186
57.96000 143.471
58.00000 144.042
58.04000 143.514
58.08000 145.935
58.12000 140.499
58.16000 145.184
58.20000 137.078
58.24000 142.885
58.28000 147.062
58.32000 137.268
58.36000 146.577
58.40000 130.584
58.44000 140.493
58.48000 132.393
58.52000 143.049
58.56000 147.173
58.60000 134.780
58.64000 146.340
58.68000 135.291
58.72000 132.397
58.76000 132.659
58.80000 147.314
58.84000 141.191
58.88000 139.242
58.92000 131.516
58.96000 137.619
59.00000 142.197
59.04000 143.325
59.08000 138.960
59.12000 131.921
59.16000 143.333
59.20000 140.972
59.24000 136.456
59.28000 126.841
59.32000 125.870
59.36000 142.191
59.40000 127.836
59.44000 130.982
59.48000 127.117
59.52000 141.093
59.56000 128.583
59.60000 127.647
59.64000 143.270
59.68000 135.107
59.72000 126.693
59.76000 126.942
59.80000 130.210
59.84000 136.176
59.88000 135.322
59.92000 136.329
59.96000 145.815
60.00000 134.048
60.04000 135.141
60.08000 122.037
60.12000 129.259
60.16000 141.618
60.20000 139.105
60.24000 142.930
60.28000 132.370
60.32000 138.475
60.36000 137.862
60.40000 129.731
60.44000 137.593
60.48000 148.093
60.52000 144.145
60.56000 141.866
60.60000 122.363
60.64000 131.037
60.68000 127.822
60.72000 143.496
60.76000 138.453
60.80000 130.538
60.84000 130.044
60.88000 135.163
60.92000 130.594
60.96000 125.812
61.00000 126.813
61.04000 136.562
61.08000 149.294
61.12000 139.186
61.16000 143.736
61.20000 140.096
61.24000 141.536
61.28000 136.649
61.32000 144.619
61.36000 133.307
61.40000 146.275
61.44000 136.047
61.48000 142.063
61.52000 157.747
61.56000 224.559
61.60000 275.202
61.64000 291.510
61.68000 332.844
61.72000 329.669
61.76000 315.811
61.80000 260.935
61.84000 204.594
61.88000 155.290
61.92000 157.063
61.96000 143.142
62.00000 146.573
62.04000 146.829
62.08000 149.362
62.12000 157.032
62.16000 144.602
62.20000 145.318
62.24000 143.906
62.28000 146.482
62.32000 138.468
62.36000 141.224
62.40000 151.273
62.44000 144.958
62.48000 147.783
62.52000 138.146
62.56000 150.306
62.60000 140.500
62.64000 150.511
62.68000 148.580
62.72000 155.531
62.76000 145.717
62.80000 149.244
62.84000 147.455
62.88000 140.687
62.92000 143.959
62.96000 145.990
63.00000 151.259
63.04000 150.089
63.08000 150.002
63.12000 156.866
63.16000 153.924
63.20000 148.579
63.24000 155.832
63.28000 153.962
63.32000 140.947
63.36000 138.240
63.40000 154.206
63.44000 143.315
63.48000 156.793
63.52000 155.028
63.56000 151.329
63.60000 146.852
63.64000 156.133
63.68000 151.808
63.72000 154.381
63.76000 148.824
63.80000 144.094
63.84000 152.385
63.88000 141.439
63.92000 157.359
63.96000 155.567
64.00000 167.359
64.04000 160.941
64.08000 159.302
64.12000 166.928
64.16000 169.196
64.20000 151.343
64.24000 166.766
64.28000 168.207
64.32000 156.711
64.36000 152.024
64.40000 181.539
64.44000 168.915
64.48000 169.994
64.52000 176.712
64.56000 172.518
64.60000 169.393
64.64000 174.930
64.68000 171.480
64.72000 181.255
64.76000 182.532
64.80000 170.396
64.84000 179.561
64.88000 193.244
64.92000 205.210
64.96000 199.759
65.00000 195.365
65.04000 202.388
65.08000 214.435
65.12000 209.143
65.16000 237.939
65.20000 251.047
65.24000 276.469
65.28000 299.770
65.32000 326.797
65.36000 360.200
65.40000 396.065
65.44000 403.192
65.48000 446.328
65.52000 474.628
65.56000 466.319
65.60000 478.634
65.64000 481.924
65.68000 545.891
65.72000 687.789
65.76000 940.896
65.80000 1202.331
65.84000 1331.508
65.88000 1379.041
65.92000 1321.125
65.96000 1155.259
66.00000 812.644
66.04000 557.809
66.08000 425.739
66.12000 358.679
66.16000 318.605
66.20000 330.324
66.24000 332.330
66.28000 370.298
66.32000 437.362
66.36000 477.952
66.40000 513.475
66.44000 529.111
66.48000 526.257
66.52000 466.153
66.56000 411.396
66.60000 367.464
66.64000 331.923
66.68000 335.241
66.72000 343.605
66.76000 334.524
66.80000 348.096
66.84000 345.969
66.88000 348.985
66.92000 350.962
66.96000 360.862
67.00000 365.629
67.04000 383.952
67.08000 377.401
67.12000 375.365
67.16000 397.687
67.20000 417.254
67.24000 417.076
67.28000 409.074
67.32000 403.528
67.36000 423.913
67.40000 415.999
67.44000 435.724
67.48000 468.591
67.52000 471.231
67.56000 479.658
67.60000 483.285
67.64000 487.492
67.68000 486.746
67.72000 511.073
67.76000 520.923
67.80000 524.580
67.84000 531.463
67.88000 545.934
67.92000 548.211
67.96000 578.570
68.00000 583.058
68.04000 592.285
68.08000 631.429
68.12000 639.254
68.16000 642.173
68.20000 672.836
68.24000 657.012
68.28000 692.302
68.32000 718.268
68.36000 736.527
68.40000 758.683
68.44000 771.305
68.48000 850.677
68.52000 924.202
68.56000 998.714
68.60000 1101.290
68.64000 1289.592
68.68000 1563.126
68.72000 1838.660
68.76000 2079.104
68.80000 2369.502
68.84000 2769.683
68.88000 3386.032
68.92000 6245.314
68.96000 14907.951
69.00000 36094.207
69.04000 60728.590
69.08000 75919.883
69.12000 79265.961
69.16000 81931.109
69.20000 82113.109
69.24000 71248.961
69.28000 55861.738
69.32000 45015.480
69.36000 39729.406
69.40000 33215.578
69.44000 21529.631
69.48000 10589.691
69.52000 4557.555
69.56000 2532.307
69.60000 1888.327
69.64000 1559.753
69.68000 1319.670
69.72000 1213.880
69.76000 1105.167
69.80000 989.562
69.84000 934.045
69.88000 853.464
69.92000 859.210
69.96000 813.503
70.00000 794.557