File: XRD/30-09-2025 Dep 1/XY Data/BTO_Mapping_Theta2Theta_30-09-2025_001_41_-32-361_-23-511.xy
20.00000 574.953
20.04000 575.497
20.08000 568.310
20.12000 568.150
20.16000 554.231
20.20000 570.125
20.24000 565.686
20.28000 548.133
20.32000 561.843
20.36000 563.603
20.40000 577.327
20.44000 567.212
20.48000 549.177
20.52000 566.397
20.56000 570.623
20.60000 557.714
20.64000 570.512
20.68000 578.880
20.72000 568.899
20.76000 547.542
20.80000 540.863
20.84000 552.588
20.88000 540.203
20.92000 563.863
20.96000 554.154
21.00000 548.611
21.04000 551.923
21.08000 567.910
21.12000 567.809
21.16000 565.039
21.20000 558.029
21.24000 541.331
21.28000 520.378
21.32000 531.444
21.36000 553.036
21.40000 562.753
21.44000 565.183
21.48000 548.096
21.52000 559.960
21.56000 549.241
21.60000 556.265
21.64000 573.812
21.68000 570.155
21.72000 569.308
21.76000 585.503
21.80000 589.888
21.84000 618.612
21.88000 632.351
21.92000 685.404
21.96000 736.095
22.00000 751.330
22.04000 803.070
22.08000 816.172
22.12000 795.934
22.16000 768.883
22.20000 739.615
22.24000 670.343
22.28000 661.742
22.32000 602.765
22.36000 583.427
22.40000 568.133
22.44000 552.123
22.48000 549.983
22.52000 547.342
22.56000 559.012
22.60000 540.120
22.64000 531.189
22.68000 526.764
22.72000 539.157
22.76000 541.303
22.80000 541.856
22.84000 528.814
22.88000 510.614
22.92000 507.236
22.96000 501.555
23.00000 524.245
23.04000 527.040
23.08000 523.254
23.12000 526.657
23.16000 516.869
23.20000 527.034
23.24000 521.013
23.28000 512.022
23.32000 526.250
23.36000 507.746
23.40000 498.236
23.44000 525.601
23.48000 506.161
23.52000 496.404
23.56000 502.308
23.60000 502.305
23.64000 537.009
23.68000 508.298
23.72000 505.427
23.76000 509.130
23.80000 498.472
23.84000 521.343
23.88000 497.740
23.92000 493.735
23.96000 492.724
24.00000 506.680
24.04000 508.420
24.08000 501.249
24.12000 499.535
24.16000 507.537
24.20000 505.818
24.24000 502.303
24.28000 489.424
24.32000 488.886
24.36000 487.357
24.40000 501.056
24.44000 493.663
24.48000 477.610
24.52000 498.272
24.56000 504.821
24.60000 496.353
24.64000 486.478
24.68000 481.061
24.72000 472.550
24.76000 497.147
24.80000 487.250
24.84000 479.902
24.88000 468.224
24.92000 481.692
24.96000 496.226
25.00000 485.097
25.04000 475.102
25.08000 484.810
25.12000 470.732
25.16000 487.998
25.20000 496.063
25.24000 480.201
25.28000 487.614
25.32000 468.253
25.36000 488.139
25.40000 458.799
25.44000 475.267
25.48000 483.366
25.52000 476.999
25.56000 490.437
25.60000 476.330
25.64000 465.716
25.68000 461.528
25.72000 462.012
25.76000 463.605
25.80000 477.108
25.84000 462.556
25.88000 479.673
25.92000 481.015
25.96000 473.327
26.00000 452.053
26.04000 483.300
26.08000 472.020
26.12000 481.863
26.16000 460.619
26.20000 450.967
26.24000 458.229
26.28000 455.442
26.32000 463.022
26.36000 449.044
26.40000 471.123
26.44000 463.796
26.48000 464.112
26.52000 471.870
26.56000 448.154
26.60000 437.637
26.64000 443.177
26.68000 454.896
26.72000 475.190
26.76000 444.467
26.80000 449.552
26.84000 465.882
26.88000 464.888
26.92000 461.439
26.96000 452.034
27.00000 449.566
27.04000 447.873
27.08000 445.059
27.12000 447.082
27.16000 459.270
27.20000 438.361
27.24000 425.032
27.28000 451.996
27.32000 451.602
27.36000 442.035
27.40000 453.050
27.44000 444.560
27.48000 447.087
27.52000 455.535
27.56000 432.321
27.60000 440.109
27.64000 432.384
27.68000 438.565
27.72000 445.649
27.76000 442.002
27.80000 452.982
27.84000 445.949
27.88000 416.529
27.92000 420.303
27.96000 433.970
28.00000 459.996
28.04000 435.753
28.08000 422.833
28.12000 434.480
28.16000 437.721
28.20000 446.447
28.24000 437.261
28.28000 447.267
28.32000 445.921
28.36000 435.004
28.40000 431.708
28.44000 449.349
28.48000 426.722
28.52000 434.282
28.56000 428.988
28.60000 413.958
28.64000 432.619
28.68000 411.094
28.72000 413.316
28.76000 431.118
28.80000 452.946
28.84000 415.216
28.88000 420.264
28.92000 403.487
28.96000 426.152
29.00000 421.989
29.04000 423.505
29.08000 431.866
29.12000 416.651
29.16000 415.585
29.20000 419.600
29.24000 433.821
29.28000 428.566
29.32000 441.739
29.36000 409.750
29.40000 413.083
29.44000 423.047
29.48000 417.514
29.52000 411.155
29.56000 421.856
29.60000 429.912
29.64000 422.333
29.68000 427.888
29.72000 414.345
29.76000 416.626
29.80000 439.408
29.84000 401.764
29.88000 431.946
29.92000 419.787
29.96000 465.896
30.00000 452.221
30.04000 464.618
30.08000 466.281
30.12000 443.334
30.16000 470.524
30.20000 442.332
30.24000 439.792
30.28000 433.107
30.32000 426.724
30.36000 432.473
30.40000 426.181
30.44000 430.442
30.48000 446.819
30.52000 433.311
30.56000 435.615
30.60000 450.989
30.64000 457.379
30.68000 449.826
30.72000 455.892
30.76000 465.736
30.80000 447.855
30.84000 485.328
30.88000 505.614
30.92000 488.914
30.96000 506.566
31.00000 564.083
31.04000 627.499
31.08000 708.505
31.12000 879.844
31.16000 1119.286
31.20000 1517.800
31.24000 2052.088
31.28000 2731.924
31.32000 3353.554
31.36000 3925.077
31.40000 4209.450
31.44000 4214.778
31.48000 3784.790
31.52000 3183.948
31.56000 2422.594
31.60000 1788.208
31.64000 1289.495
31.68000 925.021
31.72000 696.049
31.76000 596.499
31.80000 510.246
31.84000 489.201
31.88000 459.371
31.92000 484.027
31.96000 451.572
32.00000 446.543
32.04000 422.469
32.08000 423.258
32.12000 421.282
32.16000 408.962
32.20000 395.935
32.24000 411.380
32.28000 414.101
32.32000 425.001
32.36000 403.543
32.40000 384.074
32.44000 390.116
32.48000 389.214
32.52000 406.140
32.56000 384.772
32.60000 373.834
32.64000 389.448
32.68000 390.730
32.72000 376.209
32.76000 357.963
32.80000 392.796
32.84000 389.845
32.88000 402.992
32.92000 397.450
32.96000 434.289
33.00000 467.523
33.04000 481.656
33.08000 473.859
33.12000 432.903
33.16000 424.042
33.20000 401.688
33.24000 356.763
33.28000 357.323
33.32000 341.746
33.36000 349.915
33.40000 348.578
33.44000 365.611
33.48000 353.515
33.52000 351.491
33.56000 343.236
33.60000 332.543
33.64000 348.878
33.68000 351.361
33.72000 338.967
33.76000 341.098
33.80000 325.997
33.84000 348.279
33.88000 348.790
33.92000 338.298
33.96000 356.524
34.00000 351.137
34.04000 335.908
34.08000 343.231
34.12000 338.936
34.16000 353.801
34.20000 340.262
34.24000 320.826
34.28000 327.445
34.32000 336.475
34.36000 338.446
34.40000 337.739
34.44000 333.989
34.48000 331.762
34.52000 340.675
34.56000 340.269
34.60000 308.586
34.64000 330.645
34.68000 332.223
34.72000 343.275
34.76000 333.151
34.80000 325.390
34.84000 318.248
34.88000 318.163
34.92000 344.788
34.96000 323.347
35.00000 340.652
35.04000 325.879
35.08000 326.289
35.12000 334.317
35.16000 315.155
35.20000 314.512
35.24000 309.376
35.28000 301.502
35.32000 299.023
35.36000 316.513
35.40000 324.301
35.44000 328.730
35.48000 315.149
35.52000 296.010
35.56000 311.775
35.60000 318.114
35.64000 317.857
35.68000 302.451
35.72000 307.033
35.76000 323.530
35.80000 317.689
35.84000 310.715
35.88000 317.239
35.92000 309.465
35.96000 300.586
36.00000 303.037
36.04000 306.491
36.08000 296.862
36.12000 315.813
36.16000 298.636
36.20000 308.402
36.24000 307.453
36.28000 295.907
36.32000 307.287
36.36000 297.437
36.40000 299.231
36.44000 281.098
36.48000 291.271
36.52000 298.516
36.56000 316.354
36.60000 297.131
36.64000 297.072
36.68000 282.191
36.72000 305.938
36.76000 288.456
36.80000 306.478
36.84000 299.749
36.88000 300.124
36.92000 328.351
36.96000 320.111
37.00000 311.717
37.04000 306.279
37.08000 314.921
37.12000 308.036
37.16000 315.506
37.20000 308.792
37.24000 298.321
37.28000 306.813
37.32000 318.783
37.36000 283.746
37.40000 297.477
37.44000 289.950
37.48000 308.944
37.52000 302.828
37.56000 291.239
37.60000 304.317
37.64000 295.659
37.68000 294.938
37.72000 283.890
37.76000 300.717
37.80000 282.339
37.84000 303.408
37.88000 301.780
37.92000 291.698
37.96000 304.733
38.00000 300.770
38.04000 294.892
38.08000 307.176
38.12000 284.421
38.16000 298.414
38.20000 298.916
38.24000 303.286
38.28000 303.582
38.32000 304.811
38.36000 325.238
38.40000 320.246
38.44000 356.042
38.48000 366.634
38.52000 418.580
38.56000 469.442
38.60000 536.406
38.64000 611.012
38.68000 692.742
38.72000 759.179
38.76000 787.404
38.80000 753.042
38.84000 723.355
38.88000 608.187
38.92000 538.832
38.96000 448.116
39.00000 375.760
39.04000 351.116
39.08000 333.644
39.12000 316.577
39.16000 283.352
39.20000 295.759
39.24000 293.469
39.28000 290.828
39.32000 279.946
39.36000 274.824
39.40000 279.121
39.44000 269.332
39.48000 274.943
39.52000 273.608
39.56000 271.993
39.60000 274.055
39.64000 276.182
39.68000 278.468
39.72000 272.455
39.76000 265.916
39.80000 263.485
39.84000 273.335
39.88000 281.201
39.92000 264.560
39.96000 267.870
40.00000 273.942
40.04000 267.087
40.08000 261.434
40.12000 260.459
40.16000 261.549
40.20000 256.239
40.24000 245.139
40.28000 258.248
40.32000 256.464
40.36000 251.148
40.40000 256.733
40.44000 260.116
40.48000 244.293
40.52000 252.676
40.56000 256.052
40.60000 256.454
40.64000 259.371
40.68000 252.559
40.72000 250.449
40.76000 259.478
40.80000 253.950
40.84000 259.310
40.88000 252.539
40.92000 246.640
40.96000 245.296
41.00000 251.972
41.04000 249.985
41.08000 239.424
41.12000 243.703
41.16000 250.401
41.20000 263.011
41.24000 243.902
41.28000 245.707
41.32000 247.354
41.36000 249.415
41.40000 251.329
41.44000 264.703
41.48000 243.133
41.52000 252.651
41.56000 245.115
41.60000 250.087
41.64000 241.167
41.68000 230.007
41.72000 237.864
41.76000 230.366
41.80000 235.738
41.84000 245.371
41.88000 244.963
41.92000 254.816
41.96000 232.699
42.00000 233.944
42.04000 232.264
42.08000 234.578
42.12000 238.648
42.16000 232.162
42.20000 236.045
42.24000 240.864
42.28000 238.184
42.32000 229.996
42.36000 236.801
42.40000 233.537
42.44000 230.997
42.48000 230.480
42.52000 235.124
42.56000 230.991
42.60000 232.281
42.64000 229.796
42.68000 250.362
42.72000 231.191
42.76000 232.078
42.80000 217.066
42.84000 236.626
42.88000 232.581
42.92000 228.363
42.96000 219.269
43.00000 238.573
43.04000 231.863
43.08000 221.746
43.12000 230.518
43.16000 237.921
43.20000 218.952
43.24000 231.167
43.28000 237.097
43.32000 225.979
43.36000 239.268
43.40000 236.610
43.44000 226.286
43.48000 237.065
43.52000 218.844
43.56000 219.565
43.60000 227.046
43.64000 223.178
43.68000 222.907
43.72000 213.565
43.76000 220.111
43.80000 225.740
43.84000 215.927
43.88000 228.281
43.92000 230.331
43.96000 219.621
44.00000 227.247
44.04000 221.184
44.08000 225.389
44.12000 215.345
44.16000 223.531
44.20000 232.308
44.24000 225.098
44.28000 233.602
44.32000 215.616
44.36000 228.287
44.40000 208.710
44.44000 225.048
44.48000 228.894
44.52000 221.655
44.56000 227.460
44.60000 223.703
44.64000 240.882
44.68000 247.732
44.72000 243.569
44.76000 251.719
44.80000 275.543
44.84000 273.085
44.88000 314.789
44.92000 355.732
44.96000 400.770
45.00000 403.919
45.04000 428.412
45.08000 444.868
45.12000 453.841
45.16000 448.141
45.20000 417.635
45.24000 384.426
45.28000 356.917
45.32000 334.870
45.36000 306.873
45.40000 273.348
45.44000 261.311
45.48000 272.654
45.52000 242.639
45.56000 227.910
45.60000 230.123
45.64000 237.363
45.68000 218.391
45.72000 216.604
45.76000 216.919
45.80000 211.906
45.84000 214.770
45.88000 216.619
45.92000 217.193
45.96000 215.105
46.00000 212.172
46.04000 200.140
46.08000 212.247
46.12000 201.549
46.16000 207.992
46.20000 199.445
46.24000 213.469
46.28000 205.985
46.32000 215.499
46.36000 209.580
46.40000 208.516
46.44000 203.956
46.48000 211.701
46.52000 208.560
46.56000 200.308
46.60000 196.342
46.64000 202.246
46.68000 206.602
46.72000 191.413
46.76000 203.272
46.80000 197.674
46.84000 208.505
46.88000 203.890
46.92000 210.665
46.96000 195.413
47.00000 194.567
47.04000 197.676
47.08000 205.707
47.12000 196.717
47.16000 194.860
47.20000 183.223
47.24000 181.120
47.28000 191.710
47.32000 187.522
47.36000 187.443
47.40000 178.787
47.44000 190.158
47.48000 186.432
47.52000 197.676
47.56000 189.783
47.60000 192.157
47.64000 171.276
47.68000 192.323
47.72000 181.923
47.76000 188.178
47.80000 177.515
47.84000 186.046
47.88000 191.741
47.92000 191.992
47.96000 195.565
48.00000 184.165
48.04000 199.112
48.08000 188.135
48.12000 203.602
48.16000 184.085
48.20000 186.543
48.24000 186.724
48.28000 185.666
48.32000 191.234
48.36000 195.313
48.40000 185.013
48.44000 184.170
48.48000 194.604
48.52000 195.195
48.56000 177.926
48.60000 181.932
48.64000 181.886
48.68000 193.510
48.72000 185.124
48.76000 189.767
48.80000 188.136
48.84000 187.809
48.88000 177.220
48.92000 190.442
48.96000 179.624
49.00000 189.769
49.04000 180.102
49.08000 188.162
49.12000 170.031
49.16000 173.790
49.20000 184.412
49.24000 175.439
49.28000 175.117
49.32000 175.751
49.36000 172.010
49.40000 171.237
49.44000 189.091
49.48000 173.818
49.52000 181.708
49.56000 180.411
49.60000 182.995
49.64000 196.143
49.68000 176.975
49.72000 181.534
49.76000 179.767
49.80000 181.802
49.84000 181.761
49.88000 172.461
49.92000 177.323
49.96000 177.177
50.00000 182.830
50.04000 172.583
50.08000 172.505
50.12000 186.011
50.16000 188.908
50.20000 186.446
50.24000 179.462
50.28000 186.236
50.32000 185.272
50.36000 189.801
50.40000 196.477
50.44000 202.294
50.48000 210.441
50.52000 224.038
50.56000 234.470
50.60000 248.433
50.64000 254.305
50.68000 283.868
50.72000 279.762
50.76000 284.223
50.80000 275.787
50.84000 270.702
50.88000 259.251
50.92000 243.397
50.96000 221.970
51.00000 209.480
51.04000 194.912
51.08000 188.456
51.12000 178.550
51.16000 176.579
51.20000 177.844
51.24000 183.619
51.28000 161.630
51.32000 165.484
51.36000 169.692
51.40000 166.066
51.44000 167.798
51.48000 160.382
51.52000 166.281
51.56000 180.461
51.60000 166.346
51.64000 150.972
51.68000 159.158
51.72000 170.423
51.76000 171.401
51.80000 178.405
51.84000 174.461
51.88000 173.603
51.92000 162.043
51.96000 171.040
52.00000 178.308
52.04000 169.531
52.08000 157.719
52.12000 168.490
52.16000 167.693
52.20000 146.617
52.24000 156.448
52.28000 166.111
52.32000 163.215
52.36000 169.414
52.40000 154.331
52.44000 157.054
52.48000 161.074
52.52000 169.232
52.56000 166.685
52.60000 156.225
52.64000 169.341
52.68000 160.666
52.72000 174.452
52.76000 155.126
52.80000 154.975
52.84000 160.036
52.88000 159.497
52.92000 155.609
52.96000 161.006
53.00000 161.747
53.04000 176.030
53.08000 157.904
53.12000 152.667
53.16000 176.143
53.20000 161.415
53.24000 162.291
53.28000 167.736
53.32000 168.910
53.36000 168.224
53.40000 160.391
53.44000 165.474
53.48000 170.350
53.52000 165.203
53.56000 162.094
53.60000 165.393
53.64000 158.054
53.68000 157.840
53.72000 156.991
53.76000 158.344
53.80000 160.598
53.84000 155.493
53.88000 156.070
53.92000 160.234
53.96000 148.283
54.00000 156.297
54.04000 141.641
54.08000 142.859
54.12000 159.612
54.16000 164.542
54.20000 161.864
54.24000 154.109
54.28000 155.001
54.32000 155.999
54.36000 154.983
54.40000 144.461
54.44000 150.151
54.48000 162.110
54.52000 163.224
54.56000 152.447
54.60000 155.467
54.64000 160.845
54.68000 159.799
54.72000 152.088
54.76000 157.361
54.80000 154.054
54.84000 150.990
54.88000 154.185
54.92000 153.433
54.96000 157.362
55.00000 159.953
55.04000 160.495
55.08000 160.381
55.12000 156.443
55.16000 158.828
55.20000 166.309
55.24000 167.476
55.28000 168.857
55.32000 164.407
55.36000 173.258
55.40000 169.402
55.44000 170.878
55.48000 189.858
55.52000 190.197
55.56000 212.017
55.60000 210.003
55.64000 237.663
55.68000 257.847
55.72000 321.345
55.76000 372.598
55.80000 433.373
55.84000 515.082
55.88000 598.874
55.92000 629.069
55.96000 647.142
56.00000 657.872
56.04000 634.147
56.08000 574.574
56.12000 484.790
56.16000 445.648
56.20000 375.617
56.24000 349.906
56.28000 275.410
56.32000 249.380
56.36000 203.916
56.40000 181.653
56.44000 196.047
56.48000 175.802
56.52000 174.543
56.56000 167.691
56.60000 159.349
56.64000 149.618
56.68000 158.301
56.72000 158.079
56.76000 157.401
56.80000 144.756
56.84000 140.821
56.88000 152.536
56.92000 148.001
56.96000 145.138
57.00000 157.128
57.04000 141.964
57.08000 141.471
57.12000 153.905
57.16000 158.849
57.20000 147.667
57.24000 151.327
57.28000 139.821
57.32000 145.826
57.36000 150.241
57.40000 150.801
57.44000 144.687
57.48000 150.041
57.52000 147.026
57.56000 146.214
57.60000 157.354
57.64000 157.346
57.68000 137.684
57.72000 141.330
57.76000 137.456
57.80000 140.100
57.84000 150.966
57.88000 134.473
57.92000 140.170
57.96000 141.970
58.00000 142.653
58.04000 143.474
58.08000 129.917
58.12000 146.229
58.16000 145.568
58.20000 144.675
58.24000 137.600
58.28000 138.700
58.32000 143.906
58.36000 138.282
58.40000 142.221
58.44000 145.936
58.48000 137.259
58.52000 143.295
58.56000 133.495
58.60000 132.208
58.64000 129.063
58.68000 141.463
58.72000 134.006
58.76000 128.824
58.80000 136.481
58.84000 135.476
58.88000 144.504
58.92000 135.153
58.96000 134.139
59.00000 138.630
59.04000 143.917
59.08000 134.107
59.12000 134.168
59.16000 136.887
59.20000 135.313
59.24000 135.603
59.28000 138.145
59.32000 137.234
59.36000 136.216
59.40000 138.461
59.44000 142.315
59.48000 129.079
59.52000 141.045
59.56000 140.983
59.60000 137.481
59.64000 144.571
59.68000 126.363
59.72000 136.216
59.76000 131.222
59.80000 124.084
59.84000 132.899
59.88000 128.835
59.92000 136.547
59.96000 132.240
60.00000 139.659
60.04000 135.712
60.08000 119.151
60.12000 136.238
60.16000 129.858
60.20000 143.517
60.24000 135.246
60.28000 145.401
60.32000 136.159
60.36000 131.659
60.40000 133.954
60.44000 135.976
60.48000 130.631
60.52000 130.351
60.56000 140.920
60.60000 131.594
60.64000 131.083
60.68000 125.074
60.72000 145.191
60.76000 131.548
60.80000 130.167
60.84000 130.644
60.88000 129.287
60.92000 137.382
60.96000 132.424
61.00000 129.949
61.04000 140.623
61.08000 135.475
61.12000 150.207
61.16000 139.669
61.20000 140.495
61.24000 137.611
61.28000 147.005
61.32000 148.266
61.36000 146.227
61.40000 154.967
61.44000 139.123
61.48000 145.998
61.52000 158.124
61.56000 195.994
61.60000 250.803
61.64000 298.862
61.68000 303.454
61.72000 338.862
61.76000 322.397
61.80000 286.320
61.84000 224.715
61.88000 179.308
61.92000 161.973
61.96000 152.104
62.00000 141.793
62.04000 145.276
62.08000 144.855
62.12000 149.707
62.16000 141.573
62.20000 145.207
62.24000 145.135
62.28000 148.659
62.32000 145.068
62.36000 141.610
62.40000 136.230
62.44000 137.583
62.48000 144.785
62.52000 139.118
62.56000 145.675
62.60000 139.994
62.64000 148.061
62.68000 143.354
62.72000 150.641
62.76000 136.388
62.80000 151.163
62.84000 153.671
62.88000 144.043
62.92000 144.281
62.96000 159.422
63.00000 154.966
63.04000 149.153
63.08000 153.734
63.12000 141.703
63.16000 139.523
63.20000 144.197
63.24000 149.640
63.28000 158.386
63.32000 155.421
63.36000 148.614
63.40000 148.708
63.44000 146.880
63.48000 153.423
63.52000 151.215
63.56000 155.014
63.60000 149.531
63.64000 162.393
63.68000 149.319
63.72000 161.614
63.76000 149.516
63.80000 157.391
63.84000 156.699
63.88000 149.887
63.92000 159.002
63.96000 157.717
64.00000 157.881
64.04000 152.673
64.08000 148.566
64.12000 160.867
64.16000 160.941
64.20000 157.247
64.24000 152.740
64.28000 154.249
64.32000 159.391
64.36000 173.515
64.40000 165.385
64.44000 170.657
64.48000 162.002
64.52000 159.689
64.56000 160.923
64.60000 182.262
64.64000 172.724
64.68000 180.678
64.72000 168.019
64.76000 177.753
64.80000 183.812
64.84000 179.856
64.88000 190.257
64.92000 177.893
64.96000 181.000
65.00000 208.236
65.04000 197.100
65.08000 203.703
65.12000 207.454
65.16000 213.209
65.20000 244.577
65.24000 248.240
65.28000 265.723
65.32000 294.725
65.36000 325.184
65.40000 332.962
65.44000 382.877
65.48000 399.580
65.52000 455.547
65.56000 478.383
65.60000 504.232
65.64000 521.464
65.68000 569.523
65.72000 674.770
65.76000 868.536
65.80000 1142.180
65.84000 1294.204
65.88000 1363.775
65.92000 1379.640
65.96000 1242.064
66.00000 966.616
66.04000 653.730
66.08000 466.810
66.12000 375.456
66.16000 326.769
66.20000 317.032
66.24000 317.691
66.28000 355.445
66.32000 397.003
66.36000 432.125
66.40000 494.098
66.44000 511.893
66.48000 526.552
66.52000 502.525
66.56000 429.431
66.60000 387.691
66.64000 345.802
66.68000 341.251
66.72000 332.318
66.76000 344.409
66.80000 352.007
66.84000 340.799
66.88000 349.980
66.92000 361.393
66.96000 346.298
67.00000 370.459
67.04000 379.075
67.08000 376.866
67.12000 382.707
67.16000 382.085
67.20000 402.763
67.24000 403.922
67.28000 412.479
67.32000 431.142
67.36000 421.482
67.40000 434.901
67.44000 432.123
67.48000 442.242
67.52000 468.875
67.56000 465.062
67.60000 477.070
67.64000 482.126
67.68000 484.663
67.72000 499.787
67.76000 511.175
67.80000 507.696
67.84000 528.168
67.88000 533.711
67.92000 561.744
67.96000 552.262
68.00000 559.327
68.04000 578.096
68.08000 598.077
68.12000 615.194
68.16000 657.556
68.20000 634.101
68.24000 665.548
68.28000 674.255
68.32000 720.240
68.36000 747.053
68.40000 751.544
68.44000 798.727
68.48000 819.506
68.52000 862.845
68.56000 930.289
68.60000 1032.761
68.64000 1218.381
68.68000 1429.874
68.72000 1717.893
68.76000 1993.010
68.80000 2229.332
68.84000 2501.236
68.88000 2940.049
68.92000 4647.102
68.96000 9653.054
69.00000 25848.916
69.04000 50574.176
69.08000 70344.141
69.12000 76628.984
69.16000 78612.297
69.20000 80980.813
69.24000 74886.234
69.28000 61099.980
69.32000 47303.910
69.36000 40338.656
69.40000 35567.566
69.44000 25776.063
69.48000 14259.419
69.52000 6201.463
69.56000 3002.266
69.60000 2009.630
69.64000 1618.559
69.68000 1397.791
69.72000 1226.919
69.76000 1120.228
69.80000 1034.017
69.84000 972.747
69.88000 894.304
69.92000 839.070
69.96000 797.566
70.00000 820.342