File: XRD/30-09-2025 Dep 1/XY Data/BTO_Mapping_Theta2Theta_30-09-2025_001_28_-24-271_17-634.xy
20.00000 569.431
20.04000 553.365
20.08000 544.068
20.12000 575.318
20.16000 563.915
20.20000 581.565
20.24000 559.641
20.28000 562.835
20.32000 539.398
20.36000 551.588
20.40000 533.802
20.44000 574.478
20.48000 572.084
20.52000 567.832
20.56000 548.893
20.60000 534.984
20.64000 543.461
20.68000 542.503
20.72000 565.005
20.76000 545.214
20.80000 558.435
20.84000 528.726
20.88000 553.744
20.92000 553.975
20.96000 559.866
21.00000 555.393
21.04000 540.462
21.08000 566.858
21.12000 548.014
21.16000 567.694
21.20000 532.878
21.24000 558.492
21.28000 554.734
21.32000 549.020
21.36000 557.639
21.40000 544.361
21.44000 553.343
21.48000 553.454
21.52000 539.787
21.56000 543.727
21.60000 541.625
21.64000 551.199
21.68000 553.370
21.72000 561.482
21.76000 579.051
21.80000 562.451
21.84000 578.951
21.88000 597.930
21.92000 585.310
21.96000 619.265
22.00000 631.905
22.04000 633.865
22.08000 627.271
22.12000 627.805
22.16000 653.694
22.20000 618.845
22.24000 610.370
22.28000 591.952
22.32000 572.460
22.36000 551.645
22.40000 538.963
22.44000 540.883
22.48000 541.803
22.52000 555.317
22.56000 561.394
22.60000 532.288
22.64000 516.011
22.68000 509.349
22.72000 525.303
22.76000 523.672
22.80000 514.083
22.84000 511.708
22.88000 527.672
22.92000 501.729
22.96000 518.090
23.00000 523.856
23.04000 521.474
23.08000 508.897
23.12000 533.536
23.16000 516.253
23.20000 528.665
23.24000 518.600
23.28000 519.976
23.32000 521.269
23.36000 519.422
23.40000 508.822
23.44000 510.937
23.48000 518.180
23.52000 525.405
23.56000 492.856
23.60000 483.921
23.64000 527.274
23.68000 504.906
23.72000 525.596
23.76000 508.396
23.80000 510.513
23.84000 485.448
23.88000 547.037
23.92000 520.810
23.96000 531.968
24.00000 515.172
24.04000 531.394
24.08000 545.997
24.12000 530.307
24.16000 501.210
24.20000 519.172
24.24000 515.905
24.28000 528.007
24.32000 502.994
24.36000 503.999
24.40000 498.983
24.44000 514.048
24.48000 494.975
24.52000 504.651
24.56000 499.871
24.60000 509.890
24.64000 490.813
24.68000 462.156
24.72000 486.953
24.76000 503.224
24.80000 478.760
24.84000 476.137
24.88000 463.829
24.92000 495.206
24.96000 501.756
25.00000 483.731
25.04000 477.526
25.08000 499.542
25.12000 485.147
25.16000 490.830
25.20000 469.077
25.24000 472.916
25.28000 482.302
25.32000 473.974
25.36000 469.709
25.40000 469.614
25.44000 476.148
25.48000 486.418
25.52000 470.458
25.56000 490.989
25.60000 478.607
25.64000 465.536
25.68000 486.666
25.72000 464.867
25.76000 457.105
25.80000 470.600
25.84000 461.421
25.88000 442.514
25.92000 446.069
25.96000 464.670
26.00000 458.767
26.04000 456.146
26.08000 449.836
26.12000 452.871
26.16000 461.423
26.20000 464.765
26.24000 469.043
26.28000 434.877
26.32000 452.228
26.36000 456.232
26.40000 458.612
26.44000 440.052
26.48000 445.459
26.52000 445.770
26.56000 454.606
26.60000 449.540
26.64000 462.668
26.68000 445.139
26.72000 442.696
26.76000 448.801
26.80000 442.060
26.84000 436.640
26.88000 445.654
26.92000 424.956
26.96000 440.112
27.00000 443.309
27.04000 441.787
27.08000 444.593
27.12000 432.244
27.16000 447.691
27.20000 449.782
27.24000 455.086
27.28000 445.018
27.32000 440.334
27.36000 432.841
27.40000 432.507
27.44000 438.902
27.48000 453.529
27.52000 438.066
27.56000 456.701
27.60000 437.108
27.64000 436.012
27.68000 439.435
27.72000 443.557
27.76000 430.154
27.80000 437.924
27.84000 439.558
27.88000 432.254
27.92000 432.619
27.96000 435.377
28.00000 444.345
28.04000 420.951
28.08000 432.139
28.12000 432.570
28.16000 437.404
28.20000 439.143
28.24000 427.254
28.28000 443.835
28.32000 429.308
28.36000 408.243
28.40000 406.999
28.44000 429.141
28.48000 437.052
28.52000 439.234
28.56000 423.899
28.60000 414.108
28.64000 419.351
28.68000 441.848
28.72000 415.470
28.76000 418.105
28.80000 420.686
28.84000 401.953
28.88000 412.504
28.92000 429.788
28.96000 420.444
29.00000 408.793
29.04000 426.304
29.08000 436.713
29.12000 396.099
29.16000 403.636
29.20000 404.873
29.24000 409.954
29.28000 405.503
29.32000 422.954
29.36000 408.905
29.40000 413.469
29.44000 398.576
29.48000 410.572
29.52000 408.057
29.56000 410.644
29.60000 424.108
29.64000 397.317
29.68000 407.351
29.72000 406.762
29.76000 406.047
29.80000 412.825
29.84000 423.510
29.88000 419.457
29.92000 405.225
29.96000 414.402
30.00000 430.153
30.04000 414.188
30.08000 441.627
30.12000 439.136
30.16000 421.900
30.20000 428.399
30.24000 410.764
30.28000 403.517
30.32000 406.548
30.36000 408.830
30.40000 418.817
30.44000 414.479
30.48000 393.760
30.52000 411.013
30.56000 413.513
30.60000 418.638
30.64000 418.366
30.68000 435.996
30.72000 432.076
30.76000 419.884
30.80000 419.432
30.84000 430.410
30.88000 428.326
30.92000 436.561
30.96000 475.196
31.00000 480.004
31.04000 518.622
31.08000 550.363
31.12000 645.987
31.16000 794.656
31.20000 979.125
31.24000 1244.156
31.28000 1574.206
31.32000 1888.396
31.36000 2127.454
31.40000 2271.204
31.44000 2262.665
31.48000 2010.786
31.52000 1790.922
31.56000 1483.625
31.60000 1121.314
31.64000 912.786
31.68000 692.608
31.72000 589.415
31.76000 521.116
31.80000 464.298
31.84000 470.228
31.88000 443.686
31.92000 422.671
31.96000 396.777
32.00000 409.551
32.04000 407.771
32.08000 405.376
32.12000 399.583
32.16000 409.186
32.20000 383.586
32.24000 401.391
32.28000 405.107
32.32000 411.303
32.36000 400.733
32.40000 385.144
32.44000 386.165
32.48000 390.404
32.52000 370.934
32.56000 379.689
32.60000 366.598
32.64000 374.755
32.68000 370.409
32.72000 365.448
32.76000 366.306
32.80000 362.469
32.84000 360.972
32.88000 372.587
32.92000 376.230
32.96000 381.461
33.00000 395.092
33.04000 363.033
33.08000 395.233
33.12000 363.905
33.16000 370.755
33.20000 365.055
33.24000 360.239
33.28000 346.255
33.32000 339.422
33.36000 351.457
33.40000 350.011
33.44000 334.928
33.48000 339.666
33.52000 346.409
33.56000 356.177
33.60000 348.280
33.64000 344.139
33.68000 364.846
33.72000 352.857
33.76000 349.241
33.80000 353.636
33.84000 351.234
33.88000 339.135
33.92000 337.927
33.96000 346.578
34.00000 334.752
34.04000 339.493
34.08000 349.755
34.12000 353.699
34.16000 353.130
34.20000 350.248
34.24000 368.432
34.28000 373.741
34.32000 356.402
34.36000 361.933
34.40000 361.110
34.44000 363.283
34.48000 352.291
34.52000 345.812
34.56000 361.221
34.60000 375.926
34.64000 347.382
34.68000 344.490
34.72000 349.993
34.76000 345.562
34.80000 345.505
34.84000 341.756
34.88000 347.661
34.92000 325.594
34.96000 344.277
35.00000 340.656
35.04000 329.965
35.08000 314.583
35.12000 309.295
35.16000 335.483
35.20000 336.485
35.24000 319.157
35.28000 303.846
35.32000 325.035
35.36000 308.408
35.40000 315.446
35.44000 309.836
35.48000 313.196
35.52000 343.476
35.56000 303.277
35.60000 310.306
35.64000 310.148
35.68000 297.647
35.72000 304.987
35.76000 297.371
35.80000 312.177
35.84000 302.183
35.88000 314.885
35.92000 302.223
35.96000 316.361
36.00000 308.812
36.04000 301.265
36.08000 302.721
36.12000 311.438
36.16000 297.805
36.20000 299.543
36.24000 297.491
36.28000 285.567
36.32000 301.315
36.36000 299.313
36.40000 297.547
36.44000 313.547
36.48000 302.003
36.52000 302.902
36.56000 300.691
36.60000 283.224
36.64000 282.677
36.68000 292.570
36.72000 306.618
36.76000 303.830
36.80000 293.072
36.84000 300.975
36.88000 290.712
36.92000 289.667
36.96000 306.932
37.00000 299.313
37.04000 314.117
37.08000 309.032
37.12000 303.699
37.16000 311.332
37.20000 304.387
37.24000 315.498
37.28000 287.762
37.32000 297.165
37.36000 296.977
37.40000 297.501
37.44000 288.024
37.48000 302.431
37.52000 293.684
37.56000 299.413
37.60000 299.191
37.64000 301.394
37.68000 301.724
37.72000 288.006
37.76000 300.908
37.80000 311.847
37.84000 297.096
37.88000 293.568
37.92000 289.163
37.96000 296.769
38.00000 293.698
38.04000 306.037
38.08000 298.419
38.12000 301.224
38.16000 299.563
38.20000 295.409
38.24000 310.380
38.28000 310.916
38.32000 309.856
38.36000 321.567
38.40000 327.835
38.44000 368.506
38.48000 420.428
38.52000 502.483
38.56000 562.901
38.60000 702.884
38.64000 817.410
38.68000 1007.085
38.72000 1103.321
38.76000 1117.082
38.80000 1159.775
38.84000 1060.717
38.88000 947.952
38.92000 792.259
38.96000 631.183
39.00000 505.869
39.04000 414.140
39.08000 350.747
39.12000 331.638
39.16000 309.763
39.20000 303.212
39.24000 291.298
39.28000 284.436
39.32000 280.322
39.36000 282.094
39.40000 271.879
39.44000 275.916
39.48000 276.650
39.52000 282.170
39.56000 263.564
39.60000 277.408
39.64000 265.107
39.68000 266.062
39.72000 269.599
39.76000 272.009
39.80000 272.986
39.84000 263.231
39.88000 268.789
39.92000 280.459
39.96000 253.038
40.00000 272.575
40.04000 263.135
40.08000 261.346
40.12000 264.562
40.16000 267.262
40.20000 262.719
40.24000 251.018
40.28000 256.296
40.32000 266.657
40.36000 266.654
40.40000 243.288
40.44000 259.942
40.48000 246.639
40.52000 253.546
40.56000 253.979
40.60000 254.842
40.64000 239.187
40.68000 259.675
40.72000 245.937
40.76000 257.080
40.80000 259.720
40.84000 253.327
40.88000 252.863
40.92000 255.513
40.96000 241.936
41.00000 257.931
41.04000 247.875
41.08000 241.329
41.12000 252.444
41.16000 246.189
41.20000 258.781
41.24000 243.575
41.28000 241.604
41.32000 250.470
41.36000 240.235
41.40000 248.261
41.44000 243.761
41.48000 250.583
41.52000 255.217
41.56000 241.428
41.60000 231.384
41.64000 239.437
41.68000 227.610
41.72000 233.083
41.76000 238.826
41.80000 242.840
41.84000 247.696
41.88000 240.500
41.92000 250.540
41.96000 239.373
42.00000 241.094
42.04000 250.708
42.08000 239.937
42.12000 243.299
42.16000 246.147
42.20000 240.320
42.24000 242.099
42.28000 235.699
42.32000 247.533
42.36000 244.025
42.40000 247.124
42.44000 239.596
42.48000 228.492
42.52000 234.821
42.56000 230.257
42.60000 231.190
42.64000 235.206
42.68000 231.563
42.72000 236.568
42.76000 229.060
42.80000 227.180
42.84000 230.704
42.88000 225.234
42.92000 229.147
42.96000 230.598
43.00000 229.828
43.04000 225.259
43.08000 237.324
43.12000 229.929
43.16000 223.282
43.20000 222.363
43.24000 237.826
43.28000 224.421
43.32000 228.037
43.36000 225.004
43.40000 209.889
43.44000 223.193
43.48000 213.404
43.52000 224.890
43.56000 224.688
43.60000 216.122
43.64000 227.647
43.68000 224.213
43.72000 205.697
43.76000 216.376
43.80000 223.042
43.84000 218.478
43.88000 222.538
43.92000 218.848
43.96000 215.781
44.00000 201.203
44.04000 219.916
44.08000 213.413
44.12000 211.396
44.16000 221.002
44.20000 224.290
44.24000 222.856
44.28000 232.114
44.32000 234.181
44.36000 226.580
44.40000 219.402
44.44000 216.446
44.48000 237.235
44.52000 218.301
44.56000 225.824
44.60000 221.579
44.64000 232.570
44.68000 237.070
44.72000 227.219
44.76000 244.124
44.80000 250.519
44.84000 246.753
44.88000 256.071
44.92000 269.712
44.96000 268.566
45.00000 269.503
45.04000 292.547
45.08000 299.521
45.12000 304.299
45.16000 295.180
45.20000 298.332
45.24000 284.758
45.28000 280.281
45.32000 259.277
45.36000 255.451
45.40000 252.386
45.44000 251.762
45.48000 246.752
45.52000 240.591
45.56000 219.324
45.60000 237.203
45.64000 222.472
45.68000 211.063
45.72000 217.439
45.76000 202.093
45.80000 232.591
45.84000 213.187
45.88000 210.647
45.92000 207.514
45.96000 208.343
46.00000 212.081
46.04000 203.140
46.08000 215.402
46.12000 209.065
46.16000 206.570
46.20000 213.779
46.24000 203.393
46.28000 207.815
46.32000 211.916
46.36000 208.282
46.40000 198.158
46.44000 216.597
46.48000 205.428
46.52000 209.214
46.56000 216.354
46.60000 210.321
46.64000 204.289
46.68000 211.216
46.72000 216.171
46.76000 199.321
46.80000 202.678
46.84000 203.482
46.88000 198.421
46.92000 198.013
46.96000 210.504
47.00000 198.738
47.04000 197.141
47.08000 197.184
47.12000 186.628
47.16000 194.549
47.20000 193.177
47.24000 186.339
47.28000 188.706
47.32000 200.432
47.36000 192.566
47.40000 185.686
47.44000 185.878
47.48000 189.287
47.52000 194.523
47.56000 195.233
47.60000 188.058
47.64000 176.808
47.68000 184.847
47.72000 178.653
47.76000 180.350
47.80000 191.274
47.84000 174.503
47.88000 178.732
47.92000 185.296
47.96000 172.497
48.00000 188.391
48.04000 172.483
48.08000 183.971
48.12000 183.924
48.16000 176.304
48.20000 188.355
48.24000 178.997
48.28000 165.691
48.32000 185.850
48.36000 181.858
48.40000 181.362
48.44000 184.839
48.48000 184.325
48.52000 180.951
48.56000 186.386
48.60000 173.277
48.64000 182.702
48.68000 188.795
48.72000 177.203
48.76000 191.174
48.80000 190.135
48.84000 186.669
48.88000 177.148
48.92000 181.247
48.96000 176.544
49.00000 178.429
49.04000 173.619
49.08000 172.176
49.12000 176.452
49.16000 186.394
49.20000 170.726
49.24000 185.459
49.28000 185.508
49.32000 178.829
49.36000 175.099
49.40000 183.070
49.44000 183.698
49.48000 191.168
49.52000 179.073
49.56000 173.762
49.60000 182.120
49.64000 174.097
49.68000 186.316
49.72000 176.718
49.76000 174.397
49.80000 175.310
49.84000 179.289
49.88000 177.116
49.92000 184.166
49.96000 184.302
50.00000 174.416
50.04000 178.687
50.08000 188.919
50.12000 188.557
50.16000 173.860
50.20000 178.359
50.24000 186.250
50.28000 185.893
50.32000 185.751
50.36000 175.719
50.40000 186.277
50.44000 198.861
50.48000 186.105
50.52000 193.894
50.56000 200.155
50.60000 204.665
50.64000 214.206
50.68000 222.894
50.72000 216.981
50.76000 213.434
50.80000 222.800
50.84000 220.829
50.88000 206.946
50.92000 204.026
50.96000 209.936
51.00000 193.002
51.04000 185.400
51.08000 186.208
51.12000 170.279
51.16000 171.813
51.20000 167.031
51.24000 172.534
51.28000 168.992
51.32000 158.246
51.36000 161.405
51.40000 168.554
51.44000 164.414
51.48000 166.182
51.52000 160.801
51.56000 155.243
51.60000 177.880
51.64000 167.483
51.68000 161.883
51.72000 157.455
51.76000 157.401
51.80000 166.986
51.84000 153.550
51.88000 158.153
51.92000 161.900
51.96000 159.819
52.00000 149.021
52.04000 168.996
52.08000 161.890
52.12000 169.218
52.16000 175.848
52.20000 166.303
52.24000 172.865
52.28000 155.180
52.32000 163.088
52.36000 159.837
52.40000 153.402
52.44000 159.812
52.48000 167.269
52.52000 154.606
52.56000 163.381
52.60000 161.141
52.64000 154.155
52.68000 157.721
52.72000 169.164
52.76000 175.034
52.80000 165.410
52.84000 157.710
52.88000 168.313
52.92000 151.270
52.96000 160.687
53.00000 162.497
53.04000 164.935
53.08000 152.269
53.12000 153.616
53.16000 170.906
53.20000 156.755
53.24000 160.322
53.28000 160.079
53.32000 163.978
53.36000 165.409
53.40000 161.658
53.44000 165.565
53.48000 151.983
53.52000 165.046
53.56000 175.138
53.60000 169.100
53.64000 161.686
53.68000 157.141
53.72000 157.210
53.76000 162.579
53.80000 153.758
53.84000 145.466
53.88000 147.153
53.92000 152.193
53.96000 160.312
54.00000 169.118
54.04000 164.237
54.08000 156.782
54.12000 162.163
54.16000 145.223
54.20000 157.401
54.24000 160.795
54.28000 161.981
54.32000 156.331
54.36000 149.534
54.40000 156.356
54.44000 159.718
54.48000 158.971
54.52000 154.252
54.56000 153.491
54.60000 157.107
54.64000 159.994
54.68000 143.277
54.72000 153.609
54.76000 153.428
54.80000 164.312
54.84000 154.107
54.88000 159.888
54.92000 151.429
54.96000 156.251
55.00000 161.591
55.04000 153.082
55.08000 161.556
55.12000 163.165
55.16000 169.587
55.20000 154.915
55.24000 153.733
55.28000 166.501
55.32000 168.892
55.36000 161.677
55.40000 182.228
55.44000 177.744
55.48000 176.974
55.52000 194.828
55.56000 189.608
55.60000 207.735
55.64000 241.408
55.68000 258.812
55.72000 296.483
55.76000 341.464
55.80000 421.224
55.84000 466.703
55.88000 510.943
55.92000 564.049
55.96000 607.915
56.00000 610.445
56.04000 589.694
56.08000 554.201
56.12000 482.853
56.16000 447.997
56.20000 380.414
56.24000 363.509
56.28000 305.171
56.32000 245.257
56.36000 221.960
56.40000 214.424
56.44000 184.834
56.48000 175.315
56.52000 173.402
56.56000 166.703
56.60000 155.380
56.64000 162.238
56.68000 152.967
56.72000 147.111
56.76000 139.723
56.80000 157.306
56.84000 159.191
56.88000 149.787
56.92000 153.610
56.96000 137.602
57.00000 163.847
57.04000 153.690
57.08000 148.132
57.12000 145.231
57.16000 140.637
57.20000 130.690
57.24000 138.989
57.28000 144.326
57.32000 148.861
57.36000 145.327
57.40000 140.376
57.44000 137.438
57.48000 145.426
57.52000 140.776
57.56000 147.834
57.60000 158.357
57.64000 139.776
57.68000 138.189
57.72000 144.716
57.76000 145.977
57.80000 145.919
57.84000 143.687
57.88000 136.442
57.92000 141.494
57.96000 146.589
58.00000 143.247
58.04000 134.587
58.08000 143.009
58.12000 132.959
58.16000 138.304
58.20000 154.923
58.24000 137.096
58.28000 141.527
58.32000 136.018
58.36000 151.524
58.40000 148.452
58.44000 139.801
58.48000 136.522
58.52000 135.577
58.56000 137.608
58.60000 135.366
58.64000 131.414
58.68000 135.436
58.72000 135.105
58.76000 135.564
58.80000 141.600
58.84000 129.042
58.88000 139.666
58.92000 148.074
58.96000 136.870
59.00000 130.179
59.04000 142.251
59.08000 145.507
59.12000 156.742
59.16000 130.184
59.20000 129.928
59.24000 128.718
59.28000 128.377
59.32000 134.573
59.36000 130.191
59.40000 137.844
59.44000 139.391
59.48000 123.561
59.52000 127.616
59.56000 134.031
59.60000 132.957
59.64000 137.999
59.68000 129.506
59.72000 125.496
59.76000 138.599
59.80000 137.283
59.84000 122.592
59.88000 124.996
59.92000 131.325
59.96000 139.300
60.00000 127.546
60.04000 131.498
60.08000 134.889
60.12000 137.079
60.16000 145.650
60.20000 139.493
60.24000 130.220
60.28000 130.438
60.32000 131.410
60.36000 131.578
60.40000 126.845
60.44000 133.843
60.48000 133.378
60.52000 140.101
60.56000 136.722
60.60000 142.938
60.64000 138.073
60.68000 120.138
60.72000 123.812
60.76000 129.678
60.80000 137.535
60.84000 139.042
60.88000 137.599
60.92000 136.488
60.96000 137.041
61.00000 136.432
61.04000 126.993
61.08000 135.427
61.12000 136.135
61.16000 131.301
61.20000 129.126
61.24000 134.840
61.28000 136.026
61.32000 132.110
61.36000 138.778
61.40000 145.527
61.44000 148.015
61.48000 145.747
61.52000 141.533
61.56000 166.208
61.60000 196.914
61.64000 220.179
61.68000 242.352
61.72000 244.045
61.76000 238.364
61.80000 214.556
61.84000 198.408
61.88000 162.849
61.92000 149.566
61.96000 137.589
62.00000 137.309
62.04000 128.399
62.08000 149.772
62.12000 153.147
62.16000 140.148
62.20000 135.142
62.24000 138.361
62.28000 144.186
62.32000 150.557
62.36000 135.525
62.40000 142.594
62.44000 131.786
62.48000 145.070
62.52000 143.506
62.56000 130.868
62.60000 134.036
62.64000 143.936
62.68000 133.087
62.72000 144.065
62.76000 142.433
62.80000 134.725
62.84000 148.026
62.88000 153.771
62.92000 142.451
62.96000 142.001
63.00000 139.881
63.04000 139.038
63.08000 151.521
63.12000 147.444
63.16000 150.372
63.20000 141.844
63.24000 146.385
63.28000 154.062
63.32000 144.490
63.36000 139.742
63.40000 141.423
63.44000 140.339
63.48000 140.718
63.52000 141.767
63.56000 142.328
63.60000 145.901
63.64000 150.812
63.68000 148.257
63.72000 153.349
63.76000 150.891
63.80000 149.634
63.84000 148.275
63.88000 159.738
63.92000 161.346
63.96000 153.436
64.00000 173.720
64.04000 145.017
64.08000 154.600
64.12000 152.942
64.16000 158.168
64.20000 148.606
64.24000 152.568
64.28000 155.021
64.32000 160.608
64.36000 158.497
64.40000 150.279
64.44000 157.431
64.48000 164.161
64.52000 164.049
64.56000 161.793
64.60000 174.549
64.64000 175.173
64.68000 171.643
64.72000 163.929
64.76000 174.286
64.80000 173.697
64.84000 169.529
64.88000 170.662
64.92000 177.610
64.96000 183.862
65.00000 183.581
65.04000 198.677
65.08000 190.718
65.12000 198.877
65.16000 193.285
65.20000 208.692
65.24000 217.958
65.28000 232.822
65.32000 250.787
65.36000 244.304
65.40000 273.692
65.44000 280.532
65.48000 299.097
65.52000 315.573
65.56000 322.055
65.60000 337.905
65.64000 369.205
65.68000 382.048
65.72000 454.543
65.76000 599.182
65.80000 759.128
65.84000 864.435
65.88000 914.206
65.92000 896.821
65.96000 802.003
66.00000 633.743
66.04000 477.874
66.08000 344.027
66.12000 314.538
66.16000 292.824
66.20000 276.569
66.24000 287.246
66.28000 290.019
66.32000 331.427
66.36000 356.282
66.40000 368.252
66.44000 389.591
66.48000 399.074
66.52000 385.151
66.56000 335.408
66.60000 312.496
66.64000 296.649
66.68000 301.455
66.72000 295.112
66.76000 313.153
66.80000 287.499
66.84000 310.506
66.88000 296.586
66.92000 301.076
66.96000 312.715
67.00000 318.660
67.04000 333.025
67.08000 337.554
67.12000 346.209
67.16000 347.936
67.20000 354.957
67.24000 350.378
67.28000 355.903
67.32000 366.224
67.36000 370.179
67.40000 357.363
67.44000 380.407
67.48000 393.701
67.52000 406.475
67.56000 397.880
67.60000 403.872
67.64000 426.467
67.68000 429.830
67.72000 440.835
67.76000 440.591
67.80000 438.931
67.84000 460.403
67.88000 435.846
67.92000 464.536
67.96000 464.257
68.00000 492.678
68.04000 497.121
68.08000 507.570
68.12000 520.243
68.16000 521.651
68.20000 540.897
68.24000 548.555
68.28000 562.167
68.32000 593.999
68.36000 628.127
68.40000 638.571
68.44000 642.216
68.48000 685.418
68.52000 724.846
68.56000 722.968
68.60000 837.207
68.64000 943.637
68.68000 1100.686
68.72000 1268.325
68.76000 1391.433
68.80000 1598.964
68.84000 1808.385
68.88000 2104.821
68.92000 2978.240
68.96000 6094.835
69.00000 16933.070
69.04000 32591.926
69.08000 44241.098
69.12000 46981.426
69.16000 48067.461
69.20000 49817.148
69.24000 45493.891
69.28000 35846.418
69.32000 27865.982
69.36000 24319.355
69.40000 21568.662
69.44000 15167.462
69.48000 7832.480
69.52000 3431.083
69.56000 1832.690
69.60000 1371.639
69.64000 1183.569
69.68000 1037.253
69.72000 912.288
69.76000 850.213
69.80000 796.267
69.84000 751.048
69.88000 716.982
69.92000 675.242
69.96000 656.881
70.00000 651.491