File: XRD/30-09-2025 Dep 1/XY Data/BTO_Mapping_Theta2Theta_30-09-2025_001_20_-3-136_29-836.xy
20.00000 561.260
20.04000 561.180
20.08000 563.715
20.12000 567.258
20.16000 575.090
20.20000 572.693
20.24000 544.884
20.28000 547.005
20.32000 573.223
20.36000 570.190
20.40000 551.338
20.44000 549.524
20.48000 556.241
20.52000 556.326
20.56000 556.937
20.60000 547.995
20.64000 561.975
20.68000 542.218
20.72000 555.814
20.76000 552.565
20.80000 540.269
20.84000 575.374
20.88000 555.371
20.92000 546.601
20.96000 571.129
21.00000 556.746
21.04000 544.993
21.08000 558.621
21.12000 559.034
21.16000 541.132
21.20000 553.322
21.24000 540.816
21.28000 536.628
21.32000 544.720
21.36000 550.189
21.40000 544.620
21.44000 544.021
21.48000 557.329
21.52000 558.649
21.56000 541.651
21.60000 534.724
21.64000 552.675
21.68000 558.280
21.72000 578.058
21.76000 569.642
21.80000 567.461
21.84000 584.628
21.88000 592.460
21.92000 615.567
21.96000 658.708
22.00000 660.979
22.04000 662.163
22.08000 657.987
22.12000 646.962
22.16000 636.177
22.20000 640.249
22.24000 618.597
22.28000 592.135
22.32000 577.838
22.36000 575.662
22.40000 537.711
22.44000 554.332
22.48000 546.132
22.52000 542.464
22.56000 520.983
22.60000 523.039
22.64000 537.741
22.68000 537.435
22.72000 530.269
22.76000 514.480
22.80000 505.814
22.84000 528.022
22.88000 546.498
22.92000 546.317
22.96000 517.417
23.00000 514.834
23.04000 534.125
23.08000 495.870
23.12000 511.731
23.16000 507.526
23.20000 503.458
23.24000 526.573
23.28000 528.976
23.32000 508.267
23.36000 514.807
23.40000 517.096
23.44000 516.671
23.48000 517.024
23.52000 518.244
23.56000 508.007
23.60000 502.214
23.64000 499.322
23.68000 510.374
23.72000 515.853
23.76000 515.459
23.80000 522.226
23.84000 515.786
23.88000 510.811
23.92000 536.360
23.96000 545.367
24.00000 535.925
24.04000 525.642
24.08000 545.425
24.12000 531.142
24.16000 526.352
24.20000 530.812
24.24000 519.367
24.28000 516.504
24.32000 517.639
24.36000 525.825
24.40000 513.769
24.44000 514.735
24.48000 502.416
24.52000 502.026
24.56000 492.253
24.60000 490.022
24.64000 472.012
24.68000 497.606
24.72000 496.674
24.76000 471.341
24.80000 490.164
24.84000 489.746
24.88000 466.162
24.92000 457.092
24.96000 481.659
25.00000 475.421
25.04000 473.754
25.08000 483.291
25.12000 489.104
25.16000 495.464
25.20000 477.121
25.24000 473.998
25.28000 474.065
25.32000 470.503
25.36000 468.781
25.40000 464.257
25.44000 479.188
25.48000 479.704
25.52000 469.888
25.56000 455.824
25.60000 465.185
25.64000 464.868
25.68000 459.928
25.72000 467.464
25.76000 469.341
25.80000 468.395
25.84000 475.680
25.88000 470.782
25.92000 465.152
25.96000 464.761
26.00000 469.027
26.04000 470.637
26.08000 463.901
26.12000 434.403
26.16000 440.561
26.20000 446.639
26.24000 449.272
26.28000 456.512
26.32000 443.019
26.36000 470.033
26.40000 450.072
26.44000 453.677
26.48000 458.036
26.52000 454.240
26.56000 443.022
26.60000 442.244
26.64000 458.286
26.68000 455.930
26.72000 466.588
26.76000 451.032
26.80000 468.911
26.84000 429.748
26.88000 452.237
26.92000 457.771
26.96000 423.310
27.00000 452.708
27.04000 447.924
27.08000 443.335
27.12000 432.983
27.16000 458.464
27.20000 439.721
27.24000 443.850
27.28000 428.193
27.32000 438.162
27.36000 443.983
27.40000 447.670
27.44000 447.577
27.48000 444.272
27.52000 443.279
27.56000 435.287
27.60000 435.048
27.64000 447.369
27.68000 421.725
27.72000 456.217
27.76000 432.730
27.80000 437.490
27.84000 435.114
27.88000 427.599
27.92000 428.347
27.96000 444.056
28.00000 429.942
28.04000 440.380
28.08000 453.667
28.12000 439.375
28.16000 425.800
28.20000 440.029
28.24000 436.994
28.28000 418.140
28.32000 444.775
28.36000 408.657
28.40000 415.797
28.44000 432.120
28.48000 424.964
28.52000 425.751
28.56000 407.630
28.60000 429.916
28.64000 426.867
28.68000 441.087
28.72000 413.146
28.76000 423.407
28.80000 417.642
28.84000 421.288
28.88000 415.590
28.92000 419.867
28.96000 416.026
29.00000 417.380
29.04000 399.495
29.08000 411.173
29.12000 415.813
29.16000 412.131
29.20000 419.595
29.24000 409.531
29.28000 414.038
29.32000 401.384
29.36000 411.724
29.40000 414.069
29.44000 427.064
29.48000 417.624
29.52000 394.610
29.56000 405.340
29.60000 405.381
29.64000 405.955
29.68000 410.898
29.72000 405.784
29.76000 387.759
29.80000 396.159
29.84000 416.743
29.88000 436.261
29.92000 399.188
29.96000 408.841
30.00000 416.730
30.04000 432.785
30.08000 402.426
30.12000 422.950
30.16000 429.211
30.20000 436.391
30.24000 401.973
30.28000 412.474
30.32000 413.580
30.36000 427.946
30.40000 418.645
30.44000 406.156
30.48000 420.736
30.52000 408.328
30.56000 408.274
30.60000 431.977
30.64000 401.493
30.68000 420.029
30.72000 416.082
30.76000 425.356
30.80000 408.966
30.84000 422.111
30.88000 440.421
30.92000 443.720
30.96000 482.739
31.00000 505.520
31.04000 543.772
31.08000 575.657
31.12000 671.611
31.16000 804.476
31.20000 1015.084
31.24000 1254.636
31.28000 1514.995
31.32000 1805.894
31.36000 1971.489
31.40000 2022.572
31.44000 1945.741
31.48000 1751.215
31.52000 1496.826
31.56000 1183.714
31.60000 947.415
31.64000 765.964
31.68000 623.983
31.72000 562.442
31.76000 507.645
31.80000 474.270
31.84000 440.468
31.88000 416.189
31.92000 428.471
31.96000 426.545
32.00000 410.590
32.04000 407.606
32.08000 403.582
32.12000 387.624
32.16000 401.749
32.20000 401.637
32.24000 392.660
32.28000 394.521
32.32000 385.240
32.36000 382.496
32.40000 384.881
32.44000 396.700
32.48000 387.531
32.52000 388.750
32.56000 381.341
32.60000 371.719
32.64000 384.813
32.68000 381.069
32.72000 365.059
32.76000 379.743
32.80000 366.167
32.84000 353.984
32.88000 367.876
32.92000 385.540
32.96000 388.833
33.00000 390.523
33.04000 395.016
33.08000 390.860
33.12000 395.321
33.16000 362.076
33.20000 351.902
33.24000 336.876
33.28000 350.951
33.32000 351.602
33.36000 357.670
33.40000 357.795
33.44000 349.869
33.48000 341.472
33.52000 353.635
33.56000 352.375
33.60000 348.194
33.64000 351.469
33.68000 366.434
33.72000 361.699
33.76000 347.547
33.80000 346.618
33.84000 339.530
33.88000 350.228
33.92000 337.301
33.96000 352.457
34.00000 344.152
34.04000 351.893
34.08000 364.611
34.12000 366.278
34.16000 366.667
34.20000 359.424
34.24000 362.875
34.28000 368.519
34.32000 363.512
34.36000 350.442
34.40000 369.392
34.44000 373.289
34.48000 371.415
34.52000 340.609
34.56000 356.039
34.60000 355.482
34.64000 346.092
34.68000 345.642
34.72000 350.496
34.76000 349.534
34.80000 337.642
34.84000 348.229
34.88000 333.692
34.92000 329.318
34.96000 326.416
35.00000 326.548
35.04000 341.192
35.08000 334.034
35.12000 317.868
35.16000 334.182
35.20000 324.566
35.24000 323.771
35.28000 315.154
35.32000 325.131
35.36000 311.590
35.40000 320.107
35.44000 314.118
35.48000 318.987
35.52000 306.045
35.56000 309.398
35.60000 308.489
35.64000 329.187
35.68000 294.896
35.72000 320.653
35.76000 294.360
35.80000 308.137
35.84000 299.364
35.88000 314.713
35.92000 309.541
35.96000 303.862
36.00000 306.906
36.04000 307.392
36.08000 311.586
36.12000 303.083
36.16000 304.379
36.20000 314.656
36.24000 302.387
36.28000 309.172
36.32000 289.632
36.36000 299.278
36.40000 305.666
36.44000 304.605
36.48000 300.911
36.52000 303.006
36.56000 298.579
36.60000 301.606
36.64000 298.339
36.68000 327.736
36.72000 300.743
36.76000 315.167
36.80000 304.212
36.84000 297.641
36.88000 293.001
36.92000 289.546
36.96000 303.160
37.00000 303.250
37.04000 309.408
37.08000 299.616
37.12000 313.412
37.16000 298.072
37.20000 295.955
37.24000 288.985
37.28000 274.174
37.32000 285.792
37.36000 297.226
37.40000 306.795
37.44000 299.898
37.48000 306.008
37.52000 295.443
37.56000 280.897
37.60000 277.906
37.64000 303.731
37.68000 290.669
37.72000 283.532
37.76000 305.033
37.80000 278.486
37.84000 285.639
37.88000 290.848
37.92000 307.347
37.96000 290.864
38.00000 302.474
38.04000 297.441
38.08000 304.912
38.12000 301.659
38.16000 309.511
38.20000 301.247
38.24000 295.994
38.28000 300.258
38.32000 317.457
38.36000 311.516
38.40000 339.028
38.44000 397.456
38.48000 441.319
38.52000 519.777
38.56000 628.474
38.60000 763.784
38.64000 920.711
38.68000 1010.979
38.72000 1121.889
38.76000 1145.682
38.80000 1131.692
38.84000 1024.498
38.88000 846.397
38.92000 713.424
38.96000 579.854
39.00000 456.280
39.04000 383.792
39.08000 337.855
39.12000 318.073
39.16000 310.292
39.20000 301.241
39.24000 293.200
39.28000 297.216
39.32000 292.818
39.36000 281.798
39.40000 287.317
39.44000 268.440
39.48000 283.244
39.52000 287.165
39.56000 291.261
39.60000 271.171
39.64000 261.222
39.68000 271.073
39.72000 278.158
39.76000 268.805
39.80000 267.299
39.84000 266.221
39.88000 271.988
39.92000 265.845
39.96000 270.609
40.00000 258.196
40.04000 276.143
40.08000 248.691
40.12000 260.066
40.16000 253.614
40.20000 259.521
40.24000 266.609
40.28000 254.286
40.32000 256.897
40.36000 255.853
40.40000 263.842
40.44000 253.499
40.48000 259.298
40.52000 258.630
40.56000 254.360
40.60000 254.057
40.64000 253.513
40.68000 249.232
40.72000 250.280
40.76000 261.875
40.80000 255.427
40.84000 257.706
40.88000 243.638
40.92000 269.280
40.96000 244.400
41.00000 242.958
41.04000 244.497
41.08000 260.366
41.12000 239.306
41.16000 246.077
41.20000 249.172
41.24000 253.806
41.28000 243.272
41.32000 240.540
41.36000 242.281
41.40000 240.714
41.44000 233.344
41.48000 237.749
41.52000 254.181
41.56000 255.073
41.60000 242.530
41.64000 258.309
41.68000 248.530
41.72000 241.777
41.76000 258.349
41.80000 237.539
41.84000 239.335
41.88000 243.734
41.92000 241.594
41.96000 233.012
42.00000 234.404
42.04000 236.831
42.08000 239.473
42.12000 252.987
42.16000 244.080
42.20000 236.015
42.24000 237.247
42.28000 249.585
42.32000 248.836
42.36000 249.750
42.40000 257.185
42.44000 230.960
42.48000 234.872
42.52000 242.886
42.56000 241.583
42.60000 237.907
42.64000 238.385
42.68000 227.548
42.72000 217.044
42.76000 233.059
42.80000 240.139
42.84000 232.037
42.88000 242.192
42.92000 231.454
42.96000 233.354
43.00000 235.505
43.04000 235.186
43.08000 241.678
43.12000 233.436
43.16000 211.529
43.20000 232.290
43.24000 235.742
43.28000 231.149
43.32000 225.744
43.36000 232.825
43.40000 228.924
43.44000 222.700
43.48000 206.116
43.52000 212.293
43.56000 215.270
43.60000 215.124
43.64000 219.726
43.68000 222.716
43.72000 230.704
43.76000 222.600
43.80000 222.738
43.84000 228.102
43.88000 224.070
43.92000 213.599
43.96000 222.153
44.00000 229.848
44.04000 227.237
44.08000 229.128
44.12000 222.866
44.16000 211.643
44.20000 218.380
44.24000 225.900
44.28000 224.678
44.32000 222.113
44.36000 234.038
44.40000 229.143
44.44000 227.647
44.48000 237.485
44.52000 230.132
44.56000 224.842
44.60000 232.391
44.64000 236.783
44.68000 240.480
44.72000 240.328
44.76000 249.627
44.80000 247.839
44.84000 258.071
44.88000 260.099
44.92000 281.359
44.96000 292.730
45.00000 299.819
45.04000 321.513
45.08000 312.445
45.12000 320.420
45.16000 302.936
45.20000 294.433
45.24000 295.236
45.28000 290.592
45.32000 273.680
45.36000 256.848
45.40000 257.199
45.44000 245.780
45.48000 241.067
45.52000 242.263
45.56000 230.861
45.60000 213.018
45.64000 221.318
45.68000 208.207
45.72000 230.459
45.76000 205.923
45.80000 198.181
45.84000 205.811
45.88000 209.531
45.92000 207.523
45.96000 197.133
46.00000 202.797
46.04000 215.167
46.08000 213.166
46.12000 205.903
46.16000 212.271
46.20000 213.549
46.24000 210.730
46.28000 197.347
46.32000 211.083
46.36000 207.396
46.40000 195.714
46.44000 197.437
46.48000 219.217
46.52000 212.555
46.56000 202.052
46.60000 206.430
46.64000 201.572
46.68000 200.898
46.72000 203.482
46.76000 193.939
46.80000 195.933
46.84000 204.709
46.88000 193.610
46.92000 207.481
46.96000 197.551
47.00000 198.342
47.04000 199.641
47.08000 197.006
47.12000 189.436
47.16000 191.421
47.20000 197.084
47.24000 190.803
47.28000 187.339
47.32000 184.765
47.36000 187.657
47.40000 192.954
47.44000 198.936
47.48000 197.142
47.52000 188.919
47.56000 196.313
47.60000 189.917
47.64000 196.562
47.68000 195.826
47.72000 195.262
47.76000 174.513
47.80000 196.931
47.84000 193.973
47.88000 201.462
47.92000 193.857
47.96000 191.863
48.00000 185.990
48.04000 190.836
48.08000 186.787
48.12000 183.073
48.16000 189.679
48.20000 187.231
48.24000 193.861
48.28000 190.518
48.32000 186.770
48.36000 178.747
48.40000 180.161
48.44000 187.736
48.48000 177.017
48.52000 170.305
48.56000 187.523
48.60000 182.662
48.64000 187.893
48.68000 178.761
48.72000 175.311
48.76000 182.984
48.80000 190.284
48.84000 181.712
48.88000 186.486
48.92000 180.600
48.96000 179.582
49.00000 175.580
49.04000 176.923
49.08000 188.411
49.12000 177.755
49.16000 181.875
49.20000 191.773
49.24000 168.814
49.28000 181.887
49.32000 182.438
49.36000 183.215
49.40000 169.884
49.44000 182.313
49.48000 190.507
49.52000 179.513
49.56000 179.020
49.60000 170.417
49.64000 168.634
49.68000 177.069
49.72000 172.505
49.76000 172.627
49.80000 172.375
49.84000 170.624
49.88000 176.175
49.92000 177.151
49.96000 166.682
50.00000 176.591
50.04000 184.078
50.08000 174.191
50.12000 175.694
50.16000 171.912
50.20000 166.788
50.24000 190.987
50.28000 185.400
50.32000 173.879
50.36000 181.299
50.40000 183.060
50.44000 169.390
50.48000 196.447
50.52000 214.668
50.56000 204.028
50.60000 209.795
50.64000 199.382
50.68000 216.300
50.72000 219.568
50.76000 210.305
50.80000 223.515
50.84000 216.578
50.88000 203.248
50.92000 195.895
50.96000 198.238
51.00000 181.477
51.04000 173.947
51.08000 173.877
51.12000 174.098
51.16000 161.813
51.20000 174.636
51.24000 167.366
51.28000 168.578
51.32000 168.702
51.36000 170.837
51.40000 172.704
51.44000 171.147
51.48000 166.660
51.52000 162.309
51.56000 174.839
51.60000 165.722
51.64000 168.643
51.68000 175.831
51.72000 159.820
51.76000 166.883
51.80000 161.747
51.84000 162.470
51.88000 172.405
51.92000 172.901
51.96000 162.098
52.00000 171.317
52.04000 166.284
52.08000 161.647
52.12000 169.164
52.16000 155.279
52.20000 164.623
52.24000 157.889
52.28000 158.871
52.32000 156.286
52.36000 159.850
52.40000 167.965
52.44000 159.590
52.48000 159.199
52.52000 176.193
52.56000 160.330
52.60000 164.099
52.64000 165.781
52.68000 164.473
52.72000 158.266
52.76000 159.309
52.80000 159.143
52.84000 175.449
52.88000 170.408
52.92000 158.152
52.96000 160.264
53.00000 160.863
53.04000 159.062
53.08000 163.637
53.12000 150.992
53.16000 156.322
53.20000 158.295
53.24000 173.880
53.28000 164.675
53.32000 167.191
53.36000 167.148
53.40000 163.305
53.44000 152.919
53.48000 161.028
53.52000 151.903
53.56000 172.965
53.60000 164.772
53.64000 158.657
53.68000 166.498
53.72000 158.582
53.76000 160.712
53.80000 155.332
53.84000 160.255
53.88000 163.086
53.92000 161.150
53.96000 145.276
54.00000 155.581
54.04000 156.842
54.08000 154.385
54.12000 152.900
54.16000 145.506
54.20000 160.581
54.24000 160.242
54.28000 165.833
54.32000 151.989
54.36000 165.357
54.40000 162.179
54.44000 159.706
54.48000 168.316
54.52000 153.234
54.56000 163.944
54.60000 158.350
54.64000 151.340
54.68000 160.773
54.72000 167.212
54.76000 157.623
54.80000 146.783
54.84000 163.898
54.88000 155.362
54.92000 160.172
54.96000 151.212
55.00000 155.048
55.04000 152.010
55.08000 163.384
55.12000 161.394
55.16000 171.608
55.20000 170.821
55.24000 158.105
55.28000 161.934
55.32000 177.057
55.36000 176.418
55.40000 182.726
55.44000 182.297
55.48000 183.039
55.52000 188.686
55.56000 199.316
55.60000 210.778
55.64000 241.144
55.68000 272.880
55.72000 307.083
55.76000 365.116
55.80000 417.423
55.84000 496.220
55.88000 546.247
55.92000 565.664
55.96000 590.653
56.00000 583.112
56.04000 558.372
56.08000 501.668
56.12000 482.459
56.16000 401.587
56.20000 358.427
56.24000 301.082
56.28000 259.633
56.32000 226.321
56.36000 214.660
56.40000 195.962
56.44000 182.135
56.48000 166.615
56.52000 170.312
56.56000 171.093
56.60000 155.558
56.64000 167.319
56.68000 150.914
56.72000 162.565
56.76000 154.545
56.80000 154.254
56.84000 146.065
56.88000 157.274
56.92000 156.949
56.96000 157.761
57.00000 155.846
57.04000 144.525
57.08000 141.017
57.12000 142.928
57.16000 150.547
57.20000 150.473
57.24000 138.188
57.28000 144.595
57.32000 150.571
57.36000 147.762
57.40000 150.787
57.44000 139.946
57.48000 142.811
57.52000 133.655
57.56000 144.545
57.60000 144.293
57.64000 150.895
57.68000 151.311
57.72000 141.357
57.76000 143.833
57.80000 139.654
57.84000 138.721
57.88000 141.440
57.92000 139.214
57.96000 137.899
58.00000 137.242
58.04000 140.492
58.08000 138.378
58.12000 137.078
58.16000 140.855
58.20000 139.253
58.24000 137.540
58.28000 135.932
58.32000 134.576
58.36000 135.183
58.40000 128.021
58.44000 135.304
58.48000 139.364
58.52000 141.770
58.56000 137.243
58.60000 132.569
58.64000 135.414
58.68000 139.614
58.72000 145.868
58.76000 128.809
58.80000 131.170
58.84000 141.408
58.88000 131.168
58.92000 138.573
58.96000 139.438
59.00000 142.889
59.04000 130.194
59.08000 140.580
59.12000 126.442
59.16000 129.926
59.20000 133.881
59.24000 138.867
59.28000 136.380
59.32000 135.310
59.36000 142.515
59.40000 133.811
59.44000 133.315
59.48000 131.510
59.52000 144.162
59.56000 133.791
59.60000 139.257
59.64000 128.201
59.68000 133.117
59.72000 138.221
59.76000 140.726
59.80000 134.386
59.84000 120.428
59.88000 136.355
59.92000 128.519
59.96000 138.381
60.00000 136.983
60.04000 133.638
60.08000 125.851
60.12000 137.282
60.16000 127.031
60.20000 134.574
60.24000 128.326
60.28000 135.316
60.32000 132.665
60.36000 132.753
60.40000 131.866
60.44000 130.348
60.48000 131.968
60.52000 130.853
60.56000 127.825
60.60000 136.934
60.64000 140.977
60.68000 143.344
60.72000 133.485
60.76000 138.176
60.80000 128.764
60.84000 134.358
60.88000 142.089
60.92000 136.829
60.96000 144.040
61.00000 143.039
61.04000 139.608
61.08000 132.832
61.12000 135.636
61.16000 124.236
61.20000 139.960
61.24000 134.125
61.28000 137.023
61.32000 146.209
61.36000 137.209
61.40000 134.715
61.44000 150.292
61.48000 141.308
61.52000 150.299
61.56000 185.544
61.60000 217.889
61.64000 236.222
61.68000 248.587
61.72000 242.007
61.76000 247.253
61.80000 207.185
61.84000 173.796
61.88000 149.318
61.92000 148.699
61.96000 141.506
62.00000 137.699
62.04000 146.782
62.08000 139.879
62.12000 132.405
62.16000 150.361
62.20000 129.257
62.24000 137.714
62.28000 141.366
62.32000 142.540
62.36000 145.658
62.40000 149.560
62.44000 129.676
62.48000 134.479
62.52000 144.533
62.56000 134.208
62.60000 146.867
62.64000 136.305
62.68000 144.668
62.72000 136.183
62.76000 144.183
62.80000 142.676
62.84000 145.288
62.88000 141.384
62.92000 139.703
62.96000 136.307
63.00000 141.181
63.04000 137.174
63.08000 151.583
63.12000 136.495
63.16000 153.265
63.20000 137.777
63.24000 141.550
63.28000 151.176
63.32000 144.570
63.36000 154.317
63.40000 153.831
63.44000 148.961
63.48000 141.771
63.52000 149.225
63.56000 156.271
63.60000 170.353
63.64000 142.555
63.68000 146.713
63.72000 141.655
63.76000 153.012
63.80000 152.447
63.84000 158.900
63.88000 159.850
63.92000 156.475
63.96000 160.449
64.00000 140.403
64.04000 145.829
64.08000 158.562
64.12000 156.224
64.16000 159.929
64.20000 151.876
64.24000 155.040
64.28000 141.682
64.32000 168.344
64.36000 162.168
64.40000 155.260
64.44000 160.540
64.48000 159.128
64.52000 149.967
64.56000 163.940
64.60000 159.669
64.64000 176.868
64.68000 167.937
64.72000 172.231
64.76000 170.090
64.80000 177.394
64.84000 181.424
64.88000 184.968
64.92000 177.297
64.96000 188.032
65.00000 182.333
65.04000 192.680
65.08000 190.887
65.12000 186.374
65.16000 202.244
65.20000 215.869
65.24000 218.695
65.28000 222.801
65.32000 236.714
65.36000 260.982
65.40000 269.863
65.44000 271.628
65.48000 287.265
65.52000 292.939
65.56000 305.213
65.60000 321.396
65.64000 331.313
65.68000 398.512
65.72000 492.421
65.76000 647.047
65.80000 823.932
65.84000 878.965
65.88000 921.043
65.92000 893.877
65.96000 767.120
66.00000 570.140
66.04000 416.302
66.08000 310.015
66.12000 293.760
66.16000 287.017
66.20000 271.637
66.24000 280.913
66.28000 315.472
66.32000 331.717
66.36000 368.844
66.40000 391.296
66.44000 406.254
66.48000 386.118
66.52000 374.761
66.56000 336.161
66.60000 309.661
66.64000 292.774
66.68000 299.651
66.72000 302.632
66.76000 295.800
66.80000 319.068
66.84000 309.181
66.88000 314.759
66.92000 298.913
66.96000 318.497
67.00000 328.550
67.04000 338.231
67.08000 332.017
67.12000 323.765
67.16000 349.241
67.20000 357.519
67.24000 353.107
67.28000 350.380
67.32000 360.703
67.36000 370.014
67.40000 375.501
67.44000 368.513
67.48000 390.381
67.52000 387.650
67.56000 412.898
67.60000 419.124
67.64000 416.009
67.68000 436.568
67.72000 432.284
67.76000 437.679
67.80000 456.878
67.84000 464.032
67.88000 450.575
67.92000 473.538
67.96000 480.798
68.00000 498.414
68.04000 521.279
68.08000 521.012
68.12000 542.295
68.16000 532.893
68.20000 543.502
68.24000 567.616
68.28000 573.073
68.32000 565.177
68.36000 620.920
68.40000 658.843
68.44000 661.021
68.48000 686.210
68.52000 717.321
68.56000 768.213
68.60000 834.369
68.64000 999.937
68.68000 1137.934
68.72000 1339.063
68.76000 1527.948
68.80000 1699.778
68.84000 1952.026
68.88000 2283.772
68.92000 3723.103
68.96000 8609.380
69.00000 22079.418
69.04000 37373.598
69.08000 46272.172
69.12000 47808.133
69.16000 49242.996
69.20000 49982.598
69.24000 42896.102
69.28000 33080.977
69.32000 26681.178
69.36000 23837.070
69.40000 20391.818
69.44000 12882.724
69.48000 6094.027
69.52000 2709.419
69.56000 1632.040
69.60000 1297.256
69.64000 1136.104
69.68000 1010.229
69.72000 925.185
69.76000 849.130
69.80000 800.172
69.84000 763.042
69.88000 718.341
69.92000 687.007
69.96000 656.487
70.00000 624.813