File: XRD/Grazing Incidence/XY Data/Dilan_Full_Stack_Training_3_grazing_incidience_Map_001_1_0-000_0-000.xy
30.00000 22.627
30.02000 18.652
30.04000 18.918
30.06000 23.006
30.08000 16.497
30.10000 18.590
30.12000 15.638
30.14000 16.063
30.16000 19.011
30.18000 17.862
30.20000 18.087
30.22000 13.638
30.24000 20.981
30.26000 19.227
30.28000 18.649
30.30000 12.785
30.32000 11.169
30.34000 15.638
30.36000 17.936
30.38000 14.547
30.40000 18.926
30.42000 13.687
30.44000 14.693
30.46000 10.452
30.48000 19.584
30.50000 21.495
30.52000 17.821
30.54000 21.982
30.56000 19.037
30.58000 22.709
30.60000 20.901
30.62000 14.907
30.64000 18.576
30.66000 18.295
30.68000 20.362
30.70000 25.005
30.72000 22.057
30.74000 25.702
30.76000 15.881
30.78000 20.163
30.80000 34.316
30.82000 24.640
30.84000 24.433
30.86000 27.551
30.88000 24.768
30.90000 42.067
30.92000 32.612
30.94000 39.860
30.96000 39.714
30.98000 35.533
31.00000 54.862
31.02000 63.247
31.04000 54.539
31.06000 55.163
31.08000 79.653
31.10000 78.835
31.12000 101.978
31.14000 125.197
31.16000 158.104
31.18000 190.060
31.20000 210.813
31.22000 227.878
31.24000 295.343
31.26000 359.743
31.28000 408.969
31.30000 470.617
31.32000 513.820
31.34000 598.616
31.36000 649.378
31.38000 729.889
31.40000 722.205
31.42000 706.815
31.44000 760.608
31.46000 795.201
31.48000 769.040
31.50000 706.237
31.52000 705.558
31.54000 624.619
31.56000 546.019
31.58000 502.423
31.60000 463.305
31.62000 358.173
31.64000 305.788
31.66000 321.918
31.68000 224.522
31.70000 172.245
31.72000 161.571
31.74000 109.104
31.76000 91.422
31.78000 84.291
31.80000 71.326
31.82000 52.127
31.84000 49.362
31.86000 30.348
31.88000 26.066
31.90000 26.547
31.92000 25.364
31.94000 19.304
31.96000 22.290
31.98000 28.582
32.00000 33.644
32.02000 24.099
32.04000 17.439
32.06000 21.064
32.08000 16.693
32.10000 23.324
32.12000 16.444
32.14000 20.740
32.16000 10.604
32.18000 13.760
32.20000 14.944
32.22000 17.647
32.24000 11.927
32.26000 16.685
32.28000 10.786
32.30000 14.508
32.32000 16.659
32.34000 13.593
32.36000 12.980
32.38000 14.541
32.40000 13.548
32.42000 9.958
32.44000 7.777
32.46000 16.328
32.48000 10.152
32.50000 15.850
32.52000 8.147
32.54000 6.189
32.56000 9.144
32.58000 9.288
32.60000 9.483
32.62000 9.457
32.64000 11.218
32.66000 11.512
32.68000 13.007
32.70000 7.548
32.72000 7.396
32.74000 8.125
32.76000 5.635
32.78000 6.106
32.80000 10.173
32.82000 7.380
32.84000 8.027
32.86000 6.426
32.88000 10.130
32.90000 9.057
32.92000 10.887
32.94000 13.043
32.96000 8.057
32.98000 11.156
33.00000 8.073
33.02000 10.290
33.04000 10.443
33.06000 9.132
33.08000 5.471
33.10000 7.103
33.12000 16.634
33.14000 7.193
33.16000 9.116
33.18000 6.404
33.20000 8.300
33.22000 11.130
33.24000 15.143
33.26000 8.116
33.28000 8.716
33.30000 8.562
33.32000 6.776
33.34000 8.014
33.36000 10.151
33.38000 12.231
33.40000 8.452
33.42000 7.103
33.44000 7.485
33.46000 9.171
33.48000 8.042
33.50000 4.036
33.52000 10.537
33.54000 4.008
33.56000 5.823
33.58000 11.306
33.60000 7.008
33.62000 5.361
33.64000 13.940
33.66000 8.088
33.68000 7.425
33.70000 6.361
33.72000 14.422
33.74000 4.493
33.76000 11.539
33.78000 4.343
33.80000 4.419
33.82000 9.193
33.84000 5.863
33.86000 1.016
33.88000 12.178
33.90000 3.998
33.92000 3.770
33.94000 5.046
33.96000 11.129
33.98000 9.791
34.00000 7.212
34.02000 6.031
34.04000 6.141
34.06000 5.138
34.08000 9.530
34.10000 8.467
34.12000 6.063
34.14000 7.369
34.16000 7.190
34.18000 7.134
34.20000 6.491
34.22000 4.450
34.24000 6.212
34.26000 11.220
34.28000 10.856
34.30000 10.120
34.32000 11.088
34.34000 4.119
34.36000 6.497
34.38000 9.146
34.40000 7.127
34.42000 8.088
34.44000 7.033
34.46000 7.744
34.48000 7.123
34.50000 5.076
34.52000 9.168
34.54000 1.997
34.56000 8.144
34.58000 7.439
34.60000 9.463
34.62000 2.415
34.64000 10.504
34.66000 10.916
34.68000 12.512
34.70000 8.482
34.72000 8.166
34.74000 5.128
34.76000 9.074
34.78000 5.107
34.80000 9.026
34.82000 8.471
34.84000 7.975
34.86000 8.463
34.88000 5.140
34.90000 3.365
34.92000 2.017
34.94000 5.367
34.96000 3.047
34.98000 5.338
35.00000 2.374
35.02000 7.145
35.04000 5.013
35.06000 6.027
35.08000 9.509
35.10000 5.134
35.12000 7.096
35.14000 5.101
35.16000 5.085
35.18000 6.402
35.20000 7.186
35.22000 4.091
35.24000 9.738
35.26000 5.123
35.28000 9.043
35.30000 7.459
35.32000 3.009
35.34000 8.568
35.36000 9.549
35.38000 10.133
35.40000 4.306
35.42000 5.696
35.44000 5.094
35.46000 10.180
35.48000 3.410
35.50000 8.116
35.52000 6.191
35.54000 5.039
35.56000 5.484
35.58000 4.099
35.60000 7.164
35.62000 10.207
35.64000 5.462
35.66000 9.034
35.68000 12.094
35.70000 4.948
35.72000 8.389
35.74000 7.167
35.76000 9.197
35.78000 7.509
35.80000 4.710
35.82000 5.354
35.84000 4.089
35.86000 4.488
35.88000 5.515
35.90000 3.007
35.92000 2.995
35.94000 6.114
35.96000 4.708
35.98000 7.101
36.00000 9.088
36.02000 4.094
36.04000 8.377
36.06000 7.428
36.08000 6.061
36.10000 7.327
36.12000 5.129
36.14000 1.001
36.16000 4.362
36.18000 3.022
36.20000 5.034
36.22000 6.357
36.24000 4.791
36.26000 6.358
36.28000 3.383
36.30000 4.060
36.32000 1.021
36.34000 9.039
36.36000 2.028
36.38000 5.063
36.40000 4.995
36.42000 4.091
36.44000 5.112
36.46000 6.133
36.48000 10.231
36.50000 4.062
36.52000 12.577
36.54000 10.211
36.56000 6.107
36.58000 12.063
36.60000 10.082
36.62000 4.013
36.64000 4.975
36.66000 6.059
36.68000 5.465
36.70000 5.060
36.72000 4.015
36.74000 6.147
36.76000 6.148
36.78000 7.230
36.80000 4.408
36.82000 7.465
36.84000 5.019
36.86000 6.718
36.88000 5.116
36.90000 10.103
36.92000 9.022
36.94000 6.134
36.96000 7.174
36.98000 7.227
37.00000 10.058
37.02000 7.094
37.04000 10.200
37.06000 4.074
37.08000 3.088
37.10000 6.230
37.12000 8.108
37.14000 6.256
37.16000 10.338
37.18000 7.083
37.20000 9.179
37.22000 2.384
37.24000 2.061
37.26000 9.037
37.28000 2.994
37.30000 9.149
37.32000 4.144
37.34000 3.067
37.36000 5.453
37.38000 7.104
37.40000 7.145
37.42000 4.417
37.44000 10.614
37.46000 7.181
37.48000 8.176
37.50000 5.106
37.52000 5.446
37.54000 4.310
37.56000 5.211
37.58000 10.175
37.60000 5.448
37.62000 4.428
37.64000 6.479
37.66000 7.013
37.68000 7.044
37.70000 3.709
37.72000 5.436
37.74000 4.709
37.76000 3.321
37.78000 5.117
37.80000 10.107
37.82000 4.083
37.84000 8.034
37.86000 8.175
37.88000 5.045
37.90000 7.181
37.92000 4.034
37.94000 8.094
37.96000 3.428
37.98000 9.496
38.00000 4.385
38.02000 9.204
38.04000 3.415
38.06000 7.310
38.08000 8.134
38.10000 8.407
38.12000 10.314
38.14000 8.120
38.16000 9.638
38.18000 10.468
38.20000 8.148
38.22000 8.514
38.24000 9.056
38.26000 6.465
38.28000 6.866
38.30000 5.068
38.32000 13.890
38.34000 11.185
38.36000 18.239
38.38000 8.101
38.40000 9.176
38.42000 21.672
38.44000 5.912
38.46000 11.958
38.48000 16.626
38.50000 20.303
38.52000 28.763
38.54000 26.508
38.56000 31.107
38.58000 40.381
38.60000 31.074
38.62000 51.382
38.64000 46.871
38.66000 70.971
38.68000 48.072
38.70000 58.461
38.72000 57.599
38.74000 55.196
38.76000 67.690
38.78000 69.991
38.80000 76.678
38.82000 76.982
38.84000 61.832
38.86000 57.609
38.88000 65.352
38.90000 64.897
38.92000 52.616
38.94000 41.149
38.96000 45.631
38.98000 45.258
39.00000 33.572
39.02000 33.313
39.04000 27.369
39.06000 23.455
39.08000 18.151
39.10000 14.229
39.12000 10.759
39.14000 15.269
39.16000 24.709
39.18000 9.152
39.20000 12.837
39.22000 8.700
39.24000 5.077
39.26000 8.120
39.28000 6.087
39.30000 8.496
39.32000 7.027
39.34000 8.821
39.36000 4.793
39.38000 9.184
39.40000 5.144
39.42000 5.086
39.44000 10.577
39.46000 2.061
39.48000 4.102
39.50000 10.521
39.52000 6.538
39.54000 6.061
39.56000 6.074
39.58000 5.045
39.60000 7.460
39.62000 8.142
39.64000 5.040
39.66000 3.090
39.68000 4.054
39.70000 8.324
39.72000 5.097
39.74000 5.056
39.76000 5.063
39.78000 12.431
39.80000 5.053
39.82000 3.355
39.84000 6.357
39.86000 2.388
39.88000 3.055
39.90000 2.055
39.92000 6.412
39.94000 2.366
39.96000 4.358
39.98000 7.480
40.00000 6.097
40.02000 8.134
40.04000 3.063
40.06000 9.165
40.08000 3.062
40.10000 7.236
40.12000 4.050
40.14000 11.450
40.16000 2.037
40.18000 4.147
40.20000 3.020
40.22000 9.137
40.24000 7.105
40.26000 3.064
40.28000 12.305
40.30000 8.401
40.32000 5.424
40.34000 3.708
40.36000 2.988
40.38000 6.043
40.40000 4.035
40.42000 4.062
40.44000 10.227
40.46000 2.974
40.48000 6.040
40.50000 7.120
40.52000 4.063
40.54000 4.082
40.56000 3.083
40.58000 7.089
40.60000 3.009
40.62000 2.363
40.64000 6.002
40.66000 4.325
40.68000 6.051
40.70000 8.180
40.72000 7.041
40.74000 5.534
40.76000 1.969
40.78000 2.005
40.80000 4.632
40.82000 5.019
40.84000 3.069
40.86000 4.367
40.88000 9.069
40.90000 4.388
40.92000 3.385
40.94000 3.044
40.96000 4.437
40.98000 7.053
41.00000 3.405
41.02000 3.083
41.04000 7.121
41.06000 7.066
41.08000 7.431
41.10000 5.042
41.12000 5.044
41.14000 4.090
41.16000 5.044
41.18000 3.366
41.20000 3.992
41.22000 1.990
41.24000 3.400
41.26000 8.044
41.28000 2.011
41.30000 3.131
41.32000 6.163
41.34000 3.050
41.36000 4.111
41.38000 9.232
41.40000 1.029
41.42000 3.028
41.44000 5.132
41.46000 6.045
41.48000 8.056
41.50000 0.989
41.52000 3.012
41.54000 8.047
41.56000 4.055
41.58000 5.399
41.60000 2.053
41.62000 4.019
41.64000 4.021
41.66000 1.005
41.68000 3.992
41.70000 3.645
41.72000 2.069
41.74000 4.068
41.76000 3.113
41.78000 3.037
41.80000 5.062
41.82000 6.134
41.84000 1.045
41.86000 8.089
41.88000 6.069
41.90000 6.012
41.92000 6.415
41.94000 5.106
41.96000 5.399
41.98000 5.294
42.00000 2.045
42.02000 2.982
42.04000 2.998
42.06000 5.022
42.08000 1.009
42.10000 2.062
42.12000 11.162
42.14000 3.396
42.16000 1.006
42.18000 7.054
42.20000 3.057
42.22000 5.980
42.24000 6.208
42.26000 2.971
42.28000 1.044
42.30000 6.522
42.32000 1.308
42.34000 8.491
42.36000 2.043
42.38000 3.049
42.40000 1.310
42.42000 4.117
42.44000 4.091
42.46000 7.023
42.48000 3.014
42.50000 4.019
42.52000 4.071
42.54000 11.349
42.56000 5.004
42.58000 5.122
42.60000 5.357
42.62000 6.131
42.64000 5.029
42.66000 8.670
42.68000 0.333
42.70000 4.027
42.72000 1.326
42.74000 5.368
42.76000 0.978
42.78000 3.009
42.80000 5.126
42.82000 6.057
42.84000 6.220
42.86000 4.124
42.88000 1.031
42.90000 5.423
42.92000 6.286
42.94000 6.150
42.96000 3.045
42.98000 5.089
43.00000 6.203
43.02000 4.093
43.04000 9.028
43.06000 6.009
43.08000 7.123
43.10000 4.055
43.12000 4.355
43.14000 8.059
43.16000 1.982
43.18000 6.139
43.20000 3.986
43.22000 7.157
43.24000 4.119
43.26000 9.119
43.28000 3.085
43.30000 5.415
43.32000 4.072
43.34000 9.761
43.36000 2.950
43.38000 3.113
43.40000 7.904
43.42000 4.055
43.44000 4.339
43.46000 5.713
43.48000 7.225
43.50000 3.386
43.52000 9.146
43.54000 5.154
43.56000 4.111
43.58000 8.041
43.60000 10.166
43.62000 1.003
43.64000 9.156
43.66000 7.501
43.68000 5.369
43.70000 8.106
43.72000 1.016
43.74000 3.446
43.76000 1.020
43.78000 2.021
43.80000 5.047
43.82000 10.197
43.84000 3.006
43.86000 4.458
43.88000 5.053
43.90000 5.110
43.92000 6.025
43.94000 6.126
43.96000 5.104
43.98000 5.347
44.00000 5.049
44.02000 7.499
44.04000 3.111
44.06000 5.463
44.08000 4.143
44.10000 1.015
44.12000 3.039
44.14000 6.777
44.16000 5.347
44.18000 6.373
44.20000 6.397
44.22000 5.432
44.24000 5.083
44.26000 5.987
44.28000 5.761
44.30000 7.420
44.32000 13.174
44.34000 11.020
44.36000 8.545
44.38000 6.201
44.40000 11.340
44.42000 10.530
44.44000 9.183
44.46000 12.255
44.48000 7.141
44.50000 4.801
44.52000 13.573
44.54000 8.209
44.56000 10.925
44.58000 16.574
44.60000 14.808
44.62000 16.626
44.64000 15.535
44.66000 20.897
44.68000 16.095
44.70000 20.393
44.72000 14.463
44.74000 33.626
44.76000 39.017
44.78000 35.344
44.80000 45.393
44.82000 55.356
44.84000 62.351
44.86000 57.804
44.88000 73.754
44.90000 89.775
44.92000 95.630
44.94000 103.128
44.96000 106.028
44.98000 119.136
45.00000 112.288
45.02000 151.408
45.04000 144.541
45.06000 130.375
45.08000 150.387
45.10000 165.166
45.12000 149.905
45.14000 136.208
45.16000 124.376
45.18000 122.284
45.20000 98.119
45.22000 104.147
45.24000 93.886
45.26000 74.320
45.28000 56.541
45.30000 63.334
45.32000 56.118
45.34000 45.674
45.36000 39.912
45.38000 38.537
45.40000 30.098
45.42000 19.265
45.44000 23.060
45.46000 19.092
45.48000 12.840
45.50000 14.574
45.52000 7.139
45.54000 11.397
45.56000 10.470
45.58000 9.961
45.60000 12.529
45.62000 8.108
45.64000 5.013
45.66000 9.860
45.68000 5.716
45.70000 9.279
45.72000 8.429
45.74000 9.807
45.76000 7.232
45.78000 6.357
45.80000 5.064
45.82000 5.096
45.84000 7.101
45.86000 7.432
45.88000 4.314
45.90000 8.373
45.92000 4.537
45.94000 3.006
45.96000 6.164
45.98000 3.976
46.00000 6.107
46.02000 3.052
46.04000 3.335
46.06000 3.713
46.08000 6.120
46.10000 8.566
46.12000 9.461
46.14000 6.166
46.16000 3.383
46.18000 5.365
46.20000 5.026
46.22000 5.098
46.24000 3.127
46.26000 2.336
46.28000 4.015
46.30000 7.032
46.32000 3.094
46.34000 6.109
46.36000 1.994
46.38000 4.074
46.40000 4.857
46.42000 6.432
46.44000 7.166
46.46000 2.030
46.48000 4.105
46.50000 4.094
46.52000 7.097
46.54000 4.029
46.56000 1.063
46.58000 4.085
46.60000 2.053
46.62000 0.985
46.64000 7.130
46.66000 1.022
46.68000 6.170
46.70000 6.368
46.72000 4.112
46.74000 5.866
46.76000 3.022
46.78000 8.029
46.80000 8.251
46.82000 5.031
46.84000 9.589
46.86000 4.104
46.88000 6.399
46.90000 3.964
46.92000 2.059
46.94000 2.657
46.96000 9.121
46.98000 4.051
47.00000 0.000