File: XRD/Grazing Incidence/XY Data/Dilan_test_2.xy
20.00000 13.460
20.04000 9.256
20.08000 12.209
20.12000 13.343
20.16000 16.204
20.20000 11.249
20.24000 12.304
20.28000 7.110
20.32000 7.138
20.36000 11.318
20.40000 8.146
20.44000 13.173
20.48000 9.275
20.52000 11.172
20.56000 9.153
20.60000 11.197
20.64000 10.204
20.68000 5.084
20.72000 12.346
20.76000 12.223
20.80000 10.279
20.84000 8.079
20.88000 12.216
20.92000 11.266
20.96000 8.110
21.00000 12.094
21.04000 16.542
21.08000 5.179
21.12000 8.095
21.16000 7.193
21.20000 12.259
21.24000 7.187
21.28000 9.088
21.32000 8.136
21.36000 13.340
21.40000 11.259
21.44000 12.224
21.48000 9.096
21.52000 9.201
21.56000 18.399
21.60000 5.073
21.64000 8.412
21.68000 11.228
21.72000 8.158
21.76000 8.062
21.80000 13.237
21.84000 9.268
21.88000 6.078
21.92000 10.339
21.96000 15.174
22.00000 10.257
22.04000 13.291
22.08000 11.256
22.12000 12.235
22.16000 11.209
22.20000 11.251
22.24000 12.178
22.28000 11.233
22.32000 17.243
22.36000 9.135
22.40000 6.110
22.44000 13.214
22.48000 14.406
22.52000 9.161
22.56000 4.128
22.60000 16.269
22.64000 12.247
22.68000 8.103
22.72000 8.242
22.76000 11.299
22.80000 10.164
22.84000 12.126
22.88000 5.144
22.92000 4.966
22.96000 15.171
23.00000 6.187
23.04000 13.182
23.08000 2.072
23.12000 5.090
23.16000 11.210
23.20000 7.261
23.24000 8.143
23.28000 10.186
23.32000 13.243
23.36000 13.231
23.40000 12.214
23.44000 9.082
23.48000 9.061
23.52000 10.141
23.56000 5.148
23.60000 11.197
23.64000 8.209
23.68000 9.156
23.72000 3.078
23.76000 12.284
23.80000 17.364
23.84000 9.129
23.88000 6.192
23.92000 10.220
23.96000 10.139
24.00000 11.221
24.04000 10.227
24.08000 13.404
24.12000 3.083
24.16000 10.207
24.20000 4.087
24.24000 5.091
24.28000 9.124
24.32000 16.180
24.36000 3.063
24.40000 8.184
24.44000 6.119
24.48000 10.290
24.52000 6.205
24.56000 12.153
24.60000 10.029
24.64000 12.262
24.68000 6.291
24.72000 13.320
24.76000 7.167
24.80000 6.166
24.84000 12.241
24.88000 7.160
24.92000 13.354
24.96000 10.041
25.00000 8.186
25.04000 6.091
25.08000 15.106
25.12000 12.292
25.16000 8.155
25.20000 13.181
25.24000 9.317
25.28000 9.170
25.32000 9.066
25.36000 12.227
25.40000 5.130
25.44000 12.331
25.48000 7.197
25.52000 5.109
25.56000 7.199
25.60000 8.227
25.64000 6.153
25.68000 5.138
25.72000 8.131
25.76000 12.151
25.80000 5.249
25.84000 12.296
25.88000 9.130
25.92000 7.123
25.96000 9.275
26.00000 8.129
26.04000 9.241
26.08000 8.213
26.12000 13.165
26.16000 12.182
26.20000 9.221
26.24000 7.180
26.28000 5.098
26.32000 11.221
26.36000 5.091
26.40000 9.101
26.44000 7.008
26.48000 10.207
26.52000 8.136
26.56000 6.154
26.60000 7.181
26.64000 5.149
26.68000 6.049
26.72000 8.150
26.76000 6.020
26.80000 5.081
26.84000 10.150
26.88000 9.242
26.92000 12.249
26.96000 9.318
27.00000 8.148
27.04000 8.283
27.08000 4.207
27.12000 9.219
27.16000 9.199
27.20000 4.107
27.24000 9.212
27.28000 8.236
27.32000 12.260
27.36000 8.064
27.40000 5.057
27.44000 14.255
27.48000 10.233
27.52000 13.389
27.56000 9.120
27.60000 7.108
27.64000 7.206
27.68000 10.201
27.72000 9.153
27.76000 11.177
27.80000 6.145
27.84000 12.263
27.88000 6.082
27.92000 7.103
27.96000 9.161
28.00000 5.145
28.04000 9.074
28.08000 8.175
28.12000 5.160
28.16000 5.088
28.20000 9.263
28.24000 7.175
28.28000 9.201
28.32000 13.301
28.36000 8.230
28.40000 6.089
28.44000 9.295
28.48000 4.019
28.52000 13.497
28.56000 6.133
28.60000 4.094
28.64000 8.219
28.68000 7.158
28.72000 8.157
28.76000 4.077
28.80000 1.999
28.84000 10.107
28.88000 5.054
28.92000 8.190
28.96000 3.100
29.00000 5.067
29.04000 7.174
29.08000 8.080
29.12000 5.121
29.16000 10.273
29.20000 10.261
29.24000 4.077
29.28000 9.090
29.32000 10.167
29.36000 10.270
29.40000 6.209
29.44000 8.064
29.48000 8.097
29.52000 6.174
29.56000 7.178
29.60000 9.285
29.64000 6.975
29.68000 7.158
29.72000 3.058
29.76000 4.113
29.80000 9.085
29.84000 4.102
29.88000 8.200
29.92000 13.241
29.96000 9.144
30.00000 6.129
30.04000 5.010
30.08000 3.029
30.12000 5.021
30.16000 5.064
30.20000 5.969
30.24000 7.178
30.28000 8.128
30.32000 7.090
30.36000 8.187
30.40000 6.095
30.44000 7.065
30.48000 2.995
30.52000 4.089
30.56000 6.184
30.60000 9.247
30.64000 9.232
30.68000 5.182
30.72000 5.136
30.76000 8.116
30.80000 8.253
30.84000 4.040
30.88000 5.150
30.92000 4.138
30.96000 9.308
31.00000 4.971
31.04000 4.052
31.08000 7.150
31.12000 8.187
31.16000 9.164
31.20000 7.145
31.24000 8.203
31.28000 6.175
31.32000 6.076
31.36000 11.268
31.40000 10.152
31.44000 7.240
31.48000 9.051
31.52000 7.247
31.56000 5.121
31.60000 6.105
31.64000 2.023
31.68000 5.131
31.72000 3.094
31.76000 6.113
31.80000 6.062
31.84000 4.051
31.88000 1.038
31.92000 3.087
31.96000 6.043
32.00000 4.086
32.04000 0.000
32.08000 9.107
32.12000 5.117
32.16000 5.117
32.20000 6.060
32.24000 9.093
32.28000 4.145
32.32000 9.224
32.36000 5.204
32.40000 6.145
32.44000 2.082
32.48000 3.022
32.52000 7.053
32.56000 5.202
32.60000 5.020
32.64000 7.265
32.68000 8.115
32.72000 8.106
32.76000 5.067
32.80000 3.024
32.84000 3.066
32.88000 7.176
32.92000 7.154
32.96000 9.221
33.00000 2.035
33.04000 7.089
33.08000 8.153
33.12000 8.241
33.16000 4.068
33.20000 8.142
33.24000 6.158
33.28000 7.245
33.32000 3.048
33.36000 5.002
33.40000 6.227
33.44000 11.214
33.48000 2.047
33.52000 3.034
33.56000 7.229
33.60000 8.195
33.64000 2.061
33.68000 4.150
33.72000 6.153
33.76000 10.134
33.80000 5.112
33.84000 6.098
33.88000 7.109
33.92000 5.082
33.96000 4.078
34.00000 5.044
34.04000 8.086
34.08000 8.083
34.12000 3.042
34.16000 5.094
34.20000 3.064
34.24000 0.000
34.28000 8.189
34.32000 4.075
34.36000 5.191
34.40000 6.176
34.44000 8.218
34.48000 3.053
34.52000 4.060
34.56000 4.039
34.60000 7.063
34.64000 6.272
34.68000 8.156
34.72000 2.053
34.76000 2.095
34.80000 3.059
34.84000 9.169
34.88000 4.022
34.92000 11.380
34.96000 6.103
35.00000 7.994
35.04000 4.120
35.08000 6.012
35.12000 6.130
35.16000 3.151
35.20000 5.090
35.24000 1.006
35.28000 6.199
35.32000 3.039
35.36000 7.064
35.40000 5.160
35.44000 1.000
35.48000 5.107
35.52000 4.154
35.56000 6.083
35.60000 6.134
35.64000 13.061
35.68000 8.209
35.72000 3.040
35.76000 4.084
35.80000 5.131
35.84000 8.134
35.88000 9.284
35.92000 4.038
35.96000 4.014
36.00000 5.170
36.04000 4.146
36.08000 5.068
36.12000 3.020
36.16000 4.059
36.20000 2.017
36.24000 9.298
36.28000 4.130
36.32000 3.042
36.36000 6.063
36.40000 4.084
36.44000 3.025
36.48000 10.128
36.52000 4.028
36.56000 2.984
36.60000 6.158
36.64000 3.127
36.68000 7.113
36.72000 5.185
36.76000 5.070
36.80000 2.079
36.84000 2.039
36.88000 8.238
36.92000 0.984
36.96000 4.059
37.00000 6.223
37.04000 3.066
37.08000 3.082
37.12000 9.190
37.16000 7.281
37.20000 11.159
37.24000 1.001
37.28000 4.114
37.32000 9.295
37.36000 10.192
37.40000 4.088
37.44000 7.117
37.48000 7.219
37.52000 3.046
37.56000 3.006
37.60000 4.076
37.64000 4.055
37.68000 9.369
37.72000 6.163
37.76000 0.000
37.80000 4.091
37.84000 8.110
37.88000 6.179
37.92000 8.055
37.96000 4.002
38.00000 6.152
38.04000 12.243
38.08000 4.028
38.12000 6.009
38.16000 8.149
38.20000 8.250
38.24000 10.258
38.28000 4.182
38.32000 6.122
38.36000 7.148
38.40000 9.232
38.44000 3.046
38.48000 5.168
38.52000 6.151
38.56000 5.032
38.60000 4.124
38.64000 2.041
38.68000 5.089
38.72000 3.017
38.76000 4.167
38.80000 6.135
38.84000 5.022
38.88000 6.196
38.92000 8.212
38.96000 8.187
39.00000 8.090
39.04000 4.031
39.08000 6.130
39.12000 4.025
39.16000 3.118
39.20000 2.065
39.24000 3.071
39.28000 1.031
39.32000 8.231
39.36000 6.062
39.40000 4.057
39.44000 5.141
39.48000 4.050
39.52000 6.089
39.56000 5.111
39.60000 6.109
39.64000 5.056
39.68000 3.069
39.72000 4.110
39.76000 5.002
39.80000 1.007
39.84000 4.160
39.88000 3.051
39.92000 7.154
39.96000 0.984
40.00000 6.141
40.04000 10.227
40.08000 2.058
40.12000 3.045
40.16000 2.018
40.20000 4.086
40.24000 3.991
40.28000 4.139
40.32000 5.049
40.36000 3.076
40.40000 7.084
40.44000 5.063
40.48000 5.146
40.52000 3.024
40.56000 2.127
40.60000 9.268
40.64000 6.103
40.68000 1.003
40.72000 3.050
40.76000 2.047
40.80000 2.114
40.84000 3.069
40.88000 2.032
40.92000 6.071
40.96000 2.981
41.00000 6.157
41.04000 7.146
41.08000 4.046
41.12000 4.072
41.16000 1.002
41.20000 2.049
41.24000 6.207
41.28000 4.026
41.32000 7.212
41.36000 5.038
41.40000 7.035
41.44000 2.014
41.48000 6.080
41.52000 5.184
41.56000 5.088
41.60000 3.033
41.64000 3.023
41.68000 9.267
41.72000 3.003
41.76000 1.988
41.80000 4.057
41.84000 2.991
41.88000 7.112
41.92000 1.015
41.96000 5.097
42.00000 2.994
42.04000 5.154
42.08000 7.095
42.12000 8.201
42.16000 8.151
42.20000 7.122
42.24000 3.048
42.28000 3.155
42.32000 4.067
42.36000 8.113
42.40000 6.135
42.44000 5.057
42.48000 6.241
42.52000 8.169
42.56000 5.151
42.60000 2.076
42.64000 11.190
42.68000 6.078
42.72000 16.467
42.76000 12.082
42.80000 18.449
42.84000 14.270
42.88000 16.476
42.92000 21.297
42.96000 25.494
43.00000 20.390
43.04000 19.467
43.08000 17.363
43.12000 12.236
43.16000 14.315
43.20000 4.116
43.24000 10.217
43.28000 10.195
43.32000 9.117
43.36000 5.079
43.40000 4.094
43.44000 6.121
43.48000 3.084
43.52000 8.227
43.56000 6.073
43.60000 4.110
43.64000 1.022
43.68000 1.027
43.72000 8.204
43.76000 3.997
43.80000 9.174
43.84000 4.110
43.88000 9.180
43.92000 5.069
43.96000 1.998
44.00000 5.033
44.04000 7.085
44.08000 9.206
44.12000 1.058
44.16000 6.151
44.20000 4.014
44.24000 10.170
44.28000 4.082
44.32000 5.119
44.36000 4.068
44.40000 8.146
44.44000 7.033
44.48000 8.175
44.52000 5.056
44.56000 3.094
44.60000 5.083
44.64000 6.173
44.68000 7.114
44.72000 6.085
44.76000 7.163
44.80000 7.095
44.84000 2.019
44.88000 7.130
44.92000 4.104
44.96000 4.058
45.00000 9.143
45.04000 6.142
45.08000 4.114
45.12000 5.090
45.16000 4.134
45.20000 2.055
45.24000 4.072
45.28000 5.074
45.32000 4.061
45.36000 5.067
45.40000 2.063
45.44000 5.146
45.48000 5.156
45.52000 2.047
45.56000 9.180
45.60000 5.130
45.64000 3.028
45.68000 4.116
45.72000 5.011
45.76000 3.173
45.80000 2.056
45.84000 3.054
45.88000 3.000
45.92000 8.195
45.96000 6.088
46.00000 4.060
46.04000 5.133
46.08000 4.047
46.12000 2.031
46.16000 5.196
46.20000 2.024
46.24000 1.008
46.28000 3.029
46.32000 3.044
46.36000 1.000
46.40000 3.060
46.44000 4.026
46.48000 6.068
46.52000 6.114
46.56000 1.055
46.60000 4.069
46.64000 8.137
46.68000 7.146
46.72000 4.088
46.76000 3.068
46.80000 5.046
46.84000 1.991
46.88000 2.058
46.92000 4.122
46.96000 3.109
47.00000 6.268
47.04000 1.016
47.08000 6.165
47.12000 6.129
47.16000 6.227
47.20000 6.174
47.24000 5.202
47.28000 2.995
47.32000 6.073
47.36000 9.163
47.40000 5.186
47.44000 4.037
47.48000 8.168
47.52000 2.026
47.56000 0.989
47.60000 3.059
47.64000 2.112
47.68000 4.114
47.72000 4.111
47.76000 2.048
47.80000 4.092
47.84000 4.107
47.88000 5.127
47.92000 5.130
47.96000 3.023
48.00000 4.036
48.04000 7.082
48.08000 6.113
48.12000 5.118
48.16000 1.019
48.20000 2.023
48.24000 7.161
48.28000 6.131
48.32000 2.007
48.36000 5.096
48.40000 1.012
48.44000 3.035
48.48000 5.187
48.52000 4.215
48.56000 8.129
48.60000 2.027
48.64000 8.211
48.68000 4.171
48.72000 2.049
48.76000 7.052
48.80000 1.005
48.84000 2.977
48.88000 2.029
48.92000 5.159
48.96000 3.009
49.00000 4.115
49.04000 5.156
49.08000 2.054
49.12000 0.000
49.16000 3.072
49.20000 2.030
49.24000 5.088
49.28000 6.097
49.32000 5.031
49.36000 5.035
49.40000 0.000
49.44000 1.002
49.48000 1.040
49.52000 4.046
49.56000 7.171
49.60000 4.071
49.64000 4.081
49.68000 6.051
49.72000 2.053
49.76000 4.070
49.80000 9.161
49.84000 7.178
49.88000 1.051
49.92000 2.049
49.96000 4.074
50.00000 3.104
50.04000 2.040
50.08000 2.095
50.12000 3.072
50.16000 4.073
50.20000 2.056
50.24000 2.062
50.28000 7.071
50.32000 4.000
50.36000 4.084
50.40000 4.112
50.44000 6.103
50.48000 2.023
50.52000 4.005
50.56000 1.004
50.60000 4.090
50.64000 6.088
50.68000 4.109
50.72000 5.996
50.76000 2.984
50.80000 4.143
50.84000 1.021
50.88000 5.143
50.92000 2.958
50.96000 1.076
51.00000 4.013
51.04000 3.038
51.08000 5.160
51.12000 1.997
51.16000 4.080
51.20000 7.164
51.24000 2.059
51.28000 4.033
51.32000 1.000
51.36000 2.999
51.40000 3.077
51.44000 2.036
51.48000 5.020
51.52000 2.039
51.56000 4.061
51.60000 4.070
51.64000 2.014
51.68000 4.999
51.72000 8.098
51.76000 2.060
51.80000 5.022
51.84000 4.066
51.88000 5.089
51.92000 3.083
51.96000 7.160
52.00000 5.057
52.04000 5.180
52.08000 1.995
52.12000 5.205
52.16000 3.998
52.20000 5.092
52.24000 5.110
52.28000 6.205
52.32000 4.143
52.36000 2.018
52.40000 9.137
52.44000 2.022
52.48000 0.986
52.52000 4.087
52.56000 4.054
52.60000 2.055
52.64000 3.110
52.68000 1.033
52.72000 3.105
52.76000 2.082
52.80000 1.033
52.84000 2.054
52.88000 2.044
52.92000 5.144
52.96000 5.142
53.00000 1.994
53.04000 2.042
53.08000 9.228
53.12000 4.010
53.16000 1.033
53.20000 2.036
53.24000 3.036
53.28000 4.071
53.32000 3.047
53.36000 6.066
53.40000 3.031
53.44000 2.017
53.48000 2.089
53.52000 6.238
53.56000 5.032
53.60000 3.004
53.64000 3.025
53.68000 3.105
53.72000 3.092
53.76000 3.134
53.80000 5.122
53.84000 4.102
53.88000 3.088
53.92000 5.131
53.96000 2.059
54.00000 2.029
54.04000 2.052
54.08000 2.019
54.12000 2.188
54.16000 4.105
54.20000 3.141
54.24000 4.075
54.28000 2.021
54.32000 1.043
54.36000 8.141
54.40000 1.020
54.44000 3.021
54.48000 6.141
54.52000 4.015
54.56000 4.033
54.60000 2.007
54.64000 5.099
54.68000 4.028
54.72000 4.143
54.76000 2.039
54.80000 2.083
54.84000 4.090
54.88000 6.118
54.92000 6.258
54.96000 3.063
55.00000 2.039
55.04000 3.059
55.08000 3.045
55.12000 2.019
55.16000 5.115
55.20000 7.100
55.24000 7.034
55.28000 3.055
55.32000 4.081
55.36000 6.016
55.40000 5.075
55.44000 4.068
55.48000 5.092
55.52000 4.088
55.56000 3.071
55.60000 6.164
55.64000 6.054
55.68000 5.128
55.72000 4.079
55.76000 2.058
55.80000 5.090
55.84000 4.076
55.88000 3.054
55.92000 3.084
55.96000 3.051
56.00000 3.032
56.04000 6.102
56.08000 3.006
56.12000 4.151
56.16000 5.090
56.20000 5.032
56.24000 5.155
56.28000 4.106
56.32000 3.033
56.36000 3.054
56.40000 2.058
56.44000 0.000
56.48000 6.043
56.52000 2.088
56.56000 4.073
56.60000 3.032
56.64000 6.044
56.68000 6.165
56.72000 4.083
56.76000 5.093
56.80000 2.011
56.84000 5.021
56.88000 8.242
56.92000 7.017
56.96000 4.115
57.00000 4.024
57.04000 7.187
57.08000 3.078
57.12000 4.086
57.16000 2.058
57.20000 4.048
57.24000 2.972
57.28000 3.037
57.32000 3.131
57.36000 4.018
57.40000 6.164
57.44000 3.090
57.48000 2.066
57.52000 6.041
57.56000 5.246
57.60000 4.117
57.64000 6.261
57.68000 5.073
57.72000 5.123
57.76000 2.079
57.80000 0.000
57.84000 3.011
57.88000 2.014
57.92000 7.112
57.96000 2.009
58.00000 4.109
58.04000 1.003
58.08000 6.023
58.12000 0.000
58.16000 3.022
58.20000 3.047
58.24000 9.304
58.28000 4.073
58.32000 4.094
58.36000 1.025
58.40000 0.000
58.44000 5.032
58.48000 2.071
58.52000 3.095
58.56000 2.054
58.60000 2.091
58.64000 2.002
58.68000 2.031
58.72000 4.073
58.76000 5.085
58.80000 5.119
58.84000 2.005
58.88000 3.015
58.92000 2.088
58.96000 5.037
59.00000 5.070
59.04000 3.017
59.08000 1.035
59.12000 6.085
59.16000 0.000
59.20000 5.033
59.24000 4.185
59.28000 1.037
59.32000 6.036
59.36000 3.123
59.40000 7.195
59.44000 3.025
59.48000 4.075
59.52000 0.983
59.56000 4.080
59.60000 3.049
59.64000 5.042
59.68000 3.098
59.72000 6.068
59.76000 1.006
59.80000 4.181
59.84000 7.147
59.88000 4.063
59.92000 3.048
59.96000 4.165
60.00000 5.134
60.04000 6.232
60.08000 4.025
60.12000 1.012
60.16000 5.101
60.20000 4.025
60.24000 2.052
60.28000 6.059
60.32000 2.099
60.36000 0.000
60.40000 1.033
60.44000 5.980
60.48000 6.165
60.52000 3.006
60.56000 4.022
60.60000 2.016
60.64000 3.069
60.68000 5.166
60.72000 2.984
60.76000 2.027
60.80000 1.004
60.84000 1.993
60.88000 5.016
60.92000 3.060
60.96000 5.135
61.00000 6.148
61.04000 3.075
61.08000 5.087
61.12000 4.112
61.16000 0.000
61.20000 3.083
61.24000 2.050
61.28000 2.067
61.32000 7.172
61.36000 5.061
61.40000 4.059
61.44000 1.027
61.48000 3.023
61.52000 3.064
61.56000 3.041
61.60000 5.065
61.64000 9.247
61.68000 2.020
61.72000 5.161
61.76000 4.108
61.80000 7.088
61.84000 3.121
61.88000 3.149
61.92000 6.155
61.96000 6.089
62.00000 7.180
62.04000 2.005
62.08000 9.103
62.12000 5.071
62.16000 8.193
62.20000 11.166
62.24000 6.113
62.28000 6.126
62.32000 12.315
62.36000 11.325
62.40000 11.262
62.44000 9.182
62.48000 17.473
62.52000 7.072
62.56000 6.113
62.60000 10.229
62.64000 9.178
62.68000 4.115
62.72000 6.161
62.76000 7.190
62.80000 5.052
62.84000 4.115
62.88000 8.231
62.92000 3.077
62.96000 5.152
63.00000 1.066
63.04000 2.030
63.08000 0.988
63.12000 1.008
63.16000 3.110
63.20000 1.042
63.24000 5.102
63.28000 5.071
63.32000 4.157
63.36000 6.133
63.40000 3.185
63.44000 2.049
63.48000 9.179
63.52000 6.097
63.56000 4.029
63.60000 0.000
63.64000 5.086
63.68000 7.090
63.72000 4.135
63.76000 1.016
63.80000 3.055
63.84000 7.162
63.88000 3.094
63.92000 3.052
63.96000 4.038
64.00000 5.180
64.04000 2.020
64.08000 6.036
64.12000 3.131
64.16000 7.087
64.20000 2.057
64.24000 4.023
64.28000 3.046
64.32000 9.097
64.36000 6.138
64.40000 8.246
64.44000 5.085
64.48000 5.040
64.52000 7.207
64.56000 6.105
64.60000 3.045
64.64000 7.165
64.68000 4.024
64.72000 3.059
64.76000 3.048
64.80000 1.008
64.84000 2.055
64.88000 3.083
64.92000 3.074
64.96000 4.236
65.00000 3.120
65.04000 1.011
65.08000 8.052
65.12000 9.158
65.16000 8.175
65.20000 10.280
65.24000 3.032
65.28000 6.039
65.32000 1.050
65.36000 3.013
65.40000 0.000
65.44000 2.038
65.48000 2.013
65.52000 2.983
65.56000 7.140
65.60000 5.005
65.64000 5.070
65.68000 3.027
65.72000 4.217
65.76000 2.099
65.80000 4.046
65.84000 2.027
65.88000 4.015
65.92000 4.079
65.96000 7.089
66.00000 10.293
66.04000 5.115
66.08000 1.974
66.12000 5.142
66.16000 4.062
66.20000 3.027
66.24000 5.045
66.28000 2.015
66.32000 7.086
66.36000 3.110
66.40000 5.054
66.44000 3.058
66.48000 5.048
66.52000 5.236
66.56000 4.062
66.60000 2.973
66.64000 1.005
66.68000 2.021
66.72000 6.075
66.76000 6.156
66.80000 2.085
66.84000 1.050
66.88000 6.068
66.92000 3.064
66.96000 5.042
67.00000 1.992
67.04000 3.036
67.08000 5.099
67.12000 2.041
67.16000 6.175
67.20000 5.005
67.24000 3.038
67.28000 5.083
67.32000 3.081
67.36000 5.221
67.40000 3.062
67.44000 3.059
67.48000 5.112
67.52000 1.053
67.56000 7.076
67.60000 7.071
67.64000 5.023
67.68000 3.019
67.72000 6.061
67.76000 4.038
67.80000 5.085
67.84000 7.140
67.88000 1.005
67.92000 5.063
67.96000 4.077
68.00000 4.135
68.04000 6.104
68.08000 7.093
68.12000 5.071
68.16000 3.046
68.20000 3.025
68.24000 4.042
68.28000 3.060
68.32000 2.052
68.36000 5.146
68.40000 2.008
68.44000 2.983
68.48000 7.124
68.52000 6.033
68.56000 3.041
68.60000 1.046
68.64000 3.111
68.68000 2.070
68.72000 4.077
68.76000 5.117
68.80000 2.049
68.84000 2.990
68.88000 1.004
68.92000 3.139
68.96000 2.049
69.00000 5.112
69.04000 6.109
69.08000 4.001
69.12000 6.097
69.16000 4.075
69.20000 3.154
69.24000 5.074
69.28000 3.133
69.32000 1.986
69.36000 1.028
69.40000 2.035
69.44000 5.063
69.48000 5.044
69.52000 2.087
69.56000 0.000
69.60000 3.083
69.64000 2.097
69.68000 4.062
69.72000 5.162
69.76000 0.990
69.80000 7.061
69.84000 1.989
69.88000 6.958
69.92000 5.142
69.96000 2.063
70.00000 2.018