File: XRD/Grazing Incidence/XY Data/Dilan_Full_Stack_Training_3_grazing_incidience_Map_001_2_30-000_0-000.xy
30.00000 17.449
30.02000 17.032
30.04000 18.171
30.06000 17.554
30.08000 10.451
30.10000 14.555
30.12000 16.276
30.14000 14.193
30.16000 15.950
30.18000 22.311
30.20000 16.370
30.22000 14.334
30.24000 7.503
30.26000 19.695
30.28000 16.678
30.30000 18.379
30.32000 23.668
30.34000 16.714
30.36000 15.683
30.38000 13.440
30.40000 24.273
30.42000 13.482
30.44000 20.859
30.46000 15.186
30.48000 17.520
30.50000 9.816
30.52000 13.767
30.54000 18.589
30.56000 13.186
30.58000 21.087
30.60000 16.937
30.62000 16.681
30.64000 11.059
30.66000 14.224
30.68000 20.404
30.70000 21.947
30.72000 19.300
30.74000 23.191
30.76000 26.613
30.78000 19.028
30.80000 19.588
30.82000 17.022
30.84000 23.847
30.86000 29.161
30.88000 27.950
30.90000 24.092
30.92000 22.418
30.94000 28.212
30.96000 29.663
30.98000 35.057
31.00000 29.695
31.02000 36.167
31.04000 42.295
31.06000 56.358
31.08000 42.318
31.10000 66.532
31.12000 68.749
31.14000 69.586
31.16000 110.095
31.18000 115.297
31.20000 98.366
31.22000 154.425
31.24000 160.361
31.26000 199.795
31.28000 240.182
31.30000 259.662
31.32000 287.649
31.34000 304.486
31.36000 370.060
31.38000 359.721
31.40000 430.753
31.42000 429.906
31.44000 415.786
31.46000 441.205
31.48000 462.324
31.50000 462.850
31.52000 406.275
31.54000 423.078
31.56000 364.025
31.58000 321.222
31.60000 313.437
31.62000 295.562
31.64000 257.758
31.66000 231.245
31.68000 179.801
31.70000 149.607
31.72000 114.350
31.74000 104.785
31.76000 94.747
31.78000 78.060
31.80000 48.469
31.82000 48.413
31.84000 35.092
31.86000 37.900
31.88000 43.159
31.90000 22.933
31.92000 25.122
31.94000 21.334
31.96000 24.329
31.98000 12.684
32.00000 30.330
32.02000 23.483
32.04000 21.417
32.06000 15.173
32.08000 19.713
32.10000 14.910
32.12000 19.593
32.14000 11.900
32.16000 14.894
32.18000 17.894
32.20000 17.742
32.22000 12.303
32.24000 18.745
32.26000 13.537
32.28000 13.239
32.30000 12.607
32.32000 18.750
32.34000 10.474
32.36000 14.966
32.38000 20.594
32.40000 11.193
32.42000 16.370
32.44000 6.749
32.46000 12.579
32.48000 12.440
32.50000 11.828
32.52000 7.146
32.54000 8.487
32.56000 15.083
32.58000 11.538
32.60000 10.407
32.62000 9.505
32.64000 10.092
32.66000 7.136
32.68000 7.756
32.70000 8.802
32.72000 6.389
32.74000 7.426
32.76000 13.185
32.78000 16.298
32.80000 11.184
32.82000 11.914
32.84000 12.390
32.86000 8.212
32.88000 6.092
32.90000 8.092
32.92000 11.165
32.94000 11.283
32.96000 7.411
32.98000 5.369
33.00000 7.745
33.02000 4.509
33.04000 11.279
33.06000 9.172
33.08000 7.134
33.10000 10.585
33.12000 4.376
33.14000 8.240
33.16000 5.004
33.18000 11.707
33.20000 7.183
33.22000 8.876
33.24000 8.080
33.26000 3.356
33.28000 5.211
33.30000 7.446
33.32000 7.513
33.34000 7.127
33.36000 12.231
33.38000 1.983
33.40000 11.345
33.42000 8.420
33.44000 4.385
33.46000 10.112
33.48000 9.306
33.50000 8.109
33.52000 6.715
33.54000 9.354
33.56000 11.255
33.58000 4.143
33.60000 10.862
33.62000 7.189
33.64000 7.743
33.66000 4.124
33.68000 13.489
33.70000 6.039
33.72000 3.813
33.74000 3.659
33.76000 7.215
33.78000 5.107
33.80000 7.449
33.82000 7.106
33.84000 6.109
33.86000 10.209
33.88000 7.193
33.90000 8.140
33.92000 12.591
33.94000 7.161
33.96000 8.387
33.98000 8.984
34.00000 10.163
34.02000 5.406
34.04000 7.042
34.06000 2.079
34.08000 7.155
34.10000 5.054
34.12000 13.105
34.14000 10.083
34.16000 8.121
34.18000 3.380
34.20000 5.450
34.22000 6.492
34.24000 6.118
34.26000 8.153
34.28000 4.035
34.30000 2.973
34.32000 16.036
34.34000 5.511
34.36000 5.173
34.38000 3.372
34.40000 7.213
34.42000 7.469
34.44000 8.156
34.46000 7.837
34.48000 6.023
34.50000 6.077
34.52000 9.082
34.54000 5.419
34.56000 11.262
34.58000 5.557
34.60000 7.350
34.62000 7.541
34.64000 4.151
34.66000 6.826
34.68000 6.209
34.70000 7.079
34.72000 10.148
34.74000 11.542
34.76000 6.477
34.78000 9.503
34.80000 6.333
34.82000 4.008
34.84000 7.338
34.86000 8.163
34.88000 8.433
34.90000 6.092
34.92000 7.420
34.94000 14.304
34.96000 6.129
34.98000 10.995
35.00000 6.166
35.02000 12.414
35.04000 7.143
35.06000 5.029
35.08000 5.090
35.10000 3.363
35.12000 12.144
35.14000 6.780
35.16000 6.209
35.18000 5.086
35.20000 2.078
35.22000 8.778
35.24000 3.154
35.26000 5.056
35.28000 5.742
35.30000 3.083
35.32000 2.402
35.34000 4.036
35.36000 4.031
35.38000 8.453
35.40000 7.168
35.42000 3.076
35.44000 5.066
35.46000 10.151
35.48000 7.199
35.50000 5.444
35.52000 6.803
35.54000 6.038
35.56000 5.044
35.58000 8.054
35.60000 1.340
35.62000 4.383
35.64000 5.333
35.66000 8.535
35.68000 6.390
35.70000 8.098
35.72000 2.056
35.74000 4.124
35.76000 5.432
35.78000 5.058
35.80000 5.536
35.82000 9.476
35.84000 3.125
35.86000 7.441
35.88000 9.060
35.90000 2.060
35.92000 6.076
35.94000 8.452
35.96000 7.054
35.98000 5.068
36.00000 12.217
36.02000 6.024
36.04000 6.298
36.06000 6.121
36.08000 5.632
36.10000 5.410
36.12000 6.165
36.14000 6.009
36.16000 9.046
36.18000 8.206
36.20000 8.412
36.22000 9.198
36.24000 4.087
36.26000 9.109
36.28000 5.118
36.30000 3.065
36.32000 9.392
36.34000 0.975
36.36000 5.407
36.38000 5.035
36.40000 8.351
36.42000 7.701
36.44000 8.116
36.46000 8.065
36.48000 5.063
36.50000 3.400
36.52000 7.052
36.54000 8.149
36.56000 4.046
36.58000 1.756
36.60000 5.402
36.62000 6.102
36.64000 1.358
36.66000 8.533
36.68000 5.501
36.70000 7.478
36.72000 4.100
36.74000 3.091
36.76000 5.478
36.78000 5.107
36.80000 6.069
36.82000 8.508
36.84000 8.220
36.86000 7.011
36.88000 6.426
36.90000 2.069
36.92000 6.504
36.94000 5.370
36.96000 9.206
36.98000 3.035
37.00000 8.154
37.02000 9.588
37.04000 9.625
37.06000 5.406
37.08000 6.199
37.10000 6.065
37.12000 12.517
37.14000 7.401
37.16000 5.099
37.18000 7.663
37.20000 2.020
37.22000 9.037
37.24000 11.216
37.26000 6.206
37.28000 5.110
37.30000 11.233
37.32000 11.136
37.34000 8.057
37.36000 9.430
37.38000 8.288
37.40000 6.474
37.42000 5.763
37.44000 7.573
37.46000 8.161
37.48000 7.671
37.50000 11.224
37.52000 7.091
37.54000 8.120
37.56000 9.133
37.58000 11.225
37.60000 10.062
37.62000 4.813
37.64000 10.899
37.66000 7.069
37.68000 5.081
37.70000 4.113
37.72000 9.416
37.74000 7.365
37.76000 4.733
37.78000 12.512
37.80000 8.187
37.82000 9.413
37.84000 2.052
37.86000 9.845
37.88000 8.037
37.90000 3.754
37.92000 7.396
37.94000 10.823
37.96000 10.204
37.98000 1.024
38.00000 10.234
38.02000 6.154
38.04000 9.160
38.06000 6.559
38.08000 7.221
38.10000 5.101
38.12000 6.463
38.14000 7.155
38.16000 6.370
38.18000 6.120
38.20000 9.445
38.22000 10.133
38.24000 5.042
38.26000 7.088
38.28000 12.101
38.30000 10.400
38.32000 12.512
38.34000 9.153
38.36000 13.612
38.38000 15.196
38.40000 9.160
38.42000 13.218
38.44000 14.213
38.46000 25.026
38.48000 20.024
38.50000 17.222
38.52000 32.360
38.54000 26.516
38.56000 38.446
38.58000 45.702
38.60000 62.532
38.62000 60.874
38.64000 88.707
38.66000 94.287
38.68000 107.894
38.70000 110.127
38.72000 113.142
38.74000 104.024
38.76000 123.886
38.78000 139.912
38.80000 158.837
38.82000 159.862
38.84000 176.626
38.86000 149.021
38.88000 112.526
38.90000 131.715
38.92000 118.192
38.94000 127.246
38.96000 107.977
38.98000 96.692
39.00000 82.590
39.02000 84.893
39.04000 50.423
39.06000 73.795
39.08000 42.735
39.10000 29.073
39.12000 23.153
39.14000 21.230
39.16000 19.928
39.18000 19.644
39.20000 25.374
39.22000 7.421
39.24000 15.190
39.26000 7.847
39.28000 12.868
39.30000 11.538
39.32000 6.012
39.34000 14.196
39.36000 9.181
39.38000 8.566
39.40000 9.591
39.42000 5.351
39.44000 10.717
39.46000 7.057
39.48000 4.657
39.50000 3.105
39.52000 4.057
39.54000 8.469
39.56000 4.015
39.58000 8.446
39.60000 7.195
39.62000 5.085
39.64000 8.215
39.66000 6.053
39.68000 7.183
39.70000 9.086
39.72000 6.117
39.74000 6.149
39.76000 5.329
39.78000 11.186
39.80000 5.010
39.82000 1.036
39.84000 4.969
39.86000 6.392
39.88000 4.525
39.90000 7.286
39.92000 7.104
39.94000 8.204
39.96000 7.187
39.98000 4.769
40.00000 7.007
40.02000 7.079
40.04000 7.047
40.06000 6.436
40.08000 8.219
40.10000 5.367
40.12000 6.397
40.14000 4.076
40.16000 3.982
40.18000 7.185
40.20000 10.520
40.22000 3.065
40.24000 7.739
40.26000 5.381
40.28000 2.041
40.30000 11.193
40.32000 5.350
40.34000 2.984
40.36000 8.146
40.38000 2.022
40.40000 8.063
40.42000 2.039
40.44000 8.170
40.46000 3.073
40.48000 3.116
40.50000 6.126
40.52000 4.054
40.54000 3.040
40.56000 6.086
40.58000 5.093
40.60000 6.104
40.62000 4.102
40.64000 6.142
40.66000 2.067
40.68000 6.108
40.70000 2.041
40.72000 3.398
40.74000 3.012
40.76000 6.476
40.78000 7.034
40.80000 6.129
40.82000 5.000
40.84000 6.395
40.86000 4.025
40.88000 5.102
40.90000 7.131
40.92000 6.124
40.94000 5.470
40.96000 5.967
40.98000 3.413
41.00000 3.129
41.02000 3.106
41.04000 2.377
41.06000 4.370
41.08000 5.055
41.10000 9.263
41.12000 4.055
41.14000 3.476
41.16000 0.000
41.18000 5.119
41.20000 9.143
41.22000 4.102
41.24000 4.749
41.26000 2.020
41.28000 5.081
41.30000 6.083
41.32000 4.361
41.34000 3.052
41.36000 0.000
41.38000 6.124
41.40000 7.146
41.42000 7.434
41.44000 8.154
41.46000 3.071
41.48000 6.158
41.50000 8.068
41.52000 2.357
41.54000 5.138
41.56000 7.397
41.58000 3.076
41.60000 5.488
41.62000 2.369
41.64000 6.471
41.66000 1.319
41.68000 3.028
41.70000 3.080
41.72000 6.456
41.74000 5.110
41.76000 5.993
41.78000 5.128
41.80000 1.338
41.82000 4.968
41.84000 9.125
41.86000 2.003
41.88000 3.043
41.90000 3.074
41.92000 4.053
41.94000 1.048
41.96000 5.058
41.98000 2.359
42.00000 5.030
42.02000 7.079
42.04000 4.392
42.06000 4.057
42.08000 4.117
42.10000 1.381
42.12000 5.420
42.14000 9.493
42.16000 4.043
42.18000 5.445
42.20000 5.080
42.22000 6.105
42.24000 5.717
42.26000 4.050
42.28000 7.177
42.30000 6.459
42.32000 5.279
42.34000 0.995
42.36000 4.084
42.38000 6.073
42.40000 6.041
42.42000 6.131
42.44000 3.028
42.46000 5.003
42.48000 5.444
42.50000 4.064
42.52000 4.391
42.54000 7.538
42.56000 4.425
42.58000 1.665
42.60000 5.149
42.62000 9.146
42.64000 6.067
42.66000 8.108
42.68000 4.059
42.70000 1.339
42.72000 4.379
42.74000 7.109
42.76000 4.769
42.78000 2.040
42.80000 3.078
42.82000 6.102
42.84000 10.091
42.86000 7.524
42.88000 8.150
42.90000 6.175
42.92000 7.486
42.94000 6.055
42.96000 3.087
42.98000 8.157
43.00000 2.066
43.02000 6.389
43.04000 10.125
43.06000 8.228
43.08000 5.344
43.10000 3.387
43.12000 6.117
43.14000 7.157
43.16000 6.162
43.18000 8.128
43.20000 3.370
43.22000 6.039
43.24000 3.043
43.26000 1.019
43.28000 0.985
43.30000 3.065
43.32000 4.058
43.34000 2.018
43.36000 4.004
43.38000 5.465
43.40000 5.094
43.42000 5.013
43.44000 8.155
43.46000 3.095
43.48000 5.368
43.50000 5.025
43.52000 5.995
43.54000 3.028
43.56000 9.869
43.58000 5.683
43.60000 7.162
43.62000 7.991
43.64000 5.782
43.66000 0.999
43.68000 8.137
43.70000 3.007
43.72000 5.035
43.74000 7.155
43.76000 6.399
43.78000 2.093
43.80000 4.372
43.82000 3.059
43.84000 7.115
43.86000 2.038
43.88000 3.117
43.90000 2.390
43.92000 7.180
43.94000 3.998
43.96000 6.017
43.98000 9.117
44.00000 4.373
44.02000 3.370
44.04000 4.015
44.06000 9.178
44.08000 4.048
44.10000 4.474
44.12000 3.401
44.14000 4.088
44.16000 7.393
44.18000 11.629
44.20000 6.136
44.22000 7.542
44.24000 6.990
44.26000 5.112
44.28000 9.227
44.30000 6.128
44.32000 7.076
44.34000 7.178
44.36000 9.509
44.38000 5.126
44.40000 7.447
44.42000 10.459
44.44000 5.809
44.46000 16.329
44.48000 7.748
44.50000 2.401
44.52000 10.480
44.54000 8.560
44.56000 11.103
44.58000 17.160
44.60000 10.396
44.62000 14.666
44.64000 18.191
44.66000 23.525
44.68000 11.900
44.70000 15.588
44.72000 22.032
44.74000 14.192
44.76000 19.995
44.78000 28.130
44.80000 27.434
44.82000 38.467
44.84000 35.398
44.86000 35.520
44.88000 45.958
44.90000 38.559
44.92000 43.035
44.94000 66.989
44.96000 67.573
44.98000 81.429
45.00000 77.021
45.02000 78.838
45.04000 77.809
45.06000 102.206
45.08000 91.451
45.10000 121.167
45.12000 93.937
45.14000 81.763
45.16000 72.910
45.18000 79.630
45.20000 48.659
45.22000 78.924
45.24000 77.286
45.26000 55.567
45.28000 50.963
45.30000 42.335
45.32000 34.575
45.34000 52.357
45.36000 20.968
45.38000 32.689
45.40000 28.328
45.42000 20.029
45.44000 25.298
45.46000 22.185
45.48000 13.911
45.50000 17.451
45.52000 16.372
45.54000 11.528
45.56000 11.197
45.58000 10.168
45.60000 8.195
45.62000 16.344
45.64000 4.038
45.66000 8.448
45.68000 7.077
45.70000 7.383
45.72000 8.112
45.74000 7.135
45.76000 3.312
45.78000 10.349
45.80000 5.120
45.82000 5.397
45.84000 3.745
45.86000 2.367
45.88000 9.315
45.90000 5.162
45.92000 3.315
45.94000 6.070
45.96000 3.052
45.98000 5.134
46.00000 8.520
46.02000 6.399
46.04000 4.041
46.06000 10.086
46.08000 4.402
46.10000 6.225
46.12000 5.111
46.14000 0.000
46.16000 8.117
46.18000 6.133
46.20000 1.979
46.22000 4.091
46.24000 3.390
46.26000 5.487
46.28000 5.405
46.30000 3.996
46.32000 5.064
46.34000 3.019
46.36000 5.038
46.38000 3.079
46.40000 1.036
46.42000 0.000
46.44000 4.378
46.46000 2.060
46.48000 6.411
46.50000 3.038
46.52000 5.113
46.54000 0.971
46.56000 2.317
46.58000 1.003
46.60000 3.392
46.62000 6.424
46.64000 2.010
46.66000 4.078
46.68000 5.428
46.70000 3.958
46.72000 6.073
46.74000 2.366
46.76000 5.154
46.78000 5.142
46.80000 8.086
46.82000 4.020
46.84000 4.043
46.86000 5.066
46.88000 2.286
46.90000 4.108
46.92000 4.088
46.94000 7.413
46.96000 7.395
46.98000 6.103
47.00000 4.056