File: XRD/XRD/24-09-2025 Dep 3/XY Data/BTO_Mapping_Theta2Theta_24-09-2025_001_34_-9-781_-2-079.xy
20.00000 576.839
20.04000 550.206
20.08000 570.508
20.12000 558.520
20.16000 580.123
20.20000 546.458
20.24000 554.849
20.28000 553.872
20.32000 569.034
20.36000 575.644
20.40000 559.896
20.44000 541.992
20.48000 559.056
20.52000 570.822
20.56000 586.263
20.60000 562.983
20.64000 556.221
20.68000 554.858
20.72000 558.714
20.76000 549.499
20.80000 559.538
20.84000 553.496
20.88000 548.744
20.92000 554.518
20.96000 551.060
21.00000 559.612
21.04000 570.099
21.08000 553.388
21.12000 545.622
21.16000 532.898
21.20000 558.725
21.24000 563.291
21.28000 550.507
21.32000 551.720
21.36000 548.679
21.40000 544.606
21.44000 546.342
21.48000 540.578
21.52000 539.848
21.56000 533.702
21.60000 537.379
21.64000 561.837
21.68000 552.151
21.72000 582.267
21.76000 603.025
21.80000 606.479
21.84000 637.601
21.88000 673.830
21.92000 719.854
21.96000 777.300
22.00000 762.934
22.04000 793.704
22.08000 792.395
22.12000 766.864
22.16000 748.294
22.20000 689.551
22.24000 674.808
22.28000 622.205
22.32000 606.171
22.36000 585.987
22.40000 603.703
22.44000 562.295
22.48000 558.642
22.52000 560.968
22.56000 536.938
22.60000 541.823
22.64000 529.779
22.68000 507.983
22.72000 535.891
22.76000 516.468
22.80000 520.968
22.84000 526.030
22.88000 518.820
22.92000 520.284
22.96000 516.392
23.00000 494.422
23.04000 508.242
23.08000 500.615
23.12000 521.449
23.16000 512.333
23.20000 507.516
23.24000 516.753
23.28000 507.883
23.32000 503.013
23.36000 505.104
23.40000 494.438
23.44000 504.883
23.48000 513.718
23.52000 478.700
23.56000 499.034
23.60000 496.184
23.64000 483.529
23.68000 487.744
23.72000 491.421
23.76000 499.772
23.80000 496.090
23.84000 500.455
23.88000 495.220
23.92000 507.722
23.96000 485.003
24.00000 486.213
24.04000 467.932
24.08000 488.398
24.12000 486.537
24.16000 480.594
24.20000 490.522
24.24000 491.276
24.28000 481.707
24.32000 487.207
24.36000 492.319
24.40000 488.417
24.44000 493.853
24.48000 485.684
24.52000 487.666
24.56000 477.669
24.60000 480.594
24.64000 470.889
24.68000 473.465
24.72000 511.221
24.76000 475.853
24.80000 465.027
24.84000 470.234
24.88000 475.341
24.92000 473.623
24.96000 481.956
25.00000 481.306
25.04000 467.466
25.08000 472.252
25.12000 467.798
25.16000 464.054
25.20000 475.384
25.24000 476.539
25.28000 462.364
25.32000 467.827
25.36000 468.356
25.40000 482.077
25.44000 477.717
25.48000 476.364
25.52000 451.888
25.56000 466.264
25.60000 468.564
25.64000 476.445
25.68000 476.875
25.72000 458.537
25.76000 462.150
25.80000 473.055
25.84000 453.010
25.88000 465.863
25.92000 445.638
25.96000 454.535
26.00000 455.185
26.04000 458.619
26.08000 450.790
26.12000 450.712
26.16000 447.613
26.20000 435.536
26.24000 454.574
26.28000 453.607
26.32000 447.792
26.36000 446.896
26.40000 448.070
26.44000 453.823
26.48000 445.104
26.52000 458.372
26.56000 464.361
26.60000 451.780
26.64000 458.123
26.68000 428.404
26.72000 462.546
26.76000 448.500
26.80000 440.201
26.84000 467.664
26.88000 463.007
26.92000 452.683
26.96000 443.230
27.00000 429.651
27.04000 443.282
27.08000 421.502
27.12000 447.009
27.16000 449.247
27.20000 452.654
27.24000 432.532
27.28000 439.040
27.32000 448.390
27.36000 452.357
27.40000 428.776
27.44000 431.414
27.48000 437.610
27.52000 446.087
27.56000 448.659
27.60000 434.532
27.64000 428.393
27.68000 423.689
27.72000 412.893
27.76000 439.872
27.80000 430.112
27.84000 418.266
27.88000 417.654
27.92000 446.099
27.96000 457.787
28.00000 435.969
28.04000 419.869
28.08000 445.336
28.12000 436.273
28.16000 427.113
28.20000 418.568
28.24000 438.400
28.28000 449.447
28.32000 444.083
28.36000 424.230
28.40000 441.533
28.44000 429.705
28.48000 410.735
28.52000 417.062
28.56000 426.875
28.60000 431.279
28.64000 420.503
28.68000 420.601
28.72000 419.059
28.76000 411.665
28.80000 409.722
28.84000 416.226
28.88000 418.819
28.92000 422.291
28.96000 404.007
29.00000 406.473
29.04000 413.007
29.08000 415.467
29.12000 406.321
29.16000 422.262
29.20000 399.349
29.24000 398.641
29.28000 411.532
29.32000 420.943
29.36000 415.500
29.40000 433.408
29.44000 423.776
29.48000 410.491
29.52000 419.641
29.56000 419.442
29.60000 425.288
29.64000 414.995
29.68000 439.054
29.72000 410.189
29.76000 423.504
29.80000 444.065
29.84000 435.513
29.88000 437.078
29.92000 437.671
29.96000 449.539
30.00000 472.122
30.04000 453.268
30.08000 466.452
30.12000 461.183
30.16000 460.319
30.20000 455.631
30.24000 442.743
30.28000 423.258
30.32000 423.379
30.36000 426.967
30.40000 412.751
30.44000 432.068
30.48000 423.099
30.52000 430.778
30.56000 432.932
30.60000 451.747
30.64000 423.851
30.68000 443.360
30.72000 445.511
30.76000 461.299
30.80000 474.964
30.84000 471.946
30.88000 503.660
30.92000 533.028
30.96000 585.918
31.00000 629.472
31.04000 753.287
31.08000 893.332
31.12000 1122.726
31.16000 1429.451
31.20000 1925.199
31.24000 2390.604
31.28000 2884.415
31.32000 3331.106
31.36000 3596.278
31.40000 3634.125
31.44000 3421.305
31.48000 2987.683
31.52000 2506.033
31.56000 1934.114
31.60000 1506.786
31.64000 1156.412
31.68000 904.596
31.72000 766.822
31.76000 641.790
31.80000 569.792
31.84000 530.183
31.88000 471.908
31.92000 475.526
31.96000 451.612
32.00000 432.259
32.04000 424.139
32.08000 429.713
32.12000 429.110
32.16000 414.376
32.20000 411.278
32.24000 420.050
32.28000 393.633
32.32000 392.035
32.36000 404.668
32.40000 389.593
32.44000 389.217
32.48000 381.808
32.52000 375.316
32.56000 389.300
32.60000 383.014
32.64000 387.291
32.68000 371.929
32.72000 377.134
32.76000 386.893
32.80000 400.450
32.84000 467.580
32.88000 504.707
32.92000 522.963
32.96000 524.587
33.00000 524.781
33.04000 479.502
33.08000 423.506
33.12000 383.429
33.16000 376.839
33.20000 361.496
33.24000 347.638
33.28000 341.085
33.32000 357.149
33.36000 350.213
33.40000 363.049
33.44000 347.509
33.48000 342.234
33.52000 321.988
33.56000 350.052
33.60000 343.432
33.64000 350.397
33.68000 332.853
33.72000 337.770
33.76000 344.648
33.80000 331.802
33.84000 339.483
33.88000 332.452
33.92000 336.385
33.96000 340.167
34.00000 345.343
34.04000 321.489
34.08000 333.697
34.12000 338.492
34.16000 336.926
34.20000 333.389
34.24000 321.591
34.28000 336.750
34.32000 321.857
34.36000 306.748
34.40000 343.385
34.44000 350.305
34.48000 334.092
34.52000 322.756
34.56000 343.491
34.60000 321.161
34.64000 325.022
34.68000 331.978
34.72000 320.956
34.76000 312.958
34.80000 334.417
34.84000 318.203
34.88000 323.932
34.92000 312.653
34.96000 305.611
35.00000 320.630
35.04000 313.477
35.08000 316.104
35.12000 315.537
35.16000 315.341
35.20000 321.059
35.24000 320.935
35.28000 323.798
35.32000 309.739
35.36000 302.632
35.40000 313.632
35.44000 316.857
35.48000 308.317
35.52000 322.237
35.56000 312.158
35.60000 294.828
35.64000 314.470
35.68000 307.852
35.72000 303.819
35.76000 313.457
35.80000 301.892
35.84000 310.142
35.88000 308.987
35.92000 307.461
35.96000 302.878
36.00000 300.456
36.04000 315.187
36.08000 304.836
36.12000 304.582
36.16000 302.091
36.20000 313.164
36.24000 296.808
36.28000 300.996
36.32000 306.629
36.36000 306.455
36.40000 308.596
36.44000 298.652
36.48000 302.959
36.52000 294.046
36.56000 300.412
36.60000 317.039
36.64000 286.243
36.68000 290.346
36.72000 300.911
36.76000 292.194
36.80000 304.047
36.84000 309.622
36.88000 311.210
36.92000 315.799
36.96000 313.924
37.00000 314.492
37.04000 302.605
37.08000 302.403
37.12000 291.266
37.16000 304.542
37.20000 303.463
37.24000 306.508
37.28000 297.669
37.32000 317.123
37.36000 295.802
37.40000 302.378
37.44000 301.265
37.48000 302.635
37.52000 301.225
37.56000 285.861
37.60000 307.942
37.64000 283.108
37.68000 289.896
37.72000 293.245
37.76000 297.964
37.80000 301.584
37.84000 287.466
37.88000 299.238
37.92000 305.520
37.96000 289.194
38.00000 298.321
38.04000 280.689
38.08000 308.680
38.12000 322.885
38.16000 304.448
38.20000 317.914
38.24000 321.196
38.28000 346.017
38.32000 358.060
38.36000 392.956
38.40000 449.630
38.44000 517.702
38.48000 610.828
38.52000 790.524
38.56000 953.218
38.60000 1135.665
38.64000 1269.210
38.68000 1363.514
38.72000 1360.450
38.76000 1305.754
38.80000 1140.224
38.84000 970.912
38.88000 784.182
38.92000 611.319
38.96000 498.618
39.00000 403.373
39.04000 368.123
39.08000 341.190
39.12000 312.067
39.16000 310.897
39.20000 298.090
39.24000 308.852
39.28000 298.730
39.32000 307.336
39.36000 273.433
39.40000 273.279
39.44000 290.427
39.48000 269.610
39.52000 283.207
39.56000 276.636
39.60000 275.919
39.64000 278.049
39.68000 268.625
39.72000 283.891
39.76000 277.186
39.80000 283.100
39.84000 265.181
39.88000 280.930
39.92000 279.414
39.96000 270.441
40.00000 271.433
40.04000 269.809
40.08000 270.240
40.12000 267.440
40.16000 263.343
40.20000 276.038
40.24000 256.692
40.28000 266.351
40.32000 249.591
40.36000 259.769
40.40000 253.678
40.44000 257.705
40.48000 259.475
40.52000 260.958
40.56000 251.052
40.60000 250.404
40.64000 256.390
40.68000 248.479
40.72000 250.261
40.76000 255.091
40.80000 241.754
40.84000 251.556
40.88000 257.187
40.92000 246.213
40.96000 233.573
41.00000 230.555
41.04000 253.246
41.08000 252.469
41.12000 258.045
41.16000 254.128
41.20000 255.607
41.24000 236.572
41.28000 247.078
41.32000 247.038
41.36000 247.581
41.40000 241.606
41.44000 239.848
41.48000 242.155
41.52000 243.090
41.56000 240.526
41.60000 239.921
41.64000 247.844
41.68000 246.616
41.72000 237.830
41.76000 246.109
41.80000 240.625
41.84000 228.303
41.88000 247.244
41.92000 233.666
41.96000 243.109
42.00000 245.905
42.04000 238.967
42.08000 248.688
42.12000 234.482
42.16000 230.123
42.20000 235.602
42.24000 240.412
42.28000 235.890
42.32000 235.951
42.36000 231.519
42.40000 235.319
42.44000 225.743
42.48000 238.034
42.52000 237.881
42.56000 237.789
42.60000 230.712
42.64000 233.484
42.68000 235.474
42.72000 247.462
42.76000 234.919
42.80000 228.807
42.84000 233.740
42.88000 237.222
42.92000 233.815
42.96000 233.967
43.00000 223.364
43.04000 230.183
43.08000 233.907
43.12000 235.190
43.16000 232.232
43.20000 230.706
43.24000 225.932
43.28000 229.822
43.32000 227.036
43.36000 225.700
43.40000 218.268
43.44000 230.156
43.48000 232.432
43.52000 203.559
43.56000 223.264
43.60000 210.190
43.64000 214.104
43.68000 216.768
43.72000 213.332
43.76000 223.379
43.80000 217.448
43.84000 216.005
43.88000 215.135
43.92000 214.400
43.96000 224.226
44.00000 235.901
44.04000 212.560
44.08000 222.002
44.12000 222.162
44.16000 218.218
44.20000 232.500
44.24000 230.860
44.28000 221.464
44.32000 222.054
44.36000 233.099
44.40000 224.892
44.44000 228.712
44.48000 233.856
44.52000 241.219
44.56000 229.922
44.60000 230.757
44.64000 246.234
44.68000 246.904
44.72000 262.033
44.76000 280.191
44.80000 285.531
44.84000 315.396
44.88000 353.825
44.92000 380.535
44.96000 403.220
45.00000 431.896
45.04000 422.177
45.08000 427.569
45.12000 409.839
45.16000 404.056
45.20000 373.416
45.24000 371.854
45.28000 355.717
45.32000 329.691
45.36000 313.164
45.40000 300.273
45.44000 277.007
45.48000 283.197
45.52000 270.096
45.56000 272.077
45.60000 256.274
45.64000 262.692
45.68000 243.622
45.72000 244.719
45.76000 238.298
45.80000 225.881
45.84000 226.993
45.88000 225.248
45.92000 217.816
45.96000 226.213
46.00000 223.841
46.04000 214.855
46.08000 220.985
46.12000 213.533
46.16000 205.057
46.20000 216.502
46.24000 209.685
46.28000 200.340
46.32000 223.070
46.36000 206.817
46.40000 208.679
46.44000 198.193
46.48000 196.928
46.52000 199.855
46.56000 202.522
46.60000 204.155
46.64000 203.591
46.68000 200.778
46.72000 201.188
46.76000 205.565
46.80000 199.927
46.84000 197.836
46.88000 196.789
46.92000 198.609
46.96000 193.668
47.00000 198.288
47.04000 197.560
47.08000 193.196
47.12000 197.082
47.16000 193.006
47.20000 199.941
47.24000 202.516
47.28000 197.686
47.32000 205.147
47.36000 197.530
47.40000 188.966
47.44000 181.485
47.48000 187.296
47.52000 203.271
47.56000 186.150
47.60000 187.280
47.64000 191.195
47.68000 190.966
47.72000 181.472
47.76000 189.380
47.80000 188.310
47.84000 180.323
47.88000 182.895
47.92000 192.091
47.96000 178.515
48.00000 180.880
48.04000 194.355
48.08000 185.765
48.12000 185.497
48.16000 184.100
48.20000 179.947
48.24000 183.425
48.28000 169.396
48.32000 176.523
48.36000 183.090
48.40000 182.647
48.44000 185.248
48.48000 180.411
48.52000 184.759
48.56000 182.335
48.60000 161.635
48.64000 183.297
48.68000 173.052
48.72000 168.190
48.76000 179.637
48.80000 181.302
48.84000 180.482
48.88000 189.722
48.92000 181.869
48.96000 178.150
49.00000 184.169
49.04000 178.014
49.08000 181.035
49.12000 182.054
49.16000 183.146
49.20000 182.398
49.24000 182.746
49.28000 175.894
49.32000 188.321
49.36000 172.170
49.40000 184.708
49.44000 175.075
49.48000 171.469
49.52000 172.221
49.56000 170.655
49.60000 174.323
49.64000 171.911
49.68000 171.874
49.72000 174.332
49.76000 174.052
49.80000 177.091
49.84000 178.734
49.88000 172.781
49.92000 180.204
49.96000 170.453
50.00000 173.880
50.04000 175.271
50.08000 184.809
50.12000 182.211
50.16000 193.284
50.20000 184.137
50.24000 178.105
50.28000 182.094
50.32000 184.442
50.36000 199.428
50.40000 197.352
50.44000 205.570
50.48000 222.754
50.52000 229.208
50.56000 250.831
50.60000 264.094
50.64000 273.236
50.68000 284.562
50.72000 279.883
50.76000 267.682
50.80000 259.339
50.84000 231.794
50.88000 231.950
50.92000 213.870
50.96000 214.074
51.00000 202.729
51.04000 192.045
51.08000 190.382
51.12000 188.400
51.16000 181.772
51.20000 182.116
51.24000 172.273
51.28000 184.301
51.32000 173.898
51.36000 167.290
51.40000 169.505
51.44000 170.479
51.48000 171.993
51.52000 160.791
51.56000 171.705
51.60000 166.599
51.64000 165.731
51.68000 156.797
51.72000 157.410
51.76000 159.631
51.80000 172.258
51.84000 166.310
51.88000 153.112
51.92000 170.506
51.96000 162.543
52.00000 170.902
52.04000 171.655
52.08000 168.049
52.12000 157.639
52.16000 173.542
52.20000 174.954
52.24000 165.111
52.28000 145.960
52.32000 164.506
52.36000 151.358
52.40000 165.500
52.44000 164.353
52.48000 155.920
52.52000 161.011
52.56000 158.034
52.60000 150.424
52.64000 158.119
52.68000 149.455
52.72000 161.951
52.76000 162.114
52.80000 156.214
52.84000 158.196
52.88000 155.375
52.92000 160.665
52.96000 164.922
53.00000 158.754
53.04000 163.921
53.08000 166.785
53.12000 156.780
53.16000 170.103
53.20000 170.063
53.24000 160.998
53.28000 172.046
53.32000 177.016
53.36000 175.010
53.40000 170.928
53.44000 156.229
53.48000 167.413
53.52000 168.117
53.56000 162.327
53.60000 157.634
53.64000 167.440
53.68000 154.571
53.72000 152.502
53.76000 159.329
53.80000 154.204
53.84000 157.610
53.88000 162.689
53.92000 157.053
53.96000 156.613
54.00000 150.908
54.04000 155.938
54.08000 157.811
54.12000 166.821
54.16000 155.495
54.20000 158.541
54.24000 158.717
54.28000 148.931
54.32000 160.938
54.36000 149.014
54.40000 163.932
54.44000 148.118
54.48000 159.383
54.52000 164.045
54.56000 158.018
54.60000 161.453
54.64000 161.910
54.68000 147.050
54.72000 160.995
54.76000 165.119
54.80000 158.895
54.84000 163.644
54.88000 160.686
54.92000 162.009
54.96000 157.567
55.00000 159.145
55.04000 160.291
55.08000 159.503
55.12000 161.600
55.16000 166.553
55.20000 161.213
55.24000 162.170
55.28000 184.775
55.32000 179.012
55.36000 194.524
55.40000 188.639
55.44000 191.729
55.48000 200.448
55.52000 221.011
55.56000 251.411
55.60000 285.308
55.64000 343.677
55.68000 405.827
55.72000 478.195
55.76000 561.306
55.80000 673.551
55.84000 747.031
55.88000 792.970
55.92000 809.642
55.96000 816.523
56.00000 803.807
56.04000 715.941
56.08000 622.673
56.12000 548.086
56.16000 482.155
56.20000 393.911
56.24000 354.912
56.28000 302.407
56.32000 256.873
56.36000 242.411
56.40000 209.555
56.44000 195.806
56.48000 194.917
56.52000 183.353
56.56000 189.619
56.60000 183.714
56.64000 170.651
56.68000 169.175
56.72000 166.994
56.76000 156.606
56.80000 158.682
56.84000 153.879
56.88000 153.187
56.92000 155.675
56.96000 166.036
57.00000 150.577
57.04000 163.676
57.08000 143.904
57.12000 151.065
57.16000 147.676
57.20000 157.163
57.24000 145.667
57.28000 149.333
57.32000 154.108
57.36000 152.355
57.40000 141.020
57.44000 153.198
57.48000 146.831
57.52000 145.369
57.56000 151.178
57.60000 141.404
57.64000 141.588
57.68000 145.676
57.72000 137.154
57.76000 145.169
57.80000 141.233
57.84000 137.215
57.88000 151.243
57.92000 138.480
57.96000 146.961
58.00000 141.745
58.04000 146.106
58.08000 147.947
58.12000 144.981
58.16000 140.589
58.20000 146.830
58.24000 144.892
58.28000 133.491
58.32000 138.288
58.36000 136.201
58.40000 142.972
58.44000 136.754
58.48000 143.286
58.52000 136.424
58.56000 151.853
58.60000 143.556
58.64000 133.860
58.68000 132.831
58.72000 139.911
58.76000 137.098
58.80000 126.668
58.84000 146.932
58.88000 140.655
58.92000 126.926
58.96000 131.514
59.00000 128.209
59.04000 138.749
59.08000 141.482
59.12000 125.699
59.16000 133.497
59.20000 135.793
59.24000 141.037
59.28000 137.969
59.32000 132.714
59.36000 136.294
59.40000 137.887
59.44000 140.972
59.48000 134.800
59.52000 129.106
59.56000 132.299
59.60000 133.590
59.64000 133.259
59.68000 132.452
59.72000 126.813
59.76000 131.347
59.80000 128.942
59.84000 143.654
59.88000 136.931
59.92000 127.090
59.96000 139.666
60.00000 138.659
60.04000 119.346
60.08000 134.708
60.12000 138.310
60.16000 143.347
60.20000 141.583
60.24000 134.736
60.28000 132.621
60.32000 131.476
60.36000 133.172
60.40000 140.568
60.44000 132.840
60.48000 133.390
60.52000 130.938
60.56000 135.713
60.60000 133.976
60.64000 126.261
60.68000 128.184
60.72000 131.884
60.76000 130.730
60.80000 132.122
60.84000 126.372
60.88000 131.437
60.92000 130.078
60.96000 133.454
61.00000 131.673
61.04000 138.936
61.08000 143.975
61.12000 134.718
61.16000 135.017
61.20000 128.876
61.24000 129.196
61.28000 139.176
61.32000 129.877
61.36000 139.679
61.40000 150.098
61.44000 145.259
61.48000 143.954
61.52000 166.718
61.56000 202.681
61.60000 246.899
61.64000 281.363
61.68000 303.180
61.72000 281.566
61.76000 287.450
61.80000 223.581
61.84000 185.572
61.88000 151.386
61.92000 141.581
61.96000 141.352
62.00000 142.745
62.04000 144.384
62.08000 132.622
62.12000 149.947
62.16000 140.779
62.20000 147.252
62.24000 142.672
62.28000 145.349
62.32000 136.918
62.36000 144.708
62.40000 141.407
62.44000 138.367
62.48000 138.566
62.52000 143.113
62.56000 152.782
62.60000 144.708
62.64000 141.685
62.68000 140.547
62.72000 141.449
62.76000 136.517
62.80000 139.280
62.84000 147.162
62.88000 139.030
62.92000 133.505
62.96000 142.898
63.00000 153.688
63.04000 151.282
63.08000 142.980
63.12000 140.704
63.16000 138.770
63.20000 140.781
63.24000 136.588
63.28000 150.045
63.32000 154.793
63.36000 135.116
63.40000 147.719
63.44000 154.622
63.48000 147.191
63.52000 146.728
63.56000 137.605
63.60000 157.123
63.64000 151.606
63.68000 152.173
63.72000 149.168
63.76000 147.850
63.80000 153.096
63.84000 153.845
63.88000 156.193
63.92000 156.172
63.96000 158.557
64.00000 159.784
64.04000 157.332
64.08000 145.660
64.12000 165.992
64.16000 160.719
64.20000 141.621
64.24000 166.392
64.28000 173.605
64.32000 164.127
64.36000 146.404
64.40000 166.536
64.44000 163.341
64.48000 167.563
64.52000 173.668
64.56000 174.276
64.60000 168.241
64.64000 173.599
64.68000 165.747
64.72000 176.125
64.76000 175.447
64.80000 179.299
64.84000 180.123
64.88000 185.162
64.92000 185.188
64.96000 193.531
65.00000 197.636
65.04000 207.920
65.08000 222.177
65.12000 216.983
65.16000 230.179
65.20000 242.671
65.24000 277.832
65.28000 291.006
65.32000 327.683
65.36000 331.027
65.40000 338.713
65.44000 375.162
65.48000 414.670
65.52000 417.621
65.56000 434.359
65.60000 458.671
65.64000 489.418
65.68000 563.800
65.72000 709.117
65.76000 984.227
65.80000 1160.393
65.84000 1255.578
65.88000 1267.328
65.92000 1181.608
65.96000 1035.043
66.00000 739.638
66.04000 513.436
66.08000 397.383
66.12000 339.129
66.16000 327.469
66.20000 320.746
66.24000 329.202
66.28000 358.115
66.32000 446.231
66.36000 458.886
66.40000 475.858
66.44000 471.255
66.48000 470.971
66.52000 442.692
66.56000 369.069
66.60000 328.546
66.64000 335.284
66.68000 322.895
66.72000 323.594
66.76000 319.424
66.80000 323.639
66.84000 320.327
66.88000 341.116
66.92000 334.702
66.96000 347.549
67.00000 356.867
67.04000 352.634
67.08000 364.260
67.12000 369.851
67.16000 372.381
67.20000 369.158
67.24000 368.142
67.28000 392.141
67.32000 391.946
67.36000 406.678
67.40000 409.150
67.44000 403.233
67.48000 423.122
67.52000 412.359
67.56000 412.556
67.60000 449.357
67.64000 467.061
67.68000 465.187
67.72000 455.145
67.76000 495.789
67.80000 492.738
67.84000 504.651
67.88000 497.318
67.92000 525.781
67.96000 531.815
68.00000 528.498
68.04000 538.385
68.08000 577.276
68.12000 542.073
68.16000 571.188
68.20000 605.036
68.24000 615.752
68.28000 628.627
68.32000 640.247
68.36000 656.287
68.40000 701.822
68.44000 714.576
68.48000 765.709
68.52000 803.056
68.56000 886.986
68.60000 1012.440
68.64000 1165.632
68.68000 1407.085
68.72000 1668.827
68.76000 1886.505
68.80000 2156.661
68.84000 2604.697
68.88000 3513.811
68.92000 5653.678
68.96000 15266.893
69.00000 33294.980
69.04000 52161.637
69.08000 61209.168
69.12000 63623.719
69.16000 66082.648
69.20000 65592.055
69.24000 54729.246
69.28000 41694.684
69.32000 34169.949
69.36000 30626.443
69.40000 24912.186
69.44000 15637.831
69.48000 7068.363
69.52000 3275.088
69.56000 1942.672
69.60000 1511.501
69.64000 1274.961
69.68000 1121.720
69.72000 984.807
69.76000 915.534
69.80000 873.412
69.84000 791.786
69.88000 797.611
69.92000 747.917
69.96000 712.519
70.00000 682.603