File: XRD/XRD/24-09-2025 Dep 3/XY Data/BTO_Mapping_Theta2Theta_24-09-2025_001_08_27-406_12-202.xy
20.00000 551.113
20.04000 570.743
20.08000 570.469
20.12000 549.087
20.16000 567.861
20.20000 552.632
20.24000 561.169
20.28000 566.420
20.32000 570.501
20.36000 552.865
20.40000 548.038
20.44000 571.125
20.48000 567.348
20.52000 548.713
20.56000 536.558
20.60000 567.318
20.64000 549.758
20.68000 552.534
20.72000 551.592
20.76000 561.654
20.80000 542.806
20.84000 539.700
20.88000 543.767
20.92000 545.086
20.96000 544.660
21.00000 555.229
21.04000 549.230
21.08000 554.386
21.12000 548.679
21.16000 555.180
21.20000 553.044
21.24000 565.730
21.28000 552.723
21.32000 543.284
21.36000 539.423
21.40000 552.912
21.44000 546.631
21.48000 539.341
21.52000 537.381
21.56000 555.730
21.60000 544.746
21.64000 551.967
21.68000 532.654
21.72000 558.262
21.76000 559.159
21.80000 563.272
21.84000 576.898
21.88000 589.173
21.92000 571.086
21.96000 577.200
22.00000 588.039
22.04000 593.287
22.08000 621.191
22.12000 624.621
22.16000 626.066
22.20000 595.684
22.24000 582.613
22.28000 550.473
22.32000 560.233
22.36000 592.050
22.40000 558.476
22.44000 551.719
22.48000 542.754
22.52000 534.936
22.56000 542.008
22.60000 513.647
22.64000 511.981
22.68000 510.601
22.72000 524.502
22.76000 510.999
22.80000 519.669
22.84000 503.285
22.88000 522.480
22.92000 502.461
22.96000 496.532
23.00000 505.673
23.04000 507.591
23.08000 512.179
23.12000 509.801
23.16000 502.651
23.20000 517.951
23.24000 512.418
23.28000 513.003
23.32000 503.558
23.36000 510.755
23.40000 518.218
23.44000 514.984
23.48000 499.746
23.52000 500.182
23.56000 520.083
23.60000 497.329
23.64000 505.150
23.68000 501.572
23.72000 507.915
23.76000 525.857
23.80000 504.401
23.84000 513.652
23.88000 510.106
23.92000 485.228
23.96000 511.069
24.00000 504.175
24.04000 516.034
24.08000 488.691
24.12000 490.486
24.16000 499.182
24.20000 501.566
24.24000 492.912
24.28000 497.424
24.32000 493.716
24.36000 493.212
24.40000 497.799
24.44000 502.535
24.48000 498.318
24.52000 476.120
24.56000 477.709
24.60000 481.469
24.64000 475.434
24.68000 490.160
24.72000 486.502
24.76000 511.065
24.80000 491.647
24.84000 468.200
24.88000 476.638
24.92000 471.109
24.96000 496.207
25.00000 475.122
25.04000 473.611
25.08000 465.700
25.12000 469.412
25.16000 488.080
25.20000 475.017
25.24000 475.059
25.28000 478.599
25.32000 476.719
25.36000 479.164
25.40000 475.069
25.44000 457.422
25.48000 458.814
25.52000 466.039
25.56000 490.589
25.60000 441.735
25.64000 461.515
25.68000 478.491
25.72000 469.436
25.76000 470.562
25.80000 474.017
25.84000 457.004
25.88000 451.340
25.92000 471.988
25.96000 454.448
26.00000 484.643
26.04000 478.227
26.08000 455.775
26.12000 451.352
26.16000 450.224
26.20000 469.185
26.24000 457.972
26.28000 454.196
26.32000 451.331
26.36000 448.711
26.40000 442.019
26.44000 450.385
26.48000 448.045
26.52000 425.619
26.56000 441.290
26.60000 473.252
26.64000 444.616
26.68000 449.231
26.72000 458.787
26.76000 450.603
26.80000 459.763
26.84000 461.609
26.88000 447.969
26.92000 438.632
26.96000 444.131
27.00000 437.479
27.04000 432.812
27.08000 433.147
27.12000 421.941
27.16000 440.588
27.20000 446.744
27.24000 421.673
27.28000 439.709
27.32000 452.270
27.36000 433.911
27.40000 447.210
27.44000 434.369
27.48000 424.979
27.52000 434.094
27.56000 437.782
27.60000 421.308
27.64000 442.464
27.68000 434.922
27.72000 439.596
27.76000 449.141
27.80000 431.325
27.84000 424.856
27.88000 451.322
27.92000 435.456
27.96000 414.532
28.00000 443.638
28.04000 454.936
28.08000 428.089
28.12000 428.563
28.16000 444.067
28.20000 402.105
28.24000 422.413
28.28000 429.370
28.32000 438.959
28.36000 415.545
28.40000 433.877
28.44000 433.448
28.48000 431.008
28.52000 407.915
28.56000 412.524
28.60000 416.464
28.64000 424.105
28.68000 407.403
28.72000 412.245
28.76000 416.690
28.80000 425.045
28.84000 427.019
28.88000 410.913
28.92000 416.783
28.96000 427.291
29.00000 421.928
29.04000 418.196
29.08000 410.925
29.12000 417.911
29.16000 399.686
29.20000 415.773
29.24000 406.079
29.28000 442.640
29.32000 399.934
29.36000 412.974
29.40000 402.787
29.44000 407.637
29.48000 424.297
29.52000 415.331
29.56000 414.381
29.60000 402.268
29.64000 410.215
29.68000 414.423
29.72000 410.667
29.76000 394.931
29.80000 408.892
29.84000 416.645
29.88000 406.534
29.92000 435.429
29.96000 423.560
30.00000 407.434
30.04000 415.575
30.08000 423.405
30.12000 415.008
30.16000 414.275
30.20000 443.439
30.24000 418.531
30.28000 415.271
30.32000 425.297
30.36000 418.557
30.40000 415.195
30.44000 427.275
30.48000 423.368
30.52000 432.413
30.56000 406.400
30.60000 424.099
30.64000 422.546
30.68000 426.991
30.72000 423.156
30.76000 427.226
30.80000 440.433
30.84000 448.301
30.88000 471.186
30.92000 440.638
30.96000 499.547
31.00000 506.537
31.04000 558.537
31.08000 591.212
31.12000 673.765
31.16000 754.184
31.20000 863.252
31.24000 1006.957
31.28000 1145.473
31.32000 1292.798
31.36000 1344.269
31.40000 1371.329
31.44000 1399.678
31.48000 1332.327
31.52000 1178.400
31.56000 1030.290
31.60000 895.642
31.64000 781.013
31.68000 667.684
31.72000 610.054
31.76000 561.160
31.80000 508.037
31.84000 473.306
31.88000 441.415
31.92000 441.005
31.96000 430.789
32.00000 428.682
32.04000 413.575
32.08000 418.848
32.12000 406.928
32.16000 403.901
32.20000 415.653
32.24000 418.325
32.28000 412.514
32.32000 406.553
32.36000 398.859
32.40000 400.697
32.44000 381.156
32.48000 378.799
32.52000 399.440
32.56000 375.679
32.60000 371.148
32.64000 368.641
32.68000 374.017
32.72000 372.265
32.76000 380.464
32.80000 384.553
32.84000 390.669
32.88000 440.665
32.92000 448.404
32.96000 468.648
33.00000 442.870
33.04000 441.780
33.08000 414.388
33.12000 382.752
33.16000 354.828
33.20000 364.655
33.24000 341.904
33.28000 371.392
33.32000 319.835
33.36000 339.897
33.40000 361.848
33.44000 369.251
33.48000 358.228
33.52000 333.806
33.56000 333.991
33.60000 347.348
33.64000 350.159
33.68000 341.036
33.72000 338.088
33.76000 339.936
33.80000 351.261
33.84000 351.563
33.88000 353.851
33.92000 340.348
33.96000 334.877
34.00000 348.964
34.04000 319.707
34.08000 345.377
34.12000 345.627
34.16000 338.941
34.20000 335.042
34.24000 331.009
34.28000 332.050
34.32000 352.002
34.36000 352.167
34.40000 347.716
34.44000 336.111
34.48000 334.153
34.52000 323.439
34.56000 342.909
34.60000 332.355
34.64000 320.917
34.68000 321.146
34.72000 329.749
34.76000 325.636
34.80000 333.979
34.84000 335.256
34.88000 316.517
34.92000 308.678
34.96000 308.633
35.00000 327.486
35.04000 338.062
35.08000 311.564
35.12000 325.133
35.16000 331.461
35.20000 313.691
35.24000 309.827
35.28000 321.346
35.32000 300.949
35.36000 324.701
35.40000 310.032
35.44000 320.609
35.48000 320.628
35.52000 315.063
35.56000 320.533
35.60000 309.671
35.64000 316.390
35.68000 305.551
35.72000 307.860
35.76000 312.488
35.80000 302.946
35.84000 306.093
35.88000 311.329
35.92000 307.082
35.96000 308.559
36.00000 311.980
36.04000 304.455
36.08000 297.887
36.12000 301.782
36.16000 301.944
36.20000 311.726
36.24000 301.116
36.28000 302.950
36.32000 306.967
36.36000 306.614
36.40000 304.055
36.44000 307.464
36.48000 295.734
36.52000 286.700
36.56000 286.301
36.60000 292.818
36.64000 300.517
36.68000 296.521
36.72000 305.085
36.76000 298.794
36.80000 282.308
36.84000 301.116
36.88000 301.802
36.92000 292.734
36.96000 298.401
37.00000 316.014
37.04000 310.408
37.08000 307.072
37.12000 309.625
37.16000 305.099
37.20000 302.344
37.24000 294.962
37.28000 304.122
37.32000 299.120
37.36000 302.233
37.40000 295.266
37.44000 307.148
37.48000 308.489
37.52000 305.880
37.56000 302.312
37.60000 294.516
37.64000 297.786
37.68000 300.963
37.72000 305.211
37.76000 297.388
37.80000 298.054
37.84000 302.219
37.88000 281.678
37.92000 301.074
37.96000 303.896
38.00000 313.897
38.04000 298.600
38.08000 286.372
38.12000 310.177
38.16000 322.448
38.20000 310.190
38.24000 312.153
38.28000 319.176
38.32000 326.823
38.36000 320.674
38.40000 377.742
38.44000 400.841
38.48000 449.891
38.52000 565.416
38.56000 690.918
38.60000 857.122
38.64000 1048.271
38.68000 1194.652
38.72000 1311.178
38.76000 1323.877
38.80000 1276.600
38.84000 1155.941
38.88000 978.404
38.92000 802.256
38.96000 636.155
39.00000 521.411
39.04000 408.655
39.08000 371.807
39.12000 350.694
39.16000 309.716
39.20000 289.346
39.24000 304.601
39.28000 288.116
39.32000 302.794
39.36000 303.479
39.40000 281.439
39.44000 284.058
39.48000 280.584
39.52000 237.094
39.56000 278.212
39.60000 288.660
39.64000 259.275
39.68000 274.828
39.72000 275.708
39.76000 260.867
39.80000 261.508
39.84000 275.752
39.88000 262.744
39.92000 250.177
39.96000 266.506
40.00000 262.680
40.04000 261.309
40.08000 266.167
40.12000 268.026
40.16000 258.766
40.20000 270.244
40.24000 262.312
40.28000 267.775
40.32000 257.658
40.36000 258.092
40.40000 253.991
40.44000 269.222
40.48000 265.076
40.52000 259.185
40.56000 260.058
40.60000 264.379
40.64000 238.067
40.68000 250.978
40.72000 252.764
40.76000 258.415
40.80000 244.258
40.84000 241.867
40.88000 237.283
40.92000 245.685
40.96000 242.743
41.00000 254.635
41.04000 230.571
41.08000 247.154
41.12000 250.340
41.16000 248.032
41.20000 247.189
41.24000 240.485
41.28000 237.425
41.32000 239.361
41.36000 254.371
41.40000 243.002
41.44000 236.793
41.48000 234.283
41.52000 244.907
41.56000 243.417
41.60000 229.010
41.64000 229.964
41.68000 237.250
41.72000 247.998
41.76000 232.895
41.80000 238.582
41.84000 245.563
41.88000 231.598
41.92000 242.891
41.96000 229.402
42.00000 244.432
42.04000 236.358
42.08000 232.247
42.12000 232.782
42.16000 233.532
42.20000 259.194
42.24000 244.272
42.28000 236.227
42.32000 240.233
42.36000 239.376
42.40000 238.192
42.44000 234.162
42.48000 237.031
42.52000 245.333
42.56000 232.893
42.60000 231.177
42.64000 238.622
42.68000 234.710
42.72000 244.574
42.76000 232.747
42.80000 237.785
42.84000 241.736
42.88000 232.266
42.92000 229.047
42.96000 223.004
43.00000 243.694
43.04000 231.959
43.08000 225.119
43.12000 214.039
43.16000 231.276
43.20000 230.748
43.24000 208.921
43.28000 222.413
43.32000 247.003
43.36000 231.264
43.40000 214.500
43.44000 228.428
43.48000 227.979
43.52000 202.986
43.56000 214.984
43.60000 221.047
43.64000 224.397
43.68000 213.806
43.72000 226.515
43.76000 215.676
43.80000 220.025
43.84000 224.006
43.88000 209.092
43.92000 220.605
43.96000 221.822
44.00000 213.589
44.04000 220.551
44.08000 214.144
44.12000 220.056
44.16000 234.659
44.20000 217.419
44.24000 225.450
44.28000 229.067
44.32000 223.647
44.36000 215.849
44.40000 216.672
44.44000 233.826
44.48000 223.064
44.52000 228.330
44.56000 227.092
44.60000 228.719
44.64000 241.524
44.68000 235.452
44.72000 238.923
44.76000 224.139
44.80000 250.973
44.84000 248.556
44.88000 256.554
44.92000 264.081
44.96000 276.525
45.00000 257.883
45.04000 267.772
45.08000 277.966
45.12000 264.029
45.16000 287.818
45.20000 271.075
45.24000 270.360
45.28000 257.786
45.32000 261.685
45.36000 243.356
45.40000 255.608
45.44000 242.584
45.48000 246.523
45.52000 233.052
45.56000 223.714
45.60000 217.946
45.64000 229.094
45.68000 233.211
45.72000 196.759
45.76000 213.018
45.80000 215.522
45.84000 212.055
45.88000 212.154
45.92000 203.847
45.96000 210.570
46.00000 203.880
46.04000 200.091
46.08000 204.138
46.12000 203.637
46.16000 191.131
46.20000 194.508
46.24000 219.642
46.28000 213.584
46.32000 193.519
46.36000 212.829
46.40000 198.200
46.44000 200.369
46.48000 210.048
46.52000 198.870
46.56000 200.133
46.60000 198.602
46.64000 201.728
46.68000 207.683
46.72000 192.407
46.76000 208.717
46.80000 189.806
46.84000 201.978
46.88000 191.843
46.92000 193.905
46.96000 194.696
47.00000 192.592
47.04000 192.151
47.08000 186.361
47.12000 203.480
47.16000 201.052
47.20000 190.645
47.24000 194.738
47.28000 196.994
47.32000 190.318
47.36000 195.430
47.40000 197.005
47.44000 195.581
47.48000 200.869
47.52000 191.163
47.56000 178.985
47.60000 187.364
47.64000 189.256
47.68000 176.153
47.72000 194.407
47.76000 188.996
47.80000 201.021
47.84000 184.845
47.88000 192.149
47.92000 190.179
47.96000 191.940
48.00000 176.254
48.04000 189.109
48.08000 170.864
48.12000 183.878
48.16000 181.153
48.20000 185.486
48.24000 177.698
48.28000 183.250
48.32000 185.930
48.36000 185.989
48.40000 180.612
48.44000 191.629
48.48000 183.986
48.52000 180.492
48.56000 181.112
48.60000 190.718
48.64000 176.706
48.68000 168.821
48.72000 190.439
48.76000 177.011
48.80000 186.391
48.84000 182.988
48.88000 188.034
48.92000 182.040
48.96000 176.018
49.00000 175.266
49.04000 175.201
49.08000 170.694
49.12000 179.159
49.16000 191.052
49.20000 168.563
49.24000 176.868
49.28000 171.976
49.32000 170.213
49.36000 174.385
49.40000 183.921
49.44000 173.534
49.48000 172.774
49.52000 167.939
49.56000 180.626
49.60000 173.378
49.64000 187.468
49.68000 175.428
49.72000 174.479
49.76000 187.213
49.80000 182.804
49.84000 176.978
49.88000 172.342
49.92000 172.092
49.96000 178.068
50.00000 184.049
50.04000 186.477
50.08000 170.760
50.12000 189.122
50.16000 166.810
50.20000 181.041
50.24000 173.070
50.28000 165.465
50.32000 175.677
50.36000 187.034
50.40000 191.035
50.44000 190.097
50.48000 193.414
50.52000 186.573
50.56000 184.251
50.60000 185.929
50.64000 186.971
50.68000 188.844
50.72000 194.313
50.76000 196.529
50.80000 187.929
50.84000 178.945
50.88000 193.558
50.92000 177.806
50.96000 182.105
51.00000 176.175
51.04000 175.930
51.08000 173.779
51.12000 174.268
51.16000 170.942
51.20000 181.563
51.24000 178.726
51.28000 149.487
51.32000 182.411
51.36000 169.463
51.40000 170.051
51.44000 159.320
51.48000 166.341
51.52000 165.884
51.56000 159.674
51.60000 161.168
51.64000 173.202
51.68000 168.474
51.72000 167.822
51.76000 170.389
51.80000 163.948
51.84000 175.063
51.88000 160.406
51.92000 163.227
51.96000 164.537
52.00000 173.656
52.04000 169.232
52.08000 167.496
52.12000 164.135
52.16000 163.627
52.20000 157.277
52.24000 162.238
52.28000 164.014
52.32000 149.058
52.36000 151.324
52.40000 170.391
52.44000 166.602
52.48000 163.020
52.52000 156.954
52.56000 156.419
52.60000 161.630
52.64000 158.437
52.68000 165.222
52.72000 159.312
52.76000 160.734
52.80000 155.023
52.84000 162.404
52.88000 163.898
52.92000 174.377
52.96000 165.799
53.00000 157.807
53.04000 157.384
53.08000 152.029
53.12000 162.358
53.16000 159.797
53.20000 161.365
53.24000 172.286
53.28000 163.717
53.32000 162.186
53.36000 160.148
53.40000 161.979
53.44000 158.385
53.48000 163.052
53.52000 151.989
53.56000 166.155
53.60000 168.680
53.64000 165.782
53.68000 170.492
53.72000 160.986
53.76000 159.431
53.80000 159.983
53.84000 149.845
53.88000 145.944
53.92000 164.232
53.96000 163.140
54.00000 164.204
54.04000 155.603
54.08000 153.682
54.12000 165.866
54.16000 157.189
54.20000 150.624
54.24000 156.828
54.28000 169.892
54.32000 148.926
54.36000 164.536
54.40000 153.347
54.44000 152.511
54.48000 153.176
54.52000 156.233
54.56000 158.042
54.60000 159.806
54.64000 161.595
54.68000 165.588
54.72000 169.506
54.76000 171.230
54.80000 161.391
54.84000 158.650
54.88000 153.493
54.92000 163.517
54.96000 160.233
55.00000 164.946
55.04000 168.152
55.08000 161.162
55.12000 167.620
55.16000 171.211
55.20000 167.182
55.24000 170.589
55.28000 172.629
55.32000 194.052
55.36000 180.342
55.40000 196.648
55.44000 196.095
55.48000 199.503
55.52000 209.724
55.56000 241.199
55.60000 265.574
55.64000 279.589
55.68000 322.765
55.72000 388.550
55.76000 444.814
55.80000 479.586
55.84000 562.563
55.88000 638.714
55.92000 656.313
55.96000 679.271
56.00000 665.305
56.04000 653.569
56.08000 634.715
56.12000 561.378
56.16000 519.558
56.20000 456.372
56.24000 398.335
56.28000 352.136
56.32000 287.780
56.36000 265.461
56.40000 220.920
56.44000 225.946
56.48000 209.570
56.52000 200.424
56.56000 190.354
56.60000 181.737
56.64000 167.836
56.68000 166.318
56.72000 165.992
56.76000 162.846
56.80000 166.400
56.84000 145.950
56.88000 161.425
56.92000 147.510
56.96000 151.976
57.00000 160.487
57.04000 154.775
57.08000 147.940
57.12000 148.671
57.16000 145.102
57.20000 152.782
57.24000 147.560
57.28000 146.979
57.32000 155.275
57.36000 155.942
57.40000 153.082
57.44000 161.023
57.48000 157.404
57.52000 157.273
57.56000 152.705
57.60000 148.165
57.64000 151.652
57.68000 147.529
57.72000 142.680
57.76000 141.772
57.80000 145.970
57.84000 138.710
57.88000 140.859
57.92000 144.307
57.96000 141.529
58.00000 144.581
58.04000 140.500
58.08000 139.907
58.12000 137.820
58.16000 140.301
58.20000 143.218
58.24000 144.467
58.28000 131.362
58.32000 135.849
58.36000 143.241
58.40000 140.027
58.44000 138.465
58.48000 139.536
58.52000 135.222
58.56000 134.092
58.60000 138.072
58.64000 140.042
58.68000 136.891
58.72000 137.124
58.76000 140.097
58.80000 139.539
58.84000 145.160
58.88000 136.651
58.92000 126.415
58.96000 129.295
59.00000 148.094
59.04000 143.284
59.08000 140.318
59.12000 142.967
59.16000 139.433
59.20000 140.685
59.24000 137.828
59.28000 140.528
59.32000 133.388
59.36000 124.832
59.40000 138.881
59.44000 136.770
59.48000 135.073
59.52000 148.669
59.56000 140.364
59.60000 135.403
59.64000 131.756
59.68000 142.349
59.72000 132.577
59.76000 136.791
59.80000 138.590
59.84000 134.909
59.88000 142.539
59.92000 139.403
59.96000 123.416
60.00000 133.624
60.04000 125.390
60.08000 129.977
60.12000 125.203
60.16000 127.152
60.20000 132.769
60.24000 138.587
60.28000 138.014
60.32000 134.233
60.36000 133.814
60.40000 140.579
60.44000 129.543
60.48000 142.151
60.52000 131.899
60.56000 134.999
60.60000 123.532
60.64000 140.222
60.68000 135.815
60.72000 134.255
60.76000 129.089
60.80000 127.590
60.84000 137.245
60.88000 146.141
60.92000 125.124
60.96000 122.823
61.00000 128.075
61.04000 124.832
61.08000 136.402
61.12000 139.894
61.16000 138.187
61.20000 131.661
61.24000 129.844
61.28000 129.333
61.32000 139.255
61.36000 142.995
61.40000 134.333
61.44000 143.677
61.48000 140.652
61.52000 159.921
61.56000 195.565
61.60000 224.321
61.64000 252.159
61.68000 263.585
61.72000 276.694
61.76000 256.796
61.80000 223.826
61.84000 175.844
61.88000 161.664
61.92000 137.953
61.96000 144.205
62.00000 137.242
62.04000 144.222
62.08000 140.929
62.12000 128.967
62.16000 134.609
62.20000 138.170
62.24000 150.915
62.28000 139.871
62.32000 144.483
62.36000 147.973
62.40000 142.639
62.44000 138.932
62.48000 140.124
62.52000 146.889
62.56000 130.677
62.60000 146.675
62.64000 151.141
62.68000 147.765
62.72000 141.675
62.76000 133.726
62.80000 149.016
62.84000 133.158
62.88000 137.068
62.92000 147.785
62.96000 137.250
63.00000 147.180
63.04000 142.395
63.08000 150.456
63.12000 148.538
63.16000 157.088
63.20000 151.705
63.24000 147.886
63.28000 151.002
63.32000 139.748
63.36000 151.364
63.40000 149.481
63.44000 135.588
63.48000 143.929
63.52000 145.926
63.56000 146.659
63.60000 141.592
63.64000 154.093
63.68000 145.331
63.72000 149.347
63.76000 147.471
63.80000 155.543
63.84000 144.555
63.88000 153.483
63.92000 152.083
63.96000 157.730
64.00000 155.610
64.04000 156.216
64.08000 164.813
64.12000 154.440
64.16000 156.769
64.20000 158.966
64.24000 161.997
64.28000 148.229
64.32000 159.584
64.36000 153.856
64.40000 160.813
64.44000 159.898
64.48000 150.816
64.52000 160.343
64.56000 169.393
64.60000 164.449
64.64000 168.663
64.68000 161.082
64.72000 182.239
64.76000 169.131
64.80000 167.403
64.84000 178.768
64.88000 170.414
64.92000 176.258
64.96000 183.828
65.00000 187.685
65.04000 189.088
65.08000 186.655
65.12000 197.238
65.16000 193.896
65.20000 193.864
65.24000 205.878
65.28000 212.563
65.32000 222.945
65.36000 222.472
65.40000 237.661
65.44000 248.968
65.48000 242.990
65.52000 270.460
65.56000 262.790
65.60000 291.747
65.64000 327.589
65.68000 378.259
65.72000 480.261
65.76000 722.300
65.80000 928.628
65.84000 1069.096
65.88000 1048.213
65.92000 1067.119
65.96000 905.420
66.00000 656.987
66.04000 448.442
66.08000 359.903
66.12000 320.872
66.16000 282.869
66.20000 295.615
66.24000 319.191
66.28000 334.363
66.32000 379.049
66.36000 406.151
66.40000 433.930
66.44000 412.004
66.48000 426.527
66.52000 403.660
66.56000 357.436
66.60000 329.445
66.64000 310.187
66.68000 312.381
66.72000 321.208
66.76000 314.291
66.80000 326.077
66.84000 324.045
66.88000 327.141
66.92000 322.912
66.96000 325.590
67.00000 330.608
67.04000 336.854
67.08000 348.562
67.12000 342.053
67.16000 346.757
67.20000 364.044
67.24000 369.383
67.28000 376.921
67.32000 369.522
67.36000 397.009
67.40000 389.674
67.44000 380.184
67.48000 412.171
67.52000 424.097
67.56000 418.836
67.60000 427.149
67.64000 444.581
67.68000 427.274
67.72000 440.647
67.76000 473.495
67.80000 448.576
67.84000 477.271
67.88000 489.659
67.92000 499.724
67.96000 521.323
68.00000 509.568
68.04000 528.570
68.08000 548.267
68.12000 543.579
68.16000 546.194
68.20000 571.692
68.24000 582.248
68.28000 582.151
68.32000 620.287
68.36000 627.964
68.40000 644.236
68.44000 711.843
68.48000 719.609
68.52000 751.847
68.56000 817.209
68.60000 917.643
68.64000 1071.464
68.68000 1225.847
68.72000 1399.682
68.76000 1608.038
68.80000 1764.607
68.84000 2028.992
68.88000 2558.818
68.92000 3737.549
68.96000 10279.989
69.00000 24431.441
69.04000 41709.000
69.08000 50525.203
69.12000 52861.727
69.16000 54839.758
69.20000 55830.027
69.24000 48231.164
69.28000 35932.137
69.32000 29080.598
69.36000 26467.639
69.40000 22310.197
69.44000 14837.917
69.48000 6663.070
69.52000 2927.402
69.56000 1761.807
69.60000 1411.276
69.64000 1171.067
69.68000 1071.737
69.72000 955.102
69.76000 894.066
69.80000 819.970
69.84000 784.890
69.88000 726.454
69.92000 687.801
69.96000 683.701
70.00000 650.219