File: XRD/XRD/24-09-2025 Dep 3/XY Data/BTO_Mapping_Theta2Theta_24-09-2025_001_58_9-135_-4-067.xy
20.00000 551.457
20.04000 565.362
20.08000 567.095
20.12000 556.314
20.16000 561.268
20.20000 562.439
20.24000 561.571
20.28000 572.707
20.32000 560.937
20.36000 561.329
20.40000 577.044
20.44000 573.872
20.48000 568.578
20.52000 552.757
20.56000 572.866
20.60000 567.332
20.64000 576.512
20.68000 547.480
20.72000 547.668
20.76000 564.142
20.80000 527.314
20.84000 536.063
20.88000 541.410
20.92000 553.614
20.96000 538.398
21.00000 548.816
21.04000 554.098
21.08000 545.765
21.12000 543.920
21.16000 536.969
21.20000 542.714
21.24000 544.149
21.28000 551.295
21.32000 548.127
21.36000 534.750
21.40000 551.927
21.44000 548.947
21.48000 537.728
21.52000 547.302
21.56000 529.323
21.60000 554.488
21.64000 530.009
21.68000 530.143
21.72000 546.442
21.76000 554.784
21.80000 553.383
21.84000 563.881
21.88000 572.391
21.92000 574.099
21.96000 589.590
22.00000 603.476
22.04000 596.746
22.08000 616.668
22.12000 604.804
22.16000 611.478
22.20000 614.574
22.24000 604.423
22.28000 578.278
22.32000 590.159
22.36000 567.075
22.40000 557.243
22.44000 557.261
22.48000 544.298
22.52000 555.705
22.56000 538.668
22.60000 524.919
22.64000 525.421
22.68000 522.233
22.72000 523.072
22.76000 520.166
22.80000 519.252
22.84000 494.319
22.88000 509.528
22.92000 518.590
22.96000 499.186
23.00000 504.104
23.04000 505.268
23.08000 501.670
23.12000 509.803
23.16000 500.712
23.20000 506.229
23.24000 506.484
23.28000 505.278
23.32000 494.176
23.36000 492.202
23.40000 498.794
23.44000 511.359
23.48000 509.177
23.52000 509.342
23.56000 493.876
23.60000 500.732
23.64000 508.925
23.68000 499.103
23.72000 491.813
23.76000 493.263
23.80000 500.011
23.84000 497.473
23.88000 492.006
23.92000 468.597
23.96000 495.918
24.00000 491.801
24.04000 513.421
24.08000 489.335
24.12000 496.667
24.16000 495.349
24.20000 493.431
24.24000 497.328
24.28000 479.132
24.32000 474.460
24.36000 495.226
24.40000 495.917
24.44000 490.620
24.48000 487.594
24.52000 478.511
24.56000 484.202
24.60000 485.510
24.64000 490.488
24.68000 481.981
24.72000 486.144
24.76000 481.366
24.80000 494.372
24.84000 479.552
24.88000 465.600
24.92000 484.830
24.96000 509.114
25.00000 465.434
25.04000 489.903
25.08000 468.216
25.12000 456.484
25.16000 482.776
25.20000 464.736
25.24000 473.611
25.28000 454.526
25.32000 458.413
25.36000 455.581
25.40000 459.305
25.44000 456.905
25.48000 457.253
25.52000 456.555
25.56000 468.970
25.60000 481.172
25.64000 463.041
25.68000 454.442
25.72000 472.608
25.76000 454.583
25.80000 467.213
25.84000 450.690
25.88000 455.935
25.92000 448.608
25.96000 468.629
26.00000 440.909
26.04000 459.905
26.08000 451.332
26.12000 480.831
26.16000 441.192
26.20000 455.871
26.24000 455.394
26.28000 461.329
26.32000 471.997
26.36000 459.339
26.40000 433.100
26.44000 468.206
26.48000 464.665
26.52000 449.736
26.56000 450.193
26.60000 458.674
26.64000 454.370
26.68000 447.600
26.72000 469.134
26.76000 445.554
26.80000 450.513
26.84000 434.002
26.88000 436.123
26.92000 438.887
26.96000 438.691
27.00000 437.322
27.04000 451.736
27.08000 442.393
27.12000 451.722
27.16000 426.854
27.20000 438.017
27.24000 430.249
27.28000 431.535
27.32000 436.414
27.36000 432.578
27.40000 433.723
27.44000 432.646
27.48000 440.886
27.52000 427.834
27.56000 430.104
27.60000 446.982
27.64000 430.771
27.68000 427.937
27.72000 442.266
27.76000 437.782
27.80000 418.094
27.84000 414.845
27.88000 426.792
27.92000 438.342
27.96000 441.573
28.00000 425.624
28.04000 434.493
28.08000 420.303
28.12000 427.765
28.16000 420.839
28.20000 431.508
28.24000 418.349
28.28000 432.521
28.32000 428.869
28.36000 422.124
28.40000 411.732
28.44000 427.788
28.48000 404.419
28.52000 411.595
28.56000 417.975
28.60000 432.014
28.64000 408.196
28.68000 412.931
28.72000 417.457
28.76000 421.401
28.80000 414.452
28.84000 409.271
28.88000 412.300
28.92000 433.158
28.96000 422.522
29.00000 422.509
29.04000 416.084
29.08000 421.271
29.12000 420.816
29.16000 409.851
29.20000 420.818
29.24000 403.661
29.28000 424.259
29.32000 414.978
29.36000 393.758
29.40000 405.962
29.44000 397.428
29.48000 411.217
29.52000 411.279
29.56000 411.796
29.60000 417.845
29.64000 406.196
29.68000 403.965
29.72000 400.665
29.76000 415.132
29.80000 419.226
29.84000 425.995
29.88000 425.287
29.92000 424.674
29.96000 429.160
30.00000 410.147
30.04000 429.996
30.08000 423.832
30.12000 418.277
30.16000 418.632
30.20000 415.233
30.24000 420.938
30.28000 424.080
30.32000 440.817
30.36000 417.704
30.40000 411.974
30.44000 398.514
30.48000 405.612
30.52000 412.272
30.56000 412.982
30.60000 422.953
30.64000 410.029
30.68000 410.354
30.72000 413.741
30.76000 424.864
30.80000 442.601
30.84000 425.332
30.88000 431.953
30.92000 468.517
30.96000 488.432
31.00000 500.202
31.04000 565.337
31.08000 617.395
31.12000 714.094
31.16000 893.874
31.20000 1107.355
31.24000 1311.845
31.28000 1559.090
31.32000 1808.487
31.36000 2012.325
31.40000 2053.521
31.44000 2057.641
31.48000 1851.175
31.52000 1650.782
31.56000 1404.011
31.60000 1141.547
31.64000 940.620
31.68000 760.865
31.72000 670.111
31.76000 575.374
31.80000 540.095
31.84000 484.984
31.88000 470.610
31.92000 456.858
31.96000 437.910
32.00000 422.968
32.04000 425.619
32.08000 410.492
32.12000 409.510
32.16000 423.805
32.20000 406.106
32.24000 400.951
32.28000 381.037
32.32000 392.291
32.36000 403.617
32.40000 390.359
32.44000 386.563
32.48000 383.713
32.52000 380.784
32.56000 374.997
32.60000 398.994
32.64000 369.194
32.68000 385.862
32.72000 387.831
32.76000 365.119
32.80000 355.086
32.84000 408.969
32.88000 412.392
32.92000 436.516
32.96000 437.538
33.00000 431.297
33.04000 455.508
33.08000 399.739
33.12000 384.779
33.16000 344.372
33.20000 341.851
33.24000 348.335
33.28000 339.246
33.32000 336.069
33.36000 358.793
33.40000 349.216
33.44000 342.109
33.48000 347.532
33.52000 341.239
33.56000 332.372
33.60000 325.649
33.64000 366.243
33.68000 329.320
33.72000 344.576
33.76000 333.757
33.80000 343.258
33.84000 328.905
33.88000 329.731
33.92000 335.200
33.96000 317.590
34.00000 327.537
34.04000 344.964
34.08000 331.538
34.12000 332.451
34.16000 325.456
34.20000 308.327
34.24000 348.149
34.28000 330.748
34.32000 349.659
34.36000 311.912
34.40000 324.565
34.44000 330.588
34.48000 324.605
34.52000 332.332
34.56000 328.302
34.60000 319.279
34.64000 315.900
34.68000 325.234
34.72000 329.143
34.76000 310.779
34.80000 331.320
34.84000 320.246
34.88000 319.970
34.92000 315.850
34.96000 323.390
35.00000 325.307
35.04000 323.291
35.08000 308.777
35.12000 308.399
35.16000 313.090
35.20000 323.680
35.24000 310.815
35.28000 306.074
35.32000 306.810
35.36000 315.838
35.40000 303.810
35.44000 320.858
35.48000 320.478
35.52000 314.281
35.56000 298.494
35.60000 305.558
35.64000 312.323
35.68000 298.362
35.72000 314.351
35.76000 305.615
35.80000 319.841
35.84000 290.670
35.88000 307.130
35.92000 311.466
35.96000 302.282
36.00000 302.504
36.04000 311.480
36.08000 306.077
36.12000 303.783
36.16000 294.694
36.20000 301.825
36.24000 279.560
36.28000 287.846
36.32000 313.947
36.36000 290.468
36.40000 291.126
36.44000 307.171
36.48000 299.423
36.52000 296.319
36.56000 304.159
36.60000 294.051
36.64000 298.787
36.68000 299.232
36.72000 279.945
36.76000 282.058
36.80000 308.357
36.84000 284.918
36.88000 297.061
36.92000 305.430
36.96000 304.644
37.00000 305.735
37.04000 308.361
37.08000 310.636
37.12000 309.289
37.16000 301.625
37.20000 315.201
37.24000 311.351
37.28000 299.766
37.32000 310.654
37.36000 305.794
37.40000 305.303
37.44000 294.274
37.48000 281.730
37.52000 285.914
37.56000 304.762
37.60000 305.274
37.64000 298.313
37.68000 306.539
37.72000 296.976
37.76000 279.194
37.80000 285.611
37.84000 284.332
37.88000 297.666
37.92000 300.081
37.96000 283.583
38.00000 294.499
38.04000 308.501
38.08000 307.960
38.12000 297.401
38.16000 309.853
38.20000 303.645
38.24000 304.818
38.28000 324.426
38.32000 346.486
38.36000 350.756
38.40000 396.065
38.44000 443.019
38.48000 523.732
38.52000 668.305
38.56000 840.123
38.60000 1053.284
38.64000 1289.380
38.68000 1476.355
38.72000 1585.583
38.76000 1579.335
38.80000 1502.095
38.84000 1298.450
38.88000 1054.996
38.92000 850.585
38.96000 656.276
39.00000 499.273
39.04000 424.615
39.08000 371.802
39.12000 345.317
39.16000 308.689
39.20000 307.749
39.24000 297.741
39.28000 286.379
39.32000 300.493
39.36000 291.584
39.40000 275.135
39.44000 268.156
39.48000 278.481
39.52000 268.818
39.56000 274.817
39.60000 283.319
39.64000 265.186
39.68000 274.959
39.72000 272.151
39.76000 279.271
39.80000 277.430
39.84000 281.333
39.88000 264.952
39.92000 260.900
39.96000 267.967
40.00000 268.296
40.04000 274.423
40.08000 270.077
40.12000 251.061
40.16000 254.911
40.20000 261.987
40.24000 270.961
40.28000 278.071
40.32000 271.148
40.36000 251.456
40.40000 249.162
40.44000 263.335
40.48000 248.624
40.52000 235.881
40.56000 243.638
40.60000 251.186
40.64000 235.560
40.68000 252.584
40.72000 249.363
40.76000 251.937
40.80000 251.588
40.84000 241.462
40.88000 248.261
40.92000 246.985
40.96000 245.547
41.00000 244.588
41.04000 255.164
41.08000 248.257
41.12000 236.883
41.16000 234.908
41.20000 244.152
41.24000 239.097
41.28000 257.540
41.32000 246.151
41.36000 251.284
41.40000 248.800
41.44000 232.733
41.48000 238.628
41.52000 244.726
41.56000 234.748
41.60000 232.561
41.64000 236.502
41.68000 232.861
41.72000 227.644
41.76000 236.918
41.80000 234.980
41.84000 236.836
41.88000 264.637
41.92000 242.272
41.96000 242.232
42.00000 231.735
42.04000 228.400
42.08000 241.588
42.12000 234.885
42.16000 227.908
42.20000 226.766
42.24000 225.161
42.28000 239.235
42.32000 230.947
42.36000 233.780
42.40000 236.223
42.44000 235.728
42.48000 219.792
42.52000 228.962
42.56000 225.935
42.60000 231.669
42.64000 228.135
42.68000 230.848
42.72000 220.734
42.76000 221.108
42.80000 222.797
42.84000 235.405
42.88000 215.788
42.92000 217.903
42.96000 224.029
43.00000 243.466
43.04000 229.587
43.08000 234.063
43.12000 233.959
43.16000 221.339
43.20000 229.519
43.24000 230.085
43.28000 227.756
43.32000 214.972
43.36000 225.406
43.40000 226.368
43.44000 228.853
43.48000 218.915
43.52000 233.907
43.56000 230.574
43.60000 231.477
43.64000 227.713
43.68000 221.716
43.72000 219.971
43.76000 218.033
43.80000 230.034
43.84000 219.381
43.88000 222.425
43.92000 216.859
43.96000 224.112
44.00000 235.462
44.04000 225.389
44.08000 231.920
44.12000 225.360
44.16000 210.066
44.20000 217.748
44.24000 224.743
44.28000 229.411
44.32000 223.870
44.36000 214.539
44.40000 224.442
44.44000 239.980
44.48000 211.815
44.52000 214.551
44.56000 206.971
44.60000 225.924
44.64000 223.056
44.68000 226.179
44.72000 224.941
44.76000 222.140
44.80000 241.019
44.84000 229.173
44.88000 250.018
44.92000 237.436
44.96000 251.008
45.00000 250.966
45.04000 271.401
45.08000 276.435
45.12000 269.065
45.16000 260.843
45.20000 271.245
45.24000 260.251
45.28000 268.143
45.32000 254.823
45.36000 269.755
45.40000 261.441
45.44000 243.092
45.48000 260.255
45.52000 253.770
45.56000 255.990
45.60000 244.248
45.64000 237.376
45.68000 252.214
45.72000 223.414
45.76000 238.627
45.80000 241.889
45.84000 240.751
45.88000 225.165
45.92000 228.998
45.96000 224.366
46.00000 214.134
46.04000 215.353
46.08000 205.686
46.12000 210.596
46.16000 213.880
46.20000 212.869
46.24000 200.269
46.28000 208.987
46.32000 193.372
46.36000 209.573
46.40000 207.239
46.44000 197.781
46.48000 205.839
46.52000 201.371
46.56000 194.311
46.60000 198.944
46.64000 193.620
46.68000 204.004
46.72000 195.781
46.76000 195.621
46.80000 193.401
46.84000 191.657
46.88000 189.214
46.92000 196.828
46.96000 192.779
47.00000 196.062
47.04000 186.883
47.08000 191.894
47.12000 197.024
47.16000 190.040
47.20000 183.497
47.24000 198.147
47.28000 199.776
47.32000 195.927
47.36000 196.067
47.40000 192.736
47.44000 199.796
47.48000 189.290
47.52000 188.170
47.56000 178.868
47.60000 192.837
47.64000 188.214
47.68000 185.179
47.72000 192.464
47.76000 191.330
47.80000 190.396
47.84000 199.529
47.88000 187.803
47.92000 189.987
47.96000 188.060
48.00000 182.440
48.04000 185.430
48.08000 183.349
48.12000 184.463
48.16000 171.587
48.20000 188.535
48.24000 178.631
48.28000 177.007
48.32000 176.354
48.36000 175.389
48.40000 197.763
48.44000 181.710
48.48000 165.070
48.52000 179.140
48.56000 175.403
48.60000 177.693
48.64000 182.695
48.68000 166.982
48.72000 186.987
48.76000 176.628
48.80000 185.465
48.84000 183.301
48.88000 174.170
48.92000 188.043
48.96000 172.203
49.00000 178.903
49.04000 192.785
49.08000 189.147
49.12000 169.838
49.16000 167.849
49.20000 170.946
49.24000 188.215
49.28000 178.188
49.32000 177.297
49.36000 178.504
49.40000 186.118
49.44000 177.498
49.48000 180.863
49.52000 174.926
49.56000 179.772
49.60000 182.574
49.64000 175.694
49.68000 175.839
49.72000 176.924
49.76000 173.003
49.80000 169.888
49.84000 175.709
49.88000 175.744
49.92000 169.091
49.96000 173.728
50.00000 183.196
50.04000 175.823
50.08000 168.113
50.12000 174.846
50.16000 177.301
50.20000 170.100
50.24000 172.750
50.28000 181.263
50.32000 175.688
50.36000 179.542
50.40000 179.166
50.44000 187.279
50.48000 185.165
50.52000 180.199
50.56000 199.607
50.60000 188.036
50.64000 188.683
50.68000 208.356
50.72000 201.645
50.76000 204.858
50.80000 211.956
50.84000 209.628
50.88000 208.643
50.92000 194.248
50.96000 197.787
51.00000 183.330
51.04000 170.162
51.08000 175.202
51.12000 180.218
51.16000 171.132
51.20000 178.219
51.24000 179.344
51.28000 179.533
51.32000 180.030
51.36000 168.498
51.40000 170.287
51.44000 177.060
51.48000 166.129
51.52000 168.411
51.56000 183.269
51.60000 166.095
51.64000 152.713
51.68000 163.961
51.72000 161.118
51.76000 163.552
51.80000 168.641
51.84000 160.662
51.88000 161.970
51.92000 165.772
51.96000 157.526
52.00000 174.337
52.04000 161.163
52.08000 157.701
52.12000 159.673
52.16000 160.030
52.20000 162.263
52.24000 155.349
52.28000 171.035
52.32000 162.930
52.36000 161.021
52.40000 168.112
52.44000 160.054
52.48000 156.162
52.52000 150.690
52.56000 158.113
52.60000 165.164
52.64000 154.963
52.68000 162.790
52.72000 153.356
52.76000 151.891
52.80000 158.078
52.84000 157.675
52.88000 153.945
52.92000 152.138
52.96000 160.641
53.00000 160.030
53.04000 168.690
53.08000 152.558
53.12000 166.160
53.16000 157.692
53.20000 156.728
53.24000 160.620
53.28000 158.384
53.32000 167.284
53.36000 162.000
53.40000 166.153
53.44000 169.979
53.48000 161.118
53.52000 159.430
53.56000 156.522
53.60000 162.900
53.64000 158.476
53.68000 160.377
53.72000 155.224
53.76000 151.360
53.80000 159.883
53.84000 154.316
53.88000 164.918
53.92000 167.871
53.96000 158.167
54.00000 151.473
54.04000 155.551
54.08000 158.726
54.12000 164.354
54.16000 163.551
54.20000 159.397
54.24000 158.076
54.28000 161.895
54.32000 151.519
54.36000 167.300
54.40000 165.476
54.44000 155.377
54.48000 173.226
54.52000 159.640
54.56000 152.553
54.60000 162.108
54.64000 157.645
54.68000 154.433
54.72000 150.066
54.76000 161.459
54.80000 162.319
54.84000 153.240
54.88000 176.920
54.92000 161.342
54.96000 165.354
55.00000 150.384
55.04000 159.138
55.08000 166.153
55.12000 168.614
55.16000 165.924
55.20000 168.441
55.24000 161.390
55.28000 178.075
55.32000 179.679
55.36000 181.304
55.40000 168.096
55.44000 183.470
55.48000 184.421
55.52000 218.061
55.56000 239.695
55.60000 273.924
55.64000 287.205
55.68000 348.104
55.72000 399.419
55.76000 491.481
55.80000 581.176
55.84000 699.216
55.88000 793.266
55.92000 840.109
55.96000 905.693
56.00000 948.941
56.04000 874.915
56.08000 821.272
56.12000 757.590
56.16000 684.567
56.20000 585.558
56.24000 490.867
56.28000 424.015
56.32000 353.810
56.36000 300.020
56.40000 272.874
56.44000 233.086
56.48000 215.969
56.52000 193.270
56.56000 179.005
56.60000 175.232
56.64000 171.510
56.68000 173.926
56.72000 166.422
56.76000 160.846
56.80000 160.688
56.84000 153.910
56.88000 161.042
56.92000 154.544
56.96000 159.069
57.00000 156.072
57.04000 149.237
57.08000 146.796
57.12000 153.785
57.16000 152.139
57.20000 140.798
57.24000 143.362
57.28000 158.831
57.32000 152.100
57.36000 154.543
57.40000 152.609
57.44000 141.448
57.48000 144.232
57.52000 147.459
57.56000 147.660
57.60000 145.844
57.64000 156.535
57.68000 139.367
57.72000 146.219
57.76000 147.033
57.80000 145.859
57.84000 135.499
57.88000 147.927
57.92000 142.867
57.96000 140.565
58.00000 148.304
58.04000 143.980
58.08000 133.650
58.12000 139.295
58.16000 132.781
58.20000 151.534
58.24000 147.894
58.28000 140.421
58.32000 145.151
58.36000 141.574
58.40000 145.578
58.44000 139.537
58.48000 137.464
58.52000 134.497
58.56000 147.958
58.60000 130.047
58.64000 139.490
58.68000 140.385
58.72000 142.813
58.76000 139.189
58.80000 131.458
58.84000 134.531
58.88000 129.102
58.92000 134.758
58.96000 129.503
59.00000 129.730
59.04000 137.200
59.08000 127.445
59.12000 143.221
59.16000 132.705
59.20000 128.408
59.24000 136.142
59.28000 131.020
59.32000 124.544
59.36000 134.372
59.40000 126.436
59.44000 132.911
59.48000 131.497
59.52000 132.019
59.56000 126.782
59.60000 129.850
59.64000 121.358
59.68000 134.954
59.72000 134.745
59.76000 141.274
59.80000 132.153
59.84000 135.858
59.88000 137.479
59.92000 127.674
59.96000 137.030
60.00000 125.522
60.04000 145.998
60.08000 136.056
60.12000 133.264
60.16000 128.489
60.20000 130.884
60.24000 137.669
60.28000 127.511
60.32000 129.159
60.36000 138.261
60.40000 141.777
60.44000 124.720
60.48000 136.691
60.52000 138.248
60.56000 125.115
60.60000 138.617
60.64000 138.515
60.68000 138.051
60.72000 133.686
60.76000 130.810
60.80000 132.319
60.84000 131.675
60.88000 136.839
60.92000 133.038
60.96000 139.324
61.00000 139.028
61.04000 134.942
61.08000 137.528
61.12000 131.014
61.16000 129.520
61.20000 134.911
61.24000 138.570
61.28000 134.240
61.32000 137.964
61.36000 137.666
61.40000 147.013
61.44000 142.861
61.48000 140.491
61.52000 161.016
61.56000 192.124
61.60000 221.405
61.64000 250.897
61.68000 264.740
61.72000 259.675
61.76000 248.421
61.80000 209.572
61.84000 177.240
61.88000 152.724
61.92000 146.422
61.96000 141.920
62.00000 131.001
62.04000 142.994
62.08000 134.898
62.12000 133.408
62.16000 135.335
62.20000 131.750
62.24000 132.291
62.28000 145.561
62.32000 144.492
62.36000 139.057
62.40000 151.401
62.44000 140.979
62.48000 146.021
62.52000 142.549
62.56000 142.712
62.60000 138.443
62.64000 139.329
62.68000 130.474
62.72000 137.944
62.76000 141.842
62.80000 136.827
62.84000 153.557
62.88000 142.631
62.92000 143.936
62.96000 132.156
63.00000 142.253
63.04000 151.404
63.08000 151.353
63.12000 139.504
63.16000 150.305
63.20000 129.965
63.24000 142.523
63.28000 138.096
63.32000 140.563
63.36000 141.670
63.40000 146.026
63.44000 137.571
63.48000 155.367
63.52000 157.961
63.56000 136.944
63.60000 135.338
63.64000 154.980
63.68000 150.979
63.72000 143.185
63.76000 147.502
63.80000 153.309
63.84000 146.463
63.88000 146.784
63.92000 158.596
63.96000 143.957
64.00000 150.698
64.04000 147.744
64.08000 160.727
64.12000 151.048
64.16000 156.305
64.20000 143.229
64.24000 143.995
64.28000 150.083
64.32000 161.610
64.36000 155.831
64.40000 154.159
64.44000 166.208
64.48000 161.874
64.52000 170.459
64.56000 164.403
64.60000 162.118
64.64000 168.619
64.68000 169.891
64.72000 177.893
64.76000 164.767
64.80000 168.905
64.84000 166.217
64.88000 188.996
64.92000 174.836
64.96000 184.196
65.00000 191.734
65.04000 195.381
65.08000 201.880
65.12000 197.107
65.16000 198.543
65.20000 225.987
65.24000 216.301
65.28000 229.037
65.32000 256.786
65.36000 237.901
65.40000 254.432
65.44000 264.984
65.48000 279.986
65.52000 307.818
65.56000 318.007
65.60000 345.445
65.64000 375.244
65.68000 430.289
65.72000 533.078
65.76000 741.084
65.80000 921.984
65.84000 1005.555
65.88000 1058.605
65.92000 1024.296
65.96000 860.084
66.00000 616.290
66.04000 436.892
66.08000 349.570
66.12000 337.922
66.16000 284.926
66.20000 297.906
66.24000 327.281
66.28000 355.905
66.32000 372.247
66.36000 412.449
66.40000 408.842
66.44000 439.047
66.48000 426.799
66.52000 381.411
66.56000 337.377
66.60000 314.232
66.64000 302.931
66.68000 309.117
66.72000 307.289
66.76000 313.192
66.80000 308.659
66.84000 316.727
66.88000 306.502
66.92000 311.719
66.96000 307.497
67.00000 318.891
67.04000 318.724
67.08000 338.957
67.12000 344.313
67.16000 343.884
67.20000 346.353
67.24000 361.913
67.28000 356.691
67.32000 377.446
67.36000 367.702
67.40000 377.818
67.44000 403.612
67.48000 398.575
67.52000 401.039
67.56000 402.027
67.60000 418.173
67.64000 425.172
67.68000 411.592
67.72000 420.259
67.76000 456.772
67.80000 472.400
67.84000 449.757
67.88000 483.249
67.92000 490.059
67.96000 493.436
68.00000 497.533
68.04000 491.982
68.08000 510.420
68.12000 531.123
68.16000 532.724
68.20000 553.435
68.24000 588.993
68.28000 591.056
68.32000 584.811
68.36000 614.578
68.40000 650.782
68.44000 656.175
68.48000 708.844
68.52000 715.963
68.56000 782.119
68.60000 881.142
68.64000 1025.035
68.68000 1181.870
68.72000 1398.494
68.76000 1564.894
68.80000 1794.070
68.84000 2113.176
68.88000 2626.948
68.92000 3968.056
68.96000 10908.049
69.00000 24947.648
69.04000 40752.023
69.08000 48398.363
69.12000 50302.918
69.16000 52284.109
69.20000 52782.664
69.24000 44889.520
69.28000 33562.762
69.32000 27554.727
69.36000 24840.549
69.40000 20730.057
69.44000 13370.514
69.48000 5998.056
69.52000 2745.237
69.56000 1722.452
69.60000 1335.888
69.64000 1135.628
69.68000 1021.787
69.72000 909.328
69.76000 831.468
69.80000 790.505
69.84000 754.728
69.88000 718.725
69.92000 680.880
69.96000 652.823
70.00000 632.430