File: XRD/XRD/24-09-2025 Dep 3/XY Data/BTO_Mapping_Theta2Theta_24-09-2025_001_04_30-000_0-000.xy
20.00000 552.304
20.04000 563.815
20.08000 577.817
20.12000 550.728
20.16000 557.302
20.20000 585.975
20.24000 563.707
20.28000 559.828
20.32000 563.059
20.36000 560.552
20.40000 560.323
20.44000 555.333
20.48000 561.991
20.52000 578.501
20.56000 568.736
20.60000 551.687
20.64000 560.161
20.68000 561.923
20.72000 548.987
20.76000 553.490
20.80000 572.131
20.84000 579.050
20.88000 527.486
20.92000 561.633
20.96000 560.893
21.00000 549.022
21.04000 560.898
21.08000 552.026
21.12000 562.555
21.16000 555.473
21.20000 554.826
21.24000 557.409
21.28000 552.087
21.32000 524.538
21.36000 571.803
21.40000 563.022
21.44000 553.311
21.48000 547.903
21.52000 539.838
21.56000 543.003
21.60000 536.224
21.64000 536.572
21.68000 555.232
21.72000 566.083
21.76000 580.214
21.80000 580.276
21.84000 588.237
21.88000 590.235
21.92000 599.310
21.96000 626.248
22.00000 621.076
22.04000 602.900
22.08000 612.846
22.12000 612.669
22.16000 607.343
22.20000 604.812
22.24000 577.958
22.28000 585.882
22.32000 578.040
22.36000 546.413
22.40000 538.303
22.44000 546.031
22.48000 552.891
22.52000 543.156
22.56000 541.134
22.60000 532.165
22.64000 530.469
22.68000 542.018
22.72000 535.344
22.76000 520.953
22.80000 505.041
22.84000 526.726
22.88000 514.694
22.92000 515.592
22.96000 537.692
23.00000 552.947
23.04000 525.728
23.08000 500.261
23.12000 533.692
23.16000 536.673
23.20000 521.061
23.24000 515.233
23.28000 517.741
23.32000 482.951
23.36000 514.019
23.40000 515.701
23.44000 510.342
23.48000 535.072
23.52000 497.660
23.56000 510.020
23.60000 510.532
23.64000 509.094
23.68000 511.115
23.72000 515.327
23.76000 521.461
23.80000 516.442
23.84000 534.147
23.88000 542.859
23.92000 539.909
23.96000 527.908
24.00000 543.231
24.04000 514.926
24.08000 520.428
24.12000 497.348
24.16000 510.651
24.20000 518.377
24.24000 522.267
24.28000 499.460
24.32000 508.146
24.36000 494.207
24.40000 506.973
24.44000 508.908
24.48000 482.173
24.52000 512.758
24.56000 486.017
24.60000 499.939
24.64000 500.445
24.68000 482.053
24.72000 465.934
24.76000 483.081
24.80000 503.344
24.84000 494.356
24.88000 474.870
24.92000 468.566
24.96000 480.889
25.00000 478.928
25.04000 483.220
25.08000 459.301
25.12000 461.576
25.16000 471.148
25.20000 482.055
25.24000 477.561
25.28000 473.789
25.32000 474.927
25.36000 471.810
25.40000 478.052
25.44000 482.037
25.48000 481.214
25.52000 462.648
25.56000 484.316
25.60000 463.016
25.64000 458.488
25.68000 467.472
25.72000 480.026
25.76000 448.858
25.80000 479.857
25.84000 464.987
25.88000 469.518
25.92000 490.316
25.96000 477.462
26.00000 449.242
26.04000 446.302
26.08000 468.295
26.12000 458.912
26.16000 464.831
26.20000 462.969
26.24000 452.296
26.28000 464.840
26.32000 459.435
26.36000 450.995
26.40000 465.941
26.44000 444.346
26.48000 461.015
26.52000 459.128
26.56000 449.523
26.60000 447.992
26.64000 447.336
26.68000 453.619
26.72000 464.272
26.76000 446.987
26.80000 469.884
26.84000 456.355
26.88000 449.491
26.92000 428.043
26.96000 441.031
27.00000 447.075
27.04000 428.216
27.08000 458.095
27.12000 429.125
27.16000 422.208
27.20000 440.498
27.24000 442.694
27.28000 443.978
27.32000 459.239
27.36000 447.589
27.40000 437.441
27.44000 436.315
27.48000 448.910
27.52000 439.685
27.56000 444.432
27.60000 437.226
27.64000 450.870
27.68000 453.542
27.72000 427.565
27.76000 441.170
27.80000 441.218
27.84000 446.046
27.88000 437.858
27.92000 435.739
27.96000 437.977
28.00000 445.256
28.04000 422.587
28.08000 429.348
28.12000 438.485
28.16000 413.300
28.20000 414.047
28.24000 432.116
28.28000 437.659
28.32000 438.643
28.36000 445.980
28.40000 433.391
28.44000 427.860
28.48000 434.413
28.52000 432.011
28.56000 398.900
28.60000 437.912
28.64000 410.610
28.68000 419.265
28.72000 428.891
28.76000 429.631
28.80000 429.499
28.84000 425.660
28.88000 393.040
28.92000 428.837
28.96000 429.603
29.00000 429.170
29.04000 423.121
29.08000 420.760
29.12000 412.522
29.16000 416.245
29.20000 407.102
29.24000 414.742
29.28000 392.262
29.32000 417.630
29.36000 399.234
29.40000 416.125
29.44000 425.098
29.48000 418.844
29.52000 417.601
29.56000 397.959
29.60000 413.400
29.64000 420.823
29.68000 417.936
29.72000 418.503
29.76000 401.841
29.80000 412.964
29.84000 412.329
29.88000 418.869
29.92000 428.283
29.96000 424.882
30.00000 437.964
30.04000 440.808
30.08000 418.032
30.12000 418.781
30.16000 434.650
30.20000 449.459
30.24000 419.436
30.28000 430.605
30.32000 400.121
30.36000 415.901
30.40000 399.582
30.44000 415.933
30.48000 416.428
30.52000 423.882
30.56000 424.082
30.60000 430.368
30.64000 420.289
30.68000 420.959
30.72000 429.850
30.76000 461.204
30.80000 456.249
30.84000 447.031
30.88000 470.881
30.92000 470.570
30.96000 497.721
31.00000 517.232
31.04000 538.613
31.08000 596.359
31.12000 663.371
31.16000 744.168
31.20000 874.052
31.24000 1006.090
31.28000 1108.541
31.32000 1221.792
31.36000 1316.540
31.40000 1323.375
31.44000 1286.908
31.48000 1239.217
31.52000 1094.812
31.56000 957.283
31.60000 834.313
31.64000 716.661
31.68000 647.425
31.72000 601.777
31.76000 528.349
31.80000 503.248
31.84000 473.654
31.88000 470.806
31.92000 442.760
31.96000 456.353
32.00000 415.825
32.04000 418.593
32.08000 411.467
32.12000 411.996
32.16000 414.321
32.20000 400.571
32.24000 424.871
32.28000 394.155
32.32000 393.743
32.36000 416.641
32.40000 394.661
32.44000 393.705
32.48000 377.376
32.52000 385.346
32.56000 378.621
32.60000 397.119
32.64000 368.959
32.68000 384.664
32.72000 373.780
32.76000 367.886
32.80000 375.418
32.84000 399.270
32.88000 440.773
32.92000 458.190
32.96000 468.160
33.00000 439.963
33.04000 452.773
33.08000 399.015
33.12000 362.148
33.16000 360.187
33.20000 338.650
33.24000 336.684
33.28000 339.191
33.32000 345.948
33.36000 340.214
33.40000 326.809
33.44000 345.276
33.48000 349.604
33.52000 359.093
33.56000 347.051
33.60000 329.977
33.64000 354.856
33.68000 342.837
33.72000 357.077
33.76000 340.458
33.80000 337.973
33.84000 344.746
33.88000 337.815
33.92000 322.527
33.96000 350.548
34.00000 351.471
34.04000 347.781
34.08000 339.918
34.12000 343.134
34.16000 351.690
34.20000 353.553
34.24000 339.995
34.28000 358.547
34.32000 338.239
34.36000 346.998
34.40000 350.535
34.44000 336.987
34.48000 332.646
34.52000 336.632
34.56000 336.849
34.60000 349.943
34.64000 331.775
34.68000 343.065
34.72000 324.357
34.76000 332.403
34.80000 326.995
34.84000 334.216
34.88000 306.644
34.92000 317.409
34.96000 318.932
35.00000 330.425
35.04000 319.903
35.08000 302.410
35.12000 334.386
35.16000 347.017
35.20000 325.081
35.24000 306.135
35.28000 305.083
35.32000 315.827
35.36000 312.405
35.40000 327.509
35.44000 311.222
35.48000 316.130
35.52000 315.921
35.56000 320.216
35.60000 318.223
35.64000 314.390
35.68000 313.636
35.72000 305.921
35.76000 301.189
35.80000 310.882
35.84000 317.922
35.88000 315.081
35.92000 312.678
35.96000 313.433
36.00000 303.500
36.04000 295.326
36.08000 320.362
36.12000 300.144
36.16000 297.777
36.20000 299.777
36.24000 296.360
36.28000 282.935
36.32000 306.492
36.36000 304.337
36.40000 311.957
36.44000 312.407
36.48000 299.447
36.52000 309.242
36.56000 292.148
36.60000 292.754
36.64000 298.620
36.68000 302.561
36.72000 287.653
36.76000 303.918
36.80000 294.149
36.84000 306.925
36.88000 300.520
36.92000 327.155
36.96000 313.260
37.00000 305.481
37.04000 309.955
37.08000 293.932
37.12000 304.739
37.16000 307.766
37.20000 314.089
37.24000 278.952
37.28000 299.760
37.32000 302.481
37.36000 299.225
37.40000 294.706
37.44000 284.685
37.48000 295.824
37.52000 304.638
37.56000 295.002
37.60000 293.742
37.64000 283.208
37.68000 286.003
37.72000 305.326
37.76000 297.003
37.80000 282.968
37.84000 305.340
37.88000 289.522
37.92000 296.977
37.96000 276.331
38.00000 300.212
38.04000 309.337
38.08000 303.587
38.12000 310.239
38.16000 308.899
38.20000 315.017
38.24000 301.290
38.28000 326.876
38.32000 326.848
38.36000 351.801
38.40000 379.790
38.44000 450.344
38.48000 500.918
38.52000 589.867
38.56000 738.874
38.60000 869.727
38.64000 1044.037
38.68000 1174.126
38.72000 1231.554
38.76000 1245.762
38.80000 1212.338
38.84000 1053.460
38.88000 874.500
38.92000 744.201
38.96000 600.114
39.00000 503.637
39.04000 413.845
39.08000 351.325
39.12000 329.462
39.16000 315.233
39.20000 305.342
39.24000 304.693
39.28000 297.577
39.32000 299.116
39.36000 281.753
39.40000 280.622
39.44000 283.403
39.48000 283.834
39.52000 283.187
39.56000 265.650
39.60000 278.143
39.64000 267.616
39.68000 264.829
39.72000 269.994
39.76000 268.393
39.80000 272.925
39.84000 262.905
39.88000 259.398
39.92000 266.128
39.96000 275.109
40.00000 277.525
40.04000 268.377
40.08000 264.796
40.12000 266.402
40.16000 278.906
40.20000 273.539
40.24000 250.331
40.28000 253.178
40.32000 267.155
40.36000 257.328
40.40000 250.462
40.44000 244.894
40.48000 257.335
40.52000 264.208
40.56000 248.067
40.60000 252.863
40.64000 258.039
40.68000 245.505
40.72000 248.649
40.76000 251.403
40.80000 244.477
40.84000 255.455
40.88000 248.581
40.92000 250.910
40.96000 246.559
41.00000 251.484
41.04000 247.720
41.08000 233.991
41.12000 241.519
41.16000 241.695
41.20000 256.795
41.24000 250.163
41.28000 252.656
41.32000 246.733
41.36000 239.608
41.40000 245.568
41.44000 249.580
41.48000 244.533
41.52000 238.130
41.56000 235.205
41.60000 244.679
41.64000 247.149
41.68000 251.941
41.72000 247.609
41.76000 259.054
41.80000 248.043
41.84000 236.974
41.88000 230.713
41.92000 240.038
41.96000 240.290
42.00000 245.818
42.04000 244.192
42.08000 236.934
42.12000 246.546
42.16000 251.232
42.20000 231.558
42.24000 249.603
42.28000 243.743
42.32000 234.540
42.36000 243.440
42.40000 231.317
42.44000 248.287
42.48000 235.492
42.52000 231.402
42.56000 243.800
42.60000 236.958
42.64000 242.100
42.68000 240.428
42.72000 237.268
42.76000 236.256
42.80000 234.140
42.84000 237.842
42.88000 233.678
42.92000 234.489
42.96000 235.656
43.00000 224.131
43.04000 231.689
43.08000 231.616
43.12000 231.617
43.16000 226.037
43.20000 233.160
43.24000 229.676
43.28000 230.698
43.32000 212.545
43.36000 233.294
43.40000 229.313
43.44000 229.804
43.48000 221.490
43.52000 238.287
43.56000 218.873
43.60000 235.640
43.64000 224.691
43.68000 212.020
43.72000 221.961
43.76000 219.719
43.80000 225.100
43.84000 215.607
43.88000 222.627
43.92000 229.092
43.96000 225.727
44.00000 219.141
44.04000 229.132
44.08000 219.322
44.12000 222.774
44.16000 225.931
44.20000 226.766
44.24000 218.167
44.28000 212.471
44.32000 217.569
44.36000 225.105
44.40000 229.070
44.44000 239.980
44.48000 235.770
44.52000 221.598
44.56000 241.016
44.60000 234.344
44.64000 234.868
44.68000 240.745
44.72000 244.785
44.76000 250.525
44.80000 254.801
44.84000 248.303
44.88000 256.121
44.92000 258.823
44.96000 256.473
45.00000 273.396
45.04000 278.461
45.08000 285.954
45.12000 273.635
45.16000 276.442
45.20000 264.655
45.24000 258.781
45.28000 271.371
45.32000 267.158
45.36000 253.781
45.40000 259.684
45.44000 221.992
45.48000 233.923
45.52000 231.425
45.56000 236.232
45.60000 232.755
45.64000 223.022
45.68000 233.745
45.72000 216.659
45.76000 220.487
45.80000 213.745
45.84000 229.519
45.88000 213.777
45.92000 214.669
45.96000 199.858
46.00000 209.966
46.04000 213.257
46.08000 205.433
46.12000 221.659
46.16000 206.393
46.20000 204.381
46.24000 200.489
46.28000 195.474
46.32000 204.002
46.36000 204.862
46.40000 200.831
46.44000 210.500
46.48000 219.787
46.52000 207.320
46.56000 206.510
46.60000 204.868
46.64000 205.999
46.68000 203.816
46.72000 190.489
46.76000 199.456
46.80000 204.111
46.84000 199.283
46.88000 200.694
46.92000 205.218
46.96000 203.719
47.00000 194.464
47.04000 192.955
47.08000 182.065
47.12000 190.661
47.16000 205.527
47.20000 189.285
47.24000 195.472
47.28000 194.802
47.32000 191.967
47.36000 191.278
47.40000 186.825
47.44000 195.838
47.48000 186.999
47.52000 193.970
47.56000 188.103
47.60000 187.430
47.64000 182.994
47.68000 176.580
47.72000 198.951
47.76000 193.133
47.80000 196.203
47.84000 185.987
47.88000 192.498
47.92000 190.577
47.96000 189.002
48.00000 181.341
48.04000 190.388
48.08000 182.758
48.12000 181.939
48.16000 186.333
48.20000 183.469
48.24000 182.280
48.28000 174.568
48.32000 192.292
48.36000 189.082
48.40000 184.142
48.44000 185.723
48.48000 179.617
48.52000 185.068
48.56000 179.513
48.60000 181.057
48.64000 183.072
48.68000 181.717
48.72000 201.549
48.76000 182.218
48.80000 170.766
48.84000 174.576
48.88000 180.257
48.92000 171.219
48.96000 183.239
49.00000 188.789
49.04000 178.312
49.08000 181.723
49.12000 190.278
49.16000 187.967
49.20000 185.671
49.24000 178.657
49.28000 177.514
49.32000 187.749
49.36000 186.880
49.40000 182.393
49.44000 184.949
49.48000 179.121
49.52000 175.957
49.56000 168.933
49.60000 188.048
49.64000 192.201
49.68000 187.913
49.72000 176.099
49.76000 178.241
49.80000 177.061
49.84000 186.609
49.88000 177.868
49.92000 172.039
49.96000 185.838
50.00000 186.826
50.04000 168.073
50.08000 180.437
50.12000 175.612
50.16000 181.674
50.20000 169.659
50.24000 177.421
50.28000 186.451
50.32000 186.718
50.36000 182.228
50.40000 181.000
50.44000 183.634
50.48000 193.793
50.52000 187.808
50.56000 199.411
50.60000 192.629
50.64000 185.918
50.68000 198.654
50.72000 197.120
50.76000 195.251
50.80000 187.371
50.84000 185.036
50.88000 175.436
50.92000 180.348
50.96000 195.956
51.00000 182.146
51.04000 182.897
51.08000 187.525
51.12000 173.656
51.16000 163.670
51.20000 180.614
51.24000 178.305
51.28000 163.354
51.32000 172.238
51.36000 179.201
51.40000 162.612
51.44000 178.953
51.48000 161.112
51.52000 168.586
51.56000 172.005
51.60000 170.186
51.64000 168.136
51.68000 155.867
51.72000 170.413
51.76000 172.023
51.80000 163.133
51.84000 160.532
51.88000 158.101
51.92000 159.753
51.96000 168.509
52.00000 155.795
52.04000 151.042
52.08000 166.208
52.12000 158.022
52.16000 157.636
52.20000 159.977
52.24000 161.086
52.28000 158.771
52.32000 165.936
52.36000 169.853
52.40000 165.448
52.44000 169.672
52.48000 175.549
52.52000 150.076
52.56000 161.895
52.60000 157.111
52.64000 167.202
52.68000 163.241
52.72000 164.483
52.76000 169.851
52.80000 163.199
52.84000 161.080
52.88000 162.008
52.92000 154.163
52.96000 158.733
53.00000 170.604
53.04000 166.048
53.08000 159.240
53.12000 162.493
53.16000 160.148
53.20000 162.082
53.24000 159.269
53.28000 158.397
53.32000 167.036
53.36000 150.069
53.40000 175.386
53.44000 166.168
53.48000 167.377
53.52000 176.247
53.56000 161.752
53.60000 167.968
53.64000 159.003
53.68000 163.743
53.72000 157.506
53.76000 168.177
53.80000 172.230
53.84000 150.376
53.88000 160.943
53.92000 170.004
53.96000 165.204
54.00000 161.257
54.04000 148.393
54.08000 163.069
54.12000 165.848
54.16000 161.129
54.20000 156.461
54.24000 161.382
54.28000 154.608
54.32000 159.645
54.36000 156.281
54.40000 162.679
54.44000 150.854
54.48000 162.463
54.52000 160.574
54.56000 156.876
54.60000 161.483
54.64000 164.192
54.68000 154.240
54.72000 161.923
54.76000 163.258
54.80000 173.022
54.84000 163.802
54.88000 153.709
54.92000 157.035
54.96000 162.253
55.00000 175.098
55.04000 158.640
55.08000 176.258
55.12000 168.994
55.16000 170.420
55.20000 165.299
55.24000 181.122
55.28000 172.154
55.32000 182.092
55.36000 183.592
55.40000 192.134
55.44000 207.464
55.48000 215.538
55.52000 220.660
55.56000 234.933
55.60000 266.833
55.64000 299.304
55.68000 333.268
55.72000 377.859
55.76000 428.827
55.80000 482.739
55.84000 531.735
55.88000 586.510
55.92000 608.047
55.96000 637.180
56.00000 615.105
56.04000 616.515
56.08000 582.521
56.12000 517.807
56.16000 463.753
56.20000 415.860
56.24000 371.183
56.28000 329.499
56.32000 289.691
56.36000 244.986
56.40000 214.304
56.44000 213.282
56.48000 201.852
56.52000 205.903
56.56000 191.737
56.60000 181.467
56.64000 171.973
56.68000 173.821
56.72000 167.449
56.76000 167.510
56.80000 174.829
56.84000 165.440
56.88000 167.235
56.92000 163.029
56.96000 155.349
57.00000 158.405
57.04000 165.865
57.08000 153.141
57.12000 151.760
57.16000 145.897
57.20000 149.064
57.24000 154.568
57.28000 144.400
57.32000 143.950
57.36000 138.653
57.40000 154.798
57.44000 151.626
57.48000 137.240
57.52000 149.222
57.56000 147.193
57.60000 157.652
57.64000 154.125
57.68000 146.207
57.72000 143.417
57.76000 140.686
57.80000 130.759
57.84000 140.852
57.88000 144.127
57.92000 145.130
57.96000 147.440
58.00000 150.517
58.04000 142.410
58.08000 155.739
58.12000 151.338
58.16000 145.219
58.20000 144.202
58.24000 132.401
58.28000 136.154
58.32000 145.868
58.36000 133.822
58.40000 133.643
58.44000 140.005
58.48000 145.093
58.52000 133.636
58.56000 134.403
58.60000 135.541
58.64000 128.204
58.68000 128.691
58.72000 129.865
58.76000 130.959
58.80000 135.470
58.84000 135.180
58.88000 135.640
58.92000 132.354
58.96000 137.833
59.00000 143.061
59.04000 133.192
59.08000 140.369
59.12000 146.410
59.16000 129.464
59.20000 141.534
59.24000 135.087
59.28000 128.155
59.32000 141.261
59.36000 127.539
59.40000 122.224
59.44000 134.276
59.48000 129.904
59.52000 123.432
59.56000 137.838
59.60000 130.587
59.64000 146.031
59.68000 133.945
59.72000 136.120
59.76000 142.277
59.80000 129.496
59.84000 134.896
59.88000 143.532
59.92000 130.984
59.96000 136.054
60.00000 137.194
60.04000 138.419
60.08000 139.193
60.12000 128.486
60.16000 135.794
60.20000 138.290
60.24000 126.760
60.28000 136.084
60.32000 128.497
60.36000 130.874
60.40000 137.625
60.44000 125.384
60.48000 138.228
60.52000 144.058
60.56000 135.281
60.60000 136.468
60.64000 131.379
60.68000 137.692
60.72000 137.640
60.76000 140.396
60.80000 133.870
60.84000 137.751
60.88000 145.402
60.92000 134.182
60.96000 138.093
61.00000 134.259
61.04000 132.036
61.08000 130.571
61.12000 131.803
61.16000 142.906
61.20000 125.718
61.24000 135.230
61.28000 145.515
61.32000 137.841
61.36000 137.812
61.40000 136.265
61.44000 137.327
61.48000 132.284
61.52000 162.496
61.56000 199.977
61.60000 232.229
61.64000 269.606
61.68000 285.349
61.72000 262.193
61.76000 262.240
61.80000 220.662
61.84000 183.402
61.88000 166.374
61.92000 144.559
61.96000 144.039
62.00000 145.050
62.04000 146.681
62.08000 132.609
62.12000 143.180
62.16000 145.202
62.20000 130.051
62.24000 135.168
62.28000 140.909
62.32000 144.721
62.36000 147.059
62.40000 141.086
62.44000 147.674
62.48000 137.237
62.52000 135.413
62.56000 134.873
62.60000 143.712
62.64000 147.653
62.68000 151.448
62.72000 146.904
62.76000 156.109
62.80000 144.496
62.84000 132.627
62.88000 134.773
62.92000 134.208
62.96000 141.058
63.00000 143.489
63.04000 151.084
63.08000 138.650
63.12000 150.408
63.16000 150.105
63.20000 152.199
63.24000 154.592
63.28000 147.939
63.32000 143.859
63.36000 140.217
63.40000 142.036
63.44000 138.408
63.48000 144.403
63.52000 151.671
63.56000 165.169
63.60000 148.320
63.64000 157.911
63.68000 151.848
63.72000 153.233
63.76000 152.613
63.80000 164.776
63.84000 163.931
63.88000 156.398
63.92000 151.641
63.96000 164.596
64.00000 163.983
64.04000 164.600
64.08000 151.909
64.12000 160.737
64.16000 164.092
64.20000 161.426
64.24000 153.821
64.28000 155.314
64.32000 158.660
64.36000 156.222
64.40000 160.928
64.44000 167.628
64.48000 153.677
64.52000 167.412
64.56000 174.552
64.60000 170.315
64.64000 161.633
64.68000 172.197
64.72000 176.945
64.76000 170.556
64.80000 169.199
64.84000 182.941
64.88000 191.237
64.92000 172.884
64.96000 177.845
65.00000 187.267
65.04000 190.433
65.08000 183.891
65.12000 188.910
65.16000 202.741
65.20000 208.314
65.24000 216.867
65.28000 212.451
65.32000 225.756
65.36000 220.524
65.40000 244.917
65.44000 245.026
65.48000 258.463
65.52000 259.114
65.56000 275.612
65.60000 287.926
65.64000 328.234
65.68000 386.812
65.72000 504.145
65.76000 741.372
65.80000 932.171
65.84000 1044.929
65.88000 1078.466
65.92000 1057.212
65.96000 916.726
66.00000 667.159
66.04000 443.623
66.08000 362.506
66.12000 322.596
66.16000 303.665
66.20000 295.949
66.24000 308.437
66.28000 331.696
66.32000 384.759
66.36000 414.319
66.40000 429.945
66.44000 442.658
66.48000 439.803
66.52000 404.932
66.56000 374.319
66.60000 318.374
66.64000 304.821
66.68000 329.854
66.72000 310.992
66.76000 303.899
66.80000 328.593
66.84000 320.650
66.88000 323.099
66.92000 324.372
66.96000 337.953
67.00000 345.709
67.04000 334.253
67.08000 358.772
67.12000 354.930
67.16000 351.891
67.20000 370.577
67.24000 381.730
67.28000 374.478
67.32000 375.100
67.36000 400.653
67.40000 400.495
67.44000 401.702
67.48000 398.122
67.52000 439.266
67.56000 428.878
67.60000 416.555
67.64000 436.925
67.68000 440.211
67.72000 464.736
67.76000 478.574
67.80000 470.535
67.84000 499.525
67.88000 516.930
67.92000 484.991
67.96000 495.347
68.00000 527.719
68.04000 522.430
68.08000 541.144
68.12000 557.723
68.16000 561.194
68.20000 550.018
68.24000 588.159
68.28000 614.642
68.32000 622.664
68.36000 660.954
68.40000 682.009
68.44000 719.278
68.48000 741.950
68.52000 748.509
68.56000 844.182
68.60000 924.325
68.64000 1037.287
68.68000 1256.000
68.72000 1451.913
68.76000 1660.120
68.80000 1900.893
68.84000 2141.219
68.88000 2613.909
68.92000 3984.382
68.96000 11257.387
69.00000 26551.732
69.04000 43854.902
69.08000 52405.715
69.12000 54344.738
69.16000 56521.504
69.20000 57269.031
69.24000 48780.695
69.28000 36491.301
69.32000 29531.789
69.36000 26876.490
69.40000 22605.242
69.44000 14780.858
69.48000 6441.070
69.52000 2895.708
69.56000 1771.937
69.60000 1391.188
69.64000 1205.968
69.68000 1072.908
69.72000 969.694
69.76000 877.505
69.80000 824.038
69.84000 776.153
69.88000 735.373
69.92000 701.145
69.96000 705.073
70.00000 652.626