File: XRD/XRD/24-09-2025 Dep 3/XY Data/BTO_Mapping_Theta2Theta_24-09-2025_001_44_-15-000_-25-981.xy
20.00000 569.158
20.04000 554.152
20.08000 555.352
20.12000 563.215
20.16000 580.981
20.20000 546.563
20.24000 562.034
20.28000 564.259
20.32000 554.169
20.36000 547.979
20.40000 553.690
20.44000 553.049
20.48000 554.254
20.52000 546.416
20.56000 554.385
20.60000 539.205
20.64000 557.988
20.68000 558.255
20.72000 541.151
20.76000 555.868
20.80000 552.782
20.84000 560.262
20.88000 563.781
20.92000 537.826
20.96000 536.274
21.00000 547.266
21.04000 572.581
21.08000 551.447
21.12000 536.380
21.16000 545.119
21.20000 531.820
21.24000 565.588
21.28000 556.931
21.32000 539.709
21.36000 564.259
21.40000 563.116
21.44000 559.875
21.48000 544.032
21.52000 547.680
21.56000 567.512
21.60000 557.768
21.64000 550.791
21.68000 564.075
21.72000 572.665
21.76000 582.202
21.80000 617.839
21.84000 654.656
21.88000 699.534
21.92000 724.025
21.96000 738.161
22.00000 765.386
22.04000 792.386
22.08000 796.319
22.12000 785.780
22.16000 740.485
22.20000 695.769
22.24000 665.916
22.28000 608.462
22.32000 631.279
22.36000 611.337
22.40000 581.712
22.44000 562.771
22.48000 542.620
22.52000 543.039
22.56000 539.507
22.60000 515.272
22.64000 526.859
22.68000 531.145
22.72000 535.358
22.76000 538.284
22.80000 524.651
22.84000 525.154
22.88000 514.479
22.92000 516.726
22.96000 512.131
23.00000 525.745
23.04000 506.638
23.08000 504.669
23.12000 512.087
23.16000 517.238
23.20000 498.752
23.24000 501.893
23.28000 513.470
23.32000 502.539
23.36000 480.699
23.40000 524.349
23.44000 498.522
23.48000 511.837
23.52000 505.895
23.56000 493.882
23.60000 490.944
23.64000 505.817
23.68000 494.497
23.72000 489.651
23.76000 499.717
23.80000 500.578
23.84000 492.453
23.88000 501.540
23.92000 480.250
23.96000 516.183
24.00000 483.921
24.04000 493.911
24.08000 493.293
24.12000 492.714
24.16000 504.715
24.20000 490.369
24.24000 483.347
24.28000 495.892
24.32000 494.552
24.36000 467.372
24.40000 477.648
24.44000 485.768
24.48000 481.370
24.52000 497.957
24.56000 499.554
24.60000 493.644
24.64000 492.432
24.68000 481.737
24.72000 480.193
24.76000 474.199
24.80000 480.724
24.84000 469.338
24.88000 478.142
24.92000 468.855
24.96000 475.394
25.00000 483.906
25.04000 470.136
25.08000 469.768
25.12000 475.313
25.16000 483.156
25.20000 468.772
25.24000 473.089
25.28000 485.004
25.32000 467.590
25.36000 474.547
25.40000 467.021
25.44000 448.202
25.48000 487.867
25.52000 467.114
25.56000 443.216
25.60000 459.173
25.64000 479.171
25.68000 480.059
25.72000 463.495
25.76000 455.381
25.80000 478.470
25.84000 450.731
25.88000 452.798
25.92000 452.920
25.96000 470.504
26.00000 433.702
26.04000 443.427
26.08000 456.448
26.12000 457.796
26.16000 448.356
26.20000 455.420
26.24000 447.670
26.28000 444.396
26.32000 449.016
26.36000 453.011
26.40000 449.284
26.44000 437.824
26.48000 458.536
26.52000 459.056
26.56000 450.500
26.60000 459.247
26.64000 449.631
26.68000 446.361
26.72000 433.091
26.76000 450.697
26.80000 448.372
26.84000 456.221
26.88000 443.504
26.92000 451.873
26.96000 447.334
27.00000 442.654
27.04000 441.785
27.08000 435.844
27.12000 430.154
27.16000 441.961
27.20000 428.938
27.24000 430.073
27.28000 430.397
27.32000 448.573
27.36000 448.093
27.40000 455.338
27.44000 437.432
27.48000 431.922
27.52000 423.288
27.56000 442.946
27.60000 451.281
27.64000 434.444
27.68000 438.145
27.72000 431.519
27.76000 427.329
27.80000 418.978
27.84000 413.041
27.88000 425.694
27.92000 444.474
27.96000 430.723
28.00000 436.936
28.04000 441.516
28.08000 419.452
28.12000 443.180
28.16000 432.183
28.20000 437.855
28.24000 416.867
28.28000 433.828
28.32000 426.334
28.36000 448.969
28.40000 427.031
28.44000 429.278
28.48000 418.425
28.52000 426.446
28.56000 432.304
28.60000 423.246
28.64000 428.060
28.68000 421.734
28.72000 430.577
28.76000 418.147
28.80000 421.116
28.84000 420.154
28.88000 412.075
28.92000 415.456
28.96000 432.679
29.00000 413.761
29.04000 414.971
29.08000 423.107
29.12000 432.894
29.16000 425.584
29.20000 406.212
29.24000 412.162
29.28000 385.857
29.32000 419.526
29.36000 410.598
29.40000 397.154
29.44000 411.446
29.48000 418.093
29.52000 407.521
29.56000 414.189
29.60000 430.001
29.64000 421.099
29.68000 419.122
29.72000 440.938
29.76000 421.098
29.80000 407.374
29.84000 444.136
29.88000 437.016
29.92000 458.412
29.96000 478.950
30.00000 464.571
30.04000 460.554
30.08000 463.876
30.12000 478.249
30.16000 455.220
30.20000 447.121
30.24000 445.409
30.28000 443.523
30.32000 423.205
30.36000 435.728
30.40000 429.267
30.44000 427.544
30.48000 450.884
30.52000 440.010
30.56000 441.091
30.60000 444.963
30.64000 473.811
30.68000 449.740
30.72000 439.214
30.76000 466.269
30.80000 463.089
30.84000 472.335
30.88000 527.633
30.92000 541.326
30.96000 561.154
31.00000 635.135
31.04000 745.123
31.08000 924.368
31.12000 1136.574
31.16000 1511.487
31.20000 1957.604
31.24000 2477.106
31.28000 2985.088
31.32000 3462.550
31.36000 3658.978
31.40000 3661.671
31.44000 3400.692
31.48000 3014.971
31.52000 2487.877
31.56000 1974.319
31.60000 1471.921
31.64000 1156.569
31.68000 896.563
31.72000 764.190
31.76000 651.117
31.80000 588.879
31.84000 531.554
31.88000 504.582
31.92000 481.667
31.96000 440.030
32.00000 433.707
32.04000 440.794
32.08000 434.925
32.12000 404.805
32.16000 409.255
32.20000 409.205
32.24000 408.940
32.28000 400.211
32.32000 396.975
32.36000 380.544
32.40000 364.100
32.44000 381.342
32.48000 387.131
32.52000 393.092
32.56000 379.123
32.60000 383.319
32.64000 381.474
32.68000 373.423
32.72000 385.822
32.76000 390.997
32.80000 399.806
32.84000 462.143
32.88000 512.943
32.92000 538.790
32.96000 552.125
33.00000 529.266
33.04000 495.467
33.08000 445.160
33.12000 396.121
33.16000 367.097
33.20000 351.456
33.24000 361.794
33.28000 350.548
33.32000 355.911
33.36000 360.390
33.40000 358.031
33.44000 346.436
33.48000 339.681
33.52000 333.934
33.56000 333.223
33.60000 335.525
33.64000 334.555
33.68000 348.278
33.72000 342.651
33.76000 338.347
33.80000 350.289
33.84000 325.353
33.88000 337.075
33.92000 338.524
33.96000 331.371
34.00000 339.839
34.04000 353.037
34.08000 330.767
34.12000 334.552
34.16000 328.685
34.20000 318.486
34.24000 323.438
34.28000 334.960
34.32000 326.694
34.36000 346.530
34.40000 330.877
34.44000 311.655
34.48000 332.962
34.52000 318.439
34.56000 318.418
34.60000 312.608
34.64000 313.697
34.68000 327.219
34.72000 319.702
34.76000 302.900
34.80000 309.038
34.84000 322.200
34.88000 325.017
34.92000 316.770
34.96000 321.607
35.00000 317.757
35.04000 314.238
35.08000 329.565
35.12000 305.141
35.16000 327.044
35.20000 314.818
35.24000 314.222
35.28000 316.673
35.32000 318.927
35.36000 308.480
35.40000 316.275
35.44000 316.986
35.48000 316.635
35.52000 311.773
35.56000 301.021
35.60000 320.388
35.64000 320.413
35.68000 300.814
35.72000 304.927
35.76000 297.164
35.80000 306.529
35.84000 303.249
35.88000 305.537
35.92000 308.018
35.96000 302.983
36.00000 295.554
36.04000 304.783
36.08000 312.373
36.12000 306.198
36.16000 297.957
36.20000 303.846
36.24000 291.761
36.28000 288.665
36.32000 314.293
36.36000 307.167
36.40000 288.912
36.44000 302.620
36.48000 301.011
36.52000 298.329
36.56000 304.399
36.60000 312.184
36.64000 313.623
36.68000 313.642
36.72000 287.052
36.76000 300.170
36.80000 298.389
36.84000 298.778
36.88000 298.364
36.92000 299.821
36.96000 302.903
37.00000 311.553
37.04000 326.744
37.08000 316.165
37.12000 295.739
37.16000 301.478
37.20000 304.104
37.24000 297.826
37.28000 303.285
37.32000 315.982
37.36000 301.519
37.40000 290.196
37.44000 306.045
37.48000 293.066
37.52000 289.959
37.56000 306.360
37.60000 292.022
37.64000 286.131
37.68000 288.748
37.72000 287.254
37.76000 289.579
37.80000 299.149
37.84000 289.885
37.88000 298.362
37.92000 299.722
37.96000 310.224
38.00000 302.165
38.04000 298.922
38.08000 310.730
38.12000 306.634
38.16000 308.480
38.20000 327.814
38.24000 338.052
38.28000 345.129
38.32000 365.427
38.36000 407.579
38.40000 459.157
38.44000 556.847
38.48000 682.360
38.52000 813.920
38.56000 972.678
38.60000 1197.268
38.64000 1328.600
38.68000 1415.103
38.72000 1389.664
38.76000 1332.994
38.80000 1169.993
38.84000 956.374
38.88000 763.174
38.92000 616.499
38.96000 514.453
39.00000 438.392
39.04000 364.113
39.08000 338.547
39.12000 321.282
39.16000 303.903
39.20000 301.622
39.24000 297.928
39.28000 298.470
39.32000 293.184
39.36000 288.851
39.40000 286.415
39.44000 278.496
39.48000 281.876
39.52000 266.844
39.56000 275.623
39.60000 276.426
39.64000 260.687
39.68000 282.035
39.72000 258.298
39.76000 255.268
39.80000 260.189
39.84000 266.313
39.88000 266.559
39.92000 266.908
39.96000 269.055
40.00000 260.091
40.04000 258.424
40.08000 265.925
40.12000 264.471
40.16000 263.098
40.20000 249.755
40.24000 239.622
40.28000 255.986
40.32000 268.785
40.36000 259.509
40.40000 253.918
40.44000 256.753
40.48000 264.027
40.52000 265.708
40.56000 249.095
40.60000 250.444
40.64000 256.042
40.68000 248.294
40.72000 246.420
40.76000 264.638
40.80000 254.712
40.84000 234.467
40.88000 251.494
40.92000 239.907
40.96000 237.938
41.00000 247.283
41.04000 243.307
41.08000 248.766
41.12000 250.495
41.16000 237.053
41.20000 250.099
41.24000 250.853
41.28000 237.011
41.32000 234.498
41.36000 252.169
41.40000 243.180
41.44000 246.516
41.48000 253.392
41.52000 246.252
41.56000 247.484
41.60000 242.171
41.64000 239.090
41.68000 244.396
41.72000 251.483
41.76000 249.323
41.80000 227.811
41.84000 247.070
41.88000 229.077
41.92000 233.794
41.96000 230.023
42.00000 241.739
42.04000 240.171
42.08000 232.276
42.12000 241.404
42.16000 240.052
42.20000 241.390
42.24000 245.849
42.28000 247.775
42.32000 234.407
42.36000 228.295
42.40000 222.965
42.44000 235.530
42.48000 225.913
42.52000 240.642
42.56000 223.116
42.60000 234.563
42.64000 225.568
42.68000 224.660
42.72000 225.561
42.76000 221.259
42.80000 227.287
42.84000 228.329
42.88000 227.172
42.92000 222.990
42.96000 233.551
43.00000 242.332
43.04000 230.102
43.08000 226.544
43.12000 237.012
43.16000 231.574
43.20000 234.151
43.24000 242.783
43.28000 218.716
43.32000 217.422
43.36000 221.276
43.40000 224.824
43.44000 234.471
43.48000 230.426
43.52000 231.085
43.56000 230.309
43.60000 228.698
43.64000 238.362
43.68000 222.684
43.72000 219.941
43.76000 219.606
43.80000 220.199
43.84000 208.496
43.88000 231.572
43.92000 227.227
43.96000 220.140
44.00000 222.456
44.04000 225.471
44.08000 220.661
44.12000 221.963
44.16000 227.997
44.20000 221.520
44.24000 216.497
44.28000 216.193
44.32000 217.669
44.36000 229.555
44.40000 217.155
44.44000 230.051
44.48000 236.331
44.52000 242.921
44.56000 222.738
44.60000 230.103
44.64000 237.604
44.68000 261.424
44.72000 263.778
44.76000 292.310
44.80000 294.404
44.84000 332.981
44.88000 356.045
44.92000 385.323
44.96000 409.018
45.00000 412.398
45.04000 431.709
45.08000 430.954
45.12000 406.977
45.16000 401.284
45.20000 385.036
45.24000 362.131
45.28000 321.260
45.32000 308.409
45.36000 297.366
45.40000 295.886
45.44000 283.295
45.48000 272.277
45.52000 268.533
45.56000 265.029
45.60000 258.651
45.64000 244.284
45.68000 257.319
45.72000 240.158
45.76000 239.954
45.80000 234.934
45.84000 221.421
45.88000 233.152
45.92000 229.640
45.96000 210.477
46.00000 216.391
46.04000 211.352
46.08000 212.514
46.12000 222.677
46.16000 220.882
46.20000 218.988
46.24000 216.565
46.28000 211.130
46.32000 194.693
46.36000 203.444
46.40000 200.148
46.44000 208.341
46.48000 190.000
46.52000 192.755
46.56000 210.992
46.60000 215.059
46.64000 192.252
46.68000 201.532
46.72000 208.402
46.76000 200.089
46.80000 204.481
46.84000 212.261
46.88000 196.147
46.92000 185.497
46.96000 202.128
47.00000 194.342
47.04000 195.907
47.08000 192.478
47.12000 192.176
47.16000 194.613
47.20000 191.965
47.24000 191.351
47.28000 183.970
47.32000 196.279
47.36000 184.365
47.40000 190.064
47.44000 199.692
47.48000 186.657
47.52000 185.390
47.56000 194.694
47.60000 203.406
47.64000 183.789
47.68000 193.301
47.72000 183.827
47.76000 175.733
47.80000 180.447
47.84000 175.420
47.88000 191.373
47.92000 192.230
47.96000 176.702
48.00000 188.290
48.04000 174.104
48.08000 192.568
48.12000 182.125
48.16000 177.573
48.20000 177.495
48.24000 181.185
48.28000 180.017
48.32000 188.713
48.36000 182.025
48.40000 187.338
48.44000 190.215
48.48000 187.545
48.52000 174.710
48.56000 181.103
48.60000 173.314
48.64000 185.016
48.68000 189.473
48.72000 178.085
48.76000 184.656
48.80000 175.837
48.84000 176.182
48.88000 184.308
48.92000 191.342
48.96000 187.479
49.00000 189.737
49.04000 170.738
49.08000 184.309
49.12000 192.641
49.16000 178.824
49.20000 181.133
49.24000 182.174
49.28000 175.784
49.32000 183.052
49.36000 177.560
49.40000 177.693
49.44000 176.412
49.48000 181.267
49.52000 177.342
49.56000 173.382
49.60000 189.584
49.64000 179.807
49.68000 175.147
49.72000 181.692
49.76000 170.113
49.80000 177.189
49.84000 183.653
49.88000 176.228
49.92000 179.013
49.96000 179.700
50.00000 177.249
50.04000 197.685
50.08000 173.302
50.12000 185.234
50.16000 177.373
50.20000 172.685
50.24000 194.776
50.28000 175.065
50.32000 177.433
50.36000 198.842
50.40000 203.695
50.44000 212.117
50.48000 223.330
50.52000 237.200
50.56000 254.545
50.60000 264.987
50.64000 270.139
50.68000 270.816
50.72000 260.756
50.76000 272.865
50.80000 261.727
50.84000 256.647
50.88000 224.493
50.92000 207.726
50.96000 213.281
51.00000 191.128
51.04000 188.830
51.08000 183.884
51.12000 190.840
51.16000 172.136
51.20000 179.616
51.24000 179.157
51.28000 169.526
51.32000 174.511
51.36000 168.916
51.40000 172.981
51.44000 165.008
51.48000 162.524
51.52000 170.886
51.56000 170.855
51.60000 161.004
51.64000 177.223
51.68000 173.381
51.72000 167.640
51.76000 175.689
51.80000 168.964
51.84000 164.295
51.88000 170.879
51.92000 171.914
51.96000 158.169
52.00000 169.300
52.04000 161.696
52.08000 152.659
52.12000 161.386
52.16000 161.189
52.20000 157.371
52.24000 161.986
52.28000 157.939
52.32000 163.444
52.36000 160.419
52.40000 165.284
52.44000 161.635
52.48000 158.042
52.52000 157.671
52.56000 164.158
52.60000 154.946
52.64000 155.802
52.68000 154.295
52.72000 151.007
52.76000 162.428
52.80000 161.118
52.84000 146.078
52.88000 151.710
52.92000 148.964
52.96000 160.006
53.00000 161.525
53.04000 153.779
53.08000 156.043
53.12000 156.943
53.16000 159.854
53.20000 166.308
53.24000 165.519
53.28000 164.832
53.32000 160.070
53.36000 167.722
53.40000 162.027
53.44000 169.374
53.48000 166.633
53.52000 153.669
53.56000 171.044
53.60000 158.221
53.64000 155.303
53.68000 158.364
53.72000 161.183
53.76000 151.873
53.80000 157.750
53.84000 164.981
53.88000 157.400
53.92000 165.230
53.96000 157.785
54.00000 159.064
54.04000 146.594
54.08000 153.550
54.12000 162.242
54.16000 145.490
54.20000 153.802
54.24000 157.256
54.28000 165.393
54.32000 166.507
54.36000 153.030
54.40000 160.334
54.44000 155.730
54.48000 170.455
54.52000 156.160
54.56000 164.078
54.60000 155.772
54.64000 159.001
54.68000 151.438
54.72000 162.959
54.76000 158.508
54.80000 156.458
54.84000 161.276
54.88000 156.421
54.92000 163.144
54.96000 169.672
55.00000 162.619
55.04000 168.115
55.08000 165.002
55.12000 167.609
55.16000 162.283
55.20000 169.554
55.24000 181.485
55.28000 182.186
55.32000 177.640
55.36000 189.310
55.40000 179.476
55.44000 200.004
55.48000 211.314
55.52000 243.787
55.56000 256.852
55.60000 295.956
55.64000 360.304
55.68000 427.339
55.72000 506.273
55.76000 600.672
55.80000 706.587
55.84000 778.911
55.88000 817.971
55.92000 852.828
55.96000 839.130
56.00000 789.122
56.04000 750.739
56.08000 644.233
56.12000 550.069
56.16000 490.812
56.20000 400.265
56.24000 354.946
56.28000 308.200
56.32000 268.647
56.36000 244.419
56.40000 226.736
56.44000 214.668
56.48000 189.091
56.52000 186.936
56.56000 177.647
56.60000 171.684
56.64000 178.172
56.68000 169.455
56.72000 158.609
56.76000 152.979
56.80000 160.212
56.84000 161.601
56.88000 151.457
56.92000 157.676
56.96000 154.433
57.00000 151.756
57.04000 155.641
57.08000 147.024
57.12000 144.619
57.16000 142.103
57.20000 148.523
57.24000 144.584
57.28000 153.915
57.32000 142.898
57.36000 160.442
57.40000 151.403
57.44000 138.570
57.48000 144.759
57.52000 145.935
57.56000 163.235
57.60000 147.568
57.64000 152.919
57.68000 150.159
57.72000 137.933
57.76000 150.961
57.80000 136.661
57.84000 136.023
57.88000 142.615
57.92000 142.350
57.96000 139.662
58.00000 137.981
58.04000 142.027
58.08000 132.151
58.12000 140.202
58.16000 138.910
58.20000 148.988
58.24000 131.294
58.28000 148.207
58.32000 137.917
58.36000 138.916
58.40000 146.305
58.44000 140.704
58.48000 152.723
58.52000 141.658
58.56000 140.803
58.60000 138.855
58.64000 142.718
58.68000 135.983
58.72000 131.804
58.76000 137.899
58.80000 137.418
58.84000 138.684
58.88000 137.843
58.92000 141.462
58.96000 132.173
59.00000 136.056
59.04000 133.350
59.08000 137.764
59.12000 138.278
59.16000 129.712
59.20000 122.136
59.24000 134.467
59.28000 132.156
59.32000 145.934
59.36000 134.077
59.40000 141.747
59.44000 132.651
59.48000 126.814
59.52000 136.801
59.56000 123.751
59.60000 131.578
59.64000 130.075
59.68000 127.597
59.72000 132.455
59.76000 126.952
59.80000 130.624
59.84000 132.928
59.88000 130.576
59.92000 136.388
59.96000 134.954
60.00000 133.054
60.04000 135.686
60.08000 131.342
60.12000 131.448
60.16000 127.018
60.20000 130.319
60.24000 133.553
60.28000 134.547
60.32000 132.182
60.36000 145.897
60.40000 134.941
60.44000 133.755
60.48000 135.805
60.52000 139.778
60.56000 130.987
60.60000 135.817
60.64000 130.917
60.68000 128.827
60.72000 138.820
60.76000 136.948
60.80000 137.902
60.84000 136.539
60.88000 130.855
60.92000 133.611
60.96000 139.721
61.00000 128.935
61.04000 131.293
61.08000 138.164
61.12000 145.484
61.16000 133.726
61.20000 133.519
61.24000 142.870
61.28000 147.915
61.32000 134.612
61.36000 131.017
61.40000 148.242
61.44000 136.013
61.48000 152.268
61.52000 175.435
61.56000 215.835
61.60000 258.755
61.64000 293.382
61.68000 288.435
61.72000 291.915
61.76000 287.483
61.80000 239.330
61.84000 191.559
61.88000 158.328
61.92000 146.163
61.96000 139.472
62.00000 141.235
62.04000 144.495
62.08000 141.855
62.12000 146.204
62.16000 145.401
62.20000 134.228
62.24000 132.828
62.28000 147.292
62.32000 140.657
62.36000 147.810
62.40000 145.651
62.44000 144.887
62.48000 139.257
62.52000 141.189
62.56000 137.448
62.60000 150.107
62.64000 145.996
62.68000 143.720
62.72000 138.091
62.76000 138.359
62.80000 136.199
62.84000 138.815
62.88000 140.209
62.92000 151.572
62.96000 139.613
63.00000 142.617
63.04000 152.614
63.08000 146.639
63.12000 144.621
63.16000 154.136
63.20000 148.860
63.24000 141.695
63.28000 140.276
63.32000 144.397
63.36000 141.882
63.40000 143.937
63.44000 140.751
63.48000 145.758
63.52000 147.968
63.56000 147.972
63.60000 145.271
63.64000 152.173
63.68000 138.945
63.72000 153.854
63.76000 143.912
63.80000 157.937
63.84000 159.940
63.88000 166.979
63.92000 155.292
63.96000 151.924
64.00000 146.274
64.04000 146.048
64.08000 143.340
64.12000 148.297
64.16000 153.458
64.20000 160.922
64.24000 169.433
64.28000 163.484
64.32000 157.070
64.36000 158.399
64.40000 162.020
64.44000 164.595
64.48000 167.309
64.52000 173.515
64.56000 170.159
64.60000 167.068
64.64000 174.964
64.68000 168.620
64.72000 173.370
64.76000 176.533
64.80000 183.199
64.84000 176.799
64.88000 176.100
64.92000 190.939
64.96000 206.530
65.00000 197.319
65.04000 202.545
65.08000 220.198
65.12000 232.138
65.16000 240.702
65.20000 249.861
65.24000 290.020
65.28000 285.064
65.32000 304.239
65.36000 324.628
65.40000 344.781
65.44000 392.639
65.48000 403.415
65.52000 425.215
65.56000 419.631
65.60000 453.698
65.64000 496.520
65.68000 583.433
65.72000 733.458
65.76000 1013.527
65.80000 1221.979
65.84000 1339.086
65.88000 1336.647
65.92000 1291.419
65.96000 1047.741
66.00000 757.947
66.04000 517.842
66.08000 403.418
66.12000 353.220
66.16000 336.781
66.20000 332.385
66.24000 344.692
66.28000 385.146
66.32000 427.820
66.36000 459.996
66.40000 509.373
66.44000 488.623
66.48000 480.540
66.52000 446.160
66.56000 381.235
66.60000 344.995
66.64000 317.004
66.68000 324.462
66.72000 306.091
66.76000 310.779
66.80000 326.540
66.84000 317.916
66.88000 337.900
66.92000 338.390
66.96000 364.109
67.00000 360.272
67.04000 358.988
67.08000 363.001
67.12000 375.285
67.16000 389.739
67.20000 368.071
67.24000 394.067
67.28000 382.868
67.32000 413.067
67.36000 402.529
67.40000 415.297
67.44000 425.415
67.48000 409.035
67.52000 426.443
67.56000 442.710
67.60000 437.732
67.64000 464.675
67.68000 452.179
67.72000 464.401
67.76000 483.195
67.80000 493.427
67.84000 500.843
67.88000 509.855
67.92000 527.222
67.96000 513.218
68.00000 545.110
68.04000 553.037
68.08000 568.127
68.12000 563.704
68.16000 594.168
68.20000 585.619
68.24000 628.549
68.28000 670.769
68.32000 650.028
68.36000 683.589
68.40000 688.908
68.44000 736.095
68.48000 794.918
68.52000 808.539
68.56000 898.667
68.60000 1004.614
68.64000 1187.741
68.68000 1411.490
68.72000 1695.391
68.76000 1904.982
68.80000 2234.035
68.84000 2676.284
68.88000 3636.274
68.92000 6238.125
68.96000 16519.486
69.00000 35348.988
69.04000 54602.629
69.08000 64155.102
69.12000 66213.586
69.16000 68759.469
69.20000 67773.773
69.24000 56208.359
69.28000 43440.773
69.32000 35465.949
69.36000 31974.596
69.40000 25676.789
69.44000 15980.395
69.48000 7326.431
69.52000 3320.868
69.56000 2015.609
69.60000 1558.401
69.64000 1253.624
69.68000 1128.724
69.72000 1011.084
69.76000 890.402
69.80000 872.464
69.84000 828.534
69.88000 775.058
69.92000 718.985
69.96000 729.550
70.00000 699.083