File: XRD/XRD/24-09-2025 Dep 3/XY Data/BTO_Mapping_Theta2Theta_24-09-2025_001_52_9-271_-28-532.xy
20.00000 584.836
20.04000 565.018
20.08000 551.687
20.12000 556.107
20.16000 570.011
20.20000 569.000
20.24000 565.122
20.28000 571.142
20.32000 545.458
20.36000 564.937
20.40000 560.134
20.44000 551.686
20.48000 557.086
20.52000 554.557
20.56000 560.562
20.60000 558.599
20.64000 558.093
20.68000 543.126
20.72000 532.818
20.76000 560.430
20.80000 566.478
20.84000 573.403
20.88000 544.709
20.92000 535.147
20.96000 555.757
21.00000 533.401
21.04000 541.022
21.08000 519.163
21.12000 564.408
21.16000 552.362
21.20000 542.201
21.24000 561.412
21.28000 552.692
21.32000 546.514
21.36000 551.529
21.40000 567.887
21.44000 551.436
21.48000 540.061
21.52000 518.697
21.56000 524.939
21.60000 531.786
21.64000 543.268
21.68000 569.129
21.72000 543.797
21.76000 573.911
21.80000 539.875
21.84000 562.746
21.88000 578.730
21.92000 571.515
21.96000 558.774
22.00000 589.253
22.04000 591.511
22.08000 614.091
22.12000 620.262
22.16000 613.732
22.20000 616.536
22.24000 593.617
22.28000 560.052
22.32000 574.326
22.36000 562.448
22.40000 556.498
22.44000 555.064
22.48000 532.186
22.52000 523.890
22.56000 530.417
22.60000 553.831
22.64000 535.646
22.68000 538.127
22.72000 535.999
22.76000 517.307
22.80000 516.016
22.84000 524.608
22.88000 517.480
22.92000 523.854
22.96000 493.586
23.00000 512.493
23.04000 500.186
23.08000 534.166
23.12000 513.546
23.16000 491.589
23.20000 497.341
23.24000 518.030
23.28000 520.064
23.32000 506.899
23.36000 488.553
23.40000 490.487
23.44000 515.834
23.48000 496.228
23.52000 487.424
23.56000 514.454
23.60000 485.487
23.64000 489.667
23.68000 493.409
23.72000 496.017
23.76000 491.690
23.80000 477.243
23.84000 483.905
23.88000 490.064
23.92000 475.692
23.96000 492.217
24.00000 484.703
24.04000 493.636
24.08000 488.821
24.12000 465.230
24.16000 469.580
24.20000 492.861
24.24000 485.426
24.28000 481.533
24.32000 490.748
24.36000 480.709
24.40000 483.578
24.44000 457.577
24.48000 475.037
24.52000 468.024
24.56000 486.613
24.60000 485.312
24.64000 487.735
24.68000 485.898
24.72000 484.154
24.76000 462.169
24.80000 483.718
24.84000 480.046
24.88000 480.649
24.92000 469.664
24.96000 461.598
25.00000 466.408
25.04000 465.600
25.08000 484.362
25.12000 464.533
25.16000 478.313
25.20000 474.618
25.24000 468.320
25.28000 451.266
25.32000 471.368
25.36000 462.416
25.40000 476.193
25.44000 466.028
25.48000 449.919
25.52000 477.607
25.56000 483.022
25.60000 463.575
25.64000 457.894
25.68000 464.471
25.72000 466.623
25.76000 455.594
25.80000 463.232
25.84000 457.264
25.88000 461.523
25.92000 454.105
25.96000 457.930
26.00000 455.093
26.04000 463.820
26.08000 440.050
26.12000 453.214
26.16000 445.251
26.20000 443.650
26.24000 455.693
26.28000 442.187
26.32000 465.743
26.36000 450.208
26.40000 457.093
26.44000 462.411
26.48000 433.416
26.52000 450.384
26.56000 457.102
26.60000 436.308
26.64000 440.524
26.68000 429.137
26.72000 453.604
26.76000 441.400
26.80000 451.587
26.84000 463.099
26.88000 451.443
26.92000 458.042
26.96000 433.609
27.00000 448.041
27.04000 437.057
27.08000 436.495
27.12000 456.233
27.16000 443.164
27.20000 416.517
27.24000 435.587
27.28000 446.913
27.32000 424.716
27.36000 428.173
27.40000 443.805
27.44000 438.920
27.48000 425.198
27.52000 452.795
27.56000 446.304
27.60000 444.062
27.64000 438.476
27.68000 419.480
27.72000 426.485
27.76000 418.105
27.80000 434.931
27.84000 430.445
27.88000 431.066
27.92000 424.956
27.96000 433.096
28.00000 441.298
28.04000 446.445
28.08000 421.956
28.12000 427.209
28.16000 425.828
28.20000 425.352
28.24000 431.543
28.28000 424.401
28.32000 420.259
28.36000 418.757
28.40000 419.960
28.44000 416.555
28.48000 411.782
28.52000 430.062
28.56000 414.303
28.60000 401.122
28.64000 413.494
28.68000 408.588
28.72000 416.309
28.76000 409.157
28.80000 417.743
28.84000 415.971
28.88000 421.001
28.92000 403.647
28.96000 423.961
29.00000 402.142
29.04000 412.048
29.08000 406.567
29.12000 402.391
29.16000 413.041
29.20000 416.139
29.24000 399.931
29.28000 408.965
29.32000 412.778
29.36000 405.956
29.40000 419.250
29.44000 416.803
29.48000 420.209
29.52000 395.927
29.56000 389.623
29.60000 405.440
29.64000 417.052
29.68000 410.896
29.72000 418.431
29.76000 419.822
29.80000 403.100
29.84000 413.959
29.88000 430.081
29.92000 412.950
29.96000 415.514
30.00000 404.308
30.04000 432.698
30.08000 416.221
30.12000 446.320
30.16000 423.590
30.20000 402.163
30.24000 408.205
30.28000 421.907
30.32000 406.167
30.36000 394.156
30.40000 410.593
30.44000 396.343
30.48000 395.744
30.52000 420.585
30.56000 398.894
30.60000 406.836
30.64000 411.440
30.68000 422.574
30.72000 423.398
30.76000 408.061
30.80000 437.099
30.84000 457.487
30.88000 444.822
30.92000 445.228
30.96000 471.292
31.00000 503.193
31.04000 517.701
31.08000 597.436
31.12000 691.683
31.16000 824.977
31.20000 957.107
31.24000 1138.331
31.28000 1352.635
31.32000 1514.172
31.36000 1630.694
31.40000 1688.534
31.44000 1678.638
31.48000 1509.090
31.52000 1358.709
31.56000 1158.486
31.60000 979.012
31.64000 802.662
31.68000 709.741
31.72000 610.127
31.76000 525.948
31.80000 530.107
31.84000 475.400
31.88000 449.949
31.92000 426.727
31.96000 414.628
32.00000 428.198
32.04000 426.665
32.08000 401.315
32.12000 401.255
32.16000 404.068
32.20000 374.852
32.24000 398.237
32.28000 392.800
32.32000 386.226
32.36000 370.861
32.40000 383.374
32.44000 386.466
32.48000 391.730
32.52000 375.003
32.56000 366.391
32.60000 382.083
32.64000 367.322
32.68000 365.308
32.72000 384.836
32.76000 374.424
32.80000 394.188
32.84000 402.840
32.88000 441.290
32.92000 437.256
32.96000 428.076
33.00000 442.002
33.04000 419.434
33.08000 374.909
33.12000 372.518
33.16000 370.674
33.20000 353.342
33.24000 349.396
33.28000 349.985
33.32000 339.481
33.36000 353.247
33.40000 340.709
33.44000 345.234
33.48000 341.973
33.52000 328.058
33.56000 347.728
33.60000 331.167
33.64000 345.866
33.68000 352.156
33.72000 328.504
33.76000 327.462
33.80000 341.184
33.84000 327.489
33.88000 320.379
33.92000 326.642
33.96000 317.106
34.00000 320.783
34.04000 335.496
34.08000 321.738
34.12000 328.711
34.16000 320.645
34.20000 331.851
34.24000 328.600
34.28000 319.643
34.32000 325.238
34.36000 326.347
34.40000 329.124
34.44000 304.173
34.48000 318.969
34.52000 300.699
34.56000 321.160
34.60000 316.981
34.64000 330.873
34.68000 322.870
34.72000 321.073
34.76000 313.734
34.80000 332.673
34.84000 311.795
34.88000 321.324
34.92000 319.243
34.96000 323.404
35.00000 318.720
35.04000 320.695
35.08000 305.969
35.12000 308.132
35.16000 326.011
35.20000 319.231
35.24000 318.816
35.28000 334.102
35.32000 320.021
35.36000 306.006
35.40000 328.464
35.44000 317.777
35.48000 291.220
35.52000 311.172
35.56000 316.893
35.60000 315.746
35.64000 318.936
35.68000 310.488
35.72000 316.889
35.76000 289.770
35.80000 298.900
35.84000 301.922
35.88000 288.666
35.92000 303.993
35.96000 300.702
36.00000 311.969
36.04000 290.959
36.08000 290.700
36.12000 300.911
36.16000 291.792
36.20000 321.931
36.24000 298.639
36.28000 287.063
36.32000 290.067
36.36000 302.574
36.40000 306.720
36.44000 304.205
36.48000 301.603
36.52000 298.802
36.56000 294.960
36.60000 299.714
36.64000 305.305
36.68000 293.457
36.72000 293.383
36.76000 297.307
36.80000 287.587
36.84000 308.967
36.88000 304.274
36.92000 320.019
36.96000 312.108
37.00000 326.671
37.04000 315.335
37.08000 310.726
37.12000 289.430
37.16000 310.737
37.20000 307.821
37.24000 306.788
37.28000 303.429
37.32000 285.347
37.36000 301.054
37.40000 290.524
37.44000 303.672
37.48000 290.504
37.52000 292.836
37.56000 292.342
37.60000 291.206
37.64000 297.027
37.68000 299.190
37.72000 288.262
37.76000 297.170
37.80000 311.818
37.84000 282.973
37.88000 300.720
37.92000 294.662
37.96000 309.506
38.00000 298.634
38.04000 303.358
38.08000 293.923
38.12000 296.580
38.16000 296.994
38.20000 315.134
38.24000 310.062
38.28000 332.937
38.32000 339.444
38.36000 356.265
38.40000 399.337
38.44000 438.600
38.48000 541.503
38.52000 668.585
38.56000 868.190
38.60000 1056.326
38.64000 1292.062
38.68000 1485.982
38.72000 1603.686
38.76000 1650.427
38.80000 1530.823
38.84000 1322.260
38.88000 1157.588
38.92000 897.734
38.96000 708.630
39.00000 528.146
39.04000 425.341
39.08000 371.889
39.12000 335.019
39.16000 327.677
39.20000 312.962
39.24000 304.452
39.28000 294.388
39.32000 268.079
39.36000 283.389
39.40000 283.510
39.44000 288.652
39.48000 286.641
39.52000 271.990
39.56000 271.115
39.60000 264.474
39.64000 277.502
39.68000 274.634
39.72000 289.362
39.76000 275.838
39.80000 283.221
39.84000 259.184
39.88000 264.954
39.92000 263.014
39.96000 259.894
40.00000 259.270
40.04000 258.547
40.08000 268.113
40.12000 250.448
40.16000 264.541
40.20000 262.603
40.24000 268.476
40.28000 249.712
40.32000 252.446
40.36000 256.376
40.40000 259.918
40.44000 258.956
40.48000 254.494
40.52000 257.199
40.56000 250.613
40.60000 255.295
40.64000 243.322
40.68000 256.598
40.72000 265.469
40.76000 252.197
40.80000 244.403
40.84000 251.430
40.88000 249.927
40.92000 253.396
40.96000 246.578
41.00000 246.936
41.04000 248.229
41.08000 240.176
41.12000 236.672
41.16000 246.352
41.20000 244.006
41.24000 255.152
41.28000 236.360
41.32000 248.853
41.36000 239.275
41.40000 241.946
41.44000 251.150
41.48000 264.798
41.52000 234.210
41.56000 230.477
41.60000 231.545
41.64000 246.955
41.68000 253.629
41.72000 240.807
41.76000 248.843
41.80000 245.145
41.84000 242.487
41.88000 233.582
41.92000 233.891
41.96000 235.408
42.00000 235.498
42.04000 229.556
42.08000 230.311
42.12000 240.130
42.16000 240.343
42.20000 234.835
42.24000 223.105
42.28000 243.312
42.32000 229.359
42.36000 225.775
42.40000 235.801
42.44000 235.351
42.48000 223.939
42.52000 221.887
42.56000 228.473
42.60000 235.559
42.64000 226.249
42.68000 241.446
42.72000 219.482
42.76000 226.481
42.80000 233.229
42.84000 216.489
42.88000 215.284
42.92000 236.457
42.96000 226.923
43.00000 231.968
43.04000 222.600
43.08000 216.581
43.12000 211.542
43.16000 222.107
43.20000 224.001
43.24000 227.693
43.28000 215.060
43.32000 230.621
43.36000 231.628
43.40000 228.462
43.44000 211.256
43.48000 217.078
43.52000 214.929
43.56000 218.108
43.60000 217.445
43.64000 225.672
43.68000 215.951
43.72000 218.160
43.76000 222.917
43.80000 225.519
43.84000 208.663
43.88000 222.441
43.92000 221.965
43.96000 219.207
44.00000 211.170
44.04000 216.025
44.08000 215.669
44.12000 225.157
44.16000 223.227
44.20000 214.549
44.24000 213.094
44.28000 207.743
44.32000 224.152
44.36000 216.853
44.40000 211.775
44.44000 216.466
44.48000 217.575
44.52000 226.559
44.56000 204.935
44.60000 214.475
44.64000 206.024
44.68000 216.187
44.72000 212.449
44.76000 226.586
44.80000 215.581
44.84000 235.963
44.88000 239.593
44.92000 245.500
44.96000 241.012
45.00000 261.176
45.04000 257.434
45.08000 264.567
45.12000 258.420
45.16000 265.596
45.20000 253.687
45.24000 256.870
45.28000 250.218
45.32000 252.266
45.36000 250.506
45.40000 234.604
45.44000 260.412
45.48000 248.030
45.52000 224.835
45.56000 226.118
45.60000 243.599
45.64000 238.666
45.68000 233.186
45.72000 231.828
45.76000 222.544
45.80000 222.902
45.84000 221.943
45.88000 224.443
45.92000 202.126
45.96000 212.768
46.00000 215.745
46.04000 202.745
46.08000 203.108
46.12000 206.269
46.16000 210.064
46.20000 207.441
46.24000 208.880
46.28000 203.920
46.32000 203.831
46.36000 205.279
46.40000 196.065
46.44000 211.322
46.48000 197.437
46.52000 213.066
46.56000 197.439
46.60000 201.000
46.64000 204.880
46.68000 197.215
46.72000 175.825
46.76000 203.913
46.80000 192.936
46.84000 189.549
46.88000 192.851
46.92000 198.940
46.96000 187.901
47.00000 202.940
47.04000 195.836
47.08000 195.509
47.12000 213.730
47.16000 189.295
47.20000 188.450
47.24000 188.838
47.28000 181.377
47.32000 177.620
47.36000 194.266
47.40000 188.199
47.44000 176.738
47.48000 195.532
47.52000 187.716
47.56000 169.817
47.60000 187.188
47.64000 180.572
47.68000 185.548
47.72000 183.377
47.76000 179.051
47.80000 180.875
47.84000 185.826
47.88000 184.829
47.92000 180.999
47.96000 178.545
48.00000 183.626
48.04000 179.653
48.08000 181.875
48.12000 182.511
48.16000 180.570
48.20000 178.079
48.24000 185.457
48.28000 181.583
48.32000 179.422
48.36000 174.845
48.40000 192.629
48.44000 180.757
48.48000 184.283
48.52000 183.057
48.56000 175.367
48.60000 186.869
48.64000 185.044
48.68000 190.273
48.72000 173.877
48.76000 169.125
48.80000 187.804
48.84000 181.999
48.88000 176.009
48.92000 175.726
48.96000 172.060
49.00000 185.832
49.04000 173.604
49.08000 170.216
49.12000 173.454
49.16000 179.046
49.20000 183.633
49.24000 175.793
49.28000 179.538
49.32000 180.450
49.36000 182.605
49.40000 189.789
49.44000 178.405
49.48000 173.950
49.52000 177.584
49.56000 176.521
49.60000 178.912
49.64000 178.867
49.68000 178.428
49.72000 156.885
49.76000 185.571
49.80000 182.673
49.84000 169.989
49.88000 170.679
49.92000 178.286
49.96000 169.919
50.00000 172.767
50.04000 171.632
50.08000 175.628
50.12000 167.959
50.16000 176.313
50.20000 167.896
50.24000 167.858
50.28000 178.372
50.32000 178.600
50.36000 190.151
50.40000 169.613
50.44000 177.511
50.48000 192.692
50.52000 187.673
50.56000 179.446
50.60000 189.120
50.64000 187.974
50.68000 207.305
50.72000 204.927
50.76000 197.354
50.80000 185.064
50.84000 190.842
50.88000 186.531
50.92000 192.978
50.96000 192.179
51.00000 198.133
51.04000 185.868
51.08000 162.060
51.12000 179.556
51.16000 176.864
51.20000 179.213
51.24000 173.038
51.28000 187.243
51.32000 165.381
51.36000 162.978
51.40000 160.030
51.44000 163.381
51.48000 161.800
51.52000 167.822
51.56000 163.874
51.60000 163.551
51.64000 155.249
51.68000 157.215
51.72000 163.216
51.76000 170.639
51.80000 163.238
51.84000 174.643
51.88000 156.632
51.92000 166.306
51.96000 156.864
52.00000 169.853
52.04000 168.993
52.08000 165.120
52.12000 158.918
52.16000 166.343
52.20000 168.525
52.24000 154.500
52.28000 166.080
52.32000 159.978
52.36000 165.605
52.40000 169.491
52.44000 166.225
52.48000 155.506
52.52000 165.083
52.56000 157.298
52.60000 170.589
52.64000 166.574
52.68000 157.071
52.72000 155.547
52.76000 150.221
52.80000 160.686
52.84000 155.720
52.88000 170.009
52.92000 160.214
52.96000 151.750
53.00000 157.002
53.04000 156.709
53.08000 154.462
53.12000 157.508
53.16000 157.940
53.20000 162.329
53.24000 158.177
53.28000 165.181
53.32000 149.526
53.36000 162.120
53.40000 171.921
53.44000 176.204
53.48000 171.248
53.52000 155.429
53.56000 160.534
53.60000 158.396
53.64000 162.006
53.68000 163.609
53.72000 162.097
53.76000 147.699
53.80000 160.478
53.84000 158.262
53.88000 159.124
53.92000 158.323
53.96000 161.297
54.00000 163.648
54.04000 162.914
54.08000 149.660
54.12000 155.326
54.16000 163.288
54.20000 155.368
54.24000 168.947
54.28000 146.956
54.32000 155.235
54.36000 156.368
54.40000 150.131
54.44000 158.881
54.48000 155.446
54.52000 157.665
54.56000 150.697
54.60000 151.068
54.64000 156.900
54.68000 159.940
54.72000 157.027
54.76000 156.551
54.80000 157.604
54.84000 159.083
54.88000 156.693
54.92000 160.966
54.96000 154.331
55.00000 160.766
55.04000 169.837
55.08000 173.878
55.12000 166.837
55.16000 164.589
55.20000 163.624
55.24000 174.120
55.28000 171.342
55.32000 174.715
55.36000 181.111
55.40000 201.548
55.44000 188.818
55.48000 202.025
55.52000 208.389
55.56000 234.748
55.60000 262.737
55.64000 305.101
55.68000 348.114
55.72000 418.520
55.76000 500.821
55.80000 607.587
55.84000 708.002
55.88000 780.920
55.92000 856.928
55.96000 899.955
56.00000 930.881
56.04000 894.292
56.08000 842.522
56.12000 772.252
56.16000 669.925
56.20000 583.307
56.24000 503.929
56.28000 422.206
56.32000 340.417
56.36000 299.125
56.40000 264.958
56.44000 238.418
56.48000 203.487
56.52000 190.533
56.56000 182.023
56.60000 180.141
56.64000 173.339
56.68000 164.343
56.72000 173.499
56.76000 157.235
56.80000 156.868
56.84000 154.046
56.88000 153.823
56.92000 170.233
56.96000 155.580
57.00000 162.063
57.04000 154.784
57.08000 144.077
57.12000 134.854
57.16000 157.376
57.20000 149.131
57.24000 149.699
57.28000 147.975
57.32000 145.376
57.36000 143.692
57.40000 140.049
57.44000 131.450
57.48000 137.283
57.52000 143.578
57.56000 139.196
57.60000 142.857
57.64000 147.897
57.68000 137.878
57.72000 143.293
57.76000 143.726
57.80000 143.578
57.84000 143.550
57.88000 144.613
57.92000 142.984
57.96000 139.551
58.00000 149.634
58.04000 142.906
58.08000 139.319
58.12000 138.504
58.16000 137.523
58.20000 134.833
58.24000 143.422
58.28000 132.922
58.32000 142.083
58.36000 134.961
58.40000 131.421
58.44000 136.880
58.48000 139.632
58.52000 126.698
58.56000 136.520
58.60000 138.082
58.64000 136.984
58.68000 135.466
58.72000 126.512
58.76000 129.203
58.80000 137.474
58.84000 143.426
58.88000 140.965
58.92000 134.806
58.96000 141.430
59.00000 133.492
59.04000 140.264
59.08000 128.943
59.12000 130.023
59.16000 128.992
59.20000 131.240
59.24000 136.586
59.28000 141.738
59.32000 136.992
59.36000 138.008
59.40000 139.009
59.44000 133.564
59.48000 130.765
59.52000 135.741
59.56000 135.025
59.60000 132.364
59.64000 131.344
59.68000 136.852
59.72000 128.430
59.76000 136.886
59.80000 150.372
59.84000 137.541
59.88000 141.422
59.92000 138.846
59.96000 132.135
60.00000 138.598
60.04000 145.462
60.08000 130.884
60.12000 141.012
60.16000 129.443
60.20000 129.351
60.24000 130.816
60.28000 130.679
60.32000 128.552
60.36000 139.592
60.40000 140.121
60.44000 131.206
60.48000 137.157
60.52000 125.552
60.56000 122.876
60.60000 127.801
60.64000 129.842
60.68000 129.551
60.72000 140.090
60.76000 137.611
60.80000 130.834
60.84000 133.712
60.88000 140.951
60.92000 125.310
60.96000 137.551
61.00000 133.346
61.04000 137.146
61.08000 129.940
61.12000 142.272
61.16000 147.011
61.20000 130.991
61.24000 127.177
61.28000 128.480
61.32000 127.587
61.36000 140.418
61.40000 136.521
61.44000 131.529
61.48000 126.758
61.52000 163.983
61.56000 188.960
61.60000 222.969
61.64000 249.069
61.68000 261.177
61.72000 255.333
61.76000 240.386
61.80000 220.844
61.84000 172.592
61.88000 152.592
61.92000 137.530
61.96000 136.360
62.00000 141.031
62.04000 137.492
62.08000 136.136
62.12000 139.128
62.16000 136.559
62.20000 138.724
62.24000 139.133
62.28000 133.118
62.32000 144.315
62.36000 140.572
62.40000 133.302
62.44000 142.985
62.48000 141.409
62.52000 126.704
62.56000 147.087
62.60000 137.800
62.64000 142.329
62.68000 142.276
62.72000 138.145
62.76000 141.146
62.80000 135.735
62.84000 128.896
62.88000 134.745
62.92000 137.850
62.96000 135.391
63.00000 138.760
63.04000 149.905
63.08000 148.481
63.12000 146.417
63.16000 141.250
63.20000 146.015
63.24000 154.732
63.28000 135.297
63.32000 143.539
63.36000 138.714
63.40000 141.994
63.44000 152.683
63.48000 135.643
63.52000 144.520
63.56000 138.879
63.60000 144.070
63.64000 139.338
63.68000 150.139
63.72000 151.851
63.76000 155.918
63.80000 143.222
63.84000 147.874
63.88000 148.807
63.92000 146.493
63.96000 155.689
64.00000 154.348
64.04000 150.549
64.08000 143.480
64.12000 152.547
64.16000 154.047
64.20000 152.640
64.24000 152.680
64.28000 155.965
64.32000 155.129
64.36000 148.204
64.40000 155.643
64.44000 160.388
64.48000 160.409
64.52000 155.962
64.56000 159.084
64.60000 161.290
64.64000 170.111
64.68000 164.165
64.72000 162.740
64.76000 169.432
64.80000 165.315
64.84000 174.788
64.88000 185.973
64.92000 175.274
64.96000 185.755
65.00000 192.961
65.04000 185.392
65.08000 195.049
65.12000 198.844
65.16000 194.266
65.20000 191.790
65.24000 207.218
65.28000 222.165
65.32000 232.677
65.36000 238.262
65.40000 248.824
65.44000 253.070
65.48000 266.036
65.52000 281.795
65.56000 293.059
65.60000 301.774
65.64000 348.389
65.68000 406.859
65.72000 541.118
65.76000 741.454
65.80000 895.129
65.84000 992.688
65.88000 1023.370
65.92000 1002.595
65.96000 829.344
66.00000 595.351
66.04000 429.203
66.08000 338.779
66.12000 294.369
66.16000 293.939
66.20000 296.584
66.24000 299.395
66.28000 318.648
66.32000 368.824
66.36000 396.237
66.40000 419.768
66.44000 424.471
66.48000 408.514
66.52000 382.441
66.56000 342.024
66.60000 318.434
66.64000 294.246
66.68000 300.478
66.72000 301.658
66.76000 312.159
66.80000 297.978
66.84000 303.962
66.88000 313.704
66.92000 315.202
66.96000 324.504
67.00000 333.189
67.04000 320.758
67.08000 322.235
67.12000 341.517
67.16000 359.174
67.20000 354.623
67.24000 343.809
67.28000 351.846
67.32000 365.848
67.36000 361.096
67.40000 375.526
67.44000 399.026
67.48000 390.511
67.52000 395.834
67.56000 403.030
67.60000 415.494
67.64000 416.189
67.68000 429.505
67.72000 439.380
67.76000 431.512
67.80000 419.628
67.84000 461.268
67.88000 468.827
67.92000 484.736
67.96000 491.925
68.00000 479.461
68.04000 498.308
68.08000 526.053
68.12000 539.404
68.16000 536.410
68.20000 545.148
68.24000 556.372
68.28000 573.009
68.32000 584.201
68.36000 605.224
68.40000 619.358
68.44000 651.557
68.48000 685.129
68.52000 723.382
68.56000 769.383
68.60000 884.326
68.64000 988.626
68.68000 1204.933
68.72000 1364.434
68.76000 1569.029
68.80000 1761.824
68.84000 2046.397
68.88000 2589.303
68.92000 4063.615
68.96000 11289.922
69.00000 25473.709
69.04000 40841.852
69.08000 47812.297
69.12000 49344.488
69.16000 51778.348
69.20000 51418.230
69.24000 43218.637
69.28000 32443.906
69.32000 26870.199
69.36000 24179.652
69.40000 19887.271
69.44000 12526.938
69.48000 5468.016
69.52000 2547.076
69.56000 1674.993
69.60000 1283.462
69.64000 1092.139
69.68000 964.237
69.72000 903.762
69.76000 832.692
69.80000 771.093
69.84000 707.572
69.88000 695.509
69.92000 652.976
69.96000 637.323
70.00000 644.385