File: XRD/XRD/24-09-2025 Dep 3/XY Data/BTO_Mapping_Theta2Theta_24-09-2025_001_03_20-000_0-000.xy
20.00000 560.178
20.04000 564.282
20.08000 568.319
20.12000 541.706
20.16000 562.014
20.20000 557.945
20.24000 573.743
20.28000 572.657
20.32000 572.235
20.36000 565.341
20.40000 582.159
20.44000 561.737
20.48000 543.861
20.52000 553.032
20.56000 564.066
20.60000 555.505
20.64000 564.949
20.68000 561.665
20.72000 558.055
20.76000 567.567
20.80000 563.522
20.84000 578.593
20.88000 541.829
20.92000 552.365
20.96000 544.697
21.00000 568.473
21.04000 550.174
21.08000 552.926
21.12000 573.560
21.16000 529.752
21.20000 555.291
21.24000 540.152
21.28000 546.609
21.32000 545.212
21.36000 537.769
21.40000 560.206
21.44000 566.464
21.48000 533.607
21.52000 551.615
21.56000 544.299
21.60000 540.100
21.64000 550.730
21.68000 542.978
21.72000 549.484
21.76000 546.507
21.80000 568.126
21.84000 575.282
21.88000 582.195
21.92000 588.999
21.96000 590.203
22.00000 608.636
22.04000 615.272
22.08000 626.669
22.12000 634.285
22.16000 608.447
22.20000 602.049
22.24000 583.589
22.28000 586.175
22.32000 571.307
22.36000 548.775
22.40000 568.070
22.44000 531.169
22.48000 545.150
22.52000 545.258
22.56000 514.192
22.60000 540.217
22.64000 522.887
22.68000 546.438
22.72000 520.676
22.76000 523.224
22.80000 512.351
22.84000 516.881
22.88000 511.289
22.92000 509.816
22.96000 517.085
23.00000 551.782
23.04000 519.209
23.08000 513.562
23.12000 511.313
23.16000 492.201
23.20000 521.014
23.24000 511.083
23.28000 507.691
23.32000 523.208
23.36000 508.312
23.40000 525.334
23.44000 507.700
23.48000 521.716
23.52000 478.088
23.56000 512.192
23.60000 515.277
23.64000 500.111
23.68000 502.968
23.72000 510.270
23.76000 497.928
23.80000 484.846
23.84000 503.208
23.88000 495.439
23.92000 509.608
23.96000 490.821
24.00000 501.082
24.04000 481.747
24.08000 500.437
24.12000 485.439
24.16000 492.306
24.20000 501.666
24.24000 488.389
24.28000 487.272
24.32000 497.609
24.36000 478.385
24.40000 503.505
24.44000 511.850
24.48000 473.629
24.52000 457.522
24.56000 479.034
24.60000 480.277
24.64000 475.781
24.68000 472.825
24.72000 479.112
24.76000 475.942
24.80000 480.922
24.84000 489.349
24.88000 488.294
24.92000 477.373
24.96000 469.733
25.00000 475.187
25.04000 468.349
25.08000 484.618
25.12000 473.777
25.16000 475.550
25.20000 472.404
25.24000 465.363
25.28000 480.741
25.32000 490.016
25.36000 483.640
25.40000 476.384
25.44000 468.856
25.48000 450.504
25.52000 459.724
25.56000 472.708
25.60000 474.568
25.64000 456.928
25.68000 471.576
25.72000 464.451
25.76000 474.370
25.80000 462.412
25.84000 453.594
25.88000 463.590
25.92000 454.586
25.96000 458.588
26.00000 458.244
26.04000 470.301
26.08000 473.144
26.12000 456.179
26.16000 460.878
26.20000 454.408
26.24000 447.796
26.28000 481.450
26.32000 456.572
26.36000 466.326
26.40000 434.943
26.44000 450.292
26.48000 453.548
26.52000 451.020
26.56000 439.408
26.60000 460.534
26.64000 449.011
26.68000 435.382
26.72000 444.065
26.76000 434.039
26.80000 467.773
26.84000 457.893
26.88000 437.525
26.92000 458.243
26.96000 451.910
27.00000 439.782
27.04000 437.414
27.08000 429.468
27.12000 445.696
27.16000 446.720
27.20000 440.837
27.24000 448.953
27.28000 435.991
27.32000 463.844
27.36000 429.640
27.40000 437.424
27.44000 434.575
27.48000 446.008
27.52000 464.737
27.56000 426.990
27.60000 421.099
27.64000 447.967
27.68000 449.281
27.72000 441.861
27.76000 429.515
27.80000 430.236
27.84000 410.697
27.88000 450.392
27.92000 440.129
27.96000 436.332
28.00000 411.995
28.04000 438.610
28.08000 446.929
28.12000 436.050
28.16000 430.792
28.20000 424.351
28.24000 437.000
28.28000 427.813
28.32000 430.246
28.36000 438.002
28.40000 428.919
28.44000 431.621
28.48000 428.469
28.52000 429.176
28.56000 415.602
28.60000 427.557
28.64000 411.464
28.68000 414.706
28.72000 419.303
28.76000 421.118
28.80000 424.529
28.84000 411.253
28.88000 415.919
28.92000 408.891
28.96000 421.671
29.00000 395.565
29.04000 408.287
29.08000 427.419
29.12000 420.854
29.16000 416.231
29.20000 431.338
29.24000 414.504
29.28000 416.890
29.32000 407.232
29.36000 410.534
29.40000 402.248
29.44000 419.987
29.48000 388.868
29.52000 409.725
29.56000 406.338
29.60000 434.415
29.64000 422.686
29.68000 413.720
29.72000 408.638
29.76000 402.616
29.80000 408.883
29.84000 402.504
29.88000 407.406
29.92000 438.007
29.96000 423.469
30.00000 395.747
30.04000 407.060
30.08000 416.958
30.12000 418.364
30.16000 428.156
30.20000 433.359
30.24000 429.595
30.28000 416.910
30.32000 400.147
30.36000 428.275
30.40000 420.315
30.44000 428.701
30.48000 412.602
30.52000 417.779
30.56000 425.103
30.60000 423.708
30.64000 426.946
30.68000 411.917
30.72000 414.833
30.76000 412.894
30.80000 423.511
30.84000 436.584
30.88000 448.497
30.92000 454.203
30.96000 481.097
31.00000 504.392
31.04000 516.772
31.08000 574.675
31.12000 658.694
31.16000 747.591
31.20000 875.797
31.24000 1034.793
31.28000 1198.630
31.32000 1352.711
31.36000 1491.997
31.40000 1551.325
31.44000 1502.908
31.48000 1402.485
31.52000 1261.826
31.56000 1154.545
31.60000 981.435
31.64000 812.277
31.68000 680.819
31.72000 593.624
31.76000 547.468
31.80000 498.258
31.84000 467.996
31.88000 417.161
31.92000 438.026
31.96000 423.827
32.00000 421.071
32.04000 423.901
32.08000 411.116
32.12000 401.087
32.16000 424.002
32.20000 391.908
32.24000 402.165
32.28000 401.328
32.32000 382.769
32.36000 388.114
32.40000 380.987
32.44000 388.380
32.48000 372.690
32.52000 380.315
32.56000 394.177
32.60000 393.040
32.64000 371.124
32.68000 378.959
32.72000 366.491
32.76000 366.428
32.80000 369.554
32.84000 408.403
32.88000 425.110
32.92000 431.585
32.96000 449.095
33.00000 429.298
33.04000 420.388
33.08000 403.590
33.12000 367.732
33.16000 360.549
33.20000 358.604
33.24000 347.028
33.28000 325.848
33.32000 346.482
33.36000 340.839
33.40000 351.766
33.44000 352.576
33.48000 344.342
33.52000 340.826
33.56000 322.679
33.60000 331.016
33.64000 317.763
33.68000 348.622
33.72000 334.767
33.76000 339.445
33.80000 328.649
33.84000 333.630
33.88000 348.339
33.92000 338.248
33.96000 341.860
34.00000 346.080
34.04000 328.943
34.08000 329.014
34.12000 340.500
34.16000 330.482
34.20000 315.375
34.24000 324.670
34.28000 330.230
34.32000 325.927
34.36000 317.404
34.40000 328.290
34.44000 334.301
34.48000 316.252
34.52000 322.814
34.56000 318.840
34.60000 315.767
34.64000 312.491
34.68000 321.563
34.72000 341.451
34.76000 316.450
34.80000 317.096
34.84000 308.461
34.88000 337.848
34.92000 321.924
34.96000 322.621
35.00000 324.521
35.04000 314.151
35.08000 303.907
35.12000 329.773
35.16000 311.424
35.20000 311.367
35.24000 318.688
35.28000 328.621
35.32000 305.693
35.36000 308.761
35.40000 303.278
35.44000 307.951
35.48000 308.483
35.52000 301.359
35.56000 312.691
35.60000 304.997
35.64000 303.153
35.68000 319.806
35.72000 301.146
35.76000 304.763
35.80000 307.627
35.84000 306.068
35.88000 310.131
35.92000 316.694
35.96000 307.335
36.00000 291.318
36.04000 294.216
36.08000 298.089
36.12000 297.932
36.16000 303.087
36.20000 299.995
36.24000 286.315
36.28000 290.385
36.32000 305.620
36.36000 295.442
36.40000 301.488
36.44000 294.567
36.48000 296.390
36.52000 308.850
36.56000 289.435
36.60000 317.492
36.64000 294.221
36.68000 296.665
36.72000 302.742
36.76000 295.340
36.80000 294.319
36.84000 312.916
36.88000 298.469
36.92000 311.255
36.96000 308.059
37.00000 305.883
37.04000 312.352
37.08000 315.897
37.12000 317.090
37.16000 302.686
37.20000 307.494
37.24000 303.835
37.28000 293.634
37.32000 289.310
37.36000 304.208
37.40000 295.987
37.44000 283.949
37.48000 296.651
37.52000 286.921
37.56000 299.696
37.60000 300.349
37.64000 297.045
37.68000 301.565
37.72000 277.551
37.76000 291.660
37.80000 288.211
37.84000 293.010
37.88000 297.925
37.92000 296.126
37.96000 288.667
38.00000 312.157
38.04000 298.429
38.08000 301.736
38.12000 306.988
38.16000 307.298
38.20000 307.456
38.24000 315.273
38.28000 301.488
38.32000 331.207
38.36000 329.283
38.40000 369.859
38.44000 416.172
38.48000 479.962
38.52000 617.238
38.56000 750.067
38.60000 961.811
38.64000 1171.228
38.68000 1359.911
38.72000 1482.901
38.76000 1522.366
38.80000 1464.620
38.84000 1322.909
38.88000 1114.431
38.92000 852.015
38.96000 694.820
39.00000 554.423
39.04000 441.466
39.08000 365.036
39.12000 347.366
39.16000 313.391
39.20000 295.383
39.24000 303.837
39.28000 280.159
39.32000 289.702
39.36000 277.908
39.40000 294.252
39.44000 277.492
39.48000 266.467
39.52000 272.087
39.56000 263.155
39.60000 276.567
39.64000 249.402
39.68000 270.597
39.72000 289.088
39.76000 278.476
39.80000 276.194
39.84000 270.099
39.88000 262.887
39.92000 265.974
39.96000 272.961
40.00000 273.395
40.04000 265.862
40.08000 248.370
40.12000 251.064
40.16000 258.388
40.20000 260.958
40.24000 271.474
40.28000 259.578
40.32000 249.301
40.36000 262.728
40.40000 258.762
40.44000 250.306
40.48000 253.642
40.52000 254.861
40.56000 255.930
40.60000 255.028
40.64000 242.973
40.68000 247.238
40.72000 249.873
40.76000 254.811
40.80000 251.074
40.84000 252.188
40.88000 254.200
40.92000 246.253
40.96000 246.191
41.00000 242.678
41.04000 242.769
41.08000 246.828
41.12000 247.363
41.16000 245.985
41.20000 241.630
41.24000 241.406
41.28000 235.873
41.32000 242.594
41.36000 241.691
41.40000 232.478
41.44000 231.845
41.48000 249.574
41.52000 239.114
41.56000 241.318
41.60000 230.805
41.64000 237.491
41.68000 234.865
41.72000 237.777
41.76000 238.147
41.80000 248.124
41.84000 248.940
41.88000 251.138
41.92000 237.801
41.96000 238.167
42.00000 236.449
42.04000 234.537
42.08000 251.301
42.12000 230.480
42.16000 237.990
42.20000 227.826
42.24000 242.680
42.28000 240.313
42.32000 225.111
42.36000 228.935
42.40000 227.888
42.44000 234.791
42.48000 236.757
42.52000 225.691
42.56000 234.415
42.60000 236.409
42.64000 233.150
42.68000 229.746
42.72000 225.292
42.76000 232.537
42.80000 248.278
42.84000 216.498
42.88000 238.888
42.92000 226.048
42.96000 226.529
43.00000 214.341
43.04000 229.345
43.08000 230.321
43.12000 223.650
43.16000 224.828
43.20000 221.316
43.24000 217.553
43.28000 225.910
43.32000 217.043
43.36000 226.828
43.40000 221.438
43.44000 235.940
43.48000 228.532
43.52000 216.542
43.56000 225.855
43.60000 231.681
43.64000 229.763
43.68000 220.819
43.72000 215.153
43.76000 215.694
43.80000 211.947
43.84000 220.052
43.88000 219.790
43.92000 221.938
43.96000 222.146
44.00000 221.266
44.04000 223.336
44.08000 219.478
44.12000 217.343
44.16000 215.388
44.20000 222.887
44.24000 223.180
44.28000 227.719
44.32000 218.049
44.36000 222.395
44.40000 220.497
44.44000 223.821
44.48000 237.624
44.52000 225.669
44.56000 227.000
44.60000 218.287
44.64000 225.742
44.68000 208.735
44.72000 235.182
44.76000 204.506
44.80000 246.037
44.84000 229.745
44.88000 252.772
44.92000 245.502
44.96000 266.359
45.00000 273.011
45.04000 272.149
45.08000 279.110
45.12000 281.988
45.16000 282.995
45.20000 261.297
45.24000 259.909
45.28000 264.304
45.32000 245.982
45.36000 249.040
45.40000 236.019
45.44000 237.360
45.48000 234.043
45.52000 237.407
45.56000 228.054
45.60000 225.426
45.64000 226.853
45.68000 224.905
45.72000 223.989
45.76000 214.387
45.80000 218.367
45.84000 213.895
45.88000 228.883
45.92000 221.160
45.96000 209.294
46.00000 205.804
46.04000 217.954
46.08000 207.130
46.12000 208.479
46.16000 196.731
46.20000 205.538
46.24000 205.898
46.28000 208.696
46.32000 212.513
46.36000 192.714
46.40000 196.183
46.44000 197.444
46.48000 197.276
46.52000 211.968
46.56000 193.563
46.60000 202.762
46.64000 204.119
46.68000 207.121
46.72000 197.095
46.76000 203.130
46.80000 192.323
46.84000 194.410
46.88000 197.157
46.92000 184.921
46.96000 209.633
47.00000 201.266
47.04000 193.312
47.08000 190.065
47.12000 202.085
47.16000 187.442
47.20000 191.479
47.24000 190.965
47.28000 192.515
47.32000 199.380
47.36000 177.547
47.40000 200.815
47.44000 195.621
47.48000 188.767
47.52000 189.757
47.56000 197.729
47.60000 181.816
47.64000 175.531
47.68000 197.068
47.72000 183.489
47.76000 191.482
47.80000 184.385
47.84000 186.952
47.88000 184.449
47.92000 187.477
47.96000 174.195
48.00000 180.532
48.04000 174.845
48.08000 187.666
48.12000 173.191
48.16000 180.564
48.20000 185.583
48.24000 184.474
48.28000 190.085
48.32000 181.720
48.36000 183.011
48.40000 182.522
48.44000 181.535
48.48000 187.962
48.52000 177.056
48.56000 170.654
48.60000 190.129
48.64000 183.079
48.68000 185.266
48.72000 179.935
48.76000 172.917
48.80000 180.885
48.84000 182.366
48.88000 181.788
48.92000 169.750
48.96000 180.154
49.00000 175.850
49.04000 188.474
49.08000 183.805
49.12000 186.923
49.16000 185.045
49.20000 180.276
49.24000 185.186
49.28000 174.536
49.32000 193.912
49.36000 175.915
49.40000 175.534
49.44000 175.595
49.48000 175.607
49.52000 178.374
49.56000 177.978
49.60000 172.377
49.64000 179.661
49.68000 172.768
49.72000 163.587
49.76000 171.900
49.80000 170.479
49.84000 176.055
49.88000 186.250
49.92000 177.448
49.96000 176.720
50.00000 170.835
50.04000 182.612
50.08000 169.157
50.12000 173.565
50.16000 168.301
50.20000 176.078
50.24000 185.266
50.28000 184.411
50.32000 177.995
50.36000 172.596
50.40000 175.092
50.44000 184.463
50.48000 175.477
50.52000 176.249
50.56000 180.920
50.60000 186.831
50.64000 194.004
50.68000 190.554
50.72000 199.053
50.76000 190.342
50.80000 185.433
50.84000 197.881
50.88000 179.771
50.92000 189.883
50.96000 179.168
51.00000 190.644
51.04000 186.989
51.08000 169.632
51.12000 175.214
51.16000 165.758
51.20000 179.710
51.24000 166.126
51.28000 185.558
51.32000 173.364
51.36000 165.608
51.40000 168.619
51.44000 168.453
51.48000 165.829
51.52000 169.286
51.56000 157.586
51.60000 170.194
51.64000 166.385
51.68000 171.866
51.72000 158.603
51.76000 160.327
51.80000 163.805
51.84000 166.563
51.88000 164.644
51.92000 165.994
51.96000 158.786
52.00000 166.179
52.04000 158.828
52.08000 163.532
52.12000 153.815
52.16000 173.787
52.20000 155.692
52.24000 161.628
52.28000 170.061
52.32000 157.439
52.36000 154.025
52.40000 151.143
52.44000 151.389
52.48000 165.850
52.52000 165.436
52.56000 169.369
52.60000 152.845
52.64000 159.542
52.68000 153.345
52.72000 155.730
52.76000 161.203
52.80000 155.753
52.84000 160.502
52.88000 160.086
52.92000 146.845
52.96000 150.560
53.00000 156.060
53.04000 151.090
53.08000 155.430
53.12000 154.540
53.16000 167.275
53.20000 156.080
53.24000 160.749
53.28000 161.772
53.32000 173.479
53.36000 173.226
53.40000 168.533
53.44000 162.987
53.48000 157.084
53.52000 157.186
53.56000 171.581
53.60000 165.607
53.64000 160.759
53.68000 169.561
53.72000 168.217
53.76000 159.914
53.80000 172.715
53.84000 159.500
53.88000 155.638
53.92000 157.200
53.96000 170.134
54.00000 156.312
54.04000 159.755
54.08000 151.457
54.12000 162.865
54.16000 162.888
54.20000 162.219
54.24000 155.237
54.28000 154.691
54.32000 155.937
54.36000 160.391
54.40000 160.112
54.44000 152.701
54.48000 167.475
54.52000 158.457
54.56000 168.586
54.60000 157.748
54.64000 163.471
54.68000 165.104
54.72000 153.352
54.76000 152.631
54.80000 163.970
54.84000 158.400
54.88000 156.120
54.92000 161.347
54.96000 157.522
55.00000 154.454
55.04000 159.424
55.08000 165.219
55.12000 165.608
55.16000 163.098
55.20000 164.487
55.24000 173.537
55.28000 177.419
55.32000 182.813
55.36000 185.451
55.40000 187.783
55.44000 182.940
55.48000 181.524
55.52000 211.180
55.56000 238.104
55.60000 266.263
55.64000 289.492
55.68000 350.155
55.72000 390.009
55.76000 463.957
55.80000 525.112
55.84000 628.426
55.88000 707.825
55.92000 772.084
55.96000 830.308
56.00000 806.053
56.04000 822.395
56.08000 784.962
56.12000 696.301
56.16000 629.028
56.20000 530.451
56.24000 478.671
56.28000 399.364
56.32000 319.833
56.36000 286.536
56.40000 247.540
56.44000 212.694
56.48000 202.658
56.52000 194.259
56.56000 193.796
56.60000 181.498
56.64000 163.729
56.68000 172.889
56.72000 158.550
56.76000 160.507
56.80000 155.919
56.84000 155.126
56.88000 153.363
56.92000 148.943
56.96000 145.582
57.00000 161.606
57.04000 155.534
57.08000 146.905
57.12000 154.383
57.16000 163.645
57.20000 148.102
57.24000 143.378
57.28000 146.688
57.32000 148.786
57.36000 151.695
57.40000 138.065
57.44000 140.127
57.48000 150.124
57.52000 148.750
57.56000 149.920
57.60000 146.453
57.64000 148.215
57.68000 140.437
57.72000 134.890
57.76000 146.560
57.80000 144.401
57.84000 145.658
57.88000 140.195
57.92000 139.375
57.96000 132.116
58.00000 144.333
58.04000 138.045
58.08000 137.641
58.12000 140.699
58.16000 141.576
58.20000 137.860
58.24000 137.095
58.28000 137.388
58.32000 137.851
58.36000 137.329
58.40000 139.176
58.44000 145.562
58.48000 130.748
58.52000 139.227
58.56000 139.363
58.60000 134.636
58.64000 136.487
58.68000 130.475
58.72000 131.191
58.76000 131.824
58.80000 136.340
58.84000 140.977
58.88000 131.404
58.92000 124.385
58.96000 137.841
59.00000 132.558
59.04000 134.619
59.08000 135.000
59.12000 143.793
59.16000 137.391
59.20000 136.312
59.24000 134.115
59.28000 125.794
59.32000 128.422
59.36000 135.036
59.40000 134.476
59.44000 126.032
59.48000 142.251
59.52000 135.842
59.56000 131.319
59.60000 126.352
59.64000 137.766
59.68000 127.269
59.72000 127.140
59.76000 136.125
59.80000 132.818
59.84000 129.917
59.88000 132.252
59.92000 135.033
59.96000 132.213
60.00000 122.569
60.04000 126.024
60.08000 126.674
60.12000 132.550
60.16000 134.390
60.20000 132.358
60.24000 131.502
60.28000 128.812
60.32000 130.814
60.36000 136.531
60.40000 134.586
60.44000 125.029
60.48000 133.024
60.52000 130.693
60.56000 137.094
60.60000 133.095
60.64000 138.903
60.68000 127.713
60.72000 136.696
60.76000 130.982
60.80000 139.479
60.84000 131.022
60.88000 136.274
60.92000 129.880
60.96000 147.644
61.00000 139.275
61.04000 142.516
61.08000 136.129
61.12000 136.955
61.16000 131.919
61.20000 142.354
61.24000 131.872
61.28000 131.553
61.32000 134.526
61.36000 135.121
61.40000 135.978
61.44000 136.754
61.48000 151.826
61.52000 157.299
61.56000 186.951
61.60000 222.962
61.64000 246.823
61.68000 246.468
61.72000 250.920
61.76000 244.406
61.80000 206.700
61.84000 168.705
61.88000 158.012
61.92000 147.391
61.96000 139.262
62.00000 140.438
62.04000 144.718
62.08000 136.379
62.12000 138.676
62.16000 136.397
62.20000 145.965
62.24000 145.520
62.28000 132.655
62.32000 137.542
62.36000 143.847
62.40000 133.658
62.44000 131.708
62.48000 138.667
62.52000 143.173
62.56000 145.065
62.60000 140.133
62.64000 139.007
62.68000 129.761
62.72000 135.142
62.76000 135.381
62.80000 133.603
62.84000 146.758
62.88000 135.958
62.92000 152.032
62.96000 140.249
63.00000 138.234
63.04000 160.628
63.08000 150.719
63.12000 133.242
63.16000 153.696
63.20000 147.286
63.24000 151.785
63.28000 147.405
63.32000 143.905
63.36000 137.381
63.40000 141.650
63.44000 143.399
63.48000 139.978
63.52000 145.284
63.56000 155.548
63.60000 151.616
63.64000 142.786
63.68000 150.281
63.72000 155.483
63.76000 153.340
63.80000 157.198
63.84000 149.090
63.88000 146.474
63.92000 152.889
63.96000 157.639
64.00000 162.516
64.04000 160.941
64.08000 147.679
64.12000 148.967
64.16000 160.042
64.20000 165.185
64.24000 157.929
64.28000 157.482
64.32000 149.262
64.36000 158.403
64.40000 150.545
64.44000 155.044
64.48000 158.728
64.52000 166.257
64.56000 160.827
64.60000 159.543
64.64000 169.647
64.68000 179.786
64.72000 161.349
64.76000 166.076
64.80000 170.580
64.84000 169.742
64.88000 173.820
64.92000 181.015
64.96000 179.042
65.00000 172.585
65.04000 181.732
65.08000 179.477
65.12000 180.828
65.16000 198.761
65.20000 204.851
65.24000 193.458
65.28000 214.101
65.32000 219.697
65.36000 231.602
65.40000 245.284
65.44000 241.836
65.48000 258.589
65.52000 284.304
65.56000 283.569
65.60000 290.121
65.64000 325.796
65.68000 374.097
65.72000 499.516
65.76000 705.784
65.80000 865.638
65.84000 972.116
65.88000 998.740
65.92000 964.073
65.96000 826.173
66.00000 612.380
66.04000 432.617
66.08000 336.974
66.12000 312.733
66.16000 283.362
66.20000 292.734
66.24000 298.719
66.28000 344.749
66.32000 355.649
66.36000 401.460
66.40000 413.109
66.44000 421.959
66.48000 413.937
66.52000 369.937
66.56000 340.594
66.60000 322.839
66.64000 306.166
66.68000 298.796
66.72000 303.744
66.76000 305.178
66.80000 302.446
66.84000 307.889
66.88000 316.159
66.92000 326.422
66.96000 335.081
67.00000 329.938
67.04000 321.019
67.08000 334.693
67.12000 333.009
67.16000 350.249
67.20000 352.979
67.24000 363.490
67.28000 345.546
67.32000 365.849
67.36000 381.534
67.40000 391.224
67.44000 388.533
67.48000 396.897
67.52000 390.592
67.56000 399.816
67.60000 416.446
67.64000 415.843
67.68000 419.473
67.72000 421.953
67.76000 403.487
67.80000 469.762
67.84000 460.194
67.88000 456.500
67.92000 482.847
67.96000 505.965
68.00000 512.584
68.04000 505.839
68.08000 524.756
68.12000 504.016
68.16000 549.529
68.20000 549.977
68.24000 563.992
68.28000 570.666
68.32000 612.440
68.36000 620.450
68.40000 656.200
68.44000 659.646
68.48000 697.002
68.52000 743.702
68.56000 784.777
68.60000 893.074
68.64000 968.074
68.68000 1183.479
68.72000 1355.706
68.76000 1559.076
68.80000 1754.172
68.84000 1980.275
68.88000 2514.860
68.92000 3772.504
68.96000 10670.221
69.00000 24730.633
69.04000 39835.730
69.08000 47352.340
69.12000 49103.590
69.16000 51321.707
69.20000 51326.148
69.24000 43644.348
69.28000 32815.746
69.32000 26827.670
69.36000 24366.063
69.40000 20258.912
69.44000 13049.573
69.48000 5686.571
69.52000 2606.137
69.56000 1662.975
69.60000 1296.139
69.64000 1120.284
69.68000 1005.938
69.72000 896.589
69.76000 821.651
69.80000 769.198
69.84000 730.431
69.88000 692.104
69.92000 664.242
69.96000 648.939
70.00000 627.218