File: XRD/XRD/24-09-2025 Dep 3/XY Data/BTO_Mapping_Theta2Theta_24-09-2025_001_56_20-074_-22-294.xy
20.00000 533.083
20.04000 562.140
20.08000 574.325
20.12000 564.932
20.16000 571.330
20.20000 558.391
20.24000 557.751
20.28000 544.326
20.32000 569.507
20.36000 541.559
20.40000 552.474
20.44000 548.522
20.48000 547.045
20.52000 562.869
20.56000 548.439
20.60000 545.383
20.64000 545.278
20.68000 544.511
20.72000 559.524
20.76000 552.676
20.80000 548.556
20.84000 542.531
20.88000 542.078
20.92000 550.542
20.96000 552.832
21.00000 547.768
21.04000 538.904
21.08000 554.469
21.12000 547.768
21.16000 538.210
21.20000 529.059
21.24000 529.693
21.28000 538.226
21.32000 527.506
21.36000 564.442
21.40000 550.643
21.44000 555.539
21.48000 547.421
21.52000 537.307
21.56000 557.837
21.60000 535.087
21.64000 547.014
21.68000 530.362
21.72000 548.327
21.76000 534.182
21.80000 565.045
21.84000 575.076
21.88000 566.348
21.92000 605.587
21.96000 610.110
22.00000 603.649
22.04000 616.566
22.08000 591.475
22.12000 607.561
22.16000 642.647
22.20000 594.017
22.24000 582.800
22.28000 555.079
22.32000 551.599
22.36000 553.619
22.40000 549.162
22.44000 545.062
22.48000 535.604
22.52000 539.299
22.56000 535.094
22.60000 529.489
22.64000 519.735
22.68000 523.523
22.72000 520.192
22.76000 520.825
22.80000 510.255
22.84000 517.323
22.88000 517.576
22.92000 501.027
22.96000 498.371
23.00000 488.403
23.04000 510.806
23.08000 498.421
23.12000 505.926
23.16000 500.087
23.20000 492.331
23.24000 500.675
23.28000 507.069
23.32000 488.344
23.36000 506.838
23.40000 489.481
23.44000 517.311
23.48000 498.882
23.52000 514.145
23.56000 504.936
23.60000 528.981
23.64000 514.376
23.68000 493.833
23.72000 504.849
23.76000 507.558
23.80000 514.766
23.84000 486.410
23.88000 475.510
23.92000 509.486
23.96000 495.036
24.00000 494.399
24.04000 484.999
24.08000 479.930
24.12000 504.584
24.16000 497.927
24.20000 506.372
24.24000 473.152
24.28000 486.854
24.32000 487.069
24.36000 502.401
24.40000 493.666
24.44000 487.452
24.48000 483.964
24.52000 484.565
24.56000 485.928
24.60000 487.960
24.64000 478.035
24.68000 480.041
24.72000 490.991
24.76000 473.815
24.80000 481.323
24.84000 476.123
24.88000 487.906
24.92000 464.444
24.96000 467.452
25.00000 466.382
25.04000 473.390
25.08000 470.234
25.12000 467.906
25.16000 479.677
25.20000 480.386
25.24000 471.386
25.28000 467.396
25.32000 484.847
25.36000 485.114
25.40000 467.891
25.44000 469.665
25.48000 473.866
25.52000 462.506
25.56000 455.080
25.60000 467.239
25.64000 468.315
25.68000 505.191
25.72000 460.219
25.76000 464.123
25.80000 480.160
25.84000 471.925
25.88000 450.558
25.92000 458.838
25.96000 453.575
26.00000 454.890
26.04000 459.298
26.08000 438.053
26.12000 449.518
26.16000 468.852
26.20000 458.456
26.24000 467.880
26.28000 464.907
26.32000 451.324
26.36000 425.951
26.40000 445.737
26.44000 441.825
26.48000 456.029
26.52000 446.753
26.56000 448.953
26.60000 473.099
26.64000 476.372
26.68000 457.562
26.72000 448.542
26.76000 450.762
26.80000 455.180
26.84000 449.616
26.88000 419.780
26.92000 438.620
26.96000 442.865
27.00000 449.812
27.04000 440.617
27.08000 425.641
27.12000 428.445
27.16000 436.438
27.20000 441.782
27.24000 419.517
27.28000 440.775
27.32000 427.875
27.36000 430.917
27.40000 437.131
27.44000 447.644
27.48000 434.806
27.52000 424.587
27.56000 437.289
27.60000 425.291
27.64000 434.566
27.68000 436.820
27.72000 422.652
27.76000 446.365
27.80000 440.838
27.84000 441.267
27.88000 429.649
27.92000 427.781
27.96000 429.945
28.00000 421.403
28.04000 425.942
28.08000 417.698
28.12000 424.229
28.16000 442.183
28.20000 423.104
28.24000 453.265
28.28000 409.880
28.32000 432.023
28.36000 419.851
28.40000 444.959
28.44000 406.579
28.48000 420.602
28.52000 418.037
28.56000 437.676
28.60000 417.592
28.64000 420.114
28.68000 417.672
28.72000 422.620
28.76000 417.269
28.80000 411.893
28.84000 413.103
28.88000 418.364
28.92000 418.353
28.96000 430.619
29.00000 419.011
29.04000 407.581
29.08000 412.377
29.12000 401.856
29.16000 430.742
29.20000 406.391
29.24000 411.901
29.28000 415.306
29.32000 399.743
29.36000 414.212
29.40000 402.043
29.44000 408.759
29.48000 428.819
29.52000 409.370
29.56000 404.956
29.60000 408.909
29.64000 399.374
29.68000 401.709
29.72000 416.250
29.76000 396.946
29.80000 389.919
29.84000 417.153
29.88000 422.083
29.92000 421.161
29.96000 408.043
30.00000 423.402
30.04000 428.386
30.08000 427.984
30.12000 423.958
30.16000 412.050
30.20000 434.930
30.24000 401.482
30.28000 415.589
30.32000 419.485
30.36000 428.610
30.40000 417.504
30.44000 422.067
30.48000 418.281
30.52000 409.540
30.56000 422.338
30.60000 420.877
30.64000 404.093
30.68000 421.589
30.72000 435.296
30.76000 434.264
30.80000 428.652
30.84000 408.956
30.88000 448.702
30.92000 477.861
30.96000 457.032
31.00000 493.314
31.04000 518.167
31.08000 575.195
31.12000 635.878
31.16000 768.087
31.20000 852.618
31.24000 1043.435
31.28000 1213.338
31.32000 1348.958
31.36000 1445.729
31.40000 1493.209
31.44000 1463.242
31.48000 1357.860
31.52000 1231.230
31.56000 1084.178
31.60000 933.627
31.64000 778.298
31.68000 682.047
31.72000 595.584
31.76000 524.870
31.80000 491.834
31.84000 472.233
31.88000 446.906
31.92000 429.656
31.96000 417.467
32.00000 433.746
32.04000 426.858
32.08000 410.325
32.12000 414.127
32.16000 406.669
32.20000 402.219
32.24000 421.719
32.28000 396.141
32.32000 393.314
32.36000 390.334
32.40000 392.572
32.44000 380.338
32.48000 389.595
32.52000 380.080
32.56000 369.205
32.60000 369.708
32.64000 383.664
32.68000 372.104
32.72000 374.582
32.76000 372.465
32.80000 399.194
32.84000 416.702
32.88000 439.445
32.92000 470.025
32.96000 437.066
33.00000 439.763
33.04000 422.673
33.08000 400.855
33.12000 373.662
33.16000 346.555
33.20000 348.371
33.24000 344.695
33.28000 344.938
33.32000 352.098
33.36000 352.655
33.40000 357.412
33.44000 355.644
33.48000 336.947
33.52000 331.632
33.56000 342.239
33.60000 334.569
33.64000 325.801
33.68000 341.847
33.72000 331.827
33.76000 326.402
33.80000 323.000
33.84000 354.741
33.88000 340.797
33.92000 327.305
33.96000 350.400
34.00000 333.304
34.04000 333.324
34.08000 336.258
34.12000 329.850
34.16000 341.860
34.20000 331.462
34.24000 339.174
34.28000 316.685
34.32000 328.698
34.36000 327.304
34.40000 313.055
34.44000 326.200
34.48000 323.732
34.52000 326.327
34.56000 340.008
34.60000 312.730
34.64000 317.392
34.68000 317.281
34.72000 327.748
34.76000 307.459
34.80000 351.438
34.84000 336.954
34.88000 322.656
34.92000 310.749
34.96000 325.716
35.00000 322.092
35.04000 307.531
35.08000 299.676
35.12000 322.042
35.16000 321.123
35.20000 326.125
35.24000 300.971
35.28000 300.714
35.32000 306.565
35.36000 312.542
35.40000 315.982
35.44000 311.990
35.48000 305.961
35.52000 303.013
35.56000 302.655
35.60000 307.229
35.64000 295.296
35.68000 300.509
35.72000 318.051
35.76000 299.360
35.80000 287.931
35.84000 305.551
35.88000 289.936
35.92000 305.825
35.96000 317.172
36.00000 319.661
36.04000 294.258
36.08000 283.307
36.12000 301.493
36.16000 309.893
36.20000 298.700
36.24000 291.844
36.28000 299.226
36.32000 309.262
36.36000 298.276
36.40000 293.806
36.44000 303.160
36.48000 299.725
36.52000 303.868
36.56000 299.736
36.60000 299.349
36.64000 294.806
36.68000 300.526
36.72000 299.772
36.76000 297.350
36.80000 302.259
36.84000 298.217
36.88000 309.937
36.92000 294.590
36.96000 318.585
37.00000 309.483
37.04000 299.723
37.08000 317.252
37.12000 302.689
37.16000 301.759
37.20000 304.436
37.24000 299.718
37.28000 304.555
37.32000 295.039
37.36000 309.660
37.40000 298.965
37.44000 309.177
37.48000 297.727
37.52000 284.157
37.56000 283.110
37.60000 282.012
37.64000 307.468
37.68000 291.203
37.72000 295.956
37.76000 299.051
37.80000 290.464
37.84000 297.747
37.88000 296.420
37.92000 292.084
37.96000 311.589
38.00000 312.039
38.04000 288.332
38.08000 300.304
38.12000 288.965
38.16000 304.556
38.20000 316.000
38.24000 314.852
38.28000 322.196
38.32000 321.164
38.36000 343.961
38.40000 377.745
38.44000 430.762
38.48000 488.471
38.52000 630.591
38.56000 772.434
38.60000 982.611
38.64000 1167.856
38.68000 1344.825
38.72000 1450.192
38.76000 1512.908
38.80000 1448.091
38.84000 1296.121
38.88000 1120.021
38.92000 884.459
38.96000 687.783
39.00000 529.167
39.04000 436.823
39.08000 357.054
39.12000 334.882
39.16000 303.003
39.20000 294.686
39.24000 291.421
39.28000 289.013
39.32000 295.214
39.36000 284.310
39.40000 280.487
39.44000 289.928
39.48000 294.094
39.52000 284.392
39.56000 274.242
39.60000 272.644
39.64000 266.850
39.68000 285.827
39.72000 264.550
39.76000 274.302
39.80000 269.232
39.84000 250.060
39.88000 266.156
39.92000 246.826
39.96000 275.790
40.00000 277.500
40.04000 254.195
40.08000 273.518
40.12000 255.336
40.16000 257.209
40.20000 264.963
40.24000 244.499
40.28000 257.197
40.32000 271.346
40.36000 248.966
40.40000 262.249
40.44000 245.672
40.48000 250.587
40.52000 261.261
40.56000 231.694
40.60000 237.776
40.64000 250.373
40.68000 245.966
40.72000 248.597
40.76000 255.253
40.80000 253.882
40.84000 247.927
40.88000 248.555
40.92000 248.842
40.96000 242.019
41.00000 245.380
41.04000 241.808
41.08000 240.861
41.12000 244.931
41.16000 237.741
41.20000 234.681
41.24000 242.331
41.28000 246.320
41.32000 246.738
41.36000 244.381
41.40000 252.001
41.44000 235.963
41.48000 246.115
41.52000 240.424
41.56000 243.008
41.60000 232.564
41.64000 231.795
41.68000 243.244
41.72000 236.094
41.76000 256.305
41.80000 238.716
41.84000 230.837
41.88000 236.308
41.92000 254.952
41.96000 240.057
42.00000 225.894
42.04000 248.652
42.08000 232.117
42.12000 227.074
42.16000 221.547
42.20000 235.320
42.24000 227.662
42.28000 235.647
42.32000 248.062
42.36000 235.965
42.40000 237.723
42.44000 239.600
42.48000 232.854
42.52000 235.784
42.56000 230.514
42.60000 245.728
42.64000 231.658
42.68000 238.570
42.72000 233.796
42.76000 221.501
42.80000 230.397
42.84000 230.066
42.88000 223.822
42.92000 251.876
42.96000 230.929
43.00000 234.227
43.04000 228.952
43.08000 228.100
43.12000 232.985
43.16000 221.904
43.20000 236.916
43.24000 218.147
43.28000 226.594
43.32000 214.089
43.36000 225.409
43.40000 222.475
43.44000 226.043
43.48000 227.290
43.52000 231.786
43.56000 220.835
43.60000 211.817
43.64000 209.788
43.68000 213.552
43.72000 219.342
43.76000 231.903
43.80000 234.282
43.84000 232.755
43.88000 222.186
43.92000 211.410
43.96000 223.568
44.00000 213.661
44.04000 221.301
44.08000 217.747
44.12000 217.632
44.16000 222.103
44.20000 222.826
44.24000 237.623
44.28000 209.610
44.32000 220.745
44.36000 243.246
44.40000 216.826
44.44000 219.535
44.48000 227.324
44.52000 215.215
44.56000 211.650
44.60000 222.364
44.64000 226.490
44.68000 242.224
44.72000 231.297
44.76000 224.119
44.80000 244.515
44.84000 231.957
44.88000 257.123
44.92000 256.590
44.96000 277.143
45.00000 265.843
45.04000 274.146
45.08000 274.315
45.12000 280.070
45.16000 272.149
45.20000 259.518
45.24000 270.465
45.28000 255.646
45.32000 263.185
45.36000 236.416
45.40000 253.667
45.44000 235.342
45.48000 229.314
45.52000 240.171
45.56000 232.939
45.60000 250.718
45.64000 220.877
45.68000 210.649
45.72000 219.472
45.76000 215.456
45.80000 200.907
45.84000 217.575
45.88000 219.176
45.92000 201.721
45.96000 215.776
46.00000 206.818
46.04000 216.948
46.08000 203.314
46.12000 194.897
46.16000 195.672
46.20000 188.555
46.24000 201.728
46.28000 212.861
46.32000 202.768
46.36000 202.610
46.40000 199.267
46.44000 213.738
46.48000 210.167
46.52000 213.522
46.56000 204.407
46.60000 192.897
46.64000 199.559
46.68000 195.300
46.72000 205.559
46.76000 205.661
46.80000 194.279
46.84000 196.101
46.88000 203.583
46.92000 205.794
46.96000 183.999
47.00000 194.812
47.04000 203.024
47.08000 188.218
47.12000 192.256
47.16000 193.613
47.20000 193.338
47.24000 198.758
47.28000 183.579
47.32000 191.871
47.36000 185.001
47.40000 192.992
47.44000 190.695
47.48000 182.926
47.52000 177.637
47.56000 192.692
47.60000 197.799
47.64000 198.310
47.68000 183.629
47.72000 180.753
47.76000 192.185
47.80000 185.131
47.84000 187.581
47.88000 184.508
47.92000 183.858
47.96000 191.659
48.00000 178.186
48.04000 188.022
48.08000 181.339
48.12000 177.911
48.16000 182.593
48.20000 185.324
48.24000 175.369
48.28000 189.659
48.32000 189.240
48.36000 187.458
48.40000 184.851
48.44000 182.011
48.48000 192.389
48.52000 191.340
48.56000 175.189
48.60000 171.603
48.64000 181.119
48.68000 183.700
48.72000 175.473
48.76000 176.833
48.80000 183.192
48.84000 176.752
48.88000 171.017
48.92000 163.054
48.96000 169.525
49.00000 181.013
49.04000 177.964
49.08000 184.902
49.12000 187.429
49.16000 173.507
49.20000 182.769
49.24000 179.771
49.28000 182.058
49.32000 175.704
49.36000 171.378
49.40000 172.698
49.44000 174.353
49.48000 177.855
49.52000 179.400
49.56000 176.188
49.60000 178.008
49.64000 179.991
49.68000 173.720
49.72000 172.625
49.76000 172.471
49.80000 176.452
49.84000 177.858
49.88000 171.418
49.92000 180.978
49.96000 180.272
50.00000 182.050
50.04000 167.764
50.08000 176.932
50.12000 166.153
50.16000 186.561
50.20000 169.586
50.24000 179.356
50.28000 168.098
50.32000 168.431
50.36000 183.817
50.40000 182.999
50.44000 184.953
50.48000 188.891
50.52000 187.688
50.56000 194.395
50.60000 191.897
50.64000 192.395
50.68000 183.535
50.72000 202.517
50.76000 199.781
50.80000 193.535
50.84000 194.842
50.88000 188.117
50.92000 183.911
50.96000 186.471
51.00000 189.151
51.04000 177.345
51.08000 173.671
51.12000 161.889
51.16000 158.504
51.20000 171.352
51.24000 169.180
51.28000 169.376
51.32000 176.848
51.36000 165.480
51.40000 168.426
51.44000 174.754
51.48000 153.592
51.52000 175.175
51.56000 163.730
51.60000 153.912
51.64000 157.838
51.68000 159.284
51.72000 165.645
51.76000 176.014
51.80000 171.354
51.84000 174.396
51.88000 163.901
51.92000 161.577
51.96000 163.402
52.00000 156.426
52.04000 170.820
52.08000 158.375
52.12000 166.201
52.16000 171.332
52.20000 164.244
52.24000 160.537
52.28000 155.440
52.32000 168.294
52.36000 161.511
52.40000 152.528
52.44000 159.443
52.48000 154.238
52.52000 154.911
52.56000 170.614
52.60000 163.907
52.64000 150.648
52.68000 150.393
52.72000 155.278
52.76000 156.157
52.80000 147.916
52.84000 158.944
52.88000 161.424
52.92000 155.629
52.96000 155.622
53.00000 151.369
53.04000 152.012
53.08000 159.620
53.12000 150.035
53.16000 165.278
53.20000 170.814
53.24000 167.021
53.28000 153.775
53.32000 163.104
53.36000 161.496
53.40000 165.856
53.44000 177.429
53.48000 170.701
53.52000 162.633
53.56000 165.598
53.60000 167.503
53.64000 164.204
53.68000 153.017
53.72000 163.626
53.76000 150.297
53.80000 160.965
53.84000 152.209
53.88000 156.994
53.92000 160.121
53.96000 161.050
54.00000 155.614
54.04000 160.069
54.08000 158.879
54.12000 156.091
54.16000 160.213
54.20000 161.872
54.24000 163.484
54.28000 149.767
54.32000 155.147
54.36000 160.077
54.40000 157.976
54.44000 158.016
54.48000 146.922
54.52000 158.840
54.56000 157.078
54.60000 168.889
54.64000 162.287
54.68000 150.286
54.72000 154.623
54.76000 155.124
54.80000 159.161
54.84000 158.361
54.88000 156.501
54.92000 159.816
54.96000 161.909
55.00000 165.555
55.04000 157.580
55.08000 165.410
55.12000 167.087
55.16000 174.358
55.20000 171.939
55.24000 176.212
55.28000 170.719
55.32000 159.251
55.36000 179.351
55.40000 183.947
55.44000 190.536
55.48000 210.233
55.52000 221.158
55.56000 245.174
55.60000 273.459
55.64000 294.631
55.68000 351.054
55.72000 404.583
55.76000 471.059
55.80000 539.757
55.84000 637.245
55.88000 693.578
55.92000 747.196
55.96000 771.441
56.00000 793.107
56.04000 784.278
56.08000 729.586
56.12000 688.855
56.16000 582.178
56.20000 505.335
56.24000 431.714
56.28000 370.207
56.32000 317.477
56.36000 276.837
56.40000 250.499
56.44000 224.297
56.48000 202.776
56.52000 197.539
56.56000 188.530
56.60000 185.433
56.64000 183.685
56.68000 172.469
56.72000 167.912
56.76000 159.801
56.80000 153.225
56.84000 165.962
56.88000 154.828
56.92000 153.345
56.96000 147.276
57.00000 141.431
57.04000 154.558
57.08000 159.365
57.12000 163.505
57.16000 167.579
57.20000 150.806
57.24000 154.869
57.28000 146.641
57.32000 148.761
57.36000 155.785
57.40000 140.774
57.44000 135.431
57.48000 139.512
57.52000 155.698
57.56000 147.618
57.60000 145.572
57.64000 151.939
57.68000 158.521
57.72000 144.384
57.76000 152.725
57.80000 134.558
57.84000 144.785
57.88000 143.193
57.92000 139.917
57.96000 145.124
58.00000 138.190
58.04000 138.124
58.08000 148.114
58.12000 142.679
58.16000 139.731
58.20000 148.065
58.24000 146.554
58.28000 143.987
58.32000 140.662
58.36000 143.291
58.40000 138.994
58.44000 146.634
58.48000 152.030
58.52000 139.477
58.56000 141.189
58.60000 141.446
58.64000 136.909
58.68000 135.068
58.72000 129.818
58.76000 131.583
58.80000 134.392
58.84000 134.725
58.88000 131.168
58.92000 134.089
58.96000 135.078
59.00000 134.194
59.04000 137.592
59.08000 132.630
59.12000 134.901
59.16000 142.641
59.20000 135.093
59.24000 134.749
59.28000 132.157
59.32000 131.115
59.36000 137.718
59.40000 139.266
59.44000 137.089
59.48000 131.471
59.52000 139.422
59.56000 135.843
59.60000 131.429
59.64000 135.881
59.68000 130.428
59.72000 134.050
59.76000 121.520
59.80000 125.417
59.84000 139.454
59.88000 132.438
59.92000 142.016
59.96000 141.595
60.00000 136.062
60.04000 125.677
60.08000 128.458
60.12000 132.027
60.16000 125.080
60.20000 123.920
60.24000 129.477
60.28000 125.626
60.32000 141.926
60.36000 121.795
60.40000 129.922
60.44000 130.163
60.48000 120.706
60.52000 121.280
60.56000 133.194
60.60000 130.601
60.64000 134.847
60.68000 140.619
60.72000 130.873
60.76000 142.827
60.80000 125.710
60.84000 124.982
60.88000 139.799
60.92000 134.668
60.96000 135.093
61.00000 126.385
61.04000 129.837
61.08000 135.040
61.12000 128.932
61.16000 141.882
61.20000 133.262
61.24000 127.222
61.28000 140.813
61.32000 145.277
61.36000 135.835
61.40000 133.229
61.44000 135.470
61.48000 135.024
61.52000 177.060
61.56000 188.567
61.60000 228.919
61.64000 245.112
61.68000 256.519
61.72000 261.283
61.76000 250.375
61.80000 211.357
61.84000 172.824
61.88000 161.460
61.92000 146.169
61.96000 138.780
62.00000 138.904
62.04000 145.668
62.08000 135.646
62.12000 131.403
62.16000 137.755
62.20000 145.707
62.24000 138.398
62.28000 135.555
62.32000 141.479
62.36000 137.453
62.40000 133.228
62.44000 136.789
62.48000 141.449
62.52000 144.009
62.56000 151.117
62.60000 143.484
62.64000 122.695
62.68000 146.412
62.72000 140.066
62.76000 149.166
62.80000 142.938
62.84000 142.017
62.88000 144.681
62.92000 136.305
62.96000 148.141
63.00000 147.375
63.04000 145.952
63.08000 141.501
63.12000 156.663
63.16000 136.063
63.20000 140.459
63.24000 155.651
63.28000 137.535
63.32000 145.304
63.36000 137.730
63.40000 150.874
63.44000 144.347
63.48000 134.581
63.52000 147.750
63.56000 142.088
63.60000 149.845
63.64000 146.417
63.68000 144.866
63.72000 156.942
63.76000 133.933
63.80000 145.486
63.84000 154.499
63.88000 152.604
63.92000 151.188
63.96000 162.759
64.00000 156.332
64.04000 158.249
64.08000 151.565
64.12000 152.664
64.16000 145.013
64.20000 153.572
64.24000 155.173
64.28000 156.736
64.32000 153.267
64.36000 154.848
64.40000 160.180
64.44000 170.168
64.48000 173.360
64.52000 164.812
64.56000 167.505
64.60000 174.040
64.64000 161.271
64.68000 170.584
64.72000 171.228
64.76000 176.786
64.80000 160.380
64.84000 177.822
64.88000 179.838
64.92000 182.282
64.96000 193.516
65.00000 174.728
65.04000 189.327
65.08000 180.493
65.12000 190.474
65.16000 178.003
65.20000 196.822
65.24000 215.296
65.28000 213.953
65.32000 219.901
65.36000 229.567
65.40000 253.707
65.44000 251.074
65.48000 255.041
65.52000 263.932
65.56000 289.284
65.60000 292.871
65.64000 341.335
65.68000 383.577
65.72000 508.589
65.76000 717.639
65.80000 887.751
65.84000 957.870
65.88000 1009.241
65.92000 994.118
65.96000 871.798
66.00000 608.563
66.04000 431.931
66.08000 331.611
66.12000 301.143
66.16000 298.141
66.20000 301.877
66.24000 294.581
66.28000 336.333
66.32000 360.619
66.36000 393.694
66.40000 405.654
66.44000 416.121
66.48000 431.014
66.52000 380.729
66.56000 347.122
66.60000 314.620
66.64000 297.536
66.68000 294.194
66.72000 305.782
66.76000 297.280
66.80000 305.326
66.84000 314.729
66.88000 319.125
66.92000 331.351
66.96000 324.403
67.00000 322.467
67.04000 335.644
67.08000 342.784
67.12000 330.603
67.16000 355.528
67.20000 350.827
67.24000 374.955
67.28000 352.776
67.32000 362.255
67.36000 377.337
67.40000 376.943
67.44000 375.300
67.48000 395.116
67.52000 412.173
67.56000 402.605
67.60000 419.315
67.64000 405.547
67.68000 418.103
67.72000 444.876
67.76000 444.653
67.80000 464.151
67.84000 465.027
67.88000 462.503
67.92000 494.624
67.96000 496.164
68.00000 479.147
68.04000 504.579
68.08000 508.008
68.12000 534.588
68.16000 531.418
68.20000 549.763
68.24000 564.133
68.28000 599.297
68.32000 611.575
68.36000 635.637
68.40000 642.697
68.44000 688.460
68.48000 699.309
68.52000 729.802
68.56000 796.948
68.60000 876.011
68.64000 1019.074
68.68000 1199.087
68.72000 1380.365
68.76000 1554.466
68.80000 1734.128
68.84000 2023.983
68.88000 2500.858
68.92000 3871.041
68.96000 10934.015
69.00000 25260.002
69.04000 40539.750
69.08000 48060.406
69.12000 49983.098
69.16000 52123.918
69.20000 52259.223
69.24000 44033.770
69.28000 32936.348
69.32000 27041.279
69.36000 24426.963
69.40000 20517.818
69.44000 13000.518
69.48000 5685.574
69.52000 2650.233
69.56000 1640.114
69.60000 1319.678
69.64000 1114.381
69.68000 976.576
69.72000 884.403
69.76000 808.588
69.80000 775.812
69.84000 719.763
69.88000 687.988
69.92000 672.575
69.96000 657.736
70.00000 651.501