File: XRD/XRD/24-09-2025 Dep 3/XY Data/BTO_Mapping_Theta2Theta_24-09-2025_001_50_3-090_-9-511.xy
20.00000 555.746
20.04000 553.859
20.08000 558.533
20.12000 560.672
20.16000 563.932
20.20000 574.718
20.24000 557.409
20.28000 574.572
20.32000 577.892
20.36000 563.369
20.40000 554.777
20.44000 558.853
20.48000 541.152
20.52000 553.723
20.56000 550.359
20.60000 559.282
20.64000 577.738
20.68000 556.164
20.72000 523.676
20.76000 553.638
20.80000 549.416
20.84000 552.026
20.88000 542.361
20.92000 561.638
20.96000 562.246
21.00000 557.374
21.04000 538.473
21.08000 536.264
21.12000 541.949
21.16000 564.934
21.20000 573.788
21.24000 556.118
21.28000 547.482
21.32000 540.384
21.36000 553.237
21.40000 543.166
21.44000 530.678
21.48000 545.827
21.52000 544.868
21.56000 560.425
21.60000 549.909
21.64000 554.145
21.68000 548.665
21.72000 545.063
21.76000 549.057
21.80000 567.198
21.84000 586.837
21.88000 573.953
21.92000 613.891
21.96000 630.958
22.00000 660.268
22.04000 665.395
22.08000 631.698
22.12000 631.535
22.16000 623.865
22.20000 634.082
22.24000 605.612
22.28000 610.061
22.32000 582.675
22.36000 597.525
22.40000 570.626
22.44000 578.995
22.48000 567.566
22.52000 542.769
22.56000 565.196
22.60000 523.470
22.64000 532.710
22.68000 527.616
22.72000 514.998
22.76000 527.184
22.80000 529.621
22.84000 519.945
22.88000 513.545
22.92000 494.851
22.96000 523.289
23.00000 514.458
23.04000 501.000
23.08000 508.421
23.12000 500.389
23.16000 498.695
23.20000 520.941
23.24000 506.190
23.28000 484.183
23.32000 502.502
23.36000 492.903
23.40000 512.150
23.44000 510.853
23.48000 505.815
23.52000 499.489
23.56000 501.310
23.60000 487.876
23.64000 479.934
23.68000 503.546
23.72000 511.715
23.76000 510.268
23.80000 503.402
23.84000 524.621
23.88000 495.538
23.92000 480.901
23.96000 496.595
24.00000 496.820
24.04000 483.047
24.08000 499.233
24.12000 486.198
24.16000 482.409
24.20000 478.535
24.24000 504.931
24.28000 496.140
24.32000 492.843
24.36000 484.549
24.40000 486.133
24.44000 474.796
24.48000 479.551
24.52000 466.402
24.56000 480.724
24.60000 488.102
24.64000 478.430
24.68000 486.309
24.72000 483.005
24.76000 494.769
24.80000 485.685
24.84000 466.726
24.88000 479.581
24.92000 474.606
24.96000 475.065
25.00000 466.457
25.04000 464.625
25.08000 466.590
25.12000 477.181
25.16000 488.285
25.20000 470.806
25.24000 453.363
25.28000 458.194
25.32000 466.997
25.36000 472.162
25.40000 474.778
25.44000 478.001
25.48000 472.070
25.52000 474.711
25.56000 471.579
25.60000 473.049
25.64000 462.704
25.68000 467.010
25.72000 468.172
25.76000 450.428
25.80000 465.339
25.84000 463.898
25.88000 453.059
25.92000 452.405
25.96000 458.346
26.00000 457.544
26.04000 450.277
26.08000 468.362
26.12000 452.534
26.16000 470.892
26.20000 451.386
26.24000 465.519
26.28000 468.279
26.32000 445.866
26.36000 443.247
26.40000 469.477
26.44000 446.402
26.48000 445.388
26.52000 445.685
26.56000 450.107
26.60000 471.675
26.64000 442.772
26.68000 434.467
26.72000 451.789
26.76000 448.725
26.80000 448.530
26.84000 425.833
26.88000 440.875
26.92000 439.986
26.96000 437.731
27.00000 436.646
27.04000 433.532
27.08000 432.804
27.12000 416.675
27.16000 434.935
27.20000 433.643
27.24000 441.934
27.28000 436.210
27.32000 439.005
27.36000 432.841
27.40000 426.887
27.44000 431.984
27.48000 439.408
27.52000 455.636
27.56000 441.001
27.60000 451.234
27.64000 436.372
27.68000 436.897
27.72000 435.609
27.76000 426.885
27.80000 442.100
27.84000 424.112
27.88000 436.452
27.92000 429.671
27.96000 434.145
28.00000 419.288
28.04000 420.846
28.08000 419.607
28.12000 414.350
28.16000 423.637
28.20000 428.262
28.24000 440.562
28.28000 423.195
28.32000 402.143
28.36000 415.335
28.40000 418.065
28.44000 426.243
28.48000 416.666
28.52000 426.859
28.56000 394.149
28.60000 410.902
28.64000 412.235
28.68000 413.815
28.72000 415.889
28.76000 403.440
28.80000 427.587
28.84000 416.144
28.88000 428.646
28.92000 424.451
28.96000 421.112
29.00000 414.055
29.04000 417.474
29.08000 417.790
29.12000 404.985
29.16000 404.539
29.20000 418.626
29.24000 415.777
29.28000 422.818
29.32000 409.071
29.36000 406.095
29.40000 399.266
29.44000 422.384
29.48000 438.190
29.52000 408.405
29.56000 405.723
29.60000 410.843
29.64000 399.225
29.68000 407.929
29.72000 415.844
29.76000 412.975
29.80000 427.798
29.84000 415.294
29.88000 430.535
29.92000 422.113
29.96000 421.035
30.00000 445.743
30.04000 439.199
30.08000 432.062
30.12000 440.322
30.16000 438.461
30.20000 430.904
30.24000 424.897
30.28000 433.306
30.32000 417.657
30.36000 425.638
30.40000 413.843
30.44000 425.196
30.48000 414.652
30.52000 420.634
30.56000 414.582
30.60000 415.812
30.64000 436.146
30.68000 443.456
30.72000 421.838
30.76000 429.922
30.80000 452.092
30.84000 427.743
30.88000 471.432
30.92000 494.515
30.96000 510.200
31.00000 543.090
31.04000 602.017
31.08000 691.489
31.12000 852.324
31.16000 1063.345
31.20000 1350.104
31.24000 1683.385
31.28000 2014.385
31.32000 2337.061
31.36000 2528.171
31.40000 2620.220
31.44000 2537.299
31.48000 2291.535
31.52000 1996.667
31.56000 1635.283
31.60000 1328.844
31.64000 1046.451
31.68000 855.765
31.72000 712.211
31.76000 616.801
31.80000 558.684
31.84000 518.690
31.88000 497.542
31.92000 455.290
31.96000 437.093
32.00000 442.173
32.04000 442.525
32.08000 408.441
32.12000 400.240
32.16000 407.125
32.20000 401.617
32.24000 399.865
32.28000 401.213
32.32000 400.806
32.36000 394.250
32.40000 384.935
32.44000 379.440
32.48000 388.435
32.52000 373.034
32.56000 360.365
32.60000 383.793
32.64000 364.877
32.68000 374.503
32.72000 371.010
32.76000 376.266
32.80000 391.513
32.84000 417.475
32.88000 454.207
32.92000 457.315
32.96000 449.085
33.00000 466.130
33.04000 430.857
33.08000 416.590
33.12000 382.041
33.16000 358.977
33.20000 337.599
33.24000 344.402
33.28000 344.529
33.32000 337.056
33.36000 349.704
33.40000 333.993
33.44000 342.235
33.48000 345.119
33.52000 330.758
33.56000 343.349
33.60000 338.895
33.64000 325.334
33.68000 332.335
33.72000 333.194
33.76000 338.197
33.80000 323.487
33.84000 328.768
33.88000 341.691
33.92000 335.135
33.96000 337.587
34.00000 331.260
34.04000 317.566
34.08000 332.122
34.12000 339.801
34.16000 319.081
34.20000 316.497
34.24000 319.292
34.28000 336.299
34.32000 326.068
34.36000 336.618
34.40000 317.900
34.44000 320.079
34.48000 308.010
34.52000 330.245
34.56000 326.579
34.60000 320.013
34.64000 337.153
34.68000 324.177
34.72000 324.763
34.76000 327.512
34.80000 321.642
34.84000 324.947
34.88000 308.112
34.92000 310.987
34.96000 318.583
35.00000 309.923
35.04000 315.978
35.08000 307.168
35.12000 306.714
35.16000 312.989
35.20000 307.722
35.24000 319.245
35.28000 300.391
35.32000 320.822
35.36000 307.982
35.40000 315.406
35.44000 320.710
35.48000 320.979
35.52000 308.862
35.56000 294.328
35.60000 308.101
35.64000 313.805
35.68000 299.177
35.72000 296.691
35.76000 290.149
35.80000 295.755
35.84000 297.663
35.88000 311.484
35.92000 308.844
35.96000 317.034
36.00000 300.218
36.04000 296.666
36.08000 291.066
36.12000 292.162
36.16000 288.900
36.20000 308.823
36.24000 321.285
36.28000 314.753
36.32000 286.338
36.36000 304.997
36.40000 297.066
36.44000 295.932
36.48000 287.746
36.52000 307.239
36.56000 297.505
36.60000 303.948
36.64000 301.728
36.68000 299.105
36.72000 319.993
36.76000 312.533
36.80000 313.976
36.84000 289.236
36.88000 303.674
36.92000 302.456
36.96000 301.198
37.00000 305.894
37.04000 329.404
37.08000 321.013
37.12000 321.762
37.16000 316.398
37.20000 305.405
37.24000 306.345
37.28000 302.300
37.32000 289.132
37.36000 288.893
37.40000 283.093
37.44000 282.125
37.48000 301.096
37.52000 297.601
37.56000 299.890
37.60000 306.228
37.64000 299.472
37.68000 280.547
37.72000 294.124
37.76000 322.454
37.80000 290.305
37.84000 298.328
37.88000 310.833
37.92000 306.893
37.96000 302.331
38.00000 297.364
38.04000 305.989
38.08000 306.025
38.12000 310.881
38.16000 311.060
38.20000 309.948
38.24000 331.057
38.28000 329.946
38.32000 340.817
38.36000 375.318
38.40000 393.782
38.44000 447.161
38.48000 564.549
38.52000 724.910
38.56000 905.630
38.60000 1144.163
38.64000 1350.695
38.68000 1549.072
38.72000 1573.403
38.76000 1549.431
38.80000 1480.262
38.84000 1293.969
38.88000 1070.747
38.92000 820.232
38.96000 641.162
39.00000 504.624
39.04000 408.268
39.08000 386.408
39.12000 324.267
39.16000 322.104
39.20000 318.801
39.24000 297.735
39.28000 298.924
39.32000 282.762
39.36000 286.258
39.40000 275.478
39.44000 269.246
39.48000 262.657
39.52000 289.436
39.56000 268.290
39.60000 272.835
39.64000 262.233
39.68000 260.310
39.72000 263.586
39.76000 270.004
39.80000 269.061
39.84000 258.857
39.88000 265.741
39.92000 275.857
39.96000 254.224
40.00000 255.759
40.04000 270.878
40.08000 266.834
40.12000 263.275
40.16000 256.378
40.20000 262.944
40.24000 264.622
40.28000 244.772
40.32000 260.024
40.36000 260.642
40.40000 254.213
40.44000 269.718
40.48000 267.567
40.52000 254.146
40.56000 230.849
40.60000 250.413
40.64000 267.725
40.68000 251.908
40.72000 242.784
40.76000 249.604
40.80000 259.914
40.84000 243.444
40.88000 243.748
40.92000 243.650
40.96000 255.689
41.00000 245.920
41.04000 241.991
41.08000 244.672
41.12000 249.582
41.16000 237.281
41.20000 255.687
41.24000 242.157
41.28000 242.729
41.32000 248.011
41.36000 247.331
41.40000 237.588
41.44000 242.176
41.48000 239.880
41.52000 245.355
41.56000 242.795
41.60000 240.563
41.64000 243.900
41.68000 227.043
41.72000 231.349
41.76000 244.906
41.80000 247.614
41.84000 234.434
41.88000 244.027
41.92000 243.971
41.96000 236.551
42.00000 228.271
42.04000 244.027
42.08000 244.168
42.12000 233.655
42.16000 241.403
42.20000 242.034
42.24000 241.793
42.28000 223.576
42.32000 234.033
42.36000 235.265
42.40000 215.975
42.44000 239.641
42.48000 233.258
42.52000 236.258
42.56000 230.300
42.60000 241.443
42.64000 234.329
42.68000 242.868
42.72000 229.182
42.76000 229.165
42.80000 229.751
42.84000 226.450
42.88000 223.798
42.92000 244.731
42.96000 217.559
43.00000 218.781
43.04000 237.772
43.08000 234.050
43.12000 226.254
43.16000 219.197
43.20000 217.168
43.24000 239.534
43.28000 237.417
43.32000 220.521
43.36000 218.290
43.40000 224.631
43.44000 225.972
43.48000 230.271
43.52000 217.135
43.56000 222.950
43.60000 217.730
43.64000 214.015
43.68000 221.347
43.72000 240.544
43.76000 225.266
43.80000 218.608
43.84000 233.623
43.88000 221.329
43.92000 229.032
43.96000 221.311
44.00000 203.929
44.04000 225.588
44.08000 223.066
44.12000 219.297
44.16000 214.855
44.20000 225.845
44.24000 227.873
44.28000 210.813
44.32000 211.905
44.36000 236.712
44.40000 226.173
44.44000 234.713
44.48000 221.172
44.52000 225.698
44.56000 213.418
44.60000 213.548
44.64000 214.543
44.68000 214.749
44.72000 230.515
44.76000 224.740
44.80000 244.262
44.84000 256.996
44.88000 267.306
44.92000 265.614
44.96000 268.558
45.00000 295.916
45.04000 293.992
45.08000 305.615
45.12000 308.402
45.16000 319.894
45.20000 318.913
45.24000 305.415
45.28000 304.294
45.32000 281.259
45.36000 270.241
45.40000 278.771
45.44000 265.121
45.48000 252.277
45.52000 249.063
45.56000 259.163
45.60000 242.640
45.64000 244.880
45.68000 233.729
45.72000 245.412
45.76000 237.308
45.80000 213.693
45.84000 236.120
45.88000 220.565
45.92000 233.703
45.96000 212.355
46.00000 209.881
46.04000 218.526
46.08000 231.140
46.12000 216.635
46.16000 218.870
46.20000 203.255
46.24000 209.834
46.28000 206.541
46.32000 215.399
46.36000 192.569
46.40000 201.271
46.44000 221.846
46.48000 198.009
46.52000 205.694
46.56000 195.524
46.60000 203.482
46.64000 204.901
46.68000 192.740
46.72000 201.683
46.76000 193.933
46.80000 204.847
46.84000 194.880
46.88000 201.627
46.92000 185.668
46.96000 197.834
47.00000 194.849
47.04000 199.771
47.08000 200.659
47.12000 200.512
47.16000 193.279
47.20000 195.565
47.24000 193.592
47.28000 193.609
47.32000 194.076
47.36000 197.330
47.40000 183.956
47.44000 187.249
47.48000 190.187
47.52000 197.972
47.56000 183.074
47.60000 190.193
47.64000 186.314
47.68000 197.904
47.72000 189.238
47.76000 169.962
47.80000 201.165
47.84000 189.829
47.88000 191.242
47.92000 187.828
47.96000 185.580
48.00000 190.648
48.04000 184.693
48.08000 169.580
48.12000 179.507
48.16000 188.816
48.20000 186.391
48.24000 182.980
48.28000 166.839
48.32000 186.424
48.36000 184.407
48.40000 169.007
48.44000 185.013
48.48000 178.252
48.52000 175.148
48.56000 182.846
48.60000 179.323
48.64000 176.545
48.68000 177.013
48.72000 176.814
48.76000 185.773
48.80000 179.269
48.84000 172.813
48.88000 174.369
48.92000 177.265
48.96000 176.473
49.00000 174.008
49.04000 183.792
49.08000 185.562
49.12000 186.807
49.16000 173.609
49.20000 177.793
49.24000 181.752
49.28000 182.702
49.32000 176.298
49.36000 176.998
49.40000 186.770
49.44000 171.124
49.48000 176.666
49.52000 184.286
49.56000 170.222
49.60000 169.866
49.64000 181.091
49.68000 179.768
49.72000 183.597
49.76000 174.515
49.80000 178.841
49.84000 183.737
49.88000 178.936
49.92000 186.130
49.96000 182.889
50.00000 185.854
50.04000 177.320
50.08000 179.841
50.12000 176.018
50.16000 167.864
50.20000 171.028
50.24000 175.355
50.28000 186.236
50.32000 182.922
50.36000 173.946
50.40000 179.368
50.44000 197.653
50.48000 201.672
50.52000 200.709
50.56000 210.561
50.60000 212.086
50.64000 215.396
50.68000 235.005
50.72000 227.854
50.76000 223.075
50.80000 228.428
50.84000 208.408
50.88000 218.935
50.92000 221.567
50.96000 196.724
51.00000 199.528
51.04000 187.958
51.08000 191.444
51.12000 176.199
51.16000 176.251
51.20000 176.614
51.24000 176.408
51.28000 171.046
51.32000 180.977
51.36000 172.026
51.40000 179.739
51.44000 163.904
51.48000 159.603
51.52000 166.279
51.56000 173.762
51.60000 174.262
51.64000 168.324
51.68000 160.245
51.72000 163.642
51.76000 159.129
51.80000 159.486
51.84000 172.025
51.88000 158.250
51.92000 162.147
51.96000 173.817
52.00000 169.153
52.04000 169.249
52.08000 164.331
52.12000 157.697
52.16000 158.969
52.20000 164.793
52.24000 155.139
52.28000 161.331
52.32000 160.703
52.36000 157.444
52.40000 168.066
52.44000 158.593
52.48000 154.619
52.52000 164.785
52.56000 164.275
52.60000 158.383
52.64000 156.797
52.68000 159.291
52.72000 168.648
52.76000 149.005
52.80000 163.122
52.84000 163.474
52.88000 163.826
52.92000 153.710
52.96000 160.541
53.00000 148.292
53.04000 160.965
53.08000 158.414
53.12000 166.619
53.16000 157.924
53.20000 166.560
53.24000 162.977
53.28000 159.638
53.32000 163.257
53.36000 163.441
53.40000 165.515
53.44000 155.565
53.48000 156.557
53.52000 166.269
53.56000 158.654
53.60000 161.415
53.64000 168.670
53.68000 161.965
53.72000 158.675
53.76000 154.651
53.80000 150.727
53.84000 145.517
53.88000 150.055
53.92000 153.890
53.96000 159.478
54.00000 161.578
54.04000 160.250
54.08000 152.907
54.12000 152.323
54.16000 159.469
54.20000 158.197
54.24000 164.394
54.28000 167.341
54.32000 158.557
54.36000 156.242
54.40000 149.046
54.44000 144.165
54.48000 155.187
54.52000 158.402
54.56000 158.786
54.60000 166.492
54.64000 157.898
54.68000 151.477
54.72000 161.050
54.76000 160.725
54.80000 155.136
54.84000 162.596
54.88000 161.569
54.92000 164.034
54.96000 159.230
55.00000 148.821
55.04000 163.374
55.08000 174.183
55.12000 172.232
55.16000 174.552
55.20000 171.962
55.24000 171.356
55.28000 182.957
55.32000 171.322
55.36000 177.084
55.40000 180.375
55.44000 210.969
55.48000 204.349
55.52000 216.584
55.56000 239.825
55.60000 266.948
55.64000 303.442
55.68000 366.549
55.72000 441.293
55.76000 525.995
55.80000 611.202
55.84000 727.663
55.88000 793.766
55.92000 872.133
55.96000 887.600
56.00000 903.683
56.04000 836.074
56.08000 783.583
56.12000 683.188
56.16000 594.255
56.20000 523.037
56.24000 452.149
56.28000 395.374
56.32000 328.862
56.36000 273.509
56.40000 257.189
56.44000 232.621
56.48000 199.088
56.52000 193.595
56.56000 186.675
56.60000 179.602
56.64000 173.329
56.68000 175.675
56.72000 176.699
56.76000 167.694
56.80000 163.685
56.84000 162.222
56.88000 154.105
56.92000 152.981
56.96000 166.624
57.00000 145.456
57.04000 148.825
57.08000 154.159
57.12000 147.624
57.16000 150.165
57.20000 149.687
57.24000 139.760
57.28000 156.297
57.32000 139.844
57.36000 142.951
57.40000 142.964
57.44000 150.697
57.48000 145.538
57.52000 148.792
57.56000 148.798
57.60000 142.499
57.64000 143.394
57.68000 140.250
57.72000 138.312
57.76000 142.376
57.80000 145.082
57.84000 141.491
57.88000 150.561
57.92000 141.654
57.96000 147.501
58.00000 137.275
58.04000 151.333
58.08000 139.513
58.12000 144.168
58.16000 147.164
58.20000 148.498
58.24000 142.239
58.28000 147.554
58.32000 130.828
58.36000 141.021
58.40000 125.099
58.44000 130.729
58.48000 136.213
58.52000 131.660
58.56000 140.873
58.60000 146.866
58.64000 134.688
58.68000 136.242
58.72000 141.372
58.76000 137.626
58.80000 130.079
58.84000 141.118
58.88000 141.847
58.92000 124.676
58.96000 135.640
59.00000 132.303
59.04000 125.467
59.08000 136.610
59.12000 127.749
59.16000 141.681
59.20000 137.736
59.24000 133.865
59.28000 138.090
59.32000 146.880
59.36000 143.449
59.40000 136.690
59.44000 126.876
59.48000 138.307
59.52000 136.125
59.56000 133.358
59.60000 138.938
59.64000 138.987
59.68000 137.197
59.72000 134.534
59.76000 136.230
59.80000 137.910
59.84000 124.270
59.88000 134.394
59.92000 125.435
59.96000 129.219
60.00000 133.631
60.04000 135.941
60.08000 127.701
60.12000 122.201
60.16000 128.260
60.20000 131.694
60.24000 132.190
60.28000 131.099
60.32000 133.359
60.36000 130.077
60.40000 128.490
60.44000 135.340
60.48000 141.987
60.52000 137.086
60.56000 132.636
60.60000 128.344
60.64000 126.200
60.68000 123.269
60.72000 135.546
60.76000 132.726
60.80000 132.259
60.84000 132.518
60.88000 130.090
60.92000 134.796
60.96000 132.729
61.00000 129.002
61.04000 127.983
61.08000 129.655
61.12000 146.635
61.16000 140.103
61.20000 138.167
61.24000 139.584
61.28000 131.590
61.32000 138.101
61.36000 141.397
61.40000 137.297
61.44000 140.787
61.48000 140.874
61.52000 157.105
61.56000 193.091
61.60000 231.154
61.64000 249.779
61.68000 267.422
61.72000 288.474
61.76000 252.186
61.80000 214.173
61.84000 177.644
61.88000 157.572
61.92000 150.103
61.96000 139.505
62.00000 143.478
62.04000 128.562
62.08000 134.739
62.12000 133.145
62.16000 142.399
62.20000 145.513
62.24000 144.913
62.28000 135.169
62.32000 140.324
62.36000 139.383
62.40000 137.517
62.44000 132.260
62.48000 151.671
62.52000 149.253
62.56000 142.642
62.60000 138.068
62.64000 150.519
62.68000 149.397
62.72000 134.492
62.76000 135.582
62.80000 138.018
62.84000 143.744
62.88000 144.519
62.92000 139.732
62.96000 138.705
63.00000 141.669
63.04000 148.705
63.08000 151.640
63.12000 141.484
63.16000 140.348
63.20000 146.384
63.24000 152.799
63.28000 155.990
63.32000 152.711
63.36000 146.091
63.40000 145.475
63.44000 146.999
63.48000 146.187
63.52000 154.884
63.56000 140.275
63.60000 149.434
63.64000 146.421
63.68000 146.200
63.72000 152.522
63.76000 145.308
63.80000 143.364
63.84000 155.270
63.88000 147.108
63.92000 144.735
63.96000 154.552
64.00000 154.476
64.04000 147.629
64.08000 148.323
64.12000 156.855
64.16000 151.287
64.20000 157.196
64.24000 151.761
64.28000 149.775
64.32000 161.201
64.36000 167.185
64.40000 156.747
64.44000 157.001
64.48000 157.728
64.52000 169.733
64.56000 163.232
64.60000 158.321
64.64000 172.352
64.68000 167.532
64.72000 172.579
64.76000 180.805
64.80000 174.027
64.84000 175.141
64.88000 171.157
64.92000 182.516
64.96000 190.627
65.00000 198.813
65.04000 190.005
65.08000 199.074
65.12000 200.475
65.16000 208.918
65.20000 225.505
65.24000 238.632
65.28000 243.390
65.32000 254.681
65.36000 266.401
65.40000 298.924
65.44000 303.207
65.48000 326.948
65.52000 328.050
65.56000 358.942
65.60000 390.216
65.64000 398.674
65.68000 473.561
65.72000 598.023
65.76000 782.410
65.80000 988.202
65.84000 1076.690
65.88000 1068.902
65.92000 1061.388
65.96000 899.122
66.00000 645.824
66.04000 460.221
66.08000 361.602
66.12000 338.747
66.16000 303.678
66.20000 291.298
66.24000 329.815
66.28000 354.234
66.32000 407.500
66.36000 438.724
66.40000 437.307
66.44000 422.826
66.48000 421.115
66.52000 404.364
66.56000 346.981
66.60000 314.411
66.64000 307.067
66.68000 328.906
66.72000 303.139
66.76000 292.616
66.80000 313.693
66.84000 307.572
66.88000 315.859
66.92000 321.884
66.96000 327.306
67.00000 324.558
67.04000 328.451
67.08000 348.606
67.12000 341.675
67.16000 350.034
67.20000 353.824
67.24000 375.931
67.28000 353.662
67.32000 370.390
67.36000 383.368
67.40000 377.416
67.44000 385.115
67.48000 419.311
67.52000 409.911
67.56000 417.987
67.60000 414.224
67.64000 415.158
67.68000 436.479
67.72000 436.477
67.76000 422.957
67.80000 447.930
67.84000 471.394
67.88000 459.805
67.92000 493.280
67.96000 478.747
68.00000 502.019
68.04000 507.748
68.08000 514.774
68.12000 530.748
68.16000 543.325
68.20000 565.459
68.24000 574.575
68.28000 602.878
68.32000 609.219
68.36000 623.320
68.40000 643.978
68.44000 674.562
68.48000 709.040
68.52000 728.055
68.56000 803.541
68.60000 908.900
68.64000 1023.829
68.68000 1239.958
68.72000 1418.400
68.76000 1676.465
68.80000 1877.289
68.84000 2112.506
68.88000 2821.949
68.92000 4387.394
68.96000 12128.021
69.00000 27176.674
69.04000 43106.180
69.08000 50754.828
69.12000 52710.453
69.16000 54830.496
69.20000 54948.484
69.24000 46012.723
69.28000 34531.332
69.32000 28513.939
69.36000 25712.357
69.40000 21250.246
69.44000 13422.603
69.48000 5967.324
69.52000 2762.928
69.56000 1746.966
69.60000 1384.245
69.64000 1176.688
69.68000 1026.994
69.72000 937.078
69.76000 837.080
69.80000 808.220
69.84000 762.892
69.88000 718.803
69.92000 668.337
69.96000 666.378
70.00000 640.884