File: XRD/XRD/24-09-2025 Dep 3/XY Data/BTO_Mapping_Theta2Theta_24-09-2025_001_17_12-361_38-042.xy
20.00000 554.333
20.04000 573.227
20.08000 560.904
20.12000 536.703
20.16000 558.601
20.20000 537.828
20.24000 548.980
20.28000 529.336
20.32000 548.144
20.36000 554.936
20.40000 555.843
20.44000 565.857
20.48000 547.432
20.52000 536.128
20.56000 568.648
20.60000 532.650
20.64000 564.553
20.68000 541.119
20.72000 547.653
20.76000 552.436
20.80000 562.596
20.84000 561.418
20.88000 549.652
20.92000 545.063
20.96000 546.951
21.00000 535.757
21.04000 559.158
21.08000 543.416
21.12000 535.487
21.16000 543.212
21.20000 559.184
21.24000 524.207
21.28000 536.862
21.32000 548.229
21.36000 543.798
21.40000 527.579
21.44000 535.183
21.48000 529.362
21.52000 542.534
21.56000 533.558
21.60000 523.528
21.64000 558.734
21.68000 546.584
21.72000 531.219
21.76000 560.676
21.80000 567.319
21.84000 529.423
21.88000 571.783
21.92000 573.632
21.96000 586.404
22.00000 611.053
22.04000 599.718
22.08000 609.408
22.12000 609.881
22.16000 641.347
22.20000 592.592
22.24000 602.024
22.28000 603.852
22.32000 554.694
22.36000 560.277
22.40000 564.975
22.44000 536.114
22.48000 556.371
22.52000 517.177
22.56000 529.193
22.60000 533.733
22.64000 518.200
22.68000 535.234
22.72000 512.784
22.76000 558.124
22.80000 505.360
22.84000 522.352
22.88000 520.401
22.92000 514.055
22.96000 537.651
23.00000 510.487
23.04000 512.155
23.08000 483.524
23.12000 512.486
23.16000 515.540
23.20000 511.231
23.24000 505.878
23.28000 502.026
23.32000 475.437
23.36000 495.614
23.40000 504.851
23.44000 502.271
23.48000 495.851
23.52000 508.855
23.56000 492.973
23.60000 494.357
23.64000 508.898
23.68000 491.211
23.72000 497.179
23.76000 500.816
23.80000 488.103
23.84000 517.482
23.88000 491.031
23.92000 506.960
23.96000 491.658
24.00000 495.092
24.04000 479.729
24.08000 492.086
24.12000 477.848
24.16000 491.058
24.20000 500.518
24.24000 499.070
24.28000 482.526
24.32000 479.038
24.36000 498.662
24.40000 472.321
24.44000 479.885
24.48000 484.656
24.52000 471.474
24.56000 481.379
24.60000 475.223
24.64000 472.761
24.68000 482.700
24.72000 477.356
24.76000 470.624
24.80000 490.544
24.84000 486.394
24.88000 474.298
24.92000 472.948
24.96000 446.713
25.00000 460.033
25.04000 450.738
25.08000 468.896
25.12000 460.175
25.16000 471.686
25.20000 456.462
25.24000 453.871
25.28000 458.548
25.32000 459.883
25.36000 460.860
25.40000 469.481
25.44000 477.173
25.48000 455.982
25.52000 457.856
25.56000 464.843
25.60000 463.401
25.64000 452.829
25.68000 455.424
25.72000 472.494
25.76000 454.627
25.80000 464.494
25.84000 450.521
25.88000 448.223
25.92000 455.114
25.96000 463.290
26.00000 469.295
26.04000 451.015
26.08000 453.994
26.12000 459.256
26.16000 475.295
26.20000 471.467
26.24000 451.252
26.28000 480.510
26.32000 464.171
26.36000 454.396
26.40000 463.500
26.44000 443.916
26.48000 429.596
26.52000 452.611
26.56000 455.253
26.60000 446.564
26.64000 419.236
26.68000 445.970
26.72000 460.288
26.76000 458.076
26.80000 424.132
26.84000 431.406
26.88000 433.530
26.92000 440.248
26.96000 444.929
27.00000 441.028
27.04000 449.279
27.08000 435.152
27.12000 458.434
27.16000 436.007
27.20000 439.010
27.24000 422.161
27.28000 441.760
27.32000 409.697
27.36000 442.524
27.40000 430.665
27.44000 437.764
27.48000 426.227
27.52000 441.467
27.56000 425.924
27.60000 424.249
27.64000 417.600
27.68000 430.840
27.72000 425.045
27.76000 451.539
27.80000 420.769
27.84000 425.705
27.88000 430.239
27.92000 431.580
27.96000 443.841
28.00000 432.360
28.04000 428.313
28.08000 432.483
28.12000 418.222
28.16000 421.088
28.20000 425.425
28.24000 418.105
28.28000 414.799
28.32000 421.491
28.36000 407.273
28.40000 425.277
28.44000 419.528
28.48000 423.304
28.52000 434.412
28.56000 417.075
28.60000 423.837
28.64000 411.799
28.68000 402.385
28.72000 405.590
28.76000 401.032
28.80000 413.584
28.84000 403.551
28.88000 414.798
28.92000 402.057
28.96000 407.658
29.00000 399.089
29.04000 410.729
29.08000 424.817
29.12000 410.602
29.16000 406.179
29.20000 419.981
29.24000 423.959
29.28000 408.888
29.32000 412.274
29.36000 416.249
29.40000 391.785
29.44000 411.408
29.48000 398.266
29.52000 391.325
29.56000 411.815
29.60000 395.981
29.64000 411.210
29.68000 402.411
29.72000 391.349
29.76000 402.052
29.80000 432.534
29.84000 397.634
29.88000 401.876
29.92000 407.760
29.96000 408.317
30.00000 415.461
30.04000 415.819
30.08000 420.044
30.12000 410.201
30.16000 427.049
30.20000 414.678
30.24000 408.705
30.28000 414.585
30.32000 401.556
30.36000 411.941
30.40000 420.985
30.44000 407.048
30.48000 412.854
30.52000 391.379
30.56000 416.176
30.60000 404.929
30.64000 397.241
30.68000 385.553
30.72000 389.722
30.76000 406.288
30.80000 420.133
30.84000 417.122
30.88000 423.264
30.92000 450.717
30.96000 469.700
31.00000 465.820
31.04000 502.777
31.08000 513.008
31.12000 578.061
31.16000 674.610
31.20000 798.345
31.24000 906.512
31.28000 1101.759
31.32000 1252.472
31.36000 1463.922
31.40000 1556.899
31.44000 1562.684
31.48000 1499.158
31.52000 1364.585
31.56000 1149.276
31.60000 1041.162
31.64000 866.097
31.68000 756.486
31.72000 661.786
31.76000 545.849
31.80000 514.671
31.84000 479.676
31.88000 447.183
31.92000 445.774
31.96000 441.036
32.00000 423.662
32.04000 413.970
32.08000 402.168
32.12000 399.733
32.16000 396.700
32.20000 403.858
32.24000 402.492
32.28000 403.478
32.32000 398.462
32.36000 388.674
32.40000 379.232
32.44000 371.117
32.48000 404.823
32.52000 382.346
32.56000 380.921
32.60000 377.300
32.64000 375.158
32.68000 393.303
32.72000 389.386
32.76000 366.565
32.80000 364.772
32.84000 396.094
32.88000 427.112
32.92000 460.823
32.96000 449.693
33.00000 453.669
33.04000 430.768
33.08000 402.665
33.12000 361.677
33.16000 359.953
33.20000 361.415
33.24000 349.804
33.28000 347.956
33.32000 315.796
33.36000 341.964
33.40000 338.030
33.44000 339.977
33.48000 341.449
33.52000 349.355
33.56000 330.425
33.60000 337.533
33.64000 333.941
33.68000 332.183
33.72000 339.328
33.76000 332.544
33.80000 344.820
33.84000 332.149
33.88000 335.407
33.92000 330.466
33.96000 336.793
34.00000 326.052
34.04000 356.219
34.08000 337.973
34.12000 327.523
34.16000 327.945
34.20000 330.584
34.24000 341.950
34.28000 310.984
34.32000 325.191
34.36000 315.064
34.40000 315.337
34.44000 331.147
34.48000 322.145
34.52000 312.323
34.56000 322.862
34.60000 320.470
34.64000 324.793
34.68000 307.939
34.72000 322.548
34.76000 309.737
34.80000 321.039
34.84000 320.314
34.88000 318.439
34.92000 317.056
34.96000 310.696
35.00000 314.322
35.04000 304.364
35.08000 312.716
35.12000 322.603
35.16000 307.544
35.20000 293.718
35.24000 289.107
35.28000 295.625
35.32000 319.817
35.36000 306.449
35.40000 311.926
35.44000 318.178
35.48000 301.429
35.52000 311.887
35.56000 315.001
35.60000 299.920
35.64000 306.780
35.68000 296.953
35.72000 308.226
35.76000 291.023
35.80000 305.719
35.84000 300.217
35.88000 291.383
35.92000 301.407
35.96000 289.772
36.00000 302.359
36.04000 300.661
36.08000 301.636
36.12000 311.503
36.16000 302.431
36.20000 295.020
36.24000 309.675
36.28000 304.387
36.32000 321.212
36.36000 287.133
36.40000 305.437
36.44000 297.962
36.48000 288.230
36.52000 293.244
36.56000 286.984
36.60000 286.658
36.64000 285.023
36.68000 308.557
36.72000 306.407
36.76000 300.047
36.80000 296.583
36.84000 290.809
36.88000 290.387
36.92000 303.550
36.96000 293.251
37.00000 295.097
37.04000 312.540
37.08000 316.166
37.12000 292.684
37.16000 306.319
37.20000 297.815
37.24000 285.530
37.28000 276.044
37.32000 300.473
37.36000 290.606
37.40000 291.991
37.44000 287.982
37.48000 297.279
37.52000 283.950
37.56000 296.921
37.60000 305.805
37.64000 308.354
37.68000 287.032
37.72000 287.126
37.76000 280.061
37.80000 290.160
37.84000 295.362
37.88000 304.494
37.92000 295.261
37.96000 304.602
38.00000 291.549
38.04000 294.307
38.08000 291.321
38.12000 290.738
38.16000 295.613
38.20000 299.466
38.24000 300.022
38.28000 315.141
38.32000 312.208
38.36000 326.501
38.40000 348.735
38.44000 381.073
38.48000 420.986
38.52000 519.817
38.56000 644.061
38.60000 819.624
38.64000 1023.354
38.68000 1270.422
38.72000 1404.051
38.76000 1493.522
38.80000 1488.453
38.84000 1366.024
38.88000 1194.972
38.92000 978.215
38.96000 771.129
39.00000 612.260
39.04000 478.986
39.08000 395.235
39.12000 349.231
39.16000 316.653
39.20000 299.756
39.24000 301.270
39.28000 296.602
39.32000 285.293
39.36000 273.692
39.40000 280.668
39.44000 261.787
39.48000 273.550
39.52000 268.936
39.56000 268.611
39.60000 282.076
39.64000 268.311
39.68000 267.546
39.72000 267.640
39.76000 260.247
39.80000 269.105
39.84000 269.027
39.88000 263.301
39.92000 268.508
39.96000 258.288
40.00000 252.726
40.04000 258.368
40.08000 260.539
40.12000 252.721
40.16000 250.942
40.20000 240.469
40.24000 263.111
40.28000 248.851
40.32000 256.316
40.36000 244.869
40.40000 261.093
40.44000 247.591
40.48000 246.367
40.52000 248.594
40.56000 256.752
40.60000 252.629
40.64000 251.311
40.68000 255.166
40.72000 250.705
40.76000 253.334
40.80000 245.708
40.84000 237.698
40.88000 228.445
40.92000 233.013
40.96000 255.488
41.00000 239.243
41.04000 252.552
41.08000 251.912
41.12000 239.901
41.16000 245.721
41.20000 231.656
41.24000 230.372
41.28000 238.507
41.32000 241.488
41.36000 246.736
41.40000 246.389
41.44000 235.575
41.48000 230.925
41.52000 242.909
41.56000 239.476
41.60000 239.313
41.64000 238.348
41.68000 250.022
41.72000 238.582
41.76000 242.130
41.80000 231.978
41.84000 235.826
41.88000 220.556
41.92000 240.931
41.96000 233.279
42.00000 241.604
42.04000 231.502
42.08000 226.756
42.12000 245.039
42.16000 235.202
42.20000 231.871
42.24000 233.670
42.28000 240.245
42.32000 240.778
42.36000 235.677
42.40000 215.528
42.44000 232.099
42.48000 222.255
42.52000 234.872
42.56000 222.681
42.60000 230.026
42.64000 231.630
42.68000 224.205
42.72000 209.770
42.76000 234.236
42.80000 220.283
42.84000 221.734
42.88000 227.012
42.92000 226.869
42.96000 218.221
43.00000 227.037
43.04000 212.923
43.08000 219.412
43.12000 226.448
43.16000 236.986
43.20000 229.584
43.24000 213.340
43.28000 230.425
43.32000 208.804
43.36000 226.676
43.40000 235.093
43.44000 221.308
43.48000 226.293
43.52000 235.430
43.56000 210.300
43.60000 221.643
43.64000 222.768
43.68000 216.173
43.72000 228.264
43.76000 217.949
43.80000 208.086
43.84000 217.671
43.88000 225.919
43.92000 233.328
43.96000 220.609
44.00000 218.386
44.04000 225.999
44.08000 219.034
44.12000 224.349
44.16000 209.660
44.20000 223.532
44.24000 230.357
44.28000 214.643
44.32000 224.182
44.36000 218.833
44.40000 206.974
44.44000 223.446
44.48000 216.661
44.52000 218.689
44.56000 226.524
44.60000 223.285
44.64000 224.926
44.68000 227.260
44.72000 219.445
44.76000 229.468
44.80000 230.525
44.84000 233.424
44.88000 241.863
44.92000 243.157
44.96000 249.945
45.00000 259.095
45.04000 265.449
45.08000 270.699
45.12000 277.194
45.16000 282.306
45.20000 273.593
45.24000 257.647
45.28000 270.627
45.32000 255.423
45.36000 255.461
45.40000 276.625
45.44000 245.653
45.48000 235.357
45.52000 234.965
45.56000 242.414
45.60000 236.374
45.64000 224.262
45.68000 241.171
45.72000 238.049
45.76000 230.756
45.80000 233.132
45.84000 229.815
45.88000 235.375
45.92000 217.872
45.96000 221.963
46.00000 221.458
46.04000 207.146
46.08000 198.838
46.12000 215.367
46.16000 191.786
46.20000 213.176
46.24000 216.110
46.28000 201.458
46.32000 209.438
46.36000 205.908
46.40000 199.114
46.44000 201.835
46.48000 196.472
46.52000 209.636
46.56000 190.619
46.60000 194.405
46.64000 194.554
46.68000 199.604
46.72000 206.352
46.76000 198.682
46.80000 188.751
46.84000 201.643
46.88000 201.278
46.92000 191.360
46.96000 190.685
47.00000 195.024
47.04000 192.353
47.08000 186.686
47.12000 189.854
47.16000 203.883
47.20000 185.352
47.24000 200.254
47.28000 203.215
47.32000 190.761
47.36000 194.396
47.40000 188.842
47.44000 182.047
47.48000 185.018
47.52000 200.796
47.56000 193.794
47.60000 181.094
47.64000 190.370
47.68000 189.710
47.72000 191.260
47.76000 188.447
47.80000 191.049
47.84000 181.461
47.88000 191.507
47.92000 186.933
47.96000 199.910
48.00000 182.910
48.04000 188.100
48.08000 182.046
48.12000 193.996
48.16000 194.196
48.20000 193.704
48.24000 179.892
48.28000 178.134
48.32000 180.759
48.36000 180.517
48.40000 189.325
48.44000 193.018
48.48000 163.499
48.52000 184.574
48.56000 186.961
48.60000 168.384
48.64000 176.624
48.68000 168.695
48.72000 182.555
48.76000 189.690
48.80000 189.937
48.84000 177.176
48.88000 179.979
48.92000 170.876
48.96000 174.293
49.00000 172.955
49.04000 179.054
49.08000 192.544
49.12000 173.457
49.16000 180.028
49.20000 164.294
49.24000 178.967
49.28000 176.511
49.32000 173.659
49.36000 177.442
49.40000 177.568
49.44000 156.896
49.48000 175.304
49.52000 174.494
49.56000 179.229
49.60000 170.362
49.64000 174.001
49.68000 172.296
49.72000 167.871
49.76000 172.163
49.80000 181.321
49.84000 180.703
49.88000 178.336
49.92000 179.996
49.96000 175.840
50.00000 178.315
50.04000 170.393
50.08000 178.605
50.12000 172.955
50.16000 184.555
50.20000 184.330
50.24000 188.438
50.28000 170.191
50.32000 173.061
50.36000 172.680
50.40000 171.633
50.44000 179.307
50.48000 178.994
50.52000 184.502
50.56000 191.819
50.60000 171.717
50.64000 195.096
50.68000 180.018
50.72000 179.494
50.76000 188.600
50.80000 196.331
50.84000 189.629
50.88000 187.666
50.92000 198.499
50.96000 187.969
51.00000 180.586
51.04000 185.774
51.08000 185.639
51.12000 167.338
51.16000 177.181
51.20000 175.328
51.24000 171.864
51.28000 177.977
51.32000 167.663
51.36000 173.718
51.40000 163.520
51.44000 166.425
51.48000 162.081
51.52000 162.189
51.56000 166.320
51.60000 169.976
51.64000 165.474
51.68000 163.162
51.72000 167.451
51.76000 155.543
51.80000 138.921
51.84000 168.483
51.88000 149.382
51.92000 164.333
51.96000 167.635
52.00000 163.464
52.04000 156.470
52.08000 164.600
52.12000 153.754
52.16000 151.121
52.20000 154.484
52.24000 154.678
52.28000 165.413
52.32000 166.492
52.36000 155.965
52.40000 164.493
52.44000 153.299
52.48000 173.124
52.52000 160.354
52.56000 168.917
52.60000 159.980
52.64000 161.954
52.68000 164.646
52.72000 157.454
52.76000 170.739
52.80000 172.199
52.84000 157.454
52.88000 153.266
52.92000 169.299
52.96000 152.952
53.00000 156.060
53.04000 161.430
53.08000 156.993
53.12000 156.980
53.16000 154.170
53.20000 163.171
53.24000 158.506
53.28000 159.538
53.32000 170.149
53.36000 161.158
53.40000 165.626
53.44000 170.725
53.48000 165.558
53.52000 168.079
53.56000 157.721
53.60000 159.024
53.64000 152.671
53.68000 158.109
53.72000 158.190
53.76000 155.037
53.80000 165.404
53.84000 163.631
53.88000 154.545
53.92000 138.229
53.96000 160.381
54.00000 164.728
54.04000 153.190
54.08000 149.039
54.12000 150.077
54.16000 149.436
54.20000 156.139
54.24000 156.015
54.28000 158.923
54.32000 161.524
54.36000 139.748
54.40000 148.945
54.44000 154.779
54.48000 134.774
54.52000 158.040
54.56000 151.139
54.60000 163.737
54.64000 154.603
54.68000 156.462
54.72000 148.566
54.76000 152.377
54.80000 149.451
54.84000 164.258
54.88000 163.501
54.92000 156.617
54.96000 154.755
55.00000 156.518
55.04000 164.026
55.08000 152.982
55.12000 160.206
55.16000 155.604
55.20000 152.663
55.24000 174.600
55.28000 169.119
55.32000 171.033
55.36000 173.410
55.40000 175.790
55.44000 176.596
55.48000 180.433
55.52000 186.979
55.56000 207.966
55.60000 225.123
55.64000 250.939
55.68000 281.020
55.72000 348.185
55.76000 402.435
55.80000 485.340
55.84000 574.055
55.88000 650.859
55.92000 727.770
55.96000 810.997
56.00000 829.270
56.04000 835.382
56.08000 802.174
56.12000 766.583
56.16000 658.483
56.20000 603.887
56.24000 523.150
56.28000 438.923
56.32000 371.897
56.36000 318.345
56.40000 284.547
56.44000 243.354
56.48000 213.959
56.52000 191.884
56.56000 186.330
56.60000 182.271
56.64000 173.007
56.68000 157.542
56.72000 167.503
56.76000 167.372
56.80000 178.442
56.84000 161.647
56.88000 150.649
56.92000 149.841
56.96000 143.020
57.00000 153.532
57.04000 144.323
57.08000 145.760
57.12000 150.929
57.16000 158.261
57.20000 147.133
57.24000 149.074
57.28000 151.383
57.32000 157.876
57.36000 144.571
57.40000 143.806
57.44000 143.298
57.48000 138.846
57.52000 151.880
57.56000 149.405
57.60000 152.949
57.64000 149.004
57.68000 144.216
57.72000 148.317
57.76000 141.148
57.80000 146.675
57.84000 146.522
57.88000 144.240
57.92000 144.344
57.96000 155.319
58.00000 148.368
58.04000 148.090
58.08000 143.379
58.12000 143.151
58.16000 144.229
58.20000 145.163
58.24000 131.053
58.28000 127.817
58.32000 136.013
58.36000 141.035
58.40000 126.871
58.44000 134.927
58.48000 141.825
58.52000 135.745
58.56000 136.901
58.60000 136.717
58.64000 138.597
58.68000 135.928
58.72000 129.184
58.76000 132.662
58.80000 138.020
58.84000 135.249
58.88000 136.119
58.92000 146.887
58.96000 131.137
59.00000 133.694
59.04000 128.815
59.08000 134.547
59.12000 129.199
59.16000 128.166
59.20000 122.733
59.24000 137.230
59.28000 133.460
59.32000 133.011
59.36000 139.823
59.40000 129.575
59.44000 134.395
59.48000 131.513
59.52000 132.177
59.56000 134.160
59.60000 144.218
59.64000 134.370
59.68000 124.745
59.72000 123.622
59.76000 133.725
59.80000 127.939
59.84000 129.831
59.88000 134.227
59.92000 138.107
59.96000 129.380
60.00000 135.153
60.04000 120.626
60.08000 129.867
60.12000 129.404
60.16000 136.335
60.20000 136.290
60.24000 123.813
60.28000 142.188
60.32000 134.640
60.36000 139.437
60.40000 129.513
60.44000 135.684
60.48000 131.969
60.52000 126.996
60.56000 139.330
60.60000 128.883
60.64000 130.850
60.68000 134.454
60.72000 130.791
60.76000 131.883
60.80000 137.183
60.84000 133.908
60.88000 136.807
60.92000 132.904
60.96000 132.293
61.00000 133.444
61.04000 135.998
61.08000 128.392
61.12000 132.696
61.16000 133.211
61.20000 131.752
61.24000 133.887
61.28000 136.342
61.32000 135.184
61.36000 129.678
61.40000 121.943
61.44000 144.473
61.48000 142.319
61.52000 146.865
61.56000 175.532
61.60000 217.363
61.64000 243.289
61.68000 261.723
61.72000 255.099
61.76000 260.601
61.80000 208.373
61.84000 192.843
61.88000 170.493
61.92000 140.793
61.96000 145.515
62.00000 140.909
62.04000 140.857
62.08000 135.630
62.12000 136.632
62.16000 138.485
62.20000 133.291
62.24000 147.894
62.28000 146.992
62.32000 129.245
62.36000 137.417
62.40000 141.466
62.44000 138.636
62.48000 141.027
62.52000 140.584
62.56000 138.265
62.60000 148.593
62.64000 139.943
62.68000 147.742
62.72000 143.770
62.76000 143.734
62.80000 145.360
62.84000 149.728
62.88000 136.845
62.92000 149.087
62.96000 142.100
63.00000 146.229
63.04000 139.007
63.08000 139.250
63.12000 143.512
63.16000 147.119
63.20000 146.170
63.24000 140.149
63.28000 144.828
63.32000 146.698
63.36000 138.099
63.40000 144.711
63.44000 156.386
63.48000 147.332
63.52000 142.291
63.56000 139.916
63.60000 140.372
63.64000 146.453
63.68000 154.965
63.72000 138.477
63.76000 137.083
63.80000 151.455
63.84000 158.944
63.88000 152.878
63.92000 150.976
63.96000 148.423
64.00000 147.705
64.04000 143.209
64.08000 145.530
64.12000 153.204
64.16000 155.758
64.20000 144.838
64.24000 150.743
64.28000 155.902
64.32000 162.379
64.36000 149.818
64.40000 160.982
64.44000 160.053
64.48000 167.077
64.52000 160.782
64.56000 161.117
64.60000 168.017
64.64000 161.969
64.68000 160.235
64.72000 171.310
64.76000 162.202
64.80000 164.142
64.84000 172.249
64.88000 185.041
64.92000 174.895
64.96000 184.163
65.00000 179.081
65.04000 181.081
65.08000 187.404
65.12000 189.882
65.16000 184.703
65.20000 189.857
65.24000 213.958
65.28000 220.099
65.32000 225.695
65.36000 221.509
65.40000 241.815
65.44000 234.515
65.48000 248.881
65.52000 255.679
65.56000 275.971
65.60000 314.554
65.64000 318.479
65.68000 378.649
65.72000 478.495
65.76000 717.800
65.80000 904.758
65.84000 1009.724
65.88000 1031.055
65.92000 1014.147
65.96000 929.165
66.00000 691.429
66.04000 465.251
66.08000 366.601
66.12000 318.689
66.16000 301.249
66.20000 293.419
66.24000 284.442
66.28000 326.223
66.32000 370.105
66.36000 409.135
66.40000 427.173
66.44000 413.397
66.48000 438.208
66.52000 404.299
66.56000 369.178
66.60000 337.178
66.64000 325.369
66.68000 308.727
66.72000 301.700
66.76000 321.958
66.80000 311.127
66.84000 318.344
66.88000 320.480
66.92000 310.181
66.96000 339.578
67.00000 342.296
67.04000 332.833
67.08000 337.849
67.12000 345.421
67.16000 363.757
67.20000 362.158
67.24000 365.443
67.28000 357.508
67.32000 362.339
67.36000 384.204
67.40000 393.523
67.44000 390.150
67.48000 405.554
67.52000 400.764
67.56000 397.128
67.60000 411.258
67.64000 433.662
67.68000 440.617
67.72000 437.421
67.76000 444.147
67.80000 441.643
67.84000 446.074
67.88000 468.343
67.92000 498.125
67.96000 489.551
68.00000 502.296
68.04000 534.916
68.08000 519.859
68.12000 527.891
68.16000 547.604
68.20000 545.384
68.24000 572.773
68.28000 582.694
68.32000 598.560
68.36000 617.863
68.40000 659.462
68.44000 673.976
68.48000 700.378
68.52000 732.631
68.56000 791.993
68.60000 873.836
68.64000 993.315
68.68000 1173.127
68.72000 1331.359
68.76000 1541.622
68.80000 1704.015
68.84000 1975.877
68.88000 2414.843
68.92000 3383.953
68.96000 8887.521
69.00000 21571.199
69.04000 37594.266
69.08000 47098.047
69.12000 49559.918
69.16000 51509.164
69.20000 52675.598
69.24000 46506.488
69.28000 34856.219
69.32000 27782.439
69.36000 24888.338
69.40000 21437.934
69.44000 14838.046
69.48000 6861.343
69.52000 2979.419
69.56000 1788.981
69.60000 1365.551
69.64000 1136.643
69.68000 1006.332
69.72000 892.506
69.76000 840.550
69.80000 771.507
69.84000 726.376
69.88000 709.482
69.92000 672.787
69.96000 625.965
70.00000 627.999