File: XRD/XRD/24-09-2025 Dep 3/XY Data/BTO_Mapping_Theta2Theta_24-09-2025_001_46_-1-045_-9-945.xy
20.00000 556.795
20.04000 567.610
20.08000 574.786
20.12000 573.710
20.16000 568.066
20.20000 548.181
20.24000 561.192
20.28000 567.654
20.32000 559.204
20.36000 566.007
20.40000 562.863
20.44000 552.163
20.48000 564.448
20.52000 556.410
20.56000 559.508
20.60000 574.335
20.64000 546.443
20.68000 564.572
20.72000 582.715
20.76000 547.361
20.80000 534.852
20.84000 560.353
20.88000 544.655
20.92000 556.929
20.96000 559.425
21.00000 546.777
21.04000 542.643
21.08000 539.570
21.12000 540.286
21.16000 538.127
21.20000 558.501
21.24000 528.619
21.28000 535.019
21.32000 523.074
21.36000 548.652
21.40000 546.229
21.44000 547.830
21.48000 546.814
21.52000 538.027
21.56000 554.662
21.60000 547.168
21.64000 555.885
21.68000 550.385
21.72000 541.370
21.76000 545.538
21.80000 574.211
21.84000 575.552
21.88000 606.287
21.92000 631.085
21.96000 639.735
22.00000 649.065
22.04000 671.702
22.08000 677.774
22.12000 648.613
22.16000 662.120
22.20000 652.449
22.24000 651.594
22.28000 628.518
22.32000 598.495
22.36000 591.870
22.40000 571.628
22.44000 551.612
22.48000 545.886
22.52000 533.578
22.56000 533.221
22.60000 555.021
22.64000 539.561
22.68000 541.032
22.72000 521.739
22.76000 531.970
22.80000 522.119
22.84000 513.552
22.88000 507.089
22.92000 509.896
22.96000 507.262
23.00000 503.887
23.04000 519.198
23.08000 491.895
23.12000 501.500
23.16000 486.315
23.20000 492.768
23.24000 508.894
23.28000 508.914
23.32000 503.492
23.36000 517.717
23.40000 508.743
23.44000 484.340
23.48000 497.803
23.52000 512.060
23.56000 507.857
23.60000 493.452
23.64000 496.654
23.68000 492.111
23.72000 496.911
23.76000 486.168
23.80000 503.571
23.84000 490.224
23.88000 499.537
23.92000 495.905
23.96000 493.600
24.00000 493.557
24.04000 483.749
24.08000 477.386
24.12000 486.520
24.16000 483.900
24.20000 485.219
24.24000 484.163
24.28000 495.879
24.32000 478.342
24.36000 478.943
24.40000 487.596
24.44000 481.683
24.48000 478.450
24.52000 469.734
24.56000 493.814
24.60000 483.087
24.64000 509.574
24.68000 484.632
24.72000 461.685
24.76000 464.762
24.80000 460.460
24.84000 501.914
24.88000 476.036
24.92000 464.167
24.96000 447.995
25.00000 480.034
25.04000 485.548
25.08000 474.615
25.12000 482.833
25.16000 486.757
25.20000 483.128
25.24000 471.579
25.28000 473.438
25.32000 459.906
25.36000 466.837
25.40000 489.695
25.44000 467.878
25.48000 463.429
25.52000 467.466
25.56000 472.828
25.60000 460.629
25.64000 461.298
25.68000 455.305
25.72000 482.323
25.76000 459.350
25.80000 483.208
25.84000 487.476
25.88000 468.909
25.92000 459.176
25.96000 469.783
26.00000 461.397
26.04000 459.797
26.08000 461.109
26.12000 461.073
26.16000 450.744
26.20000 461.021
26.24000 466.805
26.28000 456.314
26.32000 440.832
26.36000 447.815
26.40000 457.576
26.44000 459.031
26.48000 426.284
26.52000 446.153
26.56000 456.399
26.60000 451.564
26.64000 455.040
26.68000 456.475
26.72000 455.369
26.76000 441.705
26.80000 461.899
26.84000 448.721
26.88000 446.965
26.92000 430.208
26.96000 449.546
27.00000 460.433
27.04000 457.868
27.08000 451.612
27.12000 448.481
27.16000 442.314
27.20000 440.794
27.24000 431.478
27.28000 422.255
27.32000 430.307
27.36000 435.932
27.40000 436.819
27.44000 436.779
27.48000 435.785
27.52000 448.269
27.56000 439.760
27.60000 435.234
27.64000 438.029
27.68000 439.977
27.72000 442.107
27.76000 407.641
27.80000 422.397
27.84000 447.553
27.88000 414.269
27.92000 436.821
27.96000 440.610
28.00000 422.653
28.04000 426.530
28.08000 421.861
28.12000 412.586
28.16000 424.785
28.20000 434.760
28.24000 435.634
28.28000 430.679
28.32000 436.688
28.36000 428.168
28.40000 433.030
28.44000 446.194
28.48000 446.944
28.52000 419.232
28.56000 413.388
28.60000 415.989
28.64000 438.732
28.68000 419.613
28.72000 419.944
28.76000 420.596
28.80000 426.841
28.84000 420.048
28.88000 444.104
28.92000 423.475
28.96000 433.736
29.00000 400.940
29.04000 410.636
29.08000 410.685
29.12000 413.037
29.16000 420.474
29.20000 411.253
29.24000 410.607
29.28000 412.899
29.32000 426.419
29.36000 405.054
29.40000 427.915
29.44000 414.973
29.48000 411.165
29.52000 421.772
29.56000 413.082
29.60000 415.243
29.64000 397.472
29.68000 422.661
29.72000 413.257
29.76000 423.175
29.80000 430.407
29.84000 424.212
29.88000 431.988
29.92000 440.813
29.96000 437.029
30.00000 434.232
30.04000 456.143
30.08000 451.496
30.12000 437.348
30.16000 443.568
30.20000 445.465
30.24000 425.908
30.28000 438.779
30.32000 424.306
30.36000 415.675
30.40000 411.175
30.44000 430.258
30.48000 425.610
30.52000 419.746
30.56000 431.746
30.60000 427.812
30.64000 455.177
30.68000 447.888
30.72000 432.697
30.76000 443.129
30.80000 463.152
30.84000 466.807
30.88000 483.338
30.92000 491.880
30.96000 506.266
31.00000 572.854
31.04000 642.783
31.08000 789.830
31.12000 980.192
31.16000 1228.892
31.20000 1571.215
31.24000 2005.629
31.28000 2417.057
31.32000 2820.257
31.36000 3035.680
31.40000 3121.337
31.44000 3012.603
31.48000 2706.815
31.52000 2350.474
31.56000 1873.416
31.60000 1458.963
31.64000 1148.176
31.68000 912.305
31.72000 747.685
31.76000 644.366
31.80000 564.180
31.84000 514.297
31.88000 477.495
31.92000 462.847
31.96000 435.294
32.00000 442.915
32.04000 436.079
32.08000 406.642
32.12000 418.743
32.16000 394.823
32.20000 399.728
32.24000 404.693
32.28000 402.054
32.32000 408.652
32.36000 405.471
32.40000 393.770
32.44000 390.549
32.48000 377.801
32.52000 369.059
32.56000 380.033
32.60000 395.429
32.64000 380.259
32.68000 375.174
32.72000 364.126
32.76000 377.238
32.80000 391.034
32.84000 434.204
32.88000 475.701
32.92000 487.050
32.96000 475.885
33.00000 489.426
33.04000 462.199
33.08000 411.864
33.12000 375.257
33.16000 351.956
33.20000 349.314
33.24000 351.763
33.28000 340.872
33.32000 354.857
33.36000 355.296
33.40000 337.121
33.44000 333.867
33.48000 334.415
33.52000 335.386
33.56000 334.664
33.60000 340.091
33.64000 343.246
33.68000 344.915
33.72000 329.165
33.76000 330.332
33.80000 315.931
33.84000 348.423
33.88000 335.132
33.92000 332.864
33.96000 331.815
34.00000 332.313
34.04000 326.222
34.08000 336.754
34.12000 333.621
34.16000 310.353
34.20000 332.221
34.24000 338.773
34.28000 332.187
34.32000 329.738
34.36000 332.744
34.40000 325.861
34.44000 320.788
34.48000 315.654
34.52000 306.749
34.56000 335.229
34.60000 333.404
34.64000 348.553
34.68000 324.155
34.72000 333.259
34.76000 329.700
34.80000 322.170
34.84000 330.941
34.88000 328.478
34.92000 331.367
34.96000 318.506
35.00000 321.765
35.04000 306.217
35.08000 301.627
35.12000 314.021
35.16000 312.578
35.20000 312.737
35.24000 318.158
35.28000 325.872
35.32000 317.913
35.36000 319.596
35.40000 331.666
35.44000 318.834
35.48000 309.237
35.52000 302.613
35.56000 303.180
35.60000 307.305
35.64000 309.525
35.68000 315.096
35.72000 299.557
35.76000 308.446
35.80000 305.968
35.84000 306.040
35.88000 300.590
35.92000 307.925
35.96000 298.497
36.00000 280.177
36.04000 300.695
36.08000 315.111
36.12000 299.808
36.16000 303.994
36.20000 299.899
36.24000 302.031
36.28000 292.882
36.32000 295.785
36.36000 305.440
36.40000 288.492
36.44000 292.357
36.48000 292.994
36.52000 295.011
36.56000 297.343
36.60000 290.963
36.64000 299.974
36.68000 308.345
36.72000 287.788
36.76000 289.572
36.80000 302.188
36.84000 299.592
36.88000 288.080
36.92000 305.380
36.96000 317.678
37.00000 307.310
37.04000 317.771
37.08000 309.432
37.12000 314.565
37.16000 301.588
37.20000 292.258
37.24000 307.937
37.28000 293.533
37.32000 309.114
37.36000 296.102
37.40000 297.100
37.44000 303.846
37.48000 297.651
37.52000 300.634
37.56000 295.986
37.60000 292.983
37.64000 303.110
37.68000 302.704
37.72000 300.689
37.76000 311.332
37.80000 306.578
37.84000 309.764
37.88000 293.047
37.92000 308.839
37.96000 319.664
38.00000 300.543
38.04000 294.112
38.08000 299.420
38.12000 309.163
38.16000 321.463
38.20000 307.120
38.24000 315.821
38.28000 343.045
38.32000 358.123
38.36000 381.839
38.40000 429.281
38.44000 498.767
38.48000 607.043
38.52000 754.347
38.56000 954.537
38.60000 1151.454
38.64000 1374.564
38.68000 1499.231
38.72000 1569.563
38.76000 1554.741
38.80000 1403.947
38.84000 1209.899
38.88000 973.968
38.92000 787.408
38.96000 593.756
39.00000 486.660
39.04000 400.645
39.08000 359.153
39.12000 338.758
39.16000 310.029
39.20000 317.734
39.24000 307.655
39.28000 291.906
39.32000 281.864
39.36000 272.553
39.40000 285.917
39.44000 281.313
39.48000 291.242
39.52000 271.069
39.56000 277.657
39.60000 272.347
39.64000 264.487
39.68000 274.180
39.72000 289.429
39.76000 282.178
39.80000 275.843
39.84000 276.347
39.88000 271.646
39.92000 267.900
39.96000 266.242
40.00000 281.562
40.04000 246.843
40.08000 264.386
40.12000 252.676
40.16000 257.149
40.20000 266.230
40.24000 254.162
40.28000 259.754
40.32000 258.571
40.36000 246.424
40.40000 257.536
40.44000 262.115
40.48000 258.401
40.52000 253.721
40.56000 248.313
40.60000 237.450
40.64000 265.130
40.68000 253.557
40.72000 249.853
40.76000 246.356
40.80000 249.463
40.84000 253.230
40.88000 256.745
40.92000 254.414
40.96000 248.613
41.00000 240.963
41.04000 247.334
41.08000 244.599
41.12000 236.037
41.16000 257.511
41.20000 245.942
41.24000 244.072
41.28000 254.760
41.32000 246.748
41.36000 250.725
41.40000 246.749
41.44000 231.910
41.48000 244.031
41.52000 240.022
41.56000 236.194
41.60000 248.335
41.64000 249.549
41.68000 231.347
41.72000 240.448
41.76000 225.644
41.80000 227.914
41.84000 228.241
41.88000 256.658
41.92000 240.400
41.96000 237.671
42.00000 244.219
42.04000 241.078
42.08000 241.082
42.12000 224.133
42.16000 218.985
42.20000 235.238
42.24000 241.776
42.28000 242.011
42.32000 238.620
42.36000 232.509
42.40000 220.119
42.44000 228.914
42.48000 226.138
42.52000 230.589
42.56000 233.973
42.60000 236.236
42.64000 230.559
42.68000 233.102
42.72000 229.405
42.76000 234.337
42.80000 234.105
42.84000 239.730
42.88000 222.643
42.92000 232.317
42.96000 229.525
43.00000 226.405
43.04000 220.241
43.08000 230.884
43.12000 242.787
43.16000 232.068
43.20000 226.049
43.24000 231.135
43.28000 234.847
43.32000 214.140
43.36000 223.802
43.40000 222.261
43.44000 214.516
43.48000 216.550
43.52000 219.248
43.56000 227.477
43.60000 226.600
43.64000 220.409
43.68000 218.049
43.72000 227.041
43.76000 225.185
43.80000 221.684
43.84000 223.206
43.88000 222.683
43.92000 226.853
43.96000 206.380
44.00000 223.609
44.04000 230.043
44.08000 219.480
44.12000 223.191
44.16000 226.876
44.20000 228.517
44.24000 212.909
44.28000 229.438
44.32000 224.479
44.36000 232.287
44.40000 231.113
44.44000 225.667
44.48000 219.842
44.52000 218.640
44.56000 225.932
44.60000 235.269
44.64000 222.717
44.68000 232.252
44.72000 242.004
44.76000 245.654
44.80000 245.064
44.84000 273.502
44.88000 264.581
44.92000 296.248
44.96000 304.392
45.00000 321.501
45.04000 331.669
45.08000 320.600
45.12000 334.381
45.16000 336.673
45.20000 310.775
45.24000 312.888
45.28000 301.583
45.32000 289.096
45.36000 294.086
45.40000 267.275
45.44000 266.839
45.48000 261.735
45.52000 258.232
45.56000 253.680
45.60000 245.728
45.64000 244.778
45.68000 237.063
45.72000 237.499
45.76000 237.284
45.80000 209.194
45.84000 231.577
45.88000 222.250
45.92000 231.407
45.96000 225.807
46.00000 206.729
46.04000 226.766
46.08000 214.470
46.12000 213.474
46.16000 212.315
46.20000 208.998
46.24000 213.363
46.28000 203.077
46.32000 210.859
46.36000 206.661
46.40000 204.100
46.44000 190.032
46.48000 185.928
46.52000 198.586
46.56000 215.846
46.60000 193.789
46.64000 205.780
46.68000 194.061
46.72000 208.975
46.76000 203.841
46.80000 189.167
46.84000 204.970
46.88000 191.894
46.92000 197.252
46.96000 195.653
47.00000 198.329
47.04000 209.412
47.08000 196.441
47.12000 202.671
47.16000 200.286
47.20000 198.328
47.24000 202.355
47.28000 187.952
47.32000 191.777
47.36000 178.774
47.40000 172.734
47.44000 181.554
47.48000 183.827
47.52000 187.347
47.56000 203.492
47.60000 197.810
47.64000 194.358
47.68000 200.438
47.72000 184.495
47.76000 185.457
47.80000 186.826
47.84000 184.763
47.88000 192.074
47.92000 177.561
47.96000 179.161
48.00000 181.386
48.04000 189.823
48.08000 189.133
48.12000 180.768
48.16000 178.215
48.20000 198.084
48.24000 183.001
48.28000 189.757
48.32000 189.669
48.36000 167.546
48.40000 182.602
48.44000 182.777
48.48000 177.182
48.52000 187.044
48.56000 176.794
48.60000 184.156
48.64000 191.448
48.68000 189.927
48.72000 176.533
48.76000 186.520
48.80000 187.133
48.84000 182.146
48.88000 182.662
48.92000 178.868
48.96000 176.885
49.00000 188.961
49.04000 192.416
49.08000 179.581
49.12000 178.101
49.16000 182.026
49.20000 189.605
49.24000 176.393
49.28000 185.180
49.32000 172.399
49.36000 169.087
49.40000 164.262
49.44000 182.303
49.48000 178.121
49.52000 173.091
49.56000 183.980
49.60000 168.838
49.64000 180.218
49.68000 165.865
49.72000 189.143
49.76000 170.943
49.80000 177.011
49.84000 183.006
49.88000 179.105
49.92000 178.398
49.96000 172.581
50.00000 176.081
50.04000 174.817
50.08000 180.072
50.12000 174.711
50.16000 186.208
50.20000 177.668
50.24000 165.976
50.28000 181.734
50.32000 189.076
50.36000 182.264
50.40000 189.502
50.44000 194.013
50.48000 203.064
50.52000 210.483
50.56000 221.615
50.60000 227.212
50.64000 229.214
50.68000 230.688
50.72000 244.929
50.76000 248.054
50.80000 236.020
50.84000 230.960
50.88000 225.619
50.92000 217.257
50.96000 206.909
51.00000 199.983
51.04000 194.420
51.08000 183.139
51.12000 191.575
51.16000 185.171
51.20000 184.103
51.24000 188.398
51.28000 177.728
51.32000 165.469
51.36000 176.594
51.40000 175.874
51.44000 176.188
51.48000 170.136
51.52000 171.457
51.56000 170.170
51.60000 163.594
51.64000 168.088
51.68000 160.158
51.72000 168.271
51.76000 166.358
51.80000 166.226
51.84000 157.157
51.88000 161.190
51.92000 160.228
51.96000 162.118
52.00000 150.375
52.04000 162.188
52.08000 166.783
52.12000 160.765
52.16000 158.255
52.20000 156.660
52.24000 157.648
52.28000 166.037
52.32000 177.529
52.36000 157.981
52.40000 154.694
52.44000 170.683
52.48000 163.924
52.52000 164.187
52.56000 168.895
52.60000 151.232
52.64000 155.470
52.68000 158.752
52.72000 159.065
52.76000 156.495
52.80000 163.605
52.84000 161.290
52.88000 158.603
52.92000 150.594
52.96000 159.105
53.00000 155.369
53.04000 148.403
53.08000 160.478
53.12000 174.989
53.16000 165.039
53.20000 157.248
53.24000 178.084
53.28000 170.585
53.32000 163.608
53.36000 166.563
53.40000 165.045
53.44000 159.076
53.48000 160.632
53.52000 146.826
53.56000 159.511
53.60000 145.762
53.64000 162.978
53.68000 164.745
53.72000 163.971
53.76000 154.946
53.80000 150.520
53.84000 157.690
53.88000 153.019
53.92000 169.914
53.96000 157.441
54.00000 159.637
54.04000 159.853
54.08000 152.960
54.12000 151.295
54.16000 159.543
54.20000 159.252
54.24000 154.589
54.28000 151.838
54.32000 162.286
54.36000 160.084
54.40000 162.006
54.44000 159.249
54.48000 144.410
54.52000 157.328
54.56000 155.413
54.60000 151.981
54.64000 160.944
54.68000 152.623
54.72000 165.646
54.76000 163.109
54.80000 153.800
54.84000 167.632
54.88000 167.759
54.92000 152.639
54.96000 155.882
55.00000 163.522
55.04000 165.018
55.08000 154.257
55.12000 168.853
55.16000 171.830
55.20000 165.226
55.24000 166.978
55.28000 177.612
55.32000 176.208
55.36000 176.010
55.40000 193.788
55.44000 191.177
55.48000 211.294
55.52000 219.452
55.56000 249.282
55.60000 300.412
55.64000 320.781
55.68000 384.223
55.72000 463.905
55.76000 526.947
55.80000 637.353
55.84000 744.457
55.88000 822.024
55.92000 844.229
55.96000 870.962
56.00000 857.017
56.04000 777.602
56.08000 711.543
56.12000 615.176
56.16000 555.734
56.20000 483.227
56.24000 413.497
56.28000 344.613
56.32000 296.360
56.36000 250.251
56.40000 234.209
56.44000 223.744
56.48000 195.273
56.52000 185.309
56.56000 182.702
56.60000 169.053
56.64000 173.232
56.68000 170.532
56.72000 169.614
56.76000 164.373
56.80000 160.090
56.84000 166.085
56.88000 158.510
56.92000 161.503
56.96000 159.758
57.00000 154.282
57.04000 154.516
57.08000 154.164
57.12000 150.899
57.16000 146.685
57.20000 161.226
57.24000 153.176
57.28000 146.013
57.32000 153.232
57.36000 142.702
57.40000 148.113
57.44000 138.797
57.48000 147.634
57.52000 139.137
57.56000 143.601
57.60000 144.180
57.64000 141.013
57.68000 159.967
57.72000 138.086
57.76000 144.153
57.80000 152.235
57.84000 143.781
57.88000 132.850
57.92000 137.430
57.96000 119.733
58.00000 140.747
58.04000 140.679
58.08000 133.273
58.12000 139.966
58.16000 134.135
58.20000 152.495
58.24000 142.720
58.28000 144.838
58.32000 138.929
58.36000 135.782
58.40000 130.745
58.44000 140.096
58.48000 142.509
58.52000 129.896
58.56000 140.686
58.60000 146.486
58.64000 127.697
58.68000 135.810
58.72000 127.600
58.76000 130.278
58.80000 125.532
58.84000 122.673
58.88000 127.961
58.92000 135.816
58.96000 133.608
59.00000 139.758
59.04000 138.806
59.08000 133.598
59.12000 131.661
59.16000 132.121
59.20000 125.178
59.24000 134.240
59.28000 135.635
59.32000 137.937
59.36000 134.845
59.40000 139.298
59.44000 138.566
59.48000 139.244
59.52000 134.569
59.56000 127.338
59.60000 119.013
59.64000 133.228
59.68000 131.933
59.72000 142.849
59.76000 128.810
59.80000 137.944
59.84000 137.820
59.88000 137.540
59.92000 129.542
59.96000 130.836
60.00000 136.635
60.04000 124.401
60.08000 134.740
60.12000 130.334
60.16000 131.103
60.20000 133.206
60.24000 127.857
60.28000 132.781
60.32000 127.433
60.36000 132.636
60.40000 127.870
60.44000 125.880
60.48000 128.258
60.52000 134.158
60.56000 136.486
60.60000 129.575
60.64000 134.071
60.68000 139.991
60.72000 141.550
60.76000 130.764
60.80000 140.871
60.84000 130.747
60.88000 140.798
60.92000 134.555
60.96000 134.266
61.00000 127.218
61.04000 131.612
61.08000 139.707
61.12000 137.864
61.16000 137.288
61.20000 132.133
61.24000 127.493
61.28000 124.484
61.32000 136.788
61.36000 138.096
61.40000 132.634
61.44000 140.282
61.48000 147.876
61.52000 160.532
61.56000 202.413
61.60000 232.047
61.64000 267.509
61.68000 273.331
61.72000 269.365
61.76000 271.552
61.80000 221.383
61.84000 167.890
61.88000 144.917
61.92000 156.423
61.96000 140.373
62.00000 135.697
62.04000 140.730
62.08000 145.013
62.12000 141.857
62.16000 137.407
62.20000 139.172
62.24000 139.192
62.28000 134.600
62.32000 146.085
62.36000 136.269
62.40000 140.483
62.44000 138.978
62.48000 135.270
62.52000 145.198
62.56000 143.711
62.60000 144.862
62.64000 148.839
62.68000 150.533
62.72000 147.510
62.76000 138.562
62.80000 143.769
62.84000 142.793
62.88000 144.567
62.92000 142.806
62.96000 149.926
63.00000 140.441
63.04000 140.454
63.08000 151.548
63.12000 138.429
63.16000 141.577
63.20000 141.651
63.24000 131.866
63.28000 153.254
63.32000 146.432
63.36000 157.326
63.40000 148.888
63.44000 140.672
63.48000 145.308
63.52000 139.927
63.56000 147.015
63.60000 145.893
63.64000 162.180
63.68000 137.985
63.72000 155.300
63.76000 140.270
63.80000 149.045
63.84000 156.215
63.88000 159.283
63.92000 150.388
63.96000 148.516
64.00000 157.924
64.04000 148.804
64.08000 169.648
64.12000 164.760
64.16000 159.151
64.20000 152.068
64.24000 155.738
64.28000 146.904
64.32000 169.762
64.36000 161.617
64.40000 165.405
64.44000 166.856
64.48000 176.938
64.52000 168.013
64.56000 168.704
64.60000 165.079
64.64000 168.453
64.68000 166.076
64.72000 168.263
64.76000 171.253
64.80000 180.533
64.84000 174.914
64.88000 183.553
64.92000 187.802
64.96000 190.038
65.00000 189.816
65.04000 188.663
65.08000 206.755
65.12000 208.838
65.16000 223.673
65.20000 232.023
65.24000 239.356
65.28000 251.182
65.32000 277.155
65.36000 289.329
65.40000 309.355
65.44000 329.402
65.48000 342.151
65.52000 358.416
65.56000 371.307
65.60000 400.377
65.64000 448.041
65.68000 514.137
65.72000 637.916
65.76000 874.174
65.80000 1063.854
65.84000 1109.941
65.88000 1145.209
65.92000 1084.440
65.96000 931.304
66.00000 690.661
66.04000 453.726
66.08000 364.310
66.12000 323.144
66.16000 317.892
66.20000 298.975
66.24000 311.446
66.28000 356.697
66.32000 390.266
66.36000 432.093
66.40000 440.739
66.44000 438.408
66.48000 417.833
66.52000 409.152
66.56000 370.376
66.60000 333.889
66.64000 323.930
66.68000 313.293
66.72000 302.553
66.76000 304.139
66.80000 305.950
66.84000 304.997
66.88000 331.366
66.92000 321.756
66.96000 339.927
67.00000 346.327
67.04000 329.660
67.08000 353.588
67.12000 367.440
67.16000 355.906
67.20000 342.531
67.24000 362.268
67.28000 350.571
67.32000 381.346
67.36000 372.332
67.40000 405.752
67.44000 403.572
67.48000 401.204
67.52000 410.771
67.56000 421.424
67.60000 407.760
67.64000 427.347
67.68000 421.374
67.72000 426.517
67.76000 462.614
67.80000 478.642
67.84000 462.648
67.88000 483.478
67.92000 501.192
67.96000 503.859
68.00000 522.800
68.04000 521.378
68.08000 545.754
68.12000 519.168
68.16000 546.596
68.20000 558.415
68.24000 570.061
68.28000 585.024
68.32000 636.809
68.36000 622.318
68.40000 644.630
68.44000 679.300
68.48000 705.791
68.52000 762.180
68.56000 821.887
68.60000 902.754
68.64000 1068.115
68.68000 1267.095
68.72000 1492.546
68.76000 1704.984
68.80000 1932.764
68.84000 2261.179
68.88000 2947.499
68.92000 4663.288
68.96000 12846.894
69.00000 28693.236
69.04000 45462.203
69.08000 53257.457
69.12000 55088.359
69.16000 57367.855
69.20000 57274.883
69.24000 47705.723
69.28000 36057.918
69.32000 29897.689
69.36000 26905.916
69.40000 22015.949
69.44000 13867.140
69.48000 6156.627
69.52000 2858.717
69.56000 1815.749
69.60000 1394.362
69.64000 1162.704
69.68000 1026.289
69.72000 939.542
69.76000 877.086
69.80000 813.705
69.84000 746.764
69.88000 716.500
69.92000 693.503
69.96000 649.640
70.00000 663.860