File: XRD/XRD/24-09-2025 Dep 3/XY Data/BTO_Mapping_Theta2Theta_24-09-2025_001_61_36-542_-16-269.xy
20.00000 563.199
20.04000 570.275
20.08000 561.705
20.12000 559.736
20.16000 552.190
20.20000 554.737
20.24000 572.503
20.28000 560.911
20.32000 539.615
20.36000 550.675
20.40000 559.269
20.44000 551.472
20.48000 564.494
20.52000 561.441
20.56000 563.410
20.60000 543.431
20.64000 559.445
20.68000 562.684
20.72000 573.855
20.76000 549.551
20.80000 533.662
20.84000 569.440
20.88000 540.376
20.92000 581.976
20.96000 552.413
21.00000 524.540
21.04000 534.512
21.08000 535.390
21.12000 535.408
21.16000 566.835
21.20000 560.445
21.24000 529.728
21.28000 533.314
21.32000 537.902
21.36000 552.362
21.40000 548.399
21.44000 535.796
21.48000 566.184
21.52000 569.737
21.56000 562.659
21.60000 542.491
21.64000 561.162
21.68000 561.592
21.72000 583.682
21.76000 590.682
21.80000 569.841
21.84000 574.634
21.88000 602.839
21.92000 600.744
21.96000 610.332
22.00000 627.892
22.04000 622.984
22.08000 610.390
22.12000 605.912
22.16000 635.663
22.20000 603.884
22.24000 583.238
22.28000 611.661
22.32000 577.737
22.36000 569.126
22.40000 550.197
22.44000 550.757
22.48000 556.750
22.52000 548.127
22.56000 538.886
22.60000 536.572
22.64000 552.134
22.68000 535.461
22.72000 526.660
22.76000 534.093
22.80000 534.852
22.84000 534.870
22.88000 528.130
22.92000 523.519
22.96000 524.616
23.00000 505.663
23.04000 530.528
23.08000 524.197
23.12000 516.203
23.16000 506.965
23.20000 508.711
23.24000 524.755
23.28000 523.142
23.32000 510.876
23.36000 541.864
23.40000 525.148
23.44000 531.338
23.48000 514.823
23.52000 513.734
23.56000 513.863
23.60000 521.143
23.64000 526.459
23.68000 531.482
23.72000 527.002
23.76000 548.353
23.80000 536.266
23.84000 569.726
23.88000 574.446
23.92000 576.837
23.96000 588.854
24.00000 578.234
24.04000 561.540
24.08000 556.801
24.12000 544.945
24.16000 532.386
24.20000 536.412
24.24000 512.789
24.28000 507.814
24.32000 504.168
24.36000 520.104
24.40000 497.813
24.44000 490.579
24.48000 488.019
24.52000 483.582
24.56000 477.152
24.60000 491.223
24.64000 469.409
24.68000 478.083
24.72000 489.344
24.76000 482.173
24.80000 474.175
24.84000 485.281
24.88000 470.153
24.92000 489.501
24.96000 479.710
25.00000 500.411
25.04000 487.092
25.08000 482.425
25.12000 472.115
25.16000 484.013
25.20000 470.340
25.24000 481.201
25.28000 491.230
25.32000 491.245
25.36000 485.537
25.40000 469.337
25.44000 485.060
25.48000 476.232
25.52000 479.477
25.56000 468.621
25.60000 458.838
25.64000 469.687
25.68000 472.324
25.72000 486.254
25.76000 460.056
25.80000 479.807
25.84000 472.937
25.88000 457.284
25.92000 472.606
25.96000 463.826
26.00000 460.159
26.04000 455.447
26.08000 450.662
26.12000 467.568
26.16000 458.303
26.20000 451.136
26.24000 461.735
26.28000 455.727
26.32000 464.782
26.36000 466.750
26.40000 468.261
26.44000 463.400
26.48000 441.475
26.52000 468.640
26.56000 451.124
26.60000 466.090
26.64000 458.276
26.68000 439.767
26.72000 448.195
26.76000 451.547
26.80000 442.930
26.84000 449.275
26.88000 459.673
26.92000 443.619
26.96000 435.056
27.00000 441.342
27.04000 445.866
27.08000 450.236
27.12000 455.664
27.16000 445.895
27.20000 437.954
27.24000 432.696
27.28000 460.287
27.32000 438.557
27.36000 422.954
27.40000 450.421
27.44000 445.161
27.48000 448.387
27.52000 465.754
27.56000 470.083
27.60000 440.654
27.64000 438.647
27.68000 428.569
27.72000 435.901
27.76000 450.462
27.80000 435.521
27.84000 442.505
27.88000 438.067
27.92000 424.177
27.96000 448.475
28.00000 420.467
28.04000 435.637
28.08000 435.585
28.12000 432.128
28.16000 423.147
28.20000 429.701
28.24000 439.912
28.28000 427.984
28.32000 427.468
28.36000 406.614
28.40000 417.278
28.44000 415.739
28.48000 433.127
28.52000 437.724
28.56000 429.471
28.60000 418.492
28.64000 405.547
28.68000 409.772
28.72000 421.418
28.76000 425.633
28.80000 424.720
28.84000 415.019
28.88000 420.647
28.92000 427.451
28.96000 427.762
29.00000 423.971
29.04000 424.306
29.08000 426.472
29.12000 415.369
29.16000 414.990
29.20000 416.277
29.24000 399.339
29.28000 425.058
29.32000 414.356
29.36000 418.222
29.40000 415.348
29.44000 424.342
29.48000 414.806
29.52000 397.686
29.56000 408.586
29.60000 438.678
29.64000 410.832
29.68000 420.192
29.72000 418.055
29.76000 402.698
29.80000 410.463
29.84000 418.832
29.88000 427.009
29.92000 417.914
29.96000 425.733
30.00000 442.803
30.04000 431.776
30.08000 437.134
30.12000 424.110
30.16000 416.869
30.20000 417.050
30.24000 439.541
30.28000 420.348
30.32000 417.399
30.36000 419.425
30.40000 423.039
30.44000 405.185
30.48000 422.122
30.52000 402.097
30.56000 416.050
30.60000 422.596
30.64000 415.574
30.68000 433.662
30.72000 456.204
30.76000 432.129
30.80000 426.596
30.84000 462.185
30.88000 469.346
30.92000 467.808
30.96000 501.299
31.00000 507.289
31.04000 516.864
31.08000 583.268
31.12000 651.176
31.16000 718.721
31.20000 798.725
31.24000 883.338
31.28000 991.103
31.32000 1060.844
31.36000 1106.705
31.40000 1120.392
31.44000 1090.926
31.48000 1032.507
31.52000 956.567
31.56000 876.553
31.60000 760.293
31.64000 655.962
31.68000 596.811
31.72000 551.812
31.76000 517.204
31.80000 498.220
31.84000 481.063
31.88000 452.301
31.92000 443.035
31.96000 435.066
32.00000 428.114
32.04000 421.449
32.08000 404.951
32.12000 415.879
32.16000 416.164
32.20000 408.369
32.24000 408.429
32.28000 401.088
32.32000 393.729
32.36000 397.616
32.40000 380.240
32.44000 399.545
32.48000 401.512
32.52000 395.757
32.56000 391.795
32.60000 390.028
32.64000 386.005
32.68000 388.600
32.72000 384.702
32.76000 379.129
32.80000 385.601
32.84000 416.614
32.88000 433.263
32.92000 469.316
32.96000 435.282
33.00000 454.068
33.04000 449.900
33.08000 411.219
33.12000 375.021
33.16000 357.980
33.20000 363.194
33.24000 365.489
33.28000 349.082
33.32000 347.736
33.36000 354.860
33.40000 349.591
33.44000 340.373
33.48000 326.984
33.52000 341.346
33.56000 333.894
33.60000 344.542
33.64000 353.828
33.68000 341.978
33.72000 359.899
33.76000 348.434
33.80000 352.575
33.84000 340.425
33.88000 346.823
33.92000 339.161
33.96000 349.655
34.00000 353.673
34.04000 366.806
34.08000 371.984
34.12000 368.372
34.16000 365.771
34.20000 361.663
34.24000 371.330
34.28000 371.859
34.32000 375.408
34.36000 368.863
34.40000 355.923
34.44000 357.134
34.48000 354.219
34.52000 365.400
34.56000 370.923
34.60000 343.126
34.64000 335.858
34.68000 340.084
34.72000 340.831
34.76000 342.112
34.80000 337.231
34.84000 332.048
34.88000 332.772
34.92000 332.549
34.96000 328.159
35.00000 314.790
35.04000 336.168
35.08000 319.007
35.12000 329.917
35.16000 331.930
35.20000 310.490
35.24000 326.706
35.28000 342.610
35.32000 322.253
35.36000 312.582
35.40000 318.596
35.44000 316.372
35.48000 305.754
35.52000 303.870
35.56000 320.174
35.60000 299.233
35.64000 309.009
35.68000 307.669
35.72000 313.661
35.76000 309.374
35.80000 291.536
35.84000 311.054
35.88000 317.191
35.92000 310.078
35.96000 317.496
36.00000 290.287
36.04000 297.504
36.08000 306.077
36.12000 292.732
36.16000 307.015
36.20000 319.272
36.24000 287.312
36.28000 301.856
36.32000 287.630
36.36000 309.940
36.40000 310.711
36.44000 296.484
36.48000 295.250
36.52000 312.748
36.56000 290.560
36.60000 307.528
36.64000 297.749
36.68000 292.466
36.72000 292.567
36.76000 318.002
36.80000 317.360
36.84000 300.356
36.88000 297.149
36.92000 311.890
36.96000 297.049
37.00000 295.243
37.04000 299.212
37.08000 323.170
37.12000 300.422
37.16000 306.875
37.20000 298.548
37.24000 307.471
37.28000 304.273
37.32000 321.656
37.36000 290.459
37.40000 301.067
37.44000 296.844
37.48000 297.766
37.52000 297.648
37.56000 291.895
37.60000 294.703
37.64000 295.847
37.68000 305.273
37.72000 299.492
37.76000 298.933
37.80000 316.282
37.84000 309.622
37.88000 286.519
37.92000 300.260
37.96000 288.774
38.00000 297.340
38.04000 300.145
38.08000 300.524
38.12000 315.842
38.16000 326.949
38.20000 312.448
38.24000 324.282
38.28000 344.142
38.32000 354.102
38.36000 375.091
38.40000 421.036
38.44000 459.069
38.48000 523.331
38.52000 617.313
38.56000 708.202
38.60000 826.404
38.64000 944.229
38.68000 1009.928
38.72000 1056.676
38.76000 1002.960
38.80000 934.049
38.84000 810.741
38.88000 714.357
38.92000 592.494
38.96000 512.521
39.00000 439.038
39.04000 382.122
39.08000 328.759
39.12000 323.095
39.16000 308.996
39.20000 297.536
39.24000 289.858
39.28000 302.457
39.32000 297.462
39.36000 306.671
39.40000 279.942
39.44000 290.134
39.48000 282.504
39.52000 277.412
39.56000 278.681
39.60000 258.720
39.64000 275.284
39.68000 276.380
39.72000 293.604
39.76000 285.096
39.80000 269.562
39.84000 284.604
39.88000 281.879
39.92000 289.554
39.96000 269.627
40.00000 266.728
40.04000 271.244
40.08000 251.847
40.12000 247.669
40.16000 270.306
40.20000 260.810
40.24000 267.768
40.28000 257.865
40.32000 275.899
40.36000 270.840
40.40000 273.660
40.44000 285.361
40.48000 267.129
40.52000 266.844
40.56000 258.164
40.60000 252.543
40.64000 256.829
40.68000 254.278
40.72000 261.993
40.76000 249.481
40.80000 251.200
40.84000 243.893
40.88000 246.113
40.92000 263.937
40.96000 247.326
41.00000 259.006
41.04000 244.379
41.08000 246.306
41.12000 254.225
41.16000 240.280
41.20000 246.316
41.24000 233.442
41.28000 250.366
41.32000 246.716
41.36000 250.888
41.40000 250.991
41.44000 233.714
41.48000 253.822
41.52000 244.066
41.56000 254.860
41.60000 249.218
41.64000 252.894
41.68000 241.100
41.72000 238.075
41.76000 237.141
41.80000 251.687
41.84000 246.202
41.88000 238.665
41.92000 244.563
41.96000 227.694
42.00000 261.150
42.04000 251.905
42.08000 255.709
42.12000 251.000
42.16000 256.420
42.20000 236.751
42.24000 259.413
42.28000 251.020
42.32000 247.579
42.36000 251.747
42.40000 263.786
42.44000 244.694
42.48000 257.857
42.52000 236.723
42.56000 244.226
42.60000 235.712
42.64000 235.306
42.68000 246.085
42.72000 238.318
42.76000 235.255
42.80000 240.723
42.84000 238.352
42.88000 233.300
42.92000 227.501
42.96000 234.232
43.00000 234.261
43.04000 232.595
43.08000 246.247
43.12000 232.350
43.16000 235.519
43.20000 229.560
43.24000 225.582
43.28000 231.861
43.32000 219.327
43.36000 229.612
43.40000 222.077
43.44000 232.362
43.48000 217.076
43.52000 229.085
43.56000 224.621
43.60000 211.586
43.64000 235.744
43.68000 222.577
43.72000 211.954
43.76000 230.529
43.80000 230.195
43.84000 220.242
43.88000 240.263
43.92000 241.062
43.96000 227.596
44.00000 230.327
44.04000 222.644
44.08000 229.656
44.12000 234.484
44.16000 218.250
44.20000 234.471
44.24000 226.330
44.28000 231.971
44.32000 240.456
44.36000 229.421
44.40000 232.178
44.44000 242.176
44.48000 251.241
44.52000 241.777
44.56000 245.574
44.60000 238.265
44.64000 250.487
44.68000 257.198
44.72000 258.015
44.76000 252.994
44.80000 255.530
44.84000 269.046
44.88000 283.724
44.92000 264.650
44.96000 268.648
45.00000 274.691
45.04000 286.204
45.08000 272.665
45.12000 276.868
45.16000 286.128
45.20000 275.922
45.24000 270.482
45.28000 276.345
45.32000 257.039
45.36000 251.943
45.40000 244.486
45.44000 234.673
45.48000 263.380
45.52000 222.192
45.56000 229.379
45.60000 240.091
45.64000 221.439
45.68000 207.480
45.72000 213.827
45.76000 213.074
45.80000 223.929
45.84000 216.231
45.88000 215.281
45.92000 230.388
45.96000 204.722
46.00000 203.812
46.04000 210.920
46.08000 207.459
46.12000 194.793
46.16000 197.883
46.20000 196.705
46.24000 209.546
46.28000 207.584
46.32000 206.684
46.36000 204.174
46.40000 208.928
46.44000 194.455
46.48000 209.019
46.52000 214.280
46.56000 193.637
46.60000 191.329
46.64000 205.949
46.68000 205.307
46.72000 202.675
46.76000 190.304
46.80000 202.270
46.84000 201.981
46.88000 201.052
46.92000 197.238
46.96000 195.633
47.00000 199.646
47.04000 193.195
47.08000 194.294
47.12000 195.136
47.16000 187.985
47.20000 191.418
47.24000 203.494
47.28000 178.390
47.32000 192.492
47.36000 205.117
47.40000 176.016
47.44000 205.492
47.48000 204.588
47.52000 204.242
47.56000 192.803
47.60000 186.294
47.64000 181.987
47.68000 172.478
47.72000 185.818
47.76000 189.939
47.80000 186.396
47.84000 184.251
47.88000 181.691
47.92000 200.063
47.96000 185.498
48.00000 191.427
48.04000 185.069
48.08000 196.147
48.12000 191.752
48.16000 176.563
48.20000 191.048
48.24000 198.529
48.28000 187.090
48.32000 181.428
48.36000 189.995
48.40000 188.856
48.44000 185.530
48.48000 186.147
48.52000 191.630
48.56000 176.193
48.60000 179.869
48.64000 183.700
48.68000 189.248
48.72000 186.984
48.76000 192.906
48.80000 181.324
48.84000 175.616
48.88000 178.234
48.92000 192.518
48.96000 190.706
49.00000 179.956
49.04000 195.607
49.08000 185.646
49.12000 177.762
49.16000 184.336
49.20000 170.685
49.24000 186.829
49.28000 179.583
49.32000 186.570
49.36000 186.679
49.40000 191.825
49.44000 170.876
49.48000 182.523
49.52000 169.485
49.56000 180.868
49.60000 179.915
49.64000 184.048
49.68000 182.863
49.72000 179.260
49.76000 181.123
49.80000 182.040
49.84000 177.270
49.88000 179.175
49.92000 179.495
49.96000 172.825
50.00000 173.179
50.04000 191.667
50.08000 177.784
50.12000 179.710
50.16000 177.301
50.20000 178.973
50.24000 176.583
50.28000 182.183
50.32000 178.605
50.36000 175.268
50.40000 189.175
50.44000 178.346
50.48000 188.347
50.52000 191.877
50.56000 185.122
50.60000 181.538
50.64000 192.011
50.68000 196.104
50.72000 195.567
50.76000 186.448
50.80000 189.760
50.84000 195.173
50.88000 179.073
50.92000 186.138
50.96000 184.596
51.00000 179.666
51.04000 168.643
51.08000 178.045
51.12000 179.758
51.16000 174.968
51.20000 175.421
51.24000 178.905
51.28000 173.358
51.32000 157.864
51.36000 171.208
51.40000 166.681
51.44000 171.165
51.48000 164.122
51.52000 170.910
51.56000 163.267
51.60000 171.649
51.64000 163.095
51.68000 156.222
51.72000 172.063
51.76000 169.544
51.80000 168.871
51.84000 156.337
51.88000 158.350
51.92000 166.182
51.96000 174.929
52.00000 163.351
52.04000 164.818
52.08000 165.291
52.12000 169.453
52.16000 161.950
52.20000 162.601
52.24000 166.279
52.28000 152.129
52.32000 171.618
52.36000 167.775
52.40000 162.068
52.44000 158.586
52.48000 166.564
52.52000 159.290
52.56000 159.200
52.60000 163.770
52.64000 160.506
52.68000 157.412
52.72000 159.707
52.76000 159.632
52.80000 161.798
52.84000 156.594
52.88000 158.763
52.92000 168.407
52.96000 164.525
53.00000 160.682
53.04000 169.044
53.08000 155.285
53.12000 161.588
53.16000 166.485
53.20000 159.064
53.24000 158.645
53.28000 163.650
53.32000 164.410
53.36000 166.655
53.40000 170.942
53.44000 161.627
53.48000 168.644
53.52000 169.020
53.56000 166.868
53.60000 170.127
53.64000 165.152
53.68000 165.817
53.72000 165.912
53.76000 166.422
53.80000 160.666
53.84000 159.640
53.88000 151.729
53.92000 153.604
53.96000 157.386
54.00000 157.092
54.04000 158.596
54.08000 157.319
54.12000 160.146
54.16000 166.229
54.20000 157.757
54.24000 156.360
54.28000 162.018
54.32000 158.083
54.36000 158.201
54.40000 157.514
54.44000 159.522
54.48000 167.770
54.52000 182.251
54.56000 170.961
54.60000 166.199
54.64000 166.559
54.68000 159.597
54.72000 165.363
54.76000 161.141
54.80000 174.076
54.84000 161.919
54.88000 173.537
54.92000 173.629
54.96000 179.132
55.00000 165.579
55.04000 181.054
55.08000 167.121
55.12000 179.836
55.16000 174.350
55.20000 176.970
55.24000 181.087
55.28000 190.349
55.32000 177.452
55.36000 194.100
55.40000 209.817
55.44000 211.976
55.48000 219.596
55.52000 249.543
55.56000 246.187
55.60000 282.576
55.64000 297.329
55.68000 326.830
55.72000 364.773
55.76000 396.143
55.80000 435.568
55.84000 463.169
55.88000 481.026
55.92000 502.590
55.96000 500.669
56.00000 487.160
56.04000 475.805
56.08000 432.908
56.12000 404.495
56.16000 366.479
56.20000 330.205
56.24000 313.638
56.28000 282.448
56.32000 276.924
56.36000 238.043
56.40000 232.672
56.44000 213.784
56.48000 207.886
56.52000 189.417
56.56000 197.870
56.60000 187.375
56.64000 179.821
56.68000 168.988
56.72000 157.409
56.76000 154.508
56.80000 161.004
56.84000 159.228
56.88000 155.750
56.92000 162.793
56.96000 166.628
57.00000 158.431
57.04000 155.229
57.08000 151.709
57.12000 154.658
57.16000 159.000
57.20000 156.696
57.24000 151.770
57.28000 148.670
57.32000 149.964
57.36000 150.703
57.40000 147.867
57.44000 149.170
57.48000 150.752
57.52000 154.231
57.56000 152.653
57.60000 150.571
57.64000 147.683
57.68000 144.009
57.72000 153.238
57.76000 160.395
57.80000 145.270
57.84000 150.981
57.88000 148.639
57.92000 139.724
57.96000 141.863
58.00000 150.639
58.04000 147.863
58.08000 130.890
58.12000 138.875
58.16000 139.236
58.20000 148.780
58.24000 141.220
58.28000 142.172
58.32000 135.096
58.36000 136.627
58.40000 141.630
58.44000 143.175
58.48000 145.379
58.52000 135.454
58.56000 137.729
58.60000 139.436
58.64000 137.962
58.68000 144.932
58.72000 136.760
58.76000 135.103
58.80000 134.641
58.84000 137.117
58.88000 136.984
58.92000 124.544
58.96000 138.206
59.00000 140.367
59.04000 127.946
59.08000 139.290
59.12000 150.240
59.16000 151.295
59.20000 141.499
59.24000 145.274
59.28000 141.587
59.32000 129.481
59.36000 133.510
59.40000 128.698
59.44000 133.610
59.48000 130.150
59.52000 137.968
59.56000 138.765
59.60000 133.425
59.64000 132.945
59.68000 132.402
59.72000 140.195
59.76000 130.484
59.80000 137.510
59.84000 129.498
59.88000 132.699
59.92000 140.544
59.96000 137.944
60.00000 143.591
60.04000 135.721
60.08000 130.843
60.12000 133.030
60.16000 134.036
60.20000 139.710
60.24000 141.306
60.28000 138.192
60.32000 139.914
60.36000 139.341
60.40000 130.103
60.44000 128.577
60.48000 140.952
60.52000 145.844
60.56000 146.233
60.60000 136.858
60.64000 133.750
60.68000 146.874
60.72000 134.213
60.76000 127.367
60.80000 133.139
60.84000 128.726
60.88000 126.490
60.92000 141.860
60.96000 140.842
61.00000 140.941
61.04000 135.877
61.08000 132.768
61.12000 141.011
61.16000 141.913
61.20000 126.095
61.24000 133.835
61.28000 149.232
61.32000 147.683
61.36000 139.926
61.40000 155.406
61.44000 143.161
61.48000 144.662
61.52000 176.909
61.56000 198.088
61.60000 237.793
61.64000 256.495
61.68000 254.409
61.72000 255.884
61.76000 253.563
61.80000 224.429
61.84000 180.986
61.88000 157.493
61.92000 154.388
61.96000 154.059
62.00000 153.476
62.04000 148.502
62.08000 151.815
62.12000 145.861
62.16000 141.930
62.20000 136.544
62.24000 143.910
62.28000 159.436
62.32000 136.961
62.36000 140.032
62.40000 145.457
62.44000 150.641
62.48000 143.604
62.52000 157.675
62.56000 137.780
62.60000 149.849
62.64000 147.106
62.68000 139.424
62.72000 146.292
62.76000 142.390
62.80000 150.769
62.84000 134.803
62.88000 152.431
62.92000 149.368
62.96000 138.711
63.00000 140.370
63.04000 147.247
63.08000 147.967
63.12000 145.980
63.16000 142.288
63.20000 154.029
63.24000 146.327
63.28000 149.342
63.32000 154.220
63.36000 149.512
63.40000 153.703
63.44000 152.157
63.48000 144.299
63.52000 149.317
63.56000 150.986
63.60000 149.858
63.64000 147.150
63.68000 149.969
63.72000 151.910
63.76000 153.472
63.80000 154.607
63.84000 153.005
63.88000 156.271
63.92000 162.978
63.96000 152.791
64.00000 159.457
64.04000 155.892
64.08000 172.312
64.12000 161.991
64.16000 157.547
64.20000 154.303
64.24000 154.777
64.28000 163.025
64.32000 173.130
64.36000 172.062
64.40000 171.086
64.44000 152.397
64.48000 163.069
64.52000 162.300
64.56000 171.177
64.60000 168.545
64.64000 170.867
64.68000 155.472
64.72000 166.505
64.76000 162.832
64.80000 165.396
64.84000 184.158
64.88000 189.019
64.92000 180.323
64.96000 180.372
65.00000 175.028
65.04000 178.686
65.08000 186.304
65.12000 185.733
65.16000 197.730
65.20000 203.202
65.24000 218.113
65.28000 224.461
65.32000 219.459
65.36000 218.667
65.40000 228.972
65.44000 253.456
65.48000 252.138
65.52000 269.514
65.56000 259.473
65.60000 286.777
65.64000 319.801
65.68000 376.235
65.72000 499.345
65.76000 743.272
65.80000 916.056
65.84000 1048.651
65.88000 1043.576
65.92000 1036.050
65.96000 895.964
66.00000 642.718
66.04000 425.476
66.08000 349.810
66.12000 308.348
66.16000 297.007
66.20000 302.050
66.24000 309.590
66.28000 322.436
66.32000 390.973
66.36000 393.453
66.40000 441.437
66.44000 437.417
66.48000 441.130
66.52000 408.136
66.56000 352.950
66.60000 330.307
66.64000 291.735
66.68000 299.571
66.72000 302.285
66.76000 316.403
66.80000 323.712
66.84000 327.742
66.88000 318.114
66.92000 314.902
66.96000 326.884
67.00000 329.395
67.04000 347.059
67.08000 340.036
67.12000 352.738
67.16000 361.784
67.20000 363.805
67.24000 370.114
67.28000 383.870
67.32000 405.964
67.36000 391.319
67.40000 406.177
67.44000 395.686
67.48000 427.704
67.52000 431.007
67.56000 413.109
67.60000 428.301
67.64000 448.582
67.68000 440.615
67.72000 450.702
67.76000 482.825
67.80000 474.485
67.84000 486.458
67.88000 486.272
67.92000 493.742
67.96000 524.157
68.00000 505.424
68.04000 531.529
68.08000 535.341
68.12000 551.059
68.16000 569.499
68.20000 584.604
68.24000 580.756
68.28000 629.424
68.32000 626.489
68.36000 659.657
68.40000 662.529
68.44000 692.054
68.48000 726.043
68.52000 780.806
68.56000 827.955
68.60000 903.124
68.64000 1055.576
68.68000 1226.561
68.72000 1425.439
68.76000 1611.842
68.80000 1795.494
68.84000 2057.866
68.88000 2588.113
68.92000 3911.003
68.96000 11196.246
69.00000 26209.523
69.04000 42602.891
69.08000 50573.375
69.12000 52403.996
69.16000 54631.027
69.20000 55010.711
69.24000 46391.578
69.28000 34747.035
69.32000 28412.674
69.36000 25864.240
69.40000 21431.463
69.44000 13889.992
69.48000 5986.653
69.52000 2692.114
69.56000 1718.201
69.60000 1353.528
69.64000 1189.813
69.68000 1047.923
69.72000 973.219
69.76000 860.072
69.80000 805.999
69.84000 759.678
69.88000 728.182
69.92000 690.906
69.96000 664.208
70.00000 644.497