File: XRD/XRD/24-09-2025 Dep 3/XY Data/BTO_Mapping_Theta2Theta_24-09-2025_001_19_-2-091_19-890.xy
20.00000 559.707
20.04000 558.613
20.08000 574.926
20.12000 593.026
20.16000 557.471
20.20000 555.867
20.24000 564.806
20.28000 573.317
20.32000 557.918
20.36000 566.665
20.40000 571.143
20.44000 537.984
20.48000 558.949
20.52000 546.300
20.56000 542.435
20.60000 548.953
20.64000 543.720
20.68000 574.682
20.72000 536.817
20.76000 551.289
20.80000 540.172
20.84000 524.459
20.88000 558.659
20.92000 561.920
20.96000 546.963
21.00000 574.135
21.04000 527.105
21.08000 545.550
21.12000 533.179
21.16000 549.713
21.20000 555.978
21.24000 525.006
21.28000 534.680
21.32000 530.279
21.36000 549.549
21.40000 543.219
21.44000 557.216
21.48000 546.023
21.52000 543.820
21.56000 533.807
21.60000 548.480
21.64000 557.085
21.68000 545.925
21.72000 571.850
21.76000 535.672
21.80000 548.003
21.84000 600.195
21.88000 606.290
21.92000 625.380
21.96000 634.400
22.00000 656.614
22.04000 670.344
22.08000 682.117
22.12000 685.719
22.16000 669.057
22.20000 648.038
22.24000 637.862
22.28000 638.311
22.32000 612.955
22.36000 582.441
22.40000 576.481
22.44000 582.153
22.48000 591.925
22.52000 555.084
22.56000 539.933
22.60000 537.092
22.64000 544.461
22.68000 515.665
22.72000 543.709
22.76000 530.483
22.80000 519.147
22.84000 507.664
22.88000 526.450
22.92000 526.841
22.96000 517.431
23.00000 513.658
23.04000 509.950
23.08000 501.637
23.12000 511.471
23.16000 520.788
23.20000 488.805
23.24000 522.548
23.28000 514.199
23.32000 512.532
23.36000 501.710
23.40000 481.066
23.44000 494.524
23.48000 497.218
23.52000 506.462
23.56000 498.093
23.60000 501.646
23.64000 494.796
23.68000 497.146
23.72000 488.535
23.76000 509.974
23.80000 519.965
23.84000 487.444
23.88000 486.632
23.92000 496.746
23.96000 496.444
24.00000 499.340
24.04000 493.855
24.08000 499.435
24.12000 505.740
24.16000 488.258
24.20000 477.684
24.24000 469.682
24.28000 477.286
24.32000 477.218
24.36000 469.309
24.40000 476.854
24.44000 500.499
24.48000 473.000
24.52000 482.127
24.56000 473.443
24.60000 478.913
24.64000 487.308
24.68000 479.971
24.72000 490.186
24.76000 477.070
24.80000 478.702
24.84000 475.290
24.88000 478.891
24.92000 475.376
24.96000 475.743
25.00000 487.178
25.04000 475.575
25.08000 465.236
25.12000 479.506
25.16000 478.101
25.20000 468.715
25.24000 465.046
25.28000 473.780
25.32000 482.267
25.36000 444.857
25.40000 467.332
25.44000 478.679
25.48000 488.935
25.52000 480.351
25.56000 454.034
25.60000 467.637
25.64000 440.891
25.68000 466.595
25.72000 476.933
25.76000 463.240
25.80000 483.209
25.84000 473.843
25.88000 455.489
25.92000 442.533
25.96000 462.886
26.00000 471.589
26.04000 465.617
26.08000 466.269
26.12000 472.770
26.16000 455.325
26.20000 465.439
26.24000 463.045
26.28000 450.222
26.32000 461.994
26.36000 450.744
26.40000 440.669
26.44000 451.742
26.48000 454.949
26.52000 440.819
26.56000 454.719
26.60000 479.123
26.64000 460.922
26.68000 454.100
26.72000 455.552
26.76000 454.029
26.80000 439.590
26.84000 446.293
26.88000 454.482
26.92000 440.648
26.96000 432.907
27.00000 439.080
27.04000 441.428
27.08000 454.531
27.12000 437.215
27.16000 445.920
27.20000 450.879
27.24000 430.555
27.28000 456.623
27.32000 447.058
27.36000 436.941
27.40000 434.931
27.44000 420.343
27.48000 445.627
27.52000 449.939
27.56000 421.900
27.60000 437.647
27.64000 409.048
27.68000 436.963
27.72000 443.436
27.76000 427.873
27.80000 432.225
27.84000 419.770
27.88000 420.721
27.92000 437.722
27.96000 436.665
28.00000 428.555
28.04000 435.934
28.08000 426.775
28.12000 418.933
28.16000 427.624
28.20000 430.380
28.24000 423.507
28.28000 436.014
28.32000 424.610
28.36000 439.695
28.40000 441.513
28.44000 416.275
28.48000 426.491
28.52000 437.610
28.56000 419.839
28.60000 419.014
28.64000 416.374
28.68000 414.886
28.72000 410.633
28.76000 429.141
28.80000 419.955
28.84000 418.363
28.88000 409.195
28.92000 409.002
28.96000 409.312
29.00000 426.317
29.04000 431.973
29.08000 399.529
29.12000 404.519
29.16000 405.209
29.20000 415.257
29.24000 409.153
29.28000 420.487
29.32000 404.226
29.36000 396.728
29.40000 411.931
29.44000 412.692
29.48000 429.105
29.52000 411.116
29.56000 411.174
29.60000 414.645
29.64000 409.767
29.68000 413.191
29.72000 401.369
29.76000 420.249
29.80000 445.652
29.84000 445.000
29.88000 426.817
29.92000 431.208
29.96000 426.331
30.00000 437.218
30.04000 444.969
30.08000 433.397
30.12000 457.699
30.16000 435.891
30.20000 437.770
30.24000 433.271
30.28000 435.072
30.32000 446.314
30.36000 423.190
30.40000 421.036
30.44000 435.699
30.48000 428.044
30.52000 430.647
30.56000 436.549
30.60000 413.408
30.64000 426.928
30.68000 421.592
30.72000 435.447
30.76000 433.357
30.80000 447.904
30.84000 485.556
30.88000 470.497
30.92000 489.015
30.96000 506.184
31.00000 563.646
31.04000 570.416
31.08000 704.828
31.12000 847.391
31.16000 1055.672
31.20000 1387.103
31.24000 1731.003
31.28000 2199.630
31.32000 2562.752
31.36000 2900.580
31.40000 2995.188
31.44000 2902.945
31.48000 2746.255
31.52000 2362.011
31.56000 1926.792
31.60000 1515.605
31.64000 1198.236
31.68000 970.500
31.72000 793.026
31.76000 660.428
31.80000 583.744
31.84000 526.734
31.88000 495.912
31.92000 478.793
31.96000 458.828
32.00000 443.116
32.04000 417.793
32.08000 429.953
32.12000 423.641
32.16000 404.977
32.20000 412.616
32.24000 408.669
32.28000 384.671
32.32000 402.999
32.36000 391.499
32.40000 401.662
32.44000 403.553
32.48000 374.207
32.52000 382.965
32.56000 388.649
32.60000 362.524
32.64000 362.338
32.68000 356.120
32.72000 360.351
32.76000 371.948
32.80000 402.524
32.84000 418.274
32.88000 482.524
32.92000 476.323
32.96000 489.727
33.00000 490.145
33.04000 467.922
33.08000 424.935
33.12000 400.138
33.16000 356.002
33.20000 351.821
33.24000 341.673
33.28000 348.645
33.32000 348.055
33.36000 342.065
33.40000 342.075
33.44000 365.649
33.48000 341.434
33.52000 334.782
33.56000 340.426
33.60000 342.359
33.64000 342.583
33.68000 351.513
33.72000 331.961
33.76000 326.080
33.80000 349.835
33.84000 358.422
33.88000 344.740
33.92000 351.604
33.96000 325.535
34.00000 342.192
34.04000 351.730
34.08000 322.585
34.12000 318.537
34.16000 343.554
34.20000 334.093
34.24000 348.066
34.28000 331.584
34.32000 337.077
34.36000 324.334
34.40000 326.181
34.44000 339.887
34.48000 330.820
34.52000 334.058
34.56000 324.364
34.60000 324.571
34.64000 330.038
34.68000 320.045
34.72000 325.042
34.76000 311.987
34.80000 330.124
34.84000 330.162
34.88000 313.843
34.92000 330.490
34.96000 311.593
35.00000 317.187
35.04000 333.089
35.08000 316.232
35.12000 321.329
35.16000 317.845
35.20000 317.494
35.24000 314.296
35.28000 314.158
35.32000 306.222
35.36000 310.878
35.40000 308.903
35.44000 300.667
35.48000 320.174
35.52000 308.119
35.56000 310.366
35.60000 301.217
35.64000 311.137
35.68000 295.489
35.72000 310.710
35.76000 311.062
35.80000 306.459
35.84000 311.285
35.88000 297.381
35.92000 292.170
35.96000 303.947
36.00000 298.466
36.04000 312.329
36.08000 291.449
36.12000 312.242
36.16000 308.631
36.20000 290.970
36.24000 291.428
36.28000 309.403
36.32000 302.238
36.36000 293.332
36.40000 301.562
36.44000 304.042
36.48000 297.461
36.52000 311.913
36.56000 289.615
36.60000 307.491
36.64000 291.063
36.68000 291.367
36.72000 288.451
36.76000 291.900
36.80000 295.661
36.84000 293.448
36.88000 300.779
36.92000 314.517
36.96000 304.074
37.00000 299.325
37.04000 312.242
37.08000 308.927
37.12000 314.632
37.16000 306.322
37.20000 309.860
37.24000 292.395
37.28000 315.859
37.32000 302.086
37.36000 301.420
37.40000 285.125
37.44000 304.540
37.48000 282.091
37.52000 297.081
37.56000 297.450
37.60000 297.741
37.64000 289.739
37.68000 295.002
37.72000 288.408
37.76000 290.065
37.80000 291.590
37.84000 302.204
37.88000 299.249
37.92000 296.324
37.96000 315.461
38.00000 315.388
38.04000 293.451
38.08000 299.468
38.12000 298.308
38.16000 328.365
38.20000 310.521
38.24000 303.846
38.28000 334.033
38.32000 346.478
38.36000 377.598
38.40000 412.558
38.44000 479.128
38.48000 516.517
38.52000 672.633
38.56000 830.631
38.60000 1069.776
38.64000 1276.260
38.68000 1496.442
38.72000 1578.661
38.76000 1606.550
38.80000 1476.048
38.84000 1281.689
38.88000 1041.221
38.92000 851.849
38.96000 638.138
39.00000 514.723
39.04000 425.349
39.08000 351.246
39.12000 335.084
39.16000 323.063
39.20000 328.348
39.24000 294.362
39.28000 303.700
39.32000 303.168
39.36000 295.264
39.40000 282.089
39.44000 270.396
39.48000 271.581
39.52000 273.630
39.56000 274.768
39.60000 266.703
39.64000 286.094
39.68000 272.616
39.72000 280.281
39.76000 265.073
39.80000 277.220
39.84000 267.684
39.88000 268.096
39.92000 262.480
39.96000 271.165
40.00000 261.627
40.04000 262.572
40.08000 260.265
40.12000 250.175
40.16000 251.825
40.20000 267.946
40.24000 260.515
40.28000 249.375
40.32000 253.001
40.36000 261.402
40.40000 251.171
40.44000 257.321
40.48000 260.582
40.52000 253.370
40.56000 251.529
40.60000 253.196
40.64000 253.494
40.68000 244.344
40.72000 245.323
40.76000 238.097
40.80000 255.577
40.84000 258.472
40.88000 255.655
40.92000 247.101
40.96000 241.343
41.00000 244.335
41.04000 243.622
41.08000 250.073
41.12000 243.121
41.16000 262.534
41.20000 256.731
41.24000 246.994
41.28000 250.912
41.32000 232.346
41.36000 257.234
41.40000 243.895
41.44000 256.044
41.48000 244.883
41.52000 239.921
41.56000 234.954
41.60000 237.856
41.64000 239.379
41.68000 257.772
41.72000 233.649
41.76000 244.323
41.80000 247.414
41.84000 240.984
41.88000 230.595
41.92000 234.330
41.96000 232.062
42.00000 237.354
42.04000 239.813
42.08000 247.864
42.12000 235.744
42.16000 212.259
42.20000 252.855
42.24000 228.360
42.28000 236.049
42.32000 226.694
42.36000 231.441
42.40000 223.602
42.44000 234.475
42.48000 239.747
42.52000 245.672
42.56000 245.875
42.60000 226.573
42.64000 238.699
42.68000 234.171
42.72000 237.244
42.76000 226.244
42.80000 233.871
42.84000 228.710
42.88000 243.923
42.92000 229.196
42.96000 230.969
43.00000 219.558
43.04000 212.182
43.08000 227.326
43.12000 230.466
43.16000 225.503
43.20000 227.265
43.24000 232.227
43.28000 221.432
43.32000 223.757
43.36000 235.381
43.40000 224.769
43.44000 220.869
43.48000 222.787
43.52000 216.578
43.56000 225.237
43.60000 217.143
43.64000 231.126
43.68000 226.454
43.72000 226.343
43.76000 232.696
43.80000 220.051
43.84000 211.755
43.88000 218.362
43.92000 210.705
43.96000 218.726
44.00000 219.749
44.04000 218.644
44.08000 209.313
44.12000 214.364
44.16000 232.299
44.20000 233.854
44.24000 220.476
44.28000 229.777
44.32000 217.488
44.36000 215.983
44.40000 220.288
44.44000 223.650
44.48000 230.499
44.52000 222.937
44.56000 223.759
44.60000 229.278
44.64000 226.816
44.68000 251.594
44.72000 247.138
44.76000 251.722
44.80000 254.725
44.84000 257.043
44.88000 273.660
44.92000 285.495
44.96000 312.365
45.00000 316.787
45.04000 315.473
45.08000 343.851
45.12000 327.927
45.16000 323.545
45.20000 325.587
45.24000 305.716
45.28000 314.839
45.32000 294.745
45.36000 292.135
45.40000 273.402
45.44000 267.536
45.48000 268.666
45.52000 262.354
45.56000 270.572
45.60000 260.483
45.64000 250.461
45.68000 253.462
45.72000 239.375
45.76000 240.737
45.80000 232.246
45.84000 229.857
45.88000 231.049
45.92000 212.274
45.96000 229.538
46.00000 207.153
46.04000 215.006
46.08000 205.482
46.12000 206.774
46.16000 204.136
46.20000 198.585
46.24000 198.990
46.28000 211.614
46.32000 201.531
46.36000 206.783
46.40000 200.651
46.44000 200.355
46.48000 197.758
46.52000 215.605
46.56000 207.845
46.60000 212.315
46.64000 186.634
46.68000 205.962
46.72000 216.189
46.76000 195.213
46.80000 203.609
46.84000 195.432
46.88000 199.321
46.92000 204.240
46.96000 202.604
47.00000 205.884
47.04000 197.292
47.08000 193.204
47.12000 200.258
47.16000 205.415
47.20000 197.125
47.24000 200.046
47.28000 185.056
47.32000 187.871
47.36000 188.901
47.40000 188.136
47.44000 183.968
47.48000 192.993
47.52000 189.542
47.56000 195.670
47.60000 189.508
47.64000 185.893
47.68000 187.312
47.72000 191.356
47.76000 181.700
47.80000 188.368
47.84000 190.859
47.88000 187.768
47.92000 185.953
47.96000 189.920
48.00000 189.684
48.04000 178.198
48.08000 198.663
48.12000 183.016
48.16000 193.465
48.20000 183.305
48.24000 178.837
48.28000 200.370
48.32000 177.942
48.36000 178.257
48.40000 177.141
48.44000 187.310
48.48000 184.497
48.52000 190.745
48.56000 188.028
48.60000 181.461
48.64000 187.625
48.68000 183.170
48.72000 170.701
48.76000 180.682
48.80000 179.589
48.84000 172.771
48.88000 178.127
48.92000 185.047
48.96000 179.788
49.00000 153.240
49.04000 181.742
49.08000 168.016
49.12000 187.919
49.16000 172.637
49.20000 161.495
49.24000 177.503
49.28000 178.329
49.32000 176.482
49.36000 177.385
49.40000 179.151
49.44000 175.869
49.48000 181.345
49.52000 170.250
49.56000 164.999
49.60000 177.451
49.64000 185.046
49.68000 174.778
49.72000 181.772
49.76000 179.443
49.80000 181.817
49.84000 173.871
49.88000 168.538
49.92000 178.694
49.96000 187.366
50.00000 190.490
50.04000 166.817
50.08000 183.024
50.12000 168.602
50.16000 178.103
50.20000 179.019
50.24000 181.707
50.28000 182.098
50.32000 184.221
50.36000 190.218
50.40000 189.582
50.44000 200.482
50.48000 194.210
50.52000 216.551
50.56000 219.004
50.60000 233.877
50.64000 220.355
50.68000 236.194
50.72000 232.091
50.76000 245.803
50.80000 235.084
50.84000 235.611
50.88000 223.454
50.92000 222.116
50.96000 221.703
51.00000 207.069
51.04000 206.295
51.08000 189.082
51.12000 191.463
51.16000 186.927
51.20000 181.526
51.24000 176.549
51.28000 182.304
51.32000 186.419
51.36000 180.274
51.40000 165.427
51.44000 171.239
51.48000 168.080
51.52000 171.222
51.56000 165.074
51.60000 173.980
51.64000 169.378
51.68000 165.087
51.72000 155.402
51.76000 171.623
51.80000 178.618
51.84000 166.093
51.88000 160.207
51.92000 168.054
51.96000 165.947
52.00000 160.356
52.04000 157.039
52.08000 175.794
52.12000 153.825
52.16000 167.534
52.20000 154.237
52.24000 157.268
52.28000 162.807
52.32000 159.622
52.36000 166.304
52.40000 163.114
52.44000 164.054
52.48000 160.619
52.52000 153.448
52.56000 159.477
52.60000 163.005
52.64000 164.353
52.68000 160.909
52.72000 159.670
52.76000 157.173
52.80000 156.485
52.84000 159.873
52.88000 152.350
52.92000 162.234
52.96000 154.825
53.00000 149.676
53.04000 152.514
53.08000 161.348
53.12000 152.796
53.16000 153.321
53.20000 154.264
53.24000 159.939
53.28000 161.587
53.32000 166.372
53.36000 168.698
53.40000 151.289
53.44000 167.285
53.48000 173.836
53.52000 159.597
53.56000 157.816
53.60000 163.004
53.64000 165.096
53.68000 158.456
53.72000 163.628
53.76000 177.112
53.80000 160.864
53.84000 161.118
53.88000 161.507
53.92000 163.378
53.96000 163.812
54.00000 165.981
54.04000 169.988
54.08000 152.278
54.12000 155.117
54.16000 159.052
54.20000 156.601
54.24000 157.372
54.28000 150.981
54.32000 151.132
54.36000 164.370
54.40000 154.544
54.44000 168.799
54.48000 159.105
54.52000 148.073
54.56000 163.341
54.60000 153.517
54.64000 155.783
54.68000 138.075
54.72000 153.000
54.76000 153.349
54.80000 170.534
54.84000 169.613
54.88000 150.073
54.92000 160.315
54.96000 154.574
55.00000 173.973
55.04000 160.432
55.08000 160.293
55.12000 172.817
55.16000 167.378
55.20000 155.647
55.24000 168.175
55.28000 160.576
55.32000 178.298
55.36000 176.755
55.40000 185.445
55.44000 170.558
55.48000 197.910
55.52000 209.559
55.56000 235.028
55.60000 245.847
55.64000 293.134
55.68000 320.654
55.72000 387.941
55.76000 487.321
55.80000 563.564
55.84000 665.858
55.88000 742.837
55.92000 824.709
55.96000 870.531
56.00000 861.197
56.04000 802.411
56.08000 734.977
56.12000 666.664
56.16000 572.672
56.20000 485.727
56.24000 432.824
56.28000 359.133
56.32000 290.794
56.36000 274.885
56.40000 245.003
56.44000 217.407
56.48000 210.155
56.52000 196.795
56.56000 181.220
56.60000 173.943
56.64000 167.188
56.68000 172.946
56.72000 164.164
56.76000 160.882
56.80000 154.876
56.84000 155.679
56.88000 150.351
56.92000 152.016
56.96000 157.856
57.00000 160.519
57.04000 154.982
57.08000 158.113
57.12000 155.409
57.16000 150.307
57.20000 152.146
57.24000 143.339
57.28000 146.633
57.32000 144.698
57.36000 140.661
57.40000 151.449
57.44000 148.922
57.48000 138.664
57.52000 143.094
57.56000 148.292
57.60000 139.406
57.64000 136.376
57.68000 142.166
57.72000 148.370
57.76000 134.378
57.80000 149.211
57.84000 148.361
57.88000 157.892
57.92000 146.896
57.96000 138.225
58.00000 140.335
58.04000 150.501
58.08000 132.005
58.12000 144.348
58.16000 153.113
58.20000 142.227
58.24000 131.033
58.28000 143.891
58.32000 140.541
58.36000 137.935
58.40000 136.014
58.44000 153.049
58.48000 149.998
58.52000 131.575
58.56000 139.900
58.60000 124.791
58.64000 137.035
58.68000 138.720
58.72000 132.858
58.76000 137.462
58.80000 119.245
58.84000 124.539
58.88000 138.667
58.92000 138.482
58.96000 151.770
59.00000 140.870
59.04000 129.558
59.08000 134.396
59.12000 128.219
59.16000 130.096
59.20000 133.724
59.24000 128.820
59.28000 139.401
59.32000 135.727
59.36000 131.265
59.40000 131.612
59.44000 141.500
59.48000 131.982
59.52000 128.388
59.56000 125.617
59.60000 132.344
59.64000 129.261
59.68000 125.922
59.72000 133.158
59.76000 133.712
59.80000 130.774
59.84000 123.908
59.88000 128.372
59.92000 126.489
59.96000 130.031
60.00000 127.173
60.04000 136.003
60.08000 136.429
60.12000 134.117
60.16000 129.002
60.20000 129.530
60.24000 131.192
60.28000 132.009
60.32000 126.208
60.36000 130.312
60.40000 130.748
60.44000 133.523
60.48000 128.807
60.52000 124.609
60.56000 132.878
60.60000 133.996
60.64000 135.710
60.68000 136.483
60.72000 131.716
60.76000 132.878
60.80000 129.406
60.84000 130.871
60.88000 124.703
60.92000 132.815
60.96000 122.948
61.00000 129.368
61.04000 124.675
61.08000 124.146
61.12000 134.429
61.16000 124.833
61.20000 140.812
61.24000 133.640
61.28000 126.130
61.32000 132.055
61.36000 132.993
61.40000 143.340
61.44000 144.987
61.48000 149.929
61.52000 155.338
61.56000 191.771
61.60000 221.164
61.64000 261.398
61.68000 284.509
61.72000 285.645
61.76000 268.727
61.80000 219.459
61.84000 178.895
61.88000 149.722
61.92000 149.578
61.96000 137.645
62.00000 141.250
62.04000 143.470
62.08000 136.103
62.12000 133.998
62.16000 142.721
62.20000 138.804
62.24000 146.730
62.28000 137.044
62.32000 133.971
62.36000 138.693
62.40000 146.122
62.44000 148.336
62.48000 142.990
62.52000 151.936
62.56000 134.986
62.60000 141.217
62.64000 144.411
62.68000 139.778
62.72000 132.498
62.76000 145.395
62.80000 130.758
62.84000 144.720
62.88000 134.897
62.92000 139.279
62.96000 144.686
63.00000 142.619
63.04000 141.001
63.08000 144.903
63.12000 136.592
63.16000 157.087
63.20000 137.131
63.24000 132.495
63.28000 142.944
63.32000 140.166
63.36000 142.741
63.40000 150.278
63.44000 162.230
63.48000 152.110
63.52000 145.275
63.56000 144.785
63.60000 147.346
63.64000 145.867
63.68000 147.721
63.72000 150.636
63.76000 139.221
63.80000 155.133
63.84000 144.729
63.88000 145.695
63.92000 156.128
63.96000 154.387
64.00000 158.584
64.04000 158.732
64.08000 160.051
64.12000 144.133
64.16000 156.742
64.20000 159.927
64.24000 147.115
64.28000 162.717
64.32000 153.828
64.36000 161.571
64.40000 162.503
64.44000 165.680
64.48000 157.128
64.52000 162.212
64.56000 165.952
64.60000 161.627
64.64000 161.390
64.68000 160.721
64.72000 178.238
64.76000 180.562
64.80000 173.570
64.84000 172.125
64.88000 180.576
64.92000 179.820
64.96000 193.806
65.00000 189.919
65.04000 201.811
65.08000 192.460
65.12000 209.224
65.16000 212.612
65.20000 237.032
65.24000 228.621
65.28000 255.641
65.32000 268.347
65.36000 293.161
65.40000 291.376
65.44000 326.579
65.48000 336.890
65.52000 366.057
65.56000 369.389
65.60000 405.943
65.64000 437.255
65.68000 495.904
65.72000 653.296
65.76000 854.108
65.80000 1048.722
65.84000 1140.917
65.88000 1178.914
65.92000 1132.122
65.96000 976.299
66.00000 718.810
66.04000 506.290
66.08000 391.419
66.12000 342.888
66.16000 320.731
66.20000 314.208
66.24000 328.858
66.28000 341.498
66.32000 393.935
66.36000 426.372
66.40000 449.466
66.44000 453.430
66.48000 461.781
66.52000 407.062
66.56000 362.139
66.60000 341.046
66.64000 325.826
66.68000 314.136
66.72000 312.411
66.76000 322.150
66.80000 334.417
66.84000 319.641
66.88000 325.538
66.92000 339.638
66.96000 326.942
67.00000 328.657
67.04000 345.596
67.08000 335.581
67.12000 356.247
67.16000 347.667
67.20000 347.158
67.24000 378.171
67.28000 380.470
67.32000 380.775
67.36000 370.900
67.40000 385.897
67.44000 393.432
67.48000 421.495
67.52000 411.170
67.56000 433.770
67.60000 419.430
67.64000 435.008
67.68000 456.643
67.72000 433.415
67.76000 458.991
67.80000 450.740
67.84000 459.406
67.88000 490.085
67.92000 479.962
67.96000 496.200
68.00000 527.946
68.04000 515.208
68.08000 527.825
68.12000 548.080
68.16000 550.939
68.20000 600.079
68.24000 570.248
68.28000 595.636
68.32000 599.193
68.36000 662.284
68.40000 670.188
68.44000 707.112
68.48000 705.995
68.52000 760.529
68.56000 817.697
68.60000 931.145
68.64000 1071.970
68.68000 1295.147
68.72000 1460.618
68.76000 1694.312
68.80000 1880.935
68.84000 2247.354
68.88000 2884.788
68.92000 4460.033
68.96000 11966.414
69.00000 27029.656
69.04000 44353.945
69.08000 53090.363
69.12000 56035.535
69.16000 57914.145
69.20000 58393.109
69.24000 49833.020
69.28000 37740.441
69.32000 30501.742
69.36000 27484.646
69.40000 22880.885
69.44000 14920.734
69.48000 6786.644
69.52000 3109.338
69.56000 1883.426
69.60000 1428.652
69.64000 1215.578
69.68000 1069.857
69.72000 956.585
69.76000 866.268
69.80000 828.126
69.84000 763.146
69.88000 716.890
69.92000 734.284
69.96000 671.789
70.00000 659.555