File: XRD/XRD/24-09-2025 Dep 3/XY Data/BTO_Mapping_Theta2Theta_24-09-2025_001_57_26-765_-29-726.xy
20.00000 578.397
20.04000 562.003
20.08000 565.245
20.12000 574.840
20.16000 579.121
20.20000 560.569
20.24000 572.620
20.28000 562.364
20.32000 551.304
20.36000 555.012
20.40000 553.357
20.44000 545.385
20.48000 567.115
20.52000 530.930
20.56000 554.946
20.60000 558.381
20.64000 560.727
20.68000 554.644
20.72000 584.583
20.76000 562.703
20.80000 558.580
20.84000 532.869
20.88000 557.461
20.92000 562.218
20.96000 560.190
21.00000 539.035
21.04000 550.861
21.08000 535.708
21.12000 555.369
21.16000 548.977
21.20000 544.774
21.24000 536.716
21.28000 544.175
21.32000 561.512
21.36000 558.626
21.40000 562.237
21.44000 546.063
21.48000 533.220
21.52000 535.522
21.56000 554.053
21.60000 561.198
21.64000 535.534
21.68000 563.452
21.72000 560.354
21.76000 560.810
21.80000 576.105
21.84000 574.434
21.88000 596.214
21.92000 595.816
21.96000 610.652
22.00000 606.113
22.04000 611.606
22.08000 602.980
22.12000 609.936
22.16000 579.559
22.20000 600.042
22.24000 601.773
22.28000 599.850
22.32000 585.651
22.36000 562.843
22.40000 558.715
22.44000 551.216
22.48000 546.669
22.52000 529.739
22.56000 529.744
22.60000 521.276
22.64000 544.271
22.68000 537.564
22.72000 508.786
22.76000 526.523
22.80000 517.302
22.84000 517.525
22.88000 518.656
22.92000 521.676
22.96000 513.254
23.00000 527.212
23.04000 527.508
23.08000 508.281
23.12000 514.965
23.16000 510.351
23.20000 510.426
23.24000 514.748
23.28000 510.018
23.32000 507.286
23.36000 523.133
23.40000 517.225
23.44000 521.263
23.48000 501.322
23.52000 527.041
23.56000 517.257
23.60000 520.448
23.64000 511.309
23.68000 502.178
23.72000 505.494
23.76000 540.637
23.80000 533.420
23.84000 538.516
23.88000 525.266
23.92000 535.784
23.96000 542.012
24.00000 550.675
24.04000 537.181
24.08000 553.822
24.12000 572.428
24.16000 538.255
24.20000 537.162
24.24000 524.098
24.28000 493.900
24.32000 487.532
24.36000 499.197
24.40000 506.638
24.44000 480.535
24.48000 487.652
24.52000 483.526
24.56000 487.332
24.60000 500.471
24.64000 477.992
24.68000 492.636
24.72000 466.762
24.76000 479.691
24.80000 501.857
24.84000 491.877
24.88000 488.421
24.92000 492.171
24.96000 480.552
25.00000 499.108
25.04000 470.296
25.08000 482.485
25.12000 486.789
25.16000 462.929
25.20000 492.152
25.24000 498.552
25.28000 482.532
25.32000 480.302
25.36000 462.884
25.40000 478.510
25.44000 473.043
25.48000 454.611
25.52000 464.883
25.56000 470.452
25.60000 458.721
25.64000 446.813
25.68000 464.637
25.72000 472.818
25.76000 466.812
25.80000 463.105
25.84000 457.457
25.88000 471.250
25.92000 472.763
25.96000 488.840
26.00000 483.416
26.04000 468.209
26.08000 459.806
26.12000 463.523
26.16000 471.664
26.20000 482.988
26.24000 472.264
26.28000 469.167
26.32000 463.813
26.36000 468.506
26.40000 442.256
26.44000 449.039
26.48000 458.044
26.52000 447.923
26.56000 451.787
26.60000 448.470
26.64000 447.080
26.68000 465.379
26.72000 441.790
26.76000 443.915
26.80000 437.423
26.84000 445.143
26.88000 445.287
26.92000 447.656
26.96000 446.307
27.00000 450.469
27.04000 444.735
27.08000 448.291
27.12000 451.958
27.16000 441.553
27.20000 449.055
27.24000 448.408
27.28000 431.277
27.32000 435.588
27.36000 464.329
27.40000 450.324
27.44000 430.878
27.48000 432.913
27.52000 441.692
27.56000 429.730
27.60000 441.143
27.64000 435.836
27.68000 432.302
27.72000 440.264
27.76000 455.379
27.80000 456.726
27.84000 467.607
27.88000 447.413
27.92000 451.248
27.96000 411.019
28.00000 425.231
28.04000 437.038
28.08000 429.631
28.12000 424.706
28.16000 439.158
28.20000 419.684
28.24000 425.075
28.28000 443.467
28.32000 423.028
28.36000 423.522
28.40000 416.905
28.44000 432.211
28.48000 425.217
28.52000 410.370
28.56000 395.667
28.60000 430.366
28.64000 408.097
28.68000 399.422
28.72000 434.333
28.76000 406.448
28.80000 420.436
28.84000 416.806
28.88000 433.161
28.92000 427.369
28.96000 415.501
29.00000 406.263
29.04000 426.297
29.08000 410.359
29.12000 432.337
29.16000 418.401
29.20000 415.823
29.24000 418.062
29.28000 399.949
29.32000 397.506
29.36000 410.873
29.40000 423.281
29.44000 394.574
29.48000 412.565
29.52000 423.352
29.56000 409.071
29.60000 422.958
29.64000 419.150
29.68000 414.654
29.72000 409.557
29.76000 394.668
29.80000 410.512
29.84000 414.374
29.88000 420.713
29.92000 418.895
29.96000 418.676
30.00000 443.802
30.04000 414.881
30.08000 435.613
30.12000 427.692
30.16000 421.270
30.20000 442.065
30.24000 433.415
30.28000 416.256
30.32000 409.195
30.36000 433.099
30.40000 419.767
30.44000 429.069
30.48000 432.633
30.52000 414.145
30.56000 419.397
30.60000 424.244
30.64000 429.339
30.68000 421.054
30.72000 425.181
30.76000 454.972
30.80000 441.316
30.84000 433.486
30.88000 460.509
30.92000 472.570
30.96000 509.460
31.00000 513.880
31.04000 550.162
31.08000 603.927
31.12000 688.149
31.16000 762.589
31.20000 898.883
31.24000 990.271
31.28000 1118.695
31.32000 1204.143
31.36000 1334.587
31.40000 1305.900
31.44000 1302.240
31.48000 1209.335
31.52000 1072.758
31.56000 937.015
31.60000 849.344
31.64000 750.849
31.68000 625.156
31.72000 591.752
31.76000 521.774
31.80000 494.966
31.84000 481.322
31.88000 451.048
31.92000 444.926
31.96000 426.076
32.00000 433.756
32.04000 424.163
32.08000 420.234
32.12000 427.829
32.16000 400.975
32.20000 396.498
32.24000 406.019
32.28000 390.066
32.32000 398.933
32.36000 396.826
32.40000 401.015
32.44000 388.159
32.48000 401.635
32.52000 388.626
32.56000 373.585
32.60000 360.380
32.64000 381.592
32.68000 393.237
32.72000 372.029
32.76000 362.086
32.80000 368.530
32.84000 417.387
32.88000 442.219
32.92000 461.522
32.96000 453.147
33.00000 431.975
33.04000 423.939
33.08000 389.411
33.12000 386.725
33.16000 352.417
33.20000 343.695
33.24000 356.446
33.28000 350.285
33.32000 358.038
33.36000 347.862
33.40000 342.505
33.44000 362.436
33.48000 338.945
33.52000 330.816
33.56000 352.082
33.60000 356.380
33.64000 343.377
33.68000 342.342
33.72000 343.526
33.76000 350.525
33.80000 347.513
33.84000 339.978
33.88000 354.304
33.92000 348.203
33.96000 362.174
34.00000 349.701
34.04000 358.409
34.08000 358.677
34.12000 353.376
34.16000 357.723
34.20000 344.605
34.24000 337.745
34.28000 354.168
34.32000 356.061
34.36000 376.420
34.40000 350.143
34.44000 357.271
34.48000 354.285
34.52000 351.924
34.56000 346.129
34.60000 334.601
34.64000 342.079
34.68000 327.096
34.72000 333.097
34.76000 319.006
34.80000 326.628
34.84000 336.424
34.88000 328.233
34.92000 326.353
34.96000 331.120
35.00000 317.242
35.04000 325.454
35.08000 324.001
35.12000 318.069
35.16000 300.755
35.20000 327.744
35.24000 326.407
35.28000 317.918
35.32000 311.385
35.36000 308.095
35.40000 333.429
35.44000 313.831
35.48000 311.201
35.52000 309.981
35.56000 300.771
35.60000 308.311
35.64000 322.741
35.68000 300.024
35.72000 318.043
35.76000 302.509
35.80000 288.452
35.84000 297.450
35.88000 319.614
35.92000 312.102
35.96000 310.127
36.00000 302.802
36.04000 306.985
36.08000 306.083
36.12000 306.826
36.16000 288.073
36.20000 302.783
36.24000 308.000
36.28000 309.290
36.32000 288.609
36.36000 289.501
36.40000 313.481
36.44000 299.314
36.48000 314.535
36.52000 315.255
36.56000 300.838
36.60000 290.100
36.64000 305.330
36.68000 291.949
36.72000 307.744
36.76000 307.094
36.80000 289.193
36.84000 287.492
36.88000 301.746
36.92000 283.965
36.96000 306.656
37.00000 304.330
37.04000 297.666
37.08000 306.053
37.12000 286.333
37.16000 303.343
37.20000 303.296
37.24000 295.762
37.28000 298.182
37.32000 300.755
37.36000 277.912
37.40000 295.293
37.44000 283.111
37.48000 286.090
37.52000 301.602
37.56000 296.776
37.60000 298.681
37.64000 281.399
37.68000 308.239
37.72000 295.342
37.76000 299.081
37.80000 309.615
37.84000 305.225
37.88000 296.386
37.92000 314.974
37.96000 302.390
38.00000 294.931
38.04000 304.305
38.08000 296.915
38.12000 300.166
38.16000 307.939
38.20000 316.663
38.24000 318.027
38.28000 323.970
38.32000 337.397
38.36000 364.917
38.40000 397.692
38.44000 424.673
38.48000 503.879
38.52000 608.572
38.56000 755.108
38.60000 919.664
38.64000 1079.475
38.68000 1220.724
38.72000 1301.677
38.76000 1314.094
38.80000 1208.979
38.84000 1087.552
38.88000 911.615
38.92000 758.936
38.96000 590.826
39.00000 492.511
39.04000 399.672
39.08000 347.803
39.12000 328.289
39.16000 297.320
39.20000 319.460
39.24000 287.347
39.28000 287.780
39.32000 282.797
39.36000 289.039
39.40000 293.766
39.44000 305.249
39.48000 299.032
39.52000 265.414
39.56000 285.826
39.60000 278.637
39.64000 278.402
39.68000 281.789
39.72000 278.627
39.76000 271.743
39.80000 270.313
39.84000 274.849
39.88000 268.883
39.92000 274.063
39.96000 263.357
40.00000 282.676
40.04000 254.780
40.08000 260.402
40.12000 261.215
40.16000 254.929
40.20000 254.219
40.24000 265.720
40.28000 260.128
40.32000 253.358
40.36000 257.584
40.40000 261.973
40.44000 271.774
40.48000 265.628
40.52000 246.154
40.56000 244.814
40.60000 254.227
40.64000 257.917
40.68000 259.147
40.72000 244.860
40.76000 254.371
40.80000 254.674
40.84000 264.552
40.88000 252.953
40.92000 256.095
40.96000 258.328
41.00000 255.871
41.04000 249.178
41.08000 236.251
41.12000 245.681
41.16000 241.202
41.20000 239.162
41.24000 241.213
41.28000 232.390
41.32000 253.749
41.36000 241.075
41.40000 243.295
41.44000 235.868
41.48000 239.181
41.52000 250.921
41.56000 244.947
41.60000 247.544
41.64000 243.690
41.68000 250.657
41.72000 245.557
41.76000 260.645
41.80000 240.843
41.84000 246.379
41.88000 234.105
41.92000 244.273
41.96000 255.514
42.00000 235.423
42.04000 256.573
42.08000 240.166
42.12000 242.295
42.16000 236.406
42.20000 221.551
42.24000 243.289
42.28000 246.032
42.32000 242.331
42.36000 246.025
42.40000 256.275
42.44000 232.400
42.48000 249.616
42.52000 252.936
42.56000 240.581
42.60000 236.646
42.64000 250.137
42.68000 245.042
42.72000 234.461
42.76000 241.002
42.80000 248.565
42.84000 236.238
42.88000 233.280
42.92000 224.696
42.96000 232.476
43.00000 227.347
43.04000 225.867
43.08000 226.709
43.12000 229.898
43.16000 227.772
43.20000 211.496
43.24000 222.349
43.28000 228.155
43.32000 218.772
43.36000 219.134
43.40000 239.084
43.44000 223.691
43.48000 228.737
43.52000 227.986
43.56000 235.193
43.60000 232.122
43.64000 220.309
43.68000 221.914
43.72000 218.009
43.76000 220.223
43.80000 223.180
43.84000 221.330
43.88000 216.113
43.92000 216.687
43.96000 226.618
44.00000 210.386
44.04000 215.361
44.08000 221.289
44.12000 222.968
44.16000 221.719
44.20000 214.061
44.24000 231.140
44.28000 215.403
44.32000 223.035
44.36000 227.914
44.40000 230.594
44.44000 239.656
44.48000 236.508
44.52000 229.693
44.56000 249.718
44.60000 248.808
44.64000 241.161
44.68000 250.060
44.72000 250.121
44.76000 246.161
44.80000 257.861
44.84000 257.863
44.88000 257.201
44.92000 260.730
44.96000 262.005
45.00000 265.144
45.04000 268.884
45.08000 277.757
45.12000 263.709
45.16000 272.794
45.20000 271.663
45.24000 258.353
45.28000 253.710
45.32000 250.362
45.36000 257.141
45.40000 238.839
45.44000 244.895
45.48000 238.189
45.52000 240.962
45.56000 234.904
45.60000 229.213
45.64000 222.504
45.68000 222.010
45.72000 221.211
45.76000 219.431
45.80000 212.536
45.84000 201.785
45.88000 206.584
45.92000 218.505
45.96000 209.610
46.00000 230.797
46.04000 216.126
46.08000 203.874
46.12000 197.531
46.16000 204.702
46.20000 199.152
46.24000 200.937
46.28000 209.758
46.32000 206.029
46.36000 206.309
46.40000 200.837
46.44000 209.875
46.48000 204.473
46.52000 194.126
46.56000 192.833
46.60000 208.413
46.64000 191.400
46.68000 215.044
46.72000 200.416
46.76000 206.472
46.80000 193.407
46.84000 203.631
46.88000 202.096
46.92000 190.895
46.96000 204.543
47.00000 214.502
47.04000 190.848
47.08000 184.901
47.12000 194.491
47.16000 191.399
47.20000 195.972
47.24000 196.659
47.28000 194.586
47.32000 189.480
47.36000 196.948
47.40000 195.521
47.44000 195.633
47.48000 182.385
47.52000 190.268
47.56000 189.589
47.60000 188.475
47.64000 195.907
47.68000 190.580
47.72000 191.950
47.76000 203.744
47.80000 200.384
47.84000 191.275
47.88000 170.834
47.92000 185.927
47.96000 194.471
48.00000 187.993
48.04000 177.882
48.08000 195.088
48.12000 198.884
48.16000 181.267
48.20000 183.693
48.24000 196.481
48.28000 186.359
48.32000 192.320
48.36000 188.357
48.40000 181.153
48.44000 174.839
48.48000 184.653
48.52000 186.774
48.56000 180.122
48.60000 198.888
48.64000 188.995
48.68000 189.164
48.72000 179.641
48.76000 188.617
48.80000 189.238
48.84000 181.220
48.88000 178.811
48.92000 183.317
48.96000 170.279
49.00000 180.635
49.04000 188.179
49.08000 181.042
49.12000 184.666
49.16000 184.040
49.20000 182.353
49.24000 182.920
49.28000 181.487
49.32000 183.729
49.36000 177.128
49.40000 173.177
49.44000 182.652
49.48000 180.484
49.52000 172.455
49.56000 178.048
49.60000 169.282
49.64000 166.529
49.68000 170.421
49.72000 186.319
49.76000 186.406
49.80000 178.150
49.84000 176.429
49.88000 168.867
49.92000 169.645
49.96000 175.185
50.00000 169.019
50.04000 174.360
50.08000 188.405
50.12000 176.516
50.16000 172.255
50.20000 177.066
50.24000 184.537
50.28000 189.819
50.32000 179.648
50.36000 178.154
50.40000 172.875
50.44000 171.635
50.48000 187.412
50.52000 183.157
50.56000 182.444
50.60000 189.414
50.64000 188.531
50.68000 179.106
50.72000 191.316
50.76000 202.609
50.80000 198.131
50.84000 198.692
50.88000 187.038
50.92000 193.479
50.96000 179.170
51.00000 172.764
51.04000 176.409
51.08000 169.337
51.12000 179.438
51.16000 181.956
51.20000 178.702
51.24000 174.622
51.28000 159.667
51.32000 164.532
51.36000 177.952
51.40000 166.503
51.44000 166.039
51.48000 168.225
51.52000 171.014
51.56000 162.554
51.60000 178.410
51.64000 166.825
51.68000 154.580
51.72000 163.202
51.76000 163.238
51.80000 169.224
51.84000 164.546
51.88000 165.097
51.92000 173.214
51.96000 161.867
52.00000 161.049
52.04000 166.002
52.08000 166.711
52.12000 162.018
52.16000 163.413
52.20000 171.764
52.24000 172.482
52.28000 161.580
52.32000 160.778
52.36000 164.277
52.40000 159.887
52.44000 158.916
52.48000 159.038
52.52000 162.828
52.56000 164.777
52.60000 167.793
52.64000 161.019
52.68000 155.439
52.72000 170.775
52.76000 155.639
52.80000 155.769
52.84000 163.225
52.88000 154.036
52.92000 168.848
52.96000 158.275
53.00000 161.626
53.04000 172.725
53.08000 171.393
53.12000 168.266
53.16000 177.302
53.20000 157.083
53.24000 162.905
53.28000 176.515
53.32000 167.432
53.36000 177.330
53.40000 163.649
53.44000 173.915
53.48000 162.568
53.52000 159.582
53.56000 170.197
53.60000 158.591
53.64000 155.394
53.68000 156.776
53.72000 169.823
53.76000 158.730
53.80000 161.319
53.84000 151.515
53.88000 157.862
53.92000 155.410
53.96000 160.918
54.00000 157.077
54.04000 157.194
54.08000 161.806
54.12000 171.862
54.16000 163.580
54.20000 155.788
54.24000 157.658
54.28000 157.525
54.32000 159.715
54.36000 164.245
54.40000 154.439
54.44000 159.966
54.48000 164.957
54.52000 151.093
54.56000 160.189
54.60000 166.265
54.64000 166.866
54.68000 165.727
54.72000 162.478
54.76000 154.930
54.80000 164.097
54.84000 150.054
54.88000 157.858
54.92000 161.747
54.96000 171.974
55.00000 159.953
55.04000 170.184
55.08000 171.087
55.12000 163.604
55.16000 173.838
55.20000 174.288
55.24000 172.635
55.28000 182.387
55.32000 184.474
55.36000 188.595
55.40000 199.285
55.44000 208.188
55.48000 207.897
55.52000 231.502
55.56000 241.200
55.60000 264.569
55.64000 311.524
55.68000 352.381
55.72000 365.703
55.76000 424.235
55.80000 483.335
55.84000 542.882
55.88000 592.353
55.92000 640.258
55.96000 639.219
56.00000 623.748
56.04000 625.205
56.08000 578.752
56.12000 538.022
56.16000 473.731
56.20000 416.029
56.24000 366.172
56.28000 318.167
56.32000 302.603
56.36000 258.203
56.40000 249.348
56.44000 213.196
56.48000 207.485
56.52000 201.130
56.56000 182.590
56.60000 174.419
56.64000 171.363
56.68000 175.360
56.72000 173.861
56.76000 161.267
56.80000 164.046
56.84000 154.435
56.88000 161.989
56.92000 155.920
56.96000 162.283
57.00000 158.622
57.04000 156.449
57.08000 158.975
57.12000 150.787
57.16000 150.931
57.20000 144.994
57.24000 150.433
57.28000 154.940
57.32000 152.270
57.36000 149.093
57.40000 144.807
57.44000 151.830
57.48000 141.128
57.52000 152.544
57.56000 144.550
57.60000 144.797
57.64000 152.980
57.68000 161.258
57.72000 146.345
57.76000 138.891
57.80000 146.317
57.84000 146.071
57.88000 152.844
57.92000 147.930
57.96000 139.012
58.00000 147.251
58.04000 142.873
58.08000 148.596
58.12000 141.415
58.16000 148.210
58.20000 158.222
58.24000 139.253
58.28000 137.143
58.32000 138.180
58.36000 136.838
58.40000 138.481
58.44000 139.147
58.48000 145.019
58.52000 139.300
58.56000 146.185
58.60000 140.980
58.64000 137.239
58.68000 150.205
58.72000 134.702
58.76000 135.963
58.80000 138.636
58.84000 139.194
58.88000 139.077
58.92000 138.487
58.96000 149.213
59.00000 138.477
59.04000 136.653
59.08000 139.786
59.12000 131.618
59.16000 135.163
59.20000 129.640
59.24000 135.961
59.28000 132.214
59.32000 125.518
59.36000 137.544
59.40000 134.852
59.44000 136.993
59.48000 132.018
59.52000 132.537
59.56000 146.054
59.60000 132.128
59.64000 128.584
59.68000 134.191
59.72000 135.417
59.76000 139.050
59.80000 138.147
59.84000 126.944
59.88000 141.308
59.92000 140.577
59.96000 139.966
60.00000 130.888
60.04000 132.476
60.08000 132.016
60.12000 127.371
60.16000 134.519
60.20000 131.292
60.24000 135.568
60.28000 136.196
60.32000 130.711
60.36000 133.958
60.40000 139.519
60.44000 132.802
60.48000 138.603
60.52000 149.921
60.56000 134.811
60.60000 139.146
60.64000 136.007
60.68000 126.550
60.72000 137.559
60.76000 118.358
60.80000 133.740
60.84000 140.483
60.88000 133.006
60.92000 138.011
60.96000 128.339
61.00000 130.280
61.04000 134.697
61.08000 127.561
61.12000 133.132
61.16000 138.432
61.20000 127.663
61.24000 144.079
61.28000 140.134
61.32000 132.300
61.36000 143.616
61.40000 126.244
61.44000 137.953
61.48000 153.422
61.52000 163.496
61.56000 200.408
61.60000 247.991
61.64000 254.507
61.68000 277.514
61.72000 267.203
61.76000 258.057
61.80000 218.831
61.84000 174.796
61.88000 154.088
61.92000 157.838
61.96000 144.027
62.00000 144.768
62.04000 147.651
62.08000 138.119
62.12000 138.101
62.16000 132.136
62.20000 141.826
62.24000 136.322
62.28000 137.175
62.32000 152.895
62.36000 145.582
62.40000 148.844
62.44000 135.791
62.48000 146.221
62.52000 142.342
62.56000 146.434
62.60000 137.042
62.64000 139.558
62.68000 144.535
62.72000 143.428
62.76000 144.832
62.80000 147.958
62.84000 139.805
62.88000 145.673
62.92000 148.775
62.96000 136.784
63.00000 141.824
63.04000 149.203
63.08000 151.554
63.12000 156.461
63.16000 144.913
63.20000 146.868
63.24000 143.486
63.28000 149.181
63.32000 153.762
63.36000 140.497
63.40000 142.291
63.44000 143.827
63.48000 145.473
63.52000 151.841
63.56000 151.228
63.60000 149.721
63.64000 155.592
63.68000 154.685
63.72000 146.707
63.76000 153.228
63.80000 145.819
63.84000 144.743
63.88000 160.690
63.92000 151.747
63.96000 154.615
64.00000 155.054
64.04000 164.111
64.08000 166.886
64.12000 159.764
64.16000 157.816
64.20000 157.099
64.24000 160.216
64.28000 161.922
64.32000 164.130
64.36000 160.173
64.40000 157.659
64.44000 164.444
64.48000 161.835
64.52000 171.892
64.56000 159.539
64.60000 162.770
64.64000 169.743
64.68000 164.247
64.72000 170.243
64.76000 174.374
64.80000 176.632
64.84000 178.983
64.88000 185.268
64.92000 186.522
64.96000 189.565
65.00000 197.152
65.04000 195.709
65.08000 210.252
65.12000 197.779
65.16000 197.513
65.20000 196.867
65.24000 213.700
65.28000 211.181
65.32000 217.900
65.36000 220.368
65.40000 229.676
65.44000 246.870
65.48000 263.794
65.52000 257.443
65.56000 277.916
65.60000 298.613
65.64000 321.688
65.68000 384.390
65.72000 519.385
65.76000 740.588
65.80000 945.604
65.84000 1053.070
65.88000 1082.986
65.92000 1080.856
65.96000 838.902
66.00000 625.322
66.04000 442.439
66.08000 344.885
66.12000 311.025
66.16000 306.956
66.20000 293.499
66.24000 316.322
66.28000 358.757
66.32000 375.431
66.36000 395.194
66.40000 431.007
66.44000 433.929
66.48000 441.174
66.52000 406.047
66.56000 373.530
66.60000 341.096
66.64000 315.243
66.68000 320.508
66.72000 317.508
66.76000 315.876
66.80000 329.166
66.84000 311.568
66.88000 339.283
66.92000 331.369
66.96000 339.065
67.00000 346.586
67.04000 349.484
67.08000 337.908
67.12000 348.047
67.16000 361.615
67.20000 362.401
67.24000 372.790
67.28000 365.911
67.32000 372.966
67.36000 385.595
67.40000 400.080
67.44000 401.206
67.48000 431.016
67.52000 433.059
67.56000 418.986
67.60000 441.214
67.64000 430.741
67.68000 449.874
67.72000 451.177
67.76000 463.214
67.80000 474.063
67.84000 494.654
67.88000 499.609
67.92000 504.897
67.96000 543.364
68.00000 513.824
68.04000 525.171
68.08000 526.971
68.12000 548.034
68.16000 572.247
68.20000 582.681
68.24000 596.362
68.28000 621.143
68.32000 608.381
68.36000 638.689
68.40000 687.615
68.44000 723.387
68.48000 746.916
68.52000 764.651
68.56000 849.753
68.60000 915.699
68.64000 1053.335
68.68000 1276.683
68.72000 1462.549
68.76000 1631.244
68.80000 1801.629
68.84000 2121.275
68.88000 2651.552
68.92000 4136.544
68.96000 11907.104
69.00000 27315.471
69.04000 44277.840
69.08000 52231.219
69.12000 54140.926
69.16000 56209.707
69.20000 56412.043
69.24000 47446.355
69.28000 35504.879
69.32000 29230.223
69.36000 26397.199
69.40000 21802.363
69.44000 13775.475
69.48000 6017.971
69.52000 2725.503
69.56000 1729.779
69.60000 1400.896
69.64000 1159.500
69.68000 1040.749
69.72000 945.738
69.76000 853.270
69.80000 808.926
69.84000 758.002
69.88000 744.313
69.92000 703.589
69.96000 677.411
70.00000 654.732