File: XRD/XRD/24-09-2025 Dep 3/XY Data/BTO_Mapping_Theta2Theta_24-09-2025_001_07_18-271_8-135.xy
20.00000 563.411
20.04000 558.743
20.08000 562.638
20.12000 567.898
20.16000 565.025
20.20000 569.013
20.24000 553.099
20.28000 552.306
20.32000 534.266
20.36000 543.822
20.40000 545.767
20.44000 571.243
20.48000 554.799
20.52000 574.870
20.56000 568.343
20.60000 551.446
20.64000 562.664
20.68000 553.040
20.72000 552.619
20.76000 553.648
20.80000 567.548
20.84000 571.118
20.88000 553.504
20.92000 535.654
20.96000 549.882
21.00000 544.223
21.04000 538.773
21.08000 560.998
21.12000 533.859
21.16000 552.891
21.20000 558.030
21.24000 532.697
21.28000 551.815
21.32000 547.652
21.36000 545.464
21.40000 537.527
21.44000 534.649
21.48000 543.479
21.52000 543.812
21.56000 536.442
21.60000 556.224
21.64000 578.937
21.68000 555.749
21.72000 540.462
21.76000 537.049
21.80000 558.042
21.84000 552.382
21.88000 560.098
21.92000 577.042
21.96000 581.731
22.00000 597.119
22.04000 626.206
22.08000 618.921
22.12000 634.702
22.16000 620.886
22.20000 606.634
22.24000 590.139
22.28000 584.900
22.32000 578.715
22.36000 567.310
22.40000 564.493
22.44000 562.143
22.48000 540.708
22.52000 539.772
22.56000 524.378
22.60000 522.531
22.64000 540.191
22.68000 525.434
22.72000 552.423
22.76000 518.816
22.80000 491.639
22.84000 512.330
22.88000 493.951
22.92000 503.411
22.96000 510.558
23.00000 501.653
23.04000 505.301
23.08000 517.094
23.12000 506.788
23.16000 501.728
23.20000 515.298
23.24000 526.595
23.28000 497.839
23.32000 514.833
23.36000 501.141
23.40000 499.301
23.44000 528.168
23.48000 519.847
23.52000 507.352
23.56000 499.591
23.60000 502.177
23.64000 476.311
23.68000 501.793
23.72000 506.820
23.76000 507.189
23.80000 488.915
23.84000 515.720
23.88000 509.057
23.92000 490.830
23.96000 512.319
24.00000 493.622
24.04000 503.844
24.08000 505.876
24.12000 496.415
24.16000 488.365
24.20000 485.055
24.24000 491.408
24.28000 482.357
24.32000 498.240
24.36000 493.231
24.40000 482.345
24.44000 462.459
24.48000 475.143
24.52000 500.894
24.56000 488.997
24.60000 493.811
24.64000 456.947
24.68000 494.576
24.72000 484.033
24.76000 474.323
24.80000 491.026
24.84000 501.413
24.88000 468.163
24.92000 471.239
24.96000 470.615
25.00000 480.152
25.04000 467.866
25.08000 470.210
25.12000 473.408
25.16000 476.233
25.20000 475.434
25.24000 459.253
25.28000 469.897
25.32000 482.003
25.36000 478.973
25.40000 461.188
25.44000 489.700
25.48000 459.182
25.52000 475.498
25.56000 461.032
25.60000 472.514
25.64000 474.966
25.68000 460.380
25.72000 459.766
25.76000 468.262
25.80000 447.637
25.84000 470.122
25.88000 457.875
25.92000 462.045
25.96000 452.152
26.00000 477.235
26.04000 461.419
26.08000 486.105
26.12000 460.221
26.16000 461.326
26.20000 459.424
26.24000 461.840
26.28000 450.754
26.32000 449.823
26.36000 463.717
26.40000 451.440
26.44000 455.092
26.48000 459.034
26.52000 441.470
26.56000 449.331
26.60000 443.116
26.64000 446.351
26.68000 431.781
26.72000 444.253
26.76000 449.577
26.80000 434.791
26.84000 435.914
26.88000 419.428
26.92000 452.449
26.96000 443.655
27.00000 458.454
27.04000 445.585
27.08000 430.418
27.12000 423.214
27.16000 444.330
27.20000 449.102
27.24000 443.345
27.28000 422.751
27.32000 434.045
27.36000 444.891
27.40000 420.328
27.44000 417.154
27.48000 446.243
27.52000 432.220
27.56000 437.844
27.60000 433.174
27.64000 435.751
27.68000 429.757
27.72000 432.168
27.76000 437.310
27.80000 435.055
27.84000 442.657
27.88000 417.316
27.92000 412.036
27.96000 413.800
28.00000 411.406
28.04000 420.361
28.08000 436.678
28.12000 428.820
28.16000 428.304
28.20000 421.003
28.24000 417.638
28.28000 415.452
28.32000 420.396
28.36000 432.700
28.40000 442.967
28.44000 436.210
28.48000 428.984
28.52000 399.387
28.56000 417.273
28.60000 418.675
28.64000 417.754
28.68000 429.196
28.72000 431.533
28.76000 410.267
28.80000 417.992
28.84000 403.407
28.88000 435.940
28.92000 415.419
28.96000 419.504
29.00000 397.934
29.04000 414.398
29.08000 407.015
29.12000 400.746
29.16000 421.012
29.20000 407.954
29.24000 410.957
29.28000 425.485
29.32000 427.374
29.36000 410.080
29.40000 409.144
29.44000 410.965
29.48000 418.086
29.52000 399.086
29.56000 413.202
29.60000 417.938
29.64000 409.588
29.68000 405.500
29.72000 388.841
29.76000 413.766
29.80000 417.198
29.84000 411.732
29.88000 401.717
29.92000 421.294
29.96000 412.623
30.00000 406.025
30.04000 439.047
30.08000 410.399
30.12000 422.113
30.16000 424.492
30.20000 409.558
30.24000 409.837
30.28000 416.103
30.32000 405.417
30.36000 423.267
30.40000 422.265
30.44000 402.065
30.48000 392.494
30.52000 405.905
30.56000 424.542
30.60000 426.176
30.64000 414.499
30.68000 412.136
30.72000 425.478
30.76000 421.468
30.80000 429.159
30.84000 450.136
30.88000 442.384
30.92000 452.822
30.96000 456.567
31.00000 483.345
31.04000 511.695
31.08000 536.495
31.12000 650.502
31.16000 750.396
31.20000 881.867
31.24000 1020.590
31.28000 1214.593
31.32000 1355.904
31.36000 1491.111
31.40000 1567.165
31.44000 1576.206
31.48000 1508.653
31.52000 1342.007
31.56000 1193.837
31.60000 990.548
31.64000 829.789
31.68000 688.684
31.72000 619.380
31.76000 547.049
31.80000 513.385
31.84000 476.441
31.88000 464.160
31.92000 431.026
31.96000 423.116
32.00000 429.693
32.04000 425.232
32.08000 408.733
32.12000 396.325
32.16000 396.340
32.20000 398.906
32.24000 383.389
32.28000 404.887
32.32000 390.881
32.36000 388.488
32.40000 408.696
32.44000 384.116
32.48000 374.267
32.52000 376.120
32.56000 385.558
32.60000 365.231
32.64000 359.054
32.68000 372.200
32.72000 378.909
32.76000 371.132
32.80000 374.192
32.84000 419.073
32.88000 439.859
32.92000 452.868
32.96000 439.499
33.00000 430.495
33.04000 432.523
33.08000 404.951
33.12000 391.379
33.16000 346.509
33.20000 356.135
33.24000 356.748
33.28000 341.626
33.32000 338.544
33.36000 343.685
33.40000 353.423
33.44000 340.255
33.48000 332.628
33.52000 344.399
33.56000 328.094
33.60000 346.136
33.64000 340.934
33.68000 342.748
33.72000 327.932
33.76000 327.417
33.80000 333.213
33.84000 336.278
33.88000 332.305
33.92000 339.282
33.96000 338.582
34.00000 334.222
34.04000 341.337
34.08000 331.757
34.12000 326.303
34.16000 313.179
34.20000 333.188
34.24000 319.071
34.28000 329.474
34.32000 322.214
34.36000 330.694
34.40000 320.290
34.44000 326.848
34.48000 324.045
34.52000 338.925
34.56000 324.148
34.60000 316.709
34.64000 324.720
34.68000 330.566
34.72000 331.825
34.76000 312.741
34.80000 317.536
34.84000 336.734
34.88000 325.565
34.92000 329.495
34.96000 303.777
35.00000 313.387
35.04000 315.302
35.08000 327.636
35.12000 314.726
35.16000 330.606
35.20000 312.542
35.24000 309.492
35.28000 307.335
35.32000 313.916
35.36000 324.802
35.40000 326.643
35.44000 320.712
35.48000 318.796
35.52000 308.730
35.56000 313.720
35.60000 291.786
35.64000 300.014
35.68000 292.737
35.72000 308.765
35.76000 302.676
35.80000 299.919
35.84000 301.941
35.88000 321.046
35.92000 307.910
35.96000 306.090
36.00000 305.367
36.04000 300.555
36.08000 306.959
36.12000 312.503
36.16000 310.028
36.20000 292.263
36.24000 301.667
36.28000 300.826
36.32000 279.857
36.36000 293.801
36.40000 331.397
36.44000 298.854
36.48000 287.480
36.52000 306.502
36.56000 298.183
36.60000 305.669
36.64000 292.344
36.68000 307.127
36.72000 289.521
36.76000 282.745
36.80000 284.572
36.84000 303.338
36.88000 312.312
36.92000 315.596
36.96000 304.425
37.00000 310.061
37.04000 316.889
37.08000 307.938
37.12000 311.273
37.16000 314.827
37.20000 305.656
37.24000 299.355
37.28000 300.120
37.32000 300.683
37.36000 300.787
37.40000 294.400
37.44000 279.691
37.48000 294.260
37.52000 299.006
37.56000 292.707
37.60000 297.105
37.64000 290.567
37.68000 293.360
37.72000 302.106
37.76000 289.155
37.80000 299.149
37.84000 294.601
37.88000 298.319
37.92000 294.599
37.96000 288.013
38.00000 287.299
38.04000 294.221
38.08000 320.869
38.12000 296.475
38.16000 299.232
38.20000 309.149
38.24000 301.697
38.28000 322.683
38.32000 319.811
38.36000 316.421
38.40000 367.929
38.44000 421.680
38.48000 470.456
38.52000 585.690
38.56000 784.809
38.60000 939.152
38.64000 1166.080
38.68000 1356.342
38.72000 1481.011
38.76000 1502.433
38.80000 1477.172
38.84000 1309.465
38.88000 1087.892
38.92000 894.450
38.96000 694.920
39.00000 541.169
39.04000 445.297
39.08000 392.736
39.12000 352.786
39.16000 327.265
39.20000 317.520
39.24000 287.789
39.28000 290.989
39.32000 270.712
39.36000 268.488
39.40000 282.611
39.44000 281.186
39.48000 284.172
39.52000 275.426
39.56000 267.221
39.60000 291.328
39.64000 284.156
39.68000 279.026
39.72000 288.244
39.76000 274.075
39.80000 263.731
39.84000 268.446
39.88000 271.154
39.92000 268.645
39.96000 265.620
40.00000 266.312
40.04000 260.123
40.08000 250.749
40.12000 264.943
40.16000 267.676
40.20000 267.545
40.24000 264.285
40.28000 247.965
40.32000 254.619
40.36000 244.637
40.40000 248.069
40.44000 241.746
40.48000 251.725
40.52000 250.048
40.56000 245.802
40.60000 250.865
40.64000 280.683
40.68000 258.276
40.72000 264.648
40.76000 241.289
40.80000 248.032
40.84000 260.170
40.88000 244.481
40.92000 257.227
40.96000 255.233
41.00000 244.574
41.04000 243.925
41.08000 246.262
41.12000 221.319
41.16000 238.739
41.20000 240.535
41.24000 253.997
41.28000 241.912
41.32000 244.410
41.36000 236.213
41.40000 227.040
41.44000 232.347
41.48000 232.390
41.52000 239.609
41.56000 248.745
41.60000 231.484
41.64000 239.238
41.68000 234.079
41.72000 229.180
41.76000 230.440
41.80000 231.402
41.84000 236.450
41.88000 222.263
41.92000 231.310
41.96000 229.194
42.00000 229.894
42.04000 236.503
42.08000 238.911
42.12000 228.207
42.16000 231.219
42.20000 224.523
42.24000 241.712
42.28000 244.028
42.32000 229.003
42.36000 236.993
42.40000 230.094
42.44000 227.543
42.48000 231.465
42.52000 240.721
42.56000 235.396
42.60000 230.176
42.64000 230.610
42.68000 225.785
42.72000 225.325
42.76000 226.732
42.80000 216.000
42.84000 242.906
42.88000 227.029
42.92000 230.555
42.96000 237.368
43.00000 242.854
43.04000 226.025
43.08000 226.322
43.12000 230.697
43.16000 220.635
43.20000 231.193
43.24000 219.254
43.28000 218.460
43.32000 205.458
43.36000 217.053
43.40000 206.211
43.44000 234.639
43.48000 225.891
43.52000 223.837
43.56000 231.615
43.60000 232.947
43.64000 208.300
43.68000 219.699
43.72000 222.688
43.76000 220.539
43.80000 225.469
43.84000 218.176
43.88000 216.367
43.92000 212.737
43.96000 219.349
44.00000 214.070
44.04000 218.018
44.08000 227.879
44.12000 227.786
44.16000 219.335
44.20000 211.207
44.24000 202.200
44.28000 228.124
44.32000 225.217
44.36000 227.409
44.40000 224.186
44.44000 233.951
44.48000 201.656
44.52000 219.265
44.56000 214.875
44.60000 219.071
44.64000 215.787
44.68000 218.326
44.72000 233.500
44.76000 228.138
44.80000 228.908
44.84000 237.126
44.88000 249.751
44.92000 252.404
44.96000 247.702
45.00000 253.977
45.04000 251.536
45.08000 262.393
45.12000 279.208
45.16000 274.872
45.20000 258.489
45.24000 269.264
45.28000 252.237
45.32000 253.676
45.36000 243.419
45.40000 249.687
45.44000 251.010
45.48000 236.533
45.52000 228.303
45.56000 236.160
45.60000 225.193
45.64000 230.942
45.68000 240.656
45.72000 220.475
45.76000 226.553
45.80000 222.667
45.84000 216.829
45.88000 215.384
45.92000 227.838
45.96000 213.479
46.00000 227.507
46.04000 213.007
46.08000 197.958
46.12000 190.238
46.16000 212.894
46.20000 210.851
46.24000 196.523
46.28000 203.729
46.32000 211.646
46.36000 205.494
46.40000 200.132
46.44000 206.424
46.48000 192.426
46.52000 198.217
46.56000 195.355
46.60000 201.423
46.64000 188.095
46.68000 196.520
46.72000 205.949
46.76000 200.332
46.80000 203.698
46.84000 194.874
46.88000 202.538
46.92000 185.771
46.96000 189.888
47.00000 200.150
47.04000 201.064
47.08000 187.216
47.12000 184.597
47.16000 200.892
47.20000 186.994
47.24000 186.780
47.28000 193.029
47.32000 190.868
47.36000 186.761
47.40000 193.083
47.44000 187.039
47.48000 184.231
47.52000 183.273
47.56000 190.672
47.60000 193.753
47.64000 174.114
47.68000 175.827
47.72000 173.927
47.76000 185.418
47.80000 192.724
47.84000 189.655
47.88000 197.070
47.92000 180.717
47.96000 185.225
48.00000 190.491
48.04000 192.438
48.08000 183.257
48.12000 181.178
48.16000 183.871
48.20000 185.791
48.24000 180.756
48.28000 190.237
48.32000 179.575
48.36000 190.857
48.40000 188.648
48.44000 184.412
48.48000 180.150
48.52000 185.083
48.56000 184.889
48.60000 189.642
48.64000 176.930
48.68000 183.438
48.72000 166.451
48.76000 171.877
48.80000 190.751
48.84000 180.416
48.88000 181.709
48.92000 181.094
48.96000 178.503
49.00000 178.041
49.04000 180.227
49.08000 176.721
49.12000 196.735
49.16000 164.535
49.20000 170.084
49.24000 182.021
49.28000 177.559
49.32000 178.881
49.36000 183.291
49.40000 162.620
49.44000 176.648
49.48000 175.718
49.52000 170.605
49.56000 176.234
49.60000 171.644
49.64000 166.605
49.68000 168.388
49.72000 166.636
49.76000 177.311
49.80000 175.530
49.84000 168.412
49.88000 173.662
49.92000 180.164
49.96000 175.320
50.00000 184.472
50.04000 188.411
50.08000 176.862
50.12000 176.057
50.16000 192.687
50.20000 177.195
50.24000 199.131
50.28000 176.491
50.32000 192.105
50.36000 170.225
50.40000 177.710
50.44000 183.075
50.48000 181.671
50.52000 193.436
50.56000 193.976
50.60000 185.397
50.64000 180.353
50.68000 192.850
50.72000 193.418
50.76000 186.800
50.80000 189.842
50.84000 178.626
50.88000 184.737
50.92000 186.923
50.96000 186.716
51.00000 183.149
51.04000 174.795
51.08000 179.917
51.12000 179.134
51.16000 172.543
51.20000 179.076
51.24000 184.180
51.28000 157.543
51.32000 173.568
51.36000 163.958
51.40000 169.855
51.44000 167.421
51.48000 162.796
51.52000 175.490
51.56000 174.412
51.60000 160.045
51.64000 162.056
51.68000 159.957
51.72000 168.595
51.76000 169.333
51.80000 172.122
51.84000 169.990
51.88000 157.230
51.92000 166.513
51.96000 154.297
52.00000 171.245
52.04000 162.703
52.08000 159.215
52.12000 168.876
52.16000 163.065
52.20000 171.145
52.24000 161.868
52.28000 160.104
52.32000 153.943
52.36000 162.540
52.40000 160.336
52.44000 157.357
52.48000 160.416
52.52000 152.207
52.56000 148.479
52.60000 168.372
52.64000 158.252
52.68000 159.006
52.72000 162.226
52.76000 160.302
52.80000 156.663
52.84000 160.516
52.88000 161.484
52.92000 160.022
52.96000 165.275
53.00000 158.474
53.04000 164.125
53.08000 162.583
53.12000 147.024
53.16000 164.136
53.20000 157.040
53.24000 160.651
53.28000 153.549
53.32000 174.037
53.36000 159.233
53.40000 170.692
53.44000 159.907
53.48000 166.391
53.52000 171.149
53.56000 165.510
53.60000 162.615
53.64000 159.646
53.68000 152.205
53.72000 151.897
53.76000 165.894
53.80000 160.848
53.84000 159.302
53.88000 144.729
53.92000 157.594
53.96000 148.120
54.00000 144.172
54.04000 150.265
54.08000 150.063
54.12000 147.548
54.16000 156.319
54.20000 163.832
54.24000 162.769
54.28000 154.131
54.32000 148.884
54.36000 158.065
54.40000 155.695
54.44000 160.296
54.48000 164.313
54.52000 156.599
54.56000 155.751
54.60000 158.743
54.64000 161.241
54.68000 157.237
54.72000 156.224
54.76000 161.832
54.80000 146.537
54.84000 161.131
54.88000 154.216
54.92000 158.039
54.96000 179.302
55.00000 154.120
55.04000 164.279
55.08000 165.121
55.12000 166.691
55.16000 159.789
55.20000 171.620
55.24000 165.204
55.28000 171.473
55.32000 167.036
55.36000 174.829
55.40000 183.375
55.44000 185.610
55.48000 196.120
55.52000 210.184
55.56000 223.251
55.60000 265.062
55.64000 277.744
55.68000 333.693
55.72000 393.677
55.76000 457.829
55.80000 551.350
55.84000 634.020
55.88000 719.514
55.92000 777.864
55.96000 822.920
56.00000 863.456
56.04000 850.558
56.08000 801.021
56.12000 746.384
56.16000 665.927
56.20000 561.634
56.24000 455.508
56.28000 407.094
56.32000 350.792
56.36000 283.634
56.40000 250.391
56.44000 227.972
56.48000 209.662
56.52000 202.431
56.56000 185.663
56.60000 182.231
56.64000 159.796
56.68000 168.848
56.72000 169.841
56.76000 151.648
56.80000 155.136
56.84000 157.699
56.88000 156.180
56.92000 166.587
56.96000 154.315
57.00000 149.069
57.04000 160.483
57.08000 132.296
57.12000 143.300
57.16000 145.729
57.20000 152.093
57.24000 151.769
57.28000 148.545
57.32000 145.711
57.36000 142.348
57.40000 141.463
57.44000 152.861
57.48000 146.519
57.52000 139.625
57.56000 146.224
57.60000 138.421
57.64000 138.628
57.68000 157.688
57.72000 144.496
57.76000 149.737
57.80000 150.910
57.84000 140.552
57.88000 146.122
57.92000 148.400
57.96000 142.790
58.00000 140.789
58.04000 141.201
58.08000 148.618
58.12000 143.151
58.16000 136.815
58.20000 149.413
58.24000 126.033
58.28000 124.882
58.32000 131.357
58.36000 133.535
58.40000 134.266
58.44000 141.597
58.48000 136.125
58.52000 149.300
58.56000 136.892
58.60000 139.570
58.64000 138.778
58.68000 134.295
58.72000 134.159
58.76000 132.951
58.80000 136.596
58.84000 136.487
58.88000 140.957
58.92000 136.285
58.96000 134.382
59.00000 136.007
59.04000 131.604
59.08000 140.146
59.12000 138.145
59.16000 134.316
59.20000 143.120
59.24000 122.303
59.28000 138.363
59.32000 133.513
59.36000 133.835
59.40000 131.235
59.44000 137.852
59.48000 132.133
59.52000 132.912
59.56000 143.420
59.60000 138.555
59.64000 133.079
59.68000 134.889
59.72000 130.041
59.76000 130.219
59.80000 128.025
59.84000 120.302
59.88000 123.572
59.92000 139.682
59.96000 131.594
60.00000 135.773
60.04000 128.117
60.08000 127.945
60.12000 126.187
60.16000 129.906
60.20000 128.762
60.24000 141.935
60.28000 141.408
60.32000 137.166
60.36000 130.537
60.40000 141.089
60.44000 127.819
60.48000 126.625
60.52000 131.664
60.56000 119.586
60.60000 128.126
60.64000 133.286
60.68000 124.206
60.72000 137.649
60.76000 145.788
60.80000 125.195
60.84000 129.943
60.88000 136.110
60.92000 129.819
60.96000 135.307
61.00000 142.676
61.04000 129.800
61.08000 131.087
61.12000 141.170
61.16000 130.643
61.20000 136.214
61.24000 131.561
61.28000 137.616
61.32000 145.166
61.36000 144.280
61.40000 151.608
61.44000 141.284
61.48000 158.829
61.52000 156.045
61.56000 186.735
61.60000 225.974
61.64000 229.790
61.68000 256.462
61.72000 253.707
61.76000 239.543
61.80000 210.252
61.84000 176.982
61.88000 149.147
61.92000 150.159
61.96000 145.226
62.00000 145.649
62.04000 141.385
62.08000 136.029
62.12000 123.030
62.16000 132.198
62.20000 134.170
62.24000 139.219
62.28000 128.374
62.32000 129.062
62.36000 136.036
62.40000 141.045
62.44000 146.957
62.48000 149.459
62.52000 128.606
62.56000 142.433
62.60000 129.761
62.64000 144.113
62.68000 136.195
62.72000 135.958
62.76000 142.493
62.80000 149.503
62.84000 145.022
62.88000 143.212
62.92000 137.053
62.96000 138.192
63.00000 151.620
63.04000 142.675
63.08000 140.708
63.12000 142.732
63.16000 156.081
63.20000 136.777
63.24000 136.940
63.28000 144.408
63.32000 144.131
63.36000 152.908
63.40000 139.274
63.44000 139.313
63.48000 160.164
63.52000 154.041
63.56000 155.940
63.60000 149.359
63.64000 149.336
63.68000 139.262
63.72000 146.459
63.76000 138.729
63.80000 149.913
63.84000 153.398
63.88000 156.118
63.92000 150.446
63.96000 155.489
64.00000 149.713
64.04000 152.280
64.08000 153.308
64.12000 149.749
64.16000 153.467
64.20000 160.301
64.24000 165.983
64.28000 149.377
64.32000 158.145
64.36000 156.903
64.40000 156.703
64.44000 164.853
64.48000 160.766
64.52000 170.602
64.56000 171.936
64.60000 164.858
64.64000 168.036
64.68000 166.803
64.72000 164.471
64.76000 172.869
64.80000 171.678
64.84000 169.308
64.88000 163.005
64.92000 177.913
64.96000 184.782
65.00000 183.961
65.04000 187.535
65.08000 184.080
65.12000 176.999
65.16000 196.300
65.20000 207.875
65.24000 207.563
65.28000 227.364
65.32000 199.604
65.36000 228.706
65.40000 232.540
65.44000 254.646
65.48000 261.588
65.52000 264.179
65.56000 291.525
65.60000 307.017
65.64000 340.884
65.68000 405.605
65.72000 530.691
65.76000 710.863
65.80000 889.493
65.84000 994.358
65.88000 998.138
65.92000 995.641
65.96000 848.775
66.00000 626.222
66.04000 436.119
66.08000 347.486
66.12000 311.292
66.16000 296.775
66.20000 296.128
66.24000 293.858
66.28000 330.368
66.32000 366.055
66.36000 392.191
66.40000 421.472
66.44000 438.283
66.48000 409.772
66.52000 377.551
66.56000 347.140
66.60000 326.192
66.64000 302.341
66.68000 302.157
66.72000 299.979
66.76000 289.361
66.80000 307.127
66.84000 293.305
66.88000 316.149
66.92000 318.780
66.96000 332.517
67.00000 323.813
67.04000 341.308
67.08000 352.375
67.12000 346.254
67.16000 342.056
67.20000 358.879
67.24000 360.653
67.28000 374.645
67.32000 359.683
67.36000 377.711
67.40000 364.877
67.44000 374.089
67.48000 387.445
67.52000 396.240
67.56000 407.069
67.60000 425.232
67.64000 435.731
67.68000 420.650
67.72000 427.827
67.76000 449.072
67.80000 433.662
67.84000 452.279
67.88000 469.682
67.92000 491.593
67.96000 496.670
68.00000 486.000
68.04000 498.179
68.08000 513.492
68.12000 525.769
68.16000 532.884
68.20000 572.901
68.24000 570.564
68.28000 582.815
68.32000 592.286
68.36000 611.534
68.40000 653.652
68.44000 665.220
68.48000 707.998
68.52000 726.573
68.56000 778.785
68.60000 859.317
68.64000 1026.972
68.68000 1191.626
68.72000 1386.575
68.76000 1543.867
68.80000 1698.726
68.84000 1987.700
68.88000 2488.297
68.92000 3752.664
68.96000 10329.503
69.00000 24110.699
69.04000 39615.070
69.08000 47345.570
69.12000 49186.129
69.16000 51266.453
69.20000 51736.953
69.24000 44021.676
69.28000 33155.980
69.32000 27053.482
69.36000 24430.730
69.40000 20375.941
69.44000 13247.015
69.48000 5947.917
69.52000 2678.420
69.56000 1718.115
69.60000 1348.619
69.64000 1125.779
69.68000 977.955
69.72000 889.079
69.76000 839.603
69.80000 767.168
69.84000 713.276
69.88000 702.285
69.92000 674.586
69.96000 647.447
70.00000 632.142