File: XRD/XRD/24-09-2025 Dep 3/XY Data/BTO_Mapping_Theta2Theta_24-09-2025_001_53_12-361_-38-042.xy
20.00000 554.856
20.04000 573.361
20.08000 555.395
20.12000 585.485
20.16000 566.432
20.20000 557.327
20.24000 559.539
20.28000 582.136
20.32000 562.302
20.36000 561.414
20.40000 561.757
20.44000 564.601
20.48000 549.583
20.52000 535.768
20.56000 570.777
20.60000 534.546
20.64000 564.178
20.68000 559.803
20.72000 570.398
20.76000 541.154
20.80000 528.799
20.84000 536.634
20.88000 532.753
20.92000 557.497
20.96000 555.704
21.00000 557.164
21.04000 552.493
21.08000 547.321
21.12000 544.086
21.16000 543.007
21.20000 552.341
21.24000 569.488
21.28000 561.697
21.32000 542.066
21.36000 557.623
21.40000 535.272
21.44000 555.489
21.48000 536.594
21.52000 544.278
21.56000 547.494
21.60000 554.005
21.64000 562.381
21.68000 516.722
21.72000 545.138
21.76000 553.107
21.80000 555.820
21.84000 581.446
21.88000 554.362
21.92000 581.927
21.96000 599.362
22.00000 609.187
22.04000 626.020
22.08000 619.635
22.12000 621.036
22.16000 593.681
22.20000 613.326
22.24000 612.479
22.28000 589.590
22.32000 569.984
22.36000 559.826
22.40000 555.704
22.44000 561.165
22.48000 534.812
22.52000 538.974
22.56000 524.520
22.60000 526.022
22.64000 531.139
22.68000 528.504
22.72000 535.640
22.76000 522.709
22.80000 528.947
22.84000 508.380
22.88000 515.232
22.92000 519.327
22.96000 509.164
23.00000 521.595
23.04000 518.547
23.08000 499.425
23.12000 503.641
23.16000 500.940
23.20000 513.460
23.24000 526.087
23.28000 506.823
23.32000 483.023
23.36000 512.033
23.40000 510.531
23.44000 507.616
23.48000 504.478
23.52000 489.190
23.56000 498.759
23.60000 520.117
23.64000 505.398
23.68000 498.679
23.72000 484.875
23.76000 514.345
23.80000 489.306
23.84000 492.810
23.88000 503.910
23.92000 492.801
23.96000 510.526
24.00000 491.066
24.04000 506.217
24.08000 495.303
24.12000 489.799
24.16000 503.712
24.20000 499.141
24.24000 495.479
24.28000 495.655
24.32000 484.858
24.36000 493.991
24.40000 516.731
24.44000 489.950
24.48000 484.082
24.52000 479.881
24.56000 487.595
24.60000 493.093
24.64000 452.276
24.68000 475.341
24.72000 471.726
24.76000 460.870
24.80000 471.907
24.84000 492.430
24.88000 490.372
24.92000 476.009
24.96000 478.183
25.00000 480.585
25.04000 460.774
25.08000 470.012
25.12000 488.042
25.16000 463.094
25.20000 477.528
25.24000 478.595
25.28000 458.764
25.32000 469.677
25.36000 470.331
25.40000 465.775
25.44000 472.096
25.48000 461.345
25.52000 466.099
25.56000 446.142
25.60000 457.605
25.64000 476.444
25.68000 482.048
25.72000 450.360
25.76000 457.631
25.80000 446.337
25.84000 459.221
25.88000 459.958
25.92000 457.993
25.96000 461.630
26.00000 438.179
26.04000 451.745
26.08000 466.179
26.12000 447.475
26.16000 467.882
26.20000 468.146
26.24000 475.122
26.28000 450.188
26.32000 453.644
26.36000 445.142
26.40000 432.380
26.44000 464.722
26.48000 445.643
26.52000 463.037
26.56000 454.485
26.60000 454.433
26.64000 461.005
26.68000 440.029
26.72000 444.889
26.76000 454.152
26.80000 438.091
26.84000 433.911
26.88000 427.544
26.92000 444.007
26.96000 436.045
27.00000 430.308
27.04000 442.327
27.08000 450.550
27.12000 441.834
27.16000 431.755
27.20000 440.818
27.24000 436.004
27.28000 440.644
27.32000 440.491
27.36000 431.771
27.40000 447.672
27.44000 427.750
27.48000 434.571
27.52000 425.875
27.56000 433.179
27.60000 432.976
27.64000 434.486
27.68000 442.967
27.72000 417.864
27.76000 445.559
27.80000 441.273
27.84000 414.214
27.88000 434.559
27.92000 409.203
27.96000 434.516
28.00000 435.198
28.04000 424.894
28.08000 435.041
28.12000 416.975
28.16000 412.077
28.20000 429.225
28.24000 436.154
28.28000 422.447
28.32000 432.681
28.36000 426.605
28.40000 441.758
28.44000 426.625
28.48000 400.032
28.52000 424.405
28.56000 421.776
28.60000 427.838
28.64000 395.180
28.68000 419.313
28.72000 410.719
28.76000 420.816
28.80000 412.818
28.84000 408.488
28.88000 401.290
28.92000 419.179
28.96000 406.243
29.00000 409.233
29.04000 413.509
29.08000 412.990
29.12000 423.164
29.16000 403.716
29.20000 410.023
29.24000 408.635
29.28000 405.684
29.32000 415.318
29.36000 428.553
29.40000 387.905
29.44000 405.172
29.48000 409.262
29.52000 400.734
29.56000 407.329
29.60000 383.840
29.64000 397.038
29.68000 399.764
29.72000 401.479
29.76000 398.968
29.80000 412.634
29.84000 402.975
29.88000 415.168
29.92000 416.753
29.96000 421.932
30.00000 425.466
30.04000 416.951
30.08000 430.718
30.12000 412.495
30.16000 406.258
30.20000 425.906
30.24000 423.229
30.28000 410.368
30.32000 431.974
30.36000 413.602
30.40000 406.529
30.44000 402.703
30.48000 409.826
30.52000 410.211
30.56000 415.052
30.60000 418.990
30.64000 435.235
30.68000 413.935
30.72000 416.872
30.76000 423.671
30.80000 423.981
30.84000 430.598
30.88000 438.206
30.92000 460.338
30.96000 494.989
31.00000 496.318
31.04000 517.199
31.08000 559.986
31.12000 623.430
31.16000 758.492
31.20000 879.653
31.24000 1026.965
31.28000 1243.348
31.32000 1396.391
31.36000 1511.893
31.40000 1544.347
31.44000 1523.165
31.48000 1428.882
31.52000 1298.130
31.56000 1112.765
31.60000 973.452
31.64000 797.336
31.68000 687.148
31.72000 614.298
31.76000 528.566
31.80000 498.068
31.84000 457.963
31.88000 464.650
31.92000 447.114
31.96000 446.133
32.00000 419.577
32.04000 423.366
32.08000 392.845
32.12000 411.334
32.16000 391.951
32.20000 397.131
32.24000 401.052
32.28000 390.950
32.32000 377.984
32.36000 397.112
32.40000 374.117
32.44000 374.088
32.48000 380.053
32.52000 360.702
32.56000 380.464
32.60000 388.400
32.64000 360.665
32.68000 357.976
32.72000 358.665
32.76000 373.047
32.80000 375.613
32.84000 412.507
32.88000 442.887
32.92000 457.533
32.96000 442.935
33.00000 446.938
33.04000 421.372
33.08000 390.423
33.12000 355.676
33.16000 348.053
33.20000 349.237
33.24000 337.271
33.28000 342.433
33.32000 343.126
33.36000 349.070
33.40000 345.353
33.44000 339.898
33.48000 340.868
33.52000 318.673
33.56000 342.924
33.60000 340.347
33.64000 339.096
33.68000 336.965
33.72000 343.800
33.76000 327.607
33.80000 323.660
33.84000 325.918
33.88000 335.229
33.92000 338.202
33.96000 332.236
34.00000 329.482
34.04000 327.948
34.08000 336.909
34.12000 321.464
34.16000 337.876
34.20000 319.935
34.24000 320.520
34.28000 323.097
34.32000 311.419
34.36000 329.957
34.40000 327.664
34.44000 323.569
34.48000 327.155
34.52000 330.481
34.56000 334.157
34.60000 316.402
34.64000 326.818
34.68000 318.638
34.72000 316.055
34.76000 315.546
34.80000 327.528
34.84000 324.526
34.88000 327.604
34.92000 319.372
34.96000 334.446
35.00000 314.454
35.04000 315.041
35.08000 312.417
35.12000 313.126
35.16000 303.426
35.20000 308.573
35.24000 311.870
35.28000 318.062
35.32000 320.718
35.36000 303.359
35.40000 313.596
35.44000 303.060
35.48000 316.326
35.52000 302.904
35.56000 312.767
35.60000 315.661
35.64000 325.640
35.68000 314.971
35.72000 298.310
35.76000 313.976
35.80000 295.603
35.84000 296.613
35.88000 288.421
35.92000 296.680
35.96000 311.535
36.00000 314.138
36.04000 307.942
36.08000 308.126
36.12000 303.350
36.16000 308.093
36.20000 298.011
36.24000 296.949
36.28000 304.786
36.32000 296.563
36.36000 293.478
36.40000 304.524
36.44000 303.743
36.48000 309.340
36.52000 298.693
36.56000 294.922
36.60000 303.780
36.64000 289.178
36.68000 303.395
36.72000 296.018
36.76000 300.415
36.80000 294.517
36.84000 292.852
36.88000 302.061
36.92000 308.940
36.96000 308.806
37.00000 311.722
37.04000 328.514
37.08000 312.210
37.12000 310.404
37.16000 308.675
37.20000 301.164
37.24000 308.126
37.28000 295.926
37.32000 290.916
37.36000 309.442
37.40000 297.897
37.44000 310.827
37.48000 296.199
37.52000 300.333
37.56000 293.362
37.60000 293.740
37.64000 306.405
37.68000 274.696
37.72000 284.327
37.76000 294.271
37.80000 293.518
37.84000 299.515
37.88000 295.311
37.92000 315.693
37.96000 301.703
38.00000 291.619
38.04000 311.322
38.08000 309.150
38.12000 305.379
38.16000 305.705
38.20000 293.622
38.24000 305.138
38.28000 323.284
38.32000 332.429
38.36000 362.801
38.40000 364.732
38.44000 423.984
38.48000 500.677
38.52000 646.913
38.56000 795.149
38.60000 1032.244
38.64000 1265.451
38.68000 1448.224
38.72000 1604.447
38.76000 1618.902
38.80000 1569.373
38.84000 1393.308
38.88000 1171.520
38.92000 936.858
38.96000 718.569
39.00000 576.440
39.04000 465.428
39.08000 377.935
39.12000 337.106
39.16000 319.619
39.20000 284.242
39.24000 286.963
39.28000 290.769
39.32000 281.907
39.36000 288.564
39.40000 274.508
39.44000 278.392
39.48000 272.704
39.52000 275.289
39.56000 291.226
39.60000 272.120
39.64000 277.372
39.68000 284.092
39.72000 281.828
39.76000 267.716
39.80000 264.204
39.84000 260.174
39.88000 260.193
39.92000 271.031
39.96000 273.057
40.00000 262.357
40.04000 273.141
40.08000 255.128
40.12000 263.492
40.16000 267.574
40.20000 266.555
40.24000 253.124
40.28000 262.018
40.32000 260.651
40.36000 249.115
40.40000 255.182
40.44000 254.397
40.48000 251.234
40.52000 264.127
40.56000 255.395
40.60000 245.196
40.64000 245.772
40.68000 255.295
40.72000 251.216
40.76000 252.088
40.80000 252.352
40.84000 251.052
40.88000 249.071
40.92000 259.902
40.96000 246.364
41.00000 240.707
41.04000 247.640
41.08000 237.740
41.12000 233.402
41.16000 239.285
41.20000 241.085
41.24000 243.196
41.28000 240.399
41.32000 243.082
41.36000 229.914
41.40000 246.527
41.44000 241.742
41.48000 240.911
41.52000 239.565
41.56000 231.165
41.60000 235.627
41.64000 245.394
41.68000 244.239
41.72000 244.370
41.76000 249.073
41.80000 242.556
41.84000 231.287
41.88000 252.275
41.92000 231.011
41.96000 229.927
42.00000 239.368
42.04000 243.488
42.08000 224.474
42.12000 232.786
42.16000 228.012
42.20000 238.741
42.24000 237.695
42.28000 232.379
42.32000 234.729
42.36000 241.189
42.40000 237.989
42.44000 224.343
42.48000 232.478
42.52000 231.365
42.56000 240.211
42.60000 243.343
42.64000 230.648
42.68000 234.271
42.72000 244.221
42.76000 234.025
42.80000 237.108
42.84000 227.768
42.88000 229.557
42.92000 239.325
42.96000 223.616
43.00000 228.478
43.04000 220.223
43.08000 230.479
43.12000 225.814
43.16000 235.350
43.20000 210.618
43.24000 223.285
43.28000 222.565
43.32000 238.225
43.36000 224.904
43.40000 243.897
43.44000 211.785
43.48000 219.788
43.52000 222.050
43.56000 218.554
43.60000 217.888
43.64000 224.642
43.68000 218.165
43.72000 220.909
43.76000 228.883
43.80000 209.556
43.84000 221.556
43.88000 219.589
43.92000 215.409
43.96000 229.293
44.00000 223.584
44.04000 223.175
44.08000 223.065
44.12000 210.598
44.16000 218.691
44.20000 211.105
44.24000 212.137
44.28000 214.731
44.32000 222.861
44.36000 212.701
44.40000 217.302
44.44000 234.595
44.48000 225.102
44.52000 219.591
44.56000 224.704
44.60000 230.747
44.64000 237.250
44.68000 226.576
44.72000 220.511
44.76000 234.563
44.80000 231.969
44.84000 247.064
44.88000 244.070
44.92000 247.831
44.96000 265.864
45.00000 267.064
45.04000 270.027
45.08000 284.680
45.12000 281.004
45.16000 298.639
45.20000 265.551
45.24000 273.516
45.28000 278.210
45.32000 257.260
45.36000 258.639
45.40000 253.852
45.44000 247.145
45.48000 245.223
45.52000 247.334
45.56000 245.289
45.60000 238.407
45.64000 244.634
45.68000 232.250
45.72000 237.501
45.76000 231.488
45.80000 235.752
45.84000 227.876
45.88000 216.393
45.92000 233.185
45.96000 224.262
46.00000 232.571
46.04000 215.284
46.08000 218.317
46.12000 204.540
46.16000 214.664
46.20000 191.348
46.24000 204.283
46.28000 199.346
46.32000 210.290
46.36000 207.522
46.40000 214.780
46.44000 214.519
46.48000 199.362
46.52000 196.857
46.56000 201.853
46.60000 198.824
46.64000 192.565
46.68000 195.871
46.72000 204.987
46.76000 202.771
46.80000 213.174
46.84000 203.198
46.88000 204.585
46.92000 208.876
46.96000 199.621
47.00000 204.806
47.04000 202.496
47.08000 195.326
47.12000 187.729
47.16000 186.484
47.20000 206.200
47.24000 175.370
47.28000 194.514
47.32000 191.121
47.36000 178.468
47.40000 193.229
47.44000 202.773
47.48000 199.954
47.52000 184.706
47.56000 192.079
47.60000 182.482
47.64000 191.992
47.68000 202.330
47.72000 177.937
47.76000 196.954
47.80000 185.146
47.84000 192.738
47.88000 185.228
47.92000 187.908
47.96000 164.161
48.00000 186.347
48.04000 187.071
48.08000 178.216
48.12000 190.104
48.16000 186.663
48.20000 192.525
48.24000 190.723
48.28000 179.521
48.32000 182.178
48.36000 186.129
48.40000 184.004
48.44000 189.178
48.48000 175.194
48.52000 180.053
48.56000 173.444
48.60000 166.262
48.64000 169.522
48.68000 179.308
48.72000 187.564
48.76000 168.019
48.80000 179.481
48.84000 190.816
48.88000 182.347
48.92000 179.812
48.96000 183.233
49.00000 171.895
49.04000 171.332
49.08000 179.210
49.12000 182.929
49.16000 183.054
49.20000 182.961
49.24000 170.607
49.28000 183.428
49.32000 168.747
49.36000 182.471
49.40000 176.869
49.44000 179.096
49.48000 177.429
49.52000 175.589
49.56000 166.955
49.60000 171.103
49.64000 183.304
49.68000 176.216
49.72000 170.055
49.76000 171.931
49.80000 179.452
49.84000 173.777
49.88000 167.076
49.92000 168.130
49.96000 171.701
50.00000 170.197
50.04000 176.849
50.08000 174.171
50.12000 171.568
50.16000 180.031
50.20000 175.498
50.24000 171.035
50.28000 180.316
50.32000 178.940
50.36000 176.697
50.40000 172.276
50.44000 181.223
50.48000 195.025
50.52000 177.476
50.56000 182.344
50.60000 181.943
50.64000 181.135
50.68000 199.723
50.72000 199.289
50.76000 179.128
50.80000 185.879
50.84000 171.985
50.88000 190.258
50.92000 192.640
50.96000 181.993
51.00000 187.224
51.04000 173.913
51.08000 189.798
51.12000 184.756
51.16000 171.885
51.20000 180.016
51.24000 180.913
51.28000 171.004
51.32000 177.127
51.36000 173.950
51.40000 174.238
51.44000 162.686
51.48000 180.195
51.52000 167.186
51.56000 168.053
51.60000 166.691
51.64000 171.082
51.68000 162.236
51.72000 162.258
51.76000 159.029
51.80000 169.022
51.84000 169.482
51.88000 163.739
51.92000 151.257
51.96000 161.581
52.00000 166.528
52.04000 160.606
52.08000 165.354
52.12000 153.461
52.16000 158.788
52.20000 159.654
52.24000 154.751
52.28000 175.699
52.32000 164.242
52.36000 159.507
52.40000 157.184
52.44000 160.023
52.48000 159.197
52.52000 169.791
52.56000 171.066
52.60000 160.011
52.64000 165.199
52.68000 154.698
52.72000 143.145
52.76000 148.851
52.80000 145.226
52.84000 157.851
52.88000 159.539
52.92000 163.437
52.96000 160.316
53.00000 148.407
53.04000 155.664
53.08000 157.963
53.12000 164.598
53.16000 159.205
53.20000 159.503
53.24000 158.596
53.28000 154.953
53.32000 169.173
53.36000 157.876
53.40000 169.511
53.44000 165.637
53.48000 174.470
53.52000 163.478
53.56000 167.718
53.60000 160.877
53.64000 166.593
53.68000 163.013
53.72000 160.014
53.76000 164.130
53.80000 155.284
53.84000 165.364
53.88000 155.474
53.92000 158.238
53.96000 155.433
54.00000 146.000
54.04000 160.820
54.08000 151.512
54.12000 158.363
54.16000 154.822
54.20000 161.017
54.24000 164.793
54.28000 151.121
54.32000 155.299
54.36000 156.820
54.40000 151.584
54.44000 159.345
54.48000 155.852
54.52000 151.501
54.56000 153.266
54.60000 161.927
54.64000 155.891
54.68000 154.030
54.72000 160.848
54.76000 152.395
54.80000 150.110
54.84000 162.524
54.88000 164.907
54.92000 162.398
54.96000 160.570
55.00000 151.540
55.04000 158.418
55.08000 161.995
55.12000 167.674
55.16000 174.828
55.20000 164.936
55.24000 163.673
55.28000 170.245
55.32000 167.630
55.36000 167.948
55.40000 174.186
55.44000 192.667
55.48000 207.635
55.52000 210.024
55.56000 228.083
55.60000 261.270
55.64000 297.070
55.68000 364.292
55.72000 403.390
55.76000 489.208
55.80000 562.866
55.84000 656.343
55.88000 760.118
55.92000 832.571
55.96000 860.513
56.00000 871.124
56.04000 869.096
56.08000 809.169
56.12000 711.007
56.16000 670.364
56.20000 574.369
56.24000 485.787
56.28000 388.318
56.32000 333.864
56.36000 301.491
56.40000 262.478
56.44000 232.364
56.48000 212.447
56.52000 207.905
56.56000 179.221
56.60000 163.699
56.64000 178.609
56.68000 173.726
56.72000 164.415
56.76000 170.331
56.80000 162.853
56.84000 150.115
56.88000 157.114
56.92000 155.938
56.96000 150.126
57.00000 152.654
57.04000 156.331
57.08000 152.583
57.12000 150.586
57.16000 143.625
57.20000 144.910
57.24000 147.308
57.28000 146.260
57.32000 158.872
57.36000 157.805
57.40000 157.232
57.44000 150.388
57.48000 143.317
57.52000 145.497
57.56000 140.435
57.60000 151.168
57.64000 144.819
57.68000 129.380
57.72000 139.864
57.76000 140.617
57.80000 147.607
57.84000 150.084
57.88000 146.242
57.92000 145.016
57.96000 144.985
58.00000 129.207
58.04000 139.276
58.08000 152.541
58.12000 144.653
58.16000 133.775
58.20000 143.294
58.24000 145.655
58.28000 135.607
58.32000 130.171
58.36000 132.135
58.40000 131.124
58.44000 145.793
58.48000 146.477
58.52000 132.740
58.56000 132.612
58.60000 141.714
58.64000 129.127
58.68000 148.597
58.72000 126.284
58.76000 129.613
58.80000 136.479
58.84000 126.921
58.88000 141.411
58.92000 137.792
58.96000 134.508
59.00000 137.058
59.04000 129.423
59.08000 134.715
59.12000 140.063
59.16000 133.905
59.20000 141.114
59.24000 133.606
59.28000 138.316
59.32000 145.405
59.36000 141.148
59.40000 140.158
59.44000 135.516
59.48000 133.932
59.52000 128.672
59.56000 124.404
59.60000 121.555
59.64000 137.548
59.68000 138.580
59.72000 135.688
59.76000 126.911
59.80000 133.596
59.84000 127.425
59.88000 138.727
59.92000 136.268
59.96000 123.825
60.00000 134.370
60.04000 130.470
60.08000 131.651
60.12000 136.338
60.16000 133.911
60.20000 124.561
60.24000 134.600
60.28000 139.663
60.32000 131.780
60.36000 128.584
60.40000 136.566
60.44000 125.096
60.48000 128.837
60.52000 129.201
60.56000 127.079
60.60000 125.219
60.64000 126.892
60.68000 131.477
60.72000 134.533
60.76000 130.696
60.80000 132.486
60.84000 130.065
60.88000 140.887
60.92000 126.632
60.96000 129.294
61.00000 144.185
61.04000 142.593
61.08000 129.383
61.12000 133.780
61.16000 138.284
61.20000 135.145
61.24000 137.136
61.28000 133.915
61.32000 136.174
61.36000 128.605
61.40000 146.584
61.44000 144.158
61.48000 146.312
61.52000 160.380
61.56000 193.209
61.60000 223.243
61.64000 254.012
61.68000 257.933
61.72000 245.110
61.76000 252.485
61.80000 211.189
61.84000 170.235
61.88000 158.508
61.92000 152.475
61.96000 143.158
62.00000 131.643
62.04000 135.334
62.08000 146.516
62.12000 142.344
62.16000 139.898
62.20000 140.996
62.24000 128.699
62.28000 138.226
62.32000 138.592
62.36000 147.288
62.40000 139.985
62.44000 141.517
62.48000 141.564
62.52000 141.316
62.56000 131.190
62.60000 141.226
62.64000 144.819
62.68000 143.857
62.72000 147.344
62.76000 141.197
62.80000 141.890
62.84000 138.403
62.88000 146.043
62.92000 134.495
62.96000 144.959
63.00000 140.519
63.04000 141.547
63.08000 136.602
63.12000 131.356
63.16000 137.683
63.20000 137.501
63.24000 147.263
63.28000 140.317
63.32000 146.421
63.36000 144.995
63.40000 148.772
63.44000 144.854
63.48000 147.374
63.52000 151.480
63.56000 158.710
63.60000 162.911
63.64000 150.510
63.68000 149.412
63.72000 138.016
63.76000 146.771
63.80000 152.379
63.84000 145.063
63.88000 143.138
63.92000 158.385
63.96000 153.905
64.00000 155.348
64.04000 152.907
64.08000 154.705
64.12000 159.607
64.16000 149.774
64.20000 156.438
64.24000 157.439
64.28000 157.688
64.32000 156.875
64.36000 164.317
64.40000 154.687
64.44000 169.930
64.48000 157.160
64.52000 161.488
64.56000 169.329
64.60000 161.799
64.64000 169.913
64.68000 163.635
64.72000 170.086
64.76000 163.347
64.80000 160.370
64.84000 168.800
64.88000 175.585
64.92000 174.675
64.96000 182.429
65.00000 176.079
65.04000 179.463
65.08000 184.402
65.12000 194.089
65.16000 214.110
65.20000 217.124
65.24000 204.727
65.28000 224.049
65.32000 225.176
65.36000 219.345
65.40000 244.670
65.44000 258.201
65.48000 265.713
65.52000 271.038
65.56000 297.299
65.60000 322.389
65.64000 336.945
65.68000 395.892
65.72000 508.550
65.76000 724.104
65.80000 877.163
65.84000 989.564
65.88000 1029.321
65.92000 990.355
65.96000 836.001
66.00000 586.753
66.04000 416.866
66.08000 332.368
66.12000 308.033
66.16000 293.809
66.20000 280.350
66.24000 311.387
66.28000 315.346
66.32000 355.716
66.36000 403.388
66.40000 425.997
66.44000 439.129
66.48000 411.893
66.52000 392.897
66.56000 340.012
66.60000 313.497
66.64000 311.137
66.68000 306.855
66.72000 298.309
66.76000 311.347
66.80000 308.242
66.84000 309.017
66.88000 312.166
66.92000 322.790
66.96000 324.386
67.00000 325.063
67.04000 318.796
67.08000 313.079
67.12000 343.915
67.16000 329.485
67.20000 352.917
67.24000 363.146
67.28000 342.211
67.32000 367.530
67.36000 382.934
67.40000 383.704
67.44000 381.682
67.48000 402.952
67.52000 401.163
67.56000 406.810
67.60000 414.638
67.64000 442.528
67.68000 443.066
67.72000 435.432
67.76000 444.218
67.80000 457.151
67.84000 463.938
67.88000 452.409
67.92000 482.121
67.96000 480.441
68.00000 500.594
68.04000 515.951
68.08000 540.316
68.12000 523.219
68.16000 538.609
68.20000 543.972
68.24000 575.295
68.28000 593.914
68.32000 605.460
68.36000 616.428
68.40000 655.929
68.44000 676.089
68.48000 688.985
68.52000 741.430
68.56000 821.591
68.60000 882.346
68.64000 983.984
68.68000 1200.607
68.72000 1382.865
68.76000 1560.313
68.80000 1713.158
68.84000 2002.733
68.88000 2577.213
68.92000 3952.839
68.96000 11359.599
69.00000 25743.875
69.04000 41261.230
69.08000 48342.273
69.12000 50025.332
69.16000 51723.262
69.20000 51844.324
69.24000 43421.574
69.28000 32708.189
69.32000 26991.408
69.36000 24352.656
69.40000 20104.264
69.44000 12686.286
69.48000 5584.902
69.52000 2556.863
69.56000 1653.217
69.60000 1305.162
69.64000 1135.888
69.68000 994.652
69.72000 886.961
69.76000 835.801
69.80000 762.886
69.84000 745.059
69.88000 701.976
69.92000 667.658
69.96000 621.449
70.00000 629.380