File: XRD/XRD/24-09-2025 Dep 3/XY Data/BTO_Mapping_Theta2Theta_24-09-2025_001_51_6-180_-19-021.xy
20.00000 561.752
20.04000 562.815
20.08000 555.109
20.12000 538.854
20.16000 537.274
20.20000 557.851
20.24000 565.095
20.28000 580.888
20.32000 577.520
20.36000 553.848
20.40000 540.347
20.44000 573.906
20.48000 570.189
20.52000 551.075
20.56000 569.087
20.60000 567.868
20.64000 541.495
20.68000 539.392
20.72000 562.966
20.76000 546.778
20.80000 538.105
20.84000 548.481
20.88000 546.919
20.92000 549.169
20.96000 559.259
21.00000 551.635
21.04000 539.178
21.08000 557.102
21.12000 552.729
21.16000 571.448
21.20000 564.151
21.24000 553.717
21.28000 531.869
21.32000 544.742
21.36000 533.998
21.40000 541.582
21.44000 531.090
21.48000 538.685
21.52000 544.809
21.56000 546.500
21.60000 545.518
21.64000 541.391
21.68000 542.121
21.72000 543.644
21.76000 551.499
21.80000 553.698
21.84000 564.985
21.88000 596.753
21.92000 581.427
21.96000 629.265
22.00000 604.650
22.04000 603.232
22.08000 604.949
22.12000 608.551
22.16000 607.733
22.20000 592.485
22.24000 595.235
22.28000 567.853
22.32000 577.925
22.36000 574.424
22.40000 582.055
22.44000 549.199
22.48000 544.811
22.52000 544.135
22.56000 559.477
22.60000 541.965
22.64000 527.832
22.68000 514.669
22.72000 501.293
22.76000 523.380
22.80000 509.357
22.84000 498.429
22.88000 504.447
22.92000 529.483
22.96000 501.594
23.00000 491.242
23.04000 514.939
23.08000 499.223
23.12000 508.871
23.16000 509.637
23.20000 506.040
23.24000 500.982
23.28000 513.268
23.32000 507.039
23.36000 499.650
23.40000 509.160
23.44000 488.503
23.48000 501.621
23.52000 506.906
23.56000 503.981
23.60000 473.122
23.64000 504.687
23.68000 497.556
23.72000 520.555
23.76000 494.439
23.80000 489.907
23.84000 482.163
23.88000 491.647
23.92000 488.551
23.96000 483.256
24.00000 489.815
24.04000 483.021
24.08000 495.154
24.12000 493.949
24.16000 485.106
24.20000 489.126
24.24000 489.435
24.28000 490.594
24.32000 497.905
24.36000 475.914
24.40000 473.109
24.44000 479.669
24.48000 472.018
24.52000 456.617
24.56000 479.180
24.60000 483.135
24.64000 494.190
24.68000 474.592
24.72000 492.056
24.76000 476.090
24.80000 484.018
24.84000 474.397
24.88000 479.293
24.92000 488.397
24.96000 477.807
25.00000 460.368
25.04000 470.465
25.08000 458.383
25.12000 468.131
25.16000 462.416
25.20000 471.915
25.24000 458.212
25.28000 459.050
25.32000 463.069
25.36000 474.231
25.40000 460.326
25.44000 471.315
25.48000 461.627
25.52000 459.278
25.56000 464.146
25.60000 453.821
25.64000 472.952
25.68000 445.870
25.72000 468.386
25.76000 464.335
25.80000 454.079
25.84000 459.842
25.88000 460.412
25.92000 464.429
25.96000 468.054
26.00000 476.364
26.04000 467.085
26.08000 448.465
26.12000 464.628
26.16000 450.672
26.20000 445.675
26.24000 456.987
26.28000 465.520
26.32000 431.508
26.36000 459.879
26.40000 464.278
26.44000 450.948
26.48000 456.664
26.52000 445.235
26.56000 444.964
26.60000 432.346
26.64000 443.252
26.68000 451.116
26.72000 446.082
26.76000 449.015
26.80000 441.541
26.84000 448.774
26.88000 456.238
26.92000 419.203
26.96000 436.183
27.00000 420.713
27.04000 451.918
27.08000 430.509
27.12000 431.057
27.16000 425.534
27.20000 418.917
27.24000 446.261
27.28000 451.290
27.32000 454.730
27.36000 420.264
27.40000 447.778
27.44000 442.284
27.48000 428.592
27.52000 422.319
27.56000 452.315
27.60000 413.955
27.64000 434.989
27.68000 441.400
27.72000 414.465
27.76000 442.232
27.80000 435.739
27.84000 431.274
27.88000 426.590
27.92000 405.264
27.96000 430.247
28.00000 439.498
28.04000 436.888
28.08000 423.347
28.12000 423.105
28.16000 430.839
28.20000 441.288
28.24000 433.155
28.28000 433.055
28.32000 423.891
28.36000 395.670
28.40000 419.550
28.44000 402.005
28.48000 435.470
28.52000 413.565
28.56000 416.117
28.60000 417.564
28.64000 424.109
28.68000 391.524
28.72000 415.095
28.76000 431.988
28.80000 406.650
28.84000 396.966
28.88000 416.243
28.92000 413.951
28.96000 403.789
29.00000 405.184
29.04000 430.996
29.08000 418.178
29.12000 415.981
29.16000 415.047
29.20000 409.296
29.24000 412.356
29.28000 406.494
29.32000 414.308
29.36000 422.068
29.40000 398.678
29.44000 406.006
29.48000 426.764
29.52000 423.252
29.56000 415.020
29.60000 400.358
29.64000 407.328
29.68000 401.357
29.72000 412.403
29.76000 416.286
29.80000 407.776
29.84000 431.364
29.88000 408.763
29.92000 408.461
29.96000 429.214
30.00000 445.807
30.04000 444.469
30.08000 414.029
30.12000 421.826
30.16000 432.257
30.20000 421.891
30.24000 429.214
30.28000 410.853
30.32000 418.659
30.36000 406.515
30.40000 409.015
30.44000 395.775
30.48000 408.322
30.52000 416.612
30.56000 410.654
30.60000 420.341
30.64000 399.630
30.68000 418.842
30.72000 424.173
30.76000 424.257
30.80000 440.093
30.84000 433.907
30.88000 436.446
30.92000 466.497
30.96000 490.646
31.00000 509.122
31.04000 541.384
31.08000 636.751
31.12000 754.817
31.16000 894.608
31.20000 1086.513
31.24000 1337.261
31.28000 1614.927
31.32000 1808.955
31.36000 2005.986
31.40000 2045.109
31.44000 1971.222
31.48000 1833.143
31.52000 1599.803
31.56000 1328.969
31.60000 1112.900
31.64000 907.301
31.68000 778.398
31.72000 644.631
31.76000 594.336
31.80000 545.097
31.84000 500.993
31.88000 436.397
31.92000 450.578
31.96000 434.921
32.00000 438.521
32.04000 411.169
32.08000 406.355
32.12000 384.734
32.16000 399.034
32.20000 389.985
32.24000 405.303
32.28000 393.585
32.32000 389.263
32.36000 388.590
32.40000 380.247
32.44000 394.341
32.48000 400.157
32.52000 377.012
32.56000 373.199
32.60000 375.551
32.64000 365.661
32.68000 377.057
32.72000 364.609
32.76000 362.910
32.80000 364.313
32.84000 402.561
32.88000 426.177
32.92000 443.721
32.96000 445.860
33.00000 468.712
33.04000 441.593
33.08000 382.220
33.12000 357.678
33.16000 352.981
33.20000 358.400
33.24000 352.087
33.28000 348.514
33.32000 346.547
33.36000 342.521
33.40000 338.481
33.44000 341.641
33.48000 338.154
33.52000 336.001
33.56000 333.002
33.60000 334.792
33.64000 349.225
33.68000 335.520
33.72000 330.200
33.76000 326.205
33.80000 337.531
33.84000 340.471
33.88000 334.565
33.92000 331.296
33.96000 325.710
34.00000 324.601
34.04000 326.249
34.08000 349.348
34.12000 334.385
34.16000 323.058
34.20000 319.281
34.24000 328.912
34.28000 318.008
34.32000 324.214
34.36000 314.343
34.40000 325.175
34.44000 331.906
34.48000 328.074
34.52000 316.059
34.56000 316.899
34.60000 317.567
34.64000 310.630
34.68000 312.548
34.72000 322.601
34.76000 335.807
34.80000 314.733
34.84000 320.575
34.88000 304.139
34.92000 323.817
34.96000 333.674
35.00000 322.618
35.04000 337.956
35.08000 305.855
35.12000 306.933
35.16000 323.971
35.20000 314.237
35.24000 314.195
35.28000 320.731
35.32000 298.057
35.36000 319.950
35.40000 307.765
35.44000 309.581
35.48000 305.244
35.52000 314.814
35.56000 305.689
35.60000 301.063
35.64000 306.153
35.68000 301.059
35.72000 318.743
35.76000 308.390
35.80000 313.835
35.84000 294.809
35.88000 306.022
35.92000 295.554
35.96000 300.956
36.00000 305.832
36.04000 305.747
36.08000 295.061
36.12000 312.568
36.16000 298.463
36.20000 299.940
36.24000 293.885
36.28000 303.295
36.32000 323.861
36.36000 293.460
36.40000 309.223
36.44000 293.934
36.48000 304.058
36.52000 298.628
36.56000 296.782
36.60000 296.952
36.64000 291.948
36.68000 309.347
36.72000 282.118
36.76000 297.969
36.80000 302.858
36.84000 292.241
36.88000 301.373
36.92000 297.810
36.96000 298.472
37.00000 299.474
37.04000 313.271
37.08000 302.975
37.12000 304.566
37.16000 308.757
37.20000 303.990
37.24000 303.694
37.28000 292.212
37.32000 297.308
37.36000 293.921
37.40000 303.880
37.44000 306.921
37.48000 287.236
37.52000 306.124
37.56000 304.378
37.60000 283.956
37.64000 281.440
37.68000 296.628
37.72000 291.582
37.76000 295.446
37.80000 280.323
37.84000 302.695
37.88000 293.141
37.92000 293.703
37.96000 298.224
38.00000 301.244
38.04000 301.894
38.08000 301.996
38.12000 316.242
38.16000 310.419
38.20000 304.886
38.24000 314.808
38.28000 325.092
38.32000 344.378
38.36000 353.709
38.40000 389.700
38.44000 473.501
38.48000 571.456
38.52000 696.350
38.56000 910.314
38.60000 1080.743
38.64000 1342.893
38.68000 1493.115
38.72000 1614.769
38.76000 1635.048
38.80000 1512.551
38.84000 1291.471
38.88000 1079.493
38.92000 852.478
38.96000 665.967
39.00000 532.423
39.04000 417.505
39.08000 367.698
39.12000 335.829
39.16000 322.961
39.20000 317.990
39.24000 283.704
39.28000 294.351
39.32000 296.052
39.36000 292.674
39.40000 277.184
39.44000 268.518
39.48000 267.602
39.52000 274.050
39.56000 271.424
39.60000 291.253
39.64000 278.750
39.68000 284.708
39.72000 264.761
39.76000 274.618
39.80000 265.848
39.84000 257.694
39.88000 260.420
39.92000 266.783
39.96000 264.881
40.00000 267.187
40.04000 252.370
40.08000 251.098
40.12000 266.894
40.16000 268.761
40.20000 245.586
40.24000 267.415
40.28000 250.289
40.32000 251.813
40.36000 254.359
40.40000 247.721
40.44000 255.727
40.48000 262.782
40.52000 239.836
40.56000 251.120
40.60000 258.710
40.64000 251.288
40.68000 254.852
40.72000 250.900
40.76000 241.409
40.80000 251.338
40.84000 252.917
40.88000 237.418
40.92000 228.342
40.96000 240.765
41.00000 244.672
41.04000 245.155
41.08000 251.026
41.12000 249.199
41.16000 251.422
41.20000 247.640
41.24000 239.454
41.28000 246.909
41.32000 236.361
41.36000 240.441
41.40000 239.262
41.44000 235.491
41.48000 237.026
41.52000 237.119
41.56000 238.220
41.60000 243.158
41.64000 253.301
41.68000 242.740
41.72000 237.033
41.76000 235.875
41.80000 239.064
41.84000 236.616
41.88000 231.628
41.92000 227.032
41.96000 235.094
42.00000 237.043
42.04000 237.543
42.08000 237.138
42.12000 250.588
42.16000 245.727
42.20000 225.845
42.24000 225.937
42.28000 222.781
42.32000 234.496
42.36000 223.879
42.40000 236.363
42.44000 223.232
42.48000 230.210
42.52000 221.063
42.56000 224.070
42.60000 228.453
42.64000 238.274
42.68000 241.292
42.72000 225.786
42.76000 228.925
42.80000 233.276
42.84000 225.853
42.88000 233.956
42.92000 229.635
42.96000 228.462
43.00000 225.759
43.04000 221.192
43.08000 219.304
43.12000 200.932
43.16000 227.137
43.20000 224.897
43.24000 228.928
43.28000 220.747
43.32000 213.571
43.36000 218.717
43.40000 219.941
43.44000 218.752
43.48000 216.066
43.52000 228.828
43.56000 210.790
43.60000 220.779
43.64000 218.953
43.68000 209.084
43.72000 217.952
43.76000 226.255
43.80000 226.222
43.84000 218.617
43.88000 219.953
43.92000 216.441
43.96000 214.001
44.00000 215.191
44.04000 226.725
44.08000 223.789
44.12000 221.267
44.16000 198.257
44.20000 210.563
44.24000 205.683
44.28000 220.323
44.32000 207.599
44.36000 204.731
44.40000 221.750
44.44000 213.085
44.48000 222.535
44.52000 225.121
44.56000 227.022
44.60000 216.337
44.64000 224.009
44.68000 232.840
44.72000 233.155
44.76000 237.925
44.80000 237.621
44.84000 228.914
44.88000 233.664
44.92000 252.843
44.96000 254.509
45.00000 269.146
45.04000 274.880
45.08000 281.266
45.12000 287.324
45.16000 277.130
45.20000 280.920
45.24000 267.246
45.28000 253.523
45.32000 265.055
45.36000 254.559
45.40000 264.106
45.44000 259.773
45.48000 253.507
45.52000 237.499
45.56000 227.377
45.60000 252.380
45.64000 235.540
45.68000 242.424
45.72000 227.036
45.76000 240.863
45.80000 237.093
45.84000 218.335
45.88000 209.206
45.92000 228.539
45.96000 222.035
46.00000 216.668
46.04000 203.105
46.08000 205.004
46.12000 196.975
46.16000 209.760
46.20000 212.015
46.24000 209.891
46.28000 222.467
46.32000 200.083
46.36000 208.731
46.40000 196.797
46.44000 203.370
46.48000 199.215
46.52000 199.285
46.56000 204.198
46.60000 197.676
46.64000 207.929
46.68000 194.244
46.72000 179.464
46.76000 205.232
46.80000 204.329
46.84000 196.511
46.88000 196.938
46.92000 201.431
46.96000 195.396
47.00000 194.431
47.04000 207.890
47.08000 192.979
47.12000 189.898
47.16000 198.308
47.20000 189.761
47.24000 180.321
47.28000 190.717
47.32000 181.527
47.36000 192.105
47.40000 191.913
47.44000 186.436
47.48000 177.796
47.52000 199.955
47.56000 188.277
47.60000 193.535
47.64000 175.413
47.68000 197.919
47.72000 185.336
47.76000 188.584
47.80000 194.490
47.84000 190.287
47.88000 187.241
47.92000 191.299
47.96000 198.401
48.00000 179.641
48.04000 191.956
48.08000 184.015
48.12000 183.691
48.16000 190.906
48.20000 189.565
48.24000 177.017
48.28000 187.716
48.32000 193.259
48.36000 185.532
48.40000 169.923
48.44000 169.317
48.48000 182.597
48.52000 182.517
48.56000 191.328
48.60000 177.842
48.64000 180.581
48.68000 181.284
48.72000 176.088
48.76000 179.458
48.80000 185.009
48.84000 173.057
48.88000 185.665
48.92000 172.646
48.96000 171.103
49.00000 190.191
49.04000 171.007
49.08000 171.016
49.12000 184.713
49.16000 185.382
49.20000 168.845
49.24000 180.842
49.28000 183.088
49.32000 169.877
49.36000 176.273
49.40000 169.478
49.44000 176.813
49.48000 173.096
49.52000 178.446
49.56000 183.668
49.60000 177.036
49.64000 171.875
49.68000 181.242
49.72000 181.972
49.76000 175.050
49.80000 171.668
49.84000 173.043
49.88000 179.440
49.92000 185.438
49.96000 179.442
50.00000 173.246
50.04000 176.042
50.08000 171.779
50.12000 176.309
50.16000 181.870
50.20000 179.350
50.24000 177.839
50.28000 180.677
50.32000 187.602
50.36000 187.221
50.40000 185.447
50.44000 174.663
50.48000 175.979
50.52000 179.401
50.56000 202.881
50.60000 204.331
50.64000 203.682
50.68000 196.589
50.72000 207.802
50.76000 216.986
50.80000 213.369
50.84000 193.962
50.88000 203.771
50.92000 201.940
50.96000 196.409
51.00000 195.601
51.04000 186.209
51.08000 187.764
51.12000 171.449
51.16000 178.889
51.20000 178.333
51.24000 178.344
51.28000 187.226
51.32000 182.715
51.36000 175.641
51.40000 159.746
51.44000 158.865
51.48000 166.446
51.52000 164.479
51.56000 159.626
51.60000 166.521
51.64000 166.971
51.68000 162.258
51.72000 162.443
51.76000 175.585
51.80000 167.155
51.84000 158.844
51.88000 169.016
51.92000 164.067
51.96000 159.021
52.00000 154.758
52.04000 156.648
52.08000 154.789
52.12000 155.211
52.16000 159.135
52.20000 159.177
52.24000 157.332
52.28000 155.241
52.32000 150.788
52.36000 154.041
52.40000 151.298
52.44000 157.786
52.48000 158.099
52.52000 150.989
52.56000 158.691
52.60000 161.661
52.64000 162.882
52.68000 160.745
52.72000 154.407
52.76000 149.556
52.80000 148.399
52.84000 152.866
52.88000 158.840
52.92000 149.714
52.96000 148.116
53.00000 153.241
53.04000 157.471
53.08000 167.693
53.12000 159.648
53.16000 151.328
53.20000 164.683
53.24000 168.916
53.28000 168.868
53.32000 173.609
53.36000 175.476
53.40000 168.789
53.44000 165.944
53.48000 165.618
53.52000 161.590
53.56000 161.895
53.60000 160.072
53.64000 165.113
53.68000 159.225
53.72000 163.436
53.76000 176.616
53.80000 157.113
53.84000 173.450
53.88000 158.839
53.92000 166.289
53.96000 162.188
54.00000 163.314
54.04000 168.992
54.08000 160.805
54.12000 152.755
54.16000 159.226
54.20000 171.558
54.24000 158.229
54.28000 159.284
54.32000 157.193
54.36000 157.683
54.40000 155.965
54.44000 153.737
54.48000 161.559
54.52000 152.550
54.56000 171.625
54.60000 157.438
54.64000 153.086
54.68000 158.692
54.72000 157.220
54.76000 164.438
54.80000 162.700
54.84000 162.277
54.88000 170.526
54.92000 172.276
54.96000 173.202
55.00000 165.768
55.04000 155.254
55.08000 155.795
55.12000 159.041
55.16000 167.378
55.20000 163.361
55.24000 170.319
55.28000 161.767
55.32000 170.945
55.36000 181.204
55.40000 185.556
55.44000 192.549
55.48000 190.153
55.52000 223.331
55.56000 246.655
55.60000 259.671
55.64000 318.705
55.68000 388.714
55.72000 449.456
55.76000 537.687
55.80000 635.198
55.84000 719.672
55.88000 797.993
55.92000 859.328
55.96000 915.284
56.00000 902.589
56.04000 880.033
56.08000 829.313
56.12000 750.926
56.16000 644.092
56.20000 569.371
56.24000 485.323
56.28000 407.969
56.32000 352.083
56.36000 302.088
56.40000 246.227
56.44000 241.353
56.48000 224.101
56.52000 181.023
56.56000 195.281
56.60000 175.284
56.64000 166.704
56.68000 164.789
56.72000 164.124
56.76000 168.137
56.80000 163.344
56.84000 152.918
56.88000 156.673
56.92000 158.949
56.96000 153.439
57.00000 159.675
57.04000 153.258
57.08000 145.844
57.12000 155.031
57.16000 156.837
57.20000 149.154
57.24000 150.187
57.28000 152.127
57.32000 148.234
57.36000 155.227
57.40000 145.818
57.44000 143.502
57.48000 138.826
57.52000 154.630
57.56000 147.544
57.60000 138.734
57.64000 136.295
57.68000 138.631
57.72000 147.961
57.76000 139.702
57.80000 140.637
57.84000 140.369
57.88000 132.716
57.92000 135.088
57.96000 140.968
58.00000 149.004
58.04000 143.618
58.08000 149.450
58.12000 138.300
58.16000 135.144
58.20000 131.477
58.24000 145.173
58.28000 132.796
58.32000 150.623
58.36000 141.107
58.40000 137.417
58.44000 132.332
58.48000 138.598
58.52000 135.325
58.56000 143.907
58.60000 141.045
58.64000 140.024
58.68000 137.197
58.72000 131.927
58.76000 135.270
58.80000 130.679
58.84000 140.349
58.88000 138.380
58.92000 139.914
58.96000 131.459
59.00000 139.838
59.04000 136.732
59.08000 125.947
59.12000 119.011
59.16000 137.781
59.20000 141.399
59.24000 131.637
59.28000 129.556
59.32000 131.434
59.36000 130.724
59.40000 136.644
59.44000 131.421
59.48000 135.703
59.52000 139.305
59.56000 122.207
59.60000 121.388
59.64000 138.438
59.68000 132.977
59.72000 137.801
59.76000 138.162
59.80000 134.823
59.84000 140.460
59.88000 134.225
59.92000 133.852
59.96000 131.129
60.00000 133.830
60.04000 125.547
60.08000 132.260
60.12000 131.004
60.16000 126.753
60.20000 136.307
60.24000 134.798
60.28000 139.661
60.32000 132.975
60.36000 124.904
60.40000 128.393
60.44000 130.086
60.48000 135.971
60.52000 132.531
60.56000 139.858
60.60000 128.381
60.64000 128.933
60.68000 128.172
60.72000 130.451
60.76000 131.068
60.80000 132.680
60.84000 130.684
60.88000 139.786
60.92000 124.591
60.96000 134.152
61.00000 132.978
61.04000 127.255
61.08000 131.428
61.12000 136.405
61.16000 138.879
61.20000 144.581
61.24000 131.029
61.28000 137.986
61.32000 138.525
61.36000 150.324
61.40000 131.754
61.44000 129.511
61.48000 138.151
61.52000 162.518
61.56000 190.848
61.60000 231.287
61.64000 248.368
61.68000 271.805
61.72000 262.605
61.76000 243.604
61.80000 197.003
61.84000 163.457
61.88000 144.314
61.92000 143.985
61.96000 142.354
62.00000 128.645
62.04000 142.117
62.08000 142.391
62.12000 142.484
62.16000 133.605
62.20000 133.152
62.24000 138.386
62.28000 137.321
62.32000 140.522
62.36000 134.495
62.40000 146.935
62.44000 146.096
62.48000 143.322
62.52000 147.089
62.56000 146.147
62.60000 142.324
62.64000 131.888
62.68000 141.814
62.72000 138.047
62.76000 149.357
62.80000 135.447
62.84000 141.129
62.88000 138.953
62.92000 136.810
62.96000 143.253
63.00000 140.602
63.04000 135.219
63.08000 135.209
63.12000 134.907
63.16000 144.477
63.20000 135.785
63.24000 138.307
63.28000 153.552
63.32000 148.886
63.36000 144.915
63.40000 136.842
63.44000 134.689
63.48000 146.510
63.52000 147.946
63.56000 142.345
63.60000 142.324
63.64000 139.185
63.68000 138.133
63.72000 156.088
63.76000 147.070
63.80000 148.321
63.84000 137.143
63.88000 154.591
63.92000 160.101
63.96000 137.641
64.00000 149.065
64.04000 149.729
64.08000 151.106
64.12000 152.599
64.16000 147.450
64.20000 161.936
64.24000 164.852
64.28000 157.735
64.32000 157.848
64.36000 155.909
64.40000 165.649
64.44000 167.811
64.48000 154.580
64.52000 169.093
64.56000 159.337
64.60000 151.609
64.64000 154.544
64.68000 163.470
64.72000 174.053
64.76000 175.257
64.80000 159.130
64.84000 178.631
64.88000 171.775
64.92000 184.623
64.96000 185.614
65.00000 190.821
65.04000 182.908
65.08000 182.012
65.12000 192.967
65.16000 204.773
65.20000 217.796
65.24000 220.890
65.28000 237.469
65.32000 240.112
65.36000 262.829
65.40000 277.700
65.44000 277.657
65.48000 298.116
65.52000 319.630
65.56000 321.572
65.60000 326.998
65.64000 354.062
65.68000 417.501
65.72000 546.554
65.76000 756.015
65.80000 941.209
65.84000 1021.507
65.88000 1039.637
65.92000 1016.322
65.96000 872.985
66.00000 630.880
66.04000 431.274
66.08000 354.479
66.12000 315.310
66.16000 298.281
66.20000 311.878
66.24000 296.846
66.28000 322.936
66.32000 392.866
66.36000 400.011
66.40000 426.537
66.44000 429.290
66.48000 419.212
66.52000 388.851
66.56000 353.139
66.60000 315.824
66.64000 312.850
66.68000 290.995
66.72000 295.987
66.76000 291.239
66.80000 292.569
66.84000 313.827
66.88000 324.905
66.92000 319.663
66.96000 322.065
67.00000 329.480
67.04000 337.037
67.08000 336.286
67.12000 335.157
67.16000 346.336
67.20000 366.596
67.24000 341.761
67.28000 364.515
67.32000 368.952
67.36000 355.291
67.40000 379.896
67.44000 397.052
67.48000 391.287
67.52000 396.329
67.56000 423.316
67.60000 420.888
67.64000 420.789
67.68000 434.924
67.72000 431.663
67.76000 437.212
67.80000 456.688
67.84000 468.214
67.88000 485.238
67.92000 473.599
67.96000 493.896
68.00000 489.302
68.04000 507.205
68.08000 541.720
68.12000 523.090
68.16000 535.613
68.20000 568.799
68.24000 563.268
68.28000 569.152
68.32000 590.146
68.36000 625.320
68.40000 628.263
68.44000 654.755
68.48000 707.771
68.52000 746.757
68.56000 791.271
68.60000 881.226
68.64000 1037.670
68.68000 1215.773
68.72000 1406.459
68.76000 1592.266
68.80000 1792.900
68.84000 2067.849
68.88000 2653.203
68.92000 4164.729
68.96000 11499.670
69.00000 26016.773
69.04000 41384.297
69.08000 48747.340
69.12000 50462.203
69.16000 52724.605
69.20000 52705.773
69.24000 44232.215
69.28000 33252.422
69.32000 27355.316
69.36000 24857.775
69.40000 20313.301
69.44000 12962.996
69.48000 5705.350
69.52000 2650.505
69.56000 1663.156
69.60000 1324.813
69.64000 1145.989
69.68000 989.494
69.72000 915.128
69.76000 826.626
69.80000 770.734
69.84000 725.500
69.88000 710.913
69.92000 670.757
69.96000 668.079
70.00000 647.043