File: XRD/XRD/24-09-2025 Dep 3/XY Data/BTO_Mapping_Theta2Theta_24-09-2025_001_45_-20-000_-34-641.xy
20.00000 591.637
20.04000 580.855
20.08000 554.763
20.12000 574.407
20.16000 558.495
20.20000 551.963
20.24000 568.086
20.28000 566.960
20.32000 594.471
20.36000 555.584
20.40000 551.084
20.44000 567.791
20.48000 577.289
20.52000 551.601
20.56000 561.212
20.60000 549.116
20.64000 548.350
20.68000 550.311
20.72000 560.210
20.76000 552.758
20.80000 560.916
20.84000 552.106
20.88000 557.092
20.92000 559.225
20.96000 548.442
21.00000 556.210
21.04000 563.788
21.08000 533.780
21.12000 553.774
21.16000 526.988
21.20000 537.346
21.24000 543.873
21.28000 562.633
21.32000 551.399
21.36000 544.287
21.40000 551.013
21.44000 557.113
21.48000 541.759
21.52000 550.976
21.56000 556.570
21.60000 569.507
21.64000 572.464
21.68000 569.854
21.72000 578.342
21.76000 597.964
21.80000 617.099
21.84000 657.857
21.88000 710.714
21.92000 712.085
21.96000 744.051
22.00000 810.333
22.04000 833.902
22.08000 826.477
22.12000 794.192
22.16000 744.457
22.20000 730.193
22.24000 674.085
22.28000 617.980
22.32000 602.464
22.36000 587.549
22.40000 562.008
22.44000 578.116
22.48000 589.682
22.52000 546.318
22.56000 535.784
22.60000 538.297
22.64000 537.593
22.68000 522.962
22.72000 515.601
22.76000 516.761
22.80000 542.090
22.84000 531.907
22.88000 538.121
22.92000 506.900
22.96000 516.997
23.00000 503.895
23.04000 489.536
23.08000 511.050
23.12000 505.510
23.16000 511.665
23.20000 511.285
23.24000 508.536
23.28000 528.567
23.32000 505.130
23.36000 505.307
23.40000 507.293
23.44000 508.695
23.48000 495.546
23.52000 517.369
23.56000 492.186
23.60000 483.552
23.64000 509.837
23.68000 510.875
23.72000 478.322
23.76000 498.495
23.80000 504.563
23.84000 491.655
23.88000 503.835
23.92000 473.125
23.96000 495.792
24.00000 501.606
24.04000 502.967
24.08000 508.338
24.12000 484.367
24.16000 503.462
24.20000 493.479
24.24000 483.983
24.28000 494.631
24.32000 480.655
24.36000 476.091
24.40000 480.256
24.44000 482.273
24.48000 489.445
24.52000 488.153
24.56000 486.398
24.60000 482.575
24.64000 477.046
24.68000 504.740
24.72000 491.726
24.76000 480.684
24.80000 472.471
24.84000 487.312
24.88000 466.209
24.92000 478.351
24.96000 465.237
25.00000 468.859
25.04000 476.919
25.08000 467.703
25.12000 473.436
25.16000 465.920
25.20000 459.682
25.24000 467.092
25.28000 479.665
25.32000 467.580
25.36000 463.671
25.40000 465.046
25.44000 462.850
25.48000 453.633
25.52000 464.469
25.56000 443.918
25.60000 479.180
25.64000 466.269
25.68000 470.667
25.72000 470.725
25.76000 462.126
25.80000 437.003
25.84000 464.553
25.88000 464.911
25.92000 464.740
25.96000 459.784
26.00000 451.652
26.04000 458.058
26.08000 455.296
26.12000 458.179
26.16000 463.844
26.20000 462.376
26.24000 467.151
26.28000 456.260
26.32000 467.399
26.36000 467.236
26.40000 448.401
26.44000 455.579
26.48000 444.037
26.52000 454.722
26.56000 460.790
26.60000 472.860
26.64000 447.794
26.68000 460.437
26.72000 444.258
26.76000 440.538
26.80000 436.639
26.84000 448.772
26.88000 442.098
26.92000 459.659
26.96000 439.915
27.00000 448.257
27.04000 449.723
27.08000 440.592
27.12000 447.944
27.16000 438.068
27.20000 431.848
27.24000 438.033
27.28000 438.811
27.32000 434.458
27.36000 459.722
27.40000 447.255
27.44000 431.207
27.48000 432.305
27.52000 446.125
27.56000 428.559
27.60000 432.213
27.64000 414.310
27.68000 445.095
27.72000 443.950
27.76000 417.691
27.80000 435.342
27.84000 457.419
27.88000 448.788
27.92000 443.482
27.96000 432.422
28.00000 428.688
28.04000 424.059
28.08000 434.067
28.12000 434.370
28.16000 449.547
28.20000 429.817
28.24000 439.816
28.28000 425.427
28.32000 413.510
28.36000 425.269
28.40000 410.333
28.44000 432.568
28.48000 415.046
28.52000 425.761
28.56000 417.895
28.60000 414.282
28.64000 421.562
28.68000 428.328
28.72000 427.380
28.76000 405.337
28.80000 419.698
28.84000 427.758
28.88000 428.529
28.92000 416.807
28.96000 405.485
29.00000 410.697
29.04000 410.667
29.08000 426.642
29.12000 412.527
29.16000 405.699
29.20000 424.279
29.24000 408.941
29.28000 413.477
29.32000 426.654
29.36000 417.609
29.40000 409.726
29.44000 415.333
29.48000 429.717
29.52000 405.338
29.56000 421.174
29.60000 442.903
29.64000 421.286
29.68000 413.679
29.72000 428.959
29.76000 425.773
29.80000 436.998
29.84000 435.883
29.88000 466.634
29.92000 452.924
29.96000 452.305
30.00000 450.028
30.04000 455.486
30.08000 458.085
30.12000 448.854
30.16000 444.949
30.20000 464.299
30.24000 456.100
30.28000 446.983
30.32000 446.714
30.36000 437.332
30.40000 446.660
30.44000 415.990
30.48000 444.836
30.52000 427.555
30.56000 442.907
30.60000 462.818
30.64000 435.343
30.68000 457.075
30.72000 442.056
30.76000 489.148
30.80000 484.001
30.84000 504.372
30.88000 523.121
30.92000 548.329
30.96000 588.440
31.00000 647.852
31.04000 779.417
31.08000 931.915
31.12000 1163.438
31.16000 1484.603
31.20000 1978.728
31.24000 2507.725
31.28000 3029.585
31.32000 3501.543
31.36000 3791.514
31.40000 3807.801
31.44000 3566.748
31.48000 3102.406
31.52000 2564.961
31.56000 2056.170
31.60000 1576.688
31.64000 1221.633
31.68000 953.479
31.72000 765.043
31.76000 689.890
31.80000 587.969
31.84000 555.670
31.88000 496.763
31.92000 474.167
31.96000 435.591
32.00000 436.979
32.04000 426.888
32.08000 444.302
32.12000 424.131
32.16000 422.976
32.20000 404.714
32.24000 393.740
32.28000 398.018
32.32000 380.712
32.36000 389.878
32.40000 374.853
32.44000 399.681
32.48000 405.231
32.52000 395.588
32.56000 373.767
32.60000 364.968
32.64000 394.566
32.68000 377.772
32.72000 386.461
32.76000 406.651
32.80000 406.153
32.84000 479.467
32.88000 522.075
32.92000 553.255
32.96000 547.020
33.00000 561.712
33.04000 511.403
33.08000 437.754
33.12000 401.617
33.16000 361.830
33.20000 375.283
33.24000 364.137
33.28000 361.137
33.32000 359.539
33.36000 353.229
33.40000 343.404
33.44000 326.776
33.48000 342.196
33.52000 330.866
33.56000 331.815
33.60000 344.403
33.64000 356.918
33.68000 341.087
33.72000 340.968
33.76000 343.997
33.80000 341.028
33.84000 342.119
33.88000 341.451
33.92000 336.584
33.96000 343.499
34.00000 322.886
34.04000 351.328
34.08000 340.955
34.12000 336.953
34.16000 326.390
34.20000 333.004
34.24000 351.607
34.28000 329.200
34.32000 327.950
34.36000 338.049
34.40000 342.260
34.44000 332.208
34.48000 320.639
34.52000 321.213
34.56000 316.554
34.60000 320.609
34.64000 318.342
34.68000 333.408
34.72000 325.729
34.76000 321.981
34.80000 334.645
34.84000 321.838
34.88000 330.583
34.92000 332.025
34.96000 313.856
35.00000 306.535
35.04000 304.171
35.08000 319.064
35.12000 307.999
35.16000 325.577
35.20000 320.134
35.24000 324.468
35.28000 302.770
35.32000 325.131
35.36000 316.436
35.40000 311.138
35.44000 312.744
35.48000 292.129
35.52000 309.002
35.56000 321.682
35.60000 300.197
35.64000 313.849
35.68000 308.986
35.72000 318.897
35.76000 298.664
35.80000 315.549
35.84000 300.698
35.88000 299.786
35.92000 313.417
35.96000 318.967
36.00000 301.556
36.04000 307.498
36.08000 296.669
36.12000 287.142
36.16000 303.511
36.20000 290.555
36.24000 304.515
36.28000 297.049
36.32000 323.269
36.36000 303.611
36.40000 296.935
36.44000 298.446
36.48000 296.782
36.52000 298.435
36.56000 294.319
36.60000 292.399
36.64000 309.928
36.68000 317.318
36.72000 291.648
36.76000 293.943
36.80000 300.520
36.84000 310.389
36.88000 301.432
36.92000 314.976
36.96000 295.033
37.00000 321.213
37.04000 309.964
37.08000 313.838
37.12000 297.809
37.16000 292.007
37.20000 286.567
37.24000 307.886
37.28000 306.384
37.32000 295.794
37.36000 307.018
37.40000 310.216
37.44000 286.431
37.48000 296.857
37.52000 309.215
37.56000 296.883
37.60000 294.181
37.64000 296.683
37.68000 305.000
37.72000 299.671
37.76000 288.983
37.80000 297.765
37.84000 297.073
37.88000 297.982
37.92000 299.373
37.96000 300.655
38.00000 300.802
38.04000 309.313
38.08000 311.088
38.12000 302.835
38.16000 315.964
38.20000 308.867
38.24000 324.413
38.28000 343.605
38.32000 363.113
38.36000 381.804
38.40000 442.889
38.44000 531.743
38.48000 607.484
38.52000 787.727
38.56000 918.065
38.60000 1081.797
38.64000 1258.255
38.68000 1323.069
38.72000 1350.704
38.76000 1297.939
38.80000 1117.618
38.84000 962.538
38.88000 771.173
38.92000 609.421
38.96000 488.334
39.00000 433.080
39.04000 370.909
39.08000 337.293
39.12000 310.150
39.16000 306.120
39.20000 301.728
39.24000 287.990
39.28000 285.400
39.32000 294.794
39.36000 294.140
39.40000 264.733
39.44000 269.344
39.48000 279.303
39.52000 263.584
39.56000 270.153
39.60000 269.167
39.64000 275.628
39.68000 278.897
39.72000 277.276
39.76000 267.889
39.80000 263.085
39.84000 264.128
39.88000 261.113
39.92000 262.228
39.96000 254.825
40.00000 264.933
40.04000 263.780
40.08000 255.053
40.12000 261.077
40.16000 263.974
40.20000 264.455
40.24000 256.571
40.28000 253.393
40.32000 259.672
40.36000 251.656
40.40000 250.574
40.44000 270.275
40.48000 250.626
40.52000 261.151
40.56000 252.279
40.60000 252.871
40.64000 260.621
40.68000 258.176
40.72000 244.125
40.76000 249.867
40.80000 249.529
40.84000 257.110
40.88000 259.730
40.92000 257.322
40.96000 261.054
41.00000 244.436
41.04000 250.392
41.08000 253.136
41.12000 255.419
41.16000 246.601
41.20000 243.317
41.24000 242.658
41.28000 240.519
41.32000 250.170
41.36000 247.803
41.40000 245.449
41.44000 240.388
41.48000 233.410
41.52000 244.752
41.56000 242.154
41.60000 242.099
41.64000 233.642
41.68000 239.598
41.72000 242.914
41.76000 246.096
41.80000 228.763
41.84000 239.264
41.88000 239.888
41.92000 236.166
41.96000 238.005
42.00000 244.473
42.04000 234.299
42.08000 226.319
42.12000 237.022
42.16000 230.514
42.20000 235.076
42.24000 238.245
42.28000 228.682
42.32000 229.423
42.36000 228.074
42.40000 256.126
42.44000 230.659
42.48000 235.576
42.52000 231.224
42.56000 232.189
42.60000 236.161
42.64000 241.241
42.68000 229.329
42.72000 211.748
42.76000 223.738
42.80000 246.892
42.84000 229.008
42.88000 234.812
42.92000 246.949
42.96000 237.557
43.00000 225.595
43.04000 233.483
43.08000 220.463
43.12000 229.465
43.16000 237.508
43.20000 220.214
43.24000 235.618
43.28000 226.836
43.32000 233.935
43.36000 226.425
43.40000 228.707
43.44000 217.094
43.48000 228.718
43.52000 217.684
43.56000 230.648
43.60000 221.728
43.64000 224.281
43.68000 227.130
43.72000 240.744
43.76000 228.770
43.80000 228.616
43.84000 215.800
43.88000 219.616
43.92000 223.211
43.96000 228.412
44.00000 217.568
44.04000 219.808
44.08000 232.904
44.12000 225.457
44.16000 231.140
44.20000 226.771
44.24000 214.723
44.28000 225.840
44.32000 224.451
44.36000 217.010
44.40000 230.798
44.44000 228.849
44.48000 233.145
44.52000 239.815
44.56000 239.429
44.60000 236.302
44.64000 257.067
44.68000 264.063
44.72000 276.413
44.76000 291.239
44.80000 303.763
44.84000 353.560
44.88000 369.058
44.92000 403.084
44.96000 450.265
45.00000 459.397
45.04000 467.211
45.08000 447.943
45.12000 418.299
45.16000 416.735
45.20000 397.107
45.24000 369.535
45.28000 341.039
45.32000 324.211
45.36000 315.626
45.40000 298.816
45.44000 284.803
45.48000 270.814
45.52000 276.777
45.56000 283.382
45.60000 247.229
45.64000 252.692
45.68000 238.495
45.72000 249.782
45.76000 243.831
45.80000 229.605
45.84000 242.888
45.88000 225.240
45.92000 220.444
45.96000 215.721
46.00000 211.941
46.04000 213.910
46.08000 218.592
46.12000 211.824
46.16000 207.535
46.20000 199.388
46.24000 215.754
46.28000 212.764
46.32000 213.980
46.36000 200.023
46.40000 193.618
46.44000 205.845
46.48000 212.543
46.52000 211.501
46.56000 210.801
46.60000 183.523
46.64000 199.968
46.68000 182.673
46.72000 195.172
46.76000 195.184
46.80000 200.057
46.84000 185.076
46.88000 191.804
46.92000 202.318
46.96000 188.891
47.00000 193.501
47.04000 196.136
47.08000 197.317
47.12000 193.058
47.16000 190.985
47.20000 193.796
47.24000 188.894
47.28000 183.371
47.32000 188.159
47.36000 188.096
47.40000 196.052
47.44000 179.622
47.48000 187.331
47.52000 187.992
47.56000 196.245
47.60000 196.750
47.64000 182.507
47.68000 179.156
47.72000 186.561
47.76000 200.273
47.80000 181.392
47.84000 192.551
47.88000 183.235
47.92000 192.735
47.96000 199.145
48.00000 183.612
48.04000 184.025
48.08000 193.139
48.12000 177.920
48.16000 189.252
48.20000 193.403
48.24000 187.179
48.28000 186.110
48.32000 184.110
48.36000 183.048
48.40000 184.442
48.44000 183.666
48.48000 176.775
48.52000 181.700
48.56000 183.742
48.60000 204.548
48.64000 176.573
48.68000 181.795
48.72000 186.390
48.76000 183.457
48.80000 178.314
48.84000 184.395
48.88000 177.944
48.92000 186.904
48.96000 185.538
49.00000 171.145
49.04000 187.172
49.08000 190.012
49.12000 176.207
49.16000 175.683
49.20000 191.922
49.24000 178.999
49.28000 172.533
49.32000 178.074
49.36000 178.373
49.40000 194.845
49.44000 164.087
49.48000 170.890
49.52000 180.225
49.56000 176.670
49.60000 174.765
49.64000 179.795
49.68000 180.912
49.72000 180.922
49.76000 165.145
49.80000 177.270
49.84000 176.844
49.88000 182.113
49.92000 176.014
49.96000 178.180
50.00000 174.017
50.04000 172.464
50.08000 189.734
50.12000 182.551
50.16000 179.772
50.20000 176.981
50.24000 194.423
50.28000 193.382
50.32000 188.205
50.36000 200.339
50.40000 205.139
50.44000 215.896
50.48000 231.135
50.52000 240.090
50.56000 244.770
50.60000 274.896
50.64000 294.312
50.68000 296.506
50.72000 274.537
50.76000 297.060
50.80000 270.330
50.84000 258.728
50.88000 236.429
50.92000 228.969
50.96000 215.491
51.00000 197.376
51.04000 196.497
51.08000 189.788
51.12000 190.600
51.16000 184.096
51.20000 189.605
51.24000 192.812
51.28000 186.122
51.32000 184.882
51.36000 180.465
51.40000 183.840
51.44000 172.071
51.48000 175.862
51.52000 180.259
51.56000 171.542
51.60000 171.462
51.64000 165.894
51.68000 161.892
51.72000 166.926
51.76000 163.468
51.80000 157.110
51.84000 168.994
51.88000 171.006
51.92000 168.715
51.96000 163.612
52.00000 162.898
52.04000 157.740
52.08000 159.394
52.12000 169.561
52.16000 160.727
52.20000 161.418
52.24000 170.127
52.28000 166.851
52.32000 172.275
52.36000 167.708
52.40000 156.196
52.44000 157.252
52.48000 165.353
52.52000 167.737
52.56000 167.974
52.60000 157.432
52.64000 164.671
52.68000 169.715
52.72000 160.714
52.76000 160.469
52.80000 161.575
52.84000 153.966
52.88000 162.928
52.92000 168.426
52.96000 161.910
53.00000 161.138
53.04000 161.198
53.08000 161.964
53.12000 173.108
53.16000 156.231
53.20000 166.839
53.24000 161.722
53.28000 163.911
53.32000 158.382
53.36000 172.931
53.40000 172.920
53.44000 162.002
53.48000 168.377
53.52000 166.823
53.56000 154.794
53.60000 159.749
53.64000 153.519
53.68000 160.815
53.72000 160.629
53.76000 161.397
53.80000 162.686
53.84000 169.389
53.88000 170.801
53.92000 156.127
53.96000 144.553
54.00000 158.120
54.04000 162.191
54.08000 170.271
54.12000 160.105
54.16000 151.802
54.20000 156.713
54.24000 158.578
54.28000 169.163
54.32000 160.042
54.36000 147.317
54.40000 161.800
54.44000 160.144
54.48000 151.706
54.52000 157.310
54.56000 157.743
54.60000 154.335
54.64000 166.888
54.68000 162.442
54.72000 166.222
54.76000 162.898
54.80000 157.815
54.84000 161.408
54.88000 154.898
54.92000 163.455
54.96000 162.008
55.00000 175.249
55.04000 162.138
55.08000 167.416
55.12000 165.781
55.16000 160.697
55.20000 170.658
55.24000 173.548
55.28000 167.612
55.32000 186.229
55.36000 191.503
55.40000 185.673
55.44000 199.713
55.48000 200.417
55.52000 233.573
55.56000 272.707
55.60000 304.087
55.64000 359.741
55.68000 414.860
55.72000 492.651
55.76000 583.463
55.80000 684.781
55.84000 756.980
55.88000 825.639
55.92000 834.161
55.96000 829.363
56.00000 786.168
56.04000 717.693
56.08000 631.055
56.12000 587.715
56.16000 479.193
56.20000 411.262
56.24000 355.418
56.28000 301.051
56.32000 275.624
56.36000 234.629
56.40000 216.698
56.44000 208.860
56.48000 194.512
56.52000 200.865
56.56000 177.607
56.60000 182.799
56.64000 175.136
56.68000 163.488
56.72000 169.275
56.76000 169.296
56.80000 152.349
56.84000 162.245
56.88000 162.597
56.92000 157.276
56.96000 154.133
57.00000 157.611
57.04000 148.288
57.08000 155.530
57.12000 154.304
57.16000 145.439
57.20000 153.150
57.24000 149.592
57.28000 147.666
57.32000 150.509
57.36000 153.595
57.40000 146.987
57.44000 138.932
57.48000 148.630
57.52000 145.363
57.56000 145.049
57.60000 143.594
57.64000 132.837
57.68000 135.802
57.72000 144.129
57.76000 155.902
57.80000 137.815
57.84000 135.624
57.88000 150.978
57.92000 140.210
57.96000 138.761
58.00000 137.567
58.04000 131.038
58.08000 135.800
58.12000 148.956
58.16000 145.370
58.20000 141.027
58.24000 156.315
58.28000 139.629
58.32000 135.504
58.36000 139.171
58.40000 147.838
58.44000 142.901
58.48000 139.521
58.52000 132.998
58.56000 139.322
58.60000 143.730
58.64000 138.682
58.68000 145.043
58.72000 130.564
58.76000 131.456
58.80000 134.279
58.84000 137.552
58.88000 130.889
58.92000 138.824
58.96000 133.026
59.00000 134.098
59.04000 137.022
59.08000 133.118
59.12000 134.339
59.16000 133.551
59.20000 133.204
59.24000 139.570
59.28000 129.499
59.32000 131.337
59.36000 136.121
59.40000 131.226
59.44000 133.908
59.48000 143.516
59.52000 132.106
59.56000 135.254
59.60000 130.223
59.64000 130.241
59.68000 133.575
59.72000 135.711
59.76000 127.007
59.80000 128.113
59.84000 119.730
59.88000 140.414
59.92000 127.724
59.96000 131.715
60.00000 133.893
60.04000 134.267
60.08000 126.118
60.12000 128.632
60.16000 136.612
60.20000 137.236
60.24000 131.453
60.28000 133.700
60.32000 139.724
60.36000 135.698
60.40000 133.069
60.44000 134.932
60.48000 127.174
60.52000 125.268
60.56000 131.768
60.60000 127.246
60.64000 129.358
60.68000 145.667
60.72000 131.564
60.76000 126.667
60.80000 122.075
60.84000 128.684
60.88000 123.881
60.92000 130.113
60.96000 121.885
61.00000 134.617
61.04000 134.918
61.08000 149.157
61.12000 137.750
61.16000 135.680
61.20000 143.017
61.24000 136.799
61.28000 144.050
61.32000 138.937
61.36000 140.860
61.40000 138.689
61.44000 139.498
61.48000 141.560
61.52000 171.754
61.56000 225.415
61.60000 274.038
61.64000 308.509
61.68000 312.449
61.72000 307.689
61.76000 285.993
61.80000 247.890
61.84000 182.620
61.88000 161.685
61.92000 157.476
61.96000 146.568
62.00000 136.727
62.04000 150.908
62.08000 146.562
62.12000 143.350
62.16000 149.377
62.20000 150.367
62.24000 147.332
62.28000 139.600
62.32000 136.238
62.36000 134.426
62.40000 147.869
62.44000 138.357
62.48000 146.957
62.52000 141.966
62.56000 136.793
62.60000 130.642
62.64000 136.903
62.68000 140.923
62.72000 138.357
62.76000 144.990
62.80000 152.105
62.84000 145.751
62.88000 153.936
62.92000 140.506
62.96000 136.365
63.00000 157.307
63.04000 146.619
63.08000 146.858
63.12000 140.459
63.16000 151.484
63.20000 141.484
63.24000 149.899
63.28000 145.765
63.32000 150.294
63.36000 144.976
63.40000 148.430
63.44000 151.004
63.48000 147.902
63.52000 149.442
63.56000 161.076
63.60000 150.052
63.64000 165.619
63.68000 138.409
63.72000 135.737
63.76000 157.353
63.80000 148.036
63.84000 154.016
63.88000 149.154
63.92000 146.635
63.96000 149.677
64.00000 149.163
64.04000 154.343
64.08000 157.031
64.12000 162.426
64.16000 165.011
64.20000 153.203
64.24000 162.939
64.28000 156.731
64.32000 169.241
64.36000 157.904
64.40000 165.566
64.44000 164.882
64.48000 168.916
64.52000 175.469
64.56000 161.497
64.60000 173.773
64.64000 169.483
64.68000 171.852
64.72000 173.521
64.76000 176.864
64.80000 170.084
64.84000 187.041
64.88000 195.943
64.92000 185.534
64.96000 198.114
65.00000 194.801
65.04000 201.205
65.08000 224.921
65.12000 247.036
65.16000 251.247
65.20000 271.033
65.24000 276.961
65.28000 308.434
65.32000 310.472
65.36000 329.372
65.40000 352.409
65.44000 377.238
65.48000 396.529
65.52000 437.592
65.56000 425.204
65.60000 487.828
65.64000 522.668
65.68000 607.612
65.72000 778.874
65.76000 1067.594
65.80000 1325.301
65.84000 1366.038
65.88000 1436.596
65.92000 1359.234
65.96000 1108.096
66.00000 794.035
66.04000 533.020
66.08000 415.317
66.12000 375.355
66.16000 358.034
66.20000 329.664
66.24000 350.597
66.28000 394.076
66.32000 436.683
66.36000 494.791
66.40000 522.077
66.44000 495.287
66.48000 505.455
66.52000 465.933
66.56000 397.085
66.60000 363.998
66.64000 327.332
66.68000 347.783
66.72000 347.766
66.76000 312.407
66.80000 337.824
66.84000 329.825
66.88000 359.075
66.92000 337.923
66.96000 346.420
67.00000 375.913
67.04000 368.884
67.08000 363.756
67.12000 384.259
67.16000 393.634
67.20000 386.189
67.24000 391.548
67.28000 399.548
67.32000 413.858
67.36000 413.369
67.40000 420.689
67.44000 441.299
67.48000 434.644
67.52000 436.301
67.56000 447.234
67.60000 447.426
67.64000 466.448
67.68000 477.325
67.72000 495.455
67.76000 476.367
67.80000 519.212
67.84000 511.548
67.88000 518.247
67.92000 531.002
67.96000 541.904
68.00000 544.822
68.04000 557.756
68.08000 579.041
68.12000 606.828
68.16000 614.210
68.20000 606.767
68.24000 640.310
68.28000 645.740
68.32000 663.660
68.36000 681.310
68.40000 754.356
68.44000 762.329
68.48000 791.219
68.52000 886.895
68.56000 930.523
68.60000 1031.172
68.64000 1280.000
68.68000 1525.262
68.72000 1770.310
68.76000 2027.111
68.80000 2314.708
68.84000 2813.680
68.88000 3859.667
68.92000 6464.300
68.96000 17143.279
69.00000 36859.863
69.04000 57633.148
69.08000 68448.453
69.12000 71336.859
69.16000 73917.672
69.20000 72695.086
69.24000 61432.875
69.28000 47302.012
69.32000 38485.586
69.36000 34273.449
69.40000 27866.346
69.44000 17760.678
69.48000 8207.059
69.52000 3613.931
69.56000 2184.884
69.60000 1666.996
69.64000 1383.958
69.68000 1203.571
69.72000 1084.466
69.76000 982.386
69.80000 923.224
69.84000 845.807
69.88000 783.873
69.92000 748.499
69.96000 747.680
70.00000 707.064