File: XRD/XRD/24-09-2025 Dep 3/XY Data/BTO_Mapping_Theta2Theta_24-09-2025_001_48_-3-136_-29-836.xy
20.00000 551.875
20.04000 550.999
20.08000 558.459
20.12000 556.941
20.16000 554.769
20.20000 569.763
20.24000 576.014
20.28000 553.690
20.32000 566.147
20.36000 554.256
20.40000 576.824
20.44000 547.782
20.48000 543.407
20.52000 570.539
20.56000 544.880
20.60000 567.727
20.64000 546.488
20.68000 561.740
20.72000 542.558
20.76000 551.663
20.80000 551.688
20.84000 524.797
20.88000 548.414
20.92000 556.516
20.96000 566.046
21.00000 543.437
21.04000 553.481
21.08000 540.405
21.12000 564.128
21.16000 534.355
21.20000 536.037
21.24000 550.848
21.28000 543.905
21.32000 539.359
21.36000 537.346
21.40000 537.443
21.44000 550.774
21.48000 558.634
21.52000 563.592
21.56000 546.321
21.60000 555.994
21.64000 533.765
21.68000 546.351
21.72000 549.578
21.76000 563.035
21.80000 553.105
21.84000 579.785
21.88000 597.834
21.92000 627.091
21.96000 638.651
22.00000 659.036
22.04000 691.767
22.08000 658.731
22.12000 660.001
22.16000 656.597
22.20000 637.843
22.24000 625.373
22.28000 584.906
22.32000 594.503
22.36000 590.117
22.40000 587.985
22.44000 557.478
22.48000 570.489
22.52000 531.989
22.56000 539.309
22.60000 550.850
22.64000 546.358
22.68000 527.690
22.72000 518.608
22.76000 510.319
22.80000 514.493
22.84000 510.157
22.88000 512.839
22.92000 503.185
22.96000 514.268
23.00000 510.567
23.04000 530.470
23.08000 503.924
23.12000 511.764
23.16000 502.006
23.20000 500.841
23.24000 502.193
23.28000 495.530
23.32000 494.229
23.36000 499.697
23.40000 505.448
23.44000 497.242
23.48000 487.830
23.52000 500.977
23.56000 504.501
23.60000 492.828
23.64000 498.373
23.68000 507.472
23.72000 496.638
23.76000 507.064
23.80000 486.159
23.84000 483.036
23.88000 497.234
23.92000 468.484
23.96000 483.418
24.00000 492.292
24.04000 503.167
24.08000 483.728
24.12000 478.677
24.16000 490.478
24.20000 478.346
24.24000 507.823
24.28000 488.164
24.32000 504.934
24.36000 493.883
24.40000 499.735
24.44000 484.469
24.48000 477.320
24.52000 487.483
24.56000 475.208
24.60000 484.726
24.64000 484.299
24.68000 497.921
24.72000 486.780
24.76000 507.211
24.80000 485.519
24.84000 492.880
24.88000 493.297
24.92000 503.046
24.96000 500.386
25.00000 477.223
25.04000 467.913
25.08000 478.241
25.12000 477.729
25.16000 448.218
25.20000 475.228
25.24000 484.302
25.28000 462.000
25.32000 471.120
25.36000 492.688
25.40000 457.147
25.44000 460.943
25.48000 454.487
25.52000 468.167
25.56000 471.614
25.60000 468.707
25.64000 457.226
25.68000 464.146
25.72000 469.703
25.76000 470.528
25.80000 467.123
25.84000 463.738
25.88000 454.443
25.92000 470.906
25.96000 461.803
26.00000 452.701
26.04000 439.195
26.08000 451.081
26.12000 456.733
26.16000 452.016
26.20000 472.600
26.24000 465.163
26.28000 458.562
26.32000 457.834
26.36000 461.424
26.40000 454.426
26.44000 439.710
26.48000 450.781
26.52000 463.579
26.56000 439.105
26.60000 439.443
26.64000 450.792
26.68000 445.016
26.72000 415.011
26.76000 440.798
26.80000 438.920
26.84000 451.286
26.88000 446.280
26.92000 438.799
26.96000 436.063
27.00000 462.473
27.04000 442.617
27.08000 444.574
27.12000 449.143
27.16000 433.966
27.20000 436.266
27.24000 434.102
27.28000 443.865
27.32000 433.337
27.36000 429.861
27.40000 442.637
27.44000 406.658
27.48000 433.259
27.52000 421.376
27.56000 444.100
27.60000 452.506
27.64000 439.989
27.68000 442.061
27.72000 444.754
27.76000 425.183
27.80000 421.925
27.84000 434.863
27.88000 430.081
27.92000 444.497
27.96000 437.579
28.00000 427.850
28.04000 424.960
28.08000 418.601
28.12000 432.196
28.16000 429.508
28.20000 435.337
28.24000 428.767
28.28000 413.852
28.32000 419.593
28.36000 428.617
28.40000 413.448
28.44000 415.909
28.48000 436.478
28.52000 419.448
28.56000 418.574
28.60000 412.502
28.64000 405.568
28.68000 413.397
28.72000 421.180
28.76000 433.093
28.80000 424.001
28.84000 428.718
28.88000 409.755
28.92000 421.594
28.96000 404.611
29.00000 419.002
29.04000 417.909
29.08000 411.717
29.12000 417.826
29.16000 413.988
29.20000 430.085
29.24000 413.994
29.28000 404.411
29.32000 411.297
29.36000 412.431
29.40000 409.685
29.44000 406.893
29.48000 415.721
29.52000 402.417
29.56000 407.097
29.60000 409.534
29.64000 418.274
29.68000 396.035
29.72000 434.629
29.76000 414.482
29.80000 423.969
29.84000 441.187
29.88000 422.953
29.92000 425.277
29.96000 426.975
30.00000 417.227
30.04000 431.888
30.08000 439.160
30.12000 441.609
30.16000 439.337
30.20000 426.889
30.24000 421.531
30.28000 442.590
30.32000 420.241
30.36000 419.302
30.40000 406.538
30.44000 418.778
30.48000 427.964
30.52000 411.547
30.56000 427.585
30.60000 430.988
30.64000 421.767
30.68000 432.506
30.72000 434.623
30.76000 442.563
30.80000 444.348
30.84000 473.524
30.88000 455.734
30.92000 466.496
30.96000 516.351
31.00000 564.961
31.04000 618.478
31.08000 726.568
31.12000 858.055
31.16000 1100.039
31.20000 1378.021
31.24000 1724.394
31.28000 2059.131
31.32000 2372.458
31.36000 2519.469
31.40000 2565.091
31.44000 2508.557
31.48000 2268.637
31.52000 1943.825
31.56000 1586.751
31.60000 1283.433
31.64000 1028.813
31.68000 819.160
31.72000 697.705
31.76000 655.308
31.80000 559.985
31.84000 501.105
31.88000 470.380
31.92000 451.202
31.96000 424.051
32.00000 423.472
32.04000 413.268
32.08000 405.080
32.12000 410.128
32.16000 389.482
32.20000 408.926
32.24000 394.424
32.28000 400.712
32.32000 396.527
32.36000 380.638
32.40000 393.609
32.44000 389.791
32.48000 388.009
32.52000 401.864
32.56000 365.789
32.60000 374.763
32.64000 366.159
32.68000 382.698
32.72000 373.104
32.76000 379.234
32.80000 388.884
32.84000 434.184
32.88000 449.029
32.92000 472.697
32.96000 487.001
33.00000 476.542
33.04000 441.762
33.08000 396.891
33.12000 375.165
33.16000 361.696
33.20000 350.128
33.24000 365.200
33.28000 328.720
33.32000 350.734
33.36000 341.791
33.40000 336.816
33.44000 351.922
33.48000 339.614
33.52000 329.869
33.56000 322.223
33.60000 340.713
33.64000 347.740
33.68000 342.054
33.72000 334.445
33.76000 340.702
33.80000 333.177
33.84000 340.019
33.88000 338.536
33.92000 342.404
33.96000 343.656
34.00000 331.627
34.04000 339.893
34.08000 334.866
34.12000 322.993
34.16000 339.390
34.20000 338.159
34.24000 317.307
34.28000 337.356
34.32000 334.442
34.36000 319.635
34.40000 334.622
34.44000 326.416
34.48000 331.823
34.52000 314.285
34.56000 322.422
34.60000 335.612
34.64000 303.446
34.68000 315.153
34.72000 324.664
34.76000 327.331
34.80000 335.383
34.84000 313.944
34.88000 318.649
34.92000 303.994
34.96000 306.542
35.00000 314.984
35.04000 316.088
35.08000 303.486
35.12000 318.135
35.16000 317.767
35.20000 316.438
35.24000 309.771
35.28000 318.987
35.32000 308.432
35.36000 306.011
35.40000 327.965
35.44000 308.265
35.48000 321.238
35.52000 315.916
35.56000 310.780
35.60000 310.699
35.64000 307.967
35.68000 300.588
35.72000 327.228
35.76000 294.590
35.80000 304.693
35.84000 308.324
35.88000 306.814
35.92000 311.767
35.96000 303.730
36.00000 308.304
36.04000 299.418
36.08000 294.154
36.12000 313.320
36.16000 293.941
36.20000 293.855
36.24000 300.326
36.28000 294.952
36.32000 297.465
36.36000 308.995
36.40000 283.922
36.44000 293.205
36.48000 295.622
36.52000 310.234
36.56000 304.356
36.60000 294.357
36.64000 284.913
36.68000 294.732
36.72000 293.475
36.76000 305.902
36.80000 303.031
36.84000 290.557
36.88000 299.314
36.92000 315.784
36.96000 305.559
37.00000 321.259
37.04000 317.019
37.08000 328.390
37.12000 303.156
37.16000 313.833
37.20000 304.217
37.24000 282.983
37.28000 288.199
37.32000 291.966
37.36000 299.668
37.40000 296.925
37.44000 317.512
37.48000 298.169
37.52000 289.399
37.56000 306.838
37.60000 303.590
37.64000 287.438
37.68000 292.247
37.72000 285.590
37.76000 294.693
37.80000 314.199
37.84000 300.643
37.88000 302.328
37.92000 308.946
37.96000 310.681
38.00000 299.700
38.04000 318.072
38.08000 311.024
38.12000 311.573
38.16000 311.535
38.20000 319.510
38.24000 327.118
38.28000 334.709
38.32000 342.371
38.36000 367.984
38.40000 434.071
38.44000 480.452
38.48000 596.921
38.52000 770.865
38.56000 967.678
38.60000 1209.933
38.64000 1446.264
38.68000 1609.025
38.72000 1687.289
38.76000 1629.961
38.80000 1502.140
38.84000 1311.232
38.88000 1057.708
38.92000 853.907
38.96000 646.188
39.00000 530.895
39.04000 430.414
39.08000 362.274
39.12000 342.770
39.16000 315.853
39.20000 300.244
39.24000 290.764
39.28000 291.559
39.32000 288.409
39.36000 308.721
39.40000 280.825
39.44000 273.140
39.48000 274.933
39.52000 268.201
39.56000 266.815
39.60000 279.030
39.64000 268.063
39.68000 266.949
39.72000 260.204
39.76000 272.432
39.80000 266.892
39.84000 246.499
39.88000 266.819
39.92000 270.829
39.96000 273.885
40.00000 258.152
40.04000 266.440
40.08000 256.482
40.12000 273.408
40.16000 265.772
40.20000 265.688
40.24000 267.679
40.28000 271.493
40.32000 252.428
40.36000 272.040
40.40000 246.546
40.44000 260.114
40.48000 258.316
40.52000 241.879
40.56000 244.592
40.60000 258.288
40.64000 246.415
40.68000 242.191
40.72000 243.924
40.76000 254.497
40.80000 258.439
40.84000 245.530
40.88000 253.119
40.92000 241.922
40.96000 260.511
41.00000 250.190
41.04000 250.658
41.08000 249.383
41.12000 229.658
41.16000 242.761
41.20000 237.828
41.24000 257.807
41.28000 236.965
41.32000 239.990
41.36000 249.199
41.40000 263.086
41.44000 247.491
41.48000 245.503
41.52000 248.301
41.56000 256.914
41.60000 232.439
41.64000 234.481
41.68000 238.138
41.72000 248.087
41.76000 244.481
41.80000 243.720
41.84000 239.731
41.88000 239.528
41.92000 226.082
41.96000 227.606
42.00000 221.258
42.04000 244.072
42.08000 249.903
42.12000 242.711
42.16000 242.445
42.20000 244.563
42.24000 237.451
42.28000 233.740
42.32000 231.933
42.36000 240.759
42.40000 227.416
42.44000 230.573
42.48000 212.060
42.52000 227.878
42.56000 233.578
42.60000 229.964
42.64000 236.560
42.68000 234.828
42.72000 234.514
42.76000 233.056
42.80000 229.525
42.84000 232.229
42.88000 222.431
42.92000 216.901
42.96000 232.356
43.00000 233.920
43.04000 229.705
43.08000 229.615
43.12000 211.583
43.16000 233.364
43.20000 226.174
43.24000 221.219
43.28000 224.782
43.32000 219.872
43.36000 220.897
43.40000 224.279
43.44000 231.560
43.48000 221.883
43.52000 220.790
43.56000 216.782
43.60000 234.857
43.64000 238.105
43.68000 212.088
43.72000 222.844
43.76000 226.652
43.80000 217.749
43.84000 217.288
43.88000 212.980
43.92000 222.853
43.96000 227.473
44.00000 224.937
44.04000 213.799
44.08000 224.044
44.12000 215.071
44.16000 220.201
44.20000 234.933
44.24000 223.225
44.28000 213.166
44.32000 213.212
44.36000 232.337
44.40000 215.896
44.44000 206.875
44.48000 213.471
44.52000 235.554
44.56000 234.475
44.60000 228.285
44.64000 234.040
44.68000 235.707
44.72000 234.396
44.76000 255.860
44.80000 242.200
44.84000 255.877
44.88000 260.717
44.92000 281.899
44.96000 311.054
45.00000 305.307
45.04000 316.091
45.08000 313.793
45.12000 318.515
45.16000 305.072
45.20000 311.328
45.24000 294.701
45.28000 281.081
45.32000 290.125
45.36000 275.331
45.40000 251.322
45.44000 279.370
45.48000 262.458
45.52000 258.595
45.56000 245.948
45.60000 252.598
45.64000 246.632
45.68000 251.777
45.72000 246.158
45.76000 239.133
45.80000 240.338
45.84000 226.705
45.88000 230.657
45.92000 245.860
45.96000 226.308
46.00000 210.974
46.04000 218.006
46.08000 216.067
46.12000 223.453
46.16000 206.827
46.20000 204.853
46.24000 207.199
46.28000 207.351
46.32000 195.012
46.36000 212.950
46.40000 209.819
46.44000 197.788
46.48000 196.081
46.52000 206.231
46.56000 206.531
46.60000 194.891
46.64000 204.543
46.68000 192.757
46.72000 193.592
46.76000 196.033
46.80000 191.514
46.84000 203.965
46.88000 201.031
46.92000 195.036
46.96000 197.741
47.00000 197.574
47.04000 207.152
47.08000 198.098
47.12000 191.743
47.16000 191.774
47.20000 188.311
47.24000 203.801
47.28000 198.193
47.32000 194.858
47.36000 185.831
47.40000 181.375
47.44000 190.856
47.48000 187.397
47.52000 181.145
47.56000 194.461
47.60000 190.556
47.64000 184.694
47.68000 187.234
47.72000 191.615
47.76000 185.922
47.80000 190.050
47.84000 200.506
47.88000 170.830
47.92000 191.328
47.96000 188.771
48.00000 190.385
48.04000 191.553
48.08000 195.861
48.12000 174.711
48.16000 176.082
48.20000 171.583
48.24000 170.788
48.28000 188.020
48.32000 185.971
48.36000 199.477
48.40000 181.786
48.44000 185.648
48.48000 181.297
48.52000 182.110
48.56000 191.826
48.60000 192.023
48.64000 181.498
48.68000 184.999
48.72000 191.312
48.76000 177.044
48.80000 186.459
48.84000 179.351
48.88000 181.845
48.92000 167.326
48.96000 170.844
49.00000 172.997
49.04000 180.785
49.08000 183.923
49.12000 174.262
49.16000 177.053
49.20000 173.192
49.24000 180.538
49.28000 171.108
49.32000 178.857
49.36000 174.438
49.40000 180.512
49.44000 184.845
49.48000 174.437
49.52000 168.520
49.56000 175.112
49.60000 168.172
49.64000 175.091
49.68000 180.338
49.72000 182.257
49.76000 173.427
49.80000 173.469
49.84000 188.244
49.88000 175.304
49.92000 168.897
49.96000 178.884
50.00000 183.817
50.04000 163.948
50.08000 179.630
50.12000 181.419
50.16000 179.694
50.20000 179.066
50.24000 166.177
50.28000 183.445
50.32000 178.234
50.36000 181.546
50.40000 197.587
50.44000 205.058
50.48000 202.087
50.52000 211.783
50.56000 213.235
50.60000 221.949
50.64000 227.829
50.68000 227.588
50.72000 227.498
50.76000 208.152
50.80000 221.966
50.84000 210.684
50.88000 219.507
50.92000 198.337
50.96000 198.733
51.00000 199.144
51.04000 199.056
51.08000 192.155
51.12000 188.311
51.16000 192.300
51.20000 179.527
51.24000 171.946
51.28000 172.255
51.32000 166.802
51.36000 181.676
51.40000 175.400
51.44000 184.966
51.48000 174.706
51.52000 170.141
51.56000 170.094
51.60000 160.816
51.64000 164.490
51.68000 160.680
51.72000 167.270
51.76000 161.389
51.80000 168.850
51.84000 166.133
51.88000 172.190
51.92000 169.530
51.96000 164.090
52.00000 166.867
52.04000 162.539
52.08000 161.824
52.12000 159.026
52.16000 156.802
52.20000 166.168
52.24000 157.098
52.28000 163.379
52.32000 156.504
52.36000 156.459
52.40000 162.954
52.44000 158.417
52.48000 162.926
52.52000 151.947
52.56000 157.467
52.60000 175.874
52.64000 150.689
52.68000 163.234
52.72000 153.281
52.76000 165.341
52.80000 160.069
52.84000 156.312
52.88000 158.744
52.92000 158.293
52.96000 153.737
53.00000 163.979
53.04000 165.289
53.08000 164.477
53.12000 167.280
53.16000 151.822
53.20000 154.799
53.24000 168.479
53.28000 168.614
53.32000 175.459
53.36000 172.785
53.40000 169.784
53.44000 175.605
53.48000 155.696
53.52000 166.429
53.56000 160.566
53.60000 161.992
53.64000 163.599
53.68000 161.564
53.72000 159.238
53.76000 149.539
53.80000 159.870
53.84000 161.643
53.88000 162.121
53.92000 160.270
53.96000 162.257
54.00000 155.444
54.04000 156.111
54.08000 159.760
54.12000 154.501
54.16000 158.696
54.20000 154.894
54.24000 151.933
54.28000 166.628
54.32000 160.036
54.36000 166.965
54.40000 154.002
54.44000 162.213
54.48000 163.454
54.52000 160.894
54.56000 168.248
54.60000 164.718
54.64000 162.534
54.68000 168.570
54.72000 168.674
54.76000 161.972
54.80000 156.954
54.84000 153.000
54.88000 154.903
54.92000 159.217
54.96000 157.093
55.00000 155.427
55.04000 169.204
55.08000 154.855
55.12000 170.181
55.16000 165.290
55.20000 163.668
55.24000 162.635
55.28000 177.626
55.32000 179.147
55.36000 185.528
55.40000 180.743
55.44000 193.896
55.48000 204.989
55.52000 230.760
55.56000 251.239
55.60000 276.967
55.64000 326.318
55.68000 401.528
55.72000 469.635
55.76000 556.761
55.80000 644.443
55.84000 776.106
55.88000 866.967
55.92000 900.667
55.96000 907.906
56.00000 907.883
56.04000 861.202
56.08000 800.744
56.12000 711.996
56.16000 626.523
56.20000 510.345
56.24000 442.792
56.28000 376.316
56.32000 289.753
56.36000 282.118
56.40000 256.816
56.44000 224.235
56.48000 209.163
56.52000 205.800
56.56000 191.381
56.60000 173.013
56.64000 177.872
56.68000 174.467
56.72000 159.384
56.76000 164.241
56.80000 158.894
56.84000 154.083
56.88000 157.761
56.92000 157.468
56.96000 146.145
57.00000 155.154
57.04000 149.401
57.08000 145.461
57.12000 150.878
57.16000 156.326
57.20000 151.820
57.24000 154.835
57.28000 151.933
57.32000 154.561
57.36000 156.070
57.40000 147.250
57.44000 149.797
57.48000 146.273
57.52000 152.366
57.56000 136.107
57.60000 147.119
57.64000 141.420
57.68000 138.279
57.72000 151.235
57.76000 153.220
57.80000 132.252
57.84000 142.261
57.88000 140.012
57.92000 143.751
57.96000 142.464
58.00000 145.108
58.04000 137.773
58.08000 149.469
58.12000 130.375
58.16000 141.085
58.20000 138.855
58.24000 138.641
58.28000 138.570
58.32000 144.419
58.36000 135.588
58.40000 141.238
58.44000 135.160
58.48000 140.093
58.52000 138.255
58.56000 129.949
58.60000 140.261
58.64000 131.000
58.68000 136.864
58.72000 142.304
58.76000 139.363
58.80000 145.210
58.84000 138.736
58.88000 141.333
58.92000 139.457
58.96000 139.190
59.00000 130.758
59.04000 128.567
59.08000 134.544
59.12000 144.247
59.16000 135.042
59.20000 136.401
59.24000 129.785
59.28000 137.820
59.32000 131.072
59.36000 129.227
59.40000 138.559
59.44000 129.124
59.48000 127.395
59.52000 139.498
59.56000 138.912
59.60000 137.488
59.64000 128.832
59.68000 138.549
59.72000 139.253
59.76000 137.709
59.80000 128.050
59.84000 146.709
59.88000 130.974
59.92000 124.090
59.96000 125.613
60.00000 138.654
60.04000 123.044
60.08000 135.273
60.12000 132.598
60.16000 131.245
60.20000 131.618
60.24000 127.609
60.28000 130.713
60.32000 128.876
60.36000 116.099
60.40000 135.326
60.44000 136.045
60.48000 129.942
60.52000 127.255
60.56000 128.520
60.60000 135.753
60.64000 131.642
60.68000 132.012
60.72000 127.544
60.76000 133.333
60.80000 126.428
60.84000 139.932
60.88000 117.765
60.92000 135.447
60.96000 129.642
61.00000 137.832
61.04000 134.562
61.08000 135.842
61.12000 135.977
61.16000 137.892
61.20000 142.518
61.24000 134.461
61.28000 142.444
61.32000 131.087
61.36000 136.891
61.40000 127.291
61.44000 137.950
61.48000 144.926
61.52000 161.746
61.56000 198.758
61.60000 224.229
61.64000 262.608
61.68000 270.449
61.72000 268.983
61.76000 255.722
61.80000 207.835
61.84000 170.982
61.88000 154.611
61.92000 151.735
61.96000 129.111
62.00000 138.030
62.04000 138.885
62.08000 144.213
62.12000 149.653
62.16000 136.942
62.20000 136.799
62.24000 140.149
62.28000 134.964
62.32000 128.013
62.36000 136.058
62.40000 135.967
62.44000 136.239
62.48000 143.538
62.52000 140.767
62.56000 134.984
62.60000 146.538
62.64000 130.098
62.68000 134.907
62.72000 135.599
62.76000 133.915
62.80000 144.594
62.84000 137.186
62.88000 143.792
62.92000 153.124
62.96000 135.594
63.00000 137.961
63.04000 150.289
63.08000 151.399
63.12000 151.316
63.16000 152.858
63.20000 149.014
63.24000 150.556
63.28000 144.230
63.32000 146.805
63.36000 145.550
63.40000 145.801
63.44000 148.165
63.48000 143.562
63.52000 145.015
63.56000 148.785
63.60000 155.614
63.64000 145.919
63.68000 139.136
63.72000 155.264
63.76000 148.154
63.80000 152.607
63.84000 157.089
63.88000 153.504
63.92000 158.760
63.96000 137.965
64.00000 142.979
64.04000 156.629
64.08000 147.072
64.12000 151.269
64.16000 163.833
64.20000 163.341
64.24000 160.023
64.28000 170.022
64.32000 163.119
64.36000 169.430
64.40000 159.415
64.44000 158.388
64.48000 166.693
64.52000 162.361
64.56000 170.453
64.60000 169.765
64.64000 166.860
64.68000 158.917
64.72000 169.157
64.76000 168.093
64.80000 182.076
64.84000 178.254
64.88000 182.869
64.92000 181.265
64.96000 195.076
65.00000 191.802
65.04000 183.491
65.08000 194.962
65.12000 199.908
65.16000 215.182
65.20000 219.619
65.24000 249.091
65.28000 247.855
65.32000 280.078
65.36000 279.829
65.40000 291.545
65.44000 308.442
65.48000 313.283
65.52000 304.571
65.56000 332.784
65.60000 390.568
65.64000 398.566
65.68000 488.906
65.72000 619.161
65.76000 842.237
65.80000 1050.117
65.84000 1107.447
65.88000 1116.712
65.92000 1069.457
65.96000 928.699
66.00000 668.408
66.04000 447.844
66.08000 369.292
66.12000 322.278
66.16000 316.304
66.20000 302.807
66.24000 312.218
66.28000 350.545
66.32000 385.433
66.36000 429.465
66.40000 434.347
66.44000 447.223
66.48000 441.734
66.52000 396.225
66.56000 344.873
66.60000 320.202
66.64000 320.924
66.68000 307.856
66.72000 310.210
66.76000 305.107
66.80000 311.313
66.84000 315.104
66.88000 309.050
66.92000 321.110
66.96000 307.653
67.00000 333.627
67.04000 344.023
67.08000 336.603
67.12000 338.504
67.16000 355.763
67.20000 363.140
67.24000 369.005
67.28000 371.985
67.32000 382.179
67.36000 378.274
67.40000 395.433
67.44000 397.881
67.48000 407.067
67.52000 407.927
67.56000 395.408
67.60000 430.193
67.64000 435.611
67.68000 434.775
67.72000 439.639
67.76000 464.663
67.80000 451.938
67.84000 459.143
67.88000 473.910
67.92000 473.905
67.96000 486.079
68.00000 502.665
68.04000 498.213
68.08000 541.039
68.12000 525.875
68.16000 540.542
68.20000 584.979
68.24000 568.229
68.28000 610.808
68.32000 623.284
68.36000 627.304
68.40000 654.556
68.44000 690.564
68.48000 705.846
68.52000 762.071
68.56000 825.928
68.60000 916.356
68.64000 1072.743
68.68000 1244.263
68.72000 1468.579
68.76000 1692.606
68.80000 1925.797
68.84000 2283.722
68.88000 2959.735
68.92000 4726.533
68.96000 12994.500
69.00000 28765.068
69.04000 44757.473
69.08000 52285.492
69.12000 54094.012
69.16000 56338.188
69.20000 55765.328
69.24000 46586.535
69.28000 35214.395
69.32000 28908.883
69.36000 26178.373
69.40000 21313.885
69.44000 13350.806
69.48000 5930.470
69.52000 2782.901
69.56000 1755.229
69.60000 1374.130
69.64000 1184.082
69.68000 1033.924
69.72000 939.165
69.76000 844.092
69.80000 792.507
69.84000 732.067
69.88000 715.284
69.92000 705.361
69.96000 657.466
70.00000 663.378