File: XRD/XRD/24-09-2025 Dep 3/XY Data/BTO_Mapping_Theta2Theta_24-09-2025_001_31_-19-563_4-158.xy
20.00000 560.657
20.04000 553.270
20.08000 556.303
20.12000 556.864
20.16000 575.846
20.20000 540.148
20.24000 557.757
20.28000 558.760
20.32000 568.074
20.36000 548.681
20.40000 574.240
20.44000 571.340
20.48000 571.930
20.52000 558.266
20.56000 567.678
20.60000 542.604
20.64000 557.496
20.68000 572.421
20.72000 536.515
20.76000 541.430
20.80000 548.415
20.84000 569.854
20.88000 558.248
20.92000 541.526
20.96000 549.808
21.00000 571.123
21.04000 556.140
21.08000 563.697
21.12000 563.118
21.16000 549.320
21.20000 545.191
21.24000 557.393
21.28000 554.265
21.32000 558.154
21.36000 549.024
21.40000 557.563
21.44000 540.852
21.48000 554.121
21.52000 546.073
21.56000 540.467
21.60000 577.755
21.64000 591.625
21.68000 593.604
21.72000 618.553
21.76000 629.737
21.80000 664.549
21.84000 716.672
21.88000 764.459
21.92000 838.519
21.96000 927.979
22.00000 934.942
22.04000 945.641
22.08000 945.799
22.12000 889.317
22.16000 815.091
22.20000 757.463
22.24000 682.530
22.28000 645.149
22.32000 624.144
22.36000 581.956
22.40000 589.606
22.44000 561.590
22.48000 574.937
22.52000 552.629
22.56000 545.832
22.60000 532.375
22.64000 538.930
22.68000 564.908
22.72000 538.981
22.76000 530.196
22.80000 491.901
22.84000 514.024
22.88000 509.675
22.92000 520.362
22.96000 515.599
23.00000 509.241
23.04000 521.899
23.08000 520.349
23.12000 540.500
23.16000 533.064
23.20000 536.059
23.24000 525.576
23.28000 515.980
23.32000 509.447
23.36000 504.227
23.40000 506.357
23.44000 511.260
23.48000 501.214
23.52000 495.278
23.56000 500.962
23.60000 490.953
23.64000 490.693
23.68000 502.240
23.72000 506.837
23.76000 497.336
23.80000 511.014
23.84000 491.908
23.88000 510.829
23.92000 515.246
23.96000 483.591
24.00000 484.595
24.04000 489.076
24.08000 500.232
24.12000 509.081
24.16000 476.757
24.20000 482.917
24.24000 509.656
24.28000 505.371
24.32000 486.914
24.36000 499.388
24.40000 493.183
24.44000 469.116
24.48000 507.897
24.52000 493.831
24.56000 473.776
24.60000 500.420
24.64000 512.922
24.68000 486.417
24.72000 480.480
24.76000 497.162
24.80000 495.050
24.84000 480.368
24.88000 491.139
24.92000 475.318
24.96000 486.732
25.00000 472.970
25.04000 480.197
25.08000 468.004
25.12000 484.856
25.16000 472.565
25.20000 482.263
25.24000 473.420
25.28000 474.271
25.32000 477.997
25.36000 466.567
25.40000 482.731
25.44000 493.870
25.48000 472.750
25.52000 456.088
25.56000 487.471
25.60000 468.139
25.64000 473.266
25.68000 452.299
25.72000 482.171
25.76000 461.065
25.80000 466.334
25.84000 471.415
25.88000 471.745
25.92000 461.499
25.96000 458.322
26.00000 473.094
26.04000 464.546
26.08000 459.070
26.12000 450.854
26.16000 467.895
26.20000 471.728
26.24000 441.718
26.28000 457.798
26.32000 464.298
26.36000 449.745
26.40000 453.313
26.44000 449.149
26.48000 450.173
26.52000 463.720
26.56000 453.304
26.60000 447.825
26.64000 446.744
26.68000 438.210
26.72000 462.739
26.76000 443.448
26.80000 452.819
26.84000 450.046
26.88000 439.136
26.92000 449.040
26.96000 458.289
27.00000 445.009
27.04000 460.686
27.08000 441.859
27.12000 428.320
27.16000 442.194
27.20000 431.069
27.24000 462.623
27.28000 448.949
27.32000 435.301
27.36000 452.774
27.40000 446.067
27.44000 428.543
27.48000 427.456
27.52000 426.059
27.56000 445.437
27.60000 437.290
27.64000 434.607
27.68000 445.735
27.72000 443.230
27.76000 436.074
27.80000 426.906
27.84000 432.348
27.88000 436.735
27.92000 424.749
27.96000 431.590
28.00000 433.164
28.04000 430.648
28.08000 428.761
28.12000 441.411
28.16000 434.957
28.20000 428.662
28.24000 431.408
28.28000 436.684
28.32000 431.785
28.36000 404.961
28.40000 429.309
28.44000 447.675
28.48000 433.643
28.52000 430.298
28.56000 433.821
28.60000 438.992
28.64000 417.391
28.68000 406.052
28.72000 406.411
28.76000 417.741
28.80000 423.162
28.84000 426.001
28.88000 430.612
28.92000 430.124
28.96000 416.096
29.00000 422.038
29.04000 423.555
29.08000 417.849
29.12000 426.309
29.16000 422.530
29.20000 427.807
29.24000 410.263
29.28000 426.536
29.32000 411.564
29.36000 409.463
29.40000 419.858
29.44000 416.427
29.48000 412.453
29.52000 416.452
29.56000 417.922
29.60000 419.925
29.64000 429.887
29.68000 423.935
29.72000 405.697
29.76000 426.536
29.80000 419.748
29.84000 427.715
29.88000 433.242
29.92000 452.659
29.96000 456.496
30.00000 464.060
30.04000 470.923
30.08000 457.528
30.12000 456.479
30.16000 447.179
30.20000 432.654
30.24000 424.845
30.28000 424.601
30.32000 443.822
30.36000 436.891
30.40000 424.375
30.44000 444.846
30.48000 428.759
30.52000 420.193
30.56000 429.792
30.60000 453.696
30.64000 453.886
30.68000 449.695
30.72000 444.408
30.76000 463.095
30.80000 474.205
30.84000 476.364
30.88000 496.728
30.92000 543.717
30.96000 591.671
31.00000 637.481
31.04000 741.714
31.08000 919.279
31.12000 1188.886
31.16000 1511.900
31.20000 1969.345
31.24000 2483.720
31.28000 2895.615
31.32000 3277.344
31.36000 3456.287
31.40000 3372.127
31.44000 3137.098
31.48000 2712.705
31.52000 2227.714
31.56000 1765.441
31.60000 1332.905
31.64000 1087.038
31.68000 871.470
31.72000 721.632
31.76000 620.471
31.80000 563.583
31.84000 513.245
31.88000 490.844
31.92000 460.660
31.96000 442.387
32.00000 405.492
32.04000 432.962
32.08000 415.346
32.12000 433.908
32.16000 400.311
32.20000 407.328
32.24000 416.531
32.28000 403.606
32.32000 409.821
32.36000 402.425
32.40000 403.699
32.44000 383.202
32.48000 395.651
32.52000 389.192
32.56000 383.488
32.60000 402.297
32.64000 385.313
32.68000 383.151
32.72000 398.740
32.76000 410.144
32.80000 445.902
32.84000 495.298
32.88000 570.282
32.92000 595.286
32.96000 615.650
33.00000 603.867
33.04000 554.197
33.08000 466.510
33.12000 425.266
33.16000 389.582
33.20000 361.583
33.24000 360.492
33.28000 351.582
33.32000 337.396
33.36000 355.299
33.40000 354.353
33.44000 350.312
33.48000 351.882
33.52000 349.239
33.56000 334.199
33.60000 349.531
33.64000 345.952
33.68000 341.229
33.72000 335.057
33.76000 357.744
33.80000 347.177
33.84000 347.573
33.88000 344.008
33.92000 358.716
33.96000 322.782
34.00000 346.807
34.04000 335.358
34.08000 341.773
34.12000 329.618
34.16000 335.537
34.20000 343.390
34.24000 319.402
34.28000 334.243
34.32000 331.703
34.36000 316.573
34.40000 339.484
34.44000 343.297
34.48000 317.128
34.52000 325.334
34.56000 331.427
34.60000 324.581
34.64000 328.429
34.68000 323.991
34.72000 329.962
34.76000 310.052
34.80000 321.415
34.84000 313.095
34.88000 313.368
34.92000 310.264
34.96000 313.537
35.00000 320.643
35.04000 323.901
35.08000 319.331
35.12000 326.758
35.16000 314.984
35.20000 304.801
35.24000 309.568
35.28000 320.433
35.32000 316.214
35.36000 326.722
35.40000 312.350
35.44000 309.113
35.48000 300.624
35.52000 313.574
35.56000 305.542
35.60000 318.618
35.64000 318.908
35.68000 310.260
35.72000 307.450
35.76000 305.603
35.80000 315.908
35.84000 306.087
35.88000 309.101
35.92000 299.587
35.96000 304.856
36.00000 314.924
36.04000 308.306
36.08000 291.136
36.12000 311.872
36.16000 303.033
36.20000 313.731
36.24000 320.149
36.28000 306.819
36.32000 290.408
36.36000 311.556
36.40000 318.715
36.44000 308.877
36.48000 296.383
36.52000 301.418
36.56000 306.373
36.60000 289.104
36.64000 297.406
36.68000 295.181
36.72000 288.778
36.76000 291.347
36.80000 294.319
36.84000 304.999
36.88000 287.647
36.92000 319.611
36.96000 310.423
37.00000 300.169
37.04000 306.353
37.08000 309.573
37.12000 306.143
37.16000 298.181
37.20000 292.918
37.24000 300.040
37.28000 299.414
37.32000 292.487
37.36000 288.628
37.40000 304.923
37.44000 293.236
37.48000 305.758
37.52000 298.532
37.56000 294.514
37.60000 296.031
37.64000 305.392
37.68000 288.573
37.72000 297.278
37.76000 281.386
37.80000 294.949
37.84000 293.844
37.88000 304.701
37.92000 292.673
37.96000 296.282
38.00000 321.056
38.04000 310.226
38.08000 307.117
38.12000 291.773
38.16000 319.487
38.20000 315.362
38.24000 322.123
38.28000 333.783
38.32000 369.939
38.36000 418.200
38.40000 446.344
38.44000 546.617
38.48000 614.601
38.52000 760.438
38.56000 885.842
38.60000 981.009
38.64000 1077.928
38.68000 1130.743
38.72000 1117.138
38.76000 1013.546
38.80000 902.316
38.84000 765.686
38.88000 651.935
38.92000 524.753
38.96000 450.297
39.00000 407.587
39.04000 332.792
39.08000 327.539
39.12000 310.374
39.16000 319.863
39.20000 291.588
39.24000 283.961
39.28000 284.731
39.32000 295.585
39.36000 278.177
39.40000 296.463
39.44000 281.938
39.48000 266.489
39.52000 274.884
39.56000 279.579
39.60000 289.798
39.64000 277.794
39.68000 264.558
39.72000 271.893
39.76000 273.267
39.80000 295.702
39.84000 271.648
39.88000 276.129
39.92000 280.486
39.96000 268.399
40.00000 261.230
40.04000 266.255
40.08000 254.207
40.12000 260.964
40.16000 257.218
40.20000 253.599
40.24000 263.972
40.28000 271.143
40.32000 264.787
40.36000 253.047
40.40000 252.398
40.44000 262.768
40.48000 265.804
40.52000 268.247
40.56000 257.328
40.60000 252.204
40.64000 238.466
40.68000 258.491
40.72000 258.203
40.76000 246.973
40.80000 259.337
40.84000 271.544
40.88000 254.700
40.92000 255.307
40.96000 264.462
41.00000 253.290
41.04000 256.035
41.08000 259.930
41.12000 260.219
41.16000 251.379
41.20000 242.517
41.24000 257.645
41.28000 253.832
41.32000 254.159
41.36000 233.667
41.40000 245.526
41.44000 251.997
41.48000 254.938
41.52000 258.380
41.56000 258.343
41.60000 249.336
41.64000 242.124
41.68000 238.587
41.72000 244.696
41.76000 232.471
41.80000 241.656
41.84000 243.650
41.88000 249.961
41.92000 249.137
41.96000 236.498
42.00000 248.757
42.04000 241.407
42.08000 261.131
42.12000 242.818
42.16000 236.279
42.20000 235.027
42.24000 239.851
42.28000 232.851
42.32000 227.832
42.36000 239.867
42.40000 227.983
42.44000 241.596
42.48000 230.752
42.52000 227.101
42.56000 230.512
42.60000 228.895
42.64000 222.547
42.68000 221.425
42.72000 225.132
42.76000 237.195
42.80000 228.745
42.84000 233.494
42.88000 227.312
42.92000 252.039
42.96000 236.890
43.00000 231.724
43.04000 236.980
43.08000 218.591
43.12000 230.927
43.16000 233.241
43.20000 222.734
43.24000 230.606
43.28000 229.500
43.32000 236.930
43.36000 244.522
43.40000 241.677
43.44000 215.255
43.48000 234.228
43.52000 222.914
43.56000 228.004
43.60000 222.070
43.64000 226.560
43.68000 229.487
43.72000 219.753
43.76000 218.805
43.80000 220.113
43.84000 218.009
43.88000 235.951
43.92000 227.623
43.96000 230.837
44.00000 230.234
44.04000 226.102
44.08000 239.334
44.12000 228.697
44.16000 243.705
44.20000 235.915
44.24000 223.599
44.28000 225.752
44.32000 232.040
44.36000 228.407
44.40000 237.295
44.44000 231.371
44.48000 231.305
44.52000 245.211
44.56000 246.982
44.60000 247.043
44.64000 267.753
44.68000 281.384
44.72000 308.989
44.76000 321.875
44.80000 384.365
44.84000 431.799
44.88000 482.628
44.92000 549.497
44.96000 580.333
45.00000 585.083
45.04000 569.754
45.08000 564.639
45.12000 549.054
45.16000 486.442
45.20000 446.675
45.24000 402.019
45.28000 382.065
45.32000 341.848
45.36000 332.221
45.40000 323.313
45.44000 301.247
45.48000 270.159
45.52000 290.273
45.56000 283.685
45.60000 268.347
45.64000 262.126
45.68000 263.259
45.72000 232.211
45.76000 239.913
45.80000 240.464
45.84000 230.514
45.88000 224.394
45.92000 225.293
45.96000 231.470
46.00000 211.031
46.04000 214.213
46.08000 218.357
46.12000 208.416
46.16000 209.354
46.20000 226.015
46.24000 209.244
46.28000 200.533
46.32000 207.809
46.36000 208.781
46.40000 195.098
46.44000 209.488
46.48000 202.054
46.52000 212.574
46.56000 208.820
46.60000 210.109
46.64000 204.334
46.68000 204.152
46.72000 203.761
46.76000 205.794
46.80000 202.883
46.84000 209.106
46.88000 200.687
46.92000 190.121
46.96000 202.382
47.00000 192.639
47.04000 210.780
47.08000 196.680
47.12000 195.906
47.16000 198.865
47.20000 183.624
47.24000 182.060
47.28000 198.871
47.32000 196.280
47.36000 186.066
47.40000 201.593
47.44000 183.573
47.48000 178.411
47.52000 186.898
47.56000 192.762
47.60000 186.483
47.64000 185.938
47.68000 196.142
47.72000 183.536
47.76000 192.511
47.80000 184.067
47.84000 192.823
47.88000 197.599
47.92000 188.074
47.96000 183.491
48.00000 185.830
48.04000 192.444
48.08000 195.741
48.12000 178.672
48.16000 188.260
48.20000 180.845
48.24000 177.986
48.28000 191.534
48.32000 193.046
48.36000 187.221
48.40000 186.717
48.44000 188.815
48.48000 191.584
48.52000 181.564
48.56000 182.667
48.60000 187.306
48.64000 181.852
48.68000 190.789
48.72000 181.707
48.76000 196.331
48.80000 180.797
48.84000 181.017
48.88000 183.784
48.92000 179.088
48.96000 188.113
49.00000 191.785
49.04000 190.007
49.08000 181.950
49.12000 176.492
49.16000 183.400
49.20000 187.722
49.24000 174.901
49.28000 179.134
49.32000 188.707
49.36000 180.884
49.40000 186.577
49.44000 181.240
49.48000 186.861
49.52000 176.114
49.56000 168.285
49.60000 176.839
49.64000 176.341
49.68000 161.690
49.72000 181.454
49.76000 184.449
49.80000 171.690
49.84000 184.152
49.88000 176.764
49.92000 182.044
49.96000 187.569
50.00000 181.491
50.04000 188.161
50.08000 192.896
50.12000 180.909
50.16000 184.059
50.20000 188.551
50.24000 187.380
50.28000 190.390
50.32000 188.242
50.36000 207.963
50.40000 218.960
50.44000 235.932
50.48000 231.468
50.52000 255.439
50.56000 263.422
50.60000 267.005
50.64000 273.435
50.68000 276.738
50.72000 277.251
50.76000 297.828
50.80000 264.732
50.84000 252.086
50.88000 229.013
50.92000 228.132
50.96000 217.159
51.00000 199.574
51.04000 194.865
51.08000 201.877
51.12000 195.360
51.16000 179.970
51.20000 194.538
51.24000 194.780
51.28000 175.527
51.32000 176.546
51.36000 171.129
51.40000 174.481
51.44000 177.075
51.48000 180.704
51.52000 177.983
51.56000 165.948
51.60000 167.667
51.64000 164.605
51.68000 170.913
51.72000 170.439
51.76000 169.174
51.80000 173.633
51.84000 167.194
51.88000 152.939
51.92000 159.229
51.96000 145.790
52.00000 164.432
52.04000 166.726
52.08000 163.419
52.12000 158.128
52.16000 162.625
52.20000 156.767
52.24000 169.238
52.28000 171.895
52.32000 168.829
52.36000 162.532
52.40000 163.461
52.44000 171.291
52.48000 160.076
52.52000 155.350
52.56000 163.160
52.60000 167.300
52.64000 155.309
52.68000 159.601
52.72000 169.042
52.76000 157.928
52.80000 153.126
52.84000 154.704
52.88000 170.708
52.92000 179.818
52.96000 151.756
53.00000 164.336
53.04000 173.611
53.08000 158.567
53.12000 157.871
53.16000 174.197
53.20000 169.150
53.24000 155.865
53.28000 165.954
53.32000 156.623
53.36000 168.650
53.40000 175.886
53.44000 170.164
53.48000 171.969
53.52000 169.726
53.56000 166.442
53.60000 170.304
53.64000 153.673
53.68000 162.122
53.72000 156.023
53.76000 178.774
53.80000 165.179
53.84000 167.529
53.88000 156.693
53.92000 154.797
53.96000 157.667
54.00000 160.861
54.04000 155.333
54.08000 153.377
54.12000 157.756
54.16000 153.528
54.20000 160.332
54.24000 155.529
54.28000 159.880
54.32000 155.636
54.36000 144.300
54.40000 165.126
54.44000 160.564
54.48000 157.918
54.52000 152.433
54.56000 165.847
54.60000 147.892
54.64000 146.904
54.68000 158.610
54.72000 162.256
54.76000 162.354
54.80000 165.704
54.84000 158.709
54.88000 155.933
54.92000 166.189
54.96000 170.465
55.00000 177.024
55.04000 160.271
55.08000 163.446
55.12000 166.015
55.16000 184.026
55.20000 170.137
55.24000 173.555
55.28000 176.175
55.32000 178.313
55.36000 187.672
55.40000 195.554
55.44000 221.030
55.48000 235.993
55.52000 257.829
55.56000 288.946
55.60000 321.340
55.64000 411.730
55.68000 464.456
55.72000 539.277
55.76000 646.658
55.80000 735.839
55.84000 790.740
55.88000 838.069
55.92000 847.654
55.96000 834.156
56.00000 764.164
56.04000 702.603
56.08000 628.711
56.12000 555.212
56.16000 463.493
56.20000 394.425
56.24000 334.995
56.28000 297.880
56.32000 240.112
56.36000 228.154
56.40000 194.000
56.44000 200.919
56.48000 194.100
56.52000 181.318
56.56000 178.432
56.60000 173.520
56.64000 171.564
56.68000 161.285
56.72000 167.295
56.76000 161.372
56.80000 164.755
56.84000 153.052
56.88000 161.962
56.92000 166.884
56.96000 147.358
57.00000 138.811
57.04000 153.251
57.08000 149.756
57.12000 149.145
57.16000 162.039
57.20000 156.236
57.24000 141.821
57.28000 149.605
57.32000 141.634
57.36000 128.228
57.40000 147.067
57.44000 140.090
57.48000 146.797
57.52000 143.856
57.56000 148.886
57.60000 144.612
57.64000 143.069
57.68000 153.739
57.72000 151.423
57.76000 155.028
57.80000 142.579
57.84000 136.294
57.88000 142.494
57.92000 143.904
57.96000 144.257
58.00000 140.547
58.04000 141.056
58.08000 140.377
58.12000 143.505
58.16000 147.214
58.20000 150.620
58.24000 148.673
58.28000 135.021
58.32000 139.660
58.36000 145.351
58.40000 132.899
58.44000 138.290
58.48000 145.017
58.52000 134.722
58.56000 143.110
58.60000 133.529
58.64000 142.754
58.68000 124.821
58.72000 151.248
58.76000 141.896
58.80000 129.907
58.84000 140.210
58.88000 135.569
58.92000 131.715
58.96000 141.278
59.00000 130.162
59.04000 131.238
59.08000 148.783
59.12000 126.123
59.16000 134.424
59.20000 141.810
59.24000 143.178
59.28000 134.542
59.32000 140.550
59.36000 138.023
59.40000 141.108
59.44000 135.044
59.48000 130.204
59.52000 131.158
59.56000 134.423
59.60000 132.618
59.64000 139.441
59.68000 138.349
59.72000 130.790
59.76000 140.754
59.80000 137.513
59.84000 143.026
59.88000 126.163
59.92000 139.907
59.96000 131.866
60.00000 135.292
60.04000 139.028
60.08000 130.342
60.12000 134.681
60.16000 134.500
60.20000 140.715
60.24000 131.041
60.28000 136.330
60.32000 139.734
60.36000 140.459
60.40000 137.135
60.44000 135.357
60.48000 137.731
60.52000 130.393
60.56000 129.282
60.60000 140.210
60.64000 130.294
60.68000 124.977
60.72000 126.940
60.76000 132.149
60.80000 126.657
60.84000 124.876
60.88000 127.205
60.92000 132.141
60.96000 135.131
61.00000 136.083
61.04000 141.853
61.08000 131.278
61.12000 130.947
61.16000 130.986
61.20000 139.683
61.24000 131.793
61.28000 135.664
61.32000 140.828
61.36000 128.877
61.40000 140.810
61.44000 144.807
61.48000 161.463
61.52000 169.163
61.56000 236.782
61.60000 290.482
61.64000 330.887
61.68000 327.972
61.72000 321.717
61.76000 320.506
61.80000 256.286
61.84000 191.410
61.88000 163.188
61.92000 146.156
61.96000 146.001
62.00000 143.509
62.04000 138.469
62.08000 143.286
62.12000 139.518
62.16000 145.299
62.20000 144.988
62.24000 142.862
62.28000 144.868
62.32000 139.825
62.36000 143.277
62.40000 151.614
62.44000 143.658
62.48000 136.891
62.52000 140.432
62.56000 153.016
62.60000 142.337
62.64000 134.034
62.68000 147.229
62.72000 139.889
62.76000 145.500
62.80000 138.567
62.84000 139.441
62.88000 140.444
62.92000 145.509
62.96000 146.510
63.00000 148.818
63.04000 150.182
63.08000 152.022
63.12000 143.294
63.16000 130.131
63.20000 147.367
63.24000 150.644
63.28000 146.312
63.32000 145.091
63.36000 132.340
63.40000 151.681
63.44000 143.742
63.48000 153.531
63.52000 153.751
63.56000 153.576
63.60000 151.685
63.64000 153.202
63.68000 164.235
63.72000 157.492
63.76000 164.199
63.80000 158.890
63.84000 148.409
63.88000 169.221
63.92000 156.189
63.96000 161.955
64.00000 151.269
64.04000 156.675
64.08000 144.255
64.12000 159.193
64.16000 155.303
64.20000 160.865
64.24000 160.036
64.28000 152.385
64.32000 162.277
64.36000 168.572
64.40000 154.292
64.44000 157.190
64.48000 167.900
64.52000 174.264
64.56000 175.996
64.60000 173.216
64.64000 177.989
64.68000 172.128
64.72000 176.386
64.76000 175.717
64.80000 185.471
64.84000 185.091
64.88000 185.771
64.92000 195.410
64.96000 196.064
65.00000 190.999
65.04000 200.497
65.08000 219.860
65.12000 234.530
65.16000 235.054
65.20000 254.887
65.24000 280.329
65.28000 295.568
65.32000 299.449
65.36000 337.383
65.40000 354.945
65.44000 384.781
65.48000 416.400
65.52000 409.597
65.56000 450.627
65.60000 463.389
65.64000 500.705
65.68000 602.972
65.72000 778.774
65.76000 1091.827
65.80000 1343.767
65.84000 1434.437
65.88000 1497.629
65.92000 1368.760
65.96000 1193.228
66.00000 839.914
66.04000 563.995
66.08000 424.649
66.12000 375.204
66.16000 334.591
66.20000 345.423
66.24000 364.002
66.28000 399.779
66.32000 457.163
66.36000 517.797
66.40000 538.530
66.44000 539.568
66.48000 527.195
66.52000 485.744
66.56000 437.227
66.60000 367.764
66.64000 363.211
66.68000 346.430
66.72000 336.028
66.76000 339.784
66.80000 347.497
66.84000 357.488
66.88000 362.300
66.92000 362.069
66.96000 380.608
67.00000 374.999
67.04000 370.020
67.08000 378.720
67.12000 390.080
67.16000 391.205
67.20000 415.862
67.24000 408.339
67.28000 398.409
67.32000 423.140
67.36000 434.541
67.40000 436.712
67.44000 452.674
67.48000 457.866
67.52000 446.242
67.56000 470.157
67.60000 483.658
67.64000 497.282
67.68000 515.404
67.72000 515.287
67.76000 510.167
67.80000 515.774
67.84000 520.565
67.88000 538.966
67.92000 576.708
67.96000 573.409
68.00000 573.818
68.04000 576.792
68.08000 573.316
68.12000 602.725
68.16000 606.662
68.20000 624.103
68.24000 653.103
68.28000 678.697
68.32000 684.307
68.36000 743.601
68.40000 760.920
68.44000 805.732
68.48000 825.694
68.52000 889.218
68.56000 970.963
68.60000 1128.440
68.64000 1341.234
68.68000 1603.056
68.72000 1889.375
68.76000 2207.075
68.80000 2610.606
68.84000 3236.292
68.88000 4571.116
68.92000 7494.614
68.96000 19327.443
69.00000 40521.422
69.04000 62762.141
69.08000 73822.625
69.12000 76881.156
69.16000 79687.828
69.20000 78624.914
69.24000 65976.305
69.28000 51096.516
69.32000 41749.098
69.36000 36859.445
69.40000 29848.523
69.44000 18808.451
69.48000 8784.113
69.52000 4047.394
69.56000 2358.878
69.60000 1743.040
69.64000 1434.089
69.68000 1291.301
69.72000 1112.102
69.76000 1025.314
69.80000 942.905
69.84000 870.896
69.88000 838.454
69.92000 815.758
69.96000 800.134
70.00000 745.108