File: XRD/XRD/24-09-2025 Dep 3/XY Data/BTO_Mapping_Theta2Theta_24-09-2025_001_35_-19-563_-4-158.xy
20.00000 548.755
20.04000 563.131
20.08000 568.073
20.12000 559.151
20.16000 555.973
20.20000 570.671
20.24000 542.970
20.28000 558.367
20.32000 552.448
20.36000 563.819
20.40000 546.353
20.44000 554.939
20.48000 555.954
20.52000 568.186
20.56000 546.574
20.60000 548.905
20.64000 531.023
20.68000 556.108
20.72000 521.548
20.76000 558.945
20.80000 557.120
20.84000 550.804
20.88000 553.879
20.92000 564.265
20.96000 562.690
21.00000 559.354
21.04000 554.923
21.08000 550.810
21.12000 541.062
21.16000 549.602
21.20000 554.252
21.24000 567.006
21.28000 544.594
21.32000 562.716
21.36000 525.643
21.40000 547.276
21.44000 576.562
21.48000 558.698
21.52000 553.492
21.56000 551.584
21.60000 564.958
21.64000 571.044
21.68000 576.592
21.72000 607.057
21.76000 632.334
21.80000 689.910
21.84000 689.281
21.88000 785.375
21.92000 833.927
21.96000 896.369
22.00000 941.635
22.04000 966.073
22.08000 920.374
22.12000 868.379
22.16000 795.215
22.20000 761.928
22.24000 713.822
22.28000 653.870
22.32000 638.185
22.36000 605.665
22.40000 599.357
22.44000 582.055
22.48000 554.831
22.52000 545.028
22.56000 550.283
22.60000 533.076
22.64000 533.307
22.68000 531.056
22.72000 526.281
22.76000 525.450
22.80000 517.212
22.84000 504.547
22.88000 511.545
22.92000 524.038
22.96000 522.884
23.00000 491.602
23.04000 510.057
23.08000 505.061
23.12000 519.363
23.16000 518.447
23.20000 535.479
23.24000 509.470
23.28000 514.462
23.32000 500.167
23.36000 509.223
23.40000 518.015
23.44000 502.818
23.48000 501.380
23.52000 513.786
23.56000 499.631
23.60000 503.002
23.64000 504.617
23.68000 499.377
23.72000 494.229
23.76000 492.159
23.80000 512.431
23.84000 480.923
23.88000 503.181
23.92000 498.872
23.96000 489.234
24.00000 495.789
24.04000 500.642
24.08000 503.469
24.12000 498.906
24.16000 492.083
24.20000 481.294
24.24000 481.891
24.28000 492.254
24.32000 492.825
24.36000 491.406
24.40000 480.313
24.44000 475.662
24.48000 476.351
24.52000 478.339
24.56000 485.728
24.60000 496.533
24.64000 500.066
24.68000 502.584
24.72000 487.573
24.76000 469.681
24.80000 491.916
24.84000 491.771
24.88000 474.344
24.92000 467.373
24.96000 475.029
25.00000 474.633
25.04000 494.789
25.08000 476.042
25.12000 481.469
25.16000 487.923
25.20000 474.279
25.24000 478.568
25.28000 474.807
25.32000 472.286
25.36000 469.780
25.40000 479.931
25.44000 468.282
25.48000 465.957
25.52000 469.844
25.56000 479.911
25.60000 472.009
25.64000 467.230
25.68000 457.921
25.72000 445.321
25.76000 463.235
25.80000 458.412
25.84000 478.381
25.88000 459.434
25.92000 467.108
25.96000 472.047
26.00000 463.221
26.04000 454.209
26.08000 449.333
26.12000 444.745
26.16000 453.305
26.20000 470.719
26.24000 451.987
26.28000 448.716
26.32000 455.343
26.36000 460.914
26.40000 454.564
26.44000 451.560
26.48000 445.988
26.52000 454.768
26.56000 456.831
26.60000 468.769
26.64000 462.493
26.68000 453.031
26.72000 449.699
26.76000 459.451
26.80000 450.870
26.84000 445.100
26.88000 438.635
26.92000 440.605
26.96000 429.986
27.00000 438.541
27.04000 448.546
27.08000 446.127
27.12000 440.525
27.16000 445.367
27.20000 451.165
27.24000 457.624
27.28000 442.623
27.32000 453.524
27.36000 421.242
27.40000 422.634
27.44000 427.848
27.48000 433.609
27.52000 437.048
27.56000 434.433
27.60000 421.771
27.64000 419.747
27.68000 430.847
27.72000 428.724
27.76000 437.781
27.80000 434.111
27.84000 420.693
27.88000 435.375
27.92000 427.400
27.96000 446.138
28.00000 448.668
28.04000 431.260
28.08000 436.528
28.12000 439.342
28.16000 443.171
28.20000 449.058
28.24000 439.008
28.28000 446.040
28.32000 442.848
28.36000 441.449
28.40000 423.794
28.44000 438.135
28.48000 443.040
28.52000 434.613
28.56000 424.684
28.60000 433.179
28.64000 430.313
28.68000 423.476
28.72000 432.259
28.76000 419.567
28.80000 426.544
28.84000 432.041
28.88000 442.069
28.92000 410.235
28.96000 407.014
29.00000 418.590
29.04000 419.901
29.08000 416.430
29.12000 414.018
29.16000 416.143
29.20000 406.985
29.24000 421.332
29.28000 417.154
29.32000 420.097
29.36000 400.645
29.40000 428.235
29.44000 409.291
29.48000 424.261
29.52000 416.064
29.56000 425.873
29.60000 419.699
29.64000 428.240
29.68000 427.673
29.72000 415.395
29.76000 412.786
29.80000 438.643
29.84000 443.998
29.88000 442.480
29.92000 460.310
29.96000 473.344
30.00000 442.687
30.04000 469.031
30.08000 443.581
30.12000 457.939
30.16000 434.033
30.20000 440.229
30.24000 458.704
30.28000 448.255
30.32000 435.416
30.36000 432.442
30.40000 414.847
30.44000 430.885
30.48000 435.781
30.52000 422.216
30.56000 443.283
30.60000 438.198
30.64000 452.454
30.68000 435.280
30.72000 454.495
30.76000 465.132
30.80000 488.065
30.84000 488.110
30.88000 519.558
30.92000 533.458
30.96000 605.295
31.00000 666.028
31.04000 758.537
31.08000 940.756
31.12000 1205.740
31.16000 1552.421
31.20000 1948.734
31.24000 2447.629
31.28000 2908.243
31.32000 3289.384
31.36000 3425.069
31.40000 3412.687
31.44000 3139.781
31.48000 2662.393
31.52000 2178.418
31.56000 1749.557
31.60000 1330.775
31.64000 1088.822
31.68000 853.879
31.72000 715.488
31.76000 627.979
31.80000 567.300
31.84000 504.705
31.88000 477.381
31.92000 452.771
31.96000 445.942
32.00000 443.548
32.04000 420.599
32.08000 421.561
32.12000 405.553
32.16000 397.758
32.20000 407.400
32.24000 399.021
32.28000 403.110
32.32000 388.817
32.36000 398.006
32.40000 403.979
32.44000 405.872
32.48000 377.121
32.52000 386.427
32.56000 379.282
32.60000 400.120
32.64000 396.601
32.68000 388.730
32.72000 393.229
32.76000 408.240
32.80000 425.761
32.84000 495.413
32.88000 539.678
32.92000 569.321
32.96000 591.648
33.00000 560.582
33.04000 529.846
33.08000 472.744
33.12000 421.375
33.16000 371.794
33.20000 367.670
33.24000 361.770
33.28000 356.540
33.32000 365.154
33.36000 351.303
33.40000 349.656
33.44000 357.780
33.48000 349.750
33.52000 339.624
33.56000 341.764
33.60000 334.385
33.64000 343.356
33.68000 348.952
33.72000 351.489
33.76000 337.057
33.80000 334.804
33.84000 338.749
33.88000 343.318
33.92000 333.401
33.96000 336.578
34.00000 345.755
34.04000 334.883
34.08000 333.970
34.12000 333.655
34.16000 325.413
34.20000 344.536
34.24000 341.125
34.28000 321.588
34.32000 338.139
34.36000 314.779
34.40000 337.462
34.44000 320.372
34.48000 324.403
34.52000 324.816
34.56000 322.640
34.60000 333.124
34.64000 340.511
34.68000 323.537
34.72000 327.881
34.76000 316.700
34.80000 317.678
34.84000 326.901
34.88000 318.353
34.92000 319.612
34.96000 328.333
35.00000 312.609
35.04000 335.750
35.08000 334.954
35.12000 322.406
35.16000 316.451
35.20000 316.095
35.24000 298.927
35.28000 325.824
35.32000 315.492
35.36000 315.289
35.40000 323.195
35.44000 309.092
35.48000 307.358
35.52000 308.471
35.56000 299.946
35.60000 312.791
35.64000 311.851
35.68000 303.776
35.72000 317.036
35.76000 300.293
35.80000 298.593
35.84000 306.939
35.88000 303.953
35.92000 313.209
35.96000 309.113
36.00000 305.661
36.04000 315.051
36.08000 296.372
36.12000 304.386
36.16000 288.596
36.20000 301.334
36.24000 291.123
36.28000 297.045
36.32000 308.849
36.36000 305.765
36.40000 317.420
36.44000 298.600
36.48000 304.611
36.52000 302.487
36.56000 310.133
36.60000 303.866
36.64000 283.798
36.68000 293.978
36.72000 297.547
36.76000 302.559
36.80000 299.234
36.84000 299.937
36.88000 307.972
36.92000 311.548
36.96000 314.091
37.00000 315.261
37.04000 317.251
37.08000 309.148
37.12000 297.353
37.16000 305.352
37.20000 299.445
37.24000 295.614
37.28000 307.078
37.32000 302.727
37.36000 293.347
37.40000 314.328
37.44000 301.116
37.48000 298.533
37.52000 291.061
37.56000 304.271
37.60000 301.246
37.64000 301.233
37.68000 312.431
37.72000 304.775
37.76000 301.301
37.80000 295.017
37.84000 290.204
37.88000 291.131
37.92000 298.325
37.96000 298.354
38.00000 303.428
38.04000 294.574
38.08000 310.043
38.12000 306.333
38.16000 315.126
38.20000 308.967
38.24000 322.522
38.28000 353.521
38.32000 363.371
38.36000 395.955
38.40000 464.085
38.44000 532.666
38.48000 646.038
38.52000 765.201
38.56000 921.037
38.60000 1023.009
38.64000 1101.424
38.68000 1145.506
38.72000 1087.578
38.76000 1019.152
38.80000 914.459
38.84000 757.912
38.88000 619.908
38.92000 516.558
38.96000 442.431
39.00000 379.763
39.04000 343.974
39.08000 332.930
39.12000 320.740
39.16000 304.060
39.20000 307.765
39.24000 286.954
39.28000 290.950
39.32000 291.554
39.36000 286.224
39.40000 289.766
39.44000 270.327
39.48000 284.293
39.52000 297.243
39.56000 272.765
39.60000 261.735
39.64000 280.001
39.68000 276.593
39.72000 271.370
39.76000 268.308
39.80000 259.571
39.84000 283.209
39.88000 276.131
39.92000 261.136
39.96000 274.290
40.00000 277.304
40.04000 271.104
40.08000 275.551
40.12000 269.251
40.16000 272.136
40.20000 265.181
40.24000 272.164
40.28000 258.354
40.32000 257.710
40.36000 271.953
40.40000 274.184
40.44000 257.470
40.48000 262.659
40.52000 252.157
40.56000 241.356
40.60000 250.803
40.64000 230.517
40.68000 246.691
40.72000 252.422
40.76000 264.864
40.80000 246.237
40.84000 252.579
40.88000 254.300
40.92000 256.878
40.96000 252.629
41.00000 249.780
41.04000 253.542
41.08000 248.870
41.12000 250.219
41.16000 245.339
41.20000 243.294
41.24000 241.659
41.28000 248.628
41.32000 252.100
41.36000 241.374
41.40000 242.572
41.44000 244.760
41.48000 261.489
41.52000 244.070
41.56000 250.854
41.60000 234.639
41.64000 237.572
41.68000 255.047
41.72000 245.541
41.76000 252.286
41.80000 228.397
41.84000 219.809
41.88000 226.107
41.92000 245.244
41.96000 237.072
42.00000 231.625
42.04000 229.942
42.08000 226.159
42.12000 244.540
42.16000 256.277
42.20000 254.885
42.24000 235.863
42.28000 248.304
42.32000 238.546
42.36000 240.632
42.40000 228.543
42.44000 240.078
42.48000 235.345
42.52000 238.336
42.56000 246.422
42.60000 234.453
42.64000 225.500
42.68000 234.989
42.72000 230.157
42.76000 231.628
42.80000 231.962
42.84000 233.996
42.88000 231.285
42.92000 231.744
42.96000 219.531
43.00000 235.205
43.04000 235.136
43.08000 233.516
43.12000 230.441
43.16000 237.750
43.20000 233.132
43.24000 238.041
43.28000 223.889
43.32000 217.262
43.36000 229.606
43.40000 229.917
43.44000 241.182
43.48000 230.783
43.52000 222.500
43.56000 229.397
43.60000 217.726
43.64000 214.072
43.68000 219.298
43.72000 225.752
43.76000 215.946
43.80000 211.476
43.84000 231.768
43.88000 227.605
43.92000 216.287
43.96000 218.809
44.00000 230.015
44.04000 240.554
44.08000 228.732
44.12000 229.668
44.16000 224.911
44.20000 227.104
44.24000 237.992
44.28000 226.182
44.32000 229.480
44.36000 219.550
44.40000 234.094
44.44000 248.637
44.48000 228.839
44.52000 246.675
44.56000 259.420
44.60000 269.107
44.64000 270.401
44.68000 291.637
44.72000 320.027
44.76000 343.163
44.80000 407.951
44.84000 443.854
44.88000 474.722
44.92000 538.865
44.96000 569.915
45.00000 591.096
45.04000 575.713
45.08000 549.651
45.12000 524.923
45.16000 483.239
45.20000 428.786
45.24000 401.005
45.28000 366.069
45.32000 337.238
45.36000 330.370
45.40000 306.313
45.44000 292.629
45.48000 283.788
45.52000 282.075
45.56000 268.182
45.60000 266.054
45.64000 256.677
45.68000 241.228
45.72000 241.580
45.76000 242.734
45.80000 242.813
45.84000 229.053
45.88000 224.351
45.92000 218.572
45.96000 219.801
46.00000 224.551
46.04000 216.020
46.08000 213.249
46.12000 209.624
46.16000 211.813
46.20000 216.673
46.24000 212.216
46.28000 211.825
46.32000 213.281
46.36000 203.684
46.40000 203.122
46.44000 213.036
46.48000 201.669
46.52000 202.163
46.56000 197.819
46.60000 209.980
46.64000 205.745
46.68000 203.441
46.72000 203.260
46.76000 199.793
46.80000 202.599
46.84000 191.887
46.88000 199.893
46.92000 188.087
46.96000 208.797
47.00000 205.546
47.04000 176.343
47.08000 191.115
47.12000 201.070
47.16000 200.818
47.20000 190.065
47.24000 202.876
47.28000 193.461
47.32000 186.189
47.36000 184.742
47.40000 191.113
47.44000 193.339
47.48000 200.184
47.52000 182.087
47.56000 186.926
47.60000 198.214
47.64000 204.452
47.68000 191.050
47.72000 190.698
47.76000 197.896
47.80000 194.934
47.84000 190.543
47.88000 177.610
47.92000 180.614
47.96000 178.695
48.00000 172.481
48.04000 186.226
48.08000 185.597
48.12000 192.463
48.16000 190.405
48.20000 178.603
48.24000 175.878
48.28000 184.183
48.32000 175.710
48.36000 178.868
48.40000 201.767
48.44000 185.680
48.48000 183.994
48.52000 186.219
48.56000 191.190
48.60000 178.945
48.64000 186.647
48.68000 185.578
48.72000 174.669
48.76000 183.718
48.80000 195.439
48.84000 178.503
48.88000 190.220
48.92000 177.207
48.96000 181.353
49.00000 182.302
49.04000 184.615
49.08000 181.362
49.12000 171.346
49.16000 179.170
49.20000 165.980
49.24000 193.261
49.28000 165.347
49.32000 181.537
49.36000 174.269
49.40000 181.895
49.44000 173.923
49.48000 185.591
49.52000 170.368
49.56000 173.525
49.60000 179.905
49.64000 174.494
49.68000 178.516
49.72000 179.393
49.76000 175.133
49.80000 175.691
49.84000 186.232
49.88000 185.807
49.92000 169.101
49.96000 190.038
50.00000 180.733
50.04000 197.896
50.08000 188.273
50.12000 177.400
50.16000 185.350
50.20000 184.737
50.24000 175.262
50.28000 191.770
50.32000 194.579
50.36000 208.747
50.40000 208.479
50.44000 233.094
50.48000 234.719
50.52000 253.151
50.56000 281.201
50.60000 285.928
50.64000 287.068
50.68000 281.603
50.72000 279.654
50.76000 269.279
50.80000 257.635
50.84000 247.112
50.88000 247.159
50.92000 225.111
50.96000 215.634
51.00000 199.880
51.04000 195.248
51.08000 187.452
51.12000 189.745
51.16000 182.035
51.20000 180.206
51.24000 183.512
51.28000 170.014
51.32000 181.993
51.36000 170.723
51.40000 176.908
51.44000 181.602
51.48000 170.602
51.52000 167.532
51.56000 178.175
51.60000 160.367
51.64000 167.215
51.68000 152.981
51.72000 166.381
51.76000 173.739
51.80000 161.882
51.84000 167.842
51.88000 166.044
51.92000 169.895
51.96000 169.510
52.00000 166.913
52.04000 167.967
52.08000 172.178
52.12000 179.470
52.16000 170.590
52.20000 154.600
52.24000 171.187
52.28000 158.817
52.32000 162.397
52.36000 161.207
52.40000 168.409
52.44000 158.813
52.48000 157.354
52.52000 161.692
52.56000 159.602
52.60000 152.328
52.64000 158.436
52.68000 160.504
52.72000 150.543
52.76000 164.150
52.80000 164.824
52.84000 165.101
52.88000 149.265
52.92000 177.761
52.96000 160.696
53.00000 152.773
53.04000 156.654
53.08000 163.235
53.12000 172.741
53.16000 170.500
53.20000 170.900
53.24000 175.796
53.28000 160.552
53.32000 174.067
53.36000 176.115
53.40000 168.487
53.44000 164.444
53.48000 153.546
53.52000 160.631
53.56000 165.822
53.60000 157.102
53.64000 159.727
53.68000 159.419
53.72000 160.180
53.76000 155.860
53.80000 154.382
53.84000 150.725
53.88000 151.424
53.92000 169.942
53.96000 155.362
54.00000 158.812
54.04000 164.130
54.08000 165.877
54.12000 166.856
54.16000 168.391
54.20000 158.848
54.24000 158.487
54.28000 155.875
54.32000 153.934
54.36000 154.338
54.40000 164.752
54.44000 148.373
54.48000 155.815
54.52000 158.113
54.56000 168.661
54.60000 163.469
54.64000 165.582
54.68000 158.693
54.72000 174.207
54.76000 154.946
54.80000 170.856
54.84000 166.743
54.88000 166.293
54.92000 162.511
54.96000 168.983
55.00000 166.809
55.04000 161.554
55.08000 182.522
55.12000 161.297
55.16000 170.466
55.20000 173.530
55.24000 176.962
55.28000 174.386
55.32000 187.567
55.36000 190.286
55.40000 200.072
55.44000 210.829
55.48000 235.587
55.52000 243.634
55.56000 284.432
55.60000 350.220
55.64000 416.636
55.68000 486.247
55.72000 574.497
55.76000 664.550
55.80000 746.898
55.84000 832.435
55.88000 848.425
55.92000 894.297
55.96000 856.743
56.00000 787.274
56.04000 733.820
56.08000 618.820
56.12000 534.919
56.16000 455.135
56.20000 376.901
56.24000 333.770
56.28000 299.212
56.32000 253.758
56.36000 230.362
56.40000 223.177
56.44000 205.408
56.48000 184.743
56.52000 180.289
56.56000 185.400
56.60000 172.251
56.64000 179.038
56.68000 170.006
56.72000 160.524
56.76000 160.328
56.80000 160.498
56.84000 151.844
56.88000 147.911
56.92000 152.733
56.96000 153.366
57.00000 144.592
57.04000 159.745
57.08000 131.872
57.12000 153.306
57.16000 145.000
57.20000 147.211
57.24000 152.166
57.28000 145.846
57.32000 154.020
57.36000 148.388
57.40000 147.146
57.44000 148.851
57.48000 148.330
57.52000 158.203
57.56000 140.886
57.60000 137.550
57.64000 143.852
57.68000 147.393
57.72000 144.952
57.76000 148.482
57.80000 135.717
57.84000 153.419
57.88000 147.886
57.92000 143.067
57.96000 143.216
58.00000 150.345
58.04000 149.928
58.08000 152.017
58.12000 137.365
58.16000 140.047
58.20000 156.858
58.24000 136.915
58.28000 147.449
58.32000 132.895
58.36000 123.633
58.40000 140.062
58.44000 137.525
58.48000 144.135
58.52000 137.722
58.56000 138.985
58.60000 148.455
58.64000 140.121
58.68000 146.373
58.72000 139.038
58.76000 138.724
58.80000 147.757
58.84000 139.055
58.88000 137.366
58.92000 133.702
58.96000 133.529
59.00000 141.095
59.04000 144.928
59.08000 139.861
59.12000 148.323
59.16000 143.744
59.20000 130.585
59.24000 137.410
59.28000 142.660
59.32000 130.450
59.36000 142.507
59.40000 129.555
59.44000 137.354
59.48000 138.824
59.52000 132.474
59.56000 140.144
59.60000 135.432
59.64000 133.734
59.68000 135.447
59.72000 130.390
59.76000 143.821
59.80000 136.262
59.84000 120.648
59.88000 139.431
59.92000 140.013
59.96000 124.352
60.00000 147.215
60.04000 132.241
60.08000 122.277
60.12000 131.242
60.16000 119.254
60.20000 127.734
60.24000 135.117
60.28000 134.807
60.32000 143.652
60.36000 142.504
60.40000 132.747
60.44000 124.468
60.48000 135.465
60.52000 141.985
60.56000 134.543
60.60000 132.308
60.64000 129.548
60.68000 137.752
60.72000 130.747
60.76000 130.515
60.80000 130.678
60.84000 140.872
60.88000 134.047
60.92000 138.030
60.96000 134.887
61.00000 138.328
61.04000 130.640
61.08000 141.768
61.12000 141.231
61.16000 149.891
61.20000 139.215
61.24000 131.933
61.28000 141.041
61.32000 136.438
61.36000 138.615
61.40000 134.486
61.44000 148.768
61.48000 159.705
61.52000 188.139
61.56000 230.088
61.60000 270.273
61.64000 312.649
61.68000 322.757
61.72000 342.943
61.76000 311.089
61.80000 251.627
61.84000 196.494
61.88000 167.837
61.92000 141.435
61.96000 154.333
62.00000 148.875
62.04000 134.826
62.08000 141.914
62.12000 137.786
62.16000 139.290
62.20000 135.899
62.24000 144.386
62.28000 142.002
62.32000 150.598
62.36000 142.326
62.40000 134.346
62.44000 141.491
62.48000 142.025
62.52000 146.633
62.56000 144.366
62.60000 144.684
62.64000 139.705
62.68000 135.340
62.72000 143.310
62.76000 133.042
62.80000 149.493
62.84000 148.149
62.88000 146.349
62.92000 143.890
62.96000 142.147
63.00000 140.058
63.04000 142.991
63.08000 139.198
63.12000 137.680
63.16000 149.344
63.20000 141.783
63.24000 150.275
63.28000 150.907
63.32000 147.596
63.36000 150.691
63.40000 151.655
63.44000 145.130
63.48000 146.299
63.52000 149.132
63.56000 146.786
63.60000 156.080
63.64000 144.524
63.68000 162.492
63.72000 153.986
63.76000 156.608
63.80000 152.567
63.84000 147.233
63.88000 138.548
63.92000 155.242
63.96000 161.168
64.00000 151.169
64.04000 156.917
64.08000 173.443
64.12000 166.074
64.16000 152.894
64.20000 155.743
64.24000 159.113
64.28000 158.867
64.32000 161.142
64.36000 150.388
64.40000 167.991
64.44000 170.176
64.48000 153.217
64.52000 169.671
64.56000 172.988
64.60000 174.425
64.64000 162.099
64.68000 181.054
64.72000 169.855
64.76000 174.077
64.80000 192.184
64.84000 185.522
64.88000 204.910
64.92000 208.819
64.96000 199.468
65.00000 199.562
65.04000 207.822
65.08000 216.883
65.12000 235.514
65.16000 252.491
65.20000 251.683
65.24000 273.760
65.28000 287.460
65.32000 314.134
65.36000 350.354
65.40000 362.272
65.44000 400.385
65.48000 399.015
65.52000 425.980
65.56000 436.162
65.60000 453.725
65.64000 499.788
65.68000 597.145
65.72000 780.577
65.76000 1077.190
65.80000 1314.797
65.84000 1423.623
65.88000 1436.800
65.92000 1402.697
65.96000 1129.694
66.00000 818.745
66.04000 574.010
66.08000 422.876
66.12000 375.029
66.16000 356.764
66.20000 351.836
66.24000 363.945
66.28000 412.153
66.32000 460.859
66.36000 515.049
66.40000 547.485
66.44000 530.760
66.48000 519.958
66.52000 469.497
66.56000 423.103
66.60000 370.742
66.64000 330.495
66.68000 340.840
66.72000 348.348
66.76000 341.232
66.80000 340.526
66.84000 351.376
66.88000 354.489
66.92000 364.422
66.96000 355.183
67.00000 369.579
67.04000 395.031
67.08000 378.381
67.12000 383.255
67.16000 374.229
67.20000 403.022
67.24000 421.421
67.28000 426.318
67.32000 426.040
67.36000 429.314
67.40000 447.151
67.44000 434.481
67.48000 443.115
67.52000 467.977
67.56000 466.887
67.60000 480.197
67.64000 483.780
67.68000 509.919
67.72000 505.783
67.76000 509.758
67.80000 497.479
67.84000 526.307
67.88000 541.303
67.92000 553.310
67.96000 541.778
68.00000 591.281
68.04000 579.704
68.08000 584.383
68.12000 606.104
68.16000 624.810
68.20000 647.681
68.24000 663.181
68.28000 671.397
68.32000 700.846
68.36000 720.606
68.40000 747.392
68.44000 791.944
68.48000 834.985
68.52000 897.801
68.56000 973.011
68.60000 1115.485
68.64000 1324.442
68.68000 1608.512
68.72000 1891.624
68.76000 2179.658
68.80000 2555.181
68.84000 3201.678
68.88000 4492.940
68.92000 7527.293
68.96000 19422.563
69.00000 40591.086
69.04000 62332.086
69.08000 73399.617
69.12000 76762.023
69.16000 79726.141
69.20000 78029.039
69.24000 65507.852
69.28000 50849.555
69.32000 41635.180
69.36000 36920.941
69.40000 29658.969
69.44000 18722.041
69.48000 8789.676
69.52000 3994.224
69.56000 2284.859
69.60000 1715.300
69.64000 1446.126
69.68000 1261.719
69.72000 1136.321
69.76000 1028.532
69.80000 940.869
69.84000 883.976
69.88000 844.007
69.92000 790.394
69.96000 743.542
70.00000 744.804