File: XRD/XRD/24-09-2025 Dep 3/XY Data/BTO_Mapping_Theta2Theta_24-09-2025_001_12_20-074_22-294.xy
20.00000 571.493
20.04000 539.467
20.08000 553.599
20.12000 568.985
20.16000 554.111
20.20000 552.781
20.24000 547.581
20.28000 549.379
20.32000 548.914
20.36000 585.040
20.40000 571.638
20.44000 558.605
20.48000 545.871
20.52000 569.993
20.56000 565.280
20.60000 526.303
20.64000 553.635
20.68000 552.205
20.72000 552.791
20.76000 562.389
20.80000 582.348
20.84000 551.955
20.88000 537.925
20.92000 537.707
20.96000 537.934
21.00000 540.966
21.04000 556.397
21.08000 537.807
21.12000 544.405
21.16000 541.369
21.20000 542.796
21.24000 536.040
21.28000 537.731
21.32000 543.268
21.36000 525.477
21.40000 539.493
21.44000 550.357
21.48000 542.969
21.52000 528.402
21.56000 556.703
21.60000 537.755
21.64000 529.187
21.68000 530.427
21.72000 549.030
21.76000 551.275
21.80000 548.816
21.84000 578.350
21.88000 551.177
21.92000 572.928
21.96000 590.278
22.00000 594.251
22.04000 614.627
22.08000 608.984
22.12000 627.534
22.16000 608.095
22.20000 605.975
22.24000 608.185
22.28000 579.724
22.32000 567.800
22.36000 572.151
22.40000 573.517
22.44000 557.257
22.48000 553.011
22.52000 530.525
22.56000 525.979
22.60000 505.656
22.64000 523.712
22.68000 545.235
22.72000 525.380
22.76000 535.383
22.80000 521.572
22.84000 539.055
22.88000 521.850
22.92000 518.869
22.96000 507.555
23.00000 488.245
23.04000 510.212
23.08000 505.393
23.12000 520.104
23.16000 497.682
23.20000 512.753
23.24000 486.923
23.28000 506.545
23.32000 489.847
23.36000 507.156
23.40000 525.474
23.44000 490.257
23.48000 496.640
23.52000 500.264
23.56000 501.890
23.60000 506.233
23.64000 507.922
23.68000 510.341
23.72000 500.529
23.76000 492.385
23.80000 492.794
23.84000 502.275
23.88000 503.929
23.92000 495.704
23.96000 498.647
24.00000 515.217
24.04000 513.772
24.08000 508.253
24.12000 484.972
24.16000 501.008
24.20000 497.080
24.24000 493.999
24.28000 490.872
24.32000 495.244
24.36000 490.476
24.40000 498.293
24.44000 485.540
24.48000 483.175
24.52000 473.843
24.56000 469.152
24.60000 486.244
24.64000 495.246
24.68000 473.734
24.72000 463.461
24.76000 489.019
24.80000 485.459
24.84000 494.594
24.88000 487.791
24.92000 484.311
24.96000 449.392
25.00000 475.831
25.04000 473.156
25.08000 470.698
25.12000 478.024
25.16000 489.843
25.20000 465.758
25.24000 471.145
25.28000 461.716
25.32000 471.590
25.36000 465.399
25.40000 477.355
25.44000 467.846
25.48000 480.536
25.52000 459.218
25.56000 472.675
25.60000 448.366
25.64000 466.297
25.68000 450.427
25.72000 453.557
25.76000 468.184
25.80000 453.744
25.84000 448.950
25.88000 464.584
25.92000 462.739
25.96000 453.963
26.00000 455.892
26.04000 446.245
26.08000 467.633
26.12000 445.783
26.16000 453.619
26.20000 478.681
26.24000 465.461
26.28000 471.241
26.32000 474.031
26.36000 471.064
26.40000 462.280
26.44000 451.131
26.48000 456.104
26.52000 457.272
26.56000 449.734
26.60000 444.044
26.64000 453.178
26.68000 448.863
26.72000 453.316
26.76000 453.675
26.80000 426.171
26.84000 441.938
26.88000 442.333
26.92000 452.929
26.96000 433.947
27.00000 444.797
27.04000 449.047
27.08000 443.086
27.12000 446.409
27.16000 449.880
27.20000 435.718
27.24000 428.845
27.28000 444.443
27.32000 455.023
27.36000 442.743
27.40000 444.565
27.44000 446.747
27.48000 414.420
27.52000 432.074
27.56000 421.115
27.60000 429.867
27.64000 421.849
27.68000 431.553
27.72000 437.823
27.76000 436.105
27.80000 420.548
27.84000 413.723
27.88000 437.194
27.92000 433.909
27.96000 424.411
28.00000 434.858
28.04000 427.548
28.08000 433.283
28.12000 434.100
28.16000 431.177
28.20000 428.436
28.24000 419.502
28.28000 431.039
28.32000 430.581
28.36000 421.285
28.40000 414.554
28.44000 431.815
28.48000 432.827
28.52000 426.046
28.56000 419.127
28.60000 414.049
28.64000 414.521
28.68000 397.634
28.72000 416.676
28.76000 419.543
28.80000 424.469
28.84000 428.497
28.88000 433.439
28.92000 411.479
28.96000 402.538
29.00000 422.395
29.04000 421.723
29.08000 413.030
29.12000 428.794
29.16000 420.554
29.20000 432.341
29.24000 412.785
29.28000 407.823
29.32000 410.282
29.36000 414.155
29.40000 406.142
29.44000 417.126
29.48000 396.691
29.52000 410.774
29.56000 407.787
29.60000 436.395
29.64000 398.681
29.68000 405.543
29.72000 399.325
29.76000 409.658
29.80000 416.716
29.84000 416.294
29.88000 402.378
29.92000 386.052
29.96000 422.139
30.00000 434.952
30.04000 421.032
30.08000 424.978
30.12000 422.462
30.16000 431.109
30.20000 416.547
30.24000 427.496
30.28000 413.685
30.32000 400.193
30.36000 410.035
30.40000 410.369
30.44000 423.661
30.48000 410.321
30.52000 415.833
30.56000 396.521
30.60000 411.045
30.64000 404.234
30.68000 402.015
30.72000 421.686
30.76000 430.463
30.80000 426.342
30.84000 418.437
30.88000 422.111
30.92000 443.758
30.96000 466.597
31.00000 477.869
31.04000 499.999
31.08000 553.051
31.12000 611.603
31.16000 734.549
31.20000 847.781
31.24000 973.238
31.28000 1176.902
31.32000 1309.310
31.36000 1435.680
31.40000 1524.022
31.44000 1525.090
31.48000 1462.293
31.52000 1350.439
31.56000 1110.738
31.60000 1003.853
31.64000 836.089
31.68000 691.634
31.72000 639.759
31.76000 572.001
31.80000 519.049
31.84000 458.247
31.88000 474.623
31.92000 442.317
31.96000 415.076
32.00000 433.558
32.04000 429.018
32.08000 413.529
32.12000 417.234
32.16000 379.103
32.20000 383.107
32.24000 383.834
32.28000 388.573
32.32000 389.177
32.36000 390.838
32.40000 393.455
32.44000 380.929
32.48000 374.107
32.52000 388.630
32.56000 386.401
32.60000 389.023
32.64000 372.228
32.68000 370.436
32.72000 357.685
32.76000 382.188
32.80000 376.633
32.84000 409.444
32.88000 430.387
32.92000 430.414
32.96000 450.281
33.00000 433.818
33.04000 435.730
33.08000 408.282
33.12000 365.387
33.16000 361.752
33.20000 341.497
33.24000 355.155
33.28000 348.763
33.32000 338.860
33.36000 326.557
33.40000 341.353
33.44000 350.374
33.48000 336.098
33.52000 351.281
33.56000 333.153
33.60000 320.475
33.64000 322.618
33.68000 344.322
33.72000 344.778
33.76000 343.024
33.80000 345.758
33.84000 344.781
33.88000 321.410
33.92000 326.900
33.96000 342.914
34.00000 344.526
34.04000 341.840
34.08000 329.396
34.12000 323.515
34.16000 344.787
34.20000 346.418
34.24000 342.659
34.28000 323.459
34.32000 326.477
34.36000 340.115
34.40000 330.025
34.44000 331.634
34.48000 318.387
34.52000 333.215
34.56000 333.160
34.60000 340.737
34.64000 328.184
34.68000 335.591
34.72000 320.821
34.76000 337.903
34.80000 326.394
34.84000 324.006
34.88000 310.378
34.92000 323.809
34.96000 321.193
35.00000 303.286
35.04000 316.749
35.08000 320.912
35.12000 305.519
35.16000 305.978
35.20000 313.148
35.24000 303.426
35.28000 322.520
35.32000 310.821
35.36000 308.679
35.40000 310.820
35.44000 308.764
35.48000 300.813
35.52000 311.835
35.56000 313.264
35.60000 326.022
35.64000 312.880
35.68000 313.588
35.72000 298.857
35.76000 305.344
35.80000 316.955
35.84000 308.155
35.88000 308.031
35.92000 296.040
35.96000 298.215
36.00000 315.515
36.04000 299.326
36.08000 308.146
36.12000 309.786
36.16000 306.579
36.20000 312.159
36.24000 291.341
36.28000 298.081
36.32000 291.614
36.36000 297.235
36.40000 289.368
36.44000 294.647
36.48000 290.569
36.52000 301.907
36.56000 302.785
36.60000 308.840
36.64000 283.939
36.68000 296.134
36.72000 309.653
36.76000 304.353
36.80000 314.390
36.84000 303.215
36.88000 317.785
36.92000 305.930
36.96000 298.505
37.00000 306.509
37.04000 307.064
37.08000 309.964
37.12000 324.234
37.16000 299.502
37.20000 300.108
37.24000 311.797
37.28000 302.747
37.32000 290.364
37.36000 296.342
37.40000 295.868
37.44000 296.275
37.48000 287.920
37.52000 308.049
37.56000 275.957
37.60000 291.555
37.64000 285.646
37.68000 298.523
37.72000 302.903
37.76000 303.320
37.80000 291.545
37.84000 296.062
37.88000 288.406
37.92000 298.021
37.96000 308.019
38.00000 297.028
38.04000 293.665
38.08000 291.110
38.12000 299.746
38.16000 303.421
38.20000 306.582
38.24000 305.730
38.28000 317.027
38.32000 319.070
38.36000 326.652
38.40000 369.357
38.44000 396.522
38.48000 442.816
38.52000 555.246
38.56000 693.544
38.60000 866.365
38.64000 1048.880
38.68000 1268.801
38.72000 1351.322
38.76000 1458.930
38.80000 1444.880
38.84000 1313.354
38.88000 1098.630
38.92000 900.394
38.96000 700.020
39.00000 576.750
39.04000 452.842
39.08000 372.787
39.12000 324.578
39.16000 314.460
39.20000 303.144
39.24000 286.759
39.28000 281.109
39.32000 302.824
39.36000 283.908
39.40000 279.103
39.44000 276.014
39.48000 274.526
39.52000 262.203
39.56000 282.620
39.60000 285.635
39.64000 267.684
39.68000 275.236
39.72000 271.250
39.76000 269.772
39.80000 292.086
39.84000 259.331
39.88000 271.736
39.92000 273.120
39.96000 269.590
40.00000 259.552
40.04000 258.535
40.08000 262.956
40.12000 270.813
40.16000 258.561
40.20000 256.001
40.24000 249.516
40.28000 260.524
40.32000 246.825
40.36000 232.018
40.40000 249.957
40.44000 266.165
40.48000 252.661
40.52000 243.750
40.56000 257.985
40.60000 264.729
40.64000 253.472
40.68000 255.106
40.72000 254.562
40.76000 247.006
40.80000 241.210
40.84000 260.275
40.88000 251.562
40.92000 252.838
40.96000 236.782
41.00000 249.080
41.04000 233.267
41.08000 246.008
41.12000 252.426
41.16000 249.114
41.20000 233.998
41.24000 244.232
41.28000 246.467
41.32000 244.521
41.36000 232.993
41.40000 244.258
41.44000 248.418
41.48000 242.008
41.52000 238.991
41.56000 237.248
41.60000 238.526
41.64000 245.092
41.68000 239.146
41.72000 238.104
41.76000 238.144
41.80000 234.531
41.84000 236.909
41.88000 237.846
41.92000 231.744
41.96000 226.034
42.00000 240.386
42.04000 221.692
42.08000 224.102
42.12000 216.918
42.16000 228.847
42.20000 236.851
42.24000 241.816
42.28000 243.544
42.32000 237.585
42.36000 230.076
42.40000 249.909
42.44000 224.795
42.48000 230.063
42.52000 223.429
42.56000 232.704
42.60000 230.359
42.64000 228.813
42.68000 244.139
42.72000 236.787
42.76000 244.766
42.80000 235.474
42.84000 226.174
42.88000 226.108
42.92000 235.231
42.96000 236.775
43.00000 225.344
43.04000 216.751
43.08000 227.350
43.12000 235.158
43.16000 236.795
43.20000 224.414
43.24000 235.816
43.28000 227.389
43.32000 217.092
43.36000 239.873
43.40000 233.653
43.44000 225.829
43.48000 226.830
43.52000 229.640
43.56000 224.870
43.60000 217.060
43.64000 221.116
43.68000 226.988
43.72000 225.101
43.76000 212.899
43.80000 210.958
43.84000 222.631
43.88000 227.911
43.92000 221.101
43.96000 222.399
44.00000 210.885
44.04000 222.620
44.08000 222.735
44.12000 223.084
44.16000 218.800
44.20000 206.729
44.24000 216.511
44.28000 214.423
44.32000 226.156
44.36000 215.700
44.40000 205.282
44.44000 219.081
44.48000 219.241
44.52000 217.252
44.56000 229.048
44.60000 231.726
44.64000 223.828
44.68000 231.287
44.72000 241.670
44.76000 233.039
44.80000 232.438
44.84000 234.398
44.88000 245.868
44.92000 263.050
44.96000 253.463
45.00000 268.294
45.04000 268.139
45.08000 282.779
45.12000 281.211
45.16000 283.118
45.20000 276.186
45.24000 262.784
45.28000 275.712
45.32000 256.869
45.36000 249.618
45.40000 253.320
45.44000 242.332
45.48000 262.502
45.52000 234.822
45.56000 235.582
45.60000 232.163
45.64000 231.607
45.68000 229.758
45.72000 222.493
45.76000 212.833
45.80000 223.483
45.84000 208.518
45.88000 216.498
45.92000 202.327
45.96000 208.371
46.00000 217.651
46.04000 201.117
46.08000 210.190
46.12000 211.020
46.16000 206.316
46.20000 205.924
46.24000 205.175
46.28000 201.090
46.32000 211.394
46.36000 218.244
46.40000 206.186
46.44000 196.995
46.48000 205.788
46.52000 213.557
46.56000 201.178
46.60000 206.453
46.64000 184.496
46.68000 194.331
46.72000 198.803
46.76000 195.217
46.80000 193.897
46.84000 199.815
46.88000 195.659
46.92000 192.075
46.96000 195.237
47.00000 198.634
47.04000 204.977
47.08000 191.268
47.12000 197.742
47.16000 189.250
47.20000 191.540
47.24000 198.074
47.28000 193.400
47.32000 185.680
47.36000 189.231
47.40000 190.213
47.44000 187.068
47.48000 195.679
47.52000 200.357
47.56000 198.234
47.60000 190.706
47.64000 185.221
47.68000 191.910
47.72000 195.974
47.76000 188.288
47.80000 187.209
47.84000 181.728
47.88000 193.596
47.92000 197.287
47.96000 182.159
48.00000 175.293
48.04000 180.905
48.08000 185.464
48.12000 180.258
48.16000 191.922
48.20000 179.553
48.24000 182.672
48.28000 192.142
48.32000 183.606
48.36000 177.115
48.40000 191.062
48.44000 177.659
48.48000 188.892
48.52000 176.753
48.56000 175.089
48.60000 183.966
48.64000 187.444
48.68000 195.632
48.72000 174.105
48.76000 179.955
48.80000 186.030
48.84000 185.603
48.88000 177.487
48.92000 174.566
48.96000 173.077
49.00000 185.152
49.04000 173.917
49.08000 188.662
49.12000 170.326
49.16000 177.534
49.20000 174.755
49.24000 183.065
49.28000 169.790
49.32000 168.942
49.36000 168.746
49.40000 171.784
49.44000 179.064
49.48000 180.854
49.52000 177.624
49.56000 174.093
49.60000 172.847
49.64000 181.554
49.68000 164.805
49.72000 181.834
49.76000 178.888
49.80000 163.936
49.84000 168.819
49.88000 172.893
49.92000 165.488
49.96000 172.728
50.00000 178.632
50.04000 170.623
50.08000 184.834
50.12000 169.085
50.16000 179.010
50.20000 170.332
50.24000 166.846
50.28000 173.928
50.32000 174.173
50.36000 179.919
50.40000 177.608
50.44000 182.765
50.48000 168.329
50.52000 185.336
50.56000 174.113
50.60000 184.466
50.64000 181.908
50.68000 194.871
50.72000 188.575
50.76000 188.784
50.80000 188.057
50.84000 198.704
50.88000 198.093
50.92000 193.395
50.96000 185.453
51.00000 186.070
51.04000 186.750
51.08000 174.487
51.12000 181.688
51.16000 183.441
51.20000 183.044
51.24000 173.072
51.28000 194.250
51.32000 169.949
51.36000 171.389
51.40000 178.794
51.44000 172.112
51.48000 167.327
51.52000 159.678
51.56000 165.904
51.60000 156.913
51.64000 167.491
51.68000 166.997
51.72000 167.039
51.76000 173.092
51.80000 170.480
51.84000 167.667
51.88000 163.354
51.92000 163.504
51.96000 165.621
52.00000 163.204
52.04000 159.106
52.08000 153.823
52.12000 159.763
52.16000 156.758
52.20000 160.450
52.24000 159.295
52.28000 166.891
52.32000 152.055
52.36000 157.989
52.40000 151.890
52.44000 166.668
52.48000 154.868
52.52000 167.750
52.56000 159.134
52.60000 161.016
52.64000 163.732
52.68000 159.343
52.72000 154.469
52.76000 162.329
52.80000 157.013
52.84000 163.121
52.88000 159.991
52.92000 163.073
52.96000 152.851
53.00000 153.909
53.04000 164.258
53.08000 163.414
53.12000 154.046
53.16000 164.739
53.20000 158.873
53.24000 160.191
53.28000 158.698
53.32000 158.300
53.36000 161.789
53.40000 158.929
53.44000 162.133
53.48000 169.400
53.52000 162.186
53.56000 163.340
53.60000 164.895
53.64000 155.573
53.68000 154.459
53.72000 153.300
53.76000 164.549
53.80000 161.075
53.84000 157.906
53.88000 157.252
53.92000 158.649
53.96000 156.019
54.00000 149.524
54.04000 155.157
54.08000 159.141
54.12000 160.293
54.16000 153.928
54.20000 152.512
54.24000 144.192
54.28000 163.773
54.32000 164.996
54.36000 161.406
54.40000 161.050
54.44000 166.355
54.48000 153.642
54.52000 161.620
54.56000 155.865
54.60000 158.140
54.64000 158.605
54.68000 151.674
54.72000 160.039
54.76000 146.215
54.80000 161.712
54.84000 154.247
54.88000 166.664
54.92000 157.507
54.96000 157.697
55.00000 158.858
55.04000 157.931
55.08000 165.156
55.12000 169.502
55.16000 163.277
55.20000 164.576
55.24000 168.831
55.28000 162.203
55.32000 175.511
55.36000 181.102
55.40000 189.972
55.44000 186.037
55.48000 196.036
55.52000 203.897
55.56000 223.033
55.60000 247.168
55.64000 264.421
55.68000 319.208
55.72000 345.418
55.76000 415.975
55.80000 502.540
55.84000 567.369
55.88000 653.724
55.92000 732.798
55.96000 777.503
56.00000 813.123
56.04000 803.791
56.08000 758.655
56.12000 695.096
56.16000 618.369
56.20000 536.710
56.24000 455.556
56.28000 392.345
56.32000 326.331
56.36000 302.636
56.40000 270.847
56.44000 221.939
56.48000 207.204
56.52000 187.429
56.56000 177.976
56.60000 183.178
56.64000 170.324
56.68000 161.555
56.72000 166.546
56.76000 165.971
56.80000 160.172
56.84000 163.172
56.88000 154.232
56.92000 156.042
56.96000 146.885
57.00000 160.043
57.04000 150.453
57.08000 144.938
57.12000 154.852
57.16000 142.145
57.20000 143.793
57.24000 145.322
57.28000 144.073
57.32000 142.736
57.36000 146.886
57.40000 143.239
57.44000 137.471
57.48000 158.708
57.52000 146.870
57.56000 151.707
57.60000 145.296
57.64000 154.025
57.68000 143.307
57.72000 141.686
57.76000 141.224
57.80000 145.742
57.84000 153.371
57.88000 139.029
57.92000 145.235
57.96000 139.234
58.00000 142.493
58.04000 148.142
58.08000 140.842
58.12000 131.770
58.16000 129.054
58.20000 140.822
58.24000 133.576
58.28000 143.356
58.32000 141.901
58.36000 139.854
58.40000 136.348
58.44000 141.071
58.48000 142.037
58.52000 136.439
58.56000 142.233
58.60000 142.387
58.64000 140.671
58.68000 131.946
58.72000 137.009
58.76000 133.544
58.80000 133.402
58.84000 133.563
58.88000 134.531
58.92000 136.037
58.96000 131.771
59.00000 137.955
59.04000 134.302
59.08000 129.274
59.12000 132.182
59.16000 135.070
59.20000 137.023
59.24000 132.414
59.28000 122.499
59.32000 123.929
59.36000 126.919
59.40000 135.200
59.44000 142.057
59.48000 133.710
59.52000 125.611
59.56000 129.708
59.60000 127.799
59.64000 132.011
59.68000 127.768
59.72000 131.823
59.76000 128.362
59.80000 133.981
59.84000 131.652
59.88000 128.854
59.92000 135.766
59.96000 147.089
60.00000 137.632
60.04000 139.692
60.08000 128.909
60.12000 132.552
60.16000 129.934
60.20000 132.963
60.24000 126.856
60.28000 122.279
60.32000 133.757
60.36000 128.582
60.40000 130.146
60.44000 133.470
60.48000 140.840
60.52000 137.934
60.56000 124.386
60.60000 132.981
60.64000 126.500
60.68000 135.452
60.72000 133.184
60.76000 133.435
60.80000 136.547
60.84000 137.257
60.88000 130.692
60.92000 128.028
60.96000 127.257
61.00000 135.145
61.04000 131.616
61.08000 153.709
61.12000 138.380
61.16000 144.748
61.20000 131.246
61.24000 141.297
61.28000 131.851
61.32000 130.356
61.36000 139.379
61.40000 129.811
61.44000 133.843
61.48000 134.370
61.52000 154.977
61.56000 181.530
61.60000 224.927
61.64000 257.761
61.68000 250.498
61.72000 263.049
61.76000 253.838
61.80000 226.895
61.84000 171.376
61.88000 156.745
61.92000 138.073
61.96000 136.869
62.00000 150.643
62.04000 136.144
62.08000 134.019
62.12000 137.752
62.16000 144.559
62.20000 131.940
62.24000 140.956
62.28000 142.870
62.32000 131.539
62.36000 144.207
62.40000 131.067
62.44000 145.836
62.48000 142.805
62.52000 149.070
62.56000 146.067
62.60000 145.739
62.64000 136.302
62.68000 144.717
62.72000 140.530
62.76000 137.418
62.80000 136.258
62.84000 142.642
62.88000 139.859
62.92000 141.353
62.96000 135.662
63.00000 143.948
63.04000 140.434
63.08000 147.320
63.12000 154.994
63.16000 144.972
63.20000 141.730
63.24000 140.999
63.28000 146.575
63.32000 148.463
63.36000 145.547
63.40000 137.809
63.44000 145.540
63.48000 143.203
63.52000 151.133
63.56000 147.690
63.60000 138.203
63.64000 140.489
63.68000 150.711
63.72000 139.013
63.76000 143.705
63.80000 149.847
63.84000 145.979
63.88000 149.617
63.92000 158.156
63.96000 150.673
64.00000 153.346
64.04000 150.429
64.08000 160.563
64.12000 156.752
64.16000 159.340
64.20000 162.448
64.24000 164.760
64.28000 159.164
64.32000 167.201
64.36000 157.606
64.40000 152.663
64.44000 158.143
64.48000 162.571
64.52000 157.587
64.56000 171.611
64.60000 163.270
64.64000 155.271
64.68000 166.084
64.72000 170.557
64.76000 169.807
64.80000 176.745
64.84000 189.007
64.88000 170.338
64.92000 173.557
64.96000 182.271
65.00000 182.275
65.04000 187.740
65.08000 198.621
65.12000 199.880
65.16000 204.090
65.20000 212.934
65.24000 205.324
65.28000 214.903
65.32000 221.273
65.36000 214.012
65.40000 245.626
65.44000 246.778
65.48000 263.746
65.52000 275.963
65.56000 286.793
65.60000 291.973
65.64000 328.935
65.68000 390.881
65.72000 511.290
65.76000 711.380
65.80000 864.926
65.84000 986.264
65.88000 1023.553
65.92000 1019.883
65.96000 849.455
66.00000 636.094
66.04000 458.519
66.08000 357.486
66.12000 324.403
66.16000 300.727
66.20000 296.258
66.24000 301.135
66.28000 321.073
66.32000 371.265
66.36000 386.629
66.40000 420.763
66.44000 414.790
66.48000 420.561
66.52000 399.180
66.56000 349.802
66.60000 310.234
66.64000 302.935
66.68000 299.067
66.72000 292.009
66.76000 322.136
66.80000 299.278
66.84000 308.036
66.88000 300.045
66.92000 319.421
66.96000 315.156
67.00000 317.770
67.04000 312.376
67.08000 338.675
67.12000 352.951
67.16000 357.442
67.20000 365.060
67.24000 369.617
67.28000 386.378
67.32000 371.343
67.36000 366.548
67.40000 392.140
67.44000 386.488
67.48000 390.339
67.52000 415.395
67.56000 424.932
67.60000 408.859
67.64000 442.067
67.68000 427.471
67.72000 456.599
67.76000 438.830
67.80000 452.026
67.84000 465.352
67.88000 477.096
67.92000 471.547
67.96000 492.109
68.00000 487.032
68.04000 501.983
68.08000 508.233
68.12000 555.075
68.16000 555.110
68.20000 573.723
68.24000 579.912
68.28000 575.232
68.32000 620.870
68.36000 622.901
68.40000 639.675
68.44000 665.444
68.48000 693.763
68.52000 741.310
68.56000 798.549
68.60000 897.754
68.64000 997.068
68.68000 1177.041
68.72000 1376.351
68.76000 1554.301
68.80000 1754.288
68.84000 1994.418
68.88000 2447.097
68.92000 3574.291
68.96000 9667.711
69.00000 23131.039
69.04000 39196.250
69.08000 47759.262
69.12000 49702.516
69.16000 51793.387
69.20000 52641.379
69.24000 45436.496
69.28000 34092.387
69.32000 27519.930
69.36000 24829.490
69.40000 21024.336
69.44000 14263.441
69.48000 6367.378
69.52000 2849.935
69.56000 1744.390
69.60000 1363.018
69.64000 1174.364
69.68000 1014.106
69.72000 901.248
69.76000 857.630
69.80000 800.499
69.84000 756.275
69.88000 703.356
69.92000 676.365
69.96000 650.638
70.00000 630.320