File: XRD/XRD/24-09-2025 Dep 3/XY Data/BTO_Mapping_Theta2Theta_24-09-2025_001_09_36-542_16-269.xy
20.00000 574.439
20.04000 564.147
20.08000 591.385
20.12000 562.785
20.16000 572.772
20.20000 556.854
20.24000 562.088
20.28000 551.163
20.32000 555.948
20.36000 549.146
20.40000 553.474
20.44000 545.412
20.48000 554.657
20.52000 563.333
20.56000 572.171
20.60000 555.768
20.64000 568.403
20.68000 543.650
20.72000 547.711
20.76000 557.754
20.80000 543.115
20.84000 563.984
20.88000 544.289
20.92000 555.059
20.96000 560.242
21.00000 559.748
21.04000 537.393
21.08000 560.940
21.12000 553.850
21.16000 570.464
21.20000 566.401
21.24000 570.344
21.28000 554.065
21.32000 552.231
21.36000 560.368
21.40000 540.047
21.44000 550.998
21.48000 550.795
21.52000 551.444
21.56000 591.873
21.60000 566.943
21.64000 570.058
21.68000 538.582
21.72000 558.269
21.76000 557.857
21.80000 594.453
21.84000 581.375
21.88000 580.312
21.92000 599.284
21.96000 586.147
22.00000 621.339
22.04000 588.631
22.08000 617.945
22.12000 605.844
22.16000 609.088
22.20000 585.103
22.24000 580.229
22.28000 586.922
22.32000 568.622
22.36000 551.661
22.40000 554.980
22.44000 540.611
22.48000 519.268
22.52000 536.039
22.56000 531.790
22.60000 525.624
22.64000 532.434
22.68000 557.218
22.72000 524.092
22.76000 518.147
22.80000 523.599
22.84000 513.950
22.88000 519.269
22.92000 537.596
22.96000 534.366
23.00000 533.344
23.04000 533.815
23.08000 511.439
23.12000 524.234
23.16000 514.253
23.20000 523.557
23.24000 516.059
23.28000 516.810
23.32000 505.927
23.36000 524.760
23.40000 504.852
23.44000 518.160
23.48000 525.574
23.52000 521.322
23.56000 520.900
23.60000 518.885
23.64000 525.862
23.68000 528.212
23.72000 522.207
23.76000 548.474
23.80000 562.543
23.84000 542.084
23.88000 546.483
23.92000 562.166
23.96000 565.450
24.00000 557.314
24.04000 575.544
24.08000 562.434
24.12000 576.669
24.16000 542.514
24.20000 521.841
24.24000 525.802
24.28000 532.153
24.32000 521.985
24.36000 504.958
24.40000 516.058
24.44000 477.553
24.48000 504.475
24.52000 497.399
24.56000 493.601
24.60000 491.793
24.64000 507.855
24.68000 495.458
24.72000 502.794
24.76000 505.272
24.80000 506.484
24.84000 486.034
24.88000 477.890
24.92000 454.328
24.96000 474.613
25.00000 482.272
25.04000 486.381
25.08000 487.635
25.12000 478.520
25.16000 483.933
25.20000 472.994
25.24000 483.835
25.28000 468.433
25.32000 469.127
25.36000 486.208
25.40000 471.021
25.44000 461.856
25.48000 463.902
25.52000 468.100
25.56000 467.823
25.60000 473.688
25.64000 465.630
25.68000 474.520
25.72000 469.176
25.76000 464.754
25.80000 477.540
25.84000 452.636
25.88000 464.778
25.92000 472.921
25.96000 476.734
26.00000 446.217
26.04000 463.555
26.08000 469.648
26.12000 464.518
26.16000 467.266
26.20000 453.478
26.24000 453.650
26.28000 477.089
26.32000 453.372
26.36000 459.997
26.40000 451.001
26.44000 449.695
26.48000 447.404
26.52000 464.320
26.56000 444.014
26.60000 457.785
26.64000 448.775
26.68000 449.928
26.72000 436.783
26.76000 443.959
26.80000 442.520
26.84000 441.875
26.88000 443.368
26.92000 452.355
26.96000 452.910
27.00000 458.836
27.04000 424.939
27.08000 440.546
27.12000 453.400
27.16000 441.001
27.20000 436.368
27.24000 443.443
27.28000 430.180
27.32000 465.901
27.36000 459.565
27.40000 457.925
27.44000 449.360
27.48000 445.775
27.52000 447.768
27.56000 452.999
27.60000 454.220
27.64000 445.043
27.68000 436.255
27.72000 430.454
27.76000 439.682
27.80000 431.553
27.84000 416.473
27.88000 413.175
27.92000 434.454
27.96000 411.009
28.00000 421.883
28.04000 425.941
28.08000 435.914
28.12000 442.442
28.16000 429.399
28.20000 441.139
28.24000 424.720
28.28000 415.269
28.32000 424.366
28.36000 452.305
28.40000 430.253
28.44000 421.663
28.48000 420.445
28.52000 434.438
28.56000 425.787
28.60000 417.695
28.64000 435.397
28.68000 422.481
28.72000 431.434
28.76000 424.682
28.80000 432.482
28.84000 425.704
28.88000 429.098
28.92000 414.943
28.96000 431.038
29.00000 413.705
29.04000 419.448
29.08000 425.526
29.12000 412.993
29.16000 419.797
29.20000 438.078
29.24000 422.223
29.28000 411.930
29.32000 411.701
29.36000 412.374
29.40000 414.907
29.44000 410.617
29.48000 411.016
29.52000 413.428
29.56000 399.860
29.60000 407.076
29.64000 416.301
29.68000 404.008
29.72000 415.667
29.76000 408.104
29.80000 417.313
29.84000 420.717
29.88000 413.335
29.92000 410.432
29.96000 407.014
30.00000 422.400
30.04000 415.667
30.08000 436.263
30.12000 429.616
30.16000 426.896
30.20000 439.692
30.24000 428.194
30.28000 411.671
30.32000 417.562
30.36000 415.715
30.40000 423.892
30.44000 418.361
30.48000 420.353
30.52000 399.827
30.56000 431.798
30.60000 423.511
30.64000 422.970
30.68000 434.685
30.72000 425.558
30.76000 433.309
30.80000 427.334
30.84000 461.238
30.88000 463.239
30.92000 482.830
30.96000 512.303
31.00000 505.229
31.04000 522.262
31.08000 573.983
31.12000 629.069
31.16000 679.035
31.20000 772.011
31.24000 847.638
31.28000 972.115
31.32000 1054.647
31.36000 1149.181
31.40000 1151.368
31.44000 1154.153
31.48000 1096.092
31.52000 1001.231
31.56000 871.699
31.60000 808.126
31.64000 672.137
31.68000 636.314
31.72000 550.988
31.76000 515.831
31.80000 488.452
31.84000 474.455
31.88000 452.847
31.92000 449.800
31.96000 431.495
32.00000 429.228
32.04000 435.929
32.08000 418.786
32.12000 405.174
32.16000 411.822
32.20000 410.542
32.24000 414.627
32.28000 402.511
32.32000 408.203
32.36000 404.901
32.40000 394.348
32.44000 393.633
32.48000 401.296
32.52000 393.080
32.56000 393.454
32.60000 376.288
32.64000 385.127
32.68000 385.435
32.72000 381.043
32.76000 374.651
32.80000 387.414
32.84000 407.530
32.88000 446.705
32.92000 454.772
32.96000 453.521
33.00000 478.047
33.04000 439.775
33.08000 419.869
33.12000 402.752
33.16000 374.672
33.20000 338.581
33.24000 360.649
33.28000 340.561
33.32000 329.073
33.36000 344.257
33.40000 353.519
33.44000 355.478
33.48000 364.848
33.52000 358.230
33.56000 347.578
33.60000 344.278
33.64000 343.751
33.68000 344.845
33.72000 341.610
33.76000 350.232
33.80000 363.855
33.84000 368.742
33.88000 349.336
33.92000 350.320
33.96000 351.426
34.00000 338.852
34.04000 362.289
34.08000 355.176
34.12000 359.037
34.16000 370.662
34.20000 352.883
34.24000 373.218
34.28000 365.136
34.32000 367.537
34.36000 356.357
34.40000 369.303
34.44000 373.995
34.48000 359.939
34.52000 356.862
34.56000 361.388
34.60000 346.103
34.64000 350.527
34.68000 354.500
34.72000 332.317
34.76000 359.831
34.80000 321.219
34.84000 328.402
34.88000 320.115
34.92000 330.228
34.96000 323.879
35.00000 321.157
35.04000 311.354
35.08000 305.583
35.12000 305.909
35.16000 304.958
35.20000 334.300
35.24000 313.730
35.28000 345.022
35.32000 316.483
35.36000 320.247
35.40000 315.393
35.44000 315.339
35.48000 330.859
35.52000 319.494
35.56000 320.418
35.60000 312.205
35.64000 308.498
35.68000 318.295
35.72000 305.504
35.76000 310.600
35.80000 299.379
35.84000 302.219
35.88000 304.012
35.92000 300.977
35.96000 315.871
36.00000 299.173
36.04000 306.640
36.08000 296.398
36.12000 310.431
36.16000 303.424
36.20000 293.254
36.24000 303.805
36.28000 292.976
36.32000 280.646
36.36000 297.345
36.40000 312.602
36.44000 300.912
36.48000 313.292
36.52000 284.887
36.56000 309.153
36.60000 290.390
36.64000 295.946
36.68000 292.566
36.72000 306.348
36.76000 304.160
36.80000 308.213
36.84000 295.545
36.88000 310.826
36.92000 297.627
36.96000 295.628
37.00000 297.736
37.04000 309.455
37.08000 313.394
37.12000 303.631
37.16000 281.022
37.20000 294.418
37.24000 295.877
37.28000 293.271
37.32000 284.832
37.36000 284.366
37.40000 300.266
37.44000 300.316
37.48000 292.927
37.52000 299.255
37.56000 298.051
37.60000 287.748
37.64000 303.585
37.68000 290.566
37.72000 301.219
37.76000 290.661
37.80000 285.201
37.84000 304.940
37.88000 288.330
37.92000 287.842
37.96000 298.580
38.00000 299.849
38.04000 309.674
38.08000 315.250
38.12000 312.087
38.16000 318.132
38.20000 330.580
38.24000 318.993
38.28000 323.588
38.32000 335.134
38.36000 378.274
38.40000 386.071
38.44000 432.481
38.48000 479.390
38.52000 586.027
38.56000 659.222
38.60000 781.977
38.64000 938.025
38.68000 990.537
38.72000 1056.630
38.76000 1018.145
38.80000 962.063
38.84000 860.058
38.88000 700.464
38.92000 605.901
38.96000 517.502
39.00000 440.826
39.04000 401.583
39.08000 362.309
39.12000 338.165
39.16000 332.455
39.20000 311.996
39.24000 302.405
39.28000 305.552
39.32000 295.500
39.36000 289.998
39.40000 280.758
39.44000 269.894
39.48000 276.634
39.52000 285.476
39.56000 277.635
39.60000 280.062
39.64000 278.785
39.68000 274.501
39.72000 284.048
39.76000 266.850
39.80000 273.741
39.84000 272.573
39.88000 268.672
39.92000 269.876
39.96000 256.999
40.00000 266.762
40.04000 267.302
40.08000 279.948
40.12000 279.018
40.16000 268.088
40.20000 270.071
40.24000 268.672
40.28000 257.019
40.32000 274.283
40.36000 254.088
40.40000 250.844
40.44000 261.609
40.48000 253.194
40.52000 231.760
40.56000 242.761
40.60000 246.523
40.64000 249.107
40.68000 263.096
40.72000 268.917
40.76000 245.060
40.80000 255.075
40.84000 262.874
40.88000 249.072
40.92000 249.649
40.96000 241.582
41.00000 245.421
41.04000 238.578
41.08000 248.157
41.12000 242.404
41.16000 246.906
41.20000 239.535
41.24000 241.520
41.28000 245.974
41.32000 250.789
41.36000 246.547
41.40000 255.639
41.44000 247.145
41.48000 246.811
41.52000 256.797
41.56000 260.922
41.60000 245.426
41.64000 257.397
41.68000 258.147
41.72000 251.137
41.76000 257.441
41.80000 231.271
41.84000 246.273
41.88000 234.048
41.92000 234.900
41.96000 236.246
42.00000 256.131
42.04000 252.427
42.08000 244.615
42.12000 248.912
42.16000 255.706
42.20000 254.321
42.24000 248.929
42.28000 238.978
42.32000 248.384
42.36000 243.832
42.40000 237.094
42.44000 243.624
42.48000 245.195
42.52000 245.824
42.56000 246.516
42.60000 246.002
42.64000 232.829
42.68000 233.543
42.72000 249.868
42.76000 233.189
42.80000 233.739
42.84000 221.648
42.88000 236.122
42.92000 219.601
42.96000 234.652
43.00000 236.494
43.04000 231.607
43.08000 241.030
43.12000 221.209
43.16000 230.637
43.20000 220.157
43.24000 230.606
43.28000 217.654
43.32000 239.355
43.36000 233.611
43.40000 226.992
43.44000 237.470
43.48000 219.747
43.52000 224.409
43.56000 230.258
43.60000 215.928
43.64000 226.067
43.68000 226.208
43.72000 214.864
43.76000 218.359
43.80000 223.152
43.84000 231.074
43.88000 219.403
43.92000 226.523
43.96000 223.036
44.00000 226.219
44.04000 231.601
44.08000 227.805
44.12000 221.187
44.16000 231.767
44.20000 229.412
44.24000 258.039
44.28000 231.963
44.32000 230.722
44.36000 242.757
44.40000 225.941
44.44000 225.287
44.48000 243.351
44.52000 245.004
44.56000 244.264
44.60000 246.914
44.64000 240.715
44.68000 245.528
44.72000 256.639
44.76000 254.510
44.80000 258.571
44.84000 260.984
44.88000 266.704
44.92000 258.459
44.96000 284.376
45.00000 275.440
45.04000 283.471
45.08000 274.352
45.12000 257.930
45.16000 266.965
45.20000 267.097
45.24000 268.993
45.28000 259.350
45.32000 244.741
45.36000 250.186
45.40000 259.865
45.44000 250.192
45.48000 227.837
45.52000 255.124
45.56000 226.553
45.60000 224.720
45.64000 234.853
45.68000 217.943
45.72000 221.978
45.76000 215.122
45.80000 223.966
45.84000 219.773
45.88000 206.785
45.92000 205.530
45.96000 203.577
46.00000 208.752
46.04000 206.210
46.08000 213.113
46.12000 214.714
46.16000 204.840
46.20000 195.995
46.24000 197.588
46.28000 192.973
46.32000 197.211
46.36000 199.859
46.40000 221.534
46.44000 207.488
46.48000 213.508
46.52000 205.397
46.56000 212.888
46.60000 197.602
46.64000 207.798
46.68000 193.833
46.72000 202.438
46.76000 207.291
46.80000 210.064
46.84000 211.795
46.88000 206.591
46.92000 197.058
46.96000 200.432
47.00000 201.069
47.04000 200.368
47.08000 200.205
47.12000 194.222
47.16000 188.857
47.20000 197.948
47.24000 185.469
47.28000 199.442
47.32000 207.818
47.36000 196.460
47.40000 185.660
47.44000 188.407
47.48000 181.565
47.52000 184.082
47.56000 197.838
47.60000 192.491
47.64000 183.468
47.68000 199.720
47.72000 175.599
47.76000 193.284
47.80000 193.387
47.84000 188.963
47.88000 201.775
47.92000 190.574
47.96000 190.881
48.00000 182.353
48.04000 182.353
48.08000 187.219
48.12000 189.301
48.16000 190.709
48.20000 185.505
48.24000 192.547
48.28000 178.689
48.32000 172.739
48.36000 179.854
48.40000 201.051
48.44000 191.072
48.48000 191.725
48.52000 190.390
48.56000 185.135
48.60000 188.516
48.64000 189.767
48.68000 184.990
48.72000 170.777
48.76000 176.162
48.80000 188.152
48.84000 178.949
48.88000 182.105
48.92000 194.083
48.96000 181.904
49.00000 183.969
49.04000 180.753
49.08000 185.888
49.12000 184.434
49.16000 185.283
49.20000 182.638
49.24000 185.018
49.28000 177.928
49.32000 182.731
49.36000 176.305
49.40000 179.764
49.44000 181.248
49.48000 187.605
49.52000 175.284
49.56000 179.203
49.60000 184.931
49.64000 181.953
49.68000 176.118
49.72000 183.914
49.76000 175.907
49.80000 171.317
49.84000 177.685
49.88000 180.995
49.92000 179.475
49.96000 176.095
50.00000 176.838
50.04000 167.018
50.08000 173.374
50.12000 172.303
50.16000 178.804
50.20000 179.992
50.24000 169.657
50.28000 186.851
50.32000 180.270
50.36000 185.192
50.40000 187.420
50.44000 185.691
50.48000 182.856
50.52000 184.964
50.56000 196.866
50.60000 185.839
50.64000 184.618
50.68000 189.559
50.72000 185.794
50.76000 195.526
50.80000 186.453
50.84000 194.152
50.88000 186.962
50.92000 181.414
50.96000 170.488
51.00000 179.242
51.04000 171.408
51.08000 185.760
51.12000 175.185
51.16000 182.125
51.20000 168.071
51.24000 166.287
51.28000 170.229
51.32000 177.309
51.36000 164.194
51.40000 178.946
51.44000 165.186
51.48000 186.451
51.52000 167.495
51.56000 167.893
51.60000 167.664
51.64000 175.422
51.68000 163.545
51.72000 165.963
51.76000 176.531
51.80000 161.717
51.84000 166.289
51.88000 173.079
51.92000 155.738
51.96000 166.198
52.00000 166.554
52.04000 169.689
52.08000 158.804
52.12000 159.302
52.16000 168.811
52.20000 163.831
52.24000 156.120
52.28000 163.379
52.32000 177.014
52.36000 157.356
52.40000 164.556
52.44000 157.714
52.48000 159.468
52.52000 160.734
52.56000 164.128
52.60000 165.355
52.64000 153.295
52.68000 160.471
52.72000 165.303
52.76000 170.891
52.80000 171.714
52.84000 159.760
52.88000 159.937
52.92000 161.137
52.96000 161.535
53.00000 150.121
53.04000 169.454
53.08000 166.669
53.12000 156.986
53.16000 161.027
53.20000 154.712
53.24000 165.837
53.28000 168.779
53.32000 171.829
53.36000 170.306
53.40000 170.155
53.44000 161.239
53.48000 165.184
53.52000 155.442
53.56000 153.629
53.60000 157.260
53.64000 166.177
53.68000 153.251
53.72000 166.386
53.76000 152.249
53.80000 163.144
53.84000 156.675
53.88000 160.640
53.92000 168.940
53.96000 171.076
54.00000 166.988
54.04000 164.607
54.08000 162.337
54.12000 164.691
54.16000 165.252
54.20000 165.310
54.24000 142.816
54.28000 159.836
54.32000 165.562
54.36000 165.996
54.40000 154.062
54.44000 158.600
54.48000 144.278
54.52000 156.335
54.56000 159.892
54.60000 157.969
54.64000 152.197
54.68000 155.285
54.72000 170.698
54.76000 165.973
54.80000 170.709
54.84000 154.371
54.88000 165.434
54.92000 163.370
54.96000 157.168
55.00000 159.049
55.04000 176.149
55.08000 175.843
55.12000 165.730
55.16000 173.196
55.20000 172.707
55.24000 168.997
55.28000 179.095
55.32000 181.744
55.36000 190.626
55.40000 187.218
55.44000 200.629
55.48000 204.298
55.52000 214.249
55.56000 235.361
55.60000 240.377
55.64000 281.498
55.68000 300.306
55.72000 351.973
55.76000 375.003
55.80000 416.911
55.84000 439.813
55.88000 471.884
55.92000 490.134
55.96000 492.848
56.00000 488.445
56.04000 480.258
56.08000 450.710
56.12000 412.480
56.16000 389.010
56.20000 347.032
56.24000 308.175
56.28000 301.949
56.32000 258.231
56.36000 240.082
56.40000 220.659
56.44000 201.475
56.48000 203.346
56.52000 193.537
56.56000 177.482
56.60000 182.433
56.64000 176.492
56.68000 170.777
56.72000 168.799
56.76000 157.789
56.80000 158.600
56.84000 157.899
56.88000 157.933
56.92000 162.308
56.96000 160.763
57.00000 154.850
57.04000 155.572
57.08000 156.100
57.12000 157.810
57.16000 157.848
57.20000 153.899
57.24000 144.468
57.28000 156.466
57.32000 142.205
57.36000 152.311
57.40000 153.187
57.44000 142.744
57.48000 150.615
57.52000 147.518
57.56000 153.712
57.60000 151.557
57.64000 143.292
57.68000 136.985
57.72000 143.466
57.76000 145.912
57.80000 167.006
57.84000 155.752
57.88000 147.507
57.92000 146.447
57.96000 140.140
58.00000 151.756
58.04000 139.264
58.08000 137.873
58.12000 135.260
58.16000 139.878
58.20000 154.082
58.24000 139.986
58.28000 140.734
58.32000 142.958
58.36000 141.712
58.40000 138.786
58.44000 140.029
58.48000 140.078
58.52000 144.215
58.56000 146.868
58.60000 134.714
58.64000 147.194
58.68000 134.371
58.72000 151.326
58.76000 135.196
58.80000 141.097
58.84000 141.155
58.88000 142.160
58.92000 137.280
58.96000 149.776
59.00000 143.753
59.04000 141.064
59.08000 133.716
59.12000 134.926
59.16000 139.310
59.20000 131.928
59.24000 137.306
59.28000 139.870
59.32000 132.830
59.36000 143.208
59.40000 130.890
59.44000 134.051
59.48000 130.650
59.52000 133.508
59.56000 140.687
59.60000 132.683
59.64000 137.161
59.68000 140.580
59.72000 135.982
59.76000 135.747
59.80000 140.884
59.84000 136.867
59.88000 128.491
59.92000 130.507
59.96000 150.813
60.00000 144.390
60.04000 130.199
60.08000 135.940
60.12000 134.472
60.16000 128.274
60.20000 137.072
60.24000 124.375
60.28000 134.103
60.32000 126.052
60.36000 129.545
60.40000 139.108
60.44000 140.945
60.48000 130.789
60.52000 137.654
60.56000 135.519
60.60000 137.520
60.64000 135.942
60.68000 148.705
60.72000 138.280
60.76000 142.859
60.80000 133.592
60.84000 137.652
60.88000 138.363
60.92000 141.067
60.96000 134.196
61.00000 137.763
61.04000 135.495
61.08000 125.883
61.12000 130.109
61.16000 141.577
61.20000 145.490
61.24000 135.204
61.28000 139.558
61.32000 144.525
61.36000 139.474
61.40000 137.674
61.44000 142.224
61.48000 148.450
61.52000 154.235
61.56000 173.829
61.60000 228.320
61.64000 251.516
61.68000 269.283
61.72000 273.292
61.76000 271.337
61.80000 229.382
61.84000 187.190
61.88000 159.293
61.92000 149.144
61.96000 142.193
62.00000 132.509
62.04000 138.080
62.08000 149.070
62.12000 143.202
62.16000 138.275
62.20000 135.409
62.24000 145.304
62.28000 142.946
62.32000 130.897
62.36000 143.806
62.40000 143.424
62.44000 138.094
62.48000 149.017
62.52000 150.165
62.56000 142.878
62.60000 142.960
62.64000 135.201
62.68000 149.847
62.72000 145.608
62.76000 142.478
62.80000 141.773
62.84000 140.839
62.88000 143.956
62.92000 147.087
62.96000 144.209
63.00000 135.750
63.04000 146.033
63.08000 152.265
63.12000 144.869
63.16000 144.492
63.20000 150.357
63.24000 150.213
63.28000 151.776
63.32000 148.111
63.36000 151.780
63.40000 154.122
63.44000 144.303
63.48000 152.711
63.52000 149.324
63.56000 141.387
63.60000 148.897
63.64000 150.720
63.68000 157.463
63.72000 147.199
63.76000 154.045
63.80000 146.105
63.84000 161.349
63.88000 151.279
63.92000 153.330
63.96000 156.013
64.00000 154.075
64.04000 149.935
64.08000 155.586
64.12000 160.947
64.16000 159.811
64.20000 155.709
64.24000 154.516
64.28000 162.361
64.32000 163.984
64.36000 155.990
64.40000 160.597
64.44000 165.849
64.48000 156.823
64.52000 163.686
64.56000 164.109
64.60000 176.602
64.64000 167.912
64.68000 166.057
64.72000 172.534
64.76000 178.412
64.80000 168.955
64.84000 173.897
64.88000 170.660
64.92000 178.232
64.96000 170.125
65.00000 185.474
65.04000 192.644
65.08000 183.304
65.12000 190.624
65.16000 200.919
65.20000 193.752
65.24000 207.312
65.28000 199.710
65.32000 219.839
65.36000 227.484
65.40000 226.696
65.44000 233.700
65.48000 250.427
65.52000 249.528
65.56000 270.956
65.60000 282.100
65.64000 312.163
65.68000 374.371
65.72000 491.069
65.76000 705.505
65.80000 935.805
65.84000 1016.804
65.88000 1057.597
65.92000 1041.354
65.96000 897.509
66.00000 683.397
66.04000 453.445
66.08000 345.779
66.12000 323.032
66.16000 290.921
66.20000 280.741
66.24000 294.767
66.28000 330.584
66.32000 379.220
66.36000 408.147
66.40000 435.824
66.44000 427.109
66.48000 422.899
66.52000 402.820
66.56000 371.413
66.60000 336.189
66.64000 319.860
66.68000 318.888
66.72000 311.670
66.76000 312.000
66.80000 303.992
66.84000 320.859
66.88000 331.738
66.92000 344.291
66.96000 306.714
67.00000 353.520
67.04000 337.720
67.08000 346.836
67.12000 351.234
67.16000 373.272
67.20000 355.887
67.24000 377.448
67.28000 379.057
67.32000 384.151
67.36000 384.438
67.40000 381.330
67.44000 411.430
67.48000 391.897
67.52000 391.195
67.56000 417.638
67.60000 409.022
67.64000 447.638
67.68000 448.529
67.72000 460.371
67.76000 457.594
67.80000 462.782
67.84000 474.112
67.88000 485.785
67.92000 496.717
67.96000 499.862
68.00000 481.564
68.04000 509.828
68.08000 548.681
68.12000 545.760
68.16000 572.358
68.20000 595.079
68.24000 595.414
68.28000 592.946
68.32000 641.638
68.36000 647.882
68.40000 658.781
68.44000 711.063
68.48000 731.776
68.52000 740.936
68.56000 816.794
68.60000 890.426
68.64000 1027.357
68.68000 1218.062
68.72000 1419.421
68.76000 1613.539
68.80000 1781.973
68.84000 2050.372
68.88000 2507.058
68.92000 3524.406
68.96000 9492.128
69.00000 23151.838
69.04000 40291.039
69.08000 50365.609
69.12000 52571.707
69.16000 54661.117
69.20000 56117.105
69.24000 49036.301
69.28000 36922.293
69.32000 29054.752
69.36000 26478.744
69.40000 22756.436
69.44000 15590.600
69.48000 7073.179
69.52000 3032.367
69.56000 1849.552
69.60000 1436.876
69.64000 1198.046
69.68000 1050.850
69.72000 974.504
69.76000 869.316
69.80000 826.819
69.84000 773.949
69.88000 737.903
69.92000 691.303
69.96000 653.080
70.00000 653.294