File: XRD/XRD/24-09-2025 Dep 3/XY Data/BTO_Mapping_Theta2Theta_24-09-2025_001_27_-16-180_11-756.xy
20.00000 568.857
20.04000 556.360
20.08000 576.567
20.12000 576.928
20.16000 561.883
20.20000 566.568
20.24000 582.491
20.28000 566.119
20.32000 524.106
20.36000 572.644
20.40000 580.356
20.44000 551.775
20.48000 547.945
20.52000 543.544
20.56000 567.018
20.60000 565.670
20.64000 551.727
20.68000 530.735
20.72000 546.232
20.76000 559.097
20.80000 559.104
20.84000 558.522
20.88000 553.146
20.92000 544.440
20.96000 543.543
21.00000 537.785
21.04000 545.241
21.08000 558.041
21.12000 557.336
21.16000 566.922
21.20000 581.991
21.24000 560.758
21.28000 569.060
21.32000 567.762
21.36000 562.893
21.40000 544.640
21.44000 573.287
21.48000 557.064
21.52000 563.128
21.56000 577.400
21.60000 554.537
21.64000 557.737
21.68000 563.863
21.72000 580.879
21.76000 609.573
21.80000 629.567
21.84000 686.395
21.88000 703.165
21.92000 764.868
21.96000 866.953
22.00000 873.983
22.04000 901.076
22.08000 870.891
22.12000 848.380
22.16000 795.373
22.20000 751.467
22.24000 689.376
22.28000 613.886
22.32000 618.687
22.36000 613.588
22.40000 587.225
22.44000 577.281
22.48000 571.623
22.52000 550.664
22.56000 542.605
22.60000 559.929
22.64000 550.554
22.68000 527.920
22.72000 516.448
22.76000 534.104
22.80000 523.957
22.84000 524.711
22.88000 524.518
22.92000 513.819
22.96000 507.188
23.00000 514.413
23.04000 521.468
23.08000 514.355
23.12000 535.921
23.16000 516.572
23.20000 514.247
23.24000 516.813
23.28000 513.362
23.32000 521.559
23.36000 509.539
23.40000 500.192
23.44000 512.771
23.48000 503.404
23.52000 509.412
23.56000 500.269
23.60000 512.793
23.64000 501.678
23.68000 505.230
23.72000 487.812
23.76000 491.555
23.80000 496.322
23.84000 499.416
23.88000 498.490
23.92000 512.618
23.96000 492.812
24.00000 506.263
24.04000 476.584
24.08000 506.402
24.12000 502.804
24.16000 482.579
24.20000 496.155
24.24000 472.163
24.28000 485.438
24.32000 494.853
24.36000 502.580
24.40000 483.002
24.44000 479.200
24.48000 485.143
24.52000 472.318
24.56000 490.244
24.60000 491.106
24.64000 492.131
24.68000 488.620
24.72000 487.814
24.76000 473.256
24.80000 484.020
24.84000 476.496
24.88000 480.413
24.92000 474.318
24.96000 479.199
25.00000 481.107
25.04000 471.921
25.08000 470.511
25.12000 459.134
25.16000 484.797
25.20000 480.928
25.24000 484.577
25.28000 459.545
25.32000 464.007
25.36000 458.816
25.40000 468.987
25.44000 464.430
25.48000 474.633
25.52000 474.145
25.56000 466.754
25.60000 478.123
25.64000 475.170
25.68000 455.065
25.72000 464.542
25.76000 467.505
25.80000 475.984
25.84000 466.673
25.88000 477.003
25.92000 480.850
25.96000 463.718
26.00000 462.045
26.04000 462.283
26.08000 448.559
26.12000 448.507
26.16000 467.441
26.20000 450.679
26.24000 465.541
26.28000 455.868
26.32000 459.955
26.36000 460.791
26.40000 456.188
26.44000 445.692
26.48000 472.459
26.52000 441.401
26.56000 451.515
26.60000 445.292
26.64000 444.658
26.68000 439.570
26.72000 442.792
26.76000 466.338
26.80000 450.354
26.84000 450.596
26.88000 459.494
26.92000 458.102
26.96000 445.467
27.00000 457.267
27.04000 449.713
27.08000 440.678
27.12000 441.283
27.16000 445.891
27.20000 438.342
27.24000 443.126
27.28000 445.816
27.32000 438.812
27.36000 432.463
27.40000 440.656
27.44000 434.217
27.48000 438.757
27.52000 436.025
27.56000 429.404
27.60000 431.891
27.64000 435.886
27.68000 441.370
27.72000 440.768
27.76000 429.567
27.80000 428.194
27.84000 431.982
27.88000 428.714
27.92000 429.132
27.96000 433.994
28.00000 446.213
28.04000 427.153
28.08000 424.616
28.12000 447.644
28.16000 412.346
28.20000 444.502
28.24000 438.777
28.28000 420.658
28.32000 429.502
28.36000 431.817
28.40000 434.904
28.44000 445.152
28.48000 411.071
28.52000 428.180
28.56000 439.134
28.60000 410.804
28.64000 424.040
28.68000 421.012
28.72000 422.692
28.76000 425.507
28.80000 409.294
28.84000 428.283
28.88000 432.837
28.92000 413.626
28.96000 430.773
29.00000 423.979
29.04000 427.524
29.08000 422.631
29.12000 425.349
29.16000 424.357
29.20000 425.579
29.24000 420.324
29.28000 409.262
29.32000 420.292
29.36000 416.846
29.40000 405.866
29.44000 402.007
29.48000 405.622
29.52000 421.556
29.56000 415.422
29.60000 414.763
29.64000 414.337
29.68000 442.865
29.72000 415.798
29.76000 423.869
29.80000 415.441
29.84000 424.196
29.88000 441.848
29.92000 447.475
29.96000 459.071
30.00000 454.792
30.04000 455.964
30.08000 452.863
30.12000 479.579
30.16000 454.982
30.20000 463.500
30.24000 443.792
30.28000 450.548
30.32000 425.345
30.36000 438.514
30.40000 450.709
30.44000 426.485
30.48000 430.138
30.52000 444.618
30.56000 443.228
30.60000 446.169
30.64000 422.614
30.68000 437.351
30.72000 460.861
30.76000 451.503
30.80000 470.049
30.84000 483.668
30.88000 509.038
30.92000 513.779
30.96000 563.115
31.00000 632.017
31.04000 704.827
31.08000 894.265
31.12000 1150.352
31.16000 1401.491
31.20000 1828.793
31.24000 2332.038
31.28000 2835.265
31.32000 3253.798
31.36000 3438.422
31.40000 3422.760
31.44000 3206.211
31.48000 2851.756
31.52000 2322.131
31.56000 1856.757
31.60000 1425.795
31.64000 1128.365
31.68000 905.693
31.72000 747.920
31.76000 632.967
31.80000 587.576
31.84000 529.620
31.88000 502.307
31.92000 460.853
31.96000 451.834
32.00000 434.346
32.04000 427.988
32.08000 417.440
32.12000 425.742
32.16000 434.888
32.20000 414.184
32.24000 420.827
32.28000 410.999
32.32000 394.108
32.36000 404.163
32.40000 398.902
32.44000 400.086
32.48000 377.064
32.52000 388.519
32.56000 396.479
32.60000 385.111
32.64000 386.495
32.68000 382.675
32.72000 383.131
32.76000 400.239
32.80000 443.156
32.84000 480.674
32.88000 538.731
32.92000 574.771
32.96000 582.697
33.00000 573.034
33.04000 537.550
33.08000 468.938
33.12000 436.561
33.16000 390.466
33.20000 349.357
33.24000 374.135
33.28000 363.190
33.32000 359.345
33.36000 343.154
33.40000 340.716
33.44000 347.677
33.48000 346.430
33.52000 338.470
33.56000 340.518
33.60000 345.089
33.64000 352.716
33.68000 341.784
33.72000 340.157
33.76000 326.303
33.80000 337.782
33.84000 356.494
33.88000 341.012
33.92000 347.048
33.96000 338.815
34.00000 330.750
34.04000 317.474
34.08000 339.807
34.12000 334.648
34.16000 345.999
34.20000 322.498
34.24000 318.027
34.28000 335.921
34.32000 328.566
34.36000 349.168
34.40000 332.794
34.44000 330.123
34.48000 329.669
34.52000 325.755
34.56000 322.669
34.60000 327.690
34.64000 326.132
34.68000 320.593
34.72000 328.895
34.76000 326.201
34.80000 312.275
34.84000 327.395
34.88000 318.264
34.92000 324.723
34.96000 328.603
35.00000 314.393
35.04000 312.472
35.08000 315.070
35.12000 310.783
35.16000 317.816
35.20000 331.140
35.24000 314.812
35.28000 313.045
35.32000 312.923
35.36000 326.790
35.40000 314.547
35.44000 306.245
35.48000 314.061
35.52000 309.720
35.56000 319.947
35.60000 315.066
35.64000 309.994
35.68000 317.157
35.72000 305.725
35.76000 316.341
35.80000 309.352
35.84000 315.066
35.88000 308.775
35.92000 301.607
35.96000 304.661
36.00000 306.395
36.04000 310.149
36.08000 304.281
36.12000 305.943
36.16000 299.191
36.20000 301.458
36.24000 309.344
36.28000 300.318
36.32000 317.590
36.36000 304.189
36.40000 306.269
36.44000 289.683
36.48000 293.849
36.52000 297.037
36.56000 293.630
36.60000 295.368
36.64000 304.480
36.68000 318.329
36.72000 306.810
36.76000 318.192
36.80000 301.230
36.84000 312.498
36.88000 298.188
36.92000 305.291
36.96000 300.970
37.00000 318.512
37.04000 304.746
37.08000 309.710
37.12000 302.409
37.16000 300.052
37.20000 292.522
37.24000 295.015
37.28000 301.158
37.32000 291.818
37.36000 297.919
37.40000 306.185
37.44000 288.474
37.48000 286.073
37.52000 295.115
37.56000 292.320
37.60000 314.802
37.64000 308.011
37.68000 299.468
37.72000 295.398
37.76000 312.333
37.80000 296.603
37.84000 309.899
37.88000 307.569
37.92000 297.757
37.96000 291.422
38.00000 309.109
38.04000 300.029
38.08000 317.669
38.12000 304.743
38.16000 319.002
38.20000 307.016
38.24000 334.846
38.28000 335.646
38.32000 341.995
38.36000 391.308
38.40000 452.343
38.44000 519.473
38.48000 626.583
38.52000 766.740
38.56000 936.667
38.60000 1057.236
38.64000 1179.108
38.68000 1230.314
38.72000 1209.281
38.76000 1130.430
38.80000 992.618
38.84000 859.930
38.88000 691.050
38.92000 572.954
38.96000 467.831
39.00000 423.018
39.04000 364.903
39.08000 349.520
39.12000 310.854
39.16000 302.464
39.20000 287.555
39.24000 288.788
39.28000 299.769
39.32000 290.418
39.36000 291.530
39.40000 268.164
39.44000 268.548
39.48000 262.788
39.52000 266.340
39.56000 274.117
39.60000 276.069
39.64000 284.100
39.68000 282.946
39.72000 295.884
39.76000 282.396
39.80000 280.624
39.84000 268.522
39.88000 259.763
39.92000 254.232
39.96000 264.284
40.00000 262.412
40.04000 269.924
40.08000 250.876
40.12000 253.873
40.16000 247.944
40.20000 256.006
40.24000 272.763
40.28000 266.307
40.32000 256.006
40.36000 262.561
40.40000 252.618
40.44000 238.707
40.48000 251.242
40.52000 262.836
40.56000 256.638
40.60000 253.390
40.64000 246.944
40.68000 258.106
40.72000 254.959
40.76000 263.516
40.80000 255.326
40.84000 251.854
40.88000 249.005
40.92000 249.669
40.96000 251.563
41.00000 249.724
41.04000 250.996
41.08000 244.997
41.12000 248.301
41.16000 267.697
41.20000 238.434
41.24000 249.397
41.28000 233.055
41.32000 239.315
41.36000 245.004
41.40000 250.808
41.44000 240.696
41.48000 245.890
41.52000 247.935
41.56000 235.296
41.60000 242.136
41.64000 243.253
41.68000 233.106
41.72000 243.133
41.76000 240.438
41.80000 234.315
41.84000 239.170
41.88000 236.609
41.92000 247.684
41.96000 246.119
42.00000 235.216
42.04000 223.641
42.08000 216.196
42.12000 231.334
42.16000 226.702
42.20000 223.864
42.24000 237.482
42.28000 236.207
42.32000 242.719
42.36000 235.975
42.40000 234.191
42.44000 229.622
42.48000 240.852
42.52000 237.025
42.56000 232.143
42.60000 222.483
42.64000 235.571
42.68000 235.679
42.72000 238.347
42.76000 229.561
42.80000 226.876
42.84000 236.013
42.88000 249.036
42.92000 233.506
42.96000 221.573
43.00000 234.710
43.04000 230.229
43.08000 215.147
43.12000 222.281
43.16000 233.234
43.20000 238.318
43.24000 228.819
43.28000 227.518
43.32000 222.482
43.36000 229.003
43.40000 240.243
43.44000 235.720
43.48000 236.053
43.52000 236.776
43.56000 225.327
43.60000 221.938
43.64000 214.580
43.68000 218.980
43.72000 225.483
43.76000 233.974
43.80000 227.674
43.84000 230.791
43.88000 234.291
43.92000 229.978
43.96000 220.525
44.00000 220.048
44.04000 232.273
44.08000 222.403
44.12000 212.999
44.16000 223.824
44.20000 231.421
44.24000 239.793
44.28000 225.745
44.32000 218.252
44.36000 217.720
44.40000 232.209
44.44000 231.771
44.48000 227.616
44.52000 232.555
44.56000 256.300
44.60000 246.636
44.64000 253.545
44.68000 270.070
44.72000 293.982
44.76000 305.346
44.80000 350.740
44.84000 379.061
44.88000 424.133
44.92000 455.192
44.96000 513.938
45.00000 516.077
45.04000 513.291
45.08000 501.992
45.12000 496.240
45.16000 461.235
45.20000 426.343
45.24000 394.233
45.28000 375.252
45.32000 337.328
45.36000 331.505
45.40000 309.982
45.44000 294.259
45.48000 284.160
45.52000 270.116
45.56000 267.830
45.60000 270.587
45.64000 254.501
45.68000 256.879
45.72000 252.838
45.76000 246.402
45.80000 224.036
45.84000 223.325
45.88000 236.289
45.92000 242.427
45.96000 233.102
46.00000 225.549
46.04000 225.468
46.08000 213.135
46.12000 221.527
46.16000 212.310
46.20000 214.369
46.24000 229.083
46.28000 209.342
46.32000 206.365
46.36000 213.631
46.40000 204.196
46.44000 201.067
46.48000 201.735
46.52000 196.883
46.56000 199.545
46.60000 214.735
46.64000 192.567
46.68000 203.441
46.72000 201.654
46.76000 193.746
46.80000 201.133
46.84000 203.702
46.88000 202.722
46.92000 201.391
46.96000 192.786
47.00000 196.095
47.04000 198.806
47.08000 185.061
47.12000 186.204
47.16000 187.020
47.20000 186.976
47.24000 190.374
47.28000 191.765
47.32000 200.805
47.36000 189.011
47.40000 199.928
47.44000 202.484
47.48000 181.545
47.52000 184.242
47.56000 194.527
47.60000 186.825
47.64000 194.003
47.68000 188.602
47.72000 187.591
47.76000 189.176
47.80000 181.497
47.84000 191.136
47.88000 205.804
47.92000 190.860
47.96000 188.741
48.00000 180.511
48.04000 183.041
48.08000 182.372
48.12000 191.635
48.16000 183.176
48.20000 180.388
48.24000 195.207
48.28000 186.743
48.32000 180.245
48.36000 181.394
48.40000 185.286
48.44000 193.609
48.48000 179.448
48.52000 174.490
48.56000 175.738
48.60000 180.972
48.64000 185.497
48.68000 180.492
48.72000 187.337
48.76000 192.168
48.80000 181.462
48.84000 188.882
48.88000 187.556
48.92000 188.137
48.96000 184.279
49.00000 183.067
49.04000 179.344
49.08000 170.164
49.12000 184.163
49.16000 180.645
49.20000 179.222
49.24000 178.720
49.28000 177.817
49.32000 178.269
49.36000 173.800
49.40000 177.961
49.44000 179.078
49.48000 179.916
49.52000 172.984
49.56000 167.911
49.60000 172.927
49.64000 167.320
49.68000 179.868
49.72000 178.080
49.76000 163.485
49.80000 171.423
49.84000 180.685
49.88000 176.109
49.92000 172.965
49.96000 183.431
50.00000 178.264
50.04000 186.009
50.08000 186.531
50.12000 178.426
50.16000 187.288
50.20000 183.725
50.24000 179.945
50.28000 186.902
50.32000 182.117
50.36000 203.657
50.40000 216.660
50.44000 220.799
50.48000 233.785
50.52000 241.311
50.56000 258.422
50.60000 283.870
50.64000 277.174
50.68000 279.753
50.72000 284.534
50.76000 260.059
50.80000 259.305
50.84000 252.760
50.88000 236.873
50.92000 236.204
50.96000 208.633
51.00000 209.183
51.04000 197.854
51.08000 187.061
51.12000 195.120
51.16000 179.627
51.20000 177.890
51.24000 176.953
51.28000 193.927
51.32000 182.994
51.36000 186.566
51.40000 173.844
51.44000 180.424
51.48000 175.799
51.52000 171.073
51.56000 170.707
51.60000 171.724
51.64000 168.647
51.68000 165.182
51.72000 172.402
51.76000 170.349
51.80000 166.905
51.84000 166.597
51.88000 175.370
51.92000 168.608
51.96000 161.268
52.00000 169.276
52.04000 172.050
52.08000 170.847
52.12000 169.020
52.16000 157.240
52.20000 159.361
52.24000 159.335
52.28000 166.417
52.32000 159.536
52.36000 169.061
52.40000 171.064
52.44000 163.868
52.48000 163.300
52.52000 154.897
52.56000 159.893
52.60000 158.347
52.64000 157.711
52.68000 158.979
52.72000 173.957
52.76000 160.856
52.80000 162.331
52.84000 158.725
52.88000 156.814
52.92000 162.847
52.96000 155.652
53.00000 151.097
53.04000 160.240
53.08000 161.349
53.12000 156.010
53.16000 168.413
53.20000 174.436
53.24000 167.017
53.28000 163.772
53.32000 167.751
53.36000 185.338
53.40000 166.012
53.44000 177.745
53.48000 156.011
53.52000 157.337
53.56000 154.396
53.60000 169.214
53.64000 157.795
53.68000 159.672
53.72000 158.793
53.76000 163.369
53.80000 150.127
53.84000 151.615
53.88000 163.179
53.92000 157.144
53.96000 151.807
54.00000 151.922
54.04000 161.976
54.08000 151.699
54.12000 155.835
54.16000 155.912
54.20000 152.779
54.24000 154.385
54.28000 158.743
54.32000 154.757
54.36000 146.187
54.40000 155.222
54.44000 153.038
54.48000 148.132
54.52000 161.283
54.56000 166.128
54.60000 146.706
54.64000 162.207
54.68000 148.476
54.72000 164.928
54.76000 165.181
54.80000 163.338
54.84000 159.088
54.88000 174.099
54.92000 165.695
54.96000 162.551
55.00000 152.781
55.04000 165.026
55.08000 159.934
55.12000 170.318
55.16000 167.497
55.20000 166.682
55.24000 164.552
55.28000 170.989
55.32000 178.099
55.36000 178.614
55.40000 184.720
55.44000 198.174
55.48000 203.738
55.52000 231.111
55.56000 253.973
55.60000 314.421
55.64000 360.478
55.68000 425.393
55.72000 490.344
55.76000 599.632
55.80000 692.406
55.84000 769.852
55.88000 807.610
55.92000 822.457
55.96000 808.470
56.00000 766.854
56.04000 730.079
56.08000 629.662
56.12000 554.193
56.16000 464.063
56.20000 376.210
56.24000 330.033
56.28000 290.001
56.32000 261.009
56.36000 231.406
56.40000 228.813
56.44000 205.581
56.48000 200.077
56.52000 189.472
56.56000 177.001
56.60000 176.947
56.64000 179.385
56.68000 158.385
56.72000 161.878
56.76000 158.674
56.80000 155.193
56.84000 167.496
56.88000 159.250
56.92000 166.839
56.96000 154.158
57.00000 147.094
57.04000 153.682
57.08000 147.363
57.12000 151.367
57.16000 156.129
57.20000 150.753
57.24000 141.340
57.28000 150.142
57.32000 146.380
57.36000 136.699
57.40000 156.098
57.44000 148.925
57.48000 147.507
57.52000 140.454
57.56000 142.721
57.60000 142.985
57.64000 146.956
57.68000 144.680
57.72000 142.762
57.76000 141.978
57.80000 129.208
57.84000 147.048
57.88000 142.724
57.92000 136.038
57.96000 144.244
58.00000 129.255
58.04000 144.354
58.08000 141.927
58.12000 141.574
58.16000 138.271
58.20000 137.011
58.24000 139.889
58.28000 145.776
58.32000 139.436
58.36000 141.116
58.40000 135.910
58.44000 138.923
58.48000 146.552
58.52000 141.342
58.56000 138.905
58.60000 127.034
58.64000 138.314
58.68000 140.890
58.72000 134.849
58.76000 141.226
58.80000 140.176
58.84000 136.219
58.88000 137.503
58.92000 136.923
58.96000 134.919
59.00000 142.030
59.04000 132.935
59.08000 136.883
59.12000 132.909
59.16000 135.260
59.20000 134.354
59.24000 134.648
59.28000 137.426
59.32000 132.057
59.36000 136.343
59.40000 140.448
59.44000 131.121
59.48000 131.981
59.52000 136.107
59.56000 130.361
59.60000 136.703
59.64000 138.271
59.68000 139.127
59.72000 133.915
59.76000 132.755
59.80000 130.156
59.84000 145.332
59.88000 132.681
59.92000 118.568
59.96000 134.773
60.00000 129.233
60.04000 126.719
60.08000 129.865
60.12000 140.058
60.16000 122.745
60.20000 129.365
60.24000 121.526
60.28000 133.484
60.32000 129.753
60.36000 132.457
60.40000 139.633
60.44000 133.775
60.48000 136.533
60.52000 139.158
60.56000 132.566
60.60000 128.695
60.64000 121.898
60.68000 132.553
60.72000 130.996
60.76000 134.491
60.80000 132.594
60.84000 131.831
60.88000 139.229
60.92000 129.815
60.96000 131.330
61.00000 130.890
61.04000 137.948
61.08000 134.115
61.12000 144.100
61.16000 149.907
61.20000 141.757
61.24000 134.130
61.28000 137.909
61.32000 133.673
61.36000 139.303
61.40000 136.523
61.44000 140.673
61.48000 152.655
61.52000 177.708
61.56000 208.445
61.60000 266.977
61.64000 306.285
61.68000 308.905
61.72000 318.206
61.76000 296.670
61.80000 240.415
61.84000 196.354
61.88000 154.406
61.92000 150.486
61.96000 142.533
62.00000 139.088
62.04000 141.837
62.08000 134.147
62.12000 148.827
62.16000 139.796
62.20000 143.172
62.24000 138.831
62.28000 136.666
62.32000 142.139
62.36000 133.865
62.40000 135.435
62.44000 137.595
62.48000 146.529
62.52000 144.559
62.56000 140.817
62.60000 144.155
62.64000 149.681
62.68000 158.922
62.72000 140.838
62.76000 137.366
62.80000 145.681
62.84000 135.750
62.88000 147.693
62.92000 151.497
62.96000 143.438
63.00000 146.698
63.04000 148.275
63.08000 138.252
63.12000 145.848
63.16000 135.967
63.20000 142.061
63.24000 140.675
63.28000 155.320
63.32000 145.934
63.36000 142.017
63.40000 155.450
63.44000 150.668
63.48000 147.741
63.52000 158.545
63.56000 149.828
63.60000 149.433
63.64000 152.443
63.68000 149.271
63.72000 150.213
63.76000 152.839
63.80000 144.533
63.84000 139.417
63.88000 145.267
63.92000 157.711
63.96000 158.108
64.00000 155.384
64.04000 153.128
64.08000 163.421
64.12000 162.823
64.16000 168.192
64.20000 169.266
64.24000 160.722
64.28000 167.436
64.32000 161.199
64.36000 167.289
64.40000 154.140
64.44000 163.173
64.48000 160.004
64.52000 169.065
64.56000 163.266
64.60000 167.966
64.64000 171.405
64.68000 176.302
64.72000 184.638
64.76000 173.727
64.80000 178.158
64.84000 175.110
64.88000 187.011
64.92000 189.589
64.96000 192.102
65.00000 208.830
65.04000 218.613
65.08000 222.307
65.12000 223.804
65.16000 233.501
65.20000 231.562
65.24000 262.574
65.28000 281.445
65.32000 302.377
65.36000 328.641
65.40000 336.698
65.44000 373.255
65.48000 394.682
65.52000 427.831
65.56000 424.029
65.60000 453.456
65.64000 486.766
65.68000 568.564
65.72000 750.786
65.76000 1035.213
65.80000 1276.804
65.84000 1400.370
65.88000 1393.783
65.92000 1308.115
65.96000 1112.193
66.00000 786.750
66.04000 547.026
66.08000 402.254
66.12000 353.293
66.16000 341.924
66.20000 333.597
66.24000 352.310
66.28000 395.487
66.32000 438.583
66.36000 485.094
66.40000 517.225
66.44000 501.414
66.48000 507.517
66.52000 460.230
66.56000 371.845
66.60000 343.516
66.64000 345.246
66.68000 335.953
66.72000 331.795
66.76000 337.356
66.80000 339.657
66.84000 346.892
66.88000 365.900
66.92000 356.420
66.96000 353.018
67.00000 372.316
67.04000 378.897
67.08000 378.087
67.12000 375.862
67.16000 380.310
67.20000 391.441
67.24000 407.481
67.28000 392.021
67.32000 412.232
67.36000 433.344
67.40000 435.619
67.44000 446.482
67.48000 447.198
67.52000 452.984
67.56000 435.596
67.60000 469.038
67.64000 465.875
67.68000 483.979
67.72000 496.417
67.76000 494.375
67.80000 514.961
67.84000 517.703
67.88000 533.565
67.92000 525.255
67.96000 530.471
68.00000 564.158
68.04000 580.005
68.08000 572.272
68.12000 584.345
68.16000 611.369
68.20000 601.405
68.24000 642.702
68.28000 624.488
68.32000 717.261
68.36000 719.544
68.40000 726.686
68.44000 745.723
68.48000 823.216
68.52000 848.949
68.56000 922.932
68.60000 1084.477
68.64000 1267.471
68.68000 1504.471
68.72000 1801.038
68.76000 2075.033
68.80000 2438.748
68.84000 2929.327
68.88000 4052.504
68.92000 6666.063
68.96000 17541.422
69.00000 37346.828
69.04000 58106.781
69.08000 68547.766
69.12000 71653.227
69.16000 74370.750
69.20000 73293.242
69.24000 61547.871
69.28000 47203.457
69.32000 38979.152
69.36000 34379.230
69.40000 27948.279
69.44000 17885.398
69.48000 8187.606
69.52000 3689.188
69.56000 2199.979
69.60000 1676.459
69.64000 1397.352
69.68000 1184.613
69.72000 1070.162
69.76000 996.371
69.80000 930.459
69.84000 845.319
69.88000 795.685
69.92000 780.512
69.96000 736.576
70.00000 714.333