File: XRD/XRD/24-09-2025 Dep 3/XY Data/BTO_Mapping_Theta2Theta_24-09-2025_001_37_-39-126_-8-316.xy
20.00000 551.860
20.04000 575.497
20.08000 583.665
20.12000 546.079
20.16000 574.833
20.20000 568.398
20.24000 562.193
20.28000 550.713
20.32000 538.757
20.36000 556.964
20.40000 565.189
20.44000 545.207
20.48000 579.126
20.52000 568.565
20.56000 571.273
20.60000 575.446
20.64000 560.854
20.68000 559.184
20.72000 559.405
20.76000 556.508
20.80000 543.679
20.84000 565.602
20.88000 558.100
20.92000 575.120
20.96000 528.058
21.00000 568.982
21.04000 557.639
21.08000 574.115
21.12000 551.168
21.16000 567.600
21.20000 564.715
21.24000 562.300
21.28000 552.222
21.32000 551.148
21.36000 550.714
21.40000 572.972
21.44000 566.233
21.48000 572.851
21.52000 566.487
21.56000 582.085
21.60000 583.476
21.64000 621.046
21.68000 669.735
21.72000 723.660
21.76000 771.783
21.80000 814.304
21.84000 907.800
21.88000 989.419
21.92000 1006.068
21.96000 1009.248
22.00000 973.178
22.04000 898.163
22.08000 839.540
22.12000 747.937
22.16000 688.796
22.20000 667.653
22.24000 601.573
22.28000 601.115
22.32000 598.163
22.36000 583.626
22.40000 585.099
22.44000 543.501
22.48000 554.452
22.52000 539.690
22.56000 543.523
22.60000 533.152
22.64000 526.100
22.68000 511.926
22.72000 530.975
22.76000 519.296
22.80000 540.247
22.84000 526.603
22.88000 528.499
22.92000 525.219
22.96000 513.261
23.00000 511.092
23.04000 516.487
23.08000 527.898
23.12000 504.926
23.16000 516.250
23.20000 511.527
23.24000 502.926
23.28000 513.478
23.32000 508.531
23.36000 519.095
23.40000 501.231
23.44000 510.820
23.48000 526.621
23.52000 495.060
23.56000 511.837
23.60000 500.419
23.64000 502.842
23.68000 502.241
23.72000 490.895
23.76000 509.326
23.80000 522.948
23.84000 508.159
23.88000 480.498
23.92000 506.278
23.96000 506.831
24.00000 493.980
24.04000 506.952
24.08000 499.296
24.12000 509.730
24.16000 501.120
24.20000 496.634
24.24000 506.940
24.28000 496.458
24.32000 479.223
24.36000 489.932
24.40000 489.978
24.44000 478.154
24.48000 488.188
24.52000 472.020
24.56000 477.458
24.60000 474.249
24.64000 490.067
24.68000 493.329
24.72000 488.172
24.76000 503.155
24.80000 478.447
24.84000 469.939
24.88000 490.208
24.92000 486.517
24.96000 467.956
25.00000 476.185
25.04000 458.339
25.08000 474.176
25.12000 487.083
25.16000 475.315
25.20000 471.238
25.24000 452.751
25.28000 486.265
25.32000 467.697
25.36000 472.068
25.40000 454.909
25.44000 473.775
25.48000 489.670
25.52000 479.752
25.56000 497.374
25.60000 462.131
25.64000 449.124
25.68000 493.431
25.72000 473.784
25.76000 471.838
25.80000 475.773
25.84000 453.780
25.88000 477.926
25.92000 457.489
25.96000 460.690
26.00000 454.561
26.04000 472.281
26.08000 451.711
26.12000 468.442
26.16000 460.109
26.20000 455.248
26.24000 467.308
26.28000 455.774
26.32000 463.972
26.36000 454.230
26.40000 445.269
26.44000 457.092
26.48000 458.358
26.52000 469.802
26.56000 462.601
26.60000 453.749
26.64000 464.753
26.68000 459.623
26.72000 448.789
26.76000 451.624
26.80000 472.895
26.84000 431.685
26.88000 451.648
26.92000 442.748
26.96000 453.057
27.00000 430.162
27.04000 449.883
27.08000 451.823
27.12000 429.527
27.16000 462.788
27.20000 457.105
27.24000 438.651
27.28000 435.804
27.32000 443.732
27.36000 439.210
27.40000 458.987
27.44000 458.312
27.48000 453.504
27.52000 431.988
27.56000 443.482
27.60000 435.620
27.64000 451.327
27.68000 430.543
27.72000 446.610
27.76000 455.385
27.80000 433.082
27.84000 427.373
27.88000 450.886
27.92000 435.811
27.96000 475.547
28.00000 454.250
28.04000 452.635
28.08000 442.570
28.12000 437.772
28.16000 461.589
28.20000 459.079
28.24000 466.512
28.28000 427.205
28.32000 439.508
28.36000 409.892
28.40000 431.844
28.44000 434.875
28.48000 430.624
28.52000 442.486
28.56000 420.702
28.60000 425.971
28.64000 409.463
28.68000 422.945
28.72000 431.283
28.76000 428.656
28.80000 433.476
28.84000 436.115
28.88000 417.088
28.92000 415.701
28.96000 440.403
29.00000 437.176
29.04000 423.773
29.08000 425.683
29.12000 418.576
29.16000 409.034
29.20000 425.895
29.24000 417.060
29.28000 416.745
29.32000 427.094
29.36000 435.646
29.40000 432.629
29.44000 431.132
29.48000 424.525
29.52000 438.409
29.56000 424.174
29.60000 441.460
29.64000 442.713
29.68000 448.391
29.72000 444.937
29.76000 463.321
29.80000 472.615
29.84000 486.638
29.88000 493.013
29.92000 475.573
29.96000 498.624
30.00000 486.155
30.04000 498.924
30.08000 464.878
30.12000 440.219
30.16000 440.240
30.20000 479.075
30.24000 468.158
30.28000 459.341
30.32000 431.978
30.36000 444.931
30.40000 466.807
30.44000 453.303
30.48000 450.706
30.52000 465.463
30.56000 485.624
30.60000 469.013
30.64000 470.964
30.68000 490.612
30.72000 492.328
30.76000 524.262
30.80000 530.641
30.84000 603.994
30.88000 680.914
30.92000 807.404
30.96000 1044.245
31.00000 1419.107
31.04000 1929.814
31.08000 2656.461
31.12000 3451.791
31.16000 4146.668
31.20000 4688.493
31.24000 4910.692
31.28000 4675.847
31.32000 4164.150
31.36000 3487.547
31.40000 2708.998
31.44000 2007.169
31.48000 1490.012
31.52000 1120.705
31.56000 880.266
31.60000 742.822
31.64000 627.412
31.68000 557.366
31.72000 530.955
31.76000 500.297
31.80000 468.573
31.84000 451.999
31.88000 431.199
31.92000 435.317
31.96000 436.338
32.00000 423.740
32.04000 419.983
32.08000 396.784
32.12000 419.665
32.16000 411.373
32.20000 412.388
32.24000 408.508
32.28000 392.269
32.32000 413.062
32.36000 400.897
32.40000 399.886
32.44000 390.482
32.48000 394.606
32.52000 400.242
32.56000 380.117
32.60000 404.952
32.64000 392.656
32.68000 373.531
32.72000 369.713
32.76000 394.779
32.80000 441.998
32.84000 503.386
32.88000 548.929
32.92000 584.485
32.96000 602.641
33.00000 587.589
33.04000 562.423
33.08000 480.460
33.12000 414.800
33.16000 388.101
33.20000 383.089
33.24000 361.284
33.28000 366.449
33.32000 372.993
33.36000 352.913
33.40000 353.282
33.44000 354.734
33.48000 344.852
33.52000 347.999
33.56000 349.987
33.60000 357.700
33.64000 350.817
33.68000 346.413
33.72000 340.008
33.76000 350.638
33.80000 348.700
33.84000 359.477
33.88000 352.975
33.92000 345.798
33.96000 331.101
34.00000 325.580
34.04000 347.675
34.08000 344.616
34.12000 329.001
34.16000 326.999
34.20000 345.058
34.24000 334.139
34.28000 341.275
34.32000 329.736
34.36000 338.851
34.40000 344.758
34.44000 330.545
34.48000 338.660
34.52000 337.290
34.56000 342.122
34.60000 330.125
34.64000 333.707
34.68000 330.542
34.72000 331.451
34.76000 316.746
34.80000 316.815
34.84000 329.235
34.88000 323.612
34.92000 313.111
34.96000 344.871
35.00000 324.730
35.04000 317.312
35.08000 332.768
35.12000 331.761
35.16000 334.812
35.20000 317.362
35.24000 327.546
35.28000 293.458
35.32000 315.589
35.36000 308.322
35.40000 304.053
35.44000 317.218
35.48000 317.842
35.52000 323.257
35.56000 318.632
35.60000 317.274
35.64000 308.114
35.68000 309.243
35.72000 323.412
35.76000 315.198
35.80000 291.344
35.84000 302.586
35.88000 304.553
35.92000 307.940
35.96000 324.499
36.00000 303.563
36.04000 315.261
36.08000 315.620
36.12000 302.521
36.16000 303.407
36.20000 308.863
36.24000 313.389
36.28000 314.585
36.32000 310.140
36.36000 290.513
36.40000 313.909
36.44000 308.910
36.48000 308.524
36.52000 303.888
36.56000 310.005
36.60000 301.496
36.64000 304.625
36.68000 307.796
36.72000 301.082
36.76000 308.479
36.80000 303.430
36.84000 315.920
36.88000 315.871
36.92000 304.762
36.96000 305.248
37.00000 299.298
37.04000 307.234
37.08000 296.906
37.12000 309.470
37.16000 299.033
37.20000 297.169
37.24000 303.881
37.28000 293.419
37.32000 302.912
37.36000 301.980
37.40000 283.448
37.44000 283.447
37.48000 290.877
37.52000 312.126
37.56000 285.090
37.60000 299.488
37.64000 299.762
37.68000 295.994
37.72000 309.137
37.76000 289.724
37.80000 299.906
37.84000 289.749
37.88000 301.604
37.92000 303.750
37.96000 311.642
38.00000 307.886
38.04000 320.099
38.08000 305.503
38.12000 318.413
38.16000 330.811
38.20000 348.737
38.24000 372.378
38.28000 392.699
38.32000 433.488
38.36000 484.601
38.40000 534.159
38.44000 616.310
38.48000 619.641
38.52000 678.651
38.56000 675.117
38.60000 681.644
38.64000 641.274
38.68000 594.755
38.72000 513.012
38.76000 465.283
38.80000 404.112
38.84000 371.597
38.88000 363.247
38.92000 325.337
38.96000 304.236
39.00000 302.802
39.04000 302.180
39.08000 272.072
39.12000 279.991
39.16000 288.301
39.20000 276.926
39.24000 278.181
39.28000 286.072
39.32000 281.868
39.36000 283.470
39.40000 270.753
39.44000 278.511
39.48000 273.994
39.52000 275.661
39.56000 269.995
39.60000 280.349
39.64000 269.670
39.68000 262.639
39.72000 268.187
39.76000 273.014
39.80000 266.613
39.84000 265.568
39.88000 264.438
39.92000 262.003
39.96000 264.824
40.00000 272.067
40.04000 250.656
40.08000 265.292
40.12000 271.893
40.16000 267.062
40.20000 264.186
40.24000 262.125
40.28000 252.499
40.32000 254.721
40.36000 254.593
40.40000 258.024
40.44000 257.661
40.48000 255.159
40.52000 253.955
40.56000 255.358
40.60000 255.049
40.64000 259.121
40.68000 250.582
40.72000 250.023
40.76000 245.146
40.80000 248.987
40.84000 236.173
40.88000 249.042
40.92000 258.282
40.96000 242.358
41.00000 249.224
41.04000 242.580
41.08000 245.449
41.12000 243.794
41.16000 249.902
41.20000 249.738
41.24000 240.458
41.28000 244.979
41.32000 243.459
41.36000 232.766
41.40000 242.869
41.44000 233.243
41.48000 254.357
41.52000 246.040
41.56000 238.493
41.60000 238.025
41.64000 247.680
41.68000 244.933
41.72000 242.967
41.76000 241.198
41.80000 249.373
41.84000 237.332
41.88000 245.476
41.92000 237.049
41.96000 237.688
42.00000 244.711
42.04000 240.255
42.08000 240.918
42.12000 245.011
42.16000 227.600
42.20000 233.446
42.24000 242.249
42.28000 230.389
42.32000 255.093
42.36000 242.783
42.40000 237.983
42.44000 237.964
42.48000 227.793
42.52000 236.842
42.56000 234.753
42.60000 243.105
42.64000 240.494
42.68000 238.191
42.72000 250.612
42.76000 245.760
42.80000 238.390
42.84000 238.144
42.88000 250.815
42.92000 240.828
42.96000 245.384
43.00000 223.080
43.04000 225.899
43.08000 248.712
43.12000 239.246
43.16000 223.923
43.20000 223.057
43.24000 232.564
43.28000 238.278
43.32000 228.380
43.36000 230.602
43.40000 232.057
43.44000 231.982
43.48000 240.908
43.52000 242.932
43.56000 233.650
43.60000 233.052
43.64000 241.878
43.68000 241.615
43.72000 239.025
43.76000 231.752
43.80000 234.248
43.84000 234.810
43.88000 233.900
43.92000 235.391
43.96000 240.675
44.00000 238.201
44.04000 237.624
44.08000 249.765
44.12000 245.484
44.16000 252.729
44.20000 256.639
44.24000 260.396
44.28000 275.508
44.32000 284.799
44.36000 288.663
44.40000 314.160
44.44000 343.744
44.48000 371.442
44.52000 393.309
44.56000 427.353
44.60000 485.399
44.64000 519.429
44.68000 570.766
44.72000 614.906
44.76000 636.300
44.80000 633.025
44.84000 646.304
44.88000 625.669
44.92000 570.585
44.96000 518.600
45.00000 475.905
45.04000 441.489
45.08000 398.167
45.12000 371.918
45.16000 338.234
45.20000 306.120
45.24000 299.634
45.28000 293.035
45.32000 287.084
45.36000 265.037
45.40000 270.222
45.44000 245.948
45.48000 237.732
45.52000 252.474
45.56000 248.445
45.60000 234.704
45.64000 230.334
45.68000 226.830
45.72000 226.975
45.76000 218.958
45.80000 221.389
45.84000 214.579
45.88000 218.660
45.92000 216.775
45.96000 205.331
46.00000 209.637
46.04000 208.370
46.08000 218.070
46.12000 198.526
46.16000 211.870
46.20000 210.629
46.24000 210.558
46.28000 211.790
46.32000 203.193
46.36000 213.319
46.40000 211.370
46.44000 209.318
46.48000 211.352
46.52000 220.491
46.56000 201.542
46.60000 195.003
46.64000 186.646
46.68000 196.946
46.72000 209.684
46.76000 208.225
46.80000 198.001
46.84000 203.855
46.88000 202.406
46.92000 200.898
46.96000 201.599
47.00000 192.157
47.04000 203.701
47.08000 206.298
47.12000 196.392
47.16000 186.500
47.20000 192.410
47.24000 197.881
47.28000 198.773
47.32000 183.469
47.36000 206.559
47.40000 205.377
47.44000 193.931
47.48000 188.609
47.52000 184.849
47.56000 190.628
47.60000 190.365
47.64000 191.699
47.68000 184.826
47.72000 186.909
47.76000 197.865
47.80000 191.759
47.84000 184.743
47.88000 200.663
47.92000 190.278
47.96000 198.711
48.00000 192.275
48.04000 201.644
48.08000 190.667
48.12000 196.908
48.16000 199.693
48.20000 177.545
48.24000 179.395
48.28000 179.308
48.32000 177.704
48.36000 187.488
48.40000 194.408
48.44000 186.586
48.48000 187.469
48.52000 190.633
48.56000 180.821
48.60000 183.049
48.64000 189.798
48.68000 188.452
48.72000 173.890
48.76000 188.784
48.80000 177.305
48.84000 186.193
48.88000 189.599
48.92000 178.040
48.96000 186.223
49.00000 193.832
49.04000 177.535
49.08000 186.815
49.12000 177.777
49.16000 183.996
49.20000 186.386
49.24000 176.865
49.28000 176.479
49.32000 179.560
49.36000 186.510
49.40000 173.100
49.44000 179.090
49.48000 186.256
49.52000 178.783
49.56000 185.071
49.60000 183.981
49.64000 167.380
49.68000 174.455
49.72000 172.477
49.76000 194.888
49.80000 196.551
49.84000 185.804
49.88000 180.119
49.92000 183.027
49.96000 182.289
50.00000 194.062
50.04000 202.611
50.08000 194.067
50.12000 224.427
50.16000 224.841
50.20000 233.498
50.24000 254.929
50.28000 272.788
50.32000 287.582
50.36000 290.099
50.40000 296.575
50.44000 296.068
50.48000 306.099
50.52000 287.807
50.56000 280.569
50.60000 277.437
50.64000 266.017
50.68000 251.088
50.72000 224.751
50.76000 231.595
50.80000 210.159
50.84000 197.062
50.88000 198.016
50.92000 189.777
50.96000 204.345
51.00000 189.551
51.04000 173.969
51.08000 189.633
51.12000 182.280
51.16000 188.075
51.20000 176.935
51.24000 168.251
51.28000 176.587
51.32000 168.388
51.36000 165.646
51.40000 169.425
51.44000 179.642
51.48000 167.154
51.52000 171.831
51.56000 172.145
51.60000 161.661
51.64000 168.946
51.68000 171.499
51.72000 161.322
51.76000 175.858
51.80000 177.550
51.84000 161.256
51.88000 162.190
51.92000 177.023
51.96000 169.437
52.00000 170.431
52.04000 161.390
52.08000 165.444
52.12000 161.140
52.16000 170.406
52.20000 168.116
52.24000 168.920
52.28000 166.289
52.32000 167.930
52.36000 170.479
52.40000 162.516
52.44000 171.115
52.48000 167.786
52.52000 156.023
52.56000 162.429
52.60000 175.172
52.64000 166.084
52.68000 161.434
52.72000 161.945
52.76000 150.857
52.80000 158.469
52.84000 167.804
52.88000 161.881
52.92000 165.941
52.96000 166.937
53.00000 171.092
53.04000 163.470
53.08000 170.920
53.12000 176.424
53.16000 156.325
53.20000 164.504
53.24000 161.739
53.28000 163.224
53.32000 159.336
53.36000 161.807
53.40000 159.021
53.44000 167.574
53.48000 179.580
53.52000 164.912
53.56000 166.126
53.60000 166.348
53.64000 153.958
53.68000 175.177
53.72000 162.199
53.76000 166.026
53.80000 163.413
53.84000 153.543
53.88000 157.522
53.92000 154.449
53.96000 159.962
54.00000 158.621
54.04000 160.587
54.08000 159.866
54.12000 154.684
54.16000 153.478
54.20000 168.303
54.24000 167.842
54.28000 165.389
54.32000 158.540
54.36000 160.299
54.40000 161.346
54.44000 166.108
54.48000 166.626
54.52000 166.596
54.56000 164.758
54.60000 164.250
54.64000 161.416
54.68000 154.575
54.72000 166.909
54.76000 165.883
54.80000 161.176
54.84000 162.937
54.88000 180.484
54.92000 165.199
54.96000 176.539
55.00000 176.031
55.04000 179.840
55.08000 182.207
55.12000 196.529
55.16000 193.122
55.20000 213.884
55.24000 228.315
55.28000 259.023
55.32000 274.868
55.36000 318.484
55.40000 380.784
55.44000 425.264
55.48000 489.594
55.52000 571.201
55.56000 627.284
55.60000 703.837
55.64000 740.542
55.68000 781.607
55.72000 798.557
55.76000 763.025
55.80000 726.185
55.84000 647.009
55.88000 578.778
55.92000 496.214
55.96000 441.549
56.00000 389.533
56.04000 321.521
56.08000 274.676
56.12000 265.301
56.16000 239.441
56.20000 215.990
56.24000 195.542
56.28000 184.766
56.32000 176.782
56.36000 183.812
56.40000 168.744
56.44000 189.296
56.48000 169.479
56.52000 170.481
56.56000 164.997
56.60000 159.657
56.64000 163.921
56.68000 162.162
56.72000 162.960
56.76000 151.722
56.80000 156.494
56.84000 147.897
56.88000 151.582
56.92000 147.178
56.96000 157.649
57.00000 152.947
57.04000 144.513
57.08000 157.302
57.12000 145.180
57.16000 147.954
57.20000 147.174
57.24000 151.069
57.28000 151.463
57.32000 147.776
57.36000 156.789
57.40000 153.999
57.44000 142.440
57.48000 150.520
57.52000 146.907
57.56000 157.612
57.60000 140.036
57.64000 150.362
57.68000 150.358
57.72000 145.260
57.76000 144.010
57.80000 154.194
57.84000 151.465
57.88000 146.690
57.92000 150.463
57.96000 147.241
58.00000 142.955
58.04000 146.004
58.08000 140.115
58.12000 144.658
58.16000 143.416
58.20000 151.179
58.24000 144.723
58.28000 142.916
58.32000 140.403
58.36000 140.612
58.40000 143.932
58.44000 140.008
58.48000 141.018
58.52000 142.671
58.56000 135.976
58.60000 158.921
58.64000 139.969
58.68000 130.262
58.72000 134.448
58.76000 134.919
58.80000 148.159
58.84000 140.382
58.88000 139.625
58.92000 133.709
58.96000 135.085
59.00000 147.111
59.04000 139.977
59.08000 132.148
59.12000 136.677
59.16000 127.460
59.20000 139.197
59.24000 139.342
59.28000 140.684
59.32000 135.707
59.36000 137.280
59.40000 133.941
59.44000 139.237
59.48000 145.791
59.52000 136.072
59.56000 143.227
59.60000 142.595
59.64000 131.881
59.68000 133.656
59.72000 122.846
59.76000 141.213
59.80000 139.532
59.84000 135.880
59.88000 140.655
59.92000 145.052
59.96000 134.635
60.00000 132.342
60.04000 132.236
60.08000 137.065
60.12000 133.126
60.16000 139.883
60.20000 137.602
60.24000 137.925
60.28000 135.854
60.32000 137.157
60.36000 125.547
60.40000 130.451
60.44000 125.726
60.48000 126.392
60.52000 140.404
60.56000 134.516
60.60000 127.361
60.64000 137.377
60.68000 132.681
60.72000 134.579
60.76000 129.644
60.80000 140.032
60.84000 138.428
60.88000 130.420
60.92000 132.185
60.96000 135.237
61.00000 137.626
61.04000 138.198
61.08000 139.829
61.12000 135.433
61.16000 138.369
61.20000 145.839
61.24000 133.981
61.28000 139.677
61.32000 138.382
61.36000 136.481
61.40000 151.126
61.44000 145.470
61.48000 159.868
61.52000 200.673
61.56000 245.853
61.60000 301.431
61.64000 362.272
61.68000 386.286
61.72000 384.947
61.76000 361.902
61.80000 272.983
61.84000 215.996
61.88000 172.356
61.92000 155.867
61.96000 147.404
62.00000 157.588
62.04000 153.893
62.08000 144.760
62.12000 132.116
62.16000 154.939
62.20000 150.420
62.24000 140.744
62.28000 147.371
62.32000 146.156
62.36000 144.778
62.40000 146.751
62.44000 146.483
62.48000 147.216
62.52000 151.798
62.56000 145.516
62.60000 141.885
62.64000 140.593
62.68000 148.709
62.72000 146.294
62.76000 151.873
62.80000 145.863
62.84000 160.419
62.88000 145.002
62.92000 146.759
62.96000 149.299
63.00000 145.771
63.04000 158.852
63.08000 145.750
63.12000 158.804
63.16000 153.714
63.20000 145.681
63.24000 147.384
63.28000 145.324
63.32000 153.103
63.36000 148.683
63.40000 144.871
63.44000 145.449
63.48000 153.765
63.52000 155.463
63.56000 152.569
63.60000 144.949
63.64000 146.598
63.68000 156.698
63.72000 147.974
63.76000 160.300
63.80000 150.195
63.84000 166.531
63.88000 158.966
63.92000 154.330
63.96000 155.545
64.00000 152.889
64.04000 161.541
64.08000 163.486
64.12000 162.165
64.16000 168.400
64.20000 156.732
64.24000 168.736
64.28000 159.491
64.32000 169.171
64.36000 159.234
64.40000 168.082
64.44000 178.457
64.48000 168.700
64.52000 173.326
64.56000 188.976
64.60000 198.669
64.64000 185.380
64.68000 210.363
64.72000 208.258
64.76000 216.885
64.80000 222.739
64.84000 246.616
64.88000 270.208
64.92000 316.736
64.96000 333.134
65.00000 352.218
65.04000 402.985
65.08000 424.043
65.12000 451.560
65.16000 463.667
65.20000 485.645
65.24000 468.405
65.28000 489.111
65.32000 462.611
65.36000 443.611
65.40000 408.827
65.44000 399.762
65.48000 366.332
65.52000 376.633
65.56000 364.626
65.60000 371.913
65.64000 406.772
65.68000 507.047
65.72000 758.200
65.76000 1111.876
65.80000 1437.118
65.84000 1611.504
65.88000 1657.278
65.92000 1578.202
65.96000 1315.137
66.00000 904.973
66.04000 592.777
66.08000 438.441
66.12000 378.069
66.16000 332.259
66.20000 353.111
66.24000 376.617
66.28000 425.523
66.32000 519.895
66.36000 557.826
66.40000 567.550
66.44000 607.378
66.48000 583.182
66.52000 521.583
66.56000 447.113
66.60000 395.532
66.64000 377.192
66.68000 374.752
66.72000 360.441
66.76000 355.047
66.80000 374.443
66.84000 369.255
66.88000 370.214
66.92000 390.752
66.96000 381.425
67.00000 393.880
67.04000 396.320
67.08000 399.710
67.12000 414.299
67.16000 433.643
67.20000 403.951
67.24000 425.304
67.28000 420.866
67.32000 436.393
67.36000 448.624
67.40000 449.416
67.44000 471.043
67.48000 456.055
67.52000 469.598
67.56000 481.862
67.60000 475.418
67.64000 503.312
67.68000 506.827
67.72000 511.089
67.76000 544.174
67.80000 541.485
67.84000 547.587
67.88000 568.815
67.92000 560.701
67.96000 595.614
68.00000 598.426
68.04000 615.584
68.08000 624.532
68.12000 657.085
68.16000 647.700
68.20000 649.348
68.24000 682.586
68.28000 678.982
68.32000 736.217
68.36000 756.179
68.40000 794.269
68.44000 835.281
68.48000 884.846
68.52000 894.871
68.56000 1017.638
68.60000 1143.166
68.64000 1363.109
68.68000 1666.222
68.72000 1981.660
68.76000 2299.195
68.80000 2506.299
68.84000 2946.364
68.88000 3798.212
68.92000 6377.686
68.96000 18915.088
69.00000 43113.270
69.04000 69335.344
69.08000 82263.336
69.12000 85425.797
69.16000 88945.867
69.20000 87757.938
69.24000 73717.055
69.28000 56718.238
69.32000 45642.695
69.36000 41337.293
69.40000 33543.645
69.44000 21238.740
69.48000 9663.777
69.52000 3959.256
69.56000 2379.482
69.60000 1828.558
69.64000 1532.033
69.68000 1317.454
69.72000 1209.919
69.76000 1069.304
69.80000 1009.743
69.84000 925.018
69.88000 836.389
69.92000 807.914
69.96000 787.432
70.00000 735.003