File: XRD/XRD/24-09-2025 Dep 3/XY Data/BTO_Mapping_Theta2Theta_24-09-2025_001_36_-29-344_-6-237.xy
20.00000 590.219
20.04000 548.219
20.08000 548.028
20.12000 552.947
20.16000 569.681
20.20000 567.572
20.24000 572.680
20.28000 557.275
20.32000 565.616
20.36000 554.274
20.40000 552.560
20.44000 552.013
20.48000 538.743
20.52000 564.633
20.56000 546.758
20.60000 558.246
20.64000 581.090
20.68000 574.859
20.72000 569.718
20.76000 541.377
20.80000 549.102
20.84000 548.097
20.88000 555.518
20.92000 553.556
20.96000 574.951
21.00000 558.228
21.04000 563.122
21.08000 555.764
21.12000 572.961
21.16000 574.512
21.20000 548.402
21.24000 568.733
21.28000 559.350
21.32000 547.626
21.36000 564.744
21.40000 565.834
21.44000 557.588
21.48000 533.916
21.52000 540.020
21.56000 555.453
21.60000 570.431
21.64000 571.307
21.68000 593.098
21.72000 637.678
21.76000 664.979
21.80000 720.640
21.84000 792.714
21.88000 842.736
21.92000 937.060
21.96000 1009.586
22.00000 1034.979
22.04000 1015.194
22.08000 950.856
22.12000 870.018
22.16000 807.473
22.20000 723.046
22.24000 672.786
22.28000 633.569
22.32000 608.088
22.36000 604.392
22.40000 555.443
22.44000 541.874
22.48000 543.722
22.52000 551.548
22.56000 533.204
22.60000 543.471
22.64000 534.097
22.68000 523.905
22.72000 535.256
22.76000 527.654
22.80000 531.605
22.84000 516.618
22.88000 515.766
22.92000 523.015
22.96000 512.416
23.00000 513.284
23.04000 511.510
23.08000 520.823
23.12000 506.432
23.16000 516.422
23.20000 507.153
23.24000 491.560
23.28000 500.204
23.32000 526.645
23.36000 513.588
23.40000 511.801
23.44000 492.897
23.48000 516.917
23.52000 519.589
23.56000 500.865
23.60000 493.999
23.64000 501.900
23.68000 498.474
23.72000 515.813
23.76000 492.548
23.80000 500.079
23.84000 492.899
23.88000 493.814
23.92000 494.922
23.96000 513.657
24.00000 505.172
24.04000 507.166
24.08000 507.697
24.12000 501.245
24.16000 485.873
24.20000 483.565
24.24000 489.889
24.28000 490.129
24.32000 501.210
24.36000 489.883
24.40000 480.522
24.44000 493.310
24.48000 502.301
24.52000 491.155
24.56000 507.049
24.60000 487.662
24.64000 482.783
24.68000 489.209
24.72000 481.436
24.76000 499.984
24.80000 488.594
24.84000 478.345
24.88000 478.702
24.92000 463.522
24.96000 475.897
25.00000 491.490
25.04000 478.035
25.08000 489.522
25.12000 483.857
25.16000 462.945
25.20000 479.290
25.24000 491.101
25.28000 453.670
25.32000 494.108
25.36000 452.165
25.40000 462.757
25.44000 490.984
25.48000 467.275
25.52000 447.871
25.56000 472.543
25.60000 464.466
25.64000 480.704
25.68000 455.127
25.72000 479.529
25.76000 483.914
25.80000 464.660
25.84000 455.545
25.88000 477.022
25.92000 465.455
25.96000 469.910
26.00000 470.545
26.04000 446.745
26.08000 465.245
26.12000 462.239
26.16000 466.210
26.20000 480.027
26.24000 454.848
26.28000 477.315
26.32000 464.826
26.36000 453.250
26.40000 468.056
26.44000 470.242
26.48000 462.757
26.52000 470.462
26.56000 453.983
26.60000 453.350
26.64000 460.266
26.68000 469.742
26.72000 450.495
26.76000 457.969
26.80000 462.661
26.84000 463.559
26.88000 457.315
26.92000 452.415
26.96000 467.364
27.00000 445.158
27.04000 458.709
27.08000 458.064
27.12000 452.598
27.16000 444.785
27.20000 455.257
27.24000 445.313
27.28000 440.331
27.32000 435.111
27.36000 437.501
27.40000 439.621
27.44000 444.773
27.48000 449.338
27.52000 449.090
27.56000 442.639
27.60000 433.138
27.64000 447.026
27.68000 451.827
27.72000 446.132
27.76000 432.791
27.80000 450.956
27.84000 433.582
27.88000 431.480
27.92000 433.291
27.96000 429.142
28.00000 444.319
28.04000 426.824
28.08000 423.527
28.12000 438.802
28.16000 428.231
28.20000 459.613
28.24000 439.906
28.28000 448.452
28.32000 444.010
28.36000 450.669
28.40000 428.658
28.44000 428.912
28.48000 438.487
28.52000 428.852
28.56000 428.899
28.60000 408.293
28.64000 425.676
28.68000 424.293
28.72000 428.931
28.76000 431.403
28.80000 420.165
28.84000 424.233
28.88000 412.184
28.92000 424.383
28.96000 430.000
29.00000 422.276
29.04000 420.638
29.08000 388.873
29.12000 399.910
29.16000 407.456
29.20000 414.587
29.24000 424.510
29.28000 405.118
29.32000 423.966
29.36000 426.597
29.40000 422.528
29.44000 428.682
29.48000 420.046
29.52000 432.293
29.56000 428.311
29.60000 409.232
29.64000 438.223
29.68000 416.316
29.72000 406.382
29.76000 431.048
29.80000 453.022
29.84000 435.060
29.88000 460.842
29.92000 481.136
29.96000 480.770
30.00000 470.549
30.04000 477.804
30.08000 464.763
30.12000 450.495
30.16000 457.563
30.20000 453.413
30.24000 449.535
30.28000 449.424
30.32000 432.029
30.36000 440.196
30.40000 439.309
30.44000 424.859
30.48000 454.037
30.52000 456.807
30.56000 464.194
30.60000 456.216
30.64000 452.062
30.68000 449.194
30.72000 454.147
30.76000 464.610
30.80000 473.056
30.84000 503.559
30.88000 518.015
30.92000 553.655
30.96000 633.376
31.00000 746.258
31.04000 899.444
31.08000 1136.634
31.12000 1491.175
31.16000 1977.359
31.20000 2525.124
31.24000 3087.521
31.28000 3622.036
31.32000 3929.690
31.36000 3944.093
31.40000 3677.520
31.44000 3279.896
31.48000 2778.460
31.52000 2151.351
31.56000 1617.473
31.60000 1234.572
31.64000 979.492
31.68000 788.871
31.72000 684.573
31.76000 577.229
31.80000 549.911
31.84000 518.405
31.88000 484.645
31.92000 456.895
31.96000 449.295
32.00000 425.337
32.04000 425.368
32.08000 420.380
32.12000 423.315
32.16000 409.015
32.20000 422.949
32.24000 396.640
32.28000 396.817
32.32000 397.107
32.36000 408.536
32.40000 383.387
32.44000 393.857
32.48000 401.322
32.52000 395.370
32.56000 391.351
32.60000 384.655
32.64000 388.401
32.68000 382.701
32.72000 395.965
32.76000 408.520
32.80000 448.825
32.84000 510.836
32.88000 581.855
32.92000 613.768
32.96000 644.135
33.00000 614.131
33.04000 554.465
33.08000 471.824
33.12000 433.812
33.16000 391.857
33.20000 375.728
33.24000 381.214
33.28000 376.012
33.32000 361.336
33.36000 351.114
33.40000 359.791
33.44000 367.122
33.48000 356.430
33.52000 351.696
33.56000 345.379
33.60000 341.996
33.64000 357.772
33.68000 354.157
33.72000 341.708
33.76000 331.775
33.80000 343.123
33.84000 321.365
33.88000 348.337
33.92000 345.871
33.96000 342.421
34.00000 338.675
34.04000 330.096
34.08000 339.322
34.12000 338.770
34.16000 339.072
34.20000 337.853
34.24000 336.662
34.28000 339.306
34.32000 345.377
34.36000 328.025
34.40000 337.693
34.44000 340.645
34.48000 339.806
34.52000 332.977
34.56000 338.777
34.60000 324.862
34.64000 337.320
34.68000 330.760
34.72000 349.190
34.76000 335.297
34.80000 337.841
34.84000 309.480
34.88000 340.282
34.92000 326.997
34.96000 315.943
35.00000 322.698
35.04000 302.096
35.08000 332.936
35.12000 329.169
35.16000 316.024
35.20000 322.057
35.24000 323.029
35.28000 324.924
35.32000 307.480
35.36000 313.820
35.40000 308.687
35.44000 317.939
35.48000 311.023
35.52000 310.132
35.56000 316.654
35.60000 300.147
35.64000 318.525
35.68000 314.257
35.72000 300.967
35.76000 314.817
35.80000 318.981
35.84000 312.698
35.88000 313.330
35.92000 318.113
35.96000 304.712
36.00000 324.913
36.04000 312.889
36.08000 310.292
36.12000 313.098
36.16000 320.864
36.20000 309.884
36.24000 301.337
36.28000 297.921
36.32000 309.332
36.36000 305.790
36.40000 315.038
36.44000 283.152
36.48000 304.382
36.52000 305.120
36.56000 303.023
36.60000 293.665
36.64000 303.465
36.68000 310.399
36.72000 295.931
36.76000 304.546
36.80000 294.249
36.84000 296.206
36.88000 314.897
36.92000 302.428
36.96000 320.497
37.00000 324.305
37.04000 302.269
37.08000 300.726
37.12000 302.411
37.16000 311.001
37.20000 301.877
37.24000 281.604
37.28000 286.376
37.32000 290.028
37.36000 313.471
37.40000 306.002
37.44000 295.854
37.48000 298.697
37.52000 308.290
37.56000 310.800
37.60000 294.679
37.64000 281.352
37.68000 292.629
37.72000 312.060
37.76000 288.983
37.80000 300.431
37.84000 307.697
37.88000 302.875
37.92000 301.225
37.96000 299.360
38.00000 303.701
38.04000 294.012
38.08000 313.362
38.12000 308.789
38.16000 322.097
38.20000 307.116
38.24000 320.980
38.28000 341.285
38.32000 360.710
38.36000 396.041
38.40000 445.236
38.44000 532.069
38.48000 621.821
38.52000 721.878
38.56000 818.165
38.60000 885.785
38.64000 903.573
38.68000 893.644
38.72000 849.635
38.76000 758.336
38.80000 673.170
38.84000 595.202
38.88000 492.907
38.92000 423.994
38.96000 365.951
39.00000 339.569
39.04000 322.670
39.08000 296.249
39.12000 293.706
39.16000 283.926
39.20000 291.076
39.24000 293.037
39.28000 297.758
39.32000 265.324
39.36000 281.188
39.40000 267.829
39.44000 290.464
39.48000 267.576
39.52000 285.537
39.56000 274.561
39.60000 261.991
39.64000 273.242
39.68000 269.077
39.72000 282.133
39.76000 271.394
39.80000 266.329
39.84000 281.516
39.88000 273.291
39.92000 248.602
39.96000 269.871
40.00000 269.242
40.04000 244.036
40.08000 251.170
40.12000 267.061
40.16000 263.191
40.20000 262.548
40.24000 253.418
40.28000 254.596
40.32000 275.944
40.36000 266.046
40.40000 254.101
40.44000 256.973
40.48000 273.707
40.52000 246.378
40.56000 239.723
40.60000 247.416
40.64000 254.182
40.68000 244.633
40.72000 240.220
40.76000 247.507
40.80000 242.431
40.84000 253.333
40.88000 241.954
40.92000 246.755
40.96000 253.560
41.00000 254.843
41.04000 248.428
41.08000 249.205
41.12000 235.261
41.16000 239.773
41.20000 250.695
41.24000 260.093
41.28000 248.656
41.32000 250.133
41.36000 240.625
41.40000 244.491
41.44000 246.347
41.48000 242.864
41.52000 239.796
41.56000 241.440
41.60000 246.326
41.64000 246.560
41.68000 240.650
41.72000 241.653
41.76000 239.594
41.80000 238.583
41.84000 242.004
41.88000 243.424
41.92000 238.192
41.96000 229.603
42.00000 242.436
42.04000 240.314
42.08000 246.899
42.12000 247.704
42.16000 245.009
42.20000 237.667
42.24000 231.470
42.28000 241.873
42.32000 225.666
42.36000 243.916
42.40000 235.334
42.44000 232.558
42.48000 239.969
42.52000 236.604
42.56000 230.420
42.60000 249.829
42.64000 238.170
42.68000 234.474
42.72000 239.294
42.76000 235.936
42.80000 238.546
42.84000 240.323
42.88000 245.940
42.92000 237.716
42.96000 231.223
43.00000 228.882
43.04000 226.247
43.08000 224.311
43.12000 241.116
43.16000 234.785
43.20000 237.391
43.24000 234.820
43.28000 221.017
43.32000 225.340
43.36000 226.109
43.40000 235.179
43.44000 222.273
43.48000 226.768
43.52000 218.617
43.56000 235.122
43.60000 227.308
43.64000 215.095
43.68000 219.370
43.72000 231.621
43.76000 229.349
43.80000 232.259
43.84000 241.466
43.88000 232.195
43.92000 238.038
43.96000 236.414
44.00000 224.632
44.04000 230.578
44.08000 234.453
44.12000 234.852
44.16000 237.069
44.20000 220.267
44.24000 232.328
44.28000 248.613
44.32000 244.113
44.36000 239.853
44.40000 234.830
44.44000 251.976
44.48000 272.133
44.52000 279.516
44.56000 292.204
44.60000 305.346
44.64000 338.951
44.68000 338.818
44.72000 395.823
44.76000 463.593
44.80000 522.410
44.84000 585.762
44.88000 615.263
44.92000 641.010
44.96000 659.086
45.00000 635.506
45.04000 615.939
45.08000 582.054
45.12000 532.986
45.16000 465.185
45.20000 403.795
45.24000 376.891
45.28000 345.110
45.32000 332.632
45.36000 315.547
45.40000 294.886
45.44000 289.795
45.48000 276.674
45.52000 274.847
45.56000 254.760
45.60000 268.002
45.64000 244.207
45.68000 237.607
45.72000 243.441
45.76000 230.896
45.80000 240.243
45.84000 211.681
45.88000 228.935
45.92000 219.187
45.96000 225.683
46.00000 220.704
46.04000 222.484
46.08000 209.903
46.12000 205.014
46.16000 201.148
46.20000 215.058
46.24000 203.665
46.28000 204.253
46.32000 200.119
46.36000 204.206
46.40000 212.984
46.44000 209.048
46.48000 214.477
46.52000 200.624
46.56000 189.045
46.60000 216.281
46.64000 206.349
46.68000 205.785
46.72000 210.592
46.76000 195.862
46.80000 199.765
46.84000 204.164
46.88000 190.076
46.92000 201.185
46.96000 194.948
47.00000 196.704
47.04000 198.036
47.08000 195.186
47.12000 180.705
47.16000 199.513
47.20000 201.556
47.24000 210.149
47.28000 195.306
47.32000 199.155
47.36000 188.650
47.40000 184.092
47.44000 191.939
47.48000 201.229
47.52000 194.466
47.56000 196.716
47.60000 195.262
47.64000 180.797
47.68000 197.651
47.72000 183.162
47.76000 193.697
47.80000 188.765
47.84000 189.789
47.88000 184.878
47.92000 181.278
47.96000 186.390
48.00000 203.805
48.04000 187.160
48.08000 191.949
48.12000 191.640
48.16000 191.675
48.20000 189.770
48.24000 191.612
48.28000 190.080
48.32000 189.010
48.36000 192.897
48.40000 200.777
48.44000 190.898
48.48000 188.087
48.52000 174.971
48.56000 177.727
48.60000 179.168
48.64000 178.492
48.68000 179.255
48.72000 180.525
48.76000 196.789
48.80000 184.292
48.84000 186.561
48.88000 184.712
48.92000 184.463
48.96000 181.720
49.00000 185.691
49.04000 170.066
49.08000 175.276
49.12000 185.150
49.16000 174.926
49.20000 182.386
49.24000 189.583
49.28000 175.730
49.32000 173.493
49.36000 185.028
49.40000 187.769
49.44000 178.143
49.48000 176.814
49.52000 188.622
49.56000 180.684
49.60000 172.196
49.64000 183.887
49.68000 182.815
49.72000 187.251
49.76000 167.416
49.80000 181.741
49.84000 171.414
49.88000 178.194
49.92000 179.001
49.96000 188.710
50.00000 182.712
50.04000 192.153
50.08000 185.655
50.12000 186.915
50.16000 187.189
50.20000 181.086
50.24000 178.813
50.28000 209.297
50.32000 208.083
50.36000 224.684
50.40000 242.163
50.44000 246.608
50.48000 263.638
50.52000 280.121
50.56000 274.625
50.60000 279.892
50.64000 303.001
50.68000 287.809
50.72000 279.864
50.76000 277.770
50.80000 256.684
50.84000 238.762
50.88000 230.066
50.92000 210.712
50.96000 213.321
51.00000 207.444
51.04000 204.102
51.08000 200.370
51.12000 199.819
51.16000 188.435
51.20000 176.283
51.24000 180.209
51.28000 188.643
51.32000 174.526
51.36000 175.081
51.40000 177.503
51.44000 169.255
51.48000 172.043
51.52000 179.346
51.56000 164.344
51.60000 168.246
51.64000 170.546
51.68000 168.449
51.72000 161.941
51.76000 162.021
51.80000 167.619
51.84000 175.388
51.88000 161.664
51.92000 163.612
51.96000 168.799
52.00000 148.958
52.04000 166.931
52.08000 179.271
52.12000 169.584
52.16000 159.637
52.20000 162.380
52.24000 171.087
52.28000 158.013
52.32000 159.102
52.36000 158.538
52.40000 167.982
52.44000 156.600
52.48000 158.845
52.52000 152.707
52.56000 156.534
52.60000 162.280
52.64000 161.830
52.68000 161.619
52.72000 168.110
52.76000 170.491
52.80000 157.373
52.84000 157.098
52.88000 159.543
52.92000 161.707
52.96000 160.247
53.00000 159.102
53.04000 154.806
53.08000 156.850
53.12000 165.983
53.16000 169.026
53.20000 185.031
53.24000 169.072
53.28000 165.299
53.32000 172.450
53.36000 166.971
53.40000 163.338
53.44000 166.562
53.48000 155.534
53.52000 162.235
53.56000 168.100
53.60000 163.704
53.64000 163.631
53.68000 170.758
53.72000 163.594
53.76000 168.081
53.80000 154.740
53.84000 153.329
53.88000 163.488
53.92000 154.672
53.96000 156.305
54.00000 161.017
54.04000 156.433
54.08000 168.944
54.12000 154.399
54.16000 152.835
54.20000 163.236
54.24000 154.388
54.28000 154.167
54.32000 160.014
54.36000 148.161
54.40000 161.223
54.44000 160.433
54.48000 152.428
54.52000 168.365
54.56000 157.326
54.60000 160.247
54.64000 156.736
54.68000 157.026
54.72000 166.072
54.76000 160.722
54.80000 159.279
54.84000 163.955
54.88000 165.814
54.92000 167.643
54.96000 166.264
55.00000 158.419
55.04000 172.436
55.08000 174.724
55.12000 162.641
55.16000 179.545
55.20000 177.808
55.24000 179.123
55.28000 187.949
55.32000 189.280
55.36000 206.103
55.40000 220.325
55.44000 255.270
55.48000 273.505
55.52000 312.294
55.56000 360.938
55.60000 425.721
55.64000 490.739
55.68000 599.090
55.72000 678.575
55.76000 774.316
55.80000 853.973
55.84000 880.415
55.88000 869.966
55.92000 888.246
55.96000 803.948
56.00000 716.988
56.04000 638.904
56.08000 553.377
56.12000 473.429
56.16000 391.578
56.20000 336.593
56.24000 301.395
56.28000 278.359
56.32000 243.772
56.36000 208.502
56.40000 206.902
56.44000 199.617
56.48000 184.477
56.52000 179.527
56.56000 165.158
56.60000 169.017
56.64000 174.281
56.68000 163.324
56.72000 168.997
56.76000 162.298
56.80000 150.173
56.84000 160.950
56.88000 153.378
56.92000 157.589
56.96000 146.958
57.00000 152.534
57.04000 148.974
57.08000 154.509
57.12000 146.831
57.16000 149.150
57.20000 151.448
57.24000 145.751
57.28000 150.259
57.32000 153.210
57.36000 149.801
57.40000 147.161
57.44000 149.991
57.48000 144.695
57.52000 146.303
57.56000 147.508
57.60000 139.791
57.64000 138.851
57.68000 141.644
57.72000 143.232
57.76000 141.804
57.80000 144.268
57.84000 140.190
57.88000 150.659
57.92000 141.404
57.96000 150.172
58.00000 148.597
58.04000 145.002
58.08000 145.690
58.12000 148.792
58.16000 147.613
58.20000 133.958
58.24000 137.402
58.28000 147.818
58.32000 135.181
58.36000 137.922
58.40000 143.443
58.44000 144.155
58.48000 142.468
58.52000 137.591
58.56000 136.388
58.60000 142.910
58.64000 136.994
58.68000 139.521
58.72000 140.111
58.76000 135.954
58.80000 144.693
58.84000 145.266
58.88000 143.658
58.92000 141.461
58.96000 141.822
59.00000 142.085
59.04000 141.254
59.08000 140.070
59.12000 141.947
59.16000 139.613
59.20000 136.544
59.24000 135.979
59.28000 137.232
59.32000 144.685
59.36000 128.829
59.40000 126.914
59.44000 119.629
59.48000 140.020
59.52000 148.188
59.56000 139.910
59.60000 134.064
59.64000 141.793
59.68000 139.592
59.72000 136.417
59.76000 129.000
59.80000 133.750
59.84000 117.071
59.88000 132.877
59.92000 136.141
59.96000 148.015
60.00000 134.420
60.04000 135.714
60.08000 136.346
60.12000 144.327
60.16000 136.368
60.20000 133.639
60.24000 132.454
60.28000 136.718
60.32000 133.061
60.36000 125.623
60.40000 128.418
60.44000 125.201
60.48000 136.410
60.52000 131.767
60.56000 135.687
60.60000 122.683
60.64000 139.920
60.68000 140.000
60.72000 135.961
60.76000 140.998
60.80000 136.546
60.84000 130.112
60.88000 133.639
60.92000 136.274
60.96000 149.777
61.00000 131.558
61.04000 127.862
61.08000 126.864
61.12000 132.397
61.16000 142.950
61.20000 137.418
61.24000 135.693
61.28000 139.495
61.32000 145.855
61.36000 142.215
61.40000 138.347
61.44000 149.630
61.48000 147.647
61.52000 191.312
61.56000 247.887
61.60000 323.614
61.64000 367.622
61.68000 394.375
61.72000 369.238
61.76000 340.479
61.80000 264.490
61.84000 213.247
61.88000 173.104
61.92000 152.082
61.96000 152.605
62.00000 162.844
62.04000 150.554
62.08000 166.182
62.12000 134.759
62.16000 146.654
62.20000 151.627
62.24000 143.624
62.28000 136.376
62.32000 139.610
62.36000 139.966
62.40000 152.476
62.44000 140.928
62.48000 147.578
62.52000 137.931
62.56000 144.408
62.60000 135.173
62.64000 149.669
62.68000 145.248
62.72000 146.398
62.76000 147.046
62.80000 151.862
62.84000 138.601
62.88000 139.491
62.92000 148.887
62.96000 154.549
63.00000 143.735
63.04000 148.260
63.08000 152.499
63.12000 155.601
63.16000 143.485
63.20000 151.921
63.24000 155.354
63.28000 148.274
63.32000 157.380
63.36000 158.763
63.40000 145.283
63.44000 138.287
63.48000 153.821
63.52000 150.818
63.56000 154.795
63.60000 156.897
63.64000 150.957
63.68000 151.803
63.72000 156.503
63.76000 147.497
63.80000 148.884
63.84000 146.511
63.88000 152.606
63.92000 144.615
63.96000 160.588
64.00000 157.781
64.04000 161.094
64.08000 172.086
64.12000 163.105
64.16000 157.992
64.20000 166.852
64.24000 167.309
64.28000 167.337
64.32000 166.611
64.36000 180.829
64.40000 155.722
64.44000 170.087
64.48000 169.144
64.52000 172.456
64.56000 178.102
64.60000 171.352
64.64000 174.990
64.68000 178.086
64.72000 185.454
64.76000 177.040
64.80000 187.201
64.84000 200.603
64.88000 193.698
64.92000 203.911
64.96000 211.724
65.00000 207.215
65.04000 219.921
65.08000 244.241
65.12000 266.958
65.16000 270.502
65.20000 296.622
65.24000 314.045
65.28000 351.923
65.32000 374.968
65.36000 388.579
65.40000 415.412
65.44000 432.145
65.48000 439.762
65.52000 431.641
65.56000 457.401
65.60000 494.041
65.64000 530.465
65.68000 644.744
65.72000 848.392
65.76000 1243.575
65.80000 1510.025
65.84000 1693.724
65.88000 1710.388
65.92000 1632.228
65.96000 1342.572
66.00000 915.625
66.04000 625.798
66.08000 462.361
66.12000 401.464
66.16000 358.947
66.20000 344.829
66.24000 383.548
66.28000 445.413
66.32000 500.860
66.36000 563.862
66.40000 593.297
66.44000 598.349
66.48000 574.779
66.52000 507.581
66.56000 440.961
66.60000 400.597
66.64000 391.091
66.68000 361.522
66.72000 356.517
66.76000 379.028
66.80000 364.217
66.84000 371.441
66.88000 377.531
66.92000 365.754
66.96000 387.180
67.00000 392.446
67.04000 407.319
67.08000 405.851
67.12000 435.216
67.16000 421.862
67.20000 434.032
67.24000 438.058
67.28000 443.663
67.32000 451.389
67.36000 453.797
67.40000 469.514
67.44000 463.596
67.48000 482.138
67.52000 494.025
67.56000 508.999
67.60000 518.622
67.64000 528.589
67.68000 533.366
67.72000 542.348
67.76000 542.872
67.80000 559.062
67.84000 572.117
67.88000 588.457
67.92000 587.359
67.96000 606.357
68.00000 617.676
68.04000 625.968
68.08000 657.558
68.12000 665.736
68.16000 660.435
68.20000 701.118
68.24000 691.515
68.28000 728.321
68.32000 771.337
68.36000 798.279
68.40000 834.595
68.44000 869.781
68.48000 943.849
68.52000 977.756
68.56000 1066.411
68.60000 1253.406
68.64000 1488.342
68.68000 1757.960
68.72000 2111.791
68.76000 2462.153
68.80000 2821.675
68.84000 3468.819
68.88000 5099.521
68.92000 9026.950
68.96000 23431.162
69.00000 48350.754
69.04000 73580.766
69.08000 86930.859
69.12000 91198.773
69.16000 94162.031
69.20000 91907.648
69.24000 77170.367
69.28000 60698.754
69.32000 49464.352
69.36000 43424.016
69.40000 34685.898
69.44000 22232.541
69.48000 10695.946
69.52000 4801.959
69.56000 2725.167
69.60000 1976.301
69.64000 1591.464
69.68000 1385.605
69.72000 1247.014
69.76000 1113.288
69.80000 1041.245
69.84000 967.716
69.88000 918.837
69.92000 835.389
69.96000 852.761
70.00000 802.458