File: XRD/XRD/24-09-2025 Dep 3/XY Data/BTO_Mapping_Theta2Theta_24-09-2025_001_59_18-271_-8-135.xy
20.00000 577.435
20.04000 567.214
20.08000 566.317
20.12000 582.153
20.16000 559.837
20.20000 561.707
20.24000 565.057
20.28000 561.967
20.32000 560.168
20.36000 565.465
20.40000 555.724
20.44000 567.211
20.48000 546.012
20.52000 554.498
20.56000 564.009
20.60000 575.162
20.64000 543.699
20.68000 542.469
20.72000 541.300
20.76000 567.867
20.80000 562.376
20.84000 559.983
20.88000 560.352
20.92000 555.873
20.96000 550.967
21.00000 537.543
21.04000 530.238
21.08000 545.520
21.12000 548.081
21.16000 545.225
21.20000 546.761
21.24000 526.014
21.28000 559.906
21.32000 553.885
21.36000 537.783
21.40000 544.218
21.44000 554.297
21.48000 545.305
21.52000 536.276
21.56000 541.508
21.60000 552.144
21.64000 560.893
21.68000 525.835
21.72000 552.703
21.76000 540.188
21.80000 547.333
21.84000 566.678
21.88000 564.816
21.92000 589.699
21.96000 599.384
22.00000 595.692
22.04000 585.633
22.08000 615.685
22.12000 617.617
22.16000 618.932
22.20000 614.212
22.24000 579.131
22.28000 565.151
22.32000 574.671
22.36000 566.856
22.40000 547.187
22.44000 543.277
22.48000 541.503
22.52000 526.414
22.56000 544.602
22.60000 540.653
22.64000 526.668
22.68000 519.474
22.72000 521.476
22.76000 533.270
22.80000 504.772
22.84000 511.812
22.88000 503.141
22.92000 500.034
22.96000 525.416
23.00000 517.292
23.04000 509.186
23.08000 495.536
23.12000 510.451
23.16000 509.692
23.20000 473.969
23.24000 518.012
23.28000 496.535
23.32000 499.092
23.36000 513.127
23.40000 517.698
23.44000 510.781
23.48000 507.916
23.52000 512.258
23.56000 503.064
23.60000 522.463
23.64000 504.151
23.68000 492.239
23.72000 500.887
23.76000 489.922
23.80000 512.621
23.84000 500.474
23.88000 494.071
23.92000 487.322
23.96000 509.751
24.00000 500.069
24.04000 462.367
24.08000 483.147
24.12000 483.952
24.16000 503.274
24.20000 501.137
24.24000 495.917
24.28000 499.445
24.32000 485.964
24.36000 477.689
24.40000 482.927
24.44000 481.346
24.48000 500.767
24.52000 487.833
24.56000 471.982
24.60000 485.126
24.64000 505.406
24.68000 481.747
24.72000 474.975
24.76000 471.373
24.80000 474.350
24.84000 484.156
24.88000 485.281
24.92000 476.840
24.96000 489.866
25.00000 481.240
25.04000 474.829
25.08000 462.716
25.12000 472.174
25.16000 484.702
25.20000 481.366
25.24000 487.222
25.28000 477.668
25.32000 486.963
25.36000 452.441
25.40000 461.126
25.44000 463.678
25.48000 458.401
25.52000 462.957
25.56000 441.856
25.60000 454.472
25.64000 453.582
25.68000 474.650
25.72000 461.867
25.76000 461.337
25.80000 468.038
25.84000 465.209
25.88000 454.425
25.92000 449.016
25.96000 465.484
26.00000 465.437
26.04000 450.780
26.08000 455.145
26.12000 444.249
26.16000 444.538
26.20000 452.515
26.24000 448.616
26.28000 458.551
26.32000 462.554
26.36000 467.013
26.40000 453.727
26.44000 457.257
26.48000 453.656
26.52000 462.663
26.56000 462.960
26.60000 453.135
26.64000 439.015
26.68000 427.965
26.72000 444.579
26.76000 460.778
26.80000 450.433
26.84000 432.433
26.88000 446.037
26.92000 453.267
26.96000 444.511
27.00000 438.161
27.04000 444.947
27.08000 440.855
27.12000 429.715
27.16000 448.997
27.20000 431.607
27.24000 446.056
27.28000 464.948
27.32000 424.086
27.36000 436.384
27.40000 440.661
27.44000 431.818
27.48000 431.456
27.52000 435.341
27.56000 437.007
27.60000 435.630
27.64000 447.711
27.68000 424.014
27.72000 424.026
27.76000 402.743
27.80000 418.980
27.84000 424.954
27.88000 440.278
27.92000 436.361
27.96000 421.719
28.00000 419.262
28.04000 433.590
28.08000 450.026
28.12000 420.151
28.16000 430.812
28.20000 433.927
28.24000 411.236
28.28000 422.738
28.32000 436.722
28.36000 447.949
28.40000 436.266
28.44000 426.887
28.48000 428.940
28.52000 407.574
28.56000 412.397
28.60000 418.496
28.64000 423.365
28.68000 417.671
28.72000 403.303
28.76000 408.213
28.80000 429.344
28.84000 422.976
28.88000 444.952
28.92000 410.163
28.96000 407.660
29.00000 419.018
29.04000 424.638
29.08000 415.796
29.12000 415.054
29.16000 405.309
29.20000 434.407
29.24000 416.363
29.28000 418.055
29.32000 419.920
29.36000 412.749
29.40000 408.199
29.44000 413.825
29.48000 420.774
29.52000 387.068
29.56000 408.776
29.60000 412.206
29.64000 395.958
29.68000 400.836
29.72000 418.777
29.76000 408.183
29.80000 415.455
29.84000 408.721
29.88000 416.747
29.92000 410.363
29.96000 417.253
30.00000 436.484
30.04000 444.385
30.08000 412.992
30.12000 409.069
30.16000 422.162
30.20000 413.184
30.24000 404.945
30.28000 416.244
30.32000 407.841
30.36000 412.569
30.40000 411.670
30.44000 428.810
30.48000 423.082
30.52000 414.194
30.56000 420.989
30.60000 412.846
30.64000 411.187
30.68000 420.055
30.72000 432.310
30.76000 430.621
30.80000 433.476
30.84000 446.907
30.88000 438.486
30.92000 453.151
30.96000 491.893
31.00000 494.327
31.04000 516.971
31.08000 556.174
31.12000 630.200
31.16000 759.337
31.20000 899.488
31.24000 1054.688
31.28000 1240.070
31.32000 1397.665
31.36000 1514.552
31.40000 1557.843
31.44000 1497.768
31.48000 1416.623
31.52000 1298.104
31.56000 1152.826
31.60000 950.374
31.64000 797.662
31.68000 696.657
31.72000 599.891
31.76000 546.189
31.80000 484.704
31.84000 469.859
31.88000 434.891
31.92000 445.217
31.96000 422.517
32.00000 422.374
32.04000 421.020
32.08000 396.735
32.12000 399.010
32.16000 393.131
32.20000 401.414
32.24000 392.514
32.28000 381.250
32.32000 378.165
32.36000 387.969
32.40000 384.366
32.44000 386.845
32.48000 397.359
32.52000 399.589
32.56000 389.539
32.60000 379.367
32.64000 364.459
32.68000 385.874
32.72000 369.022
32.76000 366.403
32.80000 378.095
32.84000 420.097
32.88000 436.398
32.92000 433.787
32.96000 421.219
33.00000 447.513
33.04000 418.572
33.08000 371.993
33.12000 369.375
33.16000 352.443
33.20000 339.801
33.24000 343.321
33.28000 343.165
33.32000 337.447
33.36000 323.913
33.40000 345.456
33.44000 341.006
33.48000 341.887
33.52000 318.291
33.56000 323.098
33.60000 331.902
33.64000 337.063
33.68000 348.305
33.72000 331.869
33.76000 340.437
33.80000 340.220
33.84000 327.089
33.88000 322.666
33.92000 326.742
33.96000 345.289
34.00000 343.124
34.04000 334.408
34.08000 322.225
34.12000 315.927
34.16000 325.811
34.20000 321.657
34.24000 332.185
34.28000 323.567
34.32000 327.318
34.36000 335.046
34.40000 317.440
34.44000 320.875
34.48000 319.375
34.52000 330.816
34.56000 314.622
34.60000 328.936
34.64000 321.164
34.68000 330.940
34.72000 324.583
34.76000 339.175
34.80000 310.675
34.84000 321.527
34.88000 318.230
34.92000 314.171
34.96000 308.878
35.00000 327.932
35.04000 317.480
35.08000 319.664
35.12000 314.904
35.16000 309.938
35.20000 310.261
35.24000 317.433
35.28000 290.868
35.32000 312.883
35.36000 318.777
35.40000 308.664
35.44000 315.250
35.48000 293.061
35.52000 305.211
35.56000 317.777
35.60000 306.361
35.64000 313.084
35.68000 295.851
35.72000 293.805
35.76000 303.647
35.80000 286.143
35.84000 318.138
35.88000 316.716
35.92000 313.714
35.96000 315.921
36.00000 300.361
36.04000 305.783
36.08000 311.857
36.12000 295.846
36.16000 292.752
36.20000 287.685
36.24000 314.431
36.28000 311.587
36.32000 311.350
36.36000 293.720
36.40000 295.410
36.44000 305.281
36.48000 312.683
36.52000 291.098
36.56000 309.510
36.60000 303.275
36.64000 304.795
36.68000 297.368
36.72000 308.128
36.76000 300.655
36.80000 291.459
36.84000 311.754
36.88000 321.093
36.92000 314.688
36.96000 310.537
37.00000 313.938
37.04000 317.815
37.08000 312.069
37.12000 310.799
37.16000 312.444
37.20000 303.990
37.24000 304.370
37.28000 304.241
37.32000 295.148
37.36000 308.968
37.40000 301.504
37.44000 305.206
37.48000 305.960
37.52000 308.399
37.56000 300.718
37.60000 300.303
37.64000 312.199
37.68000 299.968
37.72000 301.376
37.76000 305.792
37.80000 295.225
37.84000 300.526
37.88000 306.298
37.92000 298.043
37.96000 291.037
38.00000 305.059
38.04000 307.635
38.08000 311.800
38.12000 297.138
38.16000 301.853
38.20000 306.072
38.24000 308.173
38.28000 323.389
38.32000 317.810
38.36000 338.697
38.40000 374.223
38.44000 413.881
38.48000 501.695
38.52000 611.925
38.56000 808.177
38.60000 979.355
38.64000 1174.489
38.68000 1410.595
38.72000 1508.351
38.76000 1575.192
38.80000 1474.738
38.84000 1324.680
38.88000 1096.546
38.92000 868.094
38.96000 678.441
39.00000 522.827
39.04000 433.211
39.08000 385.930
39.12000 336.494
39.16000 315.807
39.20000 298.104
39.24000 296.637
39.28000 280.716
39.32000 289.871
39.36000 294.806
39.40000 283.195
39.44000 284.962
39.48000 267.203
39.52000 265.878
39.56000 273.048
39.60000 263.130
39.64000 274.962
39.68000 273.282
39.72000 260.935
39.76000 267.332
39.80000 265.201
39.84000 269.522
39.88000 269.823
39.92000 267.190
39.96000 268.965
40.00000 275.071
40.04000 257.854
40.08000 255.236
40.12000 247.453
40.16000 266.782
40.20000 249.538
40.24000 269.373
40.28000 256.767
40.32000 244.840
40.36000 266.882
40.40000 261.714
40.44000 250.632
40.48000 248.531
40.52000 261.204
40.56000 255.141
40.60000 245.727
40.64000 244.743
40.68000 242.222
40.72000 257.325
40.76000 245.141
40.80000 254.122
40.84000 249.884
40.88000 255.487
40.92000 249.870
40.96000 255.042
41.00000 265.803
41.04000 260.306
41.08000 231.797
41.12000 242.378
41.16000 245.073
41.20000 241.553
41.24000 255.544
41.28000 239.177
41.32000 244.967
41.36000 248.832
41.40000 241.536
41.44000 245.415
41.48000 246.172
41.52000 241.689
41.56000 244.243
41.60000 235.353
41.64000 246.607
41.68000 236.802
41.72000 228.316
41.76000 242.568
41.80000 244.039
41.84000 229.790
41.88000 250.342
41.92000 237.439
41.96000 236.105
42.00000 242.993
42.04000 234.368
42.08000 232.889
42.12000 236.708
42.16000 243.935
42.20000 231.694
42.24000 238.474
42.28000 243.293
42.32000 233.480
42.36000 239.104
42.40000 236.084
42.44000 231.358
42.48000 228.052
42.52000 226.873
42.56000 228.587
42.60000 229.669
42.64000 239.872
42.68000 232.324
42.72000 229.664
42.76000 231.454
42.80000 230.833
42.84000 230.578
42.88000 227.562
42.92000 232.803
42.96000 229.789
43.00000 230.738
43.04000 230.660
43.08000 227.849
43.12000 222.598
43.16000 220.060
43.20000 224.365
43.24000 235.924
43.28000 228.305
43.32000 221.031
43.36000 224.848
43.40000 225.861
43.44000 226.000
43.48000 220.372
43.52000 209.588
43.56000 216.129
43.60000 215.445
43.64000 233.351
43.68000 220.911
43.72000 216.422
43.76000 225.097
43.80000 224.349
43.84000 221.640
43.88000 213.281
43.92000 216.790
43.96000 215.735
44.00000 212.672
44.04000 233.397
44.08000 212.492
44.12000 204.348
44.16000 227.758
44.20000 219.118
44.24000 236.428
44.28000 212.732
44.32000 217.383
44.36000 224.212
44.40000 225.858
44.44000 215.871
44.48000 208.037
44.52000 222.123
44.56000 203.410
44.60000 206.448
44.64000 220.082
44.68000 224.565
44.72000 228.187
44.76000 215.566
44.80000 235.025
44.84000 235.806
44.88000 245.489
44.92000 260.703
44.96000 265.598
45.00000 260.262
45.04000 274.575
45.08000 275.619
45.12000 271.523
45.16000 255.377
45.20000 268.535
45.24000 272.442
45.28000 261.153
45.32000 257.642
45.36000 254.691
45.40000 238.717
45.44000 249.846
45.48000 243.748
45.52000 235.346
45.56000 227.047
45.60000 229.550
45.64000 232.262
45.68000 215.942
45.72000 221.097
45.76000 220.355
45.80000 219.967
45.84000 224.821
45.88000 219.962
45.92000 222.842
45.96000 212.343
46.00000 211.713
46.04000 194.671
46.08000 220.605
46.12000 206.451
46.16000 212.455
46.20000 210.642
46.24000 199.404
46.28000 194.182
46.32000 192.893
46.36000 198.772
46.40000 208.037
46.44000 205.342
46.48000 207.117
46.52000 192.932
46.56000 201.118
46.60000 200.770
46.64000 190.513
46.68000 204.251
46.72000 202.301
46.76000 205.001
46.80000 200.825
46.84000 193.204
46.88000 181.450
46.92000 200.881
46.96000 187.450
47.00000 192.069
47.04000 186.936
47.08000 184.890
47.12000 196.732
47.16000 192.022
47.20000 197.204
47.24000 188.133
47.28000 204.000
47.32000 194.489
47.36000 184.200
47.40000 184.679
47.44000 180.279
47.48000 176.077
47.52000 185.342
47.56000 196.648
47.60000 186.076
47.64000 196.509
47.68000 185.588
47.72000 183.307
47.76000 186.149
47.80000 189.221
47.84000 179.161
47.88000 190.719
47.92000 188.875
47.96000 196.284
48.00000 174.645
48.04000 189.639
48.08000 180.716
48.12000 181.234
48.16000 180.304
48.20000 189.430
48.24000 177.773
48.28000 186.130
48.32000 183.102
48.36000 171.214
48.40000 173.992
48.44000 172.129
48.48000 179.660
48.52000 175.476
48.56000 195.794
48.60000 182.859
48.64000 170.540
48.68000 173.176
48.72000 176.483
48.76000 181.554
48.80000 172.164
48.84000 178.285
48.88000 171.593
48.92000 183.801
48.96000 186.648
49.00000 173.974
49.04000 170.499
49.08000 171.194
49.12000 171.860
49.16000 179.984
49.20000 173.615
49.24000 185.487
49.28000 175.057
49.32000 170.097
49.36000 181.451
49.40000 178.596
49.44000 169.195
49.48000 174.747
49.52000 173.420
49.56000 170.329
49.60000 162.264
49.64000 176.096
49.68000 171.292
49.72000 165.510
49.76000 168.769
49.80000 183.530
49.84000 169.353
49.88000 181.863
49.92000 171.110
49.96000 175.828
50.00000 175.037
50.04000 175.296
50.08000 171.857
50.12000 158.600
50.16000 182.332
50.20000 187.894
50.24000 164.611
50.28000 175.821
50.32000 176.260
50.36000 161.373
50.40000 174.218
50.44000 185.705
50.48000 178.170
50.52000 183.173
50.56000 178.580
50.60000 196.523
50.64000 205.281
50.68000 188.824
50.72000 182.284
50.76000 197.765
50.80000 205.516
50.84000 188.248
50.88000 185.415
50.92000 180.695
50.96000 195.258
51.00000 187.400
51.04000 181.910
51.08000 174.259
51.12000 181.305
51.16000 182.522
51.20000 175.252
51.24000 187.749
51.28000 167.805
51.32000 167.803
51.36000 165.918
51.40000 168.846
51.44000 177.522
51.48000 160.220
51.52000 162.793
51.56000 173.850
51.60000 157.183
51.64000 171.844
51.68000 164.616
51.72000 169.948
51.76000 161.787
51.80000 157.486
51.84000 150.137
51.88000 158.492
51.92000 151.593
51.96000 156.887
52.00000 164.937
52.04000 158.048
52.08000 161.003
52.12000 159.091
52.16000 162.396
52.20000 151.257
52.24000 162.718
52.28000 160.870
52.32000 151.081
52.36000 156.648
52.40000 160.341
52.44000 168.519
52.48000 170.487
52.52000 164.911
52.56000 159.440
52.60000 161.967
52.64000 154.075
52.68000 161.557
52.72000 162.455
52.76000 155.617
52.80000 154.475
52.84000 163.809
52.88000 156.185
52.92000 166.075
52.96000 157.689
53.00000 166.790
53.04000 164.070
53.08000 168.656
53.12000 157.965
53.16000 154.823
53.20000 166.248
53.24000 167.726
53.28000 164.805
53.32000 173.014
53.36000 175.366
53.40000 170.510
53.44000 166.723
53.48000 163.275
53.52000 161.799
53.56000 173.290
53.60000 162.663
53.64000 165.085
53.68000 167.535
53.72000 157.023
53.76000 152.819
53.80000 159.972
53.84000 167.465
53.88000 172.737
53.92000 167.777
53.96000 171.610
54.00000 151.925
54.04000 156.564
54.08000 166.796
54.12000 160.356
54.16000 164.071
54.20000 158.105
54.24000 159.742
54.28000 161.663
54.32000 164.424
54.36000 152.196
54.40000 157.738
54.44000 165.868
54.48000 151.503
54.52000 160.124
54.56000 157.568
54.60000 152.507
54.64000 151.949
54.68000 165.381
54.72000 158.497
54.76000 157.322
54.80000 152.799
54.84000 154.915
54.88000 156.019
54.92000 160.824
54.96000 163.691
55.00000 156.456
55.04000 163.059
55.08000 162.754
55.12000 169.669
55.16000 168.587
55.20000 169.335
55.24000 167.976
55.28000 171.517
55.32000 168.966
55.36000 181.520
55.40000 186.404
55.44000 180.862
55.48000 201.838
55.52000 208.619
55.56000 245.847
55.60000 256.457
55.64000 292.920
55.68000 346.503
55.72000 405.099
55.76000 478.683
55.80000 545.564
55.84000 633.629
55.88000 731.923
55.92000 789.501
55.96000 853.547
56.00000 863.636
56.04000 818.931
56.08000 788.144
56.12000 702.327
56.16000 637.453
56.20000 532.728
56.24000 460.276
56.28000 379.671
56.32000 352.378
56.36000 289.654
56.40000 249.687
56.44000 225.601
56.48000 207.911
56.52000 185.585
56.56000 190.002
56.60000 184.346
56.64000 172.782
56.68000 159.471
56.72000 167.509
56.76000 160.645
56.80000 152.761
56.84000 159.249
56.88000 154.838
56.92000 150.815
56.96000 140.897
57.00000 148.357
57.04000 146.354
57.08000 149.553
57.12000 153.751
57.16000 148.842
57.20000 151.772
57.24000 149.595
57.28000 152.930
57.32000 147.123
57.36000 150.461
57.40000 153.001
57.44000 141.811
57.48000 151.113
57.52000 146.878
57.56000 139.468
57.60000 144.820
57.64000 143.087
57.68000 158.326
57.72000 137.883
57.76000 146.794
57.80000 140.770
57.84000 143.436
57.88000 139.639
57.92000 138.599
57.96000 132.973
58.00000 141.896
58.04000 148.107
58.08000 142.198
58.12000 142.170
58.16000 138.780
58.20000 135.216
58.24000 141.735
58.28000 138.136
58.32000 135.070
58.36000 144.292
58.40000 140.232
58.44000 137.284
58.48000 128.738
58.52000 145.672
58.56000 135.933
58.60000 130.828
58.64000 142.449
58.68000 150.691
58.72000 135.348
58.76000 132.574
58.80000 134.800
58.84000 141.745
58.88000 138.360
58.92000 140.970
58.96000 132.814
59.00000 155.470
59.04000 133.361
59.08000 124.267
59.12000 134.830
59.16000 132.730
59.20000 130.371
59.24000 138.567
59.28000 136.737
59.32000 140.809
59.36000 133.418
59.40000 138.624
59.44000 127.584
59.48000 136.870
59.52000 135.661
59.56000 124.127
59.60000 127.015
59.64000 137.640
59.68000 139.705
59.72000 129.826
59.76000 136.043
59.80000 129.377
59.84000 133.278
59.88000 138.825
59.92000 132.433
59.96000 125.947
60.00000 132.277
60.04000 143.429
60.08000 135.392
60.12000 133.501
60.16000 118.360
60.20000 126.805
60.24000 119.564
60.28000 125.672
60.32000 128.361
60.36000 136.304
60.40000 126.014
60.44000 124.023
60.48000 131.598
60.52000 133.075
60.56000 125.311
60.60000 132.918
60.64000 131.646
60.68000 133.647
60.72000 130.159
60.76000 132.271
60.80000 130.571
60.84000 122.690
60.88000 130.444
60.92000 136.569
60.96000 125.290
61.00000 124.556
61.04000 131.457
61.08000 134.366
61.12000 134.829
61.16000 132.059
61.20000 129.756
61.24000 130.711
61.28000 133.053
61.32000 137.795
61.36000 140.108
61.40000 142.635
61.44000 147.268
61.48000 152.652
61.52000 168.052
61.56000 183.568
61.60000 216.394
61.64000 260.559
61.68000 251.868
61.72000 270.828
61.76000 249.986
61.80000 223.634
61.84000 169.392
61.88000 144.742
61.92000 142.783
61.96000 148.087
62.00000 135.639
62.04000 138.127
62.08000 144.998
62.12000 136.917
62.16000 137.526
62.20000 138.864
62.24000 144.336
62.28000 143.908
62.32000 146.921
62.36000 143.953
62.40000 134.822
62.44000 137.493
62.48000 137.279
62.52000 156.198
62.56000 148.115
62.60000 150.004
62.64000 139.310
62.68000 144.391
62.72000 138.089
62.76000 135.457
62.80000 140.266
62.84000 147.703
62.88000 137.861
62.92000 141.080
62.96000 147.550
63.00000 135.778
63.04000 147.644
63.08000 136.078
63.12000 146.272
63.16000 138.787
63.20000 132.020
63.24000 139.801
63.28000 148.050
63.32000 151.081
63.36000 137.815
63.40000 146.511
63.44000 150.015
63.48000 145.332
63.52000 145.049
63.56000 135.817
63.60000 148.585
63.64000 151.723
63.68000 154.327
63.72000 149.022
63.76000 145.963
63.80000 157.311
63.84000 150.831
63.88000 144.829
63.92000 149.314
63.96000 152.512
64.00000 146.382
64.04000 154.671
64.08000 158.243
64.12000 156.006
64.16000 153.270
64.20000 166.015
64.24000 161.828
64.28000 161.597
64.32000 161.881
64.36000 154.347
64.40000 156.836
64.44000 161.992
64.48000 156.095
64.52000 165.250
64.56000 154.163
64.60000 168.193
64.64000 165.131
64.68000 165.941
64.72000 172.994
64.76000 166.881
64.80000 177.855
64.84000 181.798
64.88000 175.374
64.92000 171.804
64.96000 174.532
65.00000 188.313
65.04000 182.758
65.08000 190.153
65.12000 188.597
65.16000 203.674
65.20000 205.646
65.24000 217.393
65.28000 221.810
65.32000 221.042
65.36000 225.785
65.40000 234.893
65.44000 249.280
65.48000 260.622
65.52000 269.810
65.56000 280.087
65.60000 315.540
65.64000 322.151
65.68000 395.256
65.72000 502.662
65.76000 728.244
65.80000 905.257
65.84000 972.415
65.88000 991.401
65.92000 959.330
65.96000 836.964
66.00000 616.182
66.04000 425.076
66.08000 338.953
66.12000 307.859
66.16000 273.519
66.20000 283.959
66.24000 294.571
66.28000 320.145
66.32000 358.155
66.36000 398.983
66.40000 416.859
66.44000 417.490
66.48000 409.718
66.52000 370.489
66.56000 337.157
66.60000 318.073
66.64000 304.378
66.68000 300.937
66.72000 305.854
66.76000 308.343
66.80000 319.165
66.84000 312.720
66.88000 310.034
66.92000 310.893
66.96000 316.525
67.00000 334.125
67.04000 329.079
67.08000 349.884
67.12000 345.055
67.16000 365.023
67.20000 345.290
67.24000 359.268
67.28000 360.987
67.32000 363.021
67.36000 376.394
67.40000 388.710
67.44000 392.578
67.48000 383.551
67.52000 401.876
67.56000 391.274
67.60000 430.633
67.64000 429.712
67.68000 407.132
67.72000 430.243
67.76000 447.451
67.80000 448.162
67.84000 446.498
67.88000 479.230
67.92000 471.972
67.96000 465.793
68.00000 508.394
68.04000 496.321
68.08000 498.570
68.12000 530.636
68.16000 534.248
68.20000 568.754
68.24000 568.051
68.28000 570.284
68.32000 610.170
68.36000 615.135
68.40000 637.970
68.44000 651.754
68.48000 682.318
68.52000 739.132
68.56000 791.297
68.60000 849.547
68.64000 980.106
68.68000 1164.682
68.72000 1379.453
68.76000 1574.050
68.80000 1719.232
68.84000 2043.202
68.88000 2505.744
68.92000 3752.539
68.96000 10581.837
69.00000 24525.281
69.04000 39804.230
69.08000 47209.156
69.12000 49027.375
69.16000 51020.789
69.20000 51227.465
69.24000 43517.590
69.28000 32467.664
69.32000 26656.344
69.36000 24073.738
69.40000 20084.930
69.44000 12937.038
69.48000 5773.407
69.52000 2605.794
69.56000 1641.972
69.60000 1297.629
69.64000 1132.472
69.68000 1013.713
69.72000 929.557
69.76000 825.809
69.80000 779.596
69.84000 742.688
69.88000 693.985
69.92000 671.153
69.96000 627.264
70.00000 630.943