File: XRD/XRD/24-09-2025 Dep 3/XY Data/BTO_Mapping_Theta2Theta_24-09-2025_001_47_-2-091_-19-890.xy
20.00000 552.682
20.04000 568.065
20.08000 562.214
20.12000 577.119
20.16000 550.948
20.20000 553.130
20.24000 578.980
20.28000 565.171
20.32000 574.019
20.36000 551.064
20.40000 542.088
20.44000 556.122
20.48000 555.451
20.52000 537.119
20.56000 544.063
20.60000 551.698
20.64000 551.988
20.68000 541.757
20.72000 550.051
20.76000 544.572
20.80000 567.438
20.84000 555.720
20.88000 532.830
20.92000 538.579
20.96000 538.350
21.00000 544.314
21.04000 526.406
21.08000 558.919
21.12000 552.497
21.16000 551.764
21.20000 538.691
21.24000 579.758
21.28000 542.024
21.32000 564.853
21.36000 556.422
21.40000 548.816
21.44000 541.373
21.48000 548.446
21.52000 540.547
21.56000 555.090
21.60000 545.802
21.64000 547.119
21.68000 530.392
21.72000 553.407
21.76000 551.154
21.80000 555.965
21.84000 560.714
21.88000 599.879
21.92000 622.025
21.96000 618.973
22.00000 656.984
22.04000 676.435
22.08000 682.333
22.12000 678.893
22.16000 674.151
22.20000 672.463
22.24000 641.230
22.28000 624.497
22.32000 587.184
22.36000 575.210
22.40000 570.415
22.44000 586.711
22.48000 560.341
22.52000 561.079
22.56000 544.895
22.60000 536.816
22.64000 524.528
22.68000 532.353
22.72000 547.382
22.76000 526.770
22.80000 502.092
22.84000 514.749
22.88000 529.339
22.92000 519.627
22.96000 510.655
23.00000 532.819
23.04000 517.787
23.08000 506.259
23.12000 506.242
23.16000 500.415
23.20000 513.257
23.24000 505.538
23.28000 482.851
23.32000 515.474
23.36000 510.667
23.40000 503.484
23.44000 493.725
23.48000 501.994
23.52000 514.967
23.56000 489.568
23.60000 486.084
23.64000 492.022
23.68000 500.793
23.72000 506.583
23.76000 504.371
23.80000 511.218
23.84000 491.387
23.88000 483.934
23.92000 466.964
23.96000 507.164
24.00000 502.561
24.04000 488.075
24.08000 485.806
24.12000 499.743
24.16000 467.828
24.20000 491.926
24.24000 490.183
24.28000 478.329
24.32000 501.660
24.36000 491.993
24.40000 491.693
24.44000 486.586
24.48000 476.074
24.52000 482.638
24.56000 490.380
24.60000 491.205
24.64000 461.324
24.68000 476.392
24.72000 471.557
24.76000 480.444
24.80000 485.796
24.84000 469.245
24.88000 470.954
24.92000 470.125
24.96000 480.318
25.00000 459.044
25.04000 464.709
25.08000 479.802
25.12000 463.824
25.16000 464.012
25.20000 476.982
25.24000 479.333
25.28000 464.863
25.32000 474.454
25.36000 481.569
25.40000 467.704
25.44000 455.815
25.48000 480.417
25.52000 446.766
25.56000 467.925
25.60000 471.182
25.64000 470.623
25.68000 458.968
25.72000 453.156
25.76000 465.472
25.80000 469.630
25.84000 471.989
25.88000 459.336
25.92000 456.060
25.96000 452.704
26.00000 463.060
26.04000 452.928
26.08000 465.731
26.12000 449.968
26.16000 440.024
26.20000 434.922
26.24000 454.243
26.28000 448.082
26.32000 459.295
26.36000 464.085
26.40000 459.020
26.44000 438.656
26.48000 434.123
26.52000 465.980
26.56000 453.325
26.60000 439.953
26.64000 457.682
26.68000 448.710
26.72000 466.284
26.76000 432.925
26.80000 442.740
26.84000 440.882
26.88000 461.371
26.92000 427.729
26.96000 443.632
27.00000 467.274
27.04000 442.923
27.08000 440.326
27.12000 426.830
27.16000 453.928
27.20000 439.948
27.24000 440.787
27.28000 434.145
27.32000 436.695
27.36000 436.020
27.40000 440.754
27.44000 444.459
27.48000 440.306
27.52000 440.108
27.56000 433.198
27.60000 436.663
27.64000 435.523
27.68000 448.500
27.72000 422.095
27.76000 441.377
27.80000 433.824
27.84000 426.821
27.88000 444.567
27.92000 447.902
27.96000 434.692
28.00000 434.531
28.04000 436.037
28.08000 432.972
28.12000 423.068
28.16000 432.895
28.20000 428.601
28.24000 418.742
28.28000 440.560
28.32000 414.620
28.36000 422.597
28.40000 438.262
28.44000 439.583
28.48000 427.175
28.52000 416.905
28.56000 414.992
28.60000 423.785
28.64000 424.698
28.68000 420.608
28.72000 412.388
28.76000 416.289
28.80000 416.791
28.84000 427.741
28.88000 422.136
28.92000 414.052
28.96000 413.347
29.00000 408.631
29.04000 422.647
29.08000 431.970
29.12000 422.911
29.16000 412.016
29.20000 395.655
29.24000 400.583
29.28000 416.102
29.32000 400.444
29.36000 413.326
29.40000 406.752
29.44000 394.415
29.48000 413.862
29.52000 409.493
29.56000 410.598
29.60000 383.551
29.64000 422.381
29.68000 432.030
29.72000 421.570
29.76000 417.816
29.80000 415.549
29.84000 427.814
29.88000 430.857
29.92000 442.693
29.96000 439.599
30.00000 447.887
30.04000 446.734
30.08000 451.996
30.12000 452.874
30.16000 438.703
30.20000 429.613
30.24000 418.054
30.28000 437.907
30.32000 418.466
30.36000 415.684
30.40000 438.323
30.44000 431.840
30.48000 421.543
30.52000 422.106
30.56000 426.761
30.60000 433.202
30.64000 437.022
30.68000 440.849
30.72000 446.515
30.76000 435.068
30.80000 457.449
30.84000 462.278
30.88000 475.295
30.92000 499.409
30.96000 528.566
31.00000 571.982
31.04000 638.994
31.08000 751.833
31.12000 947.100
31.16000 1176.368
31.20000 1532.829
31.24000 1876.684
31.28000 2284.565
31.32000 2656.226
31.36000 2886.266
31.40000 2916.360
31.44000 2793.188
31.48000 2524.662
31.52000 2173.688
31.56000 1775.032
31.60000 1425.681
31.64000 1104.381
31.68000 901.574
31.72000 760.079
31.76000 639.888
31.80000 557.456
31.84000 517.650
31.88000 474.472
31.92000 450.470
31.96000 428.352
32.00000 444.337
32.04000 430.689
32.08000 424.162
32.12000 387.090
32.16000 394.131
32.20000 398.889
32.24000 397.276
32.28000 387.222
32.32000 384.943
32.36000 390.533
32.40000 380.802
32.44000 386.026
32.48000 369.108
32.52000 373.600
32.56000 384.927
32.60000 377.958
32.64000 379.327
32.68000 377.694
32.72000 371.679
32.76000 369.855
32.80000 373.979
32.84000 452.813
32.88000 444.898
32.92000 472.813
32.96000 462.321
33.00000 482.560
33.04000 461.782
33.08000 410.068
33.12000 364.867
33.16000 364.288
33.20000 360.641
33.24000 337.053
33.28000 341.451
33.32000 322.275
33.36000 327.789
33.40000 341.631
33.44000 345.897
33.48000 340.163
33.52000 337.274
33.56000 343.318
33.60000 342.594
33.64000 346.085
33.68000 323.387
33.72000 340.856
33.76000 330.123
33.80000 333.035
33.84000 318.343
33.88000 329.184
33.92000 347.314
33.96000 329.483
34.00000 331.793
34.04000 339.864
34.08000 338.630
34.12000 337.716
34.16000 336.643
34.20000 313.262
34.24000 335.646
34.28000 337.481
34.32000 317.374
34.36000 325.623
34.40000 322.634
34.44000 334.001
34.48000 322.732
34.52000 326.599
34.56000 315.235
34.60000 313.823
34.64000 300.542
34.68000 307.302
34.72000 329.400
34.76000 329.477
34.80000 326.989
34.84000 315.337
34.88000 319.861
34.92000 317.600
34.96000 313.359
35.00000 316.303
35.04000 309.720
35.08000 315.136
35.12000 313.263
35.16000 305.831
35.20000 307.112
35.24000 297.307
35.28000 320.264
35.32000 308.955
35.36000 318.333
35.40000 326.460
35.44000 315.398
35.48000 314.398
35.52000 308.895
35.56000 305.467
35.60000 301.886
35.64000 306.343
35.68000 310.671
35.72000 299.350
35.76000 312.328
35.80000 312.920
35.84000 305.455
35.88000 298.697
35.92000 310.046
35.96000 306.215
36.00000 297.370
36.04000 297.717
36.08000 302.595
36.12000 308.367
36.16000 304.196
36.20000 292.452
36.24000 311.082
36.28000 296.926
36.32000 298.028
36.36000 295.648
36.40000 290.011
36.44000 303.164
36.48000 305.733
36.52000 301.995
36.56000 302.533
36.60000 284.012
36.64000 307.789
36.68000 310.125
36.72000 305.598
36.76000 307.825
36.80000 287.952
36.84000 310.895
36.88000 297.291
36.92000 308.013
36.96000 307.181
37.00000 300.782
37.04000 310.594
37.08000 304.569
37.12000 333.719
37.16000 314.876
37.20000 298.517
37.24000 292.219
37.28000 312.298
37.32000 317.727
37.36000 289.055
37.40000 297.209
37.44000 282.161
37.48000 293.708
37.52000 300.136
37.56000 279.278
37.60000 291.154
37.64000 292.414
37.68000 292.046
37.72000 303.102
37.76000 302.515
37.80000 304.515
37.84000 292.850
37.88000 290.203
37.92000 296.781
37.96000 298.284
38.00000 306.519
38.04000 297.518
38.08000 314.482
38.12000 309.068
38.16000 305.319
38.20000 320.334
38.24000 317.789
38.28000 339.208
38.32000 367.628
38.36000 379.211
38.40000 440.759
38.44000 504.987
38.48000 589.240
38.52000 773.515
38.56000 976.588
38.60000 1142.398
38.64000 1395.769
38.68000 1547.165
38.72000 1597.038
38.76000 1554.972
38.80000 1465.119
38.84000 1246.333
38.88000 1026.177
38.92000 800.228
38.96000 604.305
39.00000 502.987
39.04000 411.521
39.08000 364.099
39.12000 342.731
39.16000 315.715
39.20000 318.194
39.24000 297.904
39.28000 293.592
39.32000 292.597
39.36000 268.589
39.40000 286.488
39.44000 268.232
39.48000 283.607
39.52000 257.922
39.56000 274.838
39.60000 277.837
39.64000 269.057
39.68000 271.678
39.72000 276.558
39.76000 277.769
39.80000 269.639
39.84000 273.699
39.88000 271.422
39.92000 263.847
39.96000 261.734
40.00000 254.012
40.04000 247.997
40.08000 262.276
40.12000 253.616
40.16000 257.215
40.20000 250.449
40.24000 245.409
40.28000 259.334
40.32000 259.258
40.36000 260.980
40.40000 258.194
40.44000 253.956
40.48000 254.589
40.52000 252.287
40.56000 236.939
40.60000 246.006
40.64000 255.886
40.68000 244.836
40.72000 241.372
40.76000 245.180
40.80000 258.329
40.84000 253.625
40.88000 235.508
40.92000 245.040
40.96000 252.611
41.00000 262.427
41.04000 243.866
41.08000 245.309
41.12000 251.889
41.16000 240.671
41.20000 242.997
41.24000 237.123
41.28000 243.761
41.32000 248.033
41.36000 245.443
41.40000 244.913
41.44000 240.575
41.48000 254.723
41.52000 246.008
41.56000 237.388
41.60000 248.082
41.64000 243.840
41.68000 230.893
41.72000 249.116
41.76000 233.358
41.80000 253.724
41.84000 239.900
41.88000 223.094
41.92000 247.484
41.96000 228.437
42.00000 234.493
42.04000 245.605
42.08000 228.798
42.12000 231.969
42.16000 250.537
42.20000 243.204
42.24000 237.327
42.28000 234.397
42.32000 230.566
42.36000 233.022
42.40000 236.763
42.44000 235.144
42.48000 233.243
42.52000 233.873
42.56000 240.213
42.60000 235.162
42.64000 239.618
42.68000 234.264
42.72000 231.973
42.76000 231.854
42.80000 234.407
42.84000 224.856
42.88000 231.225
42.92000 214.805
42.96000 232.277
43.00000 233.263
43.04000 225.031
43.08000 235.208
43.12000 227.252
43.16000 220.711
43.20000 217.139
43.24000 225.631
43.28000 232.576
43.32000 214.672
43.36000 218.554
43.40000 227.896
43.44000 231.009
43.48000 218.403
43.52000 209.538
43.56000 223.993
43.60000 229.270
43.64000 225.735
43.68000 228.380
43.72000 220.420
43.76000 222.152
43.80000 213.005
43.84000 221.276
43.88000 221.400
43.92000 229.548
43.96000 218.274
44.00000 209.560
44.04000 225.272
44.08000 224.614
44.12000 216.830
44.16000 216.499
44.20000 221.638
44.24000 211.145
44.28000 217.339
44.32000 226.948
44.36000 236.569
44.40000 221.978
44.44000 233.612
44.48000 212.626
44.52000 222.017
44.56000 232.494
44.60000 228.107
44.64000 236.606
44.68000 238.074
44.72000 239.254
44.76000 246.794
44.80000 254.343
44.84000 255.895
44.88000 278.353
44.92000 290.769
44.96000 291.276
45.00000 315.089
45.04000 320.445
45.08000 329.395
45.12000 314.507
45.16000 312.287
45.20000 321.406
45.24000 302.561
45.28000 307.532
45.32000 289.157
45.36000 280.969
45.40000 272.970
45.44000 273.527
45.48000 269.917
45.52000 259.846
45.56000 265.189
45.60000 252.388
45.64000 246.317
45.68000 242.085
45.72000 234.731
45.76000 245.392
45.80000 247.387
45.84000 233.829
45.88000 232.083
45.92000 219.948
45.96000 228.970
46.00000 228.503
46.04000 209.870
46.08000 214.503
46.12000 200.044
46.16000 211.031
46.20000 196.789
46.24000 201.962
46.28000 215.122
46.32000 224.623
46.36000 199.521
46.40000 200.673
46.44000 214.575
46.48000 216.171
46.52000 203.013
46.56000 205.784
46.60000 194.686
46.64000 216.112
46.68000 200.351
46.72000 212.392
46.76000 203.527
46.80000 199.338
46.84000 204.669
46.88000 203.926
46.92000 201.639
46.96000 198.260
47.00000 193.118
47.04000 184.078
47.08000 193.829
47.12000 181.610
47.16000 204.676
47.20000 189.563
47.24000 179.777
47.28000 191.881
47.32000 181.280
47.36000 190.379
47.40000 183.807
47.44000 196.404
47.48000 183.959
47.52000 187.095
47.56000 187.183
47.60000 194.540
47.64000 186.351
47.68000 187.318
47.72000 189.442
47.76000 188.796
47.80000 188.545
47.84000 188.420
47.88000 181.768
47.92000 190.637
47.96000 183.647
48.00000 175.716
48.04000 177.367
48.08000 182.560
48.12000 183.293
48.16000 180.739
48.20000 179.842
48.24000 182.700
48.28000 174.885
48.32000 177.020
48.36000 180.336
48.40000 185.386
48.44000 192.796
48.48000 201.899
48.52000 193.764
48.56000 192.768
48.60000 198.301
48.64000 172.334
48.68000 180.778
48.72000 168.488
48.76000 178.135
48.80000 194.560
48.84000 182.411
48.88000 187.188
48.92000 183.173
48.96000 171.364
49.00000 169.130
49.04000 183.000
49.08000 164.889
49.12000 185.220
49.16000 178.217
49.20000 180.122
49.24000 181.480
49.28000 175.114
49.32000 175.038
49.36000 182.883
49.40000 174.756
49.44000 176.830
49.48000 179.653
49.52000 172.495
49.56000 186.147
49.60000 166.796
49.64000 180.205
49.68000 175.273
49.72000 176.513
49.76000 172.005
49.80000 167.266
49.84000 174.024
49.88000 183.018
49.92000 173.801
49.96000 179.991
50.00000 178.351
50.04000 174.618
50.08000 179.789
50.12000 184.632
50.16000 169.951
50.20000 179.911
50.24000 185.520
50.28000 186.025
50.32000 190.685
50.36000 180.676
50.40000 194.452
50.44000 181.949
50.48000 201.144
50.52000 218.037
50.56000 213.956
50.60000 223.752
50.64000 233.757
50.68000 234.501
50.72000 244.336
50.76000 229.694
50.80000 222.555
50.84000 216.385
50.88000 229.757
50.92000 221.207
50.96000 214.204
51.00000 203.550
51.04000 193.996
51.08000 195.473
51.12000 192.099
51.16000 190.264
51.20000 174.327
51.24000 172.256
51.28000 174.813
51.32000 180.453
51.36000 182.403
51.40000 167.706
51.44000 172.449
51.48000 164.493
51.52000 174.229
51.56000 161.411
51.60000 159.059
51.64000 165.364
51.68000 162.993
51.72000 168.964
51.76000 165.066
51.80000 158.611
51.84000 161.260
51.88000 166.331
51.92000 158.792
51.96000 162.432
52.00000 156.120
52.04000 154.831
52.08000 162.091
52.12000 158.406
52.16000 163.919
52.20000 169.188
52.24000 163.244
52.28000 167.756
52.32000 146.510
52.36000 156.639
52.40000 161.764
52.44000 154.254
52.48000 168.924
52.52000 158.199
52.56000 158.696
52.60000 175.975
52.64000 157.267
52.68000 156.802
52.72000 172.163
52.76000 171.205
52.80000 160.284
52.84000 155.692
52.88000 151.942
52.92000 154.089
52.96000 157.830
53.00000 158.296
53.04000 157.928
53.08000 165.265
53.12000 159.795
53.16000 162.825
53.20000 169.364
53.24000 162.017
53.28000 158.093
53.32000 174.242
53.36000 170.615
53.40000 169.442
53.44000 170.185
53.48000 156.227
53.52000 164.548
53.56000 165.942
53.60000 161.892
53.64000 157.190
53.68000 169.829
53.72000 158.472
53.76000 161.846
53.80000 157.186
53.84000 165.990
53.88000 166.525
53.92000 155.913
53.96000 149.507
54.00000 152.623
54.04000 149.374
54.08000 147.112
54.12000 158.498
54.16000 149.517
54.20000 162.829
54.24000 152.398
54.28000 154.381
54.32000 157.342
54.36000 152.052
54.40000 151.506
54.44000 154.393
54.48000 159.241
54.52000 166.925
54.56000 148.551
54.60000 155.417
54.64000 155.550
54.68000 164.367
54.72000 160.977
54.76000 154.505
54.80000 158.043
54.84000 165.725
54.88000 150.458
54.92000 154.263
54.96000 144.455
55.00000 157.514
55.04000 162.582
55.08000 166.012
55.12000 158.485
55.16000 170.256
55.20000 159.833
55.24000 167.154
55.28000 162.172
55.32000 177.312
55.36000 170.211
55.40000 193.239
55.44000 198.276
55.48000 201.202
55.52000 233.435
55.56000 241.390
55.60000 267.109
55.64000 326.266
55.68000 376.745
55.72000 465.064
55.76000 553.744
55.80000 623.894
55.84000 735.619
55.88000 829.749
55.92000 890.248
55.96000 901.920
56.00000 879.752
56.04000 814.930
56.08000 742.259
56.12000 680.203
56.16000 544.545
56.20000 473.925
56.24000 401.461
56.28000 356.943
56.32000 302.050
56.36000 269.765
56.40000 228.178
56.44000 205.595
56.48000 206.262
56.52000 168.216
56.56000 182.048
56.60000 173.736
56.64000 169.793
56.68000 160.111
56.72000 159.294
56.76000 161.865
56.80000 153.076
56.84000 147.687
56.88000 155.618
56.92000 148.634
56.96000 153.422
57.00000 153.098
57.04000 153.144
57.08000 147.624
57.12000 155.739
57.16000 147.401
57.20000 151.951
57.24000 153.272
57.28000 140.941
57.32000 147.211
57.36000 149.009
57.40000 150.762
57.44000 146.452
57.48000 141.577
57.52000 142.031
57.56000 145.411
57.60000 143.718
57.64000 153.327
57.68000 129.250
57.72000 146.070
57.76000 147.359
57.80000 141.127
57.84000 142.761
57.88000 143.866
57.92000 138.163
57.96000 129.804
58.00000 142.729
58.04000 137.366
58.08000 146.731
58.12000 148.496
58.16000 144.265
58.20000 144.268
58.24000 139.290
58.28000 151.807
58.32000 139.144
58.36000 135.165
58.40000 141.625
58.44000 131.282
58.48000 138.226
58.52000 135.663
58.56000 136.201
58.60000 130.266
58.64000 138.219
58.68000 143.495
58.72000 134.371
58.76000 135.017
58.80000 123.280
58.84000 140.730
58.88000 133.469
58.92000 133.977
58.96000 133.088
59.00000 147.573
59.04000 134.963
59.08000 134.039
59.12000 136.269
59.16000 134.505
59.20000 144.417
59.24000 134.405
59.28000 125.820
59.32000 131.071
59.36000 144.232
59.40000 133.063
59.44000 126.912
59.48000 127.672
59.52000 127.288
59.56000 131.902
59.60000 132.059
59.64000 135.114
59.68000 138.476
59.72000 138.879
59.76000 137.058
59.80000 135.415
59.84000 117.199
59.88000 137.163
59.92000 133.840
59.96000 131.150
60.00000 132.159
60.04000 126.468
60.08000 140.182
60.12000 142.189
60.16000 136.065
60.20000 124.513
60.24000 119.720
60.28000 135.278
60.32000 138.697
60.36000 137.389
60.40000 136.152
60.44000 138.035
60.48000 135.936
60.52000 129.704
60.56000 135.266
60.60000 128.348
60.64000 128.135
60.68000 128.886
60.72000 118.685
60.76000 138.619
60.80000 131.292
60.84000 122.677
60.88000 123.519
60.92000 134.462
60.96000 131.418
61.00000 123.750
61.04000 134.992
61.08000 134.738
61.12000 137.826
61.16000 142.642
61.20000 139.597
61.24000 140.207
61.28000 131.199
61.32000 143.341
61.36000 138.414
61.40000 131.857
61.44000 145.123
61.48000 143.780
61.52000 163.212
61.56000 199.229
61.60000 225.348
61.64000 264.755
61.68000 276.933
61.72000 283.974
61.76000 259.099
61.80000 213.170
61.84000 173.652
61.88000 157.198
61.92000 152.039
61.96000 151.736
62.00000 145.853
62.04000 149.268
62.08000 136.239
62.12000 140.450
62.16000 136.202
62.20000 132.753
62.24000 143.681
62.28000 149.475
62.32000 147.437
62.36000 145.686
62.40000 137.412
62.44000 149.265
62.48000 143.969
62.52000 137.929
62.56000 136.150
62.60000 135.764
62.64000 130.818
62.68000 140.221
62.72000 137.206
62.76000 140.737
62.80000 140.760
62.84000 149.011
62.88000 131.853
62.92000 135.813
62.96000 136.170
63.00000 141.365
63.04000 139.013
63.08000 139.150
63.12000 149.470
63.16000 140.508
63.20000 144.511
63.24000 142.688
63.28000 144.418
63.32000 147.883
63.36000 141.685
63.40000 145.513
63.44000 136.712
63.48000 147.864
63.52000 145.999
63.56000 138.026
63.60000 144.105
63.64000 150.661
63.68000 140.603
63.72000 154.242
63.76000 142.165
63.80000 147.013
63.84000 155.145
63.88000 137.695
63.92000 148.546
63.96000 154.699
64.00000 142.928
64.04000 143.845
64.08000 155.712
64.12000 155.660
64.16000 151.217
64.20000 159.828
64.24000 155.389
64.28000 156.403
64.32000 153.674
64.36000 156.857
64.40000 167.998
64.44000 181.332
64.48000 167.735
64.52000 161.261
64.56000 170.304
64.60000 164.937
64.64000 168.045
64.68000 178.462
64.72000 177.278
64.76000 174.907
64.80000 176.714
64.84000 171.937
64.88000 177.709
64.92000 181.111
64.96000 188.081
65.00000 192.120
65.04000 191.794
65.08000 198.752
65.12000 210.758
65.16000 223.358
65.20000 218.933
65.24000 233.893
65.28000 253.632
65.32000 270.356
65.36000 284.792
65.40000 298.925
65.44000 316.905
65.48000 342.626
65.52000 353.095
65.56000 381.769
65.60000 387.732
65.64000 437.270
65.68000 496.537
65.72000 614.868
65.76000 861.790
65.80000 1046.505
65.84000 1138.401
65.88000 1143.219
65.92000 1081.139
65.96000 924.403
66.00000 671.386
66.04000 492.504
66.08000 371.720
66.12000 325.081
66.16000 309.276
66.20000 300.486
66.24000 317.949
66.28000 344.349
66.32000 405.250
66.36000 418.915
66.40000 450.350
66.44000 457.258
66.48000 433.121
66.52000 404.824
66.56000 353.398
66.60000 325.571
66.64000 303.367
66.68000 307.581
66.72000 312.466
66.76000 323.851
66.80000 313.782
66.84000 317.780
66.88000 320.681
66.92000 330.552
66.96000 350.694
67.00000 332.351
67.04000 340.771
67.08000 362.360
67.12000 350.897
67.16000 347.239
67.20000 347.753
67.24000 368.491
67.28000 363.808
67.32000 361.940
67.36000 383.062
67.40000 385.004
67.44000 396.356
67.48000 392.884
67.52000 414.036
67.56000 418.077
67.60000 428.842
67.64000 434.037
67.68000 415.859
67.72000 442.477
67.76000 453.492
67.80000 477.556
67.84000 456.581
67.88000 484.420
67.92000 488.740
67.96000 487.873
68.00000 516.440
68.04000 518.778
68.08000 515.901
68.12000 539.771
68.16000 548.123
68.20000 561.675
68.24000 586.500
68.28000 590.257
68.32000 658.267
68.36000 646.293
68.40000 644.640
68.44000 685.383
68.48000 735.644
68.52000 760.168
68.56000 798.349
68.60000 932.751
68.64000 1077.529
68.68000 1230.818
68.72000 1479.591
68.76000 1691.570
68.80000 1917.184
68.84000 2279.679
68.88000 2912.540
68.92000 4626.663
68.96000 12887.571
69.00000 28674.777
69.04000 44989.613
69.08000 52811.395
69.12000 54922.086
69.16000 57133.320
69.20000 56718.414
69.24000 47611.230
69.28000 35772.723
69.32000 29546.967
69.36000 26661.922
69.40000 21731.150
69.44000 13657.171
69.48000 6146.314
69.52000 2844.215
69.56000 1755.896
69.60000 1399.720
69.64000 1204.637
69.68000 1052.250
69.72000 943.850
69.76000 879.028
69.80000 801.329
69.84000 735.445
69.88000 716.379
69.92000 703.526
69.96000 653.791
70.00000 657.373