File: XRD/XRD/24-09-2025 Dep 3/XY Data/BTO_Mapping_Theta2Theta_24-09-2025_001_10_6-691_7-431.xy
20.00000 580.932
20.04000 567.526
20.08000 560.732
20.12000 561.553
20.16000 559.761
20.20000 558.727
20.24000 565.583
20.28000 564.615
20.32000 565.710
20.36000 549.338
20.40000 545.321
20.44000 547.708
20.48000 565.591
20.52000 553.266
20.56000 551.723
20.60000 584.857
20.64000 536.470
20.68000 555.750
20.72000 541.855
20.76000 551.071
20.80000 567.769
20.84000 569.841
20.88000 544.754
20.92000 563.589
20.96000 564.871
21.00000 543.382
21.04000 548.382
21.08000 539.620
21.12000 530.197
21.16000 554.410
21.20000 535.546
21.24000 533.437
21.28000 545.539
21.32000 524.016
21.36000 526.395
21.40000 544.055
21.44000 549.761
21.48000 531.090
21.52000 543.823
21.56000 538.332
21.60000 544.493
21.64000 546.232
21.68000 542.552
21.72000 543.684
21.76000 550.377
21.80000 550.745
21.84000 562.071
21.88000 561.182
21.92000 587.140
21.96000 613.112
22.00000 609.075
22.04000 618.925
22.08000 617.366
22.12000 630.849
22.16000 637.395
22.20000 605.390
22.24000 608.477
22.28000 602.641
22.32000 596.010
22.36000 592.234
22.40000 585.623
22.44000 547.468
22.48000 548.912
22.52000 525.349
22.56000 548.884
22.60000 529.443
22.64000 529.724
22.68000 542.840
22.72000 509.636
22.76000 511.084
22.80000 542.912
22.84000 532.660
22.88000 501.172
22.92000 491.831
22.96000 487.042
23.00000 501.321
23.04000 505.409
23.08000 489.874
23.12000 506.515
23.16000 509.148
23.20000 526.227
23.24000 502.743
23.28000 489.774
23.32000 504.218
23.36000 497.843
23.40000 499.791
23.44000 485.341
23.48000 485.108
23.52000 521.227
23.56000 509.570
23.60000 503.159
23.64000 505.233
23.68000 517.617
23.72000 499.613
23.76000 498.562
23.80000 488.841
23.84000 486.665
23.88000 492.049
23.92000 493.374
23.96000 495.784
24.00000 492.761
24.04000 511.812
24.08000 494.632
24.12000 493.129
24.16000 490.739
24.20000 490.805
24.24000 486.204
24.28000 501.612
24.32000 481.210
24.36000 493.681
24.40000 481.751
24.44000 490.848
24.48000 472.693
24.52000 481.928
24.56000 490.215
24.60000 479.426
24.64000 476.476
24.68000 466.641
24.72000 461.338
24.76000 474.883
24.80000 477.536
24.84000 475.838
24.88000 466.747
24.92000 487.447
24.96000 458.302
25.00000 465.115
25.04000 474.516
25.08000 480.106
25.12000 484.676
25.16000 479.573
25.20000 460.913
25.24000 477.607
25.28000 478.615
25.32000 480.960
25.36000 448.697
25.40000 461.678
25.44000 467.071
25.48000 464.472
25.52000 477.536
25.56000 461.091
25.60000 469.663
25.64000 471.824
25.68000 474.849
25.72000 453.310
25.76000 465.042
25.80000 441.793
25.84000 455.676
25.88000 470.911
25.92000 470.978
25.96000 461.793
26.00000 464.658
26.04000 462.455
26.08000 459.636
26.12000 456.087
26.16000 459.402
26.20000 413.250
26.24000 446.280
26.28000 470.653
26.32000 457.632
26.36000 443.186
26.40000 447.265
26.44000 450.921
26.48000 461.152
26.52000 454.649
26.56000 469.476
26.60000 456.136
26.64000 455.564
26.68000 456.487
26.72000 429.783
26.76000 453.476
26.80000 435.781
26.84000 471.336
26.88000 452.422
26.92000 435.369
26.96000 442.491
27.00000 449.544
27.04000 452.715
27.08000 433.805
27.12000 462.323
27.16000 440.302
27.20000 414.210
27.24000 426.914
27.28000 444.823
27.32000 439.205
27.36000 441.525
27.40000 453.833
27.44000 410.666
27.48000 430.945
27.52000 432.210
27.56000 442.988
27.60000 426.491
27.64000 423.928
27.68000 437.648
27.72000 458.033
27.76000 431.613
27.80000 434.768
27.84000 438.168
27.88000 427.223
27.92000 425.826
27.96000 441.167
28.00000 429.941
28.04000 433.159
28.08000 409.209
28.12000 414.387
28.16000 416.178
28.20000 418.948
28.24000 409.892
28.28000 440.771
28.32000 437.547
28.36000 426.668
28.40000 418.494
28.44000 425.218
28.48000 440.475
28.52000 431.211
28.56000 426.558
28.60000 405.763
28.64000 391.167
28.68000 407.780
28.72000 408.632
28.76000 412.899
28.80000 425.567
28.84000 435.426
28.88000 425.604
28.92000 410.532
28.96000 427.411
29.00000 411.972
29.04000 409.221
29.08000 429.460
29.12000 401.686
29.16000 406.108
29.20000 413.440
29.24000 386.856
29.28000 418.618
29.32000 422.190
29.36000 423.339
29.40000 398.024
29.44000 414.495
29.48000 409.394
29.52000 420.445
29.56000 398.424
29.60000 399.895
29.64000 407.777
29.68000 422.148
29.72000 403.253
29.76000 422.069
29.80000 399.875
29.84000 422.967
29.88000 429.252
29.92000 414.891
29.96000 419.376
30.00000 438.168
30.04000 410.387
30.08000 423.043
30.12000 432.099
30.16000 411.629
30.20000 431.744
30.24000 430.862
30.28000 430.102
30.32000 414.286
30.36000 425.805
30.40000 412.403
30.44000 424.909
30.48000 422.023
30.52000 407.550
30.56000 413.842
30.60000 407.892
30.64000 431.016
30.68000 418.493
30.72000 432.167
30.76000 449.178
30.80000 452.020
30.84000 438.121
30.88000 459.472
30.92000 474.848
30.96000 459.509
31.00000 515.847
31.04000 562.068
31.08000 611.302
31.12000 742.546
31.16000 917.986
31.20000 1112.983
31.24000 1381.416
31.28000 1696.910
31.32000 1956.194
31.36000 2170.903
31.40000 2284.492
31.44000 2236.432
31.48000 2053.058
31.52000 1823.032
31.56000 1538.334
31.60000 1219.716
31.64000 1022.138
31.68000 832.044
31.72000 700.501
31.76000 599.833
31.80000 517.111
31.84000 482.520
31.88000 477.530
31.92000 445.595
31.96000 441.335
32.00000 421.447
32.04000 425.010
32.08000 419.884
32.12000 416.857
32.16000 419.767
32.20000 413.485
32.24000 408.138
32.28000 386.552
32.32000 384.496
32.36000 384.798
32.40000 382.849
32.44000 391.837
32.48000 371.167
32.52000 381.290
32.56000 384.618
32.60000 387.625
32.64000 369.727
32.68000 357.273
32.72000 363.887
32.76000 379.329
32.80000 380.571
32.84000 402.577
32.88000 441.038
32.92000 464.638
32.96000 461.875
33.00000 457.610
33.04000 431.171
33.08000 391.201
33.12000 373.473
33.16000 372.290
33.20000 340.342
33.24000 340.192
33.28000 341.077
33.32000 356.352
33.36000 355.087
33.40000 358.759
33.44000 341.025
33.48000 356.330
33.52000 350.245
33.56000 335.941
33.60000 336.713
33.64000 331.990
33.68000 335.342
33.72000 343.254
33.76000 322.643
33.80000 332.105
33.84000 331.876
33.88000 332.064
33.92000 351.614
33.96000 332.331
34.00000 312.895
34.04000 335.628
34.08000 328.857
34.12000 327.488
34.16000 329.158
34.20000 331.922
34.24000 329.452
34.28000 321.320
34.32000 317.596
34.36000 326.859
34.40000 331.951
34.44000 330.317
34.48000 312.774
34.52000 314.486
34.56000 331.187
34.60000 311.787
34.64000 325.672
34.68000 316.967
34.72000 323.627
34.76000 324.527
34.80000 314.256
34.84000 316.785
34.88000 319.348
34.92000 316.343
34.96000 327.597
35.00000 330.275
35.04000 318.648
35.08000 327.083
35.12000 314.581
35.16000 307.787
35.20000 316.885
35.24000 306.756
35.28000 308.760
35.32000 308.766
35.36000 322.816
35.40000 306.408
35.44000 318.277
35.48000 281.351
35.52000 306.557
35.56000 309.605
35.60000 316.225
35.64000 313.749
35.68000 297.196
35.72000 308.583
35.76000 305.215
35.80000 314.941
35.84000 292.472
35.88000 322.913
35.92000 305.773
35.96000 294.934
36.00000 318.403
36.04000 308.136
36.08000 297.127
36.12000 308.468
36.16000 299.650
36.20000 287.087
36.24000 300.181
36.28000 299.496
36.32000 306.200
36.36000 312.278
36.40000 300.756
36.44000 298.407
36.48000 299.261
36.52000 297.403
36.56000 298.810
36.60000 307.458
36.64000 306.831
36.68000 311.116
36.72000 297.604
36.76000 298.527
36.80000 305.606
36.84000 292.864
36.88000 298.938
36.92000 304.995
36.96000 317.257
37.00000 306.499
37.04000 320.085
37.08000 316.150
37.12000 300.569
37.16000 300.729
37.20000 325.313
37.24000 298.936
37.28000 310.673
37.32000 315.041
37.36000 297.796
37.40000 291.962
37.44000 315.787
37.48000 293.002
37.52000 294.673
37.56000 299.662
37.60000 283.970
37.64000 290.829
37.68000 274.198
37.72000 292.664
37.76000 296.475
37.80000 297.971
37.84000 293.796
37.88000 278.975
37.92000 293.905
37.96000 301.769
38.00000 301.872
38.04000 299.249
38.08000 289.097
38.12000 307.324
38.16000 295.454
38.20000 297.253
38.24000 322.475
38.28000 343.184
38.32000 351.287
38.36000 346.776
38.40000 395.301
38.44000 472.116
38.48000 531.540
38.52000 655.905
38.56000 815.833
38.60000 1061.571
38.64000 1273.352
38.68000 1453.107
38.72000 1587.208
38.76000 1564.830
38.80000 1500.603
38.84000 1310.302
38.88000 1106.402
38.92000 850.782
38.96000 668.492
39.00000 521.031
39.04000 439.323
39.08000 370.837
39.12000 330.333
39.16000 321.608
39.20000 295.824
39.24000 294.950
39.28000 306.446
39.32000 279.947
39.36000 285.204
39.40000 268.938
39.44000 268.318
39.48000 280.016
39.52000 285.190
39.56000 278.435
39.60000 280.109
39.64000 269.865
39.68000 264.937
39.72000 268.997
39.76000 267.777
39.80000 261.432
39.84000 265.407
39.88000 267.975
39.92000 266.242
39.96000 269.610
40.00000 261.249
40.04000 261.012
40.08000 250.235
40.12000 260.163
40.16000 250.131
40.20000 268.897
40.24000 255.821
40.28000 255.645
40.32000 259.627
40.36000 252.449
40.40000 255.557
40.44000 251.610
40.48000 259.759
40.52000 240.866
40.56000 264.788
40.60000 251.426
40.64000 240.228
40.68000 258.848
40.72000 263.293
40.76000 236.807
40.80000 247.214
40.84000 245.216
40.88000 247.623
40.92000 255.713
40.96000 256.102
41.00000 256.210
41.04000 233.864
41.08000 249.739
41.12000 244.363
41.16000 246.175
41.20000 238.801
41.24000 249.263
41.28000 247.509
41.32000 248.891
41.36000 252.223
41.40000 235.821
41.44000 248.364
41.48000 253.704
41.52000 251.803
41.56000 237.696
41.60000 252.324
41.64000 243.345
41.68000 224.335
41.72000 248.385
41.76000 234.898
41.80000 229.068
41.84000 228.228
41.88000 238.232
41.92000 222.397
41.96000 241.850
42.00000 234.276
42.04000 232.490
42.08000 238.492
42.12000 235.042
42.16000 233.974
42.20000 242.014
42.24000 233.277
42.28000 241.031
42.32000 243.872
42.36000 239.462
42.40000 241.139
42.44000 224.536
42.48000 239.033
42.52000 235.839
42.56000 222.349
42.60000 229.203
42.64000 246.772
42.68000 246.705
42.72000 206.746
42.76000 238.219
42.80000 230.866
42.84000 246.830
42.88000 244.453
42.92000 225.388
42.96000 220.958
43.00000 234.693
43.04000 219.935
43.08000 230.079
43.12000 212.675
43.16000 219.178
43.20000 237.664
43.24000 230.279
43.28000 231.477
43.32000 213.090
43.36000 211.466
43.40000 219.936
43.44000 225.007
43.48000 211.981
43.52000 219.454
43.56000 239.089
43.60000 227.660
43.64000 213.009
43.68000 227.491
43.72000 227.871
43.76000 224.180
43.80000 228.551
43.84000 220.350
43.88000 223.825
43.92000 222.790
43.96000 231.556
44.00000 216.348
44.04000 216.111
44.08000 217.021
44.12000 215.832
44.16000 233.926
44.20000 222.191
44.24000 215.613
44.28000 221.686
44.32000 217.575
44.36000 212.904
44.40000 210.614
44.44000 230.097
44.48000 219.435
44.52000 210.491
44.56000 224.040
44.60000 218.389
44.64000 225.762
44.68000 243.244
44.72000 228.696
44.76000 240.980
44.80000 256.470
44.84000 248.525
44.88000 226.685
44.92000 259.066
44.96000 273.792
45.00000 277.839
45.04000 292.389
45.08000 287.849
45.12000 290.312
45.16000 291.768
45.20000 269.898
45.24000 259.010
45.28000 272.254
45.32000 282.869
45.36000 271.603
45.40000 275.092
45.44000 266.425
45.48000 246.196
45.52000 252.970
45.56000 270.113
45.60000 253.698
45.64000 241.149
45.68000 264.459
45.72000 232.250
45.76000 239.013
45.80000 241.609
45.84000 228.094
45.88000 229.134
45.92000 221.098
45.96000 220.082
46.00000 237.992
46.04000 212.921
46.08000 218.394
46.12000 206.527
46.16000 203.576
46.20000 207.283
46.24000 202.445
46.28000 210.938
46.32000 204.604
46.36000 207.634
46.40000 201.288
46.44000 193.314
46.48000 202.760
46.52000 204.149
46.56000 201.502
46.60000 200.628
46.64000 197.957
46.68000 198.587
46.72000 197.288
46.76000 194.390
46.80000 200.836
46.84000 188.382
46.88000 192.761
46.92000 204.907
46.96000 200.735
47.00000 197.079
47.04000 196.264
47.08000 196.462
47.12000 197.553
47.16000 190.422
47.20000 197.374
47.24000 192.750
47.28000 191.890
47.32000 185.460
47.36000 196.673
47.40000 194.329
47.44000 197.733
47.48000 183.834
47.52000 190.834
47.56000 196.360
47.60000 183.673
47.64000 184.180
47.68000 204.324
47.72000 186.858
47.76000 182.665
47.80000 174.976
47.84000 190.898
47.88000 182.633
47.92000 191.111
47.96000 184.434
48.00000 196.507
48.04000 190.007
48.08000 169.112
48.12000 190.803
48.16000 174.989
48.20000 187.100
48.24000 185.152
48.28000 184.727
48.32000 180.050
48.36000 171.189
48.40000 174.320
48.44000 180.692
48.48000 189.457
48.52000 182.685
48.56000 181.770
48.60000 186.984
48.64000 176.978
48.68000 187.665
48.72000 181.841
48.76000 191.696
48.80000 190.526
48.84000 178.696
48.88000 178.419
48.92000 179.804
48.96000 178.086
49.00000 196.948
49.04000 179.488
49.08000 186.339
49.12000 183.033
49.16000 184.377
49.20000 182.470
49.24000 168.767
49.28000 175.211
49.32000 178.889
49.36000 176.040
49.40000 170.630
49.44000 165.784
49.48000 160.550
49.52000 172.755
49.56000 179.076
49.60000 168.877
49.64000 181.303
49.68000 168.762
49.72000 169.979
49.76000 181.277
49.80000 180.874
49.84000 175.320
49.88000 178.980
49.92000 168.818
49.96000 158.946
50.00000 173.824
50.04000 175.738
50.08000 177.000
50.12000 167.122
50.16000 178.096
50.20000 169.780
50.24000 180.813
50.28000 171.374
50.32000 177.842
50.36000 180.543
50.40000 182.387
50.44000 194.953
50.48000 182.094
50.52000 183.857
50.56000 199.076
50.60000 209.550
50.64000 221.658
50.68000 213.735
50.72000 214.207
50.76000 208.130
50.80000 218.670
50.84000 199.857
50.88000 212.333
50.92000 206.239
50.96000 201.192
51.00000 190.464
51.04000 193.148
51.08000 187.808
51.12000 179.512
51.16000 180.942
51.20000 183.288
51.24000 169.086
51.28000 182.452
51.32000 171.305
51.36000 165.943
51.40000 170.012
51.44000 168.607
51.48000 177.615
51.52000 171.280
51.56000 168.963
51.60000 165.954
51.64000 169.135
51.68000 167.945
51.72000 162.751
51.76000 161.094
51.80000 163.760
51.84000 163.713
51.88000 168.121
51.92000 166.012
51.96000 166.076
52.00000 157.033
52.04000 161.997
52.08000 165.414
52.12000 159.429
52.16000 165.933
52.20000 168.358
52.24000 163.825
52.28000 158.965
52.32000 165.683
52.36000 161.569
52.40000 161.554
52.44000 158.337
52.48000 150.869
52.52000 166.340
52.56000 161.650
52.60000 172.185
52.64000 146.902
52.68000 157.180
52.72000 170.372
52.76000 162.658
52.80000 163.629
52.84000 170.105
52.88000 154.465
52.92000 161.738
52.96000 161.097
53.00000 157.470
53.04000 168.236
53.08000 156.216
53.12000 167.625
53.16000 158.814
53.20000 170.255
53.24000 166.852
53.28000 155.737
53.32000 170.613
53.36000 155.728
53.40000 168.627
53.44000 168.854
53.48000 170.193
53.52000 162.043
53.56000 161.974
53.60000 162.047
53.64000 167.708
53.68000 167.166
53.72000 160.600
53.76000 163.585
53.80000 152.488
53.84000 149.145
53.88000 166.578
53.92000 165.603
53.96000 158.861
54.00000 162.077
54.04000 167.001
54.08000 156.043
54.12000 157.430
54.16000 165.481
54.20000 164.733
54.24000 155.339
54.28000 156.110
54.32000 156.043
54.36000 158.065
54.40000 167.231
54.44000 156.111
54.48000 161.984
54.52000 158.432
54.56000 162.753
54.60000 164.813
54.64000 153.673
54.68000 156.496
54.72000 170.179
54.76000 157.026
54.80000 159.334
54.84000 158.308
54.88000 157.015
54.92000 153.912
54.96000 161.305
55.00000 160.540
55.04000 165.019
55.08000 159.740
55.12000 161.869
55.16000 159.902
55.20000 169.356
55.24000 167.203
55.28000 168.347
55.32000 176.846
55.36000 180.911
55.40000 177.757
55.44000 184.454
55.48000 209.074
55.52000 220.375
55.56000 242.657
55.60000 252.422
55.64000 296.722
55.68000 349.199
55.72000 409.272
55.76000 477.299
55.80000 577.789
55.84000 695.737
55.88000 782.351
55.92000 864.085
55.96000 876.714
56.00000 888.375
56.04000 879.789
56.08000 826.504
56.12000 743.776
56.16000 671.336
56.20000 570.391
56.24000 461.578
56.28000 423.152
56.32000 355.207
56.36000 296.301
56.40000 259.359
56.44000 238.104
56.48000 215.126
56.52000 184.393
56.56000 188.793
56.60000 161.818
56.64000 173.009
56.68000 175.595
56.72000 163.308
56.76000 174.958
56.80000 161.339
56.84000 151.803
56.88000 145.374
56.92000 158.062
56.96000 154.897
57.00000 151.131
57.04000 155.687
57.08000 147.024
57.12000 154.287
57.16000 147.384
57.20000 151.586
57.24000 161.235
57.28000 144.955
57.32000 137.333
57.36000 158.206
57.40000 141.499
57.44000 142.106
57.48000 140.821
57.52000 152.405
57.56000 148.203
57.60000 143.996
57.64000 140.976
57.68000 132.154
57.72000 157.573
57.76000 155.274
57.80000 143.301
57.84000 142.052
57.88000 144.831
57.92000 140.362
57.96000 146.031
58.00000 144.593
58.04000 134.040
58.08000 133.505
58.12000 135.807
58.16000 145.270
58.20000 143.160
58.24000 132.990
58.28000 134.897
58.32000 131.565
58.36000 138.142
58.40000 138.275
58.44000 136.721
58.48000 137.132
58.52000 147.788
58.56000 133.653
58.60000 132.483
58.64000 141.959
58.68000 132.581
58.72000 126.950
58.76000 135.897
58.80000 142.970
58.84000 135.032
58.88000 139.923
58.92000 143.598
58.96000 135.685
59.00000 136.539
59.04000 129.693
59.08000 131.384
59.12000 132.036
59.16000 133.697
59.20000 143.931
59.24000 130.074
59.28000 136.010
59.32000 129.791
59.36000 128.848
59.40000 134.683
59.44000 133.809
59.48000 136.675
59.52000 128.204
59.56000 133.947
59.60000 135.652
59.64000 132.831
59.68000 139.088
59.72000 128.210
59.76000 133.132
59.80000 133.738
59.84000 132.887
59.88000 123.787
59.92000 124.464
59.96000 135.429
60.00000 148.047
60.04000 134.622
60.08000 129.831
60.12000 139.057
60.16000 140.890
60.20000 134.326
60.24000 134.806
60.28000 123.738
60.32000 134.953
60.36000 129.883
60.40000 137.031
60.44000 134.148
60.48000 134.339
60.52000 140.363
60.56000 138.644
60.60000 133.402
60.64000 133.889
60.68000 125.081
60.72000 133.506
60.76000 137.061
60.80000 127.562
60.84000 127.119
60.88000 126.798
60.92000 128.828
60.96000 127.168
61.00000 135.642
61.04000 133.946
61.08000 130.565
61.12000 130.896
61.16000 138.018
61.20000 136.455
61.24000 145.252
61.28000 139.182
61.32000 127.789
61.36000 134.821
61.40000 136.478
61.44000 135.227
61.48000 145.140
61.52000 156.101
61.56000 189.859
61.60000 229.912
61.64000 240.295
61.68000 263.053
61.72000 262.367
61.76000 249.052
61.80000 199.935
61.84000 178.057
61.88000 155.885
61.92000 139.468
61.96000 144.587
62.00000 135.236
62.04000 139.480
62.08000 147.430
62.12000 145.222
62.16000 137.580
62.20000 128.720
62.24000 129.398
62.28000 143.463
62.32000 137.780
62.36000 137.776
62.40000 141.179
62.44000 140.021
62.48000 140.348
62.52000 132.132
62.56000 133.902
62.60000 134.704
62.64000 137.946
62.68000 138.413
62.72000 133.958
62.76000 145.360
62.80000 150.035
62.84000 134.500
62.88000 144.852
62.92000 139.495
62.96000 129.572
63.00000 132.682
63.04000 134.353
63.08000 135.500
63.12000 132.565
63.16000 152.148
63.20000 144.408
63.24000 148.670
63.28000 139.234
63.32000 148.429
63.36000 146.813
63.40000 145.021
63.44000 146.839
63.48000 137.883
63.52000 144.654
63.56000 140.088
63.60000 147.159
63.64000 141.979
63.68000 145.469
63.72000 149.673
63.76000 143.594
63.80000 152.950
63.84000 146.991
63.88000 161.451
63.92000 145.346
63.96000 144.345
64.00000 152.146
64.04000 138.775
64.08000 158.417
64.12000 157.028
64.16000 157.516
64.20000 156.579
64.24000 154.382
64.28000 163.098
64.32000 161.447
64.36000 160.574
64.40000 157.975
64.44000 158.551
64.48000 157.378
64.52000 155.191
64.56000 169.918
64.60000 179.895
64.64000 170.851
64.68000 178.829
64.72000 174.266
64.76000 172.714
64.80000 173.169
64.84000 158.185
64.88000 174.598
64.92000 187.456
64.96000 173.295
65.00000 172.049
65.04000 182.834
65.08000 192.842
65.12000 193.927
65.16000 195.197
65.20000 222.705
65.24000 224.481
65.28000 215.005
65.32000 252.175
65.36000 268.811
65.40000 278.975
65.44000 280.727
65.48000 286.361
65.52000 301.895
65.56000 321.364
65.60000 331.064
65.64000 383.752
65.68000 444.182
65.72000 553.106
65.76000 787.318
65.80000 945.321
65.84000 1058.663
65.88000 1084.479
65.92000 1060.374
65.96000 904.943
66.00000 642.786
66.04000 459.531
66.08000 373.155
66.12000 332.189
66.16000 307.936
66.20000 299.102
66.24000 299.940
66.28000 338.415
66.32000 373.816
66.36000 419.396
66.40000 421.695
66.44000 461.589
66.48000 414.801
66.52000 396.021
66.56000 349.245
66.60000 318.760
66.64000 296.633
66.68000 303.659
66.72000 301.610
66.76000 309.877
66.80000 315.900
66.84000 311.462
66.88000 315.315
66.92000 331.009
66.96000 329.685
67.00000 325.027
67.04000 329.822
67.08000 335.953
67.12000 348.162
67.16000 362.833
67.20000 346.357
67.24000 348.833
67.28000 350.234
67.32000 372.229
67.36000 367.692
67.40000 376.992
67.44000 382.808
67.48000 382.124
67.52000 411.633
67.56000 404.994
67.60000 412.459
67.64000 421.804
67.68000 437.022
67.72000 439.448
67.76000 453.289
67.80000 468.984
67.84000 460.167
67.88000 467.426
67.92000 470.476
67.96000 495.660
68.00000 497.084
68.04000 510.253
68.08000 535.617
68.12000 522.925
68.16000 527.247
68.20000 541.411
68.24000 566.867
68.28000 575.659
68.32000 607.930
68.36000 636.396
68.40000 636.669
68.44000 646.862
68.48000 708.705
68.52000 751.432
68.56000 796.797
68.60000 910.158
68.64000 1047.275
68.68000 1240.599
68.72000 1426.925
68.76000 1596.672
68.80000 1812.397
68.84000 2177.376
68.88000 2673.949
68.92000 4107.520
68.96000 11129.644
69.00000 25481.111
69.04000 41288.910
69.08000 49442.574
69.12000 51294.602
69.16000 53444.207
69.20000 53793.527
69.24000 45948.395
69.28000 34551.785
69.32000 28233.502
69.36000 25327.117
69.40000 21219.090
69.44000 13816.019
69.48000 6089.605
69.52000 2851.213
69.56000 1791.071
69.60000 1390.997
69.64000 1145.024
69.68000 1023.523
69.72000 944.291
69.76000 847.905
69.80000 804.690
69.84000 746.498
69.88000 722.320
69.92000 692.924
69.96000 667.888
70.00000 627.781