File: XRD/XRD/24-09-2025 Dep 3/XY Data/BTO_Mapping_Theta2Theta_24-09-2025_001_16_9-271_28-532.xy
20.00000 541.758
20.04000 594.349
20.08000 584.834
20.12000 558.171
20.16000 558.359
20.20000 575.866
20.24000 553.761
20.28000 545.384
20.32000 566.303
20.36000 542.347
20.40000 553.245
20.44000 565.619
20.48000 564.563
20.52000 545.424
20.56000 549.702
20.60000 567.198
20.64000 576.015
20.68000 563.947
20.72000 562.734
20.76000 558.029
20.80000 563.071
20.84000 535.424
20.88000 549.177
20.92000 527.943
20.96000 553.714
21.00000 549.954
21.04000 543.917
21.08000 553.807
21.12000 558.831
21.16000 534.069
21.20000 546.830
21.24000 541.743
21.28000 548.192
21.32000 540.508
21.36000 541.549
21.40000 542.809
21.44000 530.192
21.48000 539.557
21.52000 517.107
21.56000 545.055
21.60000 550.930
21.64000 560.980
21.68000 547.669
21.72000 540.293
21.76000 558.841
21.80000 562.973
21.84000 554.960
21.88000 578.117
21.92000 571.413
21.96000 589.750
22.00000 580.977
22.04000 580.731
22.08000 589.966
22.12000 601.292
22.16000 616.834
22.20000 592.075
22.24000 586.916
22.28000 624.839
22.32000 580.269
22.36000 603.376
22.40000 567.503
22.44000 562.695
22.48000 560.654
22.52000 546.598
22.56000 542.994
22.60000 533.681
22.64000 532.802
22.68000 534.813
22.72000 527.984
22.76000 507.059
22.80000 526.860
22.84000 501.932
22.88000 502.715
22.92000 525.522
22.96000 503.734
23.00000 513.252
23.04000 511.277
23.08000 508.048
23.12000 528.563
23.16000 507.564
23.20000 489.477
23.24000 503.086
23.28000 495.075
23.32000 486.555
23.36000 509.740
23.40000 514.513
23.44000 500.200
23.48000 500.381
23.52000 504.454
23.56000 492.851
23.60000 496.579
23.64000 520.691
23.68000 498.539
23.72000 481.734
23.76000 487.672
23.80000 490.750
23.84000 480.721
23.88000 496.527
23.92000 500.491
23.96000 492.007
24.00000 497.230
24.04000 502.273
24.08000 486.136
24.12000 496.346
24.16000 493.690
24.20000 488.125
24.24000 504.965
24.28000 479.745
24.32000 482.172
24.36000 498.887
24.40000 486.880
24.44000 487.788
24.48000 473.352
24.52000 466.912
24.56000 474.501
24.60000 476.736
24.64000 477.467
24.68000 492.429
24.72000 488.124
24.76000 473.280
24.80000 476.162
24.84000 467.285
24.88000 486.729
24.92000 465.614
24.96000 477.114
25.00000 470.283
25.04000 491.117
25.08000 467.743
25.12000 466.442
25.16000 454.194
25.20000 465.783
25.24000 460.167
25.28000 466.103
25.32000 464.432
25.36000 454.611
25.40000 474.137
25.44000 456.041
25.48000 484.098
25.52000 452.970
25.56000 464.464
25.60000 477.271
25.64000 466.993
25.68000 471.976
25.72000 452.697
25.76000 452.315
25.80000 480.759
25.84000 471.222
25.88000 464.793
25.92000 455.208
25.96000 453.996
26.00000 453.057
26.04000 456.194
26.08000 471.073
26.12000 448.118
26.16000 452.377
26.20000 456.757
26.24000 455.396
26.28000 452.146
26.32000 461.554
26.36000 427.066
26.40000 455.752
26.44000 443.108
26.48000 455.085
26.52000 461.835
26.56000 462.372
26.60000 468.646
26.64000 450.158
26.68000 437.757
26.72000 451.774
26.76000 437.345
26.80000 432.811
26.84000 442.743
26.88000 439.195
26.92000 462.446
26.96000 441.816
27.00000 461.564
27.04000 446.426
27.08000 427.776
27.12000 431.175
27.16000 436.819
27.20000 446.685
27.24000 437.957
27.28000 428.889
27.32000 433.241
27.36000 419.393
27.40000 432.540
27.44000 445.655
27.48000 433.235
27.52000 430.911
27.56000 426.299
27.60000 431.445
27.64000 444.680
27.68000 418.023
27.72000 438.377
27.76000 430.325
27.80000 424.244
27.84000 431.945
27.88000 412.900
27.92000 426.579
27.96000 434.176
28.00000 417.862
28.04000 435.436
28.08000 422.839
28.12000 409.402
28.16000 412.013
28.20000 421.472
28.24000 421.811
28.28000 439.544
28.32000 411.362
28.36000 426.795
28.40000 427.670
28.44000 412.152
28.48000 413.689
28.52000 429.366
28.56000 418.760
28.60000 397.588
28.64000 418.482
28.68000 393.879
28.72000 408.619
28.76000 424.349
28.80000 403.326
28.84000 414.743
28.88000 410.455
28.92000 416.285
28.96000 417.953
29.00000 417.758
29.04000 408.776
29.08000 394.746
29.12000 427.390
29.16000 412.153
29.20000 376.481
29.24000 402.403
29.28000 406.355
29.32000 415.782
29.36000 414.225
29.40000 403.264
29.44000 405.586
29.48000 407.249
29.52000 416.364
29.56000 406.183
29.60000 422.628
29.64000 410.995
29.68000 394.838
29.72000 403.664
29.76000 393.571
29.80000 386.835
29.84000 388.790
29.88000 410.783
29.92000 410.706
29.96000 416.692
30.00000 442.199
30.04000 439.896
30.08000 427.915
30.12000 426.186
30.16000 423.576
30.20000 411.165
30.24000 423.157
30.28000 429.467
30.32000 406.111
30.36000 408.358
30.40000 413.853
30.44000 414.611
30.48000 419.710
30.52000 407.337
30.56000 420.082
30.60000 419.046
30.64000 417.335
30.68000 418.603
30.72000 433.778
30.76000 413.305
30.80000 423.549
30.84000 417.429
30.88000 436.319
30.92000 442.033
30.96000 458.706
31.00000 469.284
31.04000 494.037
31.08000 532.204
31.12000 609.576
31.16000 717.704
31.20000 849.802
31.24000 1004.949
31.28000 1258.273
31.32000 1466.171
31.36000 1637.175
31.40000 1734.416
31.44000 1804.771
31.48000 1646.638
31.52000 1510.039
31.56000 1328.045
31.60000 1094.012
31.64000 883.489
31.68000 751.493
31.72000 662.739
31.76000 580.557
31.80000 534.056
31.84000 471.914
31.88000 453.461
31.92000 438.290
31.96000 424.978
32.00000 419.842
32.04000 416.576
32.08000 414.931
32.12000 401.946
32.16000 406.177
32.20000 408.865
32.24000 403.101
32.28000 412.754
32.32000 384.903
32.36000 386.577
32.40000 383.071
32.44000 387.181
32.48000 394.143
32.52000 362.250
32.56000 371.650
32.60000 394.495
32.64000 377.620
32.68000 374.159
32.72000 373.273
32.76000 364.992
32.80000 372.559
32.84000 379.854
32.88000 428.163
32.92000 437.308
32.96000 451.310
33.00000 447.986
33.04000 434.194
33.08000 409.006
33.12000 372.715
33.16000 349.988
33.20000 355.628
33.24000 338.631
33.28000 347.307
33.32000 342.938
33.36000 349.483
33.40000 345.968
33.44000 336.287
33.48000 342.638
33.52000 330.879
33.56000 332.618
33.60000 331.617
33.64000 330.465
33.68000 332.057
33.72000 334.444
33.76000 335.364
33.80000 341.858
33.84000 333.941
33.88000 339.014
33.92000 342.061
33.96000 315.279
34.00000 318.056
34.04000 316.785
34.08000 321.064
34.12000 320.377
34.16000 317.378
34.20000 318.369
34.24000 320.153
34.28000 326.354
34.32000 326.036
34.36000 314.820
34.40000 328.638
34.44000 317.841
34.48000 314.326
34.52000 318.413
34.56000 317.450
34.60000 326.859
34.64000 324.411
34.68000 309.143
34.72000 317.813
34.76000 316.132
34.80000 323.976
34.84000 320.491
34.88000 318.181
34.92000 319.608
34.96000 317.699
35.00000 304.426
35.04000 318.631
35.08000 309.481
35.12000 303.724
35.16000 307.379
35.20000 318.125
35.24000 310.780
35.28000 314.778
35.32000 313.902
35.36000 304.289
35.40000 303.493
35.44000 311.736
35.48000 316.572
35.52000 308.608
35.56000 307.869
35.60000 315.913
35.64000 309.576
35.68000 305.389
35.72000 309.825
35.76000 308.512
35.80000 299.540
35.84000 295.926
35.88000 306.720
35.92000 311.220
35.96000 307.384
36.00000 309.012
36.04000 289.818
36.08000 290.829
36.12000 289.954
36.16000 294.984
36.20000 305.422
36.24000 297.647
36.28000 289.353
36.32000 305.549
36.36000 289.342
36.40000 294.798
36.44000 295.763
36.48000 301.911
36.52000 299.814
36.56000 309.335
36.60000 303.500
36.64000 305.382
36.68000 296.352
36.72000 282.868
36.76000 299.817
36.80000 292.436
36.84000 307.331
36.88000 300.442
36.92000 318.543
36.96000 316.623
37.00000 304.874
37.04000 313.347
37.08000 306.917
37.12000 314.712
37.16000 309.084
37.20000 308.038
37.24000 291.673
37.28000 300.118
37.32000 289.695
37.36000 312.543
37.40000 302.438
37.44000 277.150
37.48000 293.127
37.52000 297.988
37.56000 304.516
37.60000 296.448
37.64000 294.262
37.68000 295.877
37.72000 277.774
37.76000 295.461
37.80000 295.201
37.84000 287.375
37.88000 298.848
37.92000 299.429
37.96000 296.212
38.00000 291.224
38.04000 277.207
38.08000 305.827
38.12000 305.325
38.16000 309.495
38.20000 301.937
38.24000 299.212
38.28000 296.366
38.32000 307.416
38.36000 326.850
38.40000 358.944
38.44000 413.658
38.48000 475.780
38.52000 563.970
38.56000 714.647
38.60000 901.315
38.64000 1135.472
38.68000 1340.826
38.72000 1512.558
38.76000 1564.410
38.80000 1504.312
38.84000 1366.967
38.88000 1116.267
38.92000 921.584
38.96000 725.598
39.00000 564.293
39.04000 459.364
39.08000 400.966
39.12000 338.071
39.16000 331.710
39.20000 307.905
39.24000 294.469
39.28000 280.265
39.32000 290.077
39.36000 281.050
39.40000 279.021
39.44000 281.872
39.48000 278.199
39.52000 279.297
39.56000 280.904
39.60000 282.830
39.64000 270.830
39.68000 280.819
39.72000 273.761
39.76000 277.640
39.80000 287.443
39.84000 282.403
39.88000 267.044
39.92000 264.649
39.96000 251.358
40.00000 266.902
40.04000 252.880
40.08000 259.727
40.12000 249.878
40.16000 247.394
40.20000 256.669
40.24000 259.062
40.28000 256.459
40.32000 258.303
40.36000 251.174
40.40000 254.657
40.44000 268.149
40.48000 258.444
40.52000 251.435
40.56000 243.024
40.60000 238.074
40.64000 249.750
40.68000 249.422
40.72000 244.022
40.76000 236.506
40.80000 246.865
40.84000 250.404
40.88000 242.185
40.92000 237.730
40.96000 238.225
41.00000 244.952
41.04000 241.641
41.08000 238.179
41.12000 252.196
41.16000 239.806
41.20000 247.832
41.24000 236.584
41.28000 247.774
41.32000 241.165
41.36000 230.677
41.40000 240.503
41.44000 235.561
41.48000 245.228
41.52000 226.928
41.56000 232.382
41.60000 236.301
41.64000 240.383
41.68000 242.867
41.72000 237.267
41.76000 247.606
41.80000 233.305
41.84000 239.921
41.88000 225.602
41.92000 230.481
41.96000 231.165
42.00000 244.145
42.04000 232.087
42.08000 234.023
42.12000 222.277
42.16000 220.891
42.20000 237.420
42.24000 239.137
42.28000 220.842
42.32000 229.678
42.36000 242.416
42.40000 222.639
42.44000 224.797
42.48000 241.640
42.52000 234.905
42.56000 239.936
42.60000 227.508
42.64000 223.568
42.68000 226.134
42.72000 229.549
42.76000 225.267
42.80000 221.521
42.84000 233.941
42.88000 226.183
42.92000 226.008
42.96000 223.931
43.00000 221.325
43.04000 220.506
43.08000 214.659
43.12000 223.338
43.16000 217.419
43.20000 224.356
43.24000 215.713
43.28000 228.714
43.32000 216.027
43.36000 215.024
43.40000 210.286
43.44000 213.269
43.48000 216.946
43.52000 223.816
43.56000 218.677
43.60000 219.782
43.64000 231.857
43.68000 217.797
43.72000 221.185
43.76000 214.216
43.80000 217.202
43.84000 221.556
43.88000 216.861
43.92000 217.298
43.96000 220.845
44.00000 219.216
44.04000 224.866
44.08000 215.338
44.12000 219.114
44.16000 221.125
44.20000 219.460
44.24000 220.298
44.28000 208.435
44.32000 208.991
44.36000 220.763
44.40000 208.628
44.44000 214.172
44.48000 222.376
44.52000 216.436
44.56000 210.963
44.60000 218.417
44.64000 223.556
44.68000 233.709
44.72000 225.211
44.76000 224.391
44.80000 225.036
44.84000 228.505
44.88000 227.914
44.92000 226.942
44.96000 242.062
45.00000 236.219
45.04000 250.891
45.08000 268.836
45.12000 268.714
45.16000 280.963
45.20000 252.439
45.24000 261.713
45.28000 255.286
45.32000 266.208
45.36000 262.105
45.40000 250.901
45.44000 251.071
45.48000 244.731
45.52000 234.361
45.56000 239.105
45.60000 247.390
45.64000 244.564
45.68000 224.797
45.72000 238.407
45.76000 237.801
45.80000 234.367
45.84000 236.223
45.88000 228.418
45.92000 208.239
45.96000 230.390
46.00000 226.297
46.04000 215.274
46.08000 199.485
46.12000 202.926
46.16000 210.499
46.20000 197.978
46.24000 204.359
46.28000 187.422
46.32000 203.114
46.36000 206.162
46.40000 217.862
46.44000 200.835
46.48000 198.172
46.52000 188.460
46.56000 204.680
46.60000 202.778
46.64000 205.521
46.68000 196.948
46.72000 190.913
46.76000 195.940
46.80000 204.142
46.84000 197.691
46.88000 200.580
46.92000 191.532
46.96000 208.644
47.00000 194.014
47.04000 203.845
47.08000 187.983
47.12000 199.731
47.16000 195.021
47.20000 185.611
47.24000 198.072
47.28000 182.561
47.32000 195.568
47.36000 195.800
47.40000 185.893
47.44000 189.893
47.48000 189.271
47.52000 188.136
47.56000 195.349
47.60000 188.534
47.64000 182.772
47.68000 185.407
47.72000 186.031
47.76000 187.366
47.80000 174.018
47.84000 179.615
47.88000 184.849
47.92000 184.791
47.96000 183.310
48.00000 193.016
48.04000 195.829
48.08000 187.376
48.12000 182.101
48.16000 183.274
48.20000 194.343
48.24000 184.873
48.28000 173.564
48.32000 175.441
48.36000 185.665
48.40000 177.808
48.44000 166.492
48.48000 186.172
48.52000 184.818
48.56000 167.775
48.60000 193.514
48.64000 178.996
48.68000 180.744
48.72000 184.741
48.76000 185.822
48.80000 176.189
48.84000 172.932
48.88000 169.101
48.92000 185.316
48.96000 175.362
49.00000 168.690
49.04000 174.875
49.08000 175.348
49.12000 171.334
49.16000 168.425
49.20000 189.455
49.24000 174.470
49.28000 164.912
49.32000 181.422
49.36000 173.513
49.40000 172.320
49.44000 175.151
49.48000 174.002
49.52000 174.556
49.56000 160.758
49.60000 169.187
49.64000 168.884
49.68000 169.740
49.72000 168.607
49.76000 174.243
49.80000 177.067
49.84000 171.709
49.88000 165.342
49.92000 170.858
49.96000 175.216
50.00000 182.577
50.04000 187.742
50.08000 175.981
50.12000 178.606
50.16000 166.887
50.20000 170.001
50.24000 166.149
50.28000 189.264
50.32000 174.672
50.36000 175.609
50.40000 182.676
50.44000 175.414
50.48000 184.732
50.52000 189.580
50.56000 186.056
50.60000 184.722
50.64000 190.660
50.68000 204.351
50.72000 190.842
50.76000 195.262
50.80000 204.025
50.84000 184.925
50.88000 208.629
50.92000 190.770
50.96000 192.371
51.00000 188.853
51.04000 186.257
51.08000 184.037
51.12000 179.788
51.16000 180.453
51.20000 168.151
51.24000 156.068
51.28000 170.306
51.32000 170.050
51.36000 165.675
51.40000 168.039
51.44000 169.726
51.48000 165.830
51.52000 168.132
51.56000 168.038
51.60000 162.845
51.64000 156.871
51.68000 158.797
51.72000 161.990
51.76000 152.107
51.80000 155.590
51.84000 159.831
51.88000 164.600
51.92000 165.770
51.96000 156.204
52.00000 152.112
52.04000 165.757
52.08000 157.199
52.12000 160.780
52.16000 155.911
52.20000 165.758
52.24000 162.013
52.28000 166.751
52.32000 152.967
52.36000 158.615
52.40000 156.055
52.44000 148.665
52.48000 150.857
52.52000 160.285
52.56000 165.278
52.60000 142.217
52.64000 158.794
52.68000 159.992
52.72000 156.043
52.76000 156.417
52.80000 160.671
52.84000 147.566
52.88000 158.896
52.92000 151.398
52.96000 151.132
53.00000 154.526
53.04000 164.111
53.08000 151.996
53.12000 154.260
53.16000 157.977
53.20000 154.913
53.24000 153.353
53.28000 159.612
53.32000 164.553
53.36000 163.217
53.40000 162.026
53.44000 157.600
53.48000 166.759
53.52000 163.447
53.56000 170.749
53.60000 160.166
53.64000 166.194
53.68000 156.970
53.72000 161.427
53.76000 156.284
53.80000 159.747
53.84000 149.281
53.88000 158.564
53.92000 147.966
53.96000 153.275
54.00000 153.081
54.04000 158.641
54.08000 166.074
54.12000 152.963
54.16000 159.595
54.20000 150.691
54.24000 160.785
54.28000 160.330
54.32000 162.022
54.36000 154.951
54.40000 152.831
54.44000 154.787
54.48000 158.261
54.52000 150.087
54.56000 149.373
54.60000 159.024
54.64000 159.972
54.68000 151.824
54.72000 165.957
54.76000 150.187
54.80000 154.882
54.84000 154.495
54.88000 163.023
54.92000 167.495
54.96000 153.695
55.00000 158.525
55.04000 157.059
55.08000 159.244
55.12000 167.110
55.16000 161.254
55.20000 159.314
55.24000 166.594
55.28000 157.256
55.32000 166.746
55.36000 171.532
55.40000 168.431
55.44000 178.039
55.48000 178.454
55.52000 203.811
55.56000 211.223
55.60000 236.797
55.64000 264.672
55.68000 316.607
55.72000 383.930
55.76000 437.906
55.80000 526.280
55.84000 618.272
55.88000 716.187
55.92000 797.558
55.96000 869.149
56.00000 874.408
56.04000 901.191
56.08000 866.223
56.12000 795.149
56.16000 727.632
56.20000 630.587
56.24000 539.852
56.28000 448.887
56.32000 358.634
56.36000 317.518
56.40000 281.703
56.44000 249.169
56.48000 227.176
56.52000 195.101
56.56000 179.899
56.60000 170.480
56.64000 198.264
56.68000 156.872
56.72000 159.162
56.76000 150.163
56.80000 156.253
56.84000 162.728
56.88000 154.440
56.92000 151.127
56.96000 153.822
57.00000 159.786
57.04000 153.804
57.08000 147.471
57.12000 151.880
57.16000 153.546
57.20000 145.968
57.24000 145.001
57.28000 150.789
57.32000 152.436
57.36000 134.403
57.40000 153.296
57.44000 152.169
57.48000 148.143
57.52000 142.188
57.56000 149.888
57.60000 143.065
57.64000 136.805
57.68000 133.711
57.72000 148.162
57.76000 142.549
57.80000 146.583
57.84000 144.540
57.88000 141.037
57.92000 141.211
57.96000 142.808
58.00000 134.995
58.04000 137.349
58.08000 140.173
58.12000 134.764
58.16000 137.218
58.20000 144.835
58.24000 132.269
58.28000 146.180
58.32000 137.506
58.36000 143.716
58.40000 147.704
58.44000 139.060
58.48000 133.812
58.52000 130.238
58.56000 142.602
58.60000 141.508
58.64000 136.829
58.68000 135.027
58.72000 133.752
58.76000 137.535
58.80000 133.902
58.84000 134.995
58.88000 137.273
58.92000 140.980
58.96000 133.776
59.00000 140.018
59.04000 132.273
59.08000 138.478
59.12000 132.882
59.16000 126.862
59.20000 125.653
59.24000 129.698
59.28000 136.302
59.32000 124.543
59.36000 133.625
59.40000 133.521
59.44000 138.087
59.48000 119.875
59.52000 132.328
59.56000 137.256
59.60000 130.456
59.64000 114.418
59.68000 119.346
59.72000 123.265
59.76000 133.297
59.80000 128.467
59.84000 138.489
59.88000 140.105
59.92000 130.913
59.96000 127.459
60.00000 133.535
60.04000 132.055
60.08000 134.889
60.12000 128.853
60.16000 126.864
60.20000 138.360
60.24000 132.721
60.28000 130.278
60.32000 129.294
60.36000 134.094
60.40000 132.946
60.44000 134.698
60.48000 129.705
60.52000 127.942
60.56000 139.249
60.60000 122.086
60.64000 124.579
60.68000 125.032
60.72000 131.785
60.76000 126.755
60.80000 134.122
60.84000 135.815
60.88000 133.882
60.92000 129.971
60.96000 137.843
61.00000 133.955
61.04000 128.168
61.08000 130.387
61.12000 137.540
61.16000 141.394
61.20000 136.302
61.24000 146.800
61.28000 134.840
61.32000 132.363
61.36000 136.442
61.40000 133.760
61.44000 140.152
61.48000 143.262
61.52000 156.299
61.56000 186.569
61.60000 234.336
61.64000 243.272
61.68000 257.139
61.72000 264.745
61.76000 251.662
61.80000 207.720
61.84000 176.237
61.88000 144.297
61.92000 138.591
61.96000 130.707
62.00000 125.445
62.04000 138.324
62.08000 133.964
62.12000 142.887
62.16000 133.426
62.20000 145.876
62.24000 142.203
62.28000 132.422
62.32000 147.774
62.36000 141.265
62.40000 136.812
62.44000 137.548
62.48000 142.358
62.52000 133.140
62.56000 138.915
62.60000 138.233
62.64000 130.487
62.68000 139.930
62.72000 134.569
62.76000 142.240
62.80000 132.396
62.84000 144.120
62.88000 134.364
62.92000 142.190
62.96000 143.603
63.00000 144.782
63.04000 144.414
63.08000 139.707
63.12000 147.083
63.16000 135.418
63.20000 144.317
63.24000 143.974
63.28000 135.258
63.32000 144.687
63.36000 136.223
63.40000 141.346
63.44000 155.211
63.48000 152.996
63.52000 139.438
63.56000 143.549
63.60000 140.641
63.64000 148.459
63.68000 150.503
63.72000 144.238
63.76000 151.033
63.80000 158.736
63.84000 152.627
63.88000 148.624
63.92000 156.389
63.96000 161.005
64.00000 157.776
64.04000 156.703
64.08000 155.902
64.12000 158.625
64.16000 153.431
64.20000 154.431
64.24000 145.579
64.28000 153.409
64.32000 148.320
64.36000 158.084
64.40000 157.510
64.44000 164.683
64.48000 151.433
64.52000 159.162
64.56000 160.091
64.60000 159.658
64.64000 171.942
64.68000 162.474
64.72000 168.065
64.76000 171.835
64.80000 165.674
64.84000 172.785
64.88000 182.613
64.92000 180.490
64.96000 172.352
65.00000 166.254
65.04000 183.583
65.08000 180.594
65.12000 195.016
65.16000 200.261
65.20000 205.499
65.24000 206.635
65.28000 221.097
65.32000 217.706
65.36000 226.281
65.40000 241.985
65.44000 259.285
65.48000 262.455
65.52000 291.754
65.56000 296.944
65.60000 321.738
65.64000 354.152
65.68000 405.922
65.72000 536.190
65.76000 738.146
65.80000 923.504
65.84000 1039.598
65.88000 1072.761
65.92000 1045.619
65.96000 901.722
66.00000 678.331
66.04000 460.301
66.08000 360.337
66.12000 330.408
66.16000 302.139
66.20000 309.067
66.24000 313.278
66.28000 340.004
66.32000 379.376
66.36000 418.027
66.40000 432.564
66.44000 419.158
66.48000 435.101
66.52000 403.679
66.56000 375.244
66.60000 343.508
66.64000 315.606
66.68000 307.072
66.72000 301.204
66.76000 302.739
66.80000 303.964
66.84000 295.358
66.88000 303.637
66.92000 316.128
66.96000 326.949
67.00000 332.341
67.04000 336.823
67.08000 335.265
67.12000 353.665
67.16000 352.479
67.20000 363.972
67.24000 362.328
67.28000 358.160
67.32000 368.151
67.36000 377.191
67.40000 381.497
67.44000 390.722
67.48000 423.736
67.52000 404.429
67.56000 397.660
67.60000 411.986
67.64000 419.400
67.68000 432.988
67.72000 434.547
67.76000 441.914
67.80000 447.358
67.84000 464.541
67.88000 485.199
67.92000 473.752
67.96000 500.815
68.00000 503.499
68.04000 494.266
68.08000 527.386
68.12000 540.211
68.16000 532.361
68.20000 567.140
68.24000 559.043
68.28000 564.306
68.32000 598.343
68.36000 644.444
68.40000 641.654
68.44000 673.764
68.48000 688.983
68.52000 752.290
68.56000 783.601
68.60000 843.483
68.64000 1023.729
68.68000 1159.338
68.72000 1363.957
68.76000 1541.916
68.80000 1751.323
68.84000 2030.535
68.88000 2513.424
68.92000 3635.319
68.96000 9684.091
69.00000 23033.428
69.04000 38805.980
69.08000 47655.758
69.12000 49991.484
69.16000 51801.207
69.20000 52602.516
69.24000 45817.484
69.28000 34338.879
69.32000 27528.473
69.36000 24974.063
69.40000 21289.516
69.44000 14252.104
69.48000 6415.221
69.52000 2900.149
69.56000 1746.453
69.60000 1381.822
69.64000 1168.309
69.68000 1033.236
69.72000 931.029
69.76000 864.113
69.80000 765.769
69.84000 725.502
69.88000 713.502
69.92000 676.975
69.96000 657.056
70.00000 624.720