File: XRD/XRD/24-09-2025 Dep 3/XY Data/BTO_Mapping_Theta2Theta_24-09-2025_001_30_-9-781_2-079.xy
20.00000 576.985
20.04000 555.380
20.08000 568.184
20.12000 574.881
20.16000 566.204
20.20000 545.038
20.24000 583.107
20.28000 557.714
20.32000 553.053
20.36000 575.005
20.40000 552.530
20.44000 558.105
20.48000 555.901
20.52000 555.578
20.56000 576.198
20.60000 566.307
20.64000 558.276
20.68000 536.420
20.72000 550.208
20.76000 550.468
20.80000 539.639
20.84000 557.949
20.88000 549.940
20.92000 548.123
20.96000 540.768
21.00000 547.870
21.04000 571.834
21.08000 577.149
21.12000 544.263
21.16000 548.823
21.20000 561.871
21.24000 538.069
21.28000 553.793
21.32000 546.395
21.36000 552.261
21.40000 552.056
21.44000 540.383
21.48000 550.156
21.52000 546.344
21.56000 547.045
21.60000 554.989
21.64000 577.349
21.68000 563.761
21.72000 578.421
21.76000 603.955
21.80000 596.576
21.84000 610.711
21.88000 659.090
21.92000 707.030
21.96000 769.669
22.00000 796.631
22.04000 788.565
22.08000 792.299
22.12000 778.569
22.16000 720.301
22.20000 698.418
22.24000 641.178
22.28000 651.709
22.32000 621.151
22.36000 599.936
22.40000 575.594
22.44000 577.583
22.48000 564.407
22.52000 556.920
22.56000 549.078
22.60000 544.947
22.64000 528.627
22.68000 513.827
22.72000 543.319
22.76000 528.789
22.80000 509.298
22.84000 513.783
22.88000 519.459
22.92000 501.944
22.96000 515.139
23.00000 523.033
23.04000 524.380
23.08000 520.255
23.12000 518.583
23.16000 529.329
23.20000 498.781
23.24000 509.346
23.28000 517.823
23.32000 500.923
23.36000 498.595
23.40000 494.918
23.44000 497.832
23.48000 508.368
23.52000 510.442
23.56000 492.216
23.60000 519.765
23.64000 506.602
23.68000 520.841
23.72000 505.445
23.76000 511.215
23.80000 502.298
23.84000 501.915
23.88000 499.880
23.92000 502.001
23.96000 494.855
24.00000 478.035
24.04000 511.921
24.08000 499.516
24.12000 492.593
24.16000 469.026
24.20000 476.395
24.24000 462.760
24.28000 489.354
24.32000 490.286
24.36000 493.835
24.40000 493.718
24.44000 499.322
24.48000 480.875
24.52000 492.674
24.56000 492.800
24.60000 489.864
24.64000 475.670
24.68000 474.315
24.72000 466.959
24.76000 494.374
24.80000 493.875
24.84000 487.239
24.88000 467.376
24.92000 492.964
24.96000 480.840
25.00000 478.126
25.04000 469.541
25.08000 473.623
25.12000 471.402
25.16000 482.174
25.20000 475.702
25.24000 457.794
25.28000 465.026
25.32000 460.911
25.36000 475.256
25.40000 482.164
25.44000 473.969
25.48000 449.336
25.52000 462.622
25.56000 470.744
25.60000 447.881
25.64000 465.412
25.68000 482.527
25.72000 454.294
25.76000 450.331
25.80000 452.942
25.84000 474.788
25.88000 465.667
25.92000 464.888
25.96000 476.538
26.00000 449.725
26.04000 458.523
26.08000 479.282
26.12000 460.200
26.16000 453.438
26.20000 474.808
26.24000 446.587
26.28000 468.185
26.32000 459.833
26.36000 457.228
26.40000 465.716
26.44000 452.612
26.48000 459.260
26.52000 450.561
26.56000 455.101
26.60000 456.520
26.64000 430.778
26.68000 438.204
26.72000 452.214
26.76000 459.410
26.80000 458.488
26.84000 458.430
26.88000 459.660
26.92000 440.195
26.96000 449.572
27.00000 431.187
27.04000 456.859
27.08000 455.634
27.12000 436.093
27.16000 432.861
27.20000 436.654
27.24000 423.881
27.28000 438.933
27.32000 430.889
27.36000 442.456
27.40000 437.654
27.44000 440.224
27.48000 449.269
27.52000 431.234
27.56000 444.672
27.60000 437.225
27.64000 438.390
27.68000 434.558
27.72000 452.466
27.76000 434.648
27.80000 434.033
27.84000 419.897
27.88000 435.934
27.92000 434.774
27.96000 422.038
28.00000 430.514
28.04000 446.550
28.08000 448.803
28.12000 447.446
28.16000 434.193
28.20000 422.284
28.24000 429.164
28.28000 448.590
28.32000 445.491
28.36000 429.630
28.40000 443.471
28.44000 421.860
28.48000 417.836
28.52000 424.987
28.56000 427.056
28.60000 437.647
28.64000 424.541
28.68000 438.431
28.72000 420.903
28.76000 417.911
28.80000 424.550
28.84000 430.446
28.88000 424.715
28.92000 432.702
28.96000 404.818
29.00000 426.033
29.04000 426.533
29.08000 403.871
29.12000 416.201
29.16000 427.958
29.20000 428.880
29.24000 413.244
29.28000 429.314
29.32000 422.223
29.36000 413.421
29.40000 418.912
29.44000 416.495
29.48000 404.220
29.52000 418.354
29.56000 409.171
29.60000 420.254
29.64000 414.073
29.68000 407.542
29.72000 415.230
29.76000 435.659
29.80000 427.333
29.84000 436.291
29.88000 429.980
29.92000 467.078
29.96000 451.920
30.00000 464.523
30.04000 449.820
30.08000 460.643
30.12000 447.371
30.16000 459.433
30.20000 452.325
30.24000 461.344
30.28000 435.884
30.32000 435.523
30.36000 441.364
30.40000 438.167
30.44000 429.864
30.48000 443.963
30.52000 436.962
30.56000 445.360
30.60000 456.040
30.64000 461.624
30.68000 448.183
30.72000 461.448
30.76000 484.014
30.80000 469.679
30.84000 462.872
30.88000 506.324
30.92000 522.599
30.96000 565.250
31.00000 632.664
31.04000 702.622
31.08000 871.515
31.12000 1113.823
31.16000 1485.267
31.20000 1888.633
31.24000 2383.122
31.28000 2920.617
31.32000 3356.986
31.36000 3599.126
31.40000 3671.275
31.44000 3431.386
31.48000 3043.147
31.52000 2507.796
31.56000 2006.385
31.60000 1514.126
31.64000 1180.662
31.68000 919.514
31.72000 759.700
31.76000 643.656
31.80000 578.098
31.84000 527.306
31.88000 483.596
31.92000 482.981
31.96000 457.490
32.00000 454.077
32.04000 441.581
32.08000 402.146
32.12000 426.565
32.16000 433.535
32.20000 411.314
32.24000 407.364
32.28000 406.900
32.32000 402.674
32.36000 406.381
32.40000 394.273
32.44000 398.026
32.48000 382.539
32.52000 383.458
32.56000 396.833
32.60000 381.498
32.64000 367.388
32.68000 380.084
32.72000 388.590
32.76000 403.987
32.80000 416.402
32.84000 457.934
32.88000 520.449
32.92000 548.881
32.96000 544.098
33.00000 536.053
33.04000 502.715
33.08000 459.777
33.12000 405.605
33.16000 372.778
33.20000 362.836
33.24000 347.820
33.28000 357.717
33.32000 350.369
33.36000 349.515
33.40000 366.883
33.44000 340.396
33.48000 355.550
33.52000 348.975
33.56000 340.988
33.60000 342.510
33.64000 342.867
33.68000 343.045
33.72000 351.462
33.76000 334.606
33.80000 340.937
33.84000 333.557
33.88000 331.770
33.92000 345.765
33.96000 329.664
34.00000 347.747
34.04000 362.295
34.08000 334.560
34.12000 339.410
34.16000 340.180
34.20000 335.234
34.24000 336.987
34.28000 338.364
34.32000 320.607
34.36000 333.193
34.40000 325.008
34.44000 311.066
34.48000 324.725
34.52000 324.116
34.56000 330.775
34.60000 333.958
34.64000 335.908
34.68000 328.137
34.72000 334.685
34.76000 311.032
34.80000 316.452
34.84000 322.643
34.88000 311.911
34.92000 329.801
34.96000 324.077
35.00000 318.991
35.04000 331.129
35.08000 305.889
35.12000 323.538
35.16000 318.989
35.20000 335.050
35.24000 318.258
35.28000 308.635
35.32000 320.221
35.36000 308.726
35.40000 312.667
35.44000 311.403
35.48000 304.279
35.52000 316.976
35.56000 317.195
35.60000 308.998
35.64000 321.528
35.68000 310.480
35.72000 311.813
35.76000 305.885
35.80000 310.923
35.84000 300.265
35.88000 321.122
35.92000 311.461
35.96000 307.400
36.00000 311.589
36.04000 299.292
36.08000 294.942
36.12000 300.447
36.16000 293.791
36.20000 302.878
36.24000 301.862
36.28000 300.867
36.32000 289.221
36.36000 291.973
36.40000 282.737
36.44000 302.189
36.48000 309.660
36.52000 288.878
36.56000 302.656
36.60000 306.532
36.64000 305.847
36.68000 309.624
36.72000 301.031
36.76000 303.871
36.80000 310.970
36.84000 303.889
36.88000 317.975
36.92000 305.763
36.96000 320.318
37.00000 300.475
37.04000 316.609
37.08000 313.104
37.12000 324.207
37.16000 304.016
37.20000 300.854
37.24000 306.976
37.28000 290.388
37.32000 292.677
37.36000 302.461
37.40000 293.394
37.44000 291.230
37.48000 283.563
37.52000 298.331
37.56000 308.511
37.60000 287.552
37.64000 301.198
37.68000 285.048
37.72000 283.885
37.76000 292.693
37.80000 310.086
37.84000 312.310
37.88000 302.766
37.92000 295.983
37.96000 312.317
38.00000 308.315
38.04000 307.141
38.08000 307.534
38.12000 322.267
38.16000 319.303
38.20000 310.420
38.24000 337.494
38.28000 335.374
38.32000 361.805
38.36000 390.029
38.40000 446.890
38.44000 522.527
38.48000 625.276
38.52000 786.935
38.56000 958.621
38.60000 1123.352
38.64000 1293.864
38.68000 1362.885
38.72000 1341.131
38.76000 1293.843
38.80000 1158.535
38.84000 976.211
38.88000 777.715
38.92000 623.024
38.96000 516.847
39.00000 445.837
39.04000 378.374
39.08000 341.183
39.12000 324.421
39.16000 310.392
39.20000 302.726
39.24000 302.078
39.28000 287.614
39.32000 294.610
39.36000 302.996
39.40000 294.537
39.44000 272.728
39.48000 276.321
39.52000 270.225
39.56000 267.203
39.60000 264.386
39.64000 288.718
39.68000 274.371
39.72000 277.873
39.76000 270.299
39.80000 264.947
39.84000 273.545
39.88000 267.663
39.92000 277.217
39.96000 250.008
40.00000 253.449
40.04000 254.292
40.08000 258.936
40.12000 239.450
40.16000 265.070
40.20000 266.353
40.24000 254.185
40.28000 252.126
40.32000 255.412
40.36000 254.590
40.40000 264.736
40.44000 263.111
40.48000 262.495
40.52000 246.638
40.56000 254.909
40.60000 260.145
40.64000 264.440
40.68000 255.963
40.72000 242.642
40.76000 244.920
40.80000 253.401
40.84000 254.006
40.88000 253.304
40.92000 247.279
40.96000 237.391
41.00000 241.038
41.04000 247.872
41.08000 246.734
41.12000 255.442
41.16000 266.297
41.20000 247.716
41.24000 242.174
41.28000 249.222
41.32000 246.160
41.36000 240.588
41.40000 244.216
41.44000 239.389
41.48000 251.698
41.52000 245.177
41.56000 248.583
41.60000 244.033
41.64000 231.169
41.68000 247.891
41.72000 237.832
41.76000 241.224
41.80000 236.491
41.84000 221.618
41.88000 219.518
41.92000 240.269
41.96000 242.150
42.00000 246.121
42.04000 249.732
42.08000 236.854
42.12000 227.800
42.16000 228.488
42.20000 245.830
42.24000 239.025
42.28000 235.700
42.32000 235.781
42.36000 235.379
42.40000 233.261
42.44000 231.141
42.48000 229.556
42.52000 238.767
42.56000 233.708
42.60000 214.418
42.64000 245.719
42.68000 252.483
42.72000 221.265
42.76000 232.526
42.80000 233.477
42.84000 226.896
42.88000 229.381
42.92000 245.879
42.96000 230.354
43.00000 233.261
43.04000 237.842
43.08000 230.606
43.12000 233.785
43.16000 233.315
43.20000 229.320
43.24000 233.239
43.28000 232.315
43.32000 222.582
43.36000 218.310
43.40000 226.160
43.44000 212.999
43.48000 227.730
43.52000 241.594
43.56000 225.626
43.60000 234.868
43.64000 231.526
43.68000 228.565
43.72000 226.822
43.76000 223.090
43.80000 232.894
43.84000 227.704
43.88000 231.326
43.92000 231.950
43.96000 212.075
44.00000 232.410
44.04000 210.721
44.08000 228.681
44.12000 222.802
44.16000 240.276
44.20000 227.530
44.24000 223.130
44.28000 230.569
44.32000 220.543
44.36000 223.951
44.40000 228.490
44.44000 239.738
44.48000 236.547
44.52000 230.502
44.56000 242.370
44.60000 236.648
44.64000 231.686
44.68000 244.273
44.72000 272.347
44.76000 271.522
44.80000 282.555
44.84000 316.939
44.88000 345.935
44.92000 379.762
44.96000 399.560
45.00000 431.095
45.04000 436.240
45.08000 433.143
45.12000 417.199
45.16000 398.651
45.20000 378.271
45.24000 359.692
45.28000 344.408
45.32000 330.648
45.36000 318.141
45.40000 302.344
45.44000 284.971
45.48000 286.887
45.52000 272.788
45.56000 265.163
45.60000 236.170
45.64000 237.504
45.68000 257.588
45.72000 249.285
45.76000 240.054
45.80000 226.618
45.84000 229.436
45.88000 230.878
45.92000 228.198
45.96000 231.667
46.00000 209.503
46.04000 226.650
46.08000 223.682
46.12000 212.849
46.16000 199.727
46.20000 204.453
46.24000 210.434
46.28000 216.574
46.32000 201.683
46.36000 204.638
46.40000 209.932
46.44000 217.772
46.48000 204.734
46.52000 198.370
46.56000 208.392
46.60000 206.815
46.64000 195.552
46.68000 199.596
46.72000 205.080
46.76000 202.123
46.80000 203.654
46.84000 183.999
46.88000 201.447
46.92000 193.387
46.96000 196.341
47.00000 187.672
47.04000 189.091
47.08000 205.843
47.12000 194.329
47.16000 204.564
47.20000 199.340
47.24000 201.034
47.28000 194.459
47.32000 189.715
47.36000 199.341
47.40000 187.755
47.44000 192.642
47.48000 188.231
47.52000 184.477
47.56000 186.925
47.60000 186.581
47.64000 180.775
47.68000 188.109
47.72000 177.957
47.76000 180.976
47.80000 191.314
47.84000 190.818
47.88000 188.677
47.92000 182.211
47.96000 180.766
48.00000 194.360
48.04000 188.714
48.08000 181.698
48.12000 181.663
48.16000 177.902
48.20000 181.807
48.24000 185.881
48.28000 180.170
48.32000 183.747
48.36000 170.049
48.40000 181.907
48.44000 185.657
48.48000 188.424
48.52000 183.388
48.56000 195.266
48.60000 182.809
48.64000 173.738
48.68000 182.519
48.72000 190.734
48.76000 189.244
48.80000 172.055
48.84000 186.173
48.88000 187.035
48.92000 176.291
48.96000 185.611
49.00000 183.008
49.04000 175.204
49.08000 179.831
49.12000 171.970
49.16000 180.663
49.20000 195.071
49.24000 169.034
49.28000 178.221
49.32000 172.081
49.36000 175.781
49.40000 170.709
49.44000 185.706
49.48000 183.934
49.52000 170.917
49.56000 166.515
49.60000 180.107
49.64000 176.485
49.68000 177.054
49.72000 172.099
49.76000 181.215
49.80000 183.384
49.84000 177.044
49.88000 180.387
49.92000 181.160
49.96000 186.354
50.00000 167.899
50.04000 176.203
50.08000 183.096
50.12000 191.081
50.16000 187.660
50.20000 178.961
50.24000 175.915
50.28000 194.657
50.32000 194.138
50.36000 194.277
50.40000 209.107
50.44000 200.115
50.48000 240.732
50.52000 236.038
50.56000 255.013
50.60000 262.953
50.64000 267.867
50.68000 272.427
50.72000 271.075
50.76000 281.254
50.80000 261.928
50.84000 243.147
50.88000 232.230
50.92000 225.460
50.96000 216.168
51.00000 209.928
51.04000 192.104
51.08000 196.018
51.12000 184.667
51.16000 180.149
51.20000 177.843
51.24000 176.747
51.28000 157.911
51.32000 179.136
51.36000 179.942
51.40000 177.497
51.44000 180.922
51.48000 184.199
51.52000 175.378
51.56000 170.839
51.60000 175.027
51.64000 167.001
51.68000 161.509
51.72000 169.020
51.76000 169.096
51.80000 158.069
51.84000 165.171
51.88000 148.978
51.92000 166.546
51.96000 175.871
52.00000 163.754
52.04000 163.244
52.08000 153.040
52.12000 158.200
52.16000 169.383
52.20000 154.335
52.24000 154.965
52.28000 166.188
52.32000 164.581
52.36000 160.485
52.40000 170.771
52.44000 157.821
52.48000 157.819
52.52000 159.358
52.56000 160.152
52.60000 154.128
52.64000 153.883
52.68000 152.773
52.72000 157.866
52.76000 168.727
52.80000 160.050
52.84000 155.324
52.88000 150.221
52.92000 161.963
52.96000 153.272
53.00000 158.094
53.04000 153.533
53.08000 158.845
53.12000 156.439
53.16000 160.344
53.20000 162.170
53.24000 160.601
53.28000 159.174
53.32000 173.864
53.36000 168.708
53.40000 157.961
53.44000 162.102
53.48000 164.859
53.52000 156.346
53.56000 167.888
53.60000 157.487
53.64000 163.257
53.68000 164.301
53.72000 165.782
53.76000 148.404
53.80000 153.215
53.84000 147.082
53.88000 168.222
53.92000 163.630
53.96000 159.404
54.00000 148.940
54.04000 160.691
54.08000 166.339
54.12000 154.067
54.16000 153.774
54.20000 164.522
54.24000 155.186
54.28000 166.969
54.32000 152.876
54.36000 159.281
54.40000 159.702
54.44000 158.939
54.48000 158.501
54.52000 170.081
54.56000 158.001
54.60000 160.110
54.64000 158.627
54.68000 143.536
54.72000 153.964
54.76000 161.765
54.80000 159.490
54.84000 152.359
54.88000 166.369
54.92000 162.591
54.96000 166.977
55.00000 161.934
55.04000 160.540
55.08000 164.408
55.12000 164.126
55.16000 163.730
55.20000 161.875
55.24000 160.801
55.28000 174.691
55.32000 167.713
55.36000 187.485
55.40000 180.574
55.44000 199.975
55.48000 217.052
55.52000 224.208
55.56000 252.336
55.60000 299.665
55.64000 336.394
55.68000 396.544
55.72000 474.624
55.76000 574.572
55.80000 671.529
55.84000 727.568
55.88000 768.560
55.92000 817.093
55.96000 815.595
56.00000 791.138
56.04000 721.810
56.08000 643.481
56.12000 545.207
56.16000 471.044
56.20000 389.987
56.24000 333.309
56.28000 297.339
56.32000 256.045
56.36000 245.345
56.40000 223.458
56.44000 196.502
56.48000 196.490
56.52000 174.538
56.56000 187.645
56.60000 172.986
56.64000 173.395
56.68000 168.533
56.72000 166.284
56.76000 155.187
56.80000 154.070
56.84000 154.414
56.88000 150.442
56.92000 143.005
56.96000 158.706
57.00000 151.452
57.04000 142.413
57.08000 162.064
57.12000 145.458
57.16000 141.484
57.20000 142.044
57.24000 136.449
57.28000 147.920
57.32000 143.255
57.36000 152.110
57.40000 157.674
57.44000 146.933
57.48000 148.117
57.52000 158.760
57.56000 153.569
57.60000 142.002
57.64000 151.361
57.68000 137.312
57.72000 140.390
57.76000 144.697
57.80000 142.234
57.84000 147.780
57.88000 135.451
57.92000 138.480
57.96000 143.896
58.00000 139.505
58.04000 143.988
58.08000 134.477
58.12000 131.120
58.16000 141.857
58.20000 142.083
58.24000 141.216
58.28000 148.625
58.32000 137.916
58.36000 136.884
58.40000 132.215
58.44000 133.943
58.48000 147.504
58.52000 138.466
58.56000 141.301
58.60000 144.947
58.64000 129.346
58.68000 141.822
58.72000 143.565
58.76000 146.856
58.80000 138.689
58.84000 145.688
58.88000 134.794
58.92000 126.980
58.96000 137.621
59.00000 134.566
59.04000 132.482
59.08000 134.791
59.12000 129.352
59.16000 133.809
59.20000 136.552
59.24000 133.599
59.28000 134.590
59.32000 147.871
59.36000 141.082
59.40000 139.024
59.44000 132.327
59.48000 131.903
59.52000 140.595
59.56000 129.915
59.60000 142.615
59.64000 141.076
59.68000 131.789
59.72000 141.809
59.76000 141.720
59.80000 136.649
59.84000 130.457
59.88000 126.385
59.92000 134.226
59.96000 127.177
60.00000 132.699
60.04000 116.672
60.08000 136.841
60.12000 129.468
60.16000 130.279
60.20000 123.742
60.24000 128.738
60.28000 143.057
60.32000 138.847
60.36000 138.540
60.40000 138.315
60.44000 132.644
60.48000 130.665
60.52000 130.401
60.56000 130.829
60.60000 135.173
60.64000 138.485
60.68000 131.337
60.72000 136.521
60.76000 136.677
60.80000 126.324
60.84000 140.505
60.88000 135.433
60.92000 136.498
60.96000 132.575
61.00000 130.407
61.04000 137.956
61.08000 133.832
61.12000 135.480
61.16000 133.986
61.20000 136.319
61.24000 138.750
61.28000 136.736
61.32000 133.360
61.36000 135.096
61.40000 133.101
61.44000 140.767
61.48000 139.687
61.52000 178.119
61.56000 213.563
61.60000 238.852
61.64000 279.155
61.68000 306.731
61.72000 295.987
61.76000 273.184
61.80000 220.633
61.84000 171.703
61.88000 154.728
61.92000 156.758
61.96000 147.930
62.00000 133.479
62.04000 137.650
62.08000 137.844
62.12000 125.215
62.16000 147.825
62.20000 155.737
62.24000 137.879
62.28000 141.654
62.32000 138.537
62.36000 132.376
62.40000 139.129
62.44000 145.593
62.48000 139.735
62.52000 139.145
62.56000 142.838
62.60000 136.709
62.64000 129.168
62.68000 149.768
62.72000 141.781
62.76000 142.223
62.80000 148.049
62.84000 151.333
62.88000 148.218
62.92000 149.198
62.96000 138.365
63.00000 148.189
63.04000 143.148
63.08000 143.738
63.12000 142.977
63.16000 138.088
63.20000 152.598
63.24000 138.182
63.28000 143.499
63.32000 150.750
63.36000 156.488
63.40000 145.921
63.44000 142.353
63.48000 145.303
63.52000 141.906
63.56000 146.124
63.60000 152.955
63.64000 148.274
63.68000 150.322
63.72000 139.669
63.76000 158.265
63.80000 145.238
63.84000 155.014
63.88000 149.201
63.92000 146.241
63.96000 147.255
64.00000 161.245
64.04000 160.786
64.08000 165.793
64.12000 154.259
64.16000 149.947
64.20000 150.174
64.24000 155.080
64.28000 159.620
64.32000 161.278
64.36000 167.241
64.40000 172.224
64.44000 167.141
64.48000 170.074
64.52000 163.874
64.56000 182.229
64.60000 164.530
64.64000 168.942
64.68000 174.452
64.72000 179.368
64.76000 175.363
64.80000 177.712
64.84000 187.353
64.88000 185.420
64.92000 196.681
64.96000 199.062
65.00000 197.217
65.04000 203.536
65.08000 212.041
65.12000 220.187
65.16000 237.265
65.20000 250.729
65.24000 268.454
65.28000 298.111
65.32000 324.878
65.36000 334.724
65.40000 347.403
65.44000 370.750
65.48000 389.411
65.52000 425.325
65.56000 424.901
65.60000 456.786
65.64000 486.545
65.68000 558.791
65.72000 715.614
65.76000 955.802
65.80000 1203.836
65.84000 1263.796
65.88000 1282.564
65.92000 1209.487
65.96000 1034.167
66.00000 738.356
66.04000 500.511
66.08000 396.911
66.12000 346.426
66.16000 340.131
66.20000 333.446
66.24000 350.970
66.28000 385.856
66.32000 424.086
66.36000 448.501
66.40000 483.601
66.44000 482.260
66.48000 447.070
66.52000 401.081
66.56000 386.923
66.60000 355.619
66.64000 324.255
66.68000 308.479
66.72000 322.366
66.76000 319.101
66.80000 326.994
66.84000 334.381
66.88000 355.733
66.92000 349.027
66.96000 364.241
67.00000 346.885
67.04000 350.886
67.08000 359.889
67.12000 351.528
67.16000 363.756
67.20000 373.772
67.24000 392.819
67.28000 400.205
67.32000 404.638
67.36000 389.495
67.40000 400.004
67.44000 413.005
67.48000 422.390
67.52000 425.190
67.56000 419.477
67.60000 424.586
67.64000 433.434
67.68000 471.011
67.72000 470.091
67.76000 480.560
67.80000 469.666
67.84000 482.116
67.88000 489.001
67.92000 510.081
67.96000 506.472
68.00000 542.816
68.04000 563.601
68.08000 552.602
68.12000 541.637
68.16000 557.972
68.20000 608.378
68.24000 608.959
68.28000 635.766
68.32000 644.985
68.36000 659.072
68.40000 706.616
68.44000 745.427
68.48000 761.015
68.52000 799.335
68.56000 892.886
68.60000 992.434
68.64000 1169.772
68.68000 1390.077
68.72000 1667.224
68.76000 1877.806
68.80000 2194.154
68.84000 2646.848
68.88000 3457.397
68.92000 5728.039
68.96000 15322.986
69.00000 33394.676
69.04000 52056.445
69.08000 61190.523
69.12000 64050.594
69.16000 66027.586
69.20000 65760.430
69.24000 55107.344
69.28000 41769.574
69.32000 34264.996
69.36000 30909.432
69.40000 25096.355
69.44000 15770.770
69.48000 7136.377
69.52000 3212.769
69.56000 1988.219
69.60000 1555.669
69.64000 1283.767
69.68000 1145.910
69.72000 1033.813
69.76000 930.732
69.80000 854.477
69.84000 817.529
69.88000 755.292
69.92000 767.609
69.96000 719.814
70.00000 696.578