File: XRD/XRD/24-09-2025 Dep 3/XY Data/BTO_Mapping_Theta2Theta_24-09-2025_001_32_-29-344_6-237.xy
20.00000 554.316
20.04000 553.507
20.08000 577.218
20.12000 557.078
20.16000 584.158
20.20000 554.504
20.24000 563.200
20.28000 574.021
20.32000 570.083
20.36000 564.441
20.40000 578.037
20.44000 539.699
20.48000 559.906
20.52000 531.644
20.56000 546.538
20.60000 580.093
20.64000 536.767
20.68000 553.768
20.72000 551.063
20.76000 560.248
20.80000 553.238
20.84000 575.126
20.88000 553.628
20.92000 541.352
20.96000 545.568
21.00000 556.302
21.04000 567.489
21.08000 565.524
21.12000 544.376
21.16000 560.984
21.20000 552.937
21.24000 550.050
21.28000 541.701
21.32000 556.323
21.36000 550.597
21.40000 544.700
21.44000 567.860
21.48000 567.967
21.52000 579.330
21.56000 590.575
21.60000 576.578
21.64000 596.498
21.68000 607.953
21.72000 622.656
21.76000 665.635
21.80000 733.458
21.84000 790.106
21.88000 857.462
21.92000 944.533
21.96000 982.718
22.00000 1013.387
22.04000 1021.829
22.08000 991.234
22.12000 902.854
22.16000 824.038
22.20000 743.676
22.24000 679.579
22.28000 659.176
22.32000 607.761
22.36000 582.145
22.40000 593.508
22.44000 569.727
22.48000 541.127
22.52000 532.415
22.56000 543.586
22.60000 532.406
22.64000 530.851
22.68000 524.500
22.72000 530.242
22.76000 543.264
22.80000 526.129
22.84000 516.279
22.88000 524.455
22.92000 524.847
22.96000 528.058
23.00000 507.151
23.04000 525.806
23.08000 532.556
23.12000 503.111
23.16000 523.756
23.20000 518.651
23.24000 501.346
23.28000 523.926
23.32000 514.275
23.36000 520.338
23.40000 499.347
23.44000 488.822
23.48000 511.732
23.52000 508.078
23.56000 506.765
23.60000 513.500
23.64000 504.291
23.68000 505.517
23.72000 485.253
23.76000 498.155
23.80000 486.787
23.84000 495.145
23.88000 500.578
23.92000 514.330
23.96000 491.431
24.00000 493.458
24.04000 508.345
24.08000 508.141
24.12000 509.796
24.16000 487.391
24.20000 483.798
24.24000 489.051
24.28000 492.859
24.32000 496.414
24.36000 496.895
24.40000 488.041
24.44000 471.017
24.48000 482.569
24.52000 494.413
24.56000 492.984
24.60000 496.052
24.64000 499.663
24.68000 475.149
24.72000 478.229
24.76000 493.567
24.80000 468.022
24.84000 479.173
24.88000 470.414
24.92000 470.137
24.96000 475.774
25.00000 463.684
25.04000 493.017
25.08000 471.300
25.12000 469.347
25.16000 481.657
25.20000 477.340
25.24000 476.060
25.28000 484.231
25.32000 468.362
25.36000 469.296
25.40000 477.294
25.44000 476.430
25.48000 459.010
25.52000 470.488
25.56000 473.674
25.60000 485.218
25.64000 466.323
25.68000 471.248
25.72000 457.010
25.76000 459.435
25.80000 458.857
25.84000 474.678
25.88000 489.852
25.92000 462.937
25.96000 461.192
26.00000 457.072
26.04000 454.653
26.08000 459.815
26.12000 445.453
26.16000 456.451
26.20000 470.152
26.24000 461.464
26.28000 470.781
26.32000 468.987
26.36000 444.747
26.40000 475.004
26.44000 453.623
26.48000 466.027
26.52000 453.615
26.56000 454.091
26.60000 454.683
26.64000 456.045
26.68000 452.917
26.72000 460.246
26.76000 453.174
26.80000 437.029
26.84000 437.070
26.88000 432.169
26.92000 449.106
26.96000 459.791
27.00000 444.174
27.04000 442.581
27.08000 435.325
27.12000 434.095
27.16000 445.990
27.20000 429.432
27.24000 437.018
27.28000 460.785
27.32000 432.347
27.36000 439.530
27.40000 441.989
27.44000 443.380
27.48000 427.974
27.52000 428.571
27.56000 447.632
27.60000 430.981
27.64000 419.406
27.68000 432.199
27.72000 439.295
27.76000 428.714
27.80000 439.976
27.84000 446.894
27.88000 425.247
27.92000 439.016
27.96000 432.773
28.00000 434.399
28.04000 438.748
28.08000 436.052
28.12000 425.515
28.16000 448.534
28.20000 438.812
28.24000 432.119
28.28000 434.505
28.32000 435.121
28.36000 431.439
28.40000 428.897
28.44000 430.824
28.48000 443.904
28.52000 424.697
28.56000 427.405
28.60000 412.316
28.64000 427.883
28.68000 433.535
28.72000 433.380
28.76000 407.259
28.80000 432.010
28.84000 415.603
28.88000 434.995
28.92000 416.788
28.96000 402.360
29.00000 427.683
29.04000 431.052
29.08000 412.277
29.12000 438.982
29.16000 434.291
29.20000 428.689
29.24000 433.317
29.28000 425.856
29.32000 422.155
29.36000 423.719
29.40000 409.602
29.44000 417.096
29.48000 409.349
29.52000 413.818
29.56000 428.050
29.60000 414.553
29.64000 429.798
29.68000 411.478
29.72000 439.881
29.76000 435.890
29.80000 462.222
29.84000 437.586
29.88000 471.866
29.92000 455.726
29.96000 474.326
30.00000 476.299
30.04000 481.021
30.08000 478.127
30.12000 465.037
30.16000 458.145
30.20000 444.874
30.24000 452.341
30.28000 452.852
30.32000 423.556
30.36000 445.155
30.40000 434.035
30.44000 440.429
30.48000 438.717
30.52000 446.182
30.56000 437.096
30.60000 424.729
30.64000 469.733
30.68000 473.852
30.72000 492.088
30.76000 487.940
30.80000 493.531
30.84000 504.712
30.88000 541.408
30.92000 560.943
30.96000 633.475
31.00000 710.155
31.04000 866.038
31.08000 1077.207
31.12000 1477.255
31.16000 1897.229
31.20000 2411.982
31.24000 2986.217
31.28000 3530.241
31.32000 3867.309
31.36000 3983.438
31.40000 3745.293
31.44000 3412.236
31.48000 2770.038
31.52000 2176.211
31.56000 1669.706
31.60000 1272.979
31.64000 996.888
31.68000 811.297
31.72000 682.002
31.76000 607.651
31.80000 563.242
31.84000 493.528
31.88000 475.230
31.92000 456.118
31.96000 458.865
32.00000 455.731
32.04000 440.329
32.08000 427.234
32.12000 420.653
32.16000 419.454
32.20000 396.963
32.24000 421.856
32.28000 404.367
32.32000 399.253
32.36000 386.686
32.40000 390.843
32.44000 403.451
32.48000 384.287
32.52000 387.603
32.56000 382.780
32.60000 399.901
32.64000 390.024
32.68000 378.942
32.72000 386.139
32.76000 406.515
32.80000 442.661
32.84000 535.135
32.88000 604.679
32.92000 622.126
32.96000 652.181
33.00000 629.319
33.04000 581.368
33.08000 493.618
33.12000 445.051
33.16000 407.452
33.20000 362.829
33.24000 369.105
33.28000 363.739
33.32000 361.232
33.36000 351.617
33.40000 350.960
33.44000 363.614
33.48000 342.850
33.52000 351.378
33.56000 355.048
33.60000 352.920
33.64000 363.853
33.68000 352.586
33.72000 350.500
33.76000 357.820
33.80000 353.277
33.84000 343.512
33.88000 339.154
33.92000 345.741
33.96000 342.953
34.00000 332.697
34.04000 333.408
34.08000 352.308
34.12000 346.550
34.16000 339.258
34.20000 322.396
34.24000 331.855
34.28000 337.505
34.32000 314.885
34.36000 329.841
34.40000 335.264
34.44000 348.691
34.48000 322.427
34.52000 329.413
34.56000 313.203
34.60000 322.693
34.64000 320.935
34.68000 323.574
34.72000 329.656
34.76000 338.582
34.80000 319.223
34.84000 318.243
34.88000 312.289
34.92000 318.028
34.96000 336.111
35.00000 334.526
35.04000 324.957
35.08000 314.484
35.12000 313.195
35.16000 302.396
35.20000 315.577
35.24000 315.345
35.28000 321.777
35.32000 315.196
35.36000 307.055
35.40000 318.113
35.44000 308.848
35.48000 314.006
35.52000 314.827
35.56000 317.650
35.60000 314.824
35.64000 313.065
35.68000 301.256
35.72000 310.404
35.76000 306.775
35.80000 309.144
35.84000 298.157
35.88000 309.431
35.92000 310.041
35.96000 308.624
36.00000 292.289
36.04000 309.719
36.08000 313.386
36.12000 330.267
36.16000 312.148
36.20000 325.584
36.24000 311.376
36.28000 308.186
36.32000 300.415
36.36000 304.764
36.40000 304.693
36.44000 294.721
36.48000 306.493
36.52000 294.476
36.56000 310.765
36.60000 307.901
36.64000 301.371
36.68000 299.298
36.72000 297.326
36.76000 310.320
36.80000 301.502
36.84000 306.700
36.88000 298.992
36.92000 316.993
36.96000 296.391
37.00000 305.532
37.04000 300.028
37.08000 302.891
37.12000 308.936
37.16000 302.245
37.20000 291.893
37.24000 290.344
37.28000 307.647
37.32000 295.206
37.36000 285.056
37.40000 288.115
37.44000 294.239
37.48000 285.918
37.52000 304.513
37.56000 293.419
37.60000 314.293
37.64000 299.329
37.68000 295.941
37.72000 295.595
37.76000 315.947
37.80000 307.021
37.84000 305.967
37.88000 295.680
37.92000 298.980
37.96000 301.629
38.00000 295.692
38.04000 292.023
38.08000 314.236
38.12000 306.425
38.16000 317.823
38.20000 317.959
38.24000 328.588
38.28000 358.650
38.32000 361.163
38.36000 392.230
38.40000 451.383
38.44000 506.200
38.48000 597.657
38.52000 698.407
38.56000 756.437
38.60000 869.010
38.64000 917.756
38.68000 872.812
38.72000 863.393
38.76000 769.299
38.80000 692.255
38.84000 593.450
38.88000 509.999
38.92000 427.768
38.96000 373.962
39.00000 316.430
39.04000 318.729
39.08000 310.957
39.12000 298.362
39.16000 290.056
39.20000 291.054
39.24000 273.969
39.28000 276.816
39.32000 272.891
39.36000 283.653
39.40000 299.593
39.44000 264.805
39.48000 269.576
39.52000 278.668
39.56000 263.493
39.60000 271.977
39.64000 270.581
39.68000 260.377
39.72000 268.799
39.76000 275.001
39.80000 276.369
39.84000 276.818
39.88000 264.832
39.92000 257.399
39.96000 253.453
40.00000 249.476
40.04000 256.056
40.08000 262.044
40.12000 275.064
40.16000 272.632
40.20000 259.215
40.24000 254.289
40.28000 251.909
40.32000 251.361
40.36000 262.286
40.40000 256.000
40.44000 247.814
40.48000 253.788
40.52000 265.928
40.56000 253.953
40.60000 251.853
40.64000 273.447
40.68000 246.505
40.72000 240.434
40.76000 247.343
40.80000 252.265
40.84000 259.021
40.88000 239.553
40.92000 245.778
40.96000 250.387
41.00000 250.994
41.04000 251.623
41.08000 254.877
41.12000 243.043
41.16000 244.795
41.20000 249.234
41.24000 234.158
41.28000 249.393
41.32000 236.488
41.36000 256.631
41.40000 241.360
41.44000 241.315
41.48000 243.023
41.52000 236.871
41.56000 251.268
41.60000 247.911
41.64000 251.359
41.68000 261.055
41.72000 229.236
41.76000 237.149
41.80000 245.945
41.84000 224.179
41.88000 249.159
41.92000 240.088
41.96000 243.247
42.00000 234.901
42.04000 228.702
42.08000 235.928
42.12000 236.643
42.16000 245.813
42.20000 227.016
42.24000 245.746
42.28000 240.175
42.32000 238.113
42.36000 233.962
42.40000 230.917
42.44000 231.951
42.48000 234.827
42.52000 244.615
42.56000 236.143
42.60000 240.802
42.64000 241.726
42.68000 232.353
42.72000 237.501
42.76000 237.372
42.80000 232.612
42.84000 230.259
42.88000 239.728
42.92000 239.667
42.96000 240.827
43.00000 248.538
43.04000 233.798
43.08000 236.453
43.12000 244.856
43.16000 238.228
43.20000 237.427
43.24000 218.521
43.28000 221.056
43.32000 234.075
43.36000 225.905
43.40000 223.451
43.44000 231.541
43.48000 217.957
43.52000 235.175
43.56000 231.372
43.60000 232.570
43.64000 227.485
43.68000 241.084
43.72000 225.757
43.76000 227.887
43.80000 239.165
43.84000 226.245
43.88000 211.941
43.92000 220.819
43.96000 215.277
44.00000 236.099
44.04000 230.872
44.08000 231.726
44.12000 238.426
44.16000 230.969
44.20000 240.986
44.24000 232.090
44.28000 235.777
44.32000 238.250
44.36000 231.567
44.40000 242.253
44.44000 245.424
44.48000 266.278
44.52000 260.087
44.56000 280.309
44.60000 288.646
44.64000 316.156
44.68000 343.825
44.72000 396.778
44.76000 427.566
44.80000 464.531
44.84000 547.880
44.88000 614.684
44.92000 653.940
44.96000 671.345
45.00000 646.719
45.04000 631.865
45.08000 596.555
45.12000 532.653
45.16000 461.150
45.20000 453.395
45.24000 388.844
45.28000 346.311
45.32000 333.944
45.36000 300.953
45.40000 302.432
45.44000 282.726
45.48000 270.966
45.52000 261.712
45.56000 253.433
45.60000 266.205
45.64000 250.075
45.68000 226.106
45.72000 228.102
45.76000 239.268
45.80000 229.977
45.84000 235.284
45.88000 235.242
45.92000 215.637
45.96000 210.775
46.00000 221.649
46.04000 213.153
46.08000 222.154
46.12000 214.433
46.16000 206.623
46.20000 213.190
46.24000 203.041
46.28000 196.670
46.32000 213.549
46.36000 208.937
46.40000 214.771
46.44000 202.795
46.48000 207.860
46.52000 203.280
46.56000 206.691
46.60000 200.548
46.64000 218.664
46.68000 211.414
46.72000 197.150
46.76000 195.866
46.80000 194.198
46.84000 197.454
46.88000 196.084
46.92000 191.275
46.96000 196.345
47.00000 202.085
47.04000 203.300
47.08000 199.759
47.12000 204.917
47.16000 196.307
47.20000 189.412
47.24000 203.475
47.28000 192.763
47.32000 197.102
47.36000 184.327
47.40000 191.741
47.44000 195.877
47.48000 192.574
47.52000 192.377
47.56000 192.301
47.60000 202.399
47.64000 178.659
47.68000 189.048
47.72000 187.479
47.76000 182.948
47.80000 181.033
47.84000 192.544
47.88000 183.068
47.92000 181.789
47.96000 193.824
48.00000 193.330
48.04000 187.236
48.08000 184.803
48.12000 192.632
48.16000 169.698
48.20000 187.905
48.24000 191.029
48.28000 187.315
48.32000 194.063
48.36000 198.339
48.40000 183.230
48.44000 183.437
48.48000 184.546
48.52000 186.396
48.56000 184.561
48.60000 192.781
48.64000 192.888
48.68000 169.103
48.72000 192.660
48.76000 184.222
48.80000 176.160
48.84000 181.708
48.88000 185.628
48.92000 183.513
48.96000 184.489
49.00000 184.087
49.04000 195.279
49.08000 192.857
49.12000 190.964
49.16000 181.426
49.20000 178.289
49.24000 174.606
49.28000 186.900
49.32000 182.411
49.36000 177.925
49.40000 172.036
49.44000 181.279
49.48000 175.660
49.52000 180.075
49.56000 176.625
49.60000 179.633
49.64000 175.030
49.68000 170.013
49.72000 181.627
49.76000 174.055
49.80000 179.296
49.84000 184.399
49.88000 183.952
49.92000 166.604
49.96000 170.804
50.00000 189.212
50.04000 183.140
50.08000 193.402
50.12000 176.238
50.16000 192.482
50.20000 191.109
50.24000 186.178
50.28000 197.251
50.32000 207.154
50.36000 208.197
50.40000 239.233
50.44000 230.776
50.48000 259.175
50.52000 258.979
50.56000 272.138
50.60000 297.827
50.64000 300.550
50.68000 288.166
50.72000 281.309
50.76000 276.317
50.80000 251.270
50.84000 249.947
50.88000 224.747
50.92000 228.689
50.96000 214.333
51.00000 211.832
51.04000 203.015
51.08000 200.781
51.12000 194.975
51.16000 176.043
51.20000 183.592
51.24000 184.968
51.28000 169.711
51.32000 177.127
51.36000 183.902
51.40000 167.523
51.44000 177.007
51.48000 171.228
51.52000 164.824
51.56000 166.137
51.60000 155.942
51.64000 176.301
51.68000 162.339
51.72000 149.229
51.76000 170.542
51.80000 153.006
51.84000 158.086
51.88000 164.667
51.92000 170.719
51.96000 173.321
52.00000 162.503
52.04000 165.772
52.08000 166.962
52.12000 175.252
52.16000 164.217
52.20000 167.044
52.24000 157.423
52.28000 164.462
52.32000 164.638
52.36000 174.437
52.40000 155.373
52.44000 156.195
52.48000 161.187
52.52000 162.226
52.56000 166.100
52.60000 165.108
52.64000 161.535
52.68000 158.346
52.72000 162.877
52.76000 163.514
52.80000 157.020
52.84000 155.618
52.88000 158.954
52.92000 159.089
52.96000 158.176
53.00000 158.309
53.04000 153.385
53.08000 157.102
53.12000 159.006
53.16000 168.054
53.20000 169.574
53.24000 175.317
53.28000 171.724
53.32000 167.175
53.36000 167.345
53.40000 162.353
53.44000 168.391
53.48000 172.866
53.52000 153.536
53.56000 166.767
53.60000 160.881
53.64000 160.301
53.68000 161.161
53.72000 160.308
53.76000 156.684
53.80000 157.798
53.84000 159.532
53.88000 162.838
53.92000 162.249
53.96000 160.310
54.00000 162.645
54.04000 149.730
54.08000 164.666
54.12000 160.254
54.16000 166.477
54.20000 161.520
54.24000 152.230
54.28000 162.549
54.32000 153.117
54.36000 168.904
54.40000 172.784
54.44000 157.439
54.48000 154.064
54.52000 158.724
54.56000 157.625
54.60000 160.422
54.64000 159.479
54.68000 157.698
54.72000 159.294
54.76000 160.506
54.80000 168.941
54.84000 157.493
54.88000 169.015
54.92000 169.323
54.96000 161.352
55.00000 165.726
55.04000 169.311
55.08000 172.970
55.12000 170.869
55.16000 170.077
55.20000 174.312
55.24000 178.671
55.28000 185.785
55.32000 185.286
55.36000 195.723
55.40000 208.369
55.44000 225.951
55.48000 248.827
55.52000 290.719
55.56000 334.324
55.60000 369.785
55.64000 462.171
55.68000 586.808
55.72000 653.528
55.76000 753.277
55.80000 825.126
55.84000 862.448
55.88000 868.130
55.92000 872.973
55.96000 823.921
56.00000 737.342
56.04000 676.512
56.08000 564.819
56.12000 494.895
56.16000 401.738
56.20000 358.613
56.24000 306.975
56.28000 266.060
56.32000 258.816
56.36000 230.857
56.40000 202.866
56.44000 202.902
56.48000 191.924
56.52000 181.193
56.56000 178.072
56.60000 168.327
56.64000 168.677
56.68000 166.793
56.72000 169.213
56.76000 168.074
56.80000 166.440
56.84000 162.718
56.88000 156.895
56.92000 160.311
56.96000 149.524
57.00000 150.980
57.04000 153.604
57.08000 156.325
57.12000 156.552
57.16000 141.000
57.20000 144.368
57.24000 152.711
57.28000 146.011
57.32000 150.562
57.36000 149.371
57.40000 145.875
57.44000 148.664
57.48000 142.720
57.52000 145.993
57.56000 148.261
57.60000 151.158
57.64000 146.379
57.68000 150.180
57.72000 144.293
57.76000 148.844
57.80000 142.079
57.84000 144.222
57.88000 154.787
57.92000 150.033
57.96000 149.285
58.00000 143.132
58.04000 138.930
58.08000 158.367
58.12000 149.797
58.16000 145.656
58.20000 144.548
58.24000 148.971
58.28000 150.548
58.32000 144.808
58.36000 142.930
58.40000 144.757
58.44000 140.351
58.48000 144.279
58.52000 138.074
58.56000 139.911
58.60000 129.141
58.64000 143.763
58.68000 145.947
58.72000 139.033
58.76000 145.870
58.80000 150.332
58.84000 136.600
58.88000 138.649
58.92000 135.933
58.96000 134.931
59.00000 135.848
59.04000 139.902
59.08000 136.003
59.12000 134.871
59.16000 132.719
59.20000 140.115
59.24000 136.579
59.28000 142.252
59.32000 136.844
59.36000 133.226
59.40000 139.816
59.44000 130.937
59.48000 131.334
59.52000 132.832
59.56000 144.448
59.60000 141.860
59.64000 135.995
59.68000 128.534
59.72000 127.532
59.76000 128.636
59.80000 129.791
59.84000 145.642
59.88000 134.404
59.92000 136.133
59.96000 138.067
60.00000 132.813
60.04000 128.071
60.08000 147.140
60.12000 136.656
60.16000 134.133
60.20000 127.196
60.24000 136.939
60.28000 137.701
60.32000 132.131
60.36000 132.509
60.40000 137.652
60.44000 144.109
60.48000 137.172
60.52000 132.724
60.56000 137.430
60.60000 137.578
60.64000 132.963
60.68000 128.738
60.72000 137.960
60.76000 141.304
60.80000 129.571
60.84000 138.612
60.88000 139.379
60.92000 143.817
60.96000 133.926
61.00000 134.207
61.04000 131.852
61.08000 139.973
61.12000 133.310
61.16000 145.118
61.20000 137.108
61.24000 132.307
61.28000 139.748
61.32000 142.237
61.36000 129.770
61.40000 141.275
61.44000 140.768
61.48000 161.265
61.52000 189.476
61.56000 255.244
61.60000 324.197
61.64000 361.151
61.68000 375.078
61.72000 377.677
61.76000 345.373
61.80000 282.713
61.84000 221.155
61.88000 174.251
61.92000 158.641
61.96000 156.833
62.00000 152.169
62.04000 137.250
62.08000 148.040
62.12000 150.927
62.16000 145.983
62.20000 134.978
62.24000 149.320
62.28000 151.316
62.32000 152.083
62.36000 138.333
62.40000 150.833
62.44000 142.998
62.48000 147.275
62.52000 125.675
62.56000 136.160
62.60000 149.420
62.64000 145.652
62.68000 144.500
62.72000 155.114
62.76000 142.199
62.80000 151.854
62.84000 155.417
62.88000 139.182
62.92000 148.018
62.96000 155.988
63.00000 144.354
63.04000 156.316
63.08000 144.457
63.12000 145.089
63.16000 146.367
63.20000 156.731
63.24000 153.991
63.28000 150.932
63.32000 154.749
63.36000 151.691
63.40000 152.514
63.44000 144.463
63.48000 146.087
63.52000 147.906
63.56000 149.281
63.60000 152.292
63.64000 159.223
63.68000 154.348
63.72000 157.047
63.76000 166.445
63.80000 157.106
63.84000 156.537
63.88000 151.473
63.92000 163.131
63.96000 157.858
64.00000 161.709
64.04000 166.993
64.08000 160.625
64.12000 161.128
64.16000 166.926
64.20000 163.575
64.24000 160.543
64.28000 169.161
64.32000 172.930
64.36000 168.818
64.40000 166.171
64.44000 172.566
64.48000 175.405
64.52000 177.809
64.56000 180.911
64.60000 171.636
64.64000 183.261
64.68000 192.143
64.72000 185.061
64.76000 181.945
64.80000 183.261
64.84000 192.101
64.88000 202.692
64.92000 198.714
64.96000 207.491
65.00000 215.061
65.04000 224.314
65.08000 237.137
65.12000 246.074
65.16000 277.654
65.20000 286.646
65.24000 329.816
65.28000 353.549
65.32000 356.900
65.36000 384.941
65.40000 404.673
65.44000 426.412
65.48000 445.172
65.52000 458.039
65.56000 471.824
65.60000 490.240
65.64000 547.002
65.68000 673.370
65.72000 872.340
65.76000 1208.407
65.80000 1500.129
65.84000 1655.330
65.88000 1674.918
65.92000 1604.235
65.96000 1379.584
66.00000 954.496
66.04000 621.232
66.08000 454.889
66.12000 402.865
66.16000 369.368
66.20000 365.004
66.24000 373.220
66.28000 439.075
66.32000 492.707
66.36000 568.646
66.40000 592.994
66.44000 575.914
66.48000 589.625
66.52000 523.210
66.56000 457.280
66.60000 390.735
66.64000 369.758
66.68000 364.494
66.72000 356.323
66.76000 392.304
66.80000 361.043
66.84000 366.989
66.88000 385.586
66.92000 372.483
66.96000 393.803
67.00000 413.831
67.04000 402.040
67.08000 401.992
67.12000 407.283
67.16000 439.318
67.20000 429.738
67.24000 436.826
67.28000 438.565
67.32000 453.786
67.36000 479.090
67.40000 446.257
67.44000 471.740
67.48000 476.331
67.52000 505.498
67.56000 505.802
67.60000 519.565
67.64000 530.122
67.68000 521.170
67.72000 550.505
67.76000 557.996
67.80000 565.881
67.84000 586.410
67.88000 581.246
67.92000 595.836
67.96000 610.361
68.00000 644.292
68.04000 634.188
68.08000 654.165
68.12000 653.105
68.16000 690.816
68.20000 680.955
68.24000 710.209
68.28000 750.465
68.32000 754.389
68.36000 792.619
68.40000 846.003
68.44000 875.593
68.48000 908.655
68.52000 982.524
68.56000 1068.543
68.60000 1244.500
68.64000 1467.674
68.68000 1740.490
68.72000 2100.940
68.76000 2403.600
68.80000 2792.778
68.84000 3540.221
68.88000 5187.650
68.92000 8938.063
68.96000 22839.393
69.00000 47008.039
69.04000 72528.820
69.08000 85839.273
69.12000 90347.953
69.16000 93114.867
69.20000 91338.664
69.24000 76950.859
69.28000 60142.094
69.32000 49155.852
69.36000 43214.902
69.40000 34719.883
69.44000 22145.000
69.48000 10767.679
69.52000 4785.988
69.56000 2713.435
69.60000 1975.223
69.64000 1607.365
69.68000 1427.960
69.72000 1248.652
69.76000 1115.873
69.80000 1031.353
69.84000 986.728
69.88000 888.058
69.92000 865.646
69.96000 828.227
70.00000 764.329