File: XRD/XRD/24-09-2025 Dep 3/XY Data/BTO_Mapping_Theta2Theta_24-09-2025_001_13_26-765_29-726.xy
20.00000 576.740
20.04000 562.253
20.08000 568.852
20.12000 553.583
20.16000 566.492
20.20000 566.375
20.24000 564.428
20.28000 570.017
20.32000 547.367
20.36000 557.833
20.40000 537.284
20.44000 586.384
20.48000 564.718
20.52000 548.406
20.56000 550.863
20.60000 540.051
20.64000 543.058
20.68000 548.922
20.72000 550.618
20.76000 546.839
20.80000 551.487
20.84000 550.986
20.88000 544.232
20.92000 534.319
20.96000 552.599
21.00000 538.199
21.04000 550.519
21.08000 539.462
21.12000 547.709
21.16000 526.101
21.20000 543.474
21.24000 537.239
21.28000 548.442
21.32000 538.926
21.36000 538.667
21.40000 549.639
21.44000 532.013
21.48000 533.979
21.52000 545.102
21.56000 540.736
21.60000 540.681
21.64000 537.694
21.68000 553.009
21.72000 567.559
21.76000 560.403
21.80000 548.626
21.84000 567.056
21.88000 568.235
21.92000 592.781
21.96000 579.501
22.00000 608.051
22.04000 586.863
22.08000 598.212
22.12000 600.506
22.16000 596.305
22.20000 605.739
22.24000 596.686
22.28000 577.118
22.32000 571.588
22.36000 573.249
22.40000 563.362
22.44000 550.112
22.48000 528.391
22.52000 545.047
22.56000 537.529
22.60000 539.092
22.64000 522.715
22.68000 540.317
22.72000 518.984
22.76000 516.166
22.80000 519.093
22.84000 524.296
22.88000 519.041
22.92000 514.607
22.96000 533.835
23.00000 506.456
23.04000 513.030
23.08000 512.603
23.12000 505.778
23.16000 507.840
23.20000 509.454
23.24000 528.045
23.28000 503.217
23.32000 499.842
23.36000 511.528
23.40000 510.099
23.44000 506.784
23.48000 515.794
23.52000 511.623
23.56000 516.781
23.60000 534.578
23.64000 522.393
23.68000 509.470
23.72000 514.171
23.76000 518.204
23.80000 520.780
23.84000 555.863
23.88000 536.426
23.92000 544.124
23.96000 542.336
24.00000 525.196
24.04000 547.325
24.08000 527.388
24.12000 513.380
24.16000 522.445
24.20000 539.343
24.24000 497.062
24.28000 500.845
24.32000 518.852
24.36000 497.929
24.40000 503.404
24.44000 507.938
24.48000 509.762
24.52000 501.203
24.56000 497.744
24.60000 475.173
24.64000 480.158
24.68000 495.168
24.72000 483.975
24.76000 484.942
24.80000 467.315
24.84000 489.684
24.88000 480.177
24.92000 477.921
24.96000 482.795
25.00000 475.499
25.04000 464.348
25.08000 484.245
25.12000 472.059
25.16000 473.619
25.20000 482.578
25.24000 471.858
25.28000 481.623
25.32000 482.526
25.36000 474.241
25.40000 469.824
25.44000 465.607
25.48000 477.059
25.52000 464.546
25.56000 459.791
25.60000 472.984
25.64000 474.237
25.68000 461.295
25.72000 474.357
25.76000 462.239
25.80000 489.721
25.84000 459.672
25.88000 460.077
25.92000 465.585
25.96000 455.785
26.00000 474.760
26.04000 446.922
26.08000 462.252
26.12000 459.073
26.16000 455.026
26.20000 454.596
26.24000 455.526
26.28000 459.143
26.32000 448.776
26.36000 456.757
26.40000 441.940
26.44000 460.096
26.48000 451.381
26.52000 441.025
26.56000 436.280
26.60000 448.850
26.64000 468.938
26.68000 458.347
26.72000 469.634
26.76000 457.406
26.80000 439.861
26.84000 457.690
26.88000 437.164
26.92000 456.029
26.96000 439.125
27.00000 434.076
27.04000 455.072
27.08000 454.973
27.12000 447.812
27.16000 453.380
27.20000 465.105
27.24000 443.910
27.28000 449.464
27.32000 459.673
27.36000 459.438
27.40000 450.552
27.44000 431.656
27.48000 435.814
27.52000 441.805
27.56000 440.760
27.60000 446.045
27.64000 436.382
27.68000 431.906
27.72000 444.667
27.76000 447.093
27.80000 446.598
27.84000 429.106
27.88000 443.865
27.92000 445.915
27.96000 422.017
28.00000 432.080
28.04000 464.304
28.08000 409.509
28.12000 423.469
28.16000 414.771
28.20000 412.963
28.24000 433.425
28.28000 423.705
28.32000 434.103
28.36000 419.400
28.40000 439.765
28.44000 430.319
28.48000 422.503
28.52000 428.277
28.56000 432.297
28.60000 440.130
28.64000 439.903
28.68000 426.341
28.72000 428.320
28.76000 414.357
28.80000 415.258
28.84000 420.375
28.88000 404.391
28.92000 412.432
28.96000 423.505
29.00000 425.461
29.04000 405.685
29.08000 410.969
29.12000 404.035
29.16000 405.247
29.20000 429.060
29.24000 405.446
29.28000 426.207
29.32000 407.665
29.36000 409.772
29.40000 399.483
29.44000 414.597
29.48000 424.074
29.52000 407.885
29.56000 420.078
29.60000 404.242
29.64000 415.241
29.68000 400.624
29.72000 424.515
29.76000 418.917
29.80000 404.362
29.84000 403.509
29.88000 421.048
29.92000 409.464
29.96000 401.819
30.00000 414.532
30.04000 445.678
30.08000 440.089
30.12000 431.671
30.16000 416.566
30.20000 423.167
30.24000 409.234
30.28000 444.363
30.32000 424.632
30.36000 421.349
30.40000 424.375
30.44000 421.482
30.48000 420.749
30.52000 424.205
30.56000 426.784
30.60000 410.644
30.64000 422.556
30.68000 424.702
30.72000 421.460
30.76000 412.600
30.80000 426.956
30.84000 443.018
30.88000 439.478
30.92000 476.906
30.96000 479.700
31.00000 490.947
31.04000 530.790
31.08000 583.772
31.12000 634.800
31.16000 698.405
31.20000 804.544
31.24000 921.554
31.28000 1059.628
31.32000 1176.294
31.36000 1293.055
31.40000 1314.354
31.44000 1342.471
31.48000 1240.173
31.52000 1141.651
31.56000 1026.366
31.60000 888.871
31.64000 767.830
31.68000 678.926
31.72000 608.923
31.76000 536.131
31.80000 523.702
31.84000 483.435
31.88000 463.081
31.92000 454.062
31.96000 447.552
32.00000 422.934
32.04000 423.111
32.08000 414.804
32.12000 427.099
32.16000 420.798
32.20000 410.884
32.24000 405.910
32.28000 426.693
32.32000 406.193
32.36000 392.325
32.40000 410.102
32.44000 402.247
32.48000 399.256
32.52000 402.340
32.56000 386.207
32.60000 386.515
32.64000 386.515
32.68000 367.359
32.72000 364.980
32.76000 357.110
32.80000 371.050
32.84000 402.001
32.88000 425.883
32.92000 460.180
32.96000 461.050
33.00000 473.598
33.04000 442.900
33.08000 426.332
33.12000 380.188
33.16000 371.553
33.20000 355.514
33.24000 340.599
33.28000 341.380
33.32000 363.584
33.36000 349.458
33.40000 342.083
33.44000 346.773
33.48000 342.693
33.52000 349.843
33.56000 339.368
33.60000 353.908
33.64000 357.318
33.68000 336.078
33.72000 353.366
33.76000 349.312
33.80000 329.290
33.84000 343.984
33.88000 349.945
33.92000 330.895
33.96000 344.814
34.00000 344.081
34.04000 350.521
34.08000 336.669
34.12000 343.302
34.16000 356.245
34.20000 354.005
34.24000 340.934
34.28000 363.402
34.32000 347.205
34.36000 365.940
34.40000 366.128
34.44000 342.738
34.48000 344.505
34.52000 342.468
34.56000 320.838
34.60000 346.187
34.64000 343.966
34.68000 322.685
34.72000 326.763
34.76000 309.509
34.80000 326.930
34.84000 329.002
34.88000 348.215
34.92000 337.044
34.96000 323.106
35.00000 336.110
35.04000 321.392
35.08000 312.748
35.12000 313.091
35.16000 328.137
35.20000 312.214
35.24000 311.453
35.28000 309.466
35.32000 313.572
35.36000 313.972
35.40000 305.705
35.44000 313.144
35.48000 317.794
35.52000 301.514
35.56000 314.040
35.60000 310.893
35.64000 310.637
35.68000 321.813
35.72000 312.459
35.76000 312.940
35.80000 317.009
35.84000 316.850
35.88000 307.487
35.92000 303.571
35.96000 303.703
36.00000 295.173
36.04000 297.387
36.08000 297.689
36.12000 297.692
36.16000 306.156
36.20000 329.118
36.24000 317.119
36.28000 290.603
36.32000 292.975
36.36000 298.491
36.40000 284.998
36.44000 307.174
36.48000 313.750
36.52000 301.456
36.56000 295.943
36.60000 297.742
36.64000 285.396
36.68000 291.862
36.72000 299.871
36.76000 289.997
36.80000 297.135
36.84000 291.723
36.88000 303.670
36.92000 294.645
36.96000 304.570
37.00000 309.592
37.04000 305.909
37.08000 310.224
37.12000 306.314
37.16000 309.201
37.20000 299.904
37.24000 294.259
37.28000 290.714
37.32000 311.579
37.36000 301.364
37.40000 287.018
37.44000 301.706
37.48000 297.336
37.52000 297.202
37.56000 304.301
37.60000 307.035
37.64000 288.421
37.68000 288.511
37.72000 292.556
37.76000 282.283
37.80000 292.849
37.84000 289.211
37.88000 312.724
37.92000 289.167
37.96000 296.033
38.00000 304.768
38.04000 315.099
38.08000 311.058
38.12000 308.206
38.16000 296.528
38.20000 308.313
38.24000 316.802
38.28000 325.324
38.32000 317.422
38.36000 351.125
38.40000 369.104
38.44000 406.294
38.48000 458.142
38.52000 560.308
38.56000 683.195
38.60000 817.343
38.64000 980.737
38.68000 1129.592
38.72000 1227.371
38.76000 1253.797
38.80000 1183.901
38.84000 1078.721
38.88000 936.595
38.92000 763.933
38.96000 596.572
39.00000 494.685
39.04000 416.716
39.08000 399.622
39.12000 328.496
39.16000 307.518
39.20000 296.643
39.24000 287.200
39.28000 287.997
39.32000 288.550
39.36000 297.094
39.40000 268.584
39.44000 286.151
39.48000 289.760
39.52000 292.693
39.56000 278.905
39.60000 279.179
39.64000 273.811
39.68000 263.592
39.72000 267.183
39.76000 283.027
39.80000 273.909
39.84000 272.881
39.88000 261.695
39.92000 272.694
39.96000 258.433
40.00000 254.038
40.04000 273.443
40.08000 256.109
40.12000 255.545
40.16000 269.193
40.20000 251.925
40.24000 255.242
40.28000 265.226
40.32000 265.183
40.36000 253.620
40.40000 248.869
40.44000 263.887
40.48000 259.275
40.52000 242.716
40.56000 254.486
40.60000 258.704
40.64000 258.537
40.68000 241.501
40.72000 260.855
40.76000 258.237
40.80000 249.801
40.84000 250.783
40.88000 249.804
40.92000 263.899
40.96000 244.542
41.00000 251.677
41.04000 250.189
41.08000 255.819
41.12000 239.644
41.16000 252.767
41.20000 249.661
41.24000 249.361
41.28000 265.202
41.32000 246.436
41.36000 243.541
41.40000 238.932
41.44000 237.922
41.48000 247.499
41.52000 251.472
41.56000 240.768
41.60000 233.782
41.64000 231.910
41.68000 232.753
41.72000 241.908
41.76000 233.004
41.80000 229.175
41.84000 244.092
41.88000 241.645
41.92000 248.147
41.96000 244.121
42.00000 243.942
42.04000 239.633
42.08000 235.484
42.12000 248.918
42.16000 242.337
42.20000 256.191
42.24000 254.650
42.28000 245.624
42.32000 250.292
42.36000 241.237
42.40000 233.752
42.44000 242.073
42.48000 236.419
42.52000 246.537
42.56000 244.832
42.60000 226.222
42.64000 224.524
42.68000 228.956
42.72000 217.379
42.76000 239.983
42.80000 229.054
42.84000 245.021
42.88000 242.674
42.92000 215.592
42.96000 237.505
43.00000 236.438
43.04000 229.885
43.08000 228.402
43.12000 230.831
43.16000 229.483
43.20000 225.993
43.24000 241.939
43.28000 232.307
43.32000 236.628
43.36000 222.235
43.40000 213.745
43.44000 216.741
43.48000 232.618
43.52000 239.941
43.56000 226.202
43.60000 219.722
43.64000 227.005
43.68000 228.181
43.72000 224.599
43.76000 221.001
43.80000 213.689
43.84000 223.046
43.88000 223.488
43.92000 213.368
43.96000 226.046
44.00000 225.286
44.04000 215.920
44.08000 219.557
44.12000 224.792
44.16000 219.796
44.20000 223.917
44.24000 213.625
44.28000 222.581
44.32000 220.090
44.36000 224.395
44.40000 215.961
44.44000 225.265
44.48000 228.792
44.52000 244.140
44.56000 240.202
44.60000 223.169
44.64000 238.585
44.68000 247.958
44.72000 243.266
44.76000 233.086
44.80000 244.514
44.84000 251.355
44.88000 263.875
44.92000 252.599
44.96000 265.944
45.00000 252.054
45.04000 258.442
45.08000 258.636
45.12000 270.595
45.16000 265.042
45.20000 270.727
45.24000 268.142
45.28000 268.412
45.32000 255.762
45.36000 255.499
45.40000 254.170
45.44000 242.196
45.48000 243.824
45.52000 238.743
45.56000 232.348
45.60000 233.470
45.64000 223.588
45.68000 219.092
45.72000 215.481
45.76000 214.085
45.80000 205.178
45.84000 204.690
45.88000 199.683
45.92000 222.029
45.96000 211.695
46.00000 209.104
46.04000 201.495
46.08000 199.325
46.12000 214.725
46.16000 204.161
46.20000 197.375
46.24000 206.066
46.28000 198.897
46.32000 212.864
46.36000 208.263
46.40000 208.961
46.44000 207.141
46.48000 209.738
46.52000 197.224
46.56000 194.752
46.60000 205.208
46.64000 193.128
46.68000 204.108
46.72000 207.119
46.76000 208.735
46.80000 199.660
46.84000 201.754
46.88000 198.584
46.92000 200.509
46.96000 195.283
47.00000 196.798
47.04000 188.602
47.08000 199.953
47.12000 196.336
47.16000 195.500
47.20000 193.796
47.24000 186.401
47.28000 194.030
47.32000 188.931
47.36000 192.675
47.40000 194.692
47.44000 197.000
47.48000 191.145
47.52000 188.846
47.56000 189.903
47.60000 186.350
47.64000 170.415
47.68000 200.338
47.72000 191.067
47.76000 181.463
47.80000 196.197
47.84000 185.650
47.88000 186.798
47.92000 186.182
47.96000 197.171
48.00000 185.240
48.04000 188.633
48.08000 185.573
48.12000 171.901
48.16000 187.448
48.20000 185.548
48.24000 187.432
48.28000 185.750
48.32000 178.694
48.36000 172.871
48.40000 173.496
48.44000 180.720
48.48000 185.814
48.52000 182.317
48.56000 185.332
48.60000 197.817
48.64000 186.445
48.68000 187.629
48.72000 166.019
48.76000 186.279
48.80000 189.772
48.84000 193.629
48.88000 189.165
48.92000 192.545
48.96000 187.053
49.00000 181.181
49.04000 185.649
49.08000 181.791
49.12000 180.481
49.16000 168.494
49.20000 190.175
49.24000 183.399
49.28000 185.607
49.32000 186.805
49.36000 180.309
49.40000 172.889
49.44000 178.486
49.48000 165.503
49.52000 181.064
49.56000 188.097
49.60000 178.845
49.64000 174.101
49.68000 183.102
49.72000 184.440
49.76000 178.834
49.80000 179.700
49.84000 165.656
49.88000 181.329
49.92000 178.611
49.96000 176.706
50.00000 173.744
50.04000 182.708
50.08000 168.374
50.12000 168.049
50.16000 178.448
50.20000 173.595
50.24000 177.173
50.28000 176.174
50.32000 172.989
50.36000 187.289
50.40000 182.902
50.44000 180.370
50.48000 189.613
50.52000 178.315
50.56000 184.680
50.60000 178.616
50.64000 199.225
50.68000 208.829
50.72000 211.166
50.76000 184.920
50.80000 187.547
50.84000 179.210
50.88000 203.791
50.92000 193.846
50.96000 172.155
51.00000 183.660
51.04000 176.957
51.08000 184.117
51.12000 171.754
51.16000 181.071
51.20000 161.441
51.24000 169.290
51.28000 167.715
51.32000 175.363
51.36000 176.844
51.40000 174.980
51.44000 168.629
51.48000 161.566
51.52000 169.894
51.56000 167.692
51.60000 172.275
51.64000 169.784
51.68000 161.328
51.72000 180.338
51.76000 172.216
51.80000 169.790
51.84000 158.435
51.88000 155.523
51.92000 155.603
51.96000 169.259
52.00000 157.451
52.04000 158.429
52.08000 148.589
52.12000 152.490
52.16000 158.375
52.20000 165.809
52.24000 157.981
52.28000 160.137
52.32000 168.711
52.36000 161.806
52.40000 156.121
52.44000 160.415
52.48000 155.029
52.52000 160.953
52.56000 156.173
52.60000 165.052
52.64000 159.800
52.68000 158.393
52.72000 146.718
52.76000 158.384
52.80000 169.448
52.84000 172.685
52.88000 154.171
52.92000 172.054
52.96000 165.499
53.00000 167.795
53.04000 161.421
53.08000 157.603
53.12000 166.075
53.16000 163.869
53.20000 163.171
53.24000 164.201
53.28000 162.641
53.32000 151.671
53.36000 170.529
53.40000 161.829
53.44000 153.307
53.48000 174.185
53.52000 163.800
53.56000 158.989
53.60000 152.864
53.64000 157.484
53.68000 158.987
53.72000 153.434
53.76000 152.212
53.80000 153.932
53.84000 161.058
53.88000 163.131
53.92000 164.132
53.96000 147.109
54.00000 160.592
54.04000 161.046
54.08000 163.297
54.12000 158.458
54.16000 157.588
54.20000 151.042
54.24000 155.488
54.28000 148.636
54.32000 158.144
54.36000 156.492
54.40000 154.572
54.44000 152.525
54.48000 156.431
54.52000 168.726
54.56000 153.106
54.60000 153.677
54.64000 162.027
54.68000 162.148
54.72000 153.089
54.76000 163.176
54.80000 174.599
54.84000 161.245
54.88000 163.137
54.92000 159.924
54.96000 164.991
55.00000 167.314
55.04000 162.370
55.08000 164.159
55.12000 169.624
55.16000 164.898
55.20000 175.896
55.24000 156.575
55.28000 178.610
55.32000 163.663
55.36000 173.982
55.40000 193.631
55.44000 193.334
55.48000 200.057
55.52000 225.470
55.56000 234.653
55.60000 257.743
55.64000 277.393
55.68000 316.311
55.72000 353.180
55.76000 396.870
55.80000 443.256
55.84000 499.871
55.88000 565.109
55.92000 606.390
55.96000 611.227
56.00000 639.083
56.04000 627.586
56.08000 589.518
56.12000 545.201
56.16000 467.347
56.20000 427.610
56.24000 376.409
56.28000 333.654
56.32000 287.172
56.36000 262.003
56.40000 232.157
56.44000 222.530
56.48000 197.039
56.52000 183.372
56.56000 186.228
56.60000 182.334
56.64000 174.011
56.68000 179.741
56.72000 170.533
56.76000 163.868
56.80000 158.803
56.84000 156.002
56.88000 167.125
56.92000 162.622
56.96000 164.003
57.00000 164.749
57.04000 154.677
57.08000 153.587
57.12000 151.169
57.16000 155.464
57.20000 150.655
57.24000 152.385
57.28000 150.676
57.32000 138.374
57.36000 139.502
57.40000 141.268
57.44000 150.018
57.48000 146.940
57.52000 142.746
57.56000 150.711
57.60000 130.698
57.64000 135.314
57.68000 144.572
57.72000 148.581
57.76000 144.194
57.80000 135.873
57.84000 147.936
57.88000 139.982
57.92000 143.538
57.96000 147.320
58.00000 141.526
58.04000 134.546
58.08000 145.716
58.12000 145.271
58.16000 137.388
58.20000 125.944
58.24000 144.165
58.28000 145.485
58.32000 136.597
58.36000 142.279
58.40000 130.341
58.44000 137.867
58.48000 136.356
58.52000 125.160
58.56000 135.397
58.60000 142.437
58.64000 141.788
58.68000 147.188
58.72000 136.499
58.76000 135.254
58.80000 135.586
58.84000 138.053
58.88000 137.262
58.92000 136.041
58.96000 130.351
59.00000 147.747
59.04000 134.975
59.08000 126.845
59.12000 136.054
59.16000 136.756
59.20000 132.983
59.24000 134.055
59.28000 145.807
59.32000 129.743
59.36000 129.351
59.40000 137.036
59.44000 133.909
59.48000 154.847
59.52000 138.168
59.56000 145.391
59.60000 137.249
59.64000 141.112
59.68000 124.081
59.72000 135.034
59.76000 135.516
59.80000 140.722
59.84000 136.289
59.88000 138.430
59.92000 132.846
59.96000 140.858
60.00000 122.986
60.04000 134.508
60.08000 132.538
60.12000 132.528
60.16000 135.039
60.20000 138.712
60.24000 132.205
60.28000 137.587
60.32000 135.157
60.36000 132.661
60.40000 132.539
60.44000 125.962
60.48000 138.450
60.52000 129.360
60.56000 129.873
60.60000 133.360
60.64000 129.922
60.68000 133.145
60.72000 131.206
60.76000 125.713
60.80000 139.772
60.84000 129.573
60.88000 148.870
60.92000 127.863
60.96000 143.328
61.00000 136.836
61.04000 141.821
61.08000 133.758
61.12000 140.119
61.16000 140.281
61.20000 136.103
61.24000 133.035
61.28000 130.754
61.32000 137.743
61.36000 155.920
61.40000 129.741
61.44000 143.509
61.48000 144.467
61.52000 168.534
61.56000 196.827
61.60000 236.421
61.64000 273.057
61.68000 271.430
61.72000 269.647
61.76000 261.930
61.80000 236.560
61.84000 186.397
61.88000 169.329
61.92000 158.555
61.96000 137.020
62.00000 154.584
62.04000 145.844
62.08000 143.032
62.12000 135.219
62.16000 145.793
62.20000 136.889
62.24000 150.192
62.28000 140.715
62.32000 149.589
62.36000 134.608
62.40000 137.887
62.44000 145.918
62.48000 145.589
62.52000 147.488
62.56000 150.525
62.60000 156.503
62.64000 139.395
62.68000 132.549
62.72000 136.266
62.76000 150.574
62.80000 142.359
62.84000 138.848
62.88000 141.012
62.92000 145.108
62.96000 145.184
63.00000 148.104
63.04000 144.469
63.08000 142.444
63.12000 152.656
63.16000 144.178
63.20000 148.267
63.24000 150.858
63.28000 146.009
63.32000 135.442
63.36000 143.634
63.40000 142.264
63.44000 147.420
63.48000 152.837
63.52000 146.464
63.56000 150.069
63.60000 140.381
63.64000 142.478
63.68000 165.303
63.72000 149.453
63.76000 151.479
63.80000 153.084
63.84000 143.146
63.88000 156.447
63.92000 150.555
63.96000 154.060
64.00000 154.085
64.04000 151.218
64.08000 155.290
64.12000 169.729
64.16000 159.200
64.20000 152.904
64.24000 156.557
64.28000 177.387
64.32000 162.467
64.36000 163.459
64.40000 161.868
64.44000 160.988
64.48000 157.649
64.52000 170.190
64.56000 158.251
64.60000 168.944
64.64000 157.482
64.68000 156.697
64.72000 169.416
64.76000 170.675
64.80000 163.712
64.84000 176.505
64.88000 181.618
64.92000 169.281
64.96000 165.204
65.00000 182.820
65.04000 182.294
65.08000 187.194
65.12000 176.903
65.16000 186.923
65.20000 203.877
65.24000 192.787
65.28000 204.928
65.32000 223.193
65.36000 233.955
65.40000 231.205
65.44000 247.102
65.48000 258.283
65.52000 272.683
65.56000 275.688
65.60000 303.948
65.64000 303.102
65.68000 365.752
65.72000 487.043
65.76000 683.478
65.80000 889.041
65.84000 1045.333
65.88000 1080.599
65.92000 1037.727
65.96000 910.352
66.00000 680.652
66.04000 491.342
66.08000 375.012
66.12000 320.800
66.16000 296.106
66.20000 287.494
66.24000 307.615
66.28000 327.398
66.32000 383.693
66.36000 419.990
66.40000 426.640
66.44000 437.475
66.48000 448.572
66.52000 425.651
66.56000 343.776
66.60000 334.168
66.64000 313.371
66.68000 304.295
66.72000 296.493
66.76000 309.474
66.80000 321.043
66.84000 331.081
66.88000 340.399
66.92000 320.008
66.96000 336.384
67.00000 343.851
67.04000 347.851
67.08000 351.863
67.12000 341.712
67.16000 346.129
67.20000 373.166
67.24000 372.111
67.28000 374.310
67.32000 380.042
67.36000 388.669
67.40000 385.039
67.44000 405.700
67.48000 427.022
67.52000 417.614
67.56000 401.958
67.60000 437.935
67.64000 434.062
67.68000 431.946
67.72000 443.816
67.76000 437.455
67.80000 450.023
67.84000 476.894
67.88000 494.240
67.92000 498.659
67.96000 499.788
68.00000 518.643
68.04000 522.055
68.08000 548.419
68.12000 554.976
68.16000 571.200
68.20000 548.489
68.24000 575.942
68.28000 583.800
68.32000 618.650
68.36000 630.861
68.40000 658.042
68.44000 677.494
68.48000 728.228
68.52000 755.037
68.56000 797.312
68.60000 902.674
68.64000 1024.434
68.68000 1220.056
68.72000 1374.214
68.76000 1586.329
68.80000 1818.158
68.84000 2071.625
68.88000 2461.665
68.92000 3601.074
68.96000 9585.650
69.00000 23505.098
69.04000 40940.758
69.08000 50891.047
69.12000 53288.754
69.16000 55428.461
69.20000 56452.477
69.24000 49615.148
69.28000 37196.055
69.32000 29553.436
69.36000 26874.715
69.40000 23124.342
69.44000 15750.749
69.48000 7149.432
69.52000 3111.486
69.56000 1854.528
69.60000 1425.022
69.64000 1215.584
69.68000 1046.921
69.72000 981.332
69.76000 885.772
69.80000 805.992
69.84000 771.303
69.88000 731.033
69.92000 701.656
69.96000 657.824
70.00000 656.380