File: XRD/XRD/24-09-2025 Dep 3/XY Data/BTO_Mapping_Theta2Theta_24-09-2025_001_38_-8-090_-5-878.xy
20.00000 544.849
20.04000 570.577
20.08000 578.437
20.12000 548.703
20.16000 585.465
20.20000 555.808
20.24000 574.022
20.28000 557.860
20.32000 567.267
20.36000 550.921
20.40000 580.037
20.44000 554.910
20.48000 569.721
20.52000 574.702
20.56000 551.744
20.60000 542.814
20.64000 533.134
20.68000 546.737
20.72000 545.206
20.76000 548.192
20.80000 548.882
20.84000 571.330
20.88000 554.284
20.92000 550.264
20.96000 552.849
21.00000 570.406
21.04000 574.787
21.08000 561.586
21.12000 555.807
21.16000 554.602
21.20000 542.720
21.24000 529.791
21.28000 555.627
21.32000 550.133
21.36000 563.222
21.40000 540.221
21.44000 566.285
21.48000 557.810
21.52000 521.478
21.56000 547.643
21.60000 551.691
21.64000 554.809
21.68000 549.555
21.72000 567.283
21.76000 559.314
21.80000 600.869
21.84000 616.407
21.88000 652.482
21.92000 680.473
21.96000 706.845
22.00000 751.206
22.04000 761.644
22.08000 762.638
22.12000 745.750
22.16000 718.117
22.20000 690.456
22.24000 667.700
22.28000 630.155
22.32000 634.243
22.36000 576.460
22.40000 571.860
22.44000 557.397
22.48000 557.030
22.52000 556.999
22.56000 530.555
22.60000 543.421
22.64000 524.545
22.68000 532.718
22.72000 516.739
22.76000 534.870
22.80000 510.973
22.84000 508.960
22.88000 521.623
22.92000 520.893
22.96000 511.597
23.00000 520.168
23.04000 510.461
23.08000 533.206
23.12000 502.924
23.16000 519.752
23.20000 522.344
23.24000 506.108
23.28000 515.187
23.32000 507.466
23.36000 499.831
23.40000 500.257
23.44000 508.860
23.48000 517.787
23.52000 497.471
23.56000 505.828
23.60000 499.900
23.64000 499.490
23.68000 516.943
23.72000 522.114
23.76000 499.679
23.80000 488.667
23.84000 504.826
23.88000 496.859
23.92000 503.531
23.96000 500.096
24.00000 495.984
24.04000 508.931
24.08000 487.818
24.12000 505.697
24.16000 504.886
24.20000 504.684
24.24000 469.179
24.28000 494.403
24.32000 490.921
24.36000 494.861
24.40000 480.494
24.44000 482.546
24.48000 475.058
24.52000 472.202
24.56000 486.779
24.60000 493.507
24.64000 475.925
24.68000 476.506
24.72000 486.309
24.76000 494.703
24.80000 477.720
24.84000 499.236
24.88000 477.275
24.92000 484.115
24.96000 487.021
25.00000 475.206
25.04000 482.500
25.08000 495.064
25.12000 477.440
25.16000 477.644
25.20000 472.035
25.24000 481.791
25.28000 471.691
25.32000 464.855
25.36000 471.108
25.40000 468.210
25.44000 468.188
25.48000 461.490
25.52000 474.511
25.56000 481.892
25.60000 468.046
25.64000 474.782
25.68000 478.031
25.72000 461.807
25.76000 439.219
25.80000 447.131
25.84000 452.698
25.88000 447.724
25.92000 462.324
25.96000 474.609
26.00000 475.559
26.04000 480.588
26.08000 462.349
26.12000 461.067
26.16000 459.740
26.20000 446.065
26.24000 469.122
26.28000 436.742
26.32000 450.317
26.36000 459.069
26.40000 451.350
26.44000 441.355
26.48000 439.366
26.52000 452.364
26.56000 450.156
26.60000 475.168
26.64000 446.564
26.68000 461.907
26.72000 481.120
26.76000 451.027
26.80000 457.166
26.84000 460.109
26.88000 446.755
26.92000 448.923
26.96000 464.478
27.00000 448.912
27.04000 452.541
27.08000 445.568
27.12000 440.450
27.16000 449.117
27.20000 447.067
27.24000 452.059
27.28000 444.106
27.32000 412.307
27.36000 452.306
27.40000 443.962
27.44000 431.526
27.48000 431.899
27.52000 443.969
27.56000 418.808
27.60000 445.077
27.64000 434.468
27.68000 424.474
27.72000 438.304
27.76000 432.771
27.80000 437.210
27.84000 412.762
27.88000 428.851
27.92000 428.421
27.96000 428.608
28.00000 426.347
28.04000 444.525
28.08000 434.397
28.12000 447.903
28.16000 416.243
28.20000 435.266
28.24000 456.683
28.28000 428.613
28.32000 441.455
28.36000 435.491
28.40000 432.591
28.44000 429.197
28.48000 421.466
28.52000 415.566
28.56000 415.165
28.60000 420.825
28.64000 429.289
28.68000 424.115
28.72000 416.234
28.76000 424.238
28.80000 420.450
28.84000 424.857
28.88000 407.399
28.92000 417.369
28.96000 415.451
29.00000 421.999
29.04000 414.138
29.08000 432.132
29.12000 413.720
29.16000 408.052
29.20000 426.737
29.24000 414.221
29.28000 412.780
29.32000 417.409
29.36000 417.854
29.40000 419.289
29.44000 411.914
29.48000 417.179
29.52000 419.238
29.56000 413.552
29.60000 409.538
29.64000 413.399
29.68000 406.009
29.72000 429.012
29.76000 429.927
29.80000 450.582
29.84000 438.742
29.88000 431.443
29.92000 450.793
29.96000 463.498
30.00000 465.459
30.04000 462.821
30.08000 463.341
30.12000 461.070
30.16000 457.305
30.20000 450.012
30.24000 437.036
30.28000 438.828
30.32000 435.245
30.36000 434.283
30.40000 444.573
30.44000 435.088
30.48000 439.852
30.52000 435.422
30.56000 442.432
30.60000 444.676
30.64000 443.570
30.68000 458.044
30.72000 452.376
30.76000 466.798
30.80000 481.013
30.84000 482.709
30.88000 495.740
30.92000 532.872
30.96000 581.949
31.00000 624.254
31.04000 736.437
31.08000 897.902
31.12000 1115.693
31.16000 1450.232
31.20000 1892.575
31.24000 2416.991
31.28000 2922.145
31.32000 3393.551
31.36000 3619.926
31.40000 3617.268
31.44000 3451.266
31.48000 3040.033
31.52000 2554.644
31.56000 1979.763
31.60000 1534.866
31.64000 1196.705
31.68000 944.566
31.72000 758.506
31.76000 680.792
31.80000 588.552
31.84000 545.525
31.88000 496.677
31.92000 491.425
31.96000 449.251
32.00000 447.772
32.04000 449.774
32.08000 422.253
32.12000 414.312
32.16000 392.957
32.20000 414.076
32.24000 392.856
32.28000 397.290
32.32000 406.916
32.36000 394.266
32.40000 398.243
32.44000 377.710
32.48000 394.258
32.52000 389.501
32.56000 386.230
32.60000 380.645
32.64000 380.482
32.68000 372.711
32.72000 372.672
32.76000 368.172
32.80000 386.266
32.84000 444.354
32.88000 515.652
32.92000 510.774
32.96000 509.207
33.00000 509.483
33.04000 480.120
33.08000 430.694
33.12000 395.534
33.16000 387.475
33.20000 364.831
33.24000 358.700
33.28000 349.680
33.32000 335.412
33.36000 352.090
33.40000 336.706
33.44000 340.681
33.48000 332.492
33.52000 345.396
33.56000 335.306
33.60000 343.149
33.64000 360.979
33.68000 338.621
33.72000 343.900
33.76000 339.767
33.80000 342.005
33.84000 349.942
33.88000 338.351
33.92000 335.045
33.96000 330.518
34.00000 335.073
34.04000 334.832
34.08000 332.195
34.12000 351.058
34.16000 318.111
34.20000 322.838
34.24000 329.804
34.28000 332.685
34.32000 341.185
34.36000 318.792
34.40000 331.980
34.44000 327.600
34.48000 332.369
34.52000 325.984
34.56000 324.839
34.60000 327.661
34.64000 323.950
34.68000 319.144
34.72000 326.658
34.76000 329.527
34.80000 330.323
34.84000 344.146
34.88000 330.850
34.92000 308.804
34.96000 308.257
35.00000 309.901
35.04000 320.082
35.08000 323.307
35.12000 314.224
35.16000 298.865
35.20000 328.476
35.24000 309.747
35.28000 307.428
35.32000 303.936
35.36000 328.927
35.40000 309.503
35.44000 322.611
35.48000 323.066
35.52000 296.322
35.56000 320.409
35.60000 293.720
35.64000 302.689
35.68000 316.507
35.72000 312.210
35.76000 317.119
35.80000 298.882
35.84000 316.209
35.88000 312.686
35.92000 302.889
35.96000 313.025
36.00000 317.300
36.04000 310.768
36.08000 311.580
36.12000 312.027
36.16000 290.066
36.20000 289.197
36.24000 306.852
36.28000 301.423
36.32000 299.204
36.36000 297.175
36.40000 285.738
36.44000 300.298
36.48000 309.704
36.52000 304.551
36.56000 309.241
36.60000 308.187
36.64000 299.681
36.68000 311.227
36.72000 310.855
36.76000 287.850
36.80000 306.199
36.84000 325.683
36.88000 321.759
36.92000 309.506
36.96000 319.125
37.00000 302.236
37.04000 305.867
37.08000 321.691
37.12000 296.331
37.16000 286.457
37.20000 307.591
37.24000 312.711
37.28000 290.856
37.32000 301.894
37.36000 301.820
37.40000 290.799
37.44000 297.352
37.48000 289.330
37.52000 276.359
37.56000 310.714
37.60000 308.803
37.64000 296.744
37.68000 304.000
37.72000 299.788
37.76000 308.021
37.80000 301.438
37.84000 294.755
37.88000 291.934
37.92000 302.892
37.96000 299.231
38.00000 305.523
38.04000 300.520
38.08000 314.984
38.12000 309.418
38.16000 315.040
38.20000 310.845
38.24000 317.778
38.28000 333.809
38.32000 359.105
38.36000 404.577
38.40000 444.110
38.44000 525.915
38.48000 657.378
38.52000 791.956
38.56000 989.901
38.60000 1133.860
38.64000 1301.283
38.68000 1417.710
38.72000 1403.301
38.76000 1333.922
38.80000 1200.719
38.84000 992.887
38.88000 848.267
38.92000 660.283
38.96000 522.168
39.00000 430.200
39.04000 374.161
39.08000 351.474
39.12000 310.833
39.16000 303.782
39.20000 304.837
39.24000 294.290
39.28000 302.694
39.32000 287.607
39.36000 288.534
39.40000 275.194
39.44000 273.730
39.48000 279.557
39.52000 282.269
39.56000 274.078
39.60000 277.834
39.64000 253.454
39.68000 271.367
39.72000 277.197
39.76000 269.867
39.80000 276.287
39.84000 280.123
39.88000 273.515
39.92000 273.464
39.96000 261.886
40.00000 269.638
40.04000 254.486
40.08000 262.169
40.12000 246.457
40.16000 259.019
40.20000 263.018
40.24000 255.535
40.28000 262.995
40.32000 250.376
40.36000 247.621
40.40000 253.052
40.44000 253.324
40.48000 250.739
40.52000 253.547
40.56000 257.529
40.60000 267.151
40.64000 257.962
40.68000 248.214
40.72000 244.068
40.76000 252.863
40.80000 247.777
40.84000 245.844
40.88000 253.070
40.92000 243.563
40.96000 246.906
41.00000 262.842
41.04000 251.428
41.08000 238.429
41.12000 247.329
41.16000 256.105
41.20000 245.966
41.24000 243.803
41.28000 250.322
41.32000 241.701
41.36000 248.271
41.40000 251.522
41.44000 247.963
41.48000 231.804
41.52000 234.092
41.56000 236.476
41.60000 227.419
41.64000 233.103
41.68000 244.436
41.72000 245.153
41.76000 241.098
41.80000 225.786
41.84000 242.284
41.88000 240.239
41.92000 244.167
41.96000 246.162
42.00000 226.987
42.04000 237.055
42.08000 242.514
42.12000 233.607
42.16000 224.989
42.20000 246.706
42.24000 241.914
42.28000 239.278
42.32000 248.802
42.36000 233.296
42.40000 221.345
42.44000 225.841
42.48000 243.247
42.52000 239.173
42.56000 232.825
42.60000 235.009
42.64000 230.069
42.68000 219.756
42.72000 218.919
42.76000 224.270
42.80000 214.085
42.84000 235.222
42.88000 230.494
42.92000 229.867
42.96000 233.600
43.00000 231.222
43.04000 239.224
43.08000 217.759
43.12000 235.037
43.16000 233.962
43.20000 240.595
43.24000 233.036
43.28000 243.252
43.32000 242.206
43.36000 215.153
43.40000 231.063
43.44000 212.349
43.48000 217.871
43.52000 220.151
43.56000 231.425
43.60000 216.263
43.64000 217.362
43.68000 224.715
43.72000 242.141
43.76000 228.601
43.80000 230.913
43.84000 224.313
43.88000 216.573
43.92000 217.179
43.96000 225.245
44.00000 233.085
44.04000 216.917
44.08000 211.655
44.12000 225.999
44.16000 229.135
44.20000 216.198
44.24000 217.263
44.28000 225.625
44.32000 223.328
44.36000 234.038
44.40000 227.093
44.44000 220.246
44.48000 223.177
44.52000 216.892
44.56000 244.282
44.60000 234.713
44.64000 244.840
44.68000 239.067
44.72000 247.736
44.76000 259.872
44.80000 289.713
44.84000 308.070
44.88000 334.666
44.92000 354.139
44.96000 386.239
45.00000 398.898
45.04000 408.192
45.08000 423.552
45.12000 395.145
45.16000 359.869
45.20000 367.252
45.24000 351.245
45.28000 314.234
45.32000 316.620
45.36000 305.891
45.40000 295.326
45.44000 279.377
45.48000 265.226
45.52000 273.410
45.56000 269.397
45.60000 253.551
45.64000 253.420
45.68000 254.363
45.72000 248.960
45.76000 236.143
45.80000 236.155
45.84000 244.876
45.88000 225.698
45.92000 228.611
45.96000 215.075
46.00000 216.632
46.04000 216.277
46.08000 219.304
46.12000 214.013
46.16000 209.969
46.20000 212.433
46.24000 216.564
46.28000 210.615
46.32000 204.342
46.36000 210.814
46.40000 203.530
46.44000 207.664
46.48000 211.061
46.52000 198.273
46.56000 211.242
46.60000 194.190
46.64000 207.171
46.68000 198.198
46.72000 194.537
46.76000 200.396
46.80000 202.244
46.84000 189.671
46.88000 199.023
46.92000 209.316
46.96000 189.484
47.00000 192.526
47.04000 211.848
47.08000 193.002
47.12000 199.967
47.16000 191.661
47.20000 189.835
47.24000 193.093
47.28000 194.186
47.32000 191.972
47.36000 192.192
47.40000 188.921
47.44000 188.426
47.48000 196.321
47.52000 193.009
47.56000 192.813
47.60000 192.087
47.64000 203.903
47.68000 204.856
47.72000 200.909
47.76000 182.571
47.80000 187.573
47.84000 186.742
47.88000 181.409
47.92000 188.403
47.96000 180.723
48.00000 184.749
48.04000 191.911
48.08000 180.303
48.12000 187.002
48.16000 187.286
48.20000 193.259
48.24000 177.770
48.28000 188.223
48.32000 187.263
48.36000 184.225
48.40000 167.633
48.44000 178.103
48.48000 171.740
48.52000 186.097
48.56000 184.480
48.60000 187.522
48.64000 177.835
48.68000 187.034
48.72000 170.073
48.76000 183.064
48.80000 187.524
48.84000 172.670
48.88000 167.532
48.92000 183.984
48.96000 182.263
49.00000 173.087
49.04000 172.531
49.08000 175.937
49.12000 172.700
49.16000 183.572
49.20000 178.230
49.24000 183.680
49.28000 169.283
49.32000 172.458
49.36000 177.312
49.40000 170.577
49.44000 176.397
49.48000 176.633
49.52000 172.423
49.56000 172.795
49.60000 178.699
49.64000 172.137
49.68000 177.420
49.72000 179.321
49.76000 184.593
49.80000 190.610
49.84000 180.362
49.88000 178.244
49.92000 180.465
49.96000 169.386
50.00000 174.630
50.04000 173.450
50.08000 174.597
50.12000 178.361
50.16000 183.865
50.20000 174.190
50.24000 183.650
50.28000 186.829
50.32000 200.961
50.36000 201.850
50.40000 206.897
50.44000 220.265
50.48000 213.266
50.52000 245.121
50.56000 255.091
50.60000 258.226
50.64000 257.086
50.68000 273.954
50.72000 252.546
50.76000 256.726
50.80000 247.900
50.84000 238.322
50.88000 237.313
50.92000 218.938
50.96000 223.674
51.00000 204.249
51.04000 202.816
51.08000 208.478
51.12000 186.448
51.16000 167.839
51.20000 178.042
51.24000 171.297
51.28000 177.255
51.32000 169.067
51.36000 171.343
51.40000 168.308
51.44000 173.166
51.48000 160.368
51.52000 171.363
51.56000 169.229
51.60000 163.217
51.64000 159.728
51.68000 172.296
51.72000 164.684
51.76000 170.652
51.80000 149.887
51.84000 158.844
51.88000 161.923
51.92000 175.592
51.96000 161.006
52.00000 174.100
52.04000 165.422
52.08000 173.187
52.12000 165.187
52.16000 168.784
52.20000 168.676
52.24000 164.693
52.28000 167.863
52.32000 173.616
52.36000 168.534
52.40000 169.638
52.44000 159.551
52.48000 161.595
52.52000 154.604
52.56000 164.105
52.60000 158.396
52.64000 169.258
52.68000 162.631
52.72000 164.979
52.76000 161.658
52.80000 168.184
52.84000 162.413
52.88000 159.309
52.92000 155.124
52.96000 164.453
53.00000 159.384
53.04000 171.729
53.08000 160.296
53.12000 144.469
53.16000 154.253
53.20000 166.353
53.24000 172.186
53.28000 168.277
53.32000 166.386
53.36000 164.155
53.40000 161.725
53.44000 154.645
53.48000 166.602
53.52000 165.023
53.56000 168.418
53.60000 157.415
53.64000 165.341
53.68000 160.299
53.72000 160.376
53.76000 162.437
53.80000 155.468
53.84000 163.973
53.88000 157.871
53.92000 154.238
53.96000 149.271
54.00000 155.643
54.04000 154.711
54.08000 153.194
54.12000 153.903
54.16000 158.770
54.20000 156.623
54.24000 162.537
54.28000 167.748
54.32000 157.001
54.36000 146.802
54.40000 153.459
54.44000 157.752
54.48000 157.613
54.52000 159.297
54.56000 161.436
54.60000 151.985
54.64000 153.848
54.68000 145.715
54.72000 158.069
54.76000 153.469
54.80000 154.526
54.84000 150.839
54.88000 151.734
54.92000 158.396
54.96000 155.365
55.00000 153.221
55.04000 162.736
55.08000 179.037
55.12000 159.174
55.16000 166.629
55.20000 170.521
55.24000 170.614
55.28000 172.211
55.32000 170.057
55.36000 174.032
55.40000 181.133
55.44000 199.722
55.48000 206.103
55.52000 228.973
55.56000 266.721
55.60000 294.680
55.64000 334.924
55.68000 385.006
55.72000 476.474
55.76000 577.831
55.80000 647.627
55.84000 757.684
55.88000 786.174
55.92000 832.257
55.96000 826.389
56.00000 782.378
56.04000 696.897
56.08000 638.963
56.12000 550.418
56.16000 475.769
56.20000 405.401
56.24000 332.398
56.28000 304.401
56.32000 248.798
56.36000 234.190
56.40000 207.636
56.44000 210.636
56.48000 199.582
56.52000 187.373
56.56000 185.853
56.60000 177.831
56.64000 174.932
56.68000 175.071
56.72000 158.831
56.76000 163.826
56.80000 158.445
56.84000 161.579
56.88000 158.119
56.92000 144.563
56.96000 158.430
57.00000 154.102
57.04000 152.058
57.08000 148.667
57.12000 148.950
57.16000 144.691
57.20000 150.148
57.24000 140.125
57.28000 139.992
57.32000 148.303
57.36000 151.758
57.40000 143.838
57.44000 154.680
57.48000 146.279
57.52000 152.219
57.56000 130.108
57.60000 154.562
57.64000 142.906
57.68000 150.647
57.72000 148.959
57.76000 134.874
57.80000 145.804
57.84000 134.295
57.88000 139.086
57.92000 142.862
57.96000 136.125
58.00000 136.612
58.04000 131.926
58.08000 149.527
58.12000 132.460
58.16000 141.090
58.20000 144.511
58.24000 141.020
58.28000 137.389
58.32000 148.620
58.36000 148.848
58.40000 139.749
58.44000 142.271
58.48000 143.302
58.52000 142.741
58.56000 140.660
58.60000 143.738
58.64000 134.358
58.68000 133.240
58.72000 127.238
58.76000 131.314
58.80000 125.727
58.84000 138.606
58.88000 137.031
58.92000 128.457
58.96000 138.496
59.00000 144.297
59.04000 136.445
59.08000 138.130
59.12000 138.602
59.16000 131.919
59.20000 139.005
59.24000 141.789
59.28000 139.763
59.32000 141.611
59.36000 123.453
59.40000 130.486
59.44000 129.075
59.48000 131.220
59.52000 137.859
59.56000 136.913
59.60000 134.024
59.64000 139.314
59.68000 135.198
59.72000 138.728
59.76000 139.363
59.80000 132.382
59.84000 126.040
59.88000 127.060
59.92000 137.594
59.96000 127.640
60.00000 131.332
60.04000 127.535
60.08000 122.326
60.12000 123.106
60.16000 136.066
60.20000 137.226
60.24000 139.875
60.28000 124.860
60.32000 136.360
60.36000 121.692
60.40000 125.596
60.44000 127.246
60.48000 121.303
60.52000 126.714
60.56000 138.833
60.60000 133.701
60.64000 129.816
60.68000 139.020
60.72000 131.847
60.76000 136.731
60.80000 133.620
60.84000 139.942
60.88000 136.880
60.92000 132.523
60.96000 131.552
61.00000 129.981
61.04000 127.650
61.08000 131.562
61.12000 132.597
61.16000 135.258
61.20000 141.855
61.24000 132.240
61.28000 136.245
61.32000 143.459
61.36000 147.031
61.40000 136.265
61.44000 143.299
61.48000 141.166
61.52000 171.665
61.56000 198.763
61.60000 274.899
61.64000 279.318
61.68000 284.207
61.72000 288.574
61.76000 279.158
61.80000 229.027
61.84000 184.828
61.88000 159.231
61.92000 141.733
61.96000 138.933
62.00000 138.244
62.04000 144.071
62.08000 138.990
62.12000 136.776
62.16000 146.197
62.20000 137.996
62.24000 130.076
62.28000 136.760
62.32000 141.400
62.36000 145.833
62.40000 127.978
62.44000 134.544
62.48000 147.913
62.52000 144.971
62.56000 139.150
62.60000 139.318
62.64000 130.782
62.68000 144.350
62.72000 135.408
62.76000 131.838
62.80000 132.852
62.84000 143.643
62.88000 144.455
62.92000 149.851
62.96000 143.134
63.00000 142.116
63.04000 140.508
63.08000 146.225
63.12000 143.787
63.16000 143.514
63.20000 146.157
63.24000 145.481
63.28000 156.984
63.32000 153.606
63.36000 159.310
63.40000 141.604
63.44000 155.382
63.48000 155.285
63.52000 156.519
63.56000 148.161
63.60000 161.152
63.64000 158.238
63.68000 161.177
63.72000 150.302
63.76000 144.698
63.80000 157.731
63.84000 152.329
63.88000 154.277
63.92000 147.361
63.96000 151.396
64.00000 150.594
64.04000 148.717
64.08000 162.934
64.12000 157.717
64.16000 160.729
64.20000 164.074
64.24000 165.784
64.28000 157.932
64.32000 156.552
64.36000 174.860
64.40000 172.505
64.44000 170.515
64.48000 170.347
64.52000 174.961
64.56000 171.109
64.60000 173.735
64.64000 174.204
64.68000 163.352
64.72000 178.273
64.76000 180.623
64.80000 184.687
64.84000 184.270
64.88000 183.068
64.92000 183.534
64.96000 187.963
65.00000 199.667
65.04000 195.369
65.08000 213.606
65.12000 231.996
65.16000 238.665
65.20000 242.369
65.24000 271.851
65.28000 277.733
65.32000 302.959
65.36000 321.946
65.40000 363.350
65.44000 373.023
65.48000 387.380
65.52000 420.440
65.56000 422.210
65.60000 450.034
65.64000 496.485
65.68000 565.902
65.72000 740.664
65.76000 951.688
65.80000 1136.895
65.84000 1234.310
65.88000 1278.423
65.92000 1217.665
65.96000 1011.062
66.00000 733.330
66.04000 500.660
66.08000 374.933
66.12000 352.457
66.16000 317.135
66.20000 323.572
66.24000 326.669
66.28000 354.677
66.32000 414.339
66.36000 462.018
66.40000 479.591
66.44000 474.657
66.48000 458.140
66.52000 422.003
66.56000 357.371
66.60000 319.684
66.64000 342.888
66.68000 323.077
66.72000 327.472
66.76000 338.431
66.80000 335.046
66.84000 317.771
66.88000 342.034
66.92000 332.206
66.96000 346.703
67.00000 360.985
67.04000 359.396
67.08000 350.129
67.12000 370.131
67.16000 366.620
67.20000 369.550
67.24000 383.393
67.28000 393.982
67.32000 387.073
67.36000 385.222
67.40000 385.539
67.44000 424.291
67.48000 421.442
67.52000 416.388
67.56000 451.429
67.60000 441.020
67.64000 460.869
67.68000 437.667
67.72000 467.115
67.76000 466.006
67.80000 485.540
67.84000 502.347
67.88000 495.289
67.92000 523.698
67.96000 511.820
68.00000 533.517
68.04000 546.852
68.08000 546.281
68.12000 568.298
68.16000 562.205
68.20000 599.381
68.24000 609.722
68.28000 608.377
68.32000 641.648
68.36000 660.461
68.40000 687.321
68.44000 718.363
68.48000 759.474
68.52000 824.297
68.56000 874.270
68.60000 979.726
68.64000 1132.444
68.68000 1377.244
68.72000 1580.060
68.76000 1830.190
68.80000 2122.369
68.84000 2494.563
68.88000 3376.114
68.92000 5384.881
68.96000 14762.604
69.00000 32127.674
69.04000 50281.953
69.08000 59027.715
69.12000 61438.832
69.16000 63874.438
69.20000 63211.938
69.24000 52634.938
69.28000 40175.727
69.32000 32965.059
69.36000 29641.941
69.40000 24191.145
69.44000 15219.232
69.48000 6763.684
69.52000 3144.607
69.56000 1911.010
69.60000 1489.549
69.64000 1260.350
69.68000 1087.203
69.72000 992.644
69.76000 900.243
69.80000 843.810
69.84000 779.863
69.88000 745.818
69.92000 729.802
69.96000 710.592
70.00000 656.719