File: XRD/XRD/XRR 27-10-2025/XY Data/XRR_Trial_1_0-000_0-000.xy
0.30000 354528.813
0.30120 355263.719
0.30240 354866.938
0.30360 354359.625
0.30480 350175.688
0.30600 347695.438
0.30720 349150.969
0.30840 347530.250
0.30960 344914.125
0.31080 342586.219
0.31200 345740.594
0.31320 340581.219
0.31440 340505.031
0.31560 338914.594
0.31680 338427.188
0.31800 341242.844
0.31920 337744.281
0.32040 332510.469
0.32160 336170.219
0.32280 334144.656
0.32400 332113.813
0.32520 331408.625
0.32640 333821.906
0.32760 332425.375
0.32880 326484.375
0.33000 323789.688
0.33120 324677.656
0.33240 326663.906
0.33360 325777.656
0.33480 321135.313
0.33600 317571.813
0.33720 319266.625
0.33840 317053.781
0.33960 317258.125
0.34080 314945.406
0.34200 313487.625
0.34320 311993.500
0.34440 315133.500
0.34560 309795.125
0.34680 308226.969
0.34800 307437.500
0.34920 309247.969
0.35040 309047.156
0.35160 303629.156
0.35280 301775.125
0.35400 301032.563
0.35520 302223.938
0.35640 301868.688
0.35760 298758.813
0.35880 293174.063
0.36000 295446.406
0.36120 296491.750
0.36240 290877.719
0.36360 289657.406
0.36480 287615.906
0.36600 289465.688
0.36720 286649.000
0.36840 282932.938
0.36960 280939.281
0.37080 283334.375
0.37200 282073.656
0.37320 281259.500
0.37440 277907.344
0.37560 275392.813
0.37680 275071.531
0.37800 276324.813
0.37920 275043.594
0.38040 270322.219
0.38160 267559.125
0.38280 266153.344
0.38400 267507.250
0.38520 267747.656
0.38640 262032.047
0.38760 261496.734
0.38880 260040.391
0.39000 260055.828
0.39120 257413.578
0.39240 253963.797
0.39360 252743.375
0.39480 253879.063
0.39600 252597.344
0.39720 248361.609
0.39840 248277.797
0.39960 247187.031
0.40080 246004.094
0.40200 246226.281
0.40320 241595.297
0.40440 239659.719
0.40560 238994.234
0.40680 238910.500
0.40800 238133.516
0.40920 232639.766
0.41040 231669.141
0.41160 230669.344
0.41280 231858.609
0.41400 229419.609
0.41520 225109.000
0.41640 224738.516
0.41760 222378.516
0.41880 223682.141
0.42000 223263.703
0.42120 217896.031
0.42240 217632.969
0.42360 213371.531
0.42480 215594.891
0.42600 212255.000
0.42720 208738.563
0.42840 208960.703
0.42960 207835.641
0.43080 206992.313
0.43200 205329.297
0.43320 200816.703
0.43440 199915.594
0.43560 197579.609
0.43680 197343.625
0.43800 198130.500
0.43920 195147.500
0.44040 190777.375
0.44160 189032.094
0.44280 190154.406
0.44400 186525.188
0.44520 183176.359
0.44640 181880.688
0.44760 182270.969
0.44880 180976.359
0.45000 177963.766
0.45120 175235.906
0.45240 173847.281
0.45360 172627.516
0.45480 171844.328
0.45600 170596.141
0.45720 167299.094
0.45840 164266.578
0.45960 165370.031
0.46080 164362.984
0.46200 161308.047
0.46320 157898.531
0.46440 155394.406
0.46560 155844.188
0.46680 154010.734
0.46800 152676.656
0.46920 150089.688
0.47040 147670.000
0.47160 147030.234
0.47280 145263.844
0.47400 143465.063
0.47520 141374.484
0.47640 138309.844
0.47760 137628.063
0.47880 136103.906
0.48000 133277.484
0.48120 132111.891
0.48240 129898.844
0.48360 129379.523
0.48480 127791.281
0.48600 127493.242
0.48720 123045.445
0.48840 121552.141
0.48960 119113.242
0.49080 119424.453
0.49200 117385.719
0.49320 115762.977
0.49440 112265.102
0.49560 111148.719
0.49680 110711.117
0.49800 107532.672
0.49920 105442.859
0.50040 104738.641
0.50160 104096.313
0.50280 101334.336
0.50400 99084.133
0.50520 96464.211
0.50640 95332.438
0.50760 95046.969
0.50880 92953.938
0.51000 90257.719
0.51120 88101.688
0.51240 86678.031
0.51360 85606.688
0.51480 84196.211
0.51600 82377.867
0.51720 81084.383
0.51840 79011.234
0.51960 76770.945
0.52080 75144.859
0.52200 74148.102
0.52320 73103.469
0.52440 70839.680
0.52560 69299.422
0.52680 68051.297
0.52800 66433.063
0.52920 63870.086
0.53040 61791.703
0.53160 61321.996
0.53280 59484.711
0.53400 58370.449
0.53520 56371.445
0.53640 54818.684
0.53760 53209.355
0.53880 52071.176
0.54000 50050.781
0.54120 49098.305
0.54240 47807.352
0.54360 46259.270
0.54480 45067.469
0.54600 42910.039
0.54720 41715.938
0.54840 40670.102
0.54960 39555.242
0.55080 37845.355
0.55200 36683.543
0.55320 35731.848
0.55440 34300.238
0.55560 33225.961
0.55680 31882.318
0.55800 30237.355
0.55920 29184.420
0.56040 28160.473
0.56160 26982.430
0.56280 25459.244
0.56400 24741.064
0.56520 23766.330
0.56640 22401.561
0.56760 21013.957
0.56880 20084.633
0.57000 19488.904
0.57120 18923.670
0.57240 17733.832
0.57360 16723.172
0.57480 15791.765
0.57600 14947.351
0.57720 14512.643
0.57840 13395.901
0.57960 12546.967
0.58080 11784.972
0.58200 10934.840
0.58320 10452.758
0.58440 9778.302
0.58560 9223.492
0.58680 8492.485
0.58800 7771.967
0.58920 7345.018
0.59040 6765.740
0.59160 6435.357
0.59280 5781.303
0.59400 5347.628
0.59520 5122.422
0.59640 4605.926
0.59760 4285.791
0.59880 3832.925
0.60000 3564.793
0.60120 3060.126
0.60240 2934.674
0.60360 2722.077
0.60480 2299.268
0.60600 2137.816
0.60720 1937.965
0.60840 1731.900
0.60960 1614.856
0.61080 1345.234
0.61200 1258.463
0.61320 1117.592
0.61440 972.571
0.61560 855.814
0.61680 743.870
0.61800 703.028
0.61920 620.302
0.62040 580.249
0.62160 486.090
0.62280 404.763
0.62400 359.992
0.62520 338.733
0.62640 289.744
0.62760 236.394
0.62880 221.841
0.63000 177.999
0.63120 178.971
0.63240 150.323
0.63360 147.028
0.63480 140.638
0.63600 112.407
0.63720 85.530
0.63840 88.416
0.63960 83.892
0.64080 79.706
0.64200 60.429
0.64320 55.150
0.64440 47.881
0.64560 46.037
0.64680 52.170
0.64800 37.185
0.64920 36.486
0.65040 25.196
0.65160 34.047
0.65280 43.077
0.65400 22.139
0.65520 24.039
0.65640 22.245
0.65760 18.324
0.65880 23.020
0.66000 27.075
0.66120 28.247
0.66240 18.158
0.66360 19.018
0.66480 16.015
0.66600 19.112
0.66720 11.999
0.66840 15.138
0.66960 12.905
0.67080 18.978
0.67200 10.026
0.67320 17.190
0.67440 10.039
0.67560 16.013
0.67680 7.904
0.67800 19.985
0.67920 12.060
0.68040 8.047
0.68160 6.037
0.68280 6.034
0.68400 13.082
0.68520 8.077
0.68640 10.972
0.68760 12.039
0.68880 14.249
0.69000 8.103
0.69120 11.960
0.69240 9.975
0.69360 8.109
0.69480 6.024
0.69600 5.970
0.69720 9.122
0.69840 9.162
0.69960 4.981
0.70080 13.168
0.70200 5.116
0.70320 6.030
0.70440 10.077
0.70560 4.013
0.70680 11.055
0.70800 7.129
0.70920 8.008
0.71040 5.051
0.71160 5.024
0.71280 8.102
0.71400 4.067
0.71520 7.922
0.71640 9.982
0.71760 5.040
0.71880 3.019
0.72000 4.001
0.72120 7.058
0.72240 9.945
0.72360 4.987
0.72480 5.063
0.72600 6.023
0.72720 5.020
0.72840 3.989
0.72960 6.103
0.73080 12.074
0.73200 3.998
0.73320 5.997
0.73440 6.147
0.73560 4.067
0.73680 7.098
0.73800 3.966
0.73920 4.046
0.74040 11.287
0.74160 2.018
0.74280 9.012
0.74400 3.018
0.74520 4.039
0.74640 3.049
0.74760 4.081
0.74880 6.979
0.75000 3.972
0.75120 0.981
0.75240 5.109
0.75360 5.021
0.75480 6.014
0.75600 2.030
0.75720 5.974
0.75840 1.057
0.75960 3.026
0.76080 2.990
0.76200 1.957
0.76320 2.040
0.76440 2.961
0.76560 3.982
0.76680 1.989
0.76800 4.059
0.76920 4.020
0.77040 9.060
0.77160 4.001
0.77280 2.032
0.77400 9.012
0.77520 4.001
0.77640 3.987
0.77760 4.036
0.77880 1.007
0.78000 2.998
0.78120 6.049
0.78240 3.022
0.78360 1.030
0.78480 5.035
0.78600 3.111
0.78720 2.035
0.78840 0.973
0.78960 3.996
0.79080 2.018
0.79200 3.006
0.79320 2.962
0.79440 3.067
0.79560 3.055
0.79680 4.006
0.79800 0.993
0.79920 4.979
0.80040 2.989
0.80160 4.922
0.80280 1.983
0.80400 1.009
0.80520 5.050
0.80640 1.974
0.80760 0.000
0.80880 2.992
0.81000 6.046
0.81120 2.968
0.81240 2.969
0.81360 0.988
0.81480 4.023
0.81600 2.968
0.81720 1.045
0.81840 4.972
0.81960 2.991
0.82080 3.068
0.82200 6.069
0.82320 0.000
0.82440 3.998
0.82560 1.001
0.82680 3.009
0.82800 1.993
0.82920 0.978
0.83040 0.992
0.83160 3.014
0.83280 2.008
0.83400 2.989
0.83520 6.061
0.83640 2.025
0.83760 1.984
0.83880 3.111
0.84000 3.033
0.84120 0.000
0.84240 2.021
0.84360 4.058
0.84480 3.072
0.84600 1.972
0.84720 4.091
0.84840 0.981
0.84960 3.997
0.85080 2.989
0.85200 1.953
0.85320 3.007
0.85440 2.995
0.85560 3.921
0.85680 1.040
0.85800 2.043
0.85920 0.981
0.86040 1.019
0.86160 4.052
0.86280 0.000
0.86400 2.079
0.86520 2.030
0.86640 2.004
0.86760 0.983
0.86880 3.003
0.87000 1.965
0.87120 0.984
0.87240 0.990
0.87360 2.026
0.87480 5.051
0.87600 3.044
0.87720 2.999
0.87840 0.976
0.87960 0.000
0.88080 0.000
0.88200 2.063
0.88320 6.088
0.88440 4.028
0.88560 4.925
0.88680 1.033
0.88800 4.081
0.88920 0.000
0.89040 0.977
0.89160 2.009
0.89280 0.998
0.89400 1.014
0.89520 2.052
0.89640 2.000
0.89760 1.007
0.89880 0.000
0.90000 0.978
0.90120 1.006
0.90240 0.000
0.90360 2.017
0.90480 1.982
0.90600 1.974
0.90720 2.963
0.90840 0.000
0.90960 4.022
0.91080 0.000
0.91200 2.042
0.91320 0.000
0.91440 0.000
0.91560 1.046
0.91680 0.000
0.91800 4.003
0.91920 3.049
0.92040 0.000
0.92160 0.985
0.92280 0.000
0.92400 4.023
0.92520 2.016
0.92640 0.000
0.92760 1.013
0.92880 3.000
0.93000 2.997
0.93120 1.997
0.93240 1.008
0.93360 0.997
0.93480 1.046
0.93600 2.055
0.93720 4.008
0.93840 1.012
0.93960 4.032
0.94080 0.000
0.94200 3.008
0.94320 3.068
0.94440 0.000
0.94560 1.955
0.94680 0.000
0.94800 0.997
0.94920 0.978
0.95040 2.095
0.95160 0.978
0.95280 3.028
0.95400 0.000
0.95520 3.026
0.95640 1.022
0.95760 0.000
0.95880 0.000
0.96000 0.000
0.96120 3.910
0.96240 1.022
0.96360 2.934
0.96480 0.000
0.96600 1.988
0.96720 1.032
0.96840 2.024
0.96960 0.969
0.97080 1.040
0.97200 4.022
0.97320 2.012
0.97440 3.053
0.97560 0.989
0.97680 2.046
0.97800 0.981
0.97920 3.057
0.98040 1.984
0.98160 1.025
0.98280 0.000
0.98400 0.000
0.98520 2.025
0.98640 0.000
0.98760 0.000
0.98880 2.010
0.99000 1.009
0.99120 1.983
0.99240 0.969
0.99360 1.029
0.99480 0.978
0.99600 0.000
0.99720 0.000
0.99840 1.014
0.99960 0.977
1.00080 2.992
1.00200 0.000
1.00320 1.054
1.00440 0.000
1.00560 1.994
1.00680 0.976
1.00800 2.029
1.00920 1.956
1.01040 0.988
1.01160 0.989
1.01280 0.000
1.01400 3.055
1.01520 2.019
1.01640 0.000
1.01760 0.000
1.01880 1.013
1.02000 0.000
1.02120 0.000
1.02240 1.975
1.02360 0.977
1.02480 1.046
1.02600 0.000
1.02720 1.012
1.02840 0.000
1.02960 0.000
1.03080 1.012
1.03200 0.000
1.03320 2.014
1.03440 1.020
1.03560 1.030
1.03680 0.000
1.03800 0.000
1.03920 0.976
1.04040 2.015
1.04160 1.005
1.04280 1.002
1.04400 0.983
1.04520 1.030
1.04640 0.978
1.04760 0.000
1.04880 2.004
1.05000 0.000
1.05120 2.062
1.05240 0.000
1.05360 0.992
1.05480 1.020
1.05600 3.055
1.05720 0.000
1.05840 0.000
1.05960 0.000
1.06080 0.000
1.06200 0.000
1.06320 1.989
1.06440 0.000
1.06560 1.999
1.06680 0.000
1.06800 0.000
1.06920 1.081
1.07040 0.000
1.07160 0.000
1.07280 0.978
1.07400 1.033
1.07520 0.998
1.07640 0.000
1.07760 0.965
1.07880 0.969
1.08000 0.000
1.08120 1.033
1.08240 1.029
1.08360 0.982
1.08480 0.000
1.08600 3.062
1.08720 0.000
1.08840 0.000
1.08960 0.000
1.09080 0.000
1.09200 0.969
1.09320 0.000
1.09440 1.020
1.09560 0.000
1.09680 0.981
1.09800 1.015
1.09920 1.081
1.10040 0.000
1.10160 0.000
1.10280 2.095
1.10400 0.997
1.10520 1.008
1.10640 0.988
1.10760 0.000
1.10880 0.000
1.11000 0.000
1.11120 0.992
1.11240 1.041
1.11360 0.000
1.11480 0.000
1.11600 0.994
1.11720 0.000
1.11840 0.000
1.11960 0.000
1.12080 1.024
1.12200 0.000
1.12320 0.000
1.12440 2.010
1.12560 0.000
1.12680 1.985
1.12800 1.047
1.12920 4.092
1.13040 1.013
1.13160 1.985
1.13280 1.016
1.13400 0.000
1.13520 0.000
1.13640 0.993
1.13760 2.009
1.13880 0.000
1.14000 0.000
1.14120 0.969
1.14240 0.000
1.14360 0.978
1.14480 0.000
1.14600 1.045
1.14720 0.000
1.14840 0.000
1.14960 0.998
1.15080 0.000
1.15200 0.000
1.15320 2.013
1.15440 0.000
1.15560 1.020
1.15680 2.025
1.15800 0.000
1.15920 1.022
1.16040 0.978
1.16160 0.000
1.16280 0.994
1.16400 0.000
1.16520 2.081
1.16640 0.000
1.16760 1.022
1.16880 0.000
1.17000 0.000
1.17120 0.000
1.17240 1.015
1.17360 0.000
1.17480 0.000
1.17600 0.000
1.17720 1.012
1.17840 0.000
1.17960 1.021
1.18080 1.993
1.18200 0.000
1.18320 0.000
1.18440 0.000
1.18560 0.000
1.18680 0.000
1.18800 1.996
1.18920 0.000
1.19040 0.000
1.19160 0.000
1.19280 0.000
1.19400 1.039
1.19520 0.993
1.19640 0.000
1.19760 0.000
1.19880 0.000
1.20000 1.005
1.20120 0.998
1.20240 1.006
1.20360 0.989
1.20480 0.000
1.20600 1.965
1.20720 0.962
1.20840 2.018
1.20960 0.000
1.21080 0.969
1.21200 1.021
1.21320 1.029
1.21440 0.000
1.21560 0.972
1.21680 0.000
1.21800 0.000
1.21920 0.000
1.22040 0.000
1.22160 0.000
1.22280 0.000
1.22400 0.000
1.22520 0.000
1.22640 1.013
1.22760 1.012
1.22880 0.976
1.23000 0.000
1.23120 0.989
1.23240 1.012
1.23360 0.000
1.23480 2.063
1.23600 0.000
1.23720 0.000
1.23840 0.000
1.23960 0.000
1.24080 0.000
1.24200 0.000
1.24320 0.990
1.24440 1.970
1.24560 0.000
1.24680 0.000
1.24800 1.001
1.24920 0.000
1.25040 0.000
1.25160 0.000
1.25280 0.000
1.25400 2.034
1.25520 1.957
1.25640 0.978
1.25760 1.016
1.25880 0.000
1.26000 0.000
1.26120 0.000
1.26240 0.998
1.26360 0.000
1.26480 0.000
1.26600 1.013
1.26720 0.000
1.26840 0.000
1.26960 2.002
1.27080 0.000
1.27200 2.029
1.27320 0.000
1.27440 1.988
1.27560 0.000
1.27680 0.000
1.27800 0.000
1.27920 0.000
1.28040 0.000
1.28160 0.000
1.28280 0.000
1.28400 0.000
1.28520 1.000
1.28640 2.996
1.28760 0.000
1.28880 0.000
1.29000 0.976
1.29120 0.000
1.29240 1.996
1.29360 2.007
1.29480 1.007
1.29600 0.000
1.29720 0.990
1.29840 0.000
1.29960 0.000
1.30080 1.029
1.30200 0.000
1.30320 0.000
1.30440 0.000
1.30560 0.997
1.30680 0.000
1.30800 0.000
1.30920 0.000
1.31040 2.041
1.31160 0.000
1.31280 0.977
1.31400 0.000
1.31520 0.000
1.31640 1.011
1.31760 0.000
1.31880 2.036
1.32000 0.000
1.32120 1.001
1.32240 0.000
1.32360 1.066
1.32480 2.973
1.32600 0.000
1.32720 0.000
1.32840 0.000
1.32960 0.000
1.33080 0.000
1.33200 1.041
1.33320 0.000
1.33440 0.000
1.33560 0.000
1.33680 0.000
1.33800 0.000
1.33920 0.000
1.34040 0.000
1.34160 0.000
1.34280 0.998
1.34400 0.965
1.34520 0.000
1.34640 0.000
1.34760 1.081
1.34880 0.000
1.35000 1.062
1.35120 0.000
1.35240 0.000
1.35360 0.000
1.35480 0.000
1.35600 0.000
1.35720 0.000
1.35840 0.000
1.35960 0.000
1.36080 0.998
1.36200 0.000
1.36320 0.000
1.36440 0.000
1.36560 0.000
1.36680 0.000
1.36800 0.000
1.36920 0.000
1.37040 0.000
1.37160 0.000
1.37280 0.000
1.37400 0.000
1.37520 1.005
1.37640 0.000
1.37760 0.000
1.37880 0.000
1.38000 0.000
1.38120 0.000
1.38240 0.000
1.38360 0.000
1.38480 0.000
1.38600 0.000
1.38720 0.000
1.38840 0.000
1.38960 0.989
1.39080 0.000
1.39200 1.012
1.39320 0.000
1.39440 0.000
1.39560 2.035
1.39680 0.000
1.39800 0.000
1.39920 0.000
1.40040 0.000
1.40160 0.000
1.40280 0.000
1.40400 0.000
1.40520 0.000
1.40640 0.969
1.40760 0.000
1.40880 0.000
1.41000 0.000
1.41120 0.000
1.41240 0.000
1.41360 0.000
1.41480 0.000
1.41600 1.033
1.41720 0.000
1.41840 0.000
1.41960 0.000
1.42080 0.000
1.42200 0.000
1.42320 0.980
1.42440 0.000
1.42560 0.000
1.42680 1.005
1.42800 1.057
1.42920 0.000
1.43040 0.000
1.43160 0.000
1.43280 0.976
1.43400 0.000
1.43520 0.000
1.43640 0.000
1.43760 0.000
1.43880 0.000
1.44000 0.000
1.44120 0.000
1.44240 0.992
1.44360 0.000
1.44480 0.000
1.44600 0.000
1.44720 0.000
1.44840 0.000
1.44960 0.969
1.45080 0.000
1.45200 0.000
1.45320 0.000
1.45440 0.000
1.45560 0.000
1.45680 0.978
1.45800 0.000
1.45920 0.000
1.46040 0.000
1.46160 1.001
1.46280 0.000
1.46400 0.000
1.46520 0.000
1.46640 0.000
1.46760 0.000
1.46880 0.000
1.47000 0.000
1.47120 0.972
1.47240 0.000
1.47360 0.000
1.47480 0.000
1.47600 0.000
1.47720 0.000
1.47840 0.000
1.47960 0.000
1.48080 0.000
1.48200 0.981
1.48320 0.000
1.48440 1.039
1.48560 0.000
1.48680 0.000
1.48800 0.000
1.48920 0.000
1.49040 1.940
1.49160 0.000
1.49280 0.000
1.49400 0.000
1.49520 0.000
1.49640 0.000
1.49760 0.000
1.49880 1.005
1.50000 0.000