File: XRD/09-10-2025 Dep 8/XY Data/BTO_Mapping_Theta2Theta_09-10-2025_001_23_-10-000_17-321.xy
20.00000 494.995
20.04000 469.406
20.08000 471.657
20.12000 484.610
20.16000 474.812
20.20000 499.454
20.24000 484.841
20.28000 490.834
20.32000 475.559
20.36000 492.652
20.40000 479.002
20.44000 489.901
20.48000 492.742
20.52000 485.251
20.56000 490.383
20.60000 483.960
20.64000 491.106
20.68000 470.847
20.72000 457.686
20.76000 483.289
20.80000 464.046
20.84000 457.447
20.88000 472.318
20.92000 474.490
20.96000 483.226
21.00000 483.934
21.04000 457.198
21.08000 483.766
21.12000 488.894
21.16000 499.455
21.20000 486.641
21.24000 499.452
21.28000 460.050
21.32000 478.153
21.36000 467.969
21.40000 477.674
21.44000 478.795
21.48000 469.632
21.52000 482.552
21.56000 462.565
21.60000 469.753
21.64000 492.026
21.68000 492.928
21.72000 500.678
21.76000 497.475
21.80000 514.440
21.84000 530.772
21.88000 549.689
21.92000 563.487
21.96000 585.874
22.00000 661.252
22.04000 649.649
22.08000 672.071
22.12000 665.309
22.16000 653.337
22.20000 621.708
22.24000 601.796
22.28000 604.802
22.32000 548.705
22.36000 552.602
22.40000 500.214
22.44000 501.093
22.48000 472.452
22.52000 483.332
22.56000 478.376
22.60000 455.979
22.64000 470.184
22.68000 462.536
22.72000 453.163
22.76000 431.726
22.80000 436.961
22.84000 445.953
22.88000 453.102
22.92000 467.377
22.96000 448.752
23.00000 438.227
23.04000 421.935
23.08000 452.871
23.12000 438.363
23.16000 440.196
23.20000 450.101
23.24000 445.547
23.28000 445.331
23.32000 449.098
23.36000 423.862
23.40000 413.613
23.44000 445.191
23.48000 447.447
23.52000 412.005
23.56000 422.808
23.60000 428.164
23.64000 422.712
23.68000 435.669
23.72000 419.991
23.76000 435.380
23.80000 439.591
23.84000 452.897
23.88000 433.274
23.92000 421.307
23.96000 443.893
24.00000 413.473
24.04000 439.155
24.08000 424.928
24.12000 427.173
24.16000 438.886
24.20000 428.292
24.24000 423.195
24.28000 436.433
24.32000 406.577
24.36000 414.931
24.40000 426.686
24.44000 424.537
24.48000 430.271
24.52000 430.490
24.56000 415.550
24.60000 432.981
24.64000 404.898
24.68000 397.175
24.72000 414.212
24.76000 408.331
24.80000 402.110
24.84000 393.541
24.88000 409.120
24.92000 407.995
24.96000 412.293
25.00000 429.064
25.04000 414.020
25.08000 418.573
25.12000 402.951
25.16000 398.763
25.20000 405.391
25.24000 413.507
25.28000 416.340
25.32000 409.424
25.36000 400.971
25.40000 386.109
25.44000 390.601
25.48000 396.216
25.52000 395.785
25.56000 407.505
25.60000 405.379
25.64000 391.399
25.68000 412.469
25.72000 389.885
25.76000 401.767
25.80000 408.891
25.84000 402.350
25.88000 402.974
25.92000 415.759
25.96000 404.635
26.00000 383.276
26.04000 378.080
26.08000 394.885
26.12000 379.602
26.16000 399.616
26.20000 406.377
26.24000 401.394
26.28000 397.045
26.32000 407.104
26.36000 370.514
26.40000 386.761
26.44000 388.671
26.48000 384.666
26.52000 407.284
26.56000 389.416
26.60000 405.129
26.64000 387.659
26.68000 396.943
26.72000 378.267
26.76000 385.691
26.80000 376.112
26.84000 389.054
26.88000 367.872
26.92000 390.646
26.96000 368.183
27.00000 364.672
27.04000 378.576
27.08000 360.197
27.12000 389.734
27.16000 389.206
27.20000 391.643
27.24000 384.780
27.28000 376.728
27.32000 376.584
27.36000 375.621
27.40000 376.260
27.44000 355.045
27.48000 382.470
27.52000 381.775
27.56000 367.843
27.60000 372.731
27.64000 367.649
27.68000 379.380
27.72000 373.054
27.76000 363.181
27.80000 380.855
27.84000 366.855
27.88000 376.427
27.92000 347.249
27.96000 364.417
28.00000 371.109
28.04000 360.807
28.08000 358.285
28.12000 372.006
28.16000 379.236
28.20000 371.174
28.24000 374.148
28.28000 370.090
28.32000 368.409
28.36000 377.490
28.40000 361.032
28.44000 376.440
28.48000 370.800
28.52000 349.333
28.56000 365.733
28.60000 361.384
28.64000 356.271
28.68000 364.676
28.72000 356.851
28.76000 375.896
28.80000 369.530
28.84000 359.313
28.88000 369.996
28.92000 368.176
28.96000 366.009
29.00000 372.938
29.04000 354.277
29.08000 357.900
29.12000 369.781
29.16000 338.475
29.20000 378.949
29.24000 359.542
29.28000 359.402
29.32000 352.328
29.36000 352.893
29.40000 361.037
29.44000 358.682
29.48000 363.051
29.52000 367.041
29.56000 360.906
29.60000 352.248
29.64000 342.599
29.68000 375.525
29.72000 362.410
29.76000 375.055
29.80000 389.746
29.84000 376.708
29.88000 382.251
29.92000 409.767
29.96000 447.047
30.00000 445.379
30.04000 441.128
30.08000 476.126
30.12000 464.184
30.16000 447.483
30.20000 428.263
30.24000 392.979
30.28000 405.654
30.32000 415.508
30.36000 402.565
30.40000 404.042
30.44000 405.633
30.48000 398.033
30.52000 420.725
30.56000 408.810
30.60000 396.337
30.64000 395.035
30.68000 400.541
30.72000 412.364
30.76000 402.994
30.80000 427.985
30.84000 426.974
30.88000 457.522
30.92000 482.770
30.96000 493.669
31.00000 517.625
31.04000 586.896
31.08000 659.856
31.12000 805.482
31.16000 987.763
31.20000 1261.502
31.24000 1595.214
31.28000 2066.195
31.32000 2468.043
31.36000 2826.572
31.40000 3022.239
31.44000 3032.873
31.48000 2732.011
31.52000 2372.405
31.56000 1940.457
31.60000 1571.569
31.64000 1242.864
31.68000 969.100
31.72000 798.128
31.76000 631.546
31.80000 559.540
31.84000 509.890
31.88000 478.083
31.92000 448.870
31.96000 422.860
32.00000 388.064
32.04000 383.191
32.08000 380.603
32.12000 369.019
32.16000 369.625
32.20000 352.604
32.24000 351.200
32.28000 343.185
32.32000 342.998
32.36000 343.681
32.40000 352.186
32.44000 340.545
32.48000 342.846
32.52000 325.781
32.56000 341.547
32.60000 362.506
32.64000 342.253
32.68000 339.854
32.72000 314.668
32.76000 324.786
32.80000 323.682
32.84000 337.418
32.88000 308.425
32.92000 320.746
32.96000 316.943
33.00000 310.939
33.04000 328.820
33.08000 314.328
33.12000 316.212
33.16000 313.637
33.20000 302.328
33.24000 313.472
33.28000 312.821
33.32000 308.826
33.36000 298.452
33.40000 302.574
33.44000 294.179
33.48000 292.403
33.52000 307.024
33.56000 306.902
33.60000 305.310
33.64000 310.277
33.68000 303.966
33.72000 297.232
33.76000 299.848
33.80000 289.605
33.84000 302.769
33.88000 297.344
33.92000 280.062
33.96000 288.736
34.00000 304.805
34.04000 299.984
34.08000 283.203
34.12000 278.284
34.16000 290.413
34.20000 282.461
34.24000 270.378
34.28000 285.817
34.32000 296.307
34.36000 280.968
34.40000 291.622
34.44000 286.206
34.48000 282.613
34.52000 282.719
34.56000 274.438
34.60000 285.301
34.64000 291.518
34.68000 276.927
34.72000 287.050
34.76000 288.064
34.80000 278.949
34.84000 269.049
34.88000 293.572
34.92000 281.850
34.96000 296.125
35.00000 281.483
35.04000 287.569
35.08000 275.621
35.12000 276.636
35.16000 276.787
35.20000 286.311
35.24000 283.574
35.28000 272.708
35.32000 265.428
35.36000 284.203
35.40000 274.213
35.44000 260.897
35.48000 265.625
35.52000 269.025
35.56000 276.623
35.60000 287.949
35.64000 275.893
35.68000 282.949
35.72000 261.780
35.76000 270.057
35.80000 271.700
35.84000 276.169
35.88000 277.545
35.92000 268.007
35.96000 258.602
36.00000 277.381
36.04000 257.127
36.08000 259.579
36.12000 258.492
36.16000 250.222
36.20000 281.211
36.24000 253.150
36.28000 262.055
36.32000 275.018
36.36000 264.491
36.40000 258.494
36.44000 278.383
36.48000 265.406
36.52000 261.156
36.56000 266.075
36.60000 267.094
36.64000 262.656
36.68000 255.750
36.72000 256.357
36.76000 261.912
36.80000 267.617
36.84000 257.418
36.88000 270.306
36.92000 284.257
36.96000 286.658
37.00000 282.180
37.04000 287.172
37.08000 284.253
37.12000 287.166
37.16000 276.334
37.20000 281.415
37.24000 274.355
37.28000 276.006
37.32000 257.129
37.36000 267.605
37.40000 268.900
37.44000 251.877
37.48000 259.330
37.52000 256.848
37.56000 263.805
37.60000 253.549
37.64000 254.431
37.68000 282.483
37.72000 260.541
37.76000 257.674
37.80000 264.820
37.84000 262.966
37.88000 265.038
37.92000 271.251
37.96000 261.684
38.00000 254.689
38.04000 264.006
38.08000 254.676
38.12000 266.081
38.16000 273.882
38.20000 274.034
38.24000 288.288
38.28000 273.649
38.32000 288.811
38.36000 319.446
38.40000 362.924
38.44000 370.864
38.48000 430.280
38.52000 508.721
38.56000 647.798
38.60000 787.089
38.64000 900.758
38.68000 1024.797
38.72000 1056.999
38.76000 1042.622
38.80000 997.116
38.84000 868.873
38.88000 716.829
38.92000 610.466
38.96000 483.271
39.00000 406.525
39.04000 347.612
39.08000 327.952
39.12000 295.356
39.16000 286.251
39.20000 285.667
39.24000 264.404
39.28000 264.460
39.32000 257.157
39.36000 248.447
39.40000 251.923
39.44000 245.451
39.48000 244.912
39.52000 241.735
39.56000 246.080
39.60000 240.504
39.64000 248.584
39.68000 242.633
39.72000 243.037
39.76000 239.542
39.80000 229.157
39.84000 223.992
39.88000 223.030
39.92000 236.710
39.96000 228.078
40.00000 227.738
40.04000 234.222
40.08000 237.581
40.12000 236.367
40.16000 219.272
40.20000 229.100
40.24000 225.228
40.28000 241.628
40.32000 221.036
40.36000 224.435
40.40000 219.169
40.44000 216.719
40.48000 219.710
40.52000 221.840
40.56000 218.611
40.60000 225.262
40.64000 232.381
40.68000 223.050
40.72000 230.120
40.76000 216.681
40.80000 214.010
40.84000 222.611
40.88000 247.071
40.92000 212.868
40.96000 208.038
41.00000 218.735
41.04000 213.352
41.08000 220.943
41.12000 238.966
41.16000 229.087
41.20000 203.836
41.24000 215.811
41.28000 207.145
41.32000 222.352
41.36000 212.150
41.40000 213.324
41.44000 213.796
41.48000 212.389
41.52000 210.669
41.56000 201.433
41.60000 211.528
41.64000 212.455
41.68000 212.374
41.72000 201.498
41.76000 208.742
41.80000 213.845
41.84000 219.948
41.88000 202.246
41.92000 213.860
41.96000 208.699
42.00000 196.736
42.04000 216.266
42.08000 206.258
42.12000 202.688
42.16000 205.505
42.20000 204.820
42.24000 210.371
42.28000 196.692
42.32000 202.610
42.36000 203.083
42.40000 195.720
42.44000 201.816
42.48000 210.238
42.52000 209.987
42.56000 200.822
42.60000 205.334
42.64000 202.333
42.68000 198.444
42.72000 209.706
42.76000 210.404
42.80000 201.836
42.84000 197.034
42.88000 207.099
42.92000 204.980
42.96000 210.884
43.00000 206.023
43.04000 195.852
43.08000 205.540
43.12000 197.221
43.16000 199.224
43.20000 203.551
43.24000 213.018
43.28000 214.303
43.32000 214.958
43.36000 214.288
43.40000 198.631
43.44000 195.219
43.48000 193.480
43.52000 205.143
43.56000 205.864
43.60000 199.645
43.64000 190.746
43.68000 200.740
43.72000 199.476
43.76000 196.874
43.80000 200.063
43.84000 191.306
43.88000 193.668
43.92000 199.987
43.96000 190.444
44.00000 185.642
44.04000 192.895
44.08000 195.733
44.12000 195.683
44.16000 198.169
44.20000 200.284
44.24000 198.571
44.28000 196.808
44.32000 189.864
44.36000 192.140
44.40000 195.227
44.44000 204.110
44.48000 214.873
44.52000 213.532
44.56000 207.625
44.60000 209.916
44.64000 210.474
44.68000 217.463
44.72000 214.473
44.76000 231.700
44.80000 240.841
44.84000 252.180
44.88000 265.898
44.92000 286.036
44.96000 295.272
45.00000 321.474
45.04000 346.682
45.08000 352.248
45.12000 335.603
45.16000 353.449
45.20000 350.211
45.24000 333.084
45.28000 321.483
45.32000 301.598
45.36000 294.182
45.40000 283.984
45.44000 266.087
45.48000 240.350
45.52000 252.362
45.56000 237.288
45.60000 227.474
45.64000 228.301
45.68000 234.189
45.72000 215.071
45.76000 207.049
45.80000 211.389
45.84000 198.340
45.88000 195.983
45.92000 194.601
45.96000 196.367
46.00000 183.508
46.04000 194.222
46.08000 186.705
46.12000 187.069
46.16000 178.222
46.20000 182.879
46.24000 178.431
46.28000 182.852
46.32000 185.593
46.36000 170.059
46.40000 180.417
46.44000 177.486
46.48000 185.232
46.52000 184.160
46.56000 177.061
46.60000 164.243
46.64000 172.579
46.68000 165.928
46.72000 166.650
46.76000 178.914
46.80000 186.487
46.84000 172.595
46.88000 168.587
46.92000 171.272
46.96000 169.104
47.00000 167.772
47.04000 177.061
47.08000 175.670
47.12000 163.381
47.16000 175.075
47.20000 167.297
47.24000 159.462
47.28000 168.895
47.32000 171.544
47.36000 181.414
47.40000 169.012
47.44000 174.906
47.48000 164.515
47.52000 162.127
47.56000 166.562
47.60000 174.330
47.64000 170.011
47.68000 155.240
47.72000 163.944
47.76000 162.132
47.80000 161.714
47.84000 158.319
47.88000 162.513
47.92000 164.877
47.96000 162.933
48.00000 161.520
48.04000 156.040
48.08000 150.895
48.12000 163.276
48.16000 167.253
48.20000 162.722
48.24000 161.047
48.28000 163.683
48.32000 158.085
48.36000 168.451
48.40000 165.517
48.44000 150.385
48.48000 155.848
48.52000 167.297
48.56000 158.500
48.60000 159.087
48.64000 154.726
48.68000 153.682
48.72000 155.919
48.76000 163.347
48.80000 154.740
48.84000 158.850
48.88000 153.934
48.92000 159.057
48.96000 156.940
49.00000 155.042
49.04000 163.509
49.08000 152.646
49.12000 151.288
49.16000 154.101
49.20000 147.494
49.24000 167.973
49.28000 167.570
49.32000 160.697
49.36000 158.199
49.40000 152.025
49.44000 157.133
49.48000 158.681
49.52000 158.194
49.56000 142.696
49.60000 148.869
49.64000 145.310
49.68000 154.548
49.72000 157.064
49.76000 152.186
49.80000 149.930
49.84000 150.792
49.88000 157.901
49.92000 152.324
49.96000 160.605
50.00000 149.790
50.04000 163.058
50.08000 162.276
50.12000 166.509
50.16000 158.654
50.20000 158.637
50.24000 156.185
50.28000 164.470
50.32000 155.086
50.36000 169.296
50.40000 160.708
50.44000 166.370
50.48000 174.189
50.52000 185.033
50.56000 199.511
50.60000 207.009
50.64000 219.525
50.68000 228.612
50.72000 236.004
50.76000 226.711
50.80000 246.038
50.84000 234.212
50.88000 222.300
50.92000 214.501
50.96000 198.337
51.00000 181.848
51.04000 184.325
51.08000 186.038
51.12000 169.270
51.16000 169.623
51.20000 164.278
51.24000 164.765
51.28000 174.322
51.32000 159.160
51.36000 163.303
51.40000 148.270
51.44000 155.556
51.48000 154.910
51.52000 141.595
51.56000 157.115
51.60000 144.720
51.64000 147.817
51.68000 152.243
51.72000 163.029
51.76000 150.583
51.80000 149.930
51.84000 145.185
51.88000 145.423
51.92000 145.095
51.96000 144.214
52.00000 146.225
52.04000 141.966
52.08000 145.274
52.12000 143.234
52.16000 144.783
52.20000 150.626
52.24000 145.595
52.28000 143.117
52.32000 148.970
52.36000 139.307
52.40000 153.503
52.44000 132.645
52.48000 143.255
52.52000 142.003
52.56000 139.088
52.60000 140.065
52.64000 139.934
52.68000 138.039
52.72000 140.153
52.76000 145.039
52.80000 148.218
52.84000 141.228
52.88000 145.091
52.92000 138.444
52.96000 131.295
53.00000 142.045
53.04000 149.279
53.08000 146.842
53.12000 151.863
53.16000 144.634
53.20000 138.168
53.24000 140.199
53.28000 146.565
53.32000 150.844
53.36000 159.895
53.40000 161.952
53.44000 148.905
53.48000 148.140
53.52000 145.830
53.56000 153.508
53.60000 140.373
53.64000 137.417
53.68000 149.044
53.72000 152.328
53.76000 148.585
53.80000 140.564
53.84000 136.682
53.88000 149.423
53.92000 136.837
53.96000 138.563
54.00000 141.266
54.04000 137.558
54.08000 153.666
54.12000 134.249
54.16000 144.842
54.20000 134.226
54.24000 140.647
54.28000 136.059
54.32000 135.740
54.36000 139.587
54.40000 132.047
54.44000 138.297
54.48000 129.774
54.52000 145.462
54.56000 143.556
54.60000 141.667
54.64000 136.270
54.68000 130.718
54.72000 129.317
54.76000 137.826
54.80000 140.462
54.84000 145.199
54.88000 141.468
54.92000 140.769
54.96000 145.252
55.00000 147.775
55.04000 134.861
55.08000 144.597
55.12000 148.870
55.16000 150.304
55.20000 149.919
55.24000 139.456
55.28000 154.529
55.32000 156.384
55.36000 157.519
55.40000 164.623
55.44000 159.062
55.48000 172.404
55.52000 184.386
55.56000 198.088
55.60000 205.019
55.64000 237.041
55.68000 255.056
55.72000 279.426
55.76000 311.067
55.80000 379.458
55.84000 423.226
55.88000 482.160
55.92000 535.770
55.96000 576.240
56.00000 578.610
56.04000 568.228
56.08000 515.598
56.12000 491.752
56.16000 443.308
56.20000 384.166
56.24000 331.581
56.28000 306.203
56.32000 266.314
56.36000 237.184
56.40000 209.929
56.44000 208.217
56.48000 193.534
56.52000 182.141
56.56000 169.116
56.60000 169.447
56.64000 161.723
56.68000 150.540
56.72000 143.423
56.76000 148.757
56.80000 149.330
56.84000 143.161
56.88000 142.485
56.92000 135.907
56.96000 127.551
57.00000 142.630
57.04000 137.904
57.08000 136.757
57.12000 140.417
57.16000 132.123
57.20000 130.982
57.24000 136.874
57.28000 136.376
57.32000 113.810
57.36000 137.956
57.40000 126.072
57.44000 131.602
57.48000 130.180
57.52000 126.729
57.56000 126.877
57.60000 127.062
57.64000 129.620
57.68000 132.420
57.72000 127.123
57.76000 130.093
57.80000 127.123
57.84000 128.131
57.88000 120.179
57.92000 120.231
57.96000 129.090
58.00000 127.498
58.04000 124.842
58.08000 126.001
58.12000 114.115
58.16000 125.948
58.20000 130.792
58.24000 130.071
58.28000 120.846
58.32000 125.574
58.36000 122.807
58.40000 124.278
58.44000 121.142
58.48000 128.431
58.52000 124.649
58.56000 120.360
58.60000 122.163
58.64000 112.661
58.68000 130.117
58.72000 121.806
58.76000 118.519
58.80000 129.574
58.84000 129.011
58.88000 117.373
58.92000 123.056
58.96000 124.325
59.00000 127.570
59.04000 111.863
59.08000 131.658
59.12000 117.346
59.16000 124.324
59.20000 104.020
59.24000 124.261
59.28000 130.296
59.32000 117.021
59.36000 114.251
59.40000 115.373
59.44000 119.102
59.48000 110.064
59.52000 116.642
59.56000 122.097
59.60000 119.135
59.64000 116.971
59.68000 128.906
59.72000 119.014
59.76000 116.307
59.80000 130.889
59.84000 127.048
59.88000 118.908
59.92000 126.703
59.96000 121.267
60.00000 120.643
60.04000 112.762
60.08000 122.333
60.12000 113.961
60.16000 117.611
60.20000 117.917
60.24000 121.449
60.28000 127.708
60.32000 116.605
60.36000 119.289
60.40000 122.540
60.44000 114.083
60.48000 114.399
60.52000 116.218
60.56000 122.996
60.60000 121.462
60.64000 118.622
60.68000 119.977
60.72000 121.509
60.76000 114.792
60.80000 115.928
60.84000 112.680
60.88000 114.567
60.92000 124.065
60.96000 112.201
61.00000 125.203
61.04000 115.748
61.08000 113.586
61.12000 121.611
61.16000 131.784
61.20000 125.260
61.24000 126.054
61.28000 126.527
61.32000 130.111
61.36000 129.497
61.40000 135.962
61.44000 137.716
61.48000 151.484
61.52000 178.868
61.56000 242.509
61.60000 311.691
61.64000 355.799
61.68000 365.135
61.72000 378.221
61.76000 346.921
61.80000 265.429
61.84000 194.829
61.88000 154.220
61.92000 136.614
61.96000 134.112
62.00000 133.265
62.04000 133.818
62.08000 132.903
62.12000 131.262
62.16000 130.912
62.20000 125.014
62.24000 129.558
62.28000 131.682
62.32000 134.250
62.36000 132.542
62.40000 135.560
62.44000 137.526
62.48000 132.404
62.52000 136.218
62.56000 135.139
62.60000 134.607
62.64000 138.675
62.68000 132.038
62.72000 133.542
62.76000 130.172
62.80000 135.018
62.84000 147.044
62.88000 133.671
62.92000 144.297
62.96000 139.892
63.00000 142.639
63.04000 123.219
63.08000 146.381
63.12000 144.513
63.16000 141.370
63.20000 142.874
63.24000 139.699
63.28000 151.533
63.32000 138.529
63.36000 139.362
63.40000 140.363
63.44000 149.497
63.48000 134.049
63.52000 126.983
63.56000 130.838
63.60000 139.754
63.64000 136.622
63.68000 149.275
63.72000 149.448
63.76000 150.196
63.80000 153.128
63.84000 146.319
63.88000 151.050
63.92000 149.225
63.96000 151.614
64.00000 145.706
64.04000 149.635
64.08000 157.576
64.12000 148.776
64.16000 155.436
64.20000 159.225
64.24000 165.954
64.28000 162.582
64.32000 165.379
64.36000 176.567
64.40000 161.249
64.44000 170.688
64.48000 163.195
64.52000 164.709
64.56000 171.819
64.60000 174.527
64.64000 161.950
64.68000 182.055
64.72000 177.719
64.76000 189.456
64.80000 176.838
64.84000 184.869
64.88000 194.752
64.92000 196.338
64.96000 198.540
65.00000 203.110
65.04000 212.261
65.08000 224.365
65.12000 222.879
65.16000 237.416
65.20000 246.693
65.24000 273.907
65.28000 269.829
65.32000 274.705
65.36000 321.318
65.40000 335.414
65.44000 378.888
65.48000 407.272
65.52000 461.283
65.56000 493.949
65.60000 550.848
65.64000 640.092
65.68000 907.905
65.72000 1366.159
65.76000 2010.798
65.80000 2552.203
65.84000 2787.406
65.88000 2798.852
65.92000 2668.374
65.96000 2094.912
66.00000 1411.203
66.04000 850.400
66.08000 624.612
66.12000 522.293
66.16000 471.789
66.20000 476.716
66.24000 491.206
66.28000 605.310
66.32000 691.658
66.36000 779.324
66.40000 823.500
66.44000 820.951
66.48000 808.495
66.52000 679.897
66.56000 563.578
66.60000 482.234
66.64000 443.483
66.68000 423.556
66.72000 438.715
66.76000 419.639
66.80000 416.315
66.84000 442.916
66.88000 437.410
66.92000 414.939
66.96000 440.767
67.00000 439.879
67.04000 441.508
67.08000 448.713
67.12000 445.782
67.16000 460.487
67.20000 466.318
67.24000 451.331
67.28000 469.919
67.32000 460.464
67.36000 484.155
67.40000 502.968
67.44000 487.738
67.48000 510.677
67.52000 503.698
67.56000 514.054
67.60000 532.867
67.64000 514.360
67.68000 532.622
67.72000 532.285
67.76000 549.105
67.80000 566.854
67.84000 554.316
67.88000 562.006
67.92000 576.276
67.96000 583.165
68.00000 569.172
68.04000 604.453
68.08000 618.867
68.12000 614.846
68.16000 650.738
68.20000 662.522
68.24000 662.505
68.28000 683.513
68.32000 736.537
68.36000 720.636
68.40000 742.020
68.44000 750.691
68.48000 802.569
68.52000 849.192
68.56000 962.273
68.60000 1065.735
68.64000 1251.427
68.68000 1480.439
68.72000 1733.313
68.76000 1986.931
68.80000 2353.050
68.84000 2710.312
68.88000 3625.985
68.92000 6359.792
68.96000 15009.423
69.00000 33468.512
69.04000 52455.266
69.08000 62164.270
69.12000 66429.016
69.16000 70291.953
69.20000 68407.453
69.24000 55157.531
69.28000 42021.328
69.32000 34042.879
69.36000 31379.123
69.40000 25648.693
69.44000 15356.974
69.48000 6921.163
69.52000 3130.223
69.56000 1814.453
69.60000 1390.728
69.64000 1172.106
69.68000 1006.688
69.72000 894.215
69.76000 821.591
69.80000 741.145
69.84000 713.026
69.88000 655.151
69.92000 631.158
69.96000 619.436
70.00000 563.545