File: XRD/09-10-2025 Dep 8/XY Data/BTO_Mapping_Theta2Theta_09-10-2025_001_60_27-406_-12-202.xy
20.00000 484.247
20.04000 490.444
20.08000 514.932
20.12000 497.857
20.16000 472.491
20.20000 474.681
20.24000 490.008
20.28000 469.958
20.32000 502.804
20.36000 490.366
20.40000 484.484
20.44000 480.547
20.48000 468.774
20.52000 473.784
20.56000 476.897
20.60000 490.458
20.64000 476.181
20.68000 478.330
20.72000 481.597
20.76000 476.469
20.80000 475.256
20.84000 465.137
20.88000 476.329
20.92000 471.753
20.96000 462.927
21.00000 477.996
21.04000 466.401
21.08000 480.573
21.12000 482.150
21.16000 474.560
21.20000 487.190
21.24000 480.319
21.28000 485.955
21.32000 486.901
21.36000 496.100
21.40000 485.220
21.44000 465.948
21.48000 473.154
21.52000 477.658
21.56000 500.413
21.60000 475.965
21.64000 471.883
21.68000 489.120
21.72000 494.588
21.76000 502.920
21.80000 496.035
21.84000 510.506
21.88000 515.943
21.92000 523.536
21.96000 532.763
22.00000 550.790
22.04000 571.029
22.08000 574.745
22.12000 589.591
22.16000 589.091
22.20000 575.297
22.24000 574.638
22.28000 555.907
22.32000 551.874
22.36000 532.696
22.40000 533.550
22.44000 499.986
22.48000 498.010
22.52000 485.748
22.56000 474.718
22.60000 472.295
22.64000 479.368
22.68000 470.373
22.72000 426.904
22.76000 441.344
22.80000 463.541
22.84000 448.090
22.88000 451.556
22.92000 466.381
22.96000 432.836
23.00000 450.905
23.04000 457.882
23.08000 437.383
23.12000 434.922
23.16000 430.389
23.20000 437.703
23.24000 418.958
23.28000 430.682
23.32000 451.697
23.36000 442.138
23.40000 417.621
23.44000 446.044
23.48000 451.382
23.52000 440.172
23.56000 437.703
23.60000 436.304
23.64000 457.168
23.68000 436.610
23.72000 441.920
23.76000 449.677
23.80000 443.355
23.84000 421.003
23.88000 473.420
23.92000 453.670
23.96000 444.256
24.00000 460.524
24.04000 424.718
24.08000 423.521
24.12000 437.255
24.16000 442.961
24.20000 440.430
24.24000 438.930
24.28000 433.851
24.32000 416.988
24.36000 445.470
24.40000 412.328
24.44000 411.955
24.48000 422.085
24.52000 428.489
24.56000 412.842
24.60000 408.661
24.64000 411.569
24.68000 399.408
24.72000 404.688
24.76000 442.466
24.80000 398.855
24.84000 416.261
24.88000 429.692
24.92000 428.972
24.96000 414.185
25.00000 419.295
25.04000 402.236
25.08000 407.596
25.12000 422.436
25.16000 405.497
25.20000 396.954
25.24000 398.639
25.28000 410.870
25.32000 413.677
25.36000 404.900
25.40000 413.567
25.44000 397.172
25.48000 403.450
25.52000 406.212
25.56000 408.982
25.60000 409.821
25.64000 400.511
25.68000 407.402
25.72000 388.599
25.76000 404.346
25.80000 410.020
25.84000 401.907
25.88000 404.387
25.92000 408.943
25.96000 406.826
26.00000 393.876
26.04000 404.365
26.08000 397.536
26.12000 397.759
26.16000 399.588
26.20000 404.274
26.24000 395.013
26.28000 399.039
26.32000 402.159
26.36000 398.032
26.40000 395.476
26.44000 391.454
26.48000 395.431
26.52000 398.656
26.56000 373.636
26.60000 398.270
26.64000 389.139
26.68000 361.534
26.72000 387.560
26.76000 391.420
26.80000 403.405
26.84000 395.217
26.88000 378.952
26.92000 379.114
26.96000 398.651
27.00000 381.317
27.04000 363.682
27.08000 369.336
27.12000 379.603
27.16000 381.271
27.20000 364.919
27.24000 372.586
27.28000 367.185
27.32000 384.260
27.36000 378.463
27.40000 385.205
27.44000 380.899
27.48000 373.391
27.52000 377.165
27.56000 373.766
27.60000 369.269
27.64000 386.160
27.68000 384.442
27.72000 378.394
27.76000 389.515
27.80000 373.231
27.84000 389.308
27.88000 381.768
27.92000 380.739
27.96000 368.245
28.00000 361.199
28.04000 372.744
28.08000 386.316
28.12000 360.413
28.16000 381.903
28.20000 371.019
28.24000 365.133
28.28000 371.514
28.32000 376.431
28.36000 385.676
28.40000 352.116
28.44000 359.570
28.48000 378.053
28.52000 374.336
28.56000 366.874
28.60000 363.799
28.64000 359.715
28.68000 366.279
28.72000 357.693
28.76000 349.959
28.80000 376.323
28.84000 373.070
28.88000 363.188
28.92000 369.066
28.96000 361.104
29.00000 365.295
29.04000 358.034
29.08000 357.781
29.12000 364.875
29.16000 367.661
29.20000 354.228
29.24000 351.285
29.28000 349.788
29.32000 358.958
29.36000 364.031
29.40000 345.081
29.44000 349.187
29.48000 358.270
29.52000 351.553
29.56000 362.983
29.60000 355.008
29.64000 367.491
29.68000 353.573
29.72000 367.145
29.76000 363.373
29.80000 375.352
29.84000 378.078
29.88000 404.088
29.92000 397.616
29.96000 435.209
30.00000 413.041
30.04000 428.871
30.08000 427.175
30.12000 427.859
30.16000 405.360
30.20000 392.523
30.24000 405.938
30.28000 390.172
30.32000 378.904
30.36000 391.195
30.40000 381.515
30.44000 386.779
30.48000 364.389
30.52000 383.352
30.56000 381.201
30.60000 404.013
30.64000 381.890
30.68000 377.001
30.72000 406.152
30.76000 386.512
30.80000 385.361
30.84000 404.160
30.88000 419.861
30.92000 434.111
30.96000 440.928
31.00000 479.344
31.04000 494.508
31.08000 535.036
31.12000 640.864
31.16000 759.058
31.20000 940.705
31.24000 1194.313
31.28000 1503.753
31.32000 1792.714
31.36000 2120.287
31.40000 2257.731
31.44000 2304.133
31.48000 2192.683
31.52000 1982.754
31.56000 1685.111
31.60000 1382.077
31.64000 1125.325
31.68000 898.436
31.72000 754.625
31.76000 646.415
31.80000 558.614
31.84000 503.808
31.88000 458.306
31.92000 422.944
31.96000 423.803
32.00000 400.640
32.04000 372.621
32.08000 384.871
32.12000 366.749
32.16000 363.164
32.20000 346.967
32.24000 346.886
32.28000 354.696
32.32000 349.979
32.36000 359.132
32.40000 343.056
32.44000 349.309
32.48000 341.620
32.52000 321.796
32.56000 325.451
32.60000 311.879
32.64000 318.198
32.68000 318.950
32.72000 327.863
32.76000 309.680
32.80000 325.469
32.84000 319.843
32.88000 301.784
32.92000 324.456
32.96000 293.117
33.00000 297.807
33.04000 311.321
33.08000 320.275
33.12000 291.416
33.16000 301.894
33.20000 314.934
33.24000 283.647
33.28000 291.159
33.32000 307.469
33.36000 304.257
33.40000 304.757
33.44000 296.245
33.48000 298.037
33.52000 296.997
33.56000 290.258
33.60000 283.010
33.64000 280.797
33.68000 307.106
33.72000 279.149
33.76000 291.393
33.80000 300.557
33.84000 293.106
33.88000 297.276
33.92000 294.327
33.96000 285.479
34.00000 301.641
34.04000 292.258
34.08000 296.835
34.12000 295.103
34.16000 299.808
34.20000 280.820
34.24000 292.094
34.28000 300.074
34.32000 284.182
34.36000 296.292
34.40000 282.769
34.44000 290.967
34.48000 288.062
34.52000 288.601
34.56000 282.861
34.60000 284.716
34.64000 290.524
34.68000 269.356
34.72000 300.248
34.76000 270.692
34.80000 267.562
34.84000 275.092
34.88000 285.664
34.92000 282.908
34.96000 276.470
35.00000 286.848
35.04000 275.012
35.08000 293.819
35.12000 275.495
35.16000 272.384
35.20000 263.049
35.24000 281.956
35.28000 275.364
35.32000 280.991
35.36000 270.293
35.40000 272.833
35.44000 275.764
35.48000 271.814
35.52000 265.411
35.56000 265.345
35.60000 284.480
35.64000 259.876
35.68000 278.392
35.72000 273.985
35.76000 281.717
35.80000 265.810
35.84000 260.490
35.88000 260.719
35.92000 267.442
35.96000 260.489
36.00000 261.402
36.04000 264.006
36.08000 271.602
36.12000 265.797
36.16000 271.419
36.20000 259.384
36.24000 264.988
36.28000 260.007
36.32000 267.093
36.36000 258.427
36.40000 262.086
36.44000 259.408
36.48000 264.135
36.52000 248.768
36.56000 267.195
36.60000 285.008
36.64000 260.265
36.68000 270.059
36.72000 255.490
36.76000 247.318
36.80000 264.369
36.84000 266.829
36.88000 267.245
36.92000 272.291
36.96000 263.617
37.00000 273.565
37.04000 280.027
37.08000 283.371
37.12000 288.166
37.16000 279.297
37.20000 269.249
37.24000 284.522
37.28000 273.831
37.32000 260.798
37.36000 257.732
37.40000 254.925
37.44000 261.310
37.48000 266.622
37.52000 254.098
37.56000 249.714
37.60000 261.666
37.64000 261.402
37.68000 252.076
37.72000 243.939
37.76000 247.822
37.80000 266.361
37.84000 272.357
37.88000 254.615
37.92000 257.508
37.96000 248.667
38.00000 257.612
38.04000 255.158
38.08000 268.192
38.12000 260.415
38.16000 263.781
38.20000 279.888
38.24000 268.594
38.28000 281.362
38.32000 278.926
38.36000 292.819
38.40000 304.248
38.44000 343.078
38.48000 380.268
38.52000 435.549
38.56000 512.282
38.60000 634.254
38.64000 752.838
38.68000 909.688
38.72000 1020.760
38.76000 1098.569
38.80000 1100.749
38.84000 1010.750
38.88000 880.542
38.92000 738.456
38.96000 593.393
39.00000 480.469
39.04000 377.374
39.08000 342.869
39.12000 307.099
39.16000 296.605
39.20000 264.432
39.24000 258.316
39.28000 243.541
39.32000 255.797
39.36000 255.363
39.40000 239.827
39.44000 247.967
39.48000 246.623
39.52000 240.915
39.56000 239.820
39.60000 237.512
39.64000 229.836
39.68000 234.995
39.72000 237.283
39.76000 228.112
39.80000 238.995
39.84000 249.431
39.88000 231.646
39.92000 218.260
39.96000 234.334
40.00000 229.425
40.04000 236.104
40.08000 226.405
40.12000 221.382
40.16000 222.184
40.20000 226.377
40.24000 225.152
40.28000 221.742
40.32000 226.301
40.36000 218.485
40.40000 229.194
40.44000 220.257
40.48000 223.297
40.52000 226.969
40.56000 226.511
40.60000 218.258
40.64000 231.174
40.68000 211.691
40.72000 225.114
40.76000 233.599
40.80000 216.080
40.84000 214.526
40.88000 215.727
40.92000 217.744
40.96000 222.775
41.00000 215.308
41.04000 204.712
41.08000 216.529
41.12000 208.559
41.16000 211.856
41.20000 227.745
41.24000 209.885
41.28000 216.340
41.32000 217.569
41.36000 223.263
41.40000 216.260
41.44000 228.340
41.48000 219.382
41.52000 221.771
41.56000 213.035
41.60000 209.962
41.64000 217.031
41.68000 212.495
41.72000 212.755
41.76000 196.955
41.80000 202.014
41.84000 214.043
41.88000 211.535
41.92000 209.768
41.96000 214.812
42.00000 208.170
42.04000 198.845
42.08000 207.892
42.12000 206.351
42.16000 209.154
42.20000 206.930
42.24000 215.558
42.28000 209.333
42.32000 189.089
42.36000 195.774
42.40000 202.141
42.44000 208.647
42.48000 205.723
42.52000 201.461
42.56000 194.765
42.60000 203.106
42.64000 197.683
42.68000 205.945
42.72000 209.910
42.76000 197.361
42.80000 202.455
42.84000 194.280
42.88000 193.619
42.92000 190.506
42.96000 204.656
43.00000 210.556
43.04000 200.256
43.08000 202.650
43.12000 206.400
43.16000 206.005
43.20000 198.482
43.24000 199.578
43.28000 213.305
43.32000 197.999
43.36000 200.847
43.40000 200.704
43.44000 194.878
43.48000 197.732
43.52000 187.654
43.56000 191.408
43.60000 198.749
43.64000 201.898
43.68000 203.480
43.72000 187.866
43.76000 190.942
43.80000 199.715
43.84000 194.510
43.88000 196.527
43.92000 200.908
43.96000 196.852
44.00000 182.725
44.04000 198.988
44.08000 197.823
44.12000 193.490
44.16000 196.309
44.20000 187.206
44.24000 197.840
44.28000 187.931
44.32000 205.574
44.36000 201.701
44.40000 198.871
44.44000 186.348
44.48000 191.199
44.52000 210.291
44.56000 199.751
44.60000 199.108
44.64000 199.709
44.68000 200.916
44.72000 209.659
44.76000 216.836
44.80000 220.408
44.84000 218.893
44.88000 220.359
44.92000 230.213
44.96000 227.117
45.00000 239.770
45.04000 249.925
45.08000 263.325
45.12000 276.136
45.16000 286.147
45.20000 274.779
45.24000 288.283
45.28000 254.857
45.32000 272.127
45.36000 255.878
45.40000 255.415
45.44000 267.950
45.48000 254.679
45.52000 236.160
45.56000 223.365
45.60000 228.267
45.64000 234.949
45.68000 230.782
45.72000 220.766
45.76000 220.211
45.80000 210.079
45.84000 216.381
45.88000 194.930
45.92000 216.620
45.96000 209.962
46.00000 196.096
46.04000 195.206
46.08000 185.289
46.12000 192.265
46.16000 181.173
46.20000 187.783
46.24000 191.855
46.28000 197.323
46.32000 180.190
46.36000 176.777
46.40000 180.352
46.44000 179.454
46.48000 181.814
46.52000 168.262
46.56000 181.209
46.60000 172.388
46.64000 175.397
46.68000 164.489
46.72000 178.956
46.76000 178.540
46.80000 169.691
46.84000 174.822
46.88000 167.739
46.92000 174.570
46.96000 173.262
47.00000 169.773
47.04000 174.084
47.08000 167.708
47.12000 176.492
47.16000 169.418
47.20000 159.739
47.24000 169.602
47.28000 168.190
47.32000 167.245
47.36000 159.995
47.40000 173.045
47.44000 174.422
47.48000 157.283
47.52000 174.659
47.56000 175.520
47.60000 162.913
47.64000 153.067
47.68000 162.438
47.72000 165.012
47.76000 178.158
47.80000 157.841
47.84000 161.221
47.88000 168.756
47.92000 168.592
47.96000 165.414
48.00000 165.739
48.04000 155.507
48.08000 161.535
48.12000 155.713
48.16000 171.929
48.20000 166.963
48.24000 161.152
48.28000 155.368
48.32000 167.551
48.36000 165.265
48.40000 165.020
48.44000 172.418
48.48000 171.822
48.52000 163.558
48.56000 162.345
48.60000 155.762
48.64000 152.978
48.68000 156.765
48.72000 166.475
48.76000 159.680
48.80000 158.956
48.84000 161.871
48.88000 167.227
48.92000 160.823
48.96000 158.736
49.00000 151.239
49.04000 156.541
49.08000 148.834
49.12000 157.073
49.16000 161.221
49.20000 165.863
49.24000 150.756
49.28000 153.470
49.32000 159.371
49.36000 154.817
49.40000 159.175
49.44000 159.234
49.48000 156.095
49.52000 147.636
49.56000 151.766
49.60000 156.839
49.64000 150.380
49.68000 154.093
49.72000 158.193
49.76000 145.202
49.80000 149.597
49.84000 153.837
49.88000 161.066
49.92000 156.611
49.96000 163.281
50.00000 152.487
50.04000 156.123
50.08000 145.869
50.12000 154.734
50.16000 156.937
50.20000 159.346
50.24000 169.126
50.28000 153.866
50.32000 161.754
50.36000 153.490
50.40000 164.426
50.44000 168.176
50.48000 159.073
50.52000 177.663
50.56000 172.462
50.60000 187.325
50.64000 211.369
50.68000 204.309
50.72000 220.081
50.76000 222.149
50.80000 220.043
50.84000 218.192
50.88000 202.407
50.92000 200.581
50.96000 201.190
51.00000 185.530
51.04000 177.147
51.08000 178.511
51.12000 166.564
51.16000 167.485
51.20000 165.789
51.24000 153.302
51.28000 152.742
51.32000 164.909
51.36000 158.433
51.40000 154.555
51.44000 145.656
51.48000 149.009
51.52000 148.319
51.56000 144.569
51.60000 142.041
51.64000 145.950
51.68000 141.948
51.72000 138.891
51.76000 144.271
51.80000 135.497
51.84000 149.330
51.88000 144.531
51.92000 149.167
51.96000 144.549
52.00000 143.572
52.04000 151.865
52.08000 146.742
52.12000 146.745
52.16000 147.541
52.20000 143.569
52.24000 144.989
52.28000 136.212
52.32000 140.385
52.36000 148.046
52.40000 151.871
52.44000 138.155
52.48000 143.664
52.52000 146.403
52.56000 149.738
52.60000 145.642
52.64000 146.243
52.68000 137.609
52.72000 134.395
52.76000 131.392
52.80000 144.783
52.84000 142.300
52.88000 137.903
52.92000 137.819
52.96000 145.863
53.00000 136.029
53.04000 144.042
53.08000 138.622
53.12000 149.679
53.16000 154.177
53.20000 135.982
53.24000 148.047
53.28000 142.309
53.32000 148.641
53.36000 152.741
53.40000 154.598
53.44000 156.296
53.48000 136.121
53.52000 151.330
53.56000 156.346
53.60000 152.475
53.64000 147.826
53.68000 131.214
53.72000 148.142
53.76000 146.239
53.80000 134.318
53.84000 137.975
53.88000 140.964
53.92000 143.768
53.96000 147.942
54.00000 152.102
54.04000 139.716
54.08000 142.117
54.12000 134.165
54.16000 134.635
54.20000 129.990
54.24000 138.067
54.28000 124.782
54.32000 136.621
54.36000 135.744
54.40000 139.137
54.44000 141.871
54.48000 148.198
54.52000 128.326
54.56000 132.030
54.60000 132.223
54.64000 135.138
54.68000 129.539
54.72000 142.479
54.76000 131.325
54.80000 127.625
54.84000 130.841
54.88000 136.615
54.92000 133.792
54.96000 141.184
55.00000 146.554
55.04000 143.733
55.08000 156.021
55.12000 136.316
55.16000 146.793
55.20000 146.183
55.24000 141.617
55.28000 146.883
55.32000 147.447
55.36000 142.203
55.40000 147.170
55.44000 159.000
55.48000 161.795
55.52000 159.616
55.56000 166.257
55.60000 182.296
55.64000 181.048
55.68000 209.243
55.72000 215.301
55.76000 251.761
55.80000 296.701
55.84000 348.214
55.88000 424.122
55.92000 464.855
55.96000 527.100
56.00000 557.266
56.04000 577.328
56.08000 560.030
56.12000 521.415
56.16000 475.581
56.20000 419.783
56.24000 369.030
56.28000 329.267
56.32000 308.458
56.36000 270.892
56.40000 229.014
56.44000 210.487
56.48000 201.028
56.52000 185.376
56.56000 174.408
56.60000 165.972
56.64000 153.357
56.68000 146.300
56.72000 141.512
56.76000 146.236
56.80000 145.563
56.84000 138.758
56.88000 143.923
56.92000 129.108
56.96000 136.756
57.00000 121.881
57.04000 135.058
57.08000 134.212
57.12000 126.962
57.16000 127.959
57.20000 139.807
57.24000 131.874
57.28000 132.091
57.32000 129.139
57.36000 127.139
57.40000 127.011
57.44000 126.768
57.48000 127.244
57.52000 128.725
57.56000 130.909
57.60000 120.340
57.64000 130.279
57.68000 131.535
57.72000 117.937
57.76000 128.778
57.80000 122.258
57.84000 128.748
57.88000 121.532
57.92000 130.631
57.96000 124.092
58.00000 130.441
58.04000 122.999
58.08000 117.904
58.12000 123.466
58.16000 128.048
58.20000 121.610
58.24000 123.053
58.28000 121.207
58.32000 125.374
58.36000 126.246
58.40000 119.504
58.44000 124.945
58.48000 132.929
58.52000 116.456
58.56000 116.300
58.60000 121.319
58.64000 120.314
58.68000 129.892
58.72000 119.509
58.76000 123.519
58.80000 121.275
58.84000 117.381
58.88000 129.817
58.92000 110.036
58.96000 116.775
59.00000 121.756
59.04000 121.838
59.08000 125.994
59.12000 120.227
59.16000 116.409
59.20000 121.484
59.24000 115.356
59.28000 119.870
59.32000 121.213
59.36000 127.924
59.40000 114.728
59.44000 114.336
59.48000 120.277
59.52000 120.551
59.56000 120.778
59.60000 127.846
59.64000 127.883
59.68000 133.642
59.72000 115.865
59.76000 114.691
59.80000 112.701
59.84000 123.706
59.88000 115.164
59.92000 118.883
59.96000 121.388
60.00000 114.096
60.04000 117.815
60.08000 119.851
60.12000 122.587
60.16000 128.404
60.20000 122.283
60.24000 110.696
60.28000 117.792
60.32000 124.567
60.36000 114.113
60.40000 122.848
60.44000 123.238
60.48000 115.612
60.52000 121.383
60.56000 118.046
60.60000 108.117
60.64000 111.551
60.68000 122.038
60.72000 124.665
60.76000 115.105
60.80000 120.215
60.84000 114.151
60.88000 121.596
60.92000 123.785
60.96000 116.801
61.00000 129.176
61.04000 123.735
61.08000 128.779
61.12000 121.311
61.16000 132.120
61.20000 129.492
61.24000 124.337
61.28000 128.405
61.32000 126.496
61.36000 125.176
61.40000 123.480
61.44000 128.404
61.48000 137.330
61.52000 158.238
61.56000 212.637
61.60000 271.982
61.64000 301.813
61.68000 314.033
61.72000 320.954
61.76000 293.164
61.80000 231.412
61.84000 180.156
61.88000 137.053
61.92000 136.223
61.96000 128.750
62.00000 132.320
62.04000 125.305
62.08000 132.531
62.12000 126.063
62.16000 127.595
62.20000 125.799
62.24000 128.471
62.28000 130.616
62.32000 140.535
62.36000 128.751
62.40000 140.321
62.44000 131.343
62.48000 132.037
62.52000 136.667
62.56000 134.320
62.60000 129.037
62.64000 132.911
62.68000 146.723
62.72000 135.084
62.76000 136.023
62.80000 133.338
62.84000 132.840
62.88000 129.012
62.92000 135.772
62.96000 138.547
63.00000 136.393
63.04000 125.457
63.08000 136.194
63.12000 132.632
63.16000 138.311
63.20000 144.062
63.24000 131.299
63.28000 135.201
63.32000 140.371
63.36000 149.763
63.40000 132.224
63.44000 127.318
63.48000 146.431
63.52000 135.650
63.56000 138.492
63.60000 136.762
63.64000 127.204
63.68000 140.948
63.72000 149.839
63.76000 153.590
63.80000 147.443
63.84000 144.328
63.88000 134.990
63.92000 147.163
63.96000 142.874
64.00000 144.763
64.04000 145.776
64.08000 137.185
64.12000 147.156
64.16000 168.144
64.20000 160.543
64.24000 161.850
64.28000 159.425
64.32000 156.649
64.36000 145.906
64.40000 166.727
64.44000 157.779
64.48000 172.315
64.52000 163.271
64.56000 165.676
64.60000 172.654
64.64000 158.882
64.68000 159.973
64.72000 179.611
64.76000 174.819
64.80000 175.634
64.84000 189.151
64.88000 179.491
64.92000 189.767
64.96000 179.040
65.00000 192.553
65.04000 199.234
65.08000 192.434
65.12000 194.384
65.16000 204.343
65.20000 205.047
65.24000 224.539
65.28000 231.130
65.32000 256.905
65.36000 268.097
65.40000 295.077
65.44000 325.253
65.48000 339.718
65.52000 382.550
65.56000 414.545
65.60000 480.940
65.64000 532.445
65.68000 726.999
65.72000 1142.964
65.76000 1637.745
65.80000 2085.130
65.84000 2289.313
65.88000 2208.633
65.92000 2150.271
65.96000 1756.845
66.00000 1144.086
66.04000 714.814
66.08000 540.390
66.12000 459.846
66.16000 422.122
66.20000 412.385
66.24000 455.954
66.28000 521.224
66.32000 638.281
66.36000 695.166
66.40000 703.961
66.44000 695.060
66.48000 702.374
66.52000 597.685
66.56000 471.497
66.60000 407.640
66.64000 387.821
66.68000 379.981
66.72000 392.026
66.76000 383.230
66.80000 370.984
66.84000 371.278
66.88000 379.373
66.92000 375.797
66.96000 395.331
67.00000 388.634
67.04000 381.346
67.08000 393.498
67.12000 406.556
67.16000 411.427
67.20000 424.303
67.24000 430.262
67.28000 404.842
67.32000 446.139
67.36000 438.306
67.40000 430.291
67.44000 468.584
67.48000 456.052
67.52000 458.768
67.56000 450.368
67.60000 465.259
67.64000 467.311
67.68000 486.066
67.72000 503.806
67.76000 489.436
67.80000 493.093
67.84000 501.987
67.88000 494.664
67.92000 523.372
67.96000 531.617
68.00000 527.003
68.04000 541.276
68.08000 566.039
68.12000 545.672
68.16000 591.326
68.20000 591.477
68.24000 588.846
68.28000 624.962
68.32000 621.443
68.36000 661.047
68.40000 680.380
68.44000 710.431
68.48000 752.688
68.52000 792.721
68.56000 835.277
68.60000 948.686
68.64000 1100.013
68.68000 1289.515
68.72000 1501.097
68.76000 1687.638
68.80000 1955.540
68.84000 2290.671
68.88000 2884.287
68.92000 4920.350
68.96000 12005.975
69.00000 27135.102
69.04000 41968.469
69.08000 49560.574
69.12000 52413.934
69.16000 55838.367
69.20000 54419.543
69.24000 43563.738
69.28000 32187.908
69.32000 26887.254
69.36000 25018.375
69.40000 20345.086
69.44000 11992.372
69.48000 5177.237
69.52000 2472.280
69.56000 1591.256
69.60000 1219.639
69.64000 1039.973
69.68000 917.508
69.72000 825.360
69.76000 736.000
69.80000 680.475
69.84000 627.330
69.88000 577.879
69.92000 566.662
69.96000 548.385
70.00000 533.138