File: XRD/09-10-2025 Dep 8/XY Data/BTO_Mapping_Theta2Theta_09-10-2025_001_21_-4-181_39-781.xy
20.00000 470.281
20.04000 486.284
20.08000 514.807
20.12000 478.785
20.16000 484.816
20.20000 483.737
20.24000 493.076
20.28000 481.936
20.32000 492.522
20.36000 490.311
20.40000 472.047
20.44000 478.161
20.48000 478.965
20.52000 474.130
20.56000 480.075
20.60000 485.269
20.64000 483.793
20.68000 475.697
20.72000 473.148
20.76000 490.822
20.80000 466.123
20.84000 473.826
20.88000 478.080
20.92000 470.128
20.96000 471.396
21.00000 473.642
21.04000 490.847
21.08000 480.759
21.12000 484.828
21.16000 470.594
21.20000 487.221
21.24000 480.090
21.28000 488.135
21.32000 459.090
21.36000 476.599
21.40000 466.898
21.44000 479.978
21.48000 453.115
21.52000 467.702
21.56000 473.961
21.60000 470.457
21.64000 469.535
21.68000 457.079
21.72000 473.906
21.76000 476.377
21.80000 491.345
21.84000 504.546
21.88000 512.119
21.92000 535.243
21.96000 557.431
22.00000 538.254
22.04000 559.020
22.08000 607.967
22.12000 593.014
22.16000 602.848
22.20000 597.393
22.24000 592.378
22.28000 560.268
22.32000 547.606
22.36000 529.660
22.40000 535.625
22.44000 509.315
22.48000 504.944
22.52000 477.749
22.56000 463.964
22.60000 458.914
22.64000 467.682
22.68000 467.933
22.72000 456.259
22.76000 446.655
22.80000 464.953
22.84000 442.187
22.88000 447.384
22.92000 446.735
22.96000 439.027
23.00000 449.163
23.04000 427.773
23.08000 426.831
23.12000 442.657
23.16000 449.994
23.20000 435.892
23.24000 456.728
23.28000 434.533
23.32000 445.273
23.36000 435.185
23.40000 434.736
23.44000 457.915
23.48000 448.916
23.52000 448.478
23.56000 425.975
23.60000 429.057
23.64000 435.161
23.68000 432.088
23.72000 412.712
23.76000 420.952
23.80000 421.532
23.84000 426.443
23.88000 442.223
23.92000 440.861
23.96000 423.743
24.00000 429.153
24.04000 428.249
24.08000 416.991
24.12000 420.037
24.16000 424.711
24.20000 426.371
24.24000 427.226
24.28000 426.354
24.32000 425.756
24.36000 451.307
24.40000 438.096
24.44000 416.352
24.48000 413.718
24.52000 415.152
24.56000 396.572
24.60000 393.801
24.64000 413.754
24.68000 404.377
24.72000 424.089
24.76000 412.137
24.80000 416.503
24.84000 403.808
24.88000 399.823
24.92000 384.073
24.96000 402.411
25.00000 418.903
25.04000 410.495
25.08000 394.684
25.12000 410.785
25.16000 400.057
25.20000 421.019
25.24000 406.021
25.28000 401.845
25.32000 412.016
25.36000 415.786
25.40000 421.873
25.44000 406.653
25.48000 396.889
25.52000 393.721
25.56000 406.998
25.60000 399.314
25.64000 410.458
25.68000 387.667
25.72000 381.957
25.76000 420.573
25.80000 385.792
25.84000 396.991
25.88000 396.146
25.92000 403.690
25.96000 399.353
26.00000 393.291
26.04000 396.281
26.08000 394.616
26.12000 382.778
26.16000 388.525
26.20000 392.813
26.24000 399.383
26.28000 382.043
26.32000 403.877
26.36000 383.259
26.40000 406.510
26.44000 404.248
26.48000 368.559
26.52000 410.874
26.56000 379.321
26.60000 380.289
26.64000 400.290
26.68000 389.482
26.72000 382.051
26.76000 396.379
26.80000 389.179
26.84000 369.323
26.88000 371.606
26.92000 399.486
26.96000 374.651
27.00000 368.474
27.04000 379.243
27.08000 370.261
27.12000 381.064
27.16000 370.313
27.20000 386.486
27.24000 375.302
27.28000 376.936
27.32000 393.546
27.36000 366.268
27.40000 391.690
27.44000 377.842
27.48000 344.128
27.52000 368.267
27.56000 375.779
27.60000 374.337
27.64000 385.168
27.68000 363.827
27.72000 377.656
27.76000 367.298
27.80000 372.305
27.84000 358.439
27.88000 351.741
27.92000 361.358
27.96000 357.644
28.00000 368.009
28.04000 377.201
28.08000 384.647
28.12000 366.868
28.16000 372.884
28.20000 378.208
28.24000 356.854
28.28000 376.803
28.32000 363.144
28.36000 375.164
28.40000 358.453
28.44000 376.136
28.48000 364.757
28.52000 365.857
28.56000 382.144
28.60000 347.607
28.64000 359.461
28.68000 358.320
28.72000 378.195
28.76000 366.324
28.80000 359.947
28.84000 369.267
28.88000 348.287
28.92000 360.599
28.96000 362.669
29.00000 366.917
29.04000 359.914
29.08000 373.889
29.12000 378.966
29.16000 367.605
29.20000 363.458
29.24000 365.658
29.28000 347.795
29.32000 364.004
29.36000 355.011
29.40000 352.026
29.44000 347.484
29.48000 355.870
29.52000 348.357
29.56000 349.285
29.60000 360.770
29.64000 363.000
29.68000 375.274
29.72000 365.661
29.76000 376.782
29.80000 371.081
29.84000 372.783
29.88000 384.169
29.92000 392.216
29.96000 413.929
30.00000 417.095
30.04000 426.053
30.08000 444.620
30.12000 449.721
30.16000 439.598
30.20000 417.056
30.24000 436.892
30.28000 420.128
30.32000 402.528
30.36000 416.438
30.40000 402.008
30.44000 410.039
30.48000 393.447
30.52000 380.665
30.56000 401.645
30.60000 392.835
30.64000 373.307
30.68000 384.295
30.72000 407.348
30.76000 395.415
30.80000 400.015
30.84000 427.747
30.88000 426.424
30.92000 431.993
30.96000 432.832
31.00000 466.971
31.04000 482.075
31.08000 520.657
31.12000 598.327
31.16000 679.347
31.20000 895.121
31.24000 1091.126
31.28000 1443.915
31.32000 1798.420
31.36000 2198.408
31.40000 2453.575
31.44000 2607.532
31.48000 2579.664
31.52000 2376.707
31.56000 2071.917
31.60000 1723.828
31.64000 1386.011
31.68000 1120.506
31.72000 895.949
31.76000 795.510
31.80000 650.851
31.84000 593.194
31.88000 523.837
31.92000 456.096
31.96000 437.241
32.00000 413.304
32.04000 393.605
32.08000 394.198
32.12000 366.181
32.16000 361.096
32.20000 355.454
32.24000 349.633
32.28000 356.992
32.32000 336.424
32.36000 327.573
32.40000 358.788
32.44000 341.610
32.48000 320.726
32.52000 336.261
32.56000 341.696
32.60000 327.392
32.64000 308.863
32.68000 311.232
32.72000 320.865
32.76000 325.156
32.80000 325.357
32.84000 322.179
32.88000 303.126
32.92000 302.428
32.96000 313.213
33.00000 296.841
33.04000 321.623
33.08000 319.274
33.12000 319.436
33.16000 305.718
33.20000 308.059
33.24000 298.538
33.28000 301.599
33.32000 294.947
33.36000 299.407
33.40000 305.211
33.44000 314.357
33.48000 295.405
33.52000 291.916
33.56000 309.001
33.60000 289.366
33.64000 296.286
33.68000 291.113
33.72000 293.979
33.76000 300.817
33.80000 308.186
33.84000 292.844
33.88000 290.974
33.92000 305.497
33.96000 279.399
34.00000 276.357
34.04000 313.476
34.08000 280.800
34.12000 282.618
34.16000 276.665
34.20000 273.908
34.24000 282.726
34.28000 289.712
34.32000 295.243
34.36000 289.099
34.40000 282.693
34.44000 275.543
34.48000 270.412
34.52000 279.404
34.56000 293.327
34.60000 284.786
34.64000 288.090
34.68000 278.184
34.72000 279.625
34.76000 285.199
34.80000 279.137
34.84000 282.144
34.88000 297.319
34.92000 277.876
34.96000 273.758
35.00000 291.129
35.04000 275.415
35.08000 281.196
35.12000 272.915
35.16000 278.675
35.20000 272.483
35.24000 275.764
35.28000 264.972
35.32000 272.028
35.36000 261.341
35.40000 277.477
35.44000 264.614
35.48000 262.633
35.52000 265.194
35.56000 278.585
35.60000 279.783
35.64000 268.193
35.68000 266.724
35.72000 265.030
35.76000 270.034
35.80000 268.210
35.84000 261.155
35.88000 252.728
35.92000 288.032
35.96000 266.263
36.00000 270.499
36.04000 271.423
36.08000 257.419
36.12000 254.424
36.16000 258.737
36.20000 263.979
36.24000 253.252
36.28000 250.269
36.32000 270.096
36.36000 266.574
36.40000 260.604
36.44000 252.036
36.48000 271.728
36.52000 246.504
36.56000 255.148
36.60000 257.244
36.64000 265.959
36.68000 253.400
36.72000 255.535
36.76000 269.551
36.80000 258.334
36.84000 272.969
36.88000 280.490
36.92000 276.870
36.96000 271.413
37.00000 275.496
37.04000 296.810
37.08000 294.734
37.12000 288.103
37.16000 281.713
37.20000 280.647
37.24000 270.922
37.28000 285.967
37.32000 261.108
37.36000 247.147
37.40000 260.027
37.44000 255.035
37.48000 258.821
37.52000 260.482
37.56000 251.089
37.60000 261.230
37.64000 257.550
37.68000 266.618
37.72000 260.466
37.76000 274.123
37.80000 249.459
37.84000 257.205
37.88000 266.305
37.92000 257.167
37.96000 256.757
38.00000 255.668
38.04000 249.500
38.08000 263.481
38.12000 271.013
38.16000 267.468
38.20000 282.728
38.24000 277.009
38.28000 271.139
38.32000 270.581
38.36000 295.999
38.40000 296.225
38.44000 326.291
38.48000 348.350
38.52000 396.931
38.56000 490.354
38.60000 578.048
38.64000 759.597
38.68000 902.864
38.72000 1028.585
38.76000 1120.832
38.80000 1129.836
38.84000 1050.384
38.88000 945.974
38.92000 749.284
38.96000 621.692
39.00000 507.183
39.04000 402.595
39.08000 354.555
39.12000 332.939
39.16000 296.316
39.20000 278.572
39.24000 265.089
39.28000 260.630
39.32000 254.439
39.36000 248.607
39.40000 254.062
39.44000 258.872
39.48000 252.774
39.52000 245.187
39.56000 255.002
39.60000 242.139
39.64000 239.692
39.68000 237.910
39.72000 244.259
39.76000 231.620
39.80000 234.471
39.84000 237.598
39.88000 241.778
39.92000 228.719
39.96000 236.705
40.00000 235.616
40.04000 223.484
40.08000 221.519
40.12000 227.495
40.16000 226.036
40.20000 232.603
40.24000 229.757
40.28000 212.752
40.32000 224.298
40.36000 220.940
40.40000 226.096
40.44000 217.814
40.48000 229.570
40.52000 218.559
40.56000 220.928
40.60000 218.330
40.64000 215.131
40.68000 215.291
40.72000 221.743
40.76000 214.687
40.80000 217.259
40.84000 220.925
40.88000 213.784
40.92000 212.808
40.96000 207.195
41.00000 213.588
41.04000 219.527
41.08000 220.011
41.12000 215.725
41.16000 203.355
41.20000 208.164
41.24000 223.843
41.28000 208.757
41.32000 217.247
41.36000 209.139
41.40000 202.688
41.44000 214.280
41.48000 205.734
41.52000 210.321
41.56000 201.566
41.60000 209.214
41.64000 210.624
41.68000 205.805
41.72000 207.805
41.76000 201.548
41.80000 202.303
41.84000 219.526
41.88000 199.143
41.92000 206.846
41.96000 202.238
42.00000 192.749
42.04000 209.842
42.08000 202.226
42.12000 202.738
42.16000 203.216
42.20000 213.565
42.24000 210.339
42.28000 208.517
42.32000 207.129
42.36000 210.110
42.40000 199.112
42.44000 201.483
42.48000 197.272
42.52000 201.075
42.56000 196.277
42.60000 194.859
42.64000 194.704
42.68000 194.799
42.72000 198.285
42.76000 205.477
42.80000 199.679
42.84000 207.935
42.88000 199.338
42.92000 207.936
42.96000 192.773
43.00000 203.908
43.04000 204.570
43.08000 202.203
43.12000 202.024
43.16000 198.599
43.20000 208.363
43.24000 208.013
43.28000 208.310
43.32000 197.681
43.36000 200.181
43.40000 196.159
43.44000 189.682
43.48000 194.248
43.52000 194.990
43.56000 180.545
43.60000 198.485
43.64000 195.765
43.68000 194.247
43.72000 196.376
43.76000 203.714
43.80000 193.746
43.84000 206.887
43.88000 199.004
43.92000 200.675
43.96000 182.612
44.00000 189.848
44.04000 201.221
44.08000 192.013
44.12000 190.341
44.16000 196.287
44.20000 199.676
44.24000 197.958
44.28000 193.635
44.32000 194.566
44.36000 196.029
44.40000 188.997
44.44000 188.554
44.48000 192.151
44.52000 178.159
44.56000 195.864
44.60000 195.542
44.64000 196.778
44.68000 191.189
44.72000 208.741
44.76000 199.357
44.80000 198.222
44.84000 215.674
44.88000 212.246
44.92000 223.206
44.96000 239.751
45.00000 249.311
45.04000 262.622
45.08000 265.807
45.12000 268.235
45.16000 283.668
45.20000 285.508
45.24000 282.064
45.28000 287.469
45.32000 284.332
45.36000 264.491
45.40000 256.049
45.44000 271.151
45.48000 260.226
45.52000 246.601
45.56000 236.230
45.60000 236.822
45.64000 230.201
45.68000 237.094
45.72000 220.711
45.76000 213.825
45.80000 220.289
45.84000 196.806
45.88000 209.072
45.92000 210.412
45.96000 191.576
46.00000 198.387
46.04000 196.874
46.08000 188.462
46.12000 186.480
46.16000 190.312
46.20000 189.533
46.24000 178.587
46.28000 179.255
46.32000 178.806
46.36000 183.406
46.40000 165.831
46.44000 179.662
46.48000 178.776
46.52000 161.290
46.56000 175.199
46.60000 185.224
46.64000 176.139
46.68000 181.108
46.72000 179.613
46.76000 177.417
46.80000 162.624
46.84000 177.795
46.88000 176.465
46.92000 174.997
46.96000 176.004
47.00000 172.798
47.04000 168.437
47.08000 179.907
47.12000 173.770
47.16000 172.501
47.20000 171.167
47.24000 175.472
47.28000 167.788
47.32000 176.235
47.36000 166.670
47.40000 174.424
47.44000 165.765
47.48000 164.110
47.52000 171.372
47.56000 174.944
47.60000 162.301
47.64000 158.471
47.68000 162.052
47.72000 163.376
47.76000 164.944
47.80000 162.488
47.84000 161.150
47.88000 162.284
47.92000 154.695
47.96000 170.714
48.00000 156.600
48.04000 160.805
48.08000 156.379
48.12000 158.178
48.16000 161.053
48.20000 169.925
48.24000 167.219
48.28000 163.316
48.32000 160.747
48.36000 161.452
48.40000 161.928
48.44000 158.600
48.48000 162.978
48.52000 167.650
48.56000 163.060
48.60000 158.363
48.64000 168.806
48.68000 162.780
48.72000 151.550
48.76000 156.960
48.80000 155.802
48.84000 156.596
48.88000 170.062
48.92000 155.809
48.96000 162.052
49.00000 152.478
49.04000 153.775
49.08000 149.701
49.12000 164.296
49.16000 154.820
49.20000 165.348
49.24000 156.808
49.28000 165.588
49.32000 142.772
49.36000 153.111
49.40000 143.384
49.44000 149.252
49.48000 159.167
49.52000 153.395
49.56000 156.881
49.60000 158.152
49.64000 144.819
49.68000 155.992
49.72000 155.659
49.76000 155.872
49.80000 148.875
49.84000 149.688
49.88000 151.283
49.92000 154.847
49.96000 161.657
50.00000 157.382
50.04000 152.409
50.08000 147.897
50.12000 148.883
50.16000 153.099
50.20000 161.578
50.24000 156.819
50.28000 160.786
50.32000 162.357
50.36000 164.807
50.40000 161.332
50.44000 170.112
50.48000 173.653
50.52000 176.357
50.56000 168.664
50.60000 190.993
50.64000 196.951
50.68000 205.064
50.72000 211.680
50.76000 226.335
50.80000 221.800
50.84000 241.908
50.88000 231.028
50.92000 215.975
50.96000 219.382
51.00000 198.746
51.04000 202.386
51.08000 176.795
51.12000 185.180
51.16000 167.928
51.20000 165.680
51.24000 175.593
51.28000 154.929
51.32000 157.445
51.36000 162.708
51.40000 160.240
51.44000 147.798
51.48000 159.051
51.52000 161.957
51.56000 159.809
51.60000 140.529
51.64000 159.448
51.68000 137.940
51.72000 135.087
51.76000 144.419
51.80000 139.481
51.84000 139.722
51.88000 143.729
51.92000 160.607
51.96000 138.246
52.00000 139.382
52.04000 132.340
52.08000 132.311
52.12000 149.717
52.16000 139.378
52.20000 137.181
52.24000 139.932
52.28000 148.856
52.32000 133.212
52.36000 137.817
52.40000 146.490
52.44000 130.592
52.48000 146.485
52.52000 131.646
52.56000 131.094
52.60000 136.288
52.64000 139.987
52.68000 140.117
52.72000 136.429
52.76000 133.111
52.80000 138.933
52.84000 133.978
52.88000 124.313
52.92000 130.667
52.96000 143.726
53.00000 140.395
53.04000 144.236
53.08000 139.604
53.12000 142.610
53.16000 144.391
53.20000 136.347
53.24000 135.037
53.28000 151.775
53.32000 149.464
53.36000 141.912
53.40000 148.754
53.44000 151.734
53.48000 157.207
53.52000 145.414
53.56000 149.037
53.60000 149.086
53.64000 144.613
53.68000 139.864
53.72000 146.820
53.76000 132.135
53.80000 143.582
53.84000 144.506
53.88000 134.865
53.92000 143.830
53.96000 137.285
54.00000 138.492
54.04000 130.873
54.08000 142.613
54.12000 145.044
54.16000 138.187
54.20000 149.610
54.24000 136.016
54.28000 127.833
54.32000 148.377
54.36000 129.982
54.40000 138.891
54.44000 144.794
54.48000 133.691
54.52000 148.067
54.56000 140.482
54.60000 133.749
54.64000 138.995
54.68000 137.444
54.72000 151.177
54.76000 144.479
54.80000 138.260
54.84000 135.510
54.88000 139.967
54.92000 136.059
54.96000 135.650
55.00000 139.670
55.04000 143.090
55.08000 146.755
55.12000 135.020
55.16000 140.678
55.20000 138.868
55.24000 133.093
55.28000 140.695
55.32000 145.789
55.36000 142.564
55.40000 150.711
55.44000 155.786
55.48000 154.057
55.52000 159.075
55.56000 170.902
55.60000 178.278
55.64000 186.786
55.68000 202.859
55.72000 214.057
55.76000 245.634
55.80000 275.911
55.84000 320.274
55.88000 372.041
55.92000 442.581
55.96000 489.241
56.00000 534.561
56.04000 549.017
56.08000 551.429
56.12000 532.356
56.16000 505.273
56.20000 433.333
56.24000 391.827
56.28000 333.945
56.32000 312.504
56.36000 277.811
56.40000 241.752
56.44000 225.608
56.48000 216.804
56.52000 192.913
56.56000 180.714
56.60000 167.470
56.64000 165.488
56.68000 154.837
56.72000 167.340
56.76000 152.285
56.80000 159.267
56.84000 147.183
56.88000 142.459
56.92000 137.887
56.96000 126.962
57.00000 139.117
57.04000 139.536
57.08000 136.078
57.12000 133.080
57.16000 128.827
57.20000 120.118
57.24000 125.950
57.28000 123.157
57.32000 127.256
57.36000 129.386
57.40000 122.657
57.44000 126.673
57.48000 127.994
57.52000 122.434
57.56000 130.640
57.60000 120.047
57.64000 118.397
57.68000 118.451
57.72000 127.211
57.76000 120.522
57.80000 128.769
57.84000 125.288
57.88000 131.304
57.92000 134.060
57.96000 123.865
58.00000 125.062
58.04000 118.145
58.08000 127.330
58.12000 124.951
58.16000 130.995
58.20000 130.879
58.24000 115.039
58.28000 123.327
58.32000 135.459
58.36000 120.616
58.40000 128.126
58.44000 131.411
58.48000 119.846
58.52000 127.139
58.56000 124.355
58.60000 115.845
58.64000 123.665
58.68000 117.775
58.72000 122.520
58.76000 126.603
58.80000 126.263
58.84000 117.775
58.88000 119.381
58.92000 125.121
58.96000 131.601
59.00000 113.466
59.04000 122.570
59.08000 117.087
59.12000 122.952
59.16000 119.675
59.20000 124.811
59.24000 120.208
59.28000 124.759
59.32000 110.425
59.36000 115.524
59.40000 124.051
59.44000 117.764
59.48000 116.015
59.52000 118.661
59.56000 122.871
59.60000 115.375
59.64000 114.546
59.68000 112.777
59.72000 115.822
59.76000 120.536
59.80000 108.096
59.84000 123.169
59.88000 121.542
59.92000 121.931
59.96000 121.444
60.00000 119.666
60.04000 113.293
60.08000 118.095
60.12000 118.337
60.16000 121.643
60.20000 116.308
60.24000 108.813
60.28000 120.208
60.32000 110.675
60.36000 115.068
60.40000 122.207
60.44000 111.795
60.48000 115.672
60.52000 122.697
60.56000 119.318
60.60000 117.475
60.64000 125.609
60.68000 113.771
60.72000 119.890
60.76000 117.257
60.80000 118.486
60.84000 119.654
60.88000 111.227
60.92000 122.110
60.96000 110.352
61.00000 118.553
61.04000 121.695
61.08000 120.453
61.12000 126.801
61.16000 108.074
61.20000 127.800
61.24000 127.092
61.28000 122.439
61.32000 129.503
61.36000 131.710
61.40000 135.642
61.44000 126.088
61.48000 135.943
61.52000 159.639
61.56000 212.435
61.60000 263.038
61.64000 316.260
61.68000 324.407
61.72000 350.999
61.76000 311.024
61.80000 247.354
61.84000 196.032
61.88000 154.861
61.92000 139.744
61.96000 138.738
62.00000 128.436
62.04000 127.237
62.08000 128.994
62.12000 125.700
62.16000 126.322
62.20000 127.195
62.24000 131.283
62.28000 120.299
62.32000 141.105
62.36000 136.749
62.40000 134.749
62.44000 134.160
62.48000 136.078
62.52000 138.216
62.56000 140.230
62.60000 135.865
62.64000 133.265
62.68000 133.406
62.72000 131.136
62.76000 131.920
62.80000 136.660
62.84000 128.131
62.88000 132.222
62.92000 139.628
62.96000 135.580
63.00000 134.563
63.04000 135.824
63.08000 128.320
63.12000 131.035
63.16000 133.276
63.20000 134.590
63.24000 134.261
63.28000 143.951
63.32000 137.233
63.36000 133.946
63.40000 133.351
63.44000 137.633
63.48000 145.966
63.52000 147.608
63.56000 138.767
63.60000 145.761
63.64000 137.392
63.68000 140.003
63.72000 147.295
63.76000 135.767
63.80000 139.077
63.84000 147.588
63.88000 146.461
63.92000 150.791
63.96000 133.648
64.00000 152.268
64.04000 149.117
64.08000 157.643
64.12000 155.010
64.16000 151.065
64.20000 154.120
64.24000 151.942
64.28000 158.188
64.32000 163.486
64.36000 157.267
64.40000 159.289
64.44000 169.553
64.48000 169.801
64.52000 169.528
64.56000 168.882
64.60000 166.402
64.64000 159.713
64.68000 165.073
64.72000 177.189
64.76000 178.126
64.80000 187.959
64.84000 171.958
64.88000 179.763
64.92000 185.547
64.96000 185.454
65.00000 182.918
65.04000 193.691
65.08000 201.634
65.12000 210.667
65.16000 213.765
65.20000 225.523
65.24000 218.160
65.28000 233.971
65.32000 235.681
65.36000 257.002
65.40000 289.932
65.44000 314.352
65.48000 358.742
65.52000 370.419
65.56000 414.722
65.60000 479.068
65.64000 562.638
65.68000 731.154
65.72000 1136.943
65.76000 1696.249
65.80000 2190.676
65.84000 2411.250
65.88000 2495.492
65.92000 2395.453
65.96000 1930.478
66.00000 1366.019
66.04000 849.936
66.08000 583.679
66.12000 480.894
66.16000 423.111
66.20000 452.924
66.24000 462.177
66.28000 525.956
66.32000 607.109
66.36000 696.878
66.40000 733.051
66.44000 757.365
66.48000 711.441
66.52000 628.270
66.56000 538.165
66.60000 451.543
66.64000 418.990
66.68000 406.034
66.72000 386.284
66.76000 414.505
66.80000 395.286
66.84000 386.226
66.88000 371.774
66.92000 399.150
66.96000 393.891
67.00000 414.767
67.04000 413.376
67.08000 416.547
67.12000 414.666
67.16000 423.946
67.20000 429.132
67.24000 442.168
67.28000 436.521
67.32000 446.856
67.36000 463.665
67.40000 466.001
67.44000 457.306
67.48000 451.803
67.52000 473.875
67.56000 478.812
67.60000 483.890
67.64000 502.123
67.68000 511.037
67.72000 497.307
67.76000 516.097
67.80000 536.483
67.84000 529.971
67.88000 531.769
67.92000 532.356
67.96000 542.383
68.00000 553.602
68.04000 563.092
68.08000 579.077
68.12000 581.327
68.16000 607.706
68.20000 612.434
68.24000 614.831
68.28000 656.167
68.32000 657.098
68.36000 675.311
68.40000 696.729
68.44000 729.651
68.48000 750.280
68.52000 800.144
68.56000 840.253
68.60000 961.154
68.64000 1087.147
68.68000 1331.383
68.72000 1545.407
68.76000 1754.730
68.80000 2017.248
68.84000 2365.430
68.88000 3065.503
68.92000 4874.135
68.96000 11052.634
69.00000 25925.959
69.04000 42944.863
69.08000 52970.922
69.12000 56620.047
69.16000 60154.531
69.20000 59971.262
69.24000 49634.594
69.28000 37616.824
69.32000 29939.805
69.36000 27507.025
69.40000 23383.764
69.44000 14786.200
69.48000 6732.013
69.52000 3122.870
69.56000 1793.883
69.60000 1331.357
69.64000 1119.069
69.68000 960.696
69.72000 834.115
69.76000 786.378
69.80000 737.596
69.84000 664.806
69.88000 606.887
69.92000 602.486
69.96000 569.743
70.00000 545.691