File: XRD/09-10-2025 Dep 8/XY Data/BTO_Mapping_Theta2Theta_09-10-2025_001_53_12-361_-38-042.xy
20.00000 480.497
20.04000 493.459
20.08000 491.212
20.12000 486.716
20.16000 473.496
20.20000 489.456
20.24000 505.544
20.28000 486.659
20.32000 459.805
20.36000 470.584
20.40000 496.222
20.44000 489.478
20.48000 475.707
20.52000 488.915
20.56000 477.251
20.60000 482.785
20.64000 474.712
20.68000 490.924
20.72000 498.665
20.76000 473.576
20.80000 477.688
20.84000 485.659
20.88000 468.427
20.92000 477.939
20.96000 492.299
21.00000 491.546
21.04000 468.725
21.08000 470.264
21.12000 476.974
21.16000 479.691
21.20000 485.633
21.24000 467.336
21.28000 477.081
21.32000 466.653
21.36000 485.744
21.40000 472.655
21.44000 493.252
21.48000 485.461
21.52000 484.906
21.56000 457.489
21.60000 483.570
21.64000 488.866
21.68000 462.933
21.72000 489.606
21.76000 480.424
21.80000 484.143
21.84000 518.244
21.88000 528.487
21.92000 532.941
21.96000 562.333
22.00000 597.069
22.04000 602.594
22.08000 622.623
22.12000 618.212
22.16000 639.683
22.20000 615.373
22.24000 593.389
22.28000 576.722
22.32000 554.745
22.36000 542.914
22.40000 511.772
22.44000 497.718
22.48000 491.411
22.52000 473.342
22.56000 476.428
22.60000 473.824
22.64000 452.657
22.68000 453.182
22.72000 456.465
22.76000 447.219
22.80000 453.916
22.84000 457.342
22.88000 438.107
22.92000 449.517
22.96000 460.193
23.00000 458.186
23.04000 451.932
23.08000 436.752
23.12000 447.396
23.16000 444.178
23.20000 451.413
23.24000 435.100
23.28000 440.161
23.32000 426.187
23.36000 425.540
23.40000 450.809
23.44000 430.499
23.48000 441.104
23.52000 429.608
23.56000 451.342
23.60000 446.546
23.64000 441.901
23.68000 431.712
23.72000 424.784
23.76000 414.338
23.80000 430.767
23.84000 438.011
23.88000 432.261
23.92000 432.253
23.96000 419.199
24.00000 412.068
24.04000 420.188
24.08000 444.363
24.12000 432.438
24.16000 427.022
24.20000 417.804
24.24000 426.436
24.28000 439.689
24.32000 413.508
24.36000 396.016
24.40000 434.773
24.44000 422.265
24.48000 423.617
24.52000 412.120
24.56000 404.722
24.60000 398.035
24.64000 417.717
24.68000 432.026
24.72000 414.225
24.76000 417.133
24.80000 407.889
24.84000 415.015
24.88000 400.722
24.92000 405.490
24.96000 387.767
25.00000 416.189
25.04000 416.479
25.08000 411.508
25.12000 427.417
25.16000 421.464
25.20000 420.107
25.24000 404.965
25.28000 413.445
25.32000 402.810
25.36000 407.596
25.40000 399.334
25.44000 410.373
25.48000 412.240
25.52000 412.004
25.56000 404.341
25.60000 402.965
25.64000 401.587
25.68000 398.937
25.72000 402.609
25.76000 406.189
25.80000 402.240
25.84000 405.111
25.88000 403.157
25.92000 398.759
25.96000 407.360
26.00000 382.954
26.04000 394.086
26.08000 390.910
26.12000 391.964
26.16000 392.746
26.20000 372.429
26.24000 404.670
26.28000 403.074
26.32000 408.553
26.36000 405.270
26.40000 400.953
26.44000 370.231
26.48000 388.617
26.52000 390.838
26.56000 377.062
26.60000 382.954
26.64000 380.083
26.68000 409.845
26.72000 381.167
26.76000 397.078
26.80000 391.943
26.84000 387.349
26.88000 371.756
26.92000 393.749
26.96000 374.107
27.00000 380.651
27.04000 390.203
27.08000 383.935
27.12000 385.239
27.16000 387.221
27.20000 390.692
27.24000 378.757
27.28000 376.385
27.32000 379.608
27.36000 369.784
27.40000 375.786
27.44000 371.536
27.48000 373.219
27.52000 368.478
27.56000 373.265
27.60000 380.882
27.64000 389.735
27.68000 390.632
27.72000 386.402
27.76000 381.913
27.80000 374.941
27.84000 380.234
27.88000 374.923
27.92000 363.956
27.96000 367.069
28.00000 389.365
28.04000 370.203
28.08000 371.623
28.12000 369.062
28.16000 375.603
28.20000 378.062
28.24000 377.311
28.28000 376.327
28.32000 367.849
28.36000 367.740
28.40000 366.443
28.44000 359.012
28.48000 385.380
28.52000 370.823
28.56000 365.214
28.60000 364.636
28.64000 370.702
28.68000 364.847
28.72000 367.703
28.76000 368.183
28.80000 353.323
28.84000 342.275
28.88000 345.207
28.92000 352.113
28.96000 357.699
29.00000 367.480
29.04000 375.571
29.08000 353.715
29.12000 351.096
29.16000 360.980
29.20000 360.962
29.24000 359.742
29.28000 349.820
29.32000 343.054
29.36000 368.333
29.40000 368.061
29.44000 357.163
29.48000 372.063
29.52000 368.266
29.56000 362.426
29.60000 359.413
29.64000 350.921
29.68000 353.747
29.72000 366.834
29.76000 388.884
29.80000 381.562
29.84000 386.767
29.88000 390.693
29.92000 408.228
29.96000 436.837
30.00000 435.640
30.04000 458.372
30.08000 458.578
30.12000 469.095
30.16000 447.613
30.20000 437.835
30.24000 423.477
30.28000 431.744
30.32000 416.316
30.36000 408.522
30.40000 413.204
30.44000 408.986
30.48000 411.228
30.52000 411.466
30.56000 409.204
30.60000 371.088
30.64000 395.628
30.68000 417.679
30.72000 407.680
30.76000 404.993
30.80000 404.725
30.84000 427.805
30.88000 427.384
30.92000 442.312
30.96000 480.021
31.00000 494.977
31.04000 555.574
31.08000 629.526
31.12000 716.254
31.16000 899.562
31.20000 1137.422
31.24000 1413.430
31.28000 1907.185
31.32000 2325.137
31.36000 2777.088
31.40000 3042.033
31.44000 3039.323
31.48000 2903.253
31.52000 2600.014
31.56000 2174.096
31.60000 1738.243
31.64000 1382.243
31.68000 1081.125
31.72000 881.823
31.76000 746.747
31.80000 632.498
31.84000 555.978
31.88000 513.885
31.92000 467.066
31.96000 438.513
32.00000 416.782
32.04000 399.654
32.08000 382.395
32.12000 376.534
32.16000 369.520
32.20000 357.458
32.24000 361.143
32.28000 352.224
32.32000 341.748
32.36000 348.932
32.40000 331.969
32.44000 354.565
32.48000 352.579
32.52000 338.483
32.56000 336.153
32.60000 318.421
32.64000 321.401
32.68000 340.504
32.72000 320.676
32.76000 320.281
32.80000 303.357
32.84000 318.814
32.88000 309.732
32.92000 321.501
32.96000 305.298
33.00000 304.624
33.04000 301.807
33.08000 317.823
33.12000 305.190
33.16000 308.777
33.20000 288.090
33.24000 294.282
33.28000 301.565
33.32000 326.838
33.36000 296.674
33.40000 279.201
33.44000 291.309
33.48000 302.207
33.52000 307.087
33.56000 317.012
33.60000 296.258
33.64000 296.694
33.68000 307.161
33.72000 287.828
33.76000 287.108
33.80000 289.873
33.84000 274.307
33.88000 296.568
33.92000 302.258
33.96000 299.012
34.00000 288.147
34.04000 285.536
34.08000 290.089
34.12000 273.544
34.16000 288.044
34.20000 289.299
34.24000 291.493
34.28000 292.911
34.32000 283.684
34.36000 285.513
34.40000 292.247
34.44000 289.901
34.48000 291.871
34.52000 282.853
34.56000 285.934
34.60000 288.482
34.64000 284.411
34.68000 285.130
34.72000 282.769
34.76000 283.029
34.80000 285.561
34.84000 287.582
34.88000 275.102
34.92000 284.871
34.96000 271.901
35.00000 285.737
35.04000 279.203
35.08000 268.348
35.12000 278.738
35.16000 277.980
35.20000 291.215
35.24000 270.823
35.28000 272.800
35.32000 272.710
35.36000 274.448
35.40000 260.133
35.44000 272.341
35.48000 260.589
35.52000 266.482
35.56000 269.398
35.60000 253.989
35.64000 272.854
35.68000 259.302
35.72000 264.548
35.76000 274.774
35.80000 273.753
35.84000 268.904
35.88000 257.407
35.92000 281.857
35.96000 264.718
36.00000 266.190
36.04000 258.073
36.08000 258.889
36.12000 270.611
36.16000 273.122
36.20000 266.931
36.24000 256.526
36.28000 253.759
36.32000 265.996
36.36000 269.489
36.40000 276.016
36.44000 251.423
36.48000 271.916
36.52000 264.902
36.56000 262.951
36.60000 262.906
36.64000 276.258
36.68000 260.942
36.72000 245.991
36.76000 271.320
36.80000 268.566
36.84000 270.216
36.88000 267.544
36.92000 266.550
36.96000 264.330
37.00000 287.037
37.04000 276.066
37.08000 291.537
37.12000 302.818
37.16000 292.713
37.20000 281.466
37.24000 271.738
37.28000 282.822
37.32000 255.082
37.36000 275.887
37.40000 258.499
37.44000 254.726
37.48000 271.034
37.52000 259.512
37.56000 261.394
37.60000 258.737
37.64000 264.036
37.68000 245.897
37.72000 255.757
37.76000 252.298
37.80000 263.582
37.84000 252.565
37.88000 253.087
37.92000 251.484
37.96000 249.667
38.00000 265.361
38.04000 252.945
38.08000 268.255
38.12000 257.363
38.16000 262.504
38.20000 282.953
38.24000 279.966
38.28000 276.380
38.32000 293.956
38.36000 302.586
38.40000 306.934
38.44000 333.851
38.48000 380.945
38.52000 449.467
38.56000 552.746
38.60000 681.828
38.64000 819.294
38.68000 964.360
38.72000 1039.813
38.76000 1065.533
38.80000 1047.221
38.84000 968.149
38.88000 824.870
38.92000 683.791
38.96000 552.340
39.00000 434.882
39.04000 377.126
39.08000 325.918
39.12000 318.127
39.16000 286.194
39.20000 284.823
39.24000 274.324
39.28000 261.397
39.32000 249.713
39.36000 255.913
39.40000 239.916
39.44000 251.505
39.48000 257.149
39.52000 245.587
39.56000 239.669
39.60000 241.428
39.64000 254.174
39.68000 248.206
39.72000 233.663
39.76000 238.684
39.80000 235.875
39.84000 257.413
39.88000 224.304
39.92000 233.075
39.96000 231.727
40.00000 236.030
40.04000 248.947
40.08000 226.792
40.12000 234.537
40.16000 233.799
40.20000 229.508
40.24000 221.424
40.28000 233.156
40.32000 232.352
40.36000 224.311
40.40000 225.906
40.44000 225.789
40.48000 221.689
40.52000 215.944
40.56000 219.412
40.60000 219.239
40.64000 229.087
40.68000 217.693
40.72000 227.203
40.76000 219.039
40.80000 217.202
40.84000 214.303
40.88000 212.738
40.92000 217.407
40.96000 224.803
41.00000 207.777
41.04000 219.257
41.08000 204.245
41.12000 212.157
41.16000 216.451
41.20000 233.186
41.24000 214.628
41.28000 211.120
41.32000 209.703
41.36000 219.650
41.40000 219.855
41.44000 201.861
41.48000 214.635
41.52000 221.987
41.56000 208.691
41.60000 220.724
41.64000 200.111
41.68000 206.294
41.72000 205.397
41.76000 223.158
41.80000 224.535
41.84000 215.303
41.88000 210.806
41.92000 210.062
41.96000 202.449
42.00000 209.670
42.04000 189.839
42.08000 201.852
42.12000 207.511
42.16000 208.715
42.20000 209.351
42.24000 199.375
42.28000 205.299
42.32000 204.462
42.36000 204.811
42.40000 201.247
42.44000 206.689
42.48000 207.118
42.52000 213.096
42.56000 193.066
42.60000 202.610
42.64000 200.062
42.68000 191.095
42.72000 204.438
42.76000 203.729
42.80000 197.045
42.84000 201.980
42.88000 206.345
42.92000 197.399
42.96000 201.229
43.00000 203.327
43.04000 206.321
43.08000 203.215
43.12000 202.505
43.16000 214.519
43.20000 213.694
43.24000 199.271
43.28000 206.170
43.32000 209.936
43.36000 194.985
43.40000 202.702
43.44000 199.781
43.48000 209.339
43.52000 202.123
43.56000 207.150
43.60000 194.415
43.64000 200.845
43.68000 194.024
43.72000 199.824
43.76000 193.994
43.80000 194.947
43.84000 195.266
43.88000 190.303
43.92000 187.014
43.96000 204.852
44.00000 193.750
44.04000 206.153
44.08000 204.838
44.12000 206.384
44.16000 206.654
44.20000 197.527
44.24000 200.633
44.28000 205.485
44.32000 196.576
44.36000 201.398
44.40000 204.437
44.44000 181.550
44.48000 196.542
44.52000 191.395
44.56000 219.100
44.60000 205.288
44.64000 195.654
44.68000 208.780
44.72000 208.806
44.76000 215.744
44.80000 223.362
44.84000 220.061
44.88000 240.115
44.92000 244.707
44.96000 254.953
45.00000 273.085
45.04000 282.427
45.08000 302.292
45.12000 294.569
45.16000 322.976
45.20000 313.112
45.24000 322.941
45.28000 308.049
45.32000 304.770
45.36000 305.632
45.40000 272.832
45.44000 273.163
45.48000 264.849
45.52000 251.791
45.56000 237.258
45.60000 234.135
45.64000 225.667
45.68000 230.586
45.72000 215.739
45.76000 222.818
45.80000 218.652
45.84000 208.868
45.88000 209.229
45.92000 199.095
45.96000 201.506
46.00000 204.486
46.04000 188.655
46.08000 186.291
46.12000 187.411
46.16000 184.331
46.20000 181.350
46.24000 176.605
46.28000 163.139
46.32000 183.821
46.36000 184.763
46.40000 179.531
46.44000 174.167
46.48000 179.082
46.52000 183.389
46.56000 176.730
46.60000 175.936
46.64000 173.583
46.68000 171.339
46.72000 172.825
46.76000 178.463
46.80000 166.289
46.84000 156.771
46.88000 168.681
46.92000 168.854
46.96000 177.010
47.00000 159.261
47.04000 172.401
47.08000 166.550
47.12000 168.482
47.16000 164.492
47.20000 170.142
47.24000 160.134
47.28000 171.111
47.32000 162.804
47.36000 166.930
47.40000 154.291
47.44000 168.162
47.48000 165.751
47.52000 157.350
47.56000 160.436
47.60000 171.634
47.64000 169.586
47.68000 170.845
47.72000 171.869
47.76000 156.957
47.80000 174.256
47.84000 167.576
47.88000 169.996
47.92000 166.930
47.96000 161.447
48.00000 160.128
48.04000 152.014
48.08000 168.711
48.12000 154.083
48.16000 162.246
48.20000 161.957
48.24000 156.176
48.28000 141.486
48.32000 149.568
48.36000 162.390
48.40000 161.751
48.44000 164.501
48.48000 165.846
48.52000 161.447
48.56000 153.399
48.60000 160.846
48.64000 161.055
48.68000 158.183
48.72000 149.969
48.76000 163.714
48.80000 161.858
48.84000 160.772
48.88000 161.368
48.92000 159.261
48.96000 161.874
49.00000 149.754
49.04000 172.665
49.08000 155.627
49.12000 158.306
49.16000 159.579
49.20000 158.818
49.24000 154.360
49.28000 154.735
49.32000 161.911
49.36000 156.011
49.40000 150.624
49.44000 156.378
49.48000 154.783
49.52000 168.178
49.56000 169.027
49.60000 162.521
49.64000 164.521
49.68000 159.912
49.72000 157.831
49.76000 149.705
49.80000 160.349
49.84000 158.223
49.88000 152.412
49.92000 160.002
49.96000 149.702
50.00000 152.828
50.04000 143.286
50.08000 151.037
50.12000 159.810
50.16000 152.923
50.20000 151.573
50.24000 154.440
50.28000 158.474
50.32000 154.620
50.36000 158.826
50.40000 158.929
50.44000 163.293
50.48000 176.146
50.52000 180.707
50.56000 185.251
50.60000 195.345
50.64000 199.248
50.68000 231.388
50.72000 234.133
50.76000 249.645
50.80000 243.623
50.84000 230.220
50.88000 218.679
50.92000 220.887
50.96000 223.031
51.00000 199.642
51.04000 193.122
51.08000 186.057
51.12000 176.809
51.16000 170.406
51.20000 173.258
51.24000 165.670
51.28000 157.630
51.32000 156.369
51.36000 153.338
51.40000 154.738
51.44000 154.606
51.48000 146.572
51.52000 144.487
51.56000 145.998
51.60000 134.059
51.64000 150.989
51.68000 143.818
51.72000 146.659
51.76000 143.641
51.80000 151.614
51.84000 152.123
51.88000 136.843
51.92000 140.202
51.96000 143.223
52.00000 137.156
52.04000 136.021
52.08000 146.136
52.12000 139.809
52.16000 136.299
52.20000 143.152
52.24000 136.603
52.28000 143.859
52.32000 140.844
52.36000 138.475
52.40000 137.891
52.44000 141.744
52.48000 136.751
52.52000 142.669
52.56000 143.969
52.60000 137.383
52.64000 134.050
52.68000 144.069
52.72000 136.362
52.76000 135.790
52.80000 144.610
52.84000 132.702
52.88000 137.743
52.92000 131.874
52.96000 149.031
53.00000 137.348
53.04000 143.823
53.08000 150.044
53.12000 144.042
53.16000 147.709
53.20000 138.284
53.24000 146.114
53.28000 144.266
53.32000 150.789
53.36000 152.036
53.40000 141.365
53.44000 152.202
53.48000 152.116
53.52000 152.867
53.56000 145.534
53.60000 166.357
53.64000 148.123
53.68000 143.620
53.72000 145.113
53.76000 148.123
53.80000 145.664
53.84000 141.835
53.88000 147.143
53.92000 147.524
53.96000 143.323
54.00000 144.159
54.04000 147.850
54.08000 142.779
54.12000 138.164
54.16000 144.581
54.20000 132.824
54.24000 132.210
54.28000 141.663
54.32000 139.905
54.36000 135.653
54.40000 136.526
54.44000 134.898
54.48000 136.020
54.52000 137.980
54.56000 140.055
54.60000 141.111
54.64000 136.179
54.68000 145.954
54.72000 141.572
54.76000 141.708
54.80000 130.844
54.84000 131.523
54.88000 127.880
54.92000 139.252
54.96000 149.415
55.00000 136.711
55.04000 143.596
55.08000 139.777
55.12000 147.077
55.16000 145.748
55.20000 139.521
55.24000 146.074
55.28000 150.165
55.32000 156.767
55.36000 156.515
55.40000 155.825
55.44000 161.622
55.48000 149.521
55.52000 155.789
55.56000 179.931
55.60000 180.554
55.64000 210.986
55.68000 222.207
55.72000 246.357
55.76000 266.085
55.80000 328.918
55.84000 389.500
55.88000 448.634
55.92000 477.738
55.96000 526.203
56.00000 563.012
56.04000 559.173
56.08000 549.700
56.12000 499.440
56.16000 466.623
56.20000 421.631
56.24000 360.226
56.28000 309.231
56.32000 288.295
56.36000 248.992
56.40000 237.278
56.44000 206.797
56.48000 198.472
56.52000 178.999
56.56000 171.681
56.60000 170.912
56.64000 165.806
56.68000 158.615
56.72000 150.865
56.76000 145.571
56.80000 147.317
56.84000 138.692
56.88000 142.058
56.92000 144.474
56.96000 122.631
57.00000 149.796
57.04000 137.967
57.08000 141.024
57.12000 129.992
57.16000 133.085
57.20000 128.989
57.24000 129.099
57.28000 128.651
57.32000 128.839
57.36000 140.719
57.40000 125.815
57.44000 122.089
57.48000 130.343
57.52000 121.017
57.56000 133.215
57.60000 129.425
57.64000 126.120
57.68000 123.171
57.72000 131.072
57.76000 117.666
57.80000 122.978
57.84000 130.167
57.88000 126.507
57.92000 124.395
57.96000 130.265
58.00000 128.554
58.04000 133.948
58.08000 124.831
58.12000 136.039
58.16000 114.471
58.20000 120.784
58.24000 123.330
58.28000 120.503
58.32000 128.468
58.36000 125.551
58.40000 123.300
58.44000 124.162
58.48000 121.889
58.52000 119.091
58.56000 107.038
58.60000 114.418
58.64000 126.706
58.68000 129.860
58.72000 120.702
58.76000 123.677
58.80000 112.478
58.84000 127.355
58.88000 114.225
58.92000 114.928
58.96000 119.036
59.00000 122.303
59.04000 119.058
59.08000 118.403
59.12000 118.801
59.16000 122.902
59.20000 131.499
59.24000 117.797
59.28000 109.920
59.32000 118.072
59.36000 120.592
59.40000 119.953
59.44000 123.250
59.48000 122.266
59.52000 121.484
59.56000 118.246
59.60000 115.050
59.64000 120.705
59.68000 130.519
59.72000 129.736
59.76000 124.039
59.80000 119.089
59.84000 111.411
59.88000 120.402
59.92000 124.710
59.96000 124.675
60.00000 116.563
60.04000 121.371
60.08000 125.450
60.12000 114.136
60.16000 111.868
60.20000 122.199
60.24000 109.997
60.28000 111.664
60.32000 117.497
60.36000 119.681
60.40000 112.895
60.44000 124.673
60.48000 125.048
60.52000 114.721
60.56000 122.174
60.60000 120.768
60.64000 125.675
60.68000 112.184
60.72000 124.420
60.76000 119.017
60.80000 120.813
60.84000 120.977
60.88000 121.060
60.92000 122.050
60.96000 120.020
61.00000 116.434
61.04000 121.324
61.08000 115.978
61.12000 118.525
61.16000 123.480
61.20000 128.732
61.24000 130.779
61.28000 121.510
61.32000 128.180
61.36000 120.404
61.40000 124.819
61.44000 135.026
61.48000 127.630
61.52000 173.483
61.56000 238.831
61.60000 293.642
61.64000 332.300
61.68000 366.547
61.72000 364.757
61.76000 341.518
61.80000 273.635
61.84000 194.912
61.88000 161.827
61.92000 138.588
61.96000 142.584
62.00000 133.078
62.04000 135.232
62.08000 128.426
62.12000 133.615
62.16000 131.401
62.20000 129.925
62.24000 139.111
62.28000 137.482
62.32000 138.153
62.36000 133.172
62.40000 142.583
62.44000 130.173
62.48000 134.691
62.52000 133.268
62.56000 138.623
62.60000 137.184
62.64000 137.945
62.68000 140.491
62.72000 137.023
62.76000 142.139
62.80000 133.729
62.84000 121.614
62.88000 143.808
62.92000 140.202
62.96000 138.459
63.00000 139.100
63.04000 128.240
63.08000 141.589
63.12000 148.302
63.16000 132.866
63.20000 132.140
63.24000 142.142
63.28000 139.327
63.32000 138.588
63.36000 133.093
63.40000 145.275
63.44000 138.265
63.48000 142.941
63.52000 138.822
63.56000 135.582
63.60000 142.579
63.64000 141.688
63.68000 141.276
63.72000 148.267
63.76000 141.061
63.80000 145.780
63.84000 147.299
63.88000 152.604
63.92000 148.050
63.96000 146.118
64.00000 141.119
64.04000 146.990
64.08000 153.874
64.12000 159.782
64.16000 155.356
64.20000 157.505
64.24000 159.036
64.28000 159.409
64.32000 159.565
64.36000 157.520
64.40000 158.748
64.44000 165.864
64.48000 167.887
64.52000 166.854
64.56000 171.295
64.60000 163.667
64.64000 179.968
64.68000 178.528
64.72000 172.112
64.76000 180.003
64.80000 198.744
64.84000 186.185
64.88000 179.747
64.92000 182.053
64.96000 189.576
65.00000 187.972
65.04000 206.390
65.08000 202.802
65.12000 230.210
65.16000 216.313
65.20000 228.726
65.24000 252.316
65.28000 249.332
65.32000 268.112
65.36000 294.064
65.40000 314.757
65.44000 347.915
65.48000 382.105
65.52000 427.603
65.56000 466.399
65.60000 524.899
65.64000 592.246
65.68000 806.805
65.72000 1218.544
65.76000 1803.863
65.80000 2316.772
65.84000 2600.136
65.88000 2619.475
65.92000 2515.688
65.96000 2062.808
66.00000 1366.011
66.04000 859.750
66.08000 607.133
66.12000 490.003
66.16000 465.598
66.20000 448.092
66.24000 456.414
66.28000 525.605
66.32000 652.390
66.36000 738.314
66.40000 770.313
66.44000 799.240
66.48000 741.980
66.52000 663.786
66.56000 549.052
66.60000 461.279
66.64000 430.594
66.68000 407.190
66.72000 401.346
66.76000 392.531
66.80000 392.661
66.84000 418.982
66.88000 428.625
66.92000 409.362
66.96000 418.924
67.00000 406.925
67.04000 436.489
67.08000 450.246
67.12000 418.789
67.16000 431.003
67.20000 427.790
67.24000 426.684
67.28000 430.494
67.32000 470.476
67.36000 455.401
67.40000 480.304
67.44000 477.163
67.48000 461.624
67.52000 476.457
67.56000 484.748
67.60000 496.778
67.64000 515.085
67.68000 519.824
67.72000 489.989
67.76000 517.556
67.80000 553.682
67.84000 543.427
67.88000 545.910
67.92000 557.786
67.96000 563.869
68.00000 554.526
68.04000 581.404
68.08000 595.639
68.12000 588.921
68.16000 614.240
68.20000 637.570
68.24000 644.975
68.28000 637.370
68.32000 673.598
68.36000 690.906
68.40000 723.978
68.44000 730.843
68.48000 798.860
68.52000 821.553
68.56000 918.692
68.60000 1002.648
68.64000 1136.486
68.68000 1377.814
68.72000 1608.617
68.76000 1865.732
68.80000 2143.042
68.84000 2460.965
68.88000 3121.522
68.92000 5131.561
68.96000 12093.618
69.00000 28376.488
69.04000 46361.180
69.08000 56527.438
69.12000 60538.785
69.16000 64290.984
69.20000 64147.094
69.24000 52734.605
69.28000 39313.086
69.32000 31715.160
69.36000 29340.223
69.40000 24629.926
69.44000 15498.369
69.48000 6916.257
69.52000 3125.581
69.56000 1836.200
69.60000 1347.073
69.64000 1145.224
69.68000 984.707
69.72000 860.805
69.76000 799.628
69.80000 722.964
69.84000 682.534
69.88000 667.877
69.92000 609.401
69.96000 574.777
70.00000 562.201