File: XRD/09-10-2025 Dep 8/XY Data/BTO_Mapping_Theta2Theta_09-10-2025_001_06_9-135_4-067.xy
20.00000 497.464
20.04000 483.572
20.08000 482.758
20.12000 494.491
20.16000 489.239
20.20000 490.214
20.24000 477.382
20.28000 481.074
20.32000 464.081
20.36000 469.969
20.40000 484.806
20.44000 496.494
20.48000 474.535
20.52000 453.965
20.56000 500.739
20.60000 477.307
20.64000 471.551
20.68000 474.955
20.72000 466.527
20.76000 469.158
20.80000 471.775
20.84000 473.294
20.88000 491.178
20.92000 484.682
20.96000 476.728
21.00000 477.937
21.04000 471.207
21.08000 472.196
21.12000 473.393
21.16000 469.912
21.20000 468.771
21.24000 484.888
21.28000 473.456
21.32000 480.456
21.36000 484.776
21.40000 480.779
21.44000 476.190
21.48000 486.087
21.52000 484.964
21.56000 467.614
21.60000 467.915
21.64000 479.795
21.68000 482.271
21.72000 490.067
21.76000 489.874
21.80000 514.412
21.84000 516.600
21.88000 497.879
21.92000 535.612
21.96000 559.665
22.00000 565.505
22.04000 582.506
22.08000 615.578
22.12000 626.257
22.16000 600.012
22.20000 613.209
22.24000 585.668
22.28000 567.427
22.32000 547.677
22.36000 535.527
22.40000 528.799
22.44000 499.966
22.48000 480.185
22.52000 491.213
22.56000 489.535
22.60000 485.156
22.64000 472.538
22.68000 452.242
22.72000 466.052
22.76000 466.406
22.80000 460.287
22.84000 453.289
22.88000 445.763
22.92000 446.996
22.96000 438.634
23.00000 450.367
23.04000 432.714
23.08000 434.657
23.12000 436.565
23.16000 440.139
23.20000 422.815
23.24000 438.807
23.28000 428.914
23.32000 437.753
23.36000 436.973
23.40000 427.104
23.44000 434.360
23.48000 422.527
23.52000 431.308
23.56000 416.869
23.60000 422.674
23.64000 445.425
23.68000 437.476
23.72000 443.616
23.76000 438.541
23.80000 434.210
23.84000 412.703
23.88000 424.031
23.92000 434.173
23.96000 417.360
24.00000 435.519
24.04000 428.984
24.08000 426.279
24.12000 436.780
24.16000 438.742
24.20000 433.723
24.24000 430.137
24.28000 411.342
24.32000 421.667
24.36000 410.441
24.40000 412.739
24.44000 428.436
24.48000 420.818
24.52000 403.154
24.56000 425.078
24.60000 411.120
24.64000 414.101
24.68000 416.675
24.72000 419.480
24.76000 411.176
24.80000 401.800
24.84000 414.609
24.88000 402.473
24.92000 409.392
24.96000 427.593
25.00000 399.908
25.04000 409.749
25.08000 409.062
25.12000 411.005
25.16000 420.611
25.20000 413.382
25.24000 406.060
25.28000 417.349
25.32000 402.147
25.36000 387.052
25.40000 388.944
25.44000 402.743
25.48000 404.402
25.52000 400.353
25.56000 408.522
25.60000 390.572
25.64000 391.886
25.68000 387.177
25.72000 420.717
25.76000 397.240
25.80000 386.521
25.84000 410.443
25.88000 404.866
25.92000 406.863
25.96000 401.133
26.00000 395.560
26.04000 379.692
26.08000 410.497
26.12000 394.360
26.16000 382.779
26.20000 385.583
26.24000 405.451
26.28000 395.302
26.32000 400.111
26.36000 388.641
26.40000 384.518
26.44000 387.149
26.48000 386.908
26.52000 397.840
26.56000 379.047
26.60000 379.409
26.64000 395.411
26.68000 395.304
26.72000 396.448
26.76000 376.382
26.80000 393.963
26.84000 371.409
26.88000 379.116
26.92000 387.444
26.96000 369.114
27.00000 375.371
27.04000 373.511
27.08000 387.709
27.12000 377.710
27.16000 388.376
27.20000 380.783
27.24000 393.195
27.28000 371.280
27.32000 377.741
27.36000 373.748
27.40000 387.594
27.44000 380.498
27.48000 385.549
27.52000 381.791
27.56000 375.697
27.60000 393.350
27.64000 376.649
27.68000 370.732
27.72000 367.014
27.76000 380.156
27.80000 371.340
27.84000 381.115
27.88000 357.243
27.92000 373.820
27.96000 380.766
28.00000 366.089
28.04000 375.002
28.08000 382.893
28.12000 379.738
28.16000 373.253
28.20000 354.655
28.24000 383.372
28.28000 382.160
28.32000 372.047
28.36000 380.569
28.40000 363.123
28.44000 362.408
28.48000 383.572
28.52000 379.291
28.56000 359.854
28.60000 366.554
28.64000 367.983
28.68000 380.496
28.72000 360.067
28.76000 360.002
28.80000 360.796
28.84000 365.534
28.88000 356.291
28.92000 351.594
28.96000 374.994
29.00000 359.853
29.04000 357.569
29.08000 359.169
29.12000 366.590
29.16000 369.886
29.20000 366.490
29.24000 369.857
29.28000 345.948
29.32000 354.000
29.36000 356.531
29.40000 349.605
29.44000 360.347
29.48000 360.906
29.52000 356.148
29.56000 364.973
29.60000 368.574
29.64000 363.646
29.68000 357.173
29.72000 392.202
29.76000 391.832
29.80000 386.878
29.84000 405.756
29.88000 413.037
29.92000 422.671
29.96000 463.010
30.00000 445.714
30.04000 459.394
30.08000 443.274
30.12000 433.433
30.16000 460.009
30.20000 450.725
30.24000 426.776
30.28000 414.338
30.32000 419.708
30.36000 406.417
30.40000 399.341
30.44000 399.109
30.48000 396.784
30.52000 389.766
30.56000 410.376
30.60000 411.907
30.64000 408.157
30.68000 427.380
30.72000 415.188
30.76000 431.971
30.80000 404.644
30.84000 438.934
30.88000 441.617
30.92000 459.796
30.96000 481.693
31.00000 538.597
31.04000 580.627
31.08000 624.487
31.12000 800.341
31.16000 1015.089
31.20000 1256.457
31.24000 1667.306
31.28000 2121.323
31.32000 2555.305
31.36000 2921.540
31.40000 3158.953
31.44000 3073.243
31.48000 2783.065
31.52000 2408.961
31.56000 1963.544
31.60000 1529.633
31.64000 1180.078
31.68000 929.706
31.72000 756.032
31.76000 654.773
31.80000 562.839
31.84000 516.371
31.88000 450.318
31.92000 441.260
31.96000 412.003
32.00000 395.446
32.04000 393.650
32.08000 373.085
32.12000 371.909
32.16000 370.067
32.20000 365.138
32.24000 360.119
32.28000 355.866
32.32000 337.095
32.36000 337.078
32.40000 346.967
32.44000 337.834
32.48000 326.411
32.52000 332.539
32.56000 322.124
32.60000 345.617
32.64000 335.677
32.68000 334.339
32.72000 322.379
32.76000 327.920
32.80000 327.099
32.84000 314.107
32.88000 319.690
32.92000 299.067
32.96000 311.554
33.00000 318.491
33.04000 323.565
33.08000 309.008
33.12000 320.639
33.16000 317.007
33.20000 310.004
33.24000 306.483
33.28000 302.401
33.32000 328.789
33.36000 305.590
33.40000 307.912
33.44000 300.637
33.48000 301.030
33.52000 311.486
33.56000 304.608
33.60000 306.265
33.64000 305.279
33.68000 293.573
33.72000 304.633
33.76000 290.958
33.80000 301.118
33.84000 295.484
33.88000 293.237
33.92000 308.379
33.96000 290.696
34.00000 289.990
34.04000 289.852
34.08000 298.092
34.12000 285.958
34.16000 270.437
34.20000 284.666
34.24000 275.110
34.28000 281.117
34.32000 293.847
34.36000 279.469
34.40000 272.924
34.44000 294.164
34.48000 278.914
34.52000 288.597
34.56000 293.933
34.60000 291.786
34.64000 271.896
34.68000 294.064
34.72000 289.287
34.76000 291.143
34.80000 278.617
34.84000 285.890
34.88000 274.357
34.92000 266.735
34.96000 276.079
35.00000 288.117
35.04000 267.615
35.08000 280.175
35.12000 280.223
35.16000 278.503
35.20000 266.665
35.24000 271.308
35.28000 291.140
35.32000 272.121
35.36000 263.729
35.40000 271.137
35.44000 270.463
35.48000 267.714
35.52000 270.764
35.56000 265.598
35.60000 274.937
35.64000 273.997
35.68000 266.509
35.72000 283.733
35.76000 271.520
35.80000 264.040
35.84000 274.262
35.88000 253.729
35.92000 257.320
35.96000 264.933
36.00000 259.097
36.04000 254.654
36.08000 277.189
36.12000 267.919
36.16000 250.544
36.20000 256.110
36.24000 261.990
36.28000 257.572
36.32000 253.952
36.36000 254.631
36.40000 263.147
36.44000 268.036
36.48000 252.074
36.52000 258.539
36.56000 243.607
36.60000 249.020
36.64000 264.108
36.68000 262.927
36.72000 271.939
36.76000 255.796
36.80000 266.032
36.84000 275.666
36.88000 266.867
36.92000 273.918
36.96000 274.169
37.00000 276.905
37.04000 286.602
37.08000 284.651
37.12000 288.659
37.16000 278.535
37.20000 268.496
37.24000 267.427
37.28000 270.471
37.32000 265.933
37.36000 252.938
37.40000 263.930
37.44000 256.038
37.48000 252.350
37.52000 268.156
37.56000 250.586
37.60000 262.851
37.64000 266.658
37.68000 251.733
37.72000 247.233
37.76000 257.733
37.80000 255.324
37.84000 262.197
37.88000 251.328
37.92000 249.609
37.96000 246.253
38.00000 259.345
38.04000 272.740
38.08000 283.418
38.12000 267.052
38.16000 277.809
38.20000 272.507
38.24000 262.721
38.28000 284.025
38.32000 283.714
38.36000 297.837
38.40000 327.892
38.44000 345.749
38.48000 396.571
38.52000 477.481
38.56000 600.047
38.60000 690.780
38.64000 849.177
38.68000 982.314
38.72000 1031.957
38.76000 1053.915
38.80000 998.940
38.84000 890.599
38.88000 766.160
38.92000 621.335
38.96000 501.826
39.00000 420.248
39.04000 357.132
39.08000 319.581
39.12000 288.956
39.16000 282.490
39.20000 274.081
39.24000 275.972
39.28000 251.156
39.32000 261.087
39.36000 234.441
39.40000 249.352
39.44000 261.185
39.48000 250.022
39.52000 248.915
39.56000 222.111
39.60000 236.337
39.64000 244.679
39.68000 239.086
39.72000 234.871
39.76000 248.781
39.80000 243.839
39.84000 233.184
39.88000 234.579
39.92000 234.383
39.96000 229.147
40.00000 235.647
40.04000 229.980
40.08000 219.816
40.12000 226.707
40.16000 221.933
40.20000 227.139
40.24000 231.793
40.28000 229.576
40.32000 214.884
40.36000 228.619
40.40000 232.047
40.44000 210.904
40.48000 217.836
40.52000 216.711
40.56000 225.475
40.60000 209.204
40.64000 214.574
40.68000 222.336
40.72000 213.671
40.76000 215.484
40.80000 221.161
40.84000 224.046
40.88000 208.079
40.92000 209.308
40.96000 208.180
41.00000 218.777
41.04000 219.983
41.08000 227.742
41.12000 217.054
41.16000 208.841
41.20000 205.317
41.24000 217.473
41.28000 222.345
41.32000 218.774
41.36000 219.794
41.40000 217.540
41.44000 218.453
41.48000 218.730
41.52000 205.900
41.56000 210.868
41.60000 211.227
41.64000 214.110
41.68000 212.801
41.72000 219.352
41.76000 204.524
41.80000 203.143
41.84000 217.472
41.88000 209.556
41.92000 212.335
41.96000 218.287
42.00000 207.968
42.04000 204.799
42.08000 203.381
42.12000 209.278
42.16000 206.933
42.20000 196.278
42.24000 208.592
42.28000 209.676
42.32000 204.870
42.36000 202.795
42.40000 195.304
42.44000 204.500
42.48000 217.589
42.52000 207.631
42.56000 199.359
42.60000 205.302
42.64000 205.387
42.68000 203.812
42.72000 203.423
42.76000 210.479
42.80000 202.040
42.84000 194.573
42.88000 207.402
42.92000 203.908
42.96000 197.741
43.00000 202.033
43.04000 196.167
43.08000 203.418
43.12000 203.352
43.16000 203.157
43.20000 203.524
43.24000 193.699
43.28000 191.913
43.32000 202.383
43.36000 200.175
43.40000 184.856
43.44000 207.291
43.48000 199.524
43.52000 195.619
43.56000 194.395
43.60000 201.454
43.64000 201.869
43.68000 189.431
43.72000 198.530
43.76000 192.469
43.80000 204.060
43.84000 202.828
43.88000 186.307
43.92000 201.533
43.96000 199.234
44.00000 202.860
44.04000 196.238
44.08000 200.073
44.12000 197.332
44.16000 195.880
44.20000 194.655
44.24000 203.238
44.28000 184.216
44.32000 185.095
44.36000 207.517
44.40000 208.248
44.44000 180.316
44.48000 195.891
44.52000 192.122
44.56000 198.766
44.60000 209.360
44.64000 206.484
44.68000 207.116
44.72000 212.220
44.76000 216.227
44.80000 225.616
44.84000 229.223
44.88000 247.278
44.92000 248.837
44.96000 259.772
45.00000 267.185
45.04000 269.353
45.08000 283.839
45.12000 295.802
45.16000 303.304
45.20000 299.407
45.24000 297.567
45.28000 301.114
45.32000 292.522
45.36000 283.525
45.40000 274.045
45.44000 260.639
45.48000 271.251
45.52000 261.108
45.56000 249.898
45.60000 237.977
45.64000 230.323
45.68000 229.247
45.72000 225.706
45.76000 222.873
45.80000 220.509
45.84000 210.532
45.88000 212.806
45.92000 199.253
45.96000 198.949
46.00000 198.265
46.04000 198.636
46.08000 194.824
46.12000 185.964
46.16000 189.690
46.20000 184.677
46.24000 184.943
46.28000 182.140
46.32000 190.548
46.36000 181.845
46.40000 169.482
46.44000 173.709
46.48000 178.397
46.52000 193.435
46.56000 179.703
46.60000 194.081
46.64000 182.238
46.68000 180.196
46.72000 186.827
46.76000 182.221
46.80000 173.997
46.84000 173.829
46.88000 180.421
46.92000 181.297
46.96000 172.501
47.00000 174.330
47.04000 186.113
47.08000 169.388
47.12000 178.882
47.16000 172.348
47.20000 173.907
47.24000 184.205
47.28000 171.084
47.32000 171.901
47.36000 160.392
47.40000 168.244
47.44000 180.280
47.48000 170.738
47.52000 174.218
47.56000 159.435
47.60000 162.295
47.64000 161.741
47.68000 159.419
47.72000 164.894
47.76000 163.810
47.80000 158.734
47.84000 164.443
47.88000 156.548
47.92000 157.453
47.96000 152.955
48.00000 165.565
48.04000 162.564
48.08000 170.475
48.12000 157.579
48.16000 161.597
48.20000 161.185
48.24000 164.575
48.28000 159.249
48.32000 154.311
48.36000 156.405
48.40000 157.741
48.44000 159.119
48.48000 161.686
48.52000 160.861
48.56000 160.370
48.60000 160.017
48.64000 166.426
48.68000 180.423
48.72000 162.260
48.76000 154.313
48.80000 162.554
48.84000 166.250
48.88000 156.549
48.92000 162.680
48.96000 161.545
49.00000 156.325
49.04000 156.131
49.08000 160.680
49.12000 161.398
49.16000 155.737
49.20000 162.204
49.24000 169.603
49.28000 151.768
49.32000 150.904
49.36000 156.281
49.40000 152.643
49.44000 156.420
49.48000 152.443
49.52000 165.214
49.56000 158.240
49.60000 158.206
49.64000 159.921
49.68000 159.467
49.72000 168.285
49.76000 156.149
49.80000 147.696
49.84000 151.163
49.88000 157.126
49.92000 142.228
49.96000 158.779
50.00000 156.723
50.04000 153.614
50.08000 148.345
50.12000 145.274
50.16000 145.860
50.20000 149.375
50.24000 148.379
50.28000 152.722
50.32000 160.511
50.36000 170.899
50.40000 161.037
50.44000 182.626
50.48000 164.274
50.52000 181.230
50.56000 182.546
50.60000 198.508
50.64000 220.702
50.68000 218.392
50.72000 233.992
50.76000 240.171
50.80000 237.190
50.84000 229.423
50.88000 215.478
50.92000 205.274
50.96000 198.100
51.00000 188.624
51.04000 183.525
51.08000 177.420
51.12000 174.833
51.16000 155.826
51.20000 156.342
51.24000 164.577
51.28000 166.194
51.32000 157.183
51.36000 158.955
51.40000 151.535
51.44000 159.706
51.48000 144.860
51.52000 148.317
51.56000 153.504
51.60000 156.990
51.64000 149.846
51.68000 139.633
51.72000 144.753
51.76000 141.314
51.80000 146.279
51.84000 138.455
51.88000 140.569
51.92000 135.685
51.96000 148.583
52.00000 142.577
52.04000 146.460
52.08000 137.946
52.12000 152.325
52.16000 133.266
52.20000 140.014
52.24000 145.523
52.28000 140.444
52.32000 143.449
52.36000 145.088
52.40000 137.044
52.44000 141.041
52.48000 147.034
52.52000 142.610
52.56000 147.098
52.60000 143.878
52.64000 137.069
52.68000 139.002
52.72000 128.773
52.76000 153.339
52.80000 140.831
52.84000 142.434
52.88000 141.169
52.92000 141.103
52.96000 136.503
53.00000 145.876
53.04000 145.928
53.08000 142.267
53.12000 143.289
53.16000 144.530
53.20000 130.676
53.24000 135.659
53.28000 143.737
53.32000 142.376
53.36000 139.996
53.40000 154.032
53.44000 163.355
53.48000 154.485
53.52000 152.431
53.56000 153.311
53.60000 153.351
53.64000 152.405
53.68000 153.543
53.72000 143.526
53.76000 142.474
53.80000 141.489
53.84000 145.134
53.88000 136.819
53.92000 138.913
53.96000 136.946
54.00000 131.156
54.04000 137.475
54.08000 130.778
54.12000 143.596
54.16000 142.950
54.20000 150.408
54.24000 141.404
54.28000 137.254
54.32000 134.830
54.36000 136.188
54.40000 134.441
54.44000 135.502
54.48000 143.020
54.52000 134.446
54.56000 134.047
54.60000 139.154
54.64000 147.855
54.68000 137.352
54.72000 134.816
54.76000 136.549
54.80000 143.713
54.84000 145.798
54.88000 144.581
54.92000 144.086
54.96000 138.796
55.00000 144.717
55.04000 145.150
55.08000 137.452
55.12000 143.531
55.16000 152.420
55.20000 150.746
55.24000 143.125
55.28000 146.155
55.32000 144.746
55.36000 148.894
55.40000 153.498
55.44000 161.554
55.48000 159.458
55.52000 173.325
55.56000 186.979
55.60000 187.795
55.64000 196.117
55.68000 224.854
55.72000 246.229
55.76000 281.296
55.80000 324.479
55.84000 386.504
55.88000 446.333
55.92000 515.353
55.96000 524.555
56.00000 552.473
56.04000 544.465
56.08000 533.503
56.12000 476.919
56.16000 424.667
56.20000 370.532
56.24000 334.509
56.28000 300.673
56.32000 258.884
56.36000 225.856
56.40000 215.109
56.44000 196.588
56.48000 173.243
56.52000 175.034
56.56000 165.725
56.60000 162.608
56.64000 158.051
56.68000 164.054
56.72000 145.197
56.76000 154.326
56.80000 146.478
56.84000 134.972
56.88000 141.017
56.92000 144.582
56.96000 132.339
57.00000 130.647
57.04000 123.873
57.08000 123.351
57.12000 136.289
57.16000 123.573
57.20000 130.963
57.24000 128.443
57.28000 132.220
57.32000 135.284
57.36000 123.578
57.40000 129.667
57.44000 128.111
57.48000 123.597
57.52000 132.271
57.56000 124.886
57.60000 124.479
57.64000 124.183
57.68000 127.659
57.72000 127.276
57.76000 127.079
57.80000 135.693
57.84000 125.775
57.88000 126.756
57.92000 125.067
57.96000 119.706
58.00000 124.321
58.04000 121.454
58.08000 125.533
58.12000 125.961
58.16000 117.012
58.20000 121.696
58.24000 129.746
58.28000 119.969
58.32000 119.926
58.36000 129.331
58.40000 124.243
58.44000 121.053
58.48000 113.805
58.52000 126.065
58.56000 131.859
58.60000 130.543
58.64000 126.569
58.68000 119.085
58.72000 122.281
58.76000 128.816
58.80000 126.978
58.84000 108.373
58.88000 111.907
58.92000 124.167
58.96000 119.551
59.00000 119.414
59.04000 123.853
59.08000 122.929
59.12000 108.644
59.16000 119.476
59.20000 124.832
59.24000 125.723
59.28000 116.233
59.32000 118.451
59.36000 122.648
59.40000 122.770
59.44000 126.137
59.48000 119.184
59.52000 120.839
59.56000 119.812
59.60000 126.417
59.64000 126.213
59.68000 120.446
59.72000 119.264
59.76000 107.158
59.80000 121.313
59.84000 126.669
59.88000 118.743
59.92000 115.755
59.96000 124.743
60.00000 122.054
60.04000 107.645
60.08000 104.716
60.12000 110.339
60.16000 116.665
60.20000 119.524
60.24000 124.403
60.28000 114.086
60.32000 121.657
60.36000 111.924
60.40000 108.710
60.44000 103.629
60.48000 121.268
60.52000 114.000
60.56000 116.241
60.60000 121.505
60.64000 123.519
60.68000 120.085
60.72000 125.410
60.76000 125.584
60.80000 123.181
60.84000 117.642
60.88000 119.149
60.92000 125.259
60.96000 108.529
61.00000 112.148
61.04000 114.329
61.08000 116.348
61.12000 116.969
61.16000 125.007
61.20000 122.681
61.24000 127.560
61.28000 119.188
61.32000 121.218
61.36000 124.262
61.40000 123.735
61.44000 130.279
61.48000 140.903
61.52000 178.399
61.56000 228.748
61.60000 281.366
61.64000 323.568
61.68000 335.640
61.72000 335.605
61.76000 306.758
61.80000 243.371
61.84000 171.521
61.88000 160.713
61.92000 138.731
61.96000 135.441
62.00000 133.956
62.04000 131.322
62.08000 125.621
62.12000 139.776
62.16000 126.639
62.20000 130.426
62.24000 131.662
62.28000 133.107
62.32000 144.342
62.36000 131.006
62.40000 132.213
62.44000 135.145
62.48000 129.744
62.52000 141.588
62.56000 133.241
62.60000 135.243
62.64000 130.076
62.68000 128.062
62.72000 132.992
62.76000 139.596
62.80000 134.845
62.84000 125.259
62.88000 136.596
62.92000 126.941
62.96000 139.988
63.00000 141.490
63.04000 140.157
63.08000 140.321
63.12000 140.183
63.16000 136.900
63.20000 134.530
63.24000 137.841
63.28000 139.518
63.32000 145.686
63.36000 135.583
63.40000 132.281
63.44000 141.311
63.48000 137.504
63.52000 137.372
63.56000 146.982
63.60000 141.560
63.64000 151.479
63.68000 147.215
63.72000 146.745
63.76000 143.220
63.80000 144.134
63.84000 143.088
63.88000 147.608
63.92000 153.264
63.96000 147.572
64.00000 153.882
64.04000 162.263
64.08000 141.573
64.12000 154.982
64.16000 162.028
64.20000 156.826
64.24000 157.866
64.28000 153.767
64.32000 162.094
64.36000 161.491
64.40000 161.539
64.44000 161.951
64.48000 159.497
64.52000 167.079
64.56000 163.881
64.60000 180.787
64.64000 170.740
64.68000 173.915
64.72000 172.330
64.76000 177.961
64.80000 175.546
64.84000 184.267
64.88000 174.956
64.92000 179.547
64.96000 190.678
65.00000 202.367
65.04000 204.190
65.08000 223.342
65.12000 205.763
65.16000 218.745
65.20000 240.809
65.24000 232.898
65.28000 262.281
65.32000 275.701
65.36000 306.201
65.40000 330.481
65.44000 363.834
65.48000 387.302
65.52000 428.538
65.56000 476.965
65.60000 517.629
65.64000 606.449
65.68000 816.359
65.72000 1238.672
65.76000 1755.994
65.80000 2181.084
65.84000 2338.611
65.88000 2348.326
65.92000 2190.691
65.96000 1776.995
66.00000 1108.492
66.04000 733.462
66.08000 509.938
66.12000 457.303
66.16000 444.439
66.20000 412.190
66.24000 456.642
66.28000 526.769
66.32000 615.290
66.36000 676.629
66.40000 732.281
66.44000 708.387
66.48000 657.933
66.52000 576.694
66.56000 473.609
66.60000 429.090
66.64000 399.244
66.68000 382.972
66.72000 385.976
66.76000 377.253
66.80000 387.825
66.84000 407.855
66.88000 378.064
66.92000 388.228
66.96000 398.708
67.00000 409.245
67.04000 410.715
67.08000 409.025
67.12000 410.423
67.16000 421.435
67.20000 414.162
67.24000 432.185
67.28000 410.698
67.32000 432.003
67.36000 436.281
67.40000 441.923
67.44000 436.960
67.48000 461.260
67.52000 452.349
67.56000 456.360
67.60000 477.724
67.64000 483.974
67.68000 475.833
67.72000 496.090
67.76000 490.373
67.80000 514.257
67.84000 503.151
67.88000 511.050
67.92000 508.847
67.96000 526.014
68.00000 544.781
68.04000 527.960
68.08000 560.901
68.12000 557.745
68.16000 581.491
68.20000 623.855
68.24000 593.799
68.28000 627.471
68.32000 636.711
68.36000 663.605
68.40000 691.780
68.44000 717.601
68.48000 746.121
68.52000 776.704
68.56000 851.027
68.60000 982.017
68.64000 1130.803
68.68000 1313.403
68.72000 1533.730
68.76000 1763.398
68.80000 1990.996
68.84000 2334.876
68.88000 3048.937
68.92000 5308.195
68.96000 13175.892
69.00000 29235.752
69.04000 44353.379
69.08000 51623.707
69.12000 54595.211
69.16000 58041.707
69.20000 56006.492
69.24000 43930.938
69.28000 32806.629
69.32000 27529.414
69.36000 25638.479
69.40000 20682.563
69.44000 11792.772
69.48000 5077.710
69.52000 2411.792
69.56000 1526.169
69.60000 1210.924
69.64000 1023.911
69.68000 903.991
69.72000 818.593
69.76000 740.151
69.80000 658.398
69.84000 654.135
69.88000 610.368
69.92000 564.018
69.96000 543.050
70.00000 549.586