File: XRD/09-10-2025 Dep 8/XY Data/BTO_Mapping_Theta2Theta_09-10-2025_001_24_-15-000_25-981.xy
20.00000 477.174
20.04000 496.057
20.08000 466.943
20.12000 471.583
20.16000 481.658
20.20000 495.032
20.24000 481.053
20.28000 489.764
20.32000 490.910
20.36000 461.854
20.40000 471.280
20.44000 480.315
20.48000 487.667
20.52000 488.117
20.56000 497.141
20.60000 486.272
20.64000 482.600
20.68000 487.631
20.72000 479.427
20.76000 489.735
20.80000 477.052
20.84000 471.869
20.88000 472.159
20.92000 480.078
20.96000 501.557
21.00000 472.250
21.04000 463.695
21.08000 484.576
21.12000 465.327
21.16000 486.187
21.20000 485.472
21.24000 494.124
21.28000 482.202
21.32000 472.862
21.36000 483.322
21.40000 489.070
21.44000 487.307
21.48000 467.518
21.52000 479.719
21.56000 473.800
21.60000 478.122
21.64000 467.128
21.68000 484.099
21.72000 500.677
21.76000 512.071
21.80000 518.396
21.84000 537.031
21.88000 537.680
21.92000 562.422
21.96000 612.083
22.00000 614.831
22.04000 632.216
22.08000 633.113
22.12000 638.265
22.16000 616.078
22.20000 611.263
22.24000 617.110
22.28000 583.659
22.32000 569.092
22.36000 547.839
22.40000 551.463
22.44000 497.208
22.48000 483.312
22.52000 472.061
22.56000 462.114
22.60000 476.382
22.64000 475.579
22.68000 458.641
22.72000 450.779
22.76000 457.952
22.80000 449.668
22.84000 427.968
22.88000 444.710
22.92000 438.630
22.96000 448.427
23.00000 431.544
23.04000 425.701
23.08000 430.942
23.12000 447.729
23.16000 434.462
23.20000 441.463
23.24000 435.862
23.28000 442.636
23.32000 433.607
23.36000 458.525
23.40000 442.396
23.44000 453.446
23.48000 438.530
23.52000 435.716
23.56000 448.887
23.60000 430.373
23.64000 442.334
23.68000 440.244
23.72000 428.773
23.76000 423.993
23.80000 428.261
23.84000 418.015
23.88000 427.171
23.92000 430.635
23.96000 422.015
24.00000 436.161
24.04000 428.176
24.08000 423.241
24.12000 421.803
24.16000 431.662
24.20000 414.094
24.24000 402.547
24.28000 425.257
24.32000 424.598
24.36000 412.549
24.40000 418.831
24.44000 408.476
24.48000 407.290
24.52000 424.723
24.56000 391.202
24.60000 424.312
24.64000 415.205
24.68000 421.583
24.72000 409.728
24.76000 406.239
24.80000 426.319
24.84000 403.326
24.88000 412.680
24.92000 417.578
24.96000 421.869
25.00000 403.819
25.04000 413.127
25.08000 403.505
25.12000 414.925
25.16000 417.937
25.20000 432.657
25.24000 411.871
25.28000 409.770
25.32000 394.077
25.36000 404.632
25.40000 408.031
25.44000 413.800
25.48000 418.465
25.52000 397.262
25.56000 392.872
25.60000 400.298
25.64000 395.527
25.68000 390.852
25.72000 397.439
25.76000 396.664
25.80000 402.813
25.84000 400.556
25.88000 403.781
25.92000 403.058
25.96000 391.423
26.00000 408.728
26.04000 402.819
26.08000 401.511
26.12000 403.689
26.16000 387.869
26.20000 383.820
26.24000 409.062
26.28000 407.638
26.32000 396.539
26.36000 407.791
26.40000 402.817
26.44000 410.486
26.48000 388.816
26.52000 392.534
26.56000 373.258
26.60000 394.575
26.64000 410.141
26.68000 393.161
26.72000 390.599
26.76000 397.436
26.80000 389.458
26.84000 390.932
26.88000 375.581
26.92000 393.560
26.96000 369.788
27.00000 380.391
27.04000 374.349
27.08000 375.769
27.12000 385.515
27.16000 373.658
27.20000 381.426
27.24000 367.837
27.28000 372.878
27.32000 379.474
27.36000 380.516
27.40000 380.958
27.44000 381.155
27.48000 373.822
27.52000 373.790
27.56000 373.780
27.60000 373.819
27.64000 378.928
27.68000 395.127
27.72000 373.222
27.76000 362.608
27.80000 383.096
27.84000 376.155
27.88000 371.709
27.92000 367.122
27.96000 365.822
28.00000 370.133
28.04000 379.469
28.08000 362.346
28.12000 380.485
28.16000 383.156
28.20000 375.915
28.24000 378.779
28.28000 377.929
28.32000 376.619
28.36000 375.162
28.40000 377.087
28.44000 386.187
28.48000 381.035
28.52000 372.016
28.56000 360.472
28.60000 363.845
28.64000 364.270
28.68000 362.548
28.72000 347.775
28.76000 375.459
28.80000 363.712
28.84000 381.028
28.88000 350.438
28.92000 361.704
28.96000 371.998
29.00000 371.724
29.04000 360.325
29.08000 355.476
29.12000 346.341
29.16000 351.964
29.20000 358.280
29.24000 360.058
29.28000 377.101
29.32000 366.475
29.36000 365.841
29.40000 357.619
29.44000 370.438
29.48000 354.632
29.52000 369.418
29.56000 355.870
29.60000 368.836
29.64000 343.224
29.68000 370.717
29.72000 368.517
29.76000 349.735
29.80000 387.486
29.84000 394.451
29.88000 405.014
29.92000 431.099
29.96000 439.333
30.00000 440.581
30.04000 453.661
30.08000 460.555
30.12000 455.671
30.16000 436.740
30.20000 460.497
30.24000 433.010
30.28000 394.643
30.32000 396.116
30.36000 407.549
30.40000 405.214
30.44000 393.080
30.48000 390.273
30.52000 400.367
30.56000 394.760
30.60000 393.425
30.64000 402.147
30.68000 398.646
30.72000 405.503
30.76000 410.508
30.80000 415.896
30.84000 443.299
30.88000 442.456
30.92000 452.748
30.96000 477.180
31.00000 503.565
31.04000 572.871
31.08000 609.228
31.12000 742.702
31.16000 905.602
31.20000 1178.205
31.24000 1479.109
31.28000 1952.230
31.32000 2339.766
31.36000 2724.250
31.40000 2882.397
31.44000 2916.635
31.48000 2728.103
31.52000 2389.098
31.56000 1995.074
31.60000 1621.691
31.64000 1261.892
31.68000 1000.363
31.72000 842.933
31.76000 721.504
31.80000 603.839
31.84000 543.504
31.88000 491.436
31.92000 441.666
31.96000 400.587
32.00000 393.999
32.04000 382.548
32.08000 376.015
32.12000 363.569
32.16000 348.814
32.20000 368.004
32.24000 354.189
32.28000 356.938
32.32000 339.528
32.36000 354.357
32.40000 342.807
32.44000 344.265
32.48000 330.776
32.52000 335.045
32.56000 334.866
32.60000 349.934
32.64000 326.352
32.68000 330.435
32.72000 337.499
32.76000 335.158
32.80000 339.756
32.84000 333.820
32.88000 329.868
32.92000 326.136
32.96000 322.528
33.00000 307.418
33.04000 312.403
33.08000 306.859
33.12000 314.477
33.16000 318.661
33.20000 317.797
33.24000 301.007
33.28000 310.207
33.32000 280.525
33.36000 301.412
33.40000 308.384
33.44000 301.586
33.48000 285.433
33.52000 303.166
33.56000 290.676
33.60000 295.957
33.64000 297.268
33.68000 301.531
33.72000 315.656
33.76000 296.467
33.80000 300.427
33.84000 296.495
33.88000 292.567
33.92000 299.091
33.96000 297.534
34.00000 282.808
34.04000 283.710
34.08000 310.695
34.12000 303.829
34.16000 280.221
34.20000 286.955
34.24000 291.955
34.28000 279.173
34.32000 286.800
34.36000 282.083
34.40000 284.007
34.44000 288.611
34.48000 285.806
34.52000 303.508
34.56000 290.362
34.60000 285.709
34.64000 285.198
34.68000 303.419
34.72000 276.789
34.76000 287.656
34.80000 282.598
34.84000 292.811
34.88000 271.260
34.92000 271.539
34.96000 260.543
35.00000 277.401
35.04000 278.968
35.08000 281.475
35.12000 271.784
35.16000 278.479
35.20000 281.233
35.24000 271.067
35.28000 279.799
35.32000 271.883
35.36000 287.399
35.40000 278.464
35.44000 268.427
35.48000 261.790
35.52000 261.074
35.56000 256.305
35.60000 284.389
35.64000 270.792
35.68000 265.095
35.72000 284.778
35.76000 282.046
35.80000 267.059
35.84000 269.684
35.88000 270.717
35.92000 281.350
35.96000 280.897
36.00000 277.025
36.04000 267.560
36.08000 261.957
36.12000 254.597
36.16000 269.937
36.20000 263.702
36.24000 257.669
36.28000 274.760
36.32000 281.689
36.36000 264.428
36.40000 259.791
36.44000 256.820
36.48000 263.567
36.52000 248.413
36.56000 262.200
36.60000 269.193
36.64000 264.111
36.68000 254.089
36.72000 264.655
36.76000 273.391
36.80000 275.322
36.84000 272.015
36.88000 262.089
36.92000 270.405
36.96000 282.831
37.00000 270.248
37.04000 279.155
37.08000 287.989
37.12000 276.829
37.16000 281.290
37.20000 267.263
37.24000 281.214
37.28000 278.360
37.32000 271.320
37.36000 275.007
37.40000 259.863
37.44000 276.930
37.48000 274.732
37.52000 261.763
37.56000 254.322
37.60000 270.009
37.64000 258.153
37.68000 244.171
37.72000 267.431
37.76000 271.925
37.80000 259.719
37.84000 261.388
37.88000 268.148
37.92000 263.688
37.96000 265.191
38.00000 256.695
38.04000 260.105
38.08000 269.118
38.12000 272.225
38.16000 281.606
38.20000 292.759
38.24000 281.103
38.28000 285.863
38.32000 299.344
38.36000 320.975
38.40000 343.490
38.44000 367.899
38.48000 406.984
38.52000 484.968
38.56000 601.148
38.60000 735.193
38.64000 871.121
38.68000 1002.339
38.72000 1044.754
38.76000 1040.941
38.80000 995.051
38.84000 877.865
38.88000 734.658
38.92000 584.097
38.96000 480.373
39.00000 416.797
39.04000 372.252
39.08000 320.941
39.12000 308.757
39.16000 283.215
39.20000 281.967
39.24000 264.915
39.28000 256.390
39.32000 248.739
39.36000 243.784
39.40000 248.609
39.44000 249.438
39.48000 226.390
39.52000 236.000
39.56000 235.475
39.60000 236.659
39.64000 233.274
39.68000 252.463
39.72000 243.277
39.76000 225.818
39.80000 239.224
39.84000 237.179
39.88000 231.588
39.92000 236.663
39.96000 254.594
40.00000 233.544
40.04000 215.738
40.08000 231.839
40.12000 227.366
40.16000 229.698
40.20000 213.672
40.24000 229.694
40.28000 235.896
40.32000 210.132
40.36000 240.546
40.40000 217.509
40.44000 224.683
40.48000 241.660
40.52000 224.039
40.56000 207.295
40.60000 211.958
40.64000 230.844
40.68000 234.724
40.72000 224.937
40.76000 222.634
40.80000 234.789
40.84000 219.052
40.88000 224.297
40.92000 214.707
40.96000 205.812
41.00000 208.721
41.04000 231.449
41.08000 216.257
41.12000 217.916
41.16000 218.426
41.20000 217.174
41.24000 214.065
41.28000 217.265
41.32000 201.245
41.36000 211.181
41.40000 210.814
41.44000 199.195
41.48000 214.820
41.52000 222.886
41.56000 212.102
41.60000 220.442
41.64000 211.705
41.68000 207.172
41.72000 212.111
41.76000 217.491
41.80000 213.534
41.84000 206.340
41.88000 208.624
41.92000 207.951
41.96000 223.218
42.00000 198.300
42.04000 217.707
42.08000 200.842
42.12000 209.999
42.16000 199.528
42.20000 205.469
42.24000 203.440
42.28000 211.695
42.32000 206.179
42.36000 190.838
42.40000 206.399
42.44000 201.351
42.48000 221.512
42.52000 207.489
42.56000 197.840
42.60000 215.090
42.64000 206.685
42.68000 203.601
42.72000 197.874
42.76000 200.517
42.80000 209.145
42.84000 198.666
42.88000 187.255
42.92000 192.248
42.96000 208.645
43.00000 205.024
43.04000 208.488
43.08000 210.878
43.12000 200.883
43.16000 204.541
43.20000 200.869
43.24000 204.156
43.28000 197.264
43.32000 195.040
43.36000 199.144
43.40000 196.808
43.44000 205.967
43.48000 206.747
43.52000 198.002
43.56000 206.427
43.60000 186.185
43.64000 204.013
43.68000 203.770
43.72000 193.157
43.76000 192.195
43.80000 195.766
43.84000 190.389
43.88000 186.989
43.92000 190.738
43.96000 193.748
44.00000 196.301
44.04000 202.111
44.08000 200.732
44.12000 189.857
44.16000 193.777
44.20000 194.857
44.24000 199.152
44.28000 196.917
44.32000 195.490
44.36000 188.150
44.40000 201.460
44.44000 199.567
44.48000 194.997
44.52000 205.724
44.56000 214.492
44.60000 202.627
44.64000 210.037
44.68000 212.727
44.72000 221.636
44.76000 227.056
44.80000 237.484
44.84000 246.609
44.88000 250.248
44.92000 278.864
44.96000 292.982
45.00000 297.923
45.04000 319.028
45.08000 331.909
45.12000 334.309
45.16000 339.725
45.20000 328.471
45.24000 337.300
45.28000 303.083
45.32000 303.428
45.36000 291.471
45.40000 279.440
45.44000 271.207
45.48000 242.210
45.52000 241.952
45.56000 239.716
45.60000 233.696
45.64000 224.496
45.68000 224.241
45.72000 219.421
45.76000 206.062
45.80000 221.167
45.84000 206.778
45.88000 191.463
45.92000 191.733
45.96000 193.596
46.00000 199.268
46.04000 191.119
46.08000 191.777
46.12000 187.481
46.16000 187.575
46.20000 176.355
46.24000 183.880
46.28000 184.762
46.32000 188.556
46.36000 183.019
46.40000 167.940
46.44000 178.849
46.48000 177.611
46.52000 166.709
46.56000 177.864
46.60000 181.565
46.64000 183.432
46.68000 177.301
46.72000 181.363
46.76000 180.489
46.80000 179.284
46.84000 161.582
46.88000 162.051
46.92000 172.491
46.96000 169.857
47.00000 180.375
47.04000 177.580
47.08000 177.754
47.12000 181.195
47.16000 183.886
47.20000 177.288
47.24000 174.372
47.28000 164.472
47.32000 181.778
47.36000 172.336
47.40000 165.401
47.44000 165.657
47.48000 164.117
47.52000 179.807
47.56000 168.910
47.60000 162.373
47.64000 163.499
47.68000 161.654
47.72000 166.424
47.76000 149.801
47.80000 163.750
47.84000 159.421
47.88000 172.728
47.92000 157.039
47.96000 162.162
48.00000 161.429
48.04000 168.489
48.08000 156.807
48.12000 161.635
48.16000 165.742
48.20000 154.721
48.24000 157.791
48.28000 164.093
48.32000 160.720
48.36000 149.567
48.40000 161.680
48.44000 161.383
48.48000 160.912
48.52000 164.569
48.56000 158.949
48.60000 162.840
48.64000 156.664
48.68000 179.817
48.72000 159.497
48.76000 165.507
48.80000 166.165
48.84000 163.736
48.88000 162.792
48.92000 169.296
48.96000 166.849
49.00000 163.758
49.04000 157.852
49.08000 160.056
49.12000 155.444
49.16000 155.914
49.20000 164.065
49.24000 157.861
49.28000 156.967
49.32000 162.267
49.36000 155.173
49.40000 148.703
49.44000 149.694
49.48000 159.684
49.52000 149.211
49.56000 148.503
49.60000 151.062
49.64000 162.563
49.68000 147.038
49.72000 157.506
49.76000 151.399
49.80000 154.154
49.84000 156.045
49.88000 160.347
49.92000 155.844
49.96000 155.986
50.00000 148.075
50.04000 153.883
50.08000 152.189
50.12000 158.972
50.16000 147.399
50.20000 165.422
50.24000 161.316
50.28000 165.129
50.32000 163.155
50.36000 168.461
50.40000 158.181
50.44000 169.685
50.48000 162.685
50.52000 184.412
50.56000 196.049
50.60000 216.191
50.64000 226.779
50.68000 235.969
50.72000 238.134
50.76000 234.961
50.80000 245.501
50.84000 222.976
50.88000 228.603
50.92000 212.194
50.96000 201.134
51.00000 191.551
51.04000 181.610
51.08000 182.795
51.12000 176.165
51.16000 162.684
51.20000 170.969
51.24000 169.237
51.28000 163.807
51.32000 151.697
51.36000 158.106
51.40000 145.282
51.44000 151.226
51.48000 151.828
51.52000 139.709
51.56000 146.198
51.60000 151.591
51.64000 151.911
51.68000 154.211
51.72000 153.159
51.76000 143.582
51.80000 155.213
51.84000 139.305
51.88000 145.481
51.92000 134.808
51.96000 151.721
52.00000 146.855
52.04000 144.688
52.08000 155.040
52.12000 126.669
52.16000 138.835
52.20000 142.808
52.24000 143.291
52.28000 144.988
52.32000 134.314
52.36000 140.758
52.40000 143.815
52.44000 139.787
52.48000 145.053
52.52000 136.970
52.56000 145.340
52.60000 141.795
52.64000 146.129
52.68000 137.348
52.72000 144.714
52.76000 137.307
52.80000 142.849
52.84000 143.572
52.88000 134.696
52.92000 144.024
52.96000 148.217
53.00000 143.868
53.04000 133.222
53.08000 137.947
53.12000 140.103
53.16000 145.513
53.20000 135.943
53.24000 149.157
53.28000 146.314
53.32000 151.443
53.36000 144.075
53.40000 154.473
53.44000 157.327
53.48000 156.159
53.52000 151.004
53.56000 154.859
53.60000 148.775
53.64000 155.148
53.68000 146.261
53.72000 151.984
53.76000 146.156
53.80000 135.725
53.84000 146.077
53.88000 145.091
53.92000 151.654
53.96000 144.544
54.00000 140.366
54.04000 135.834
54.08000 145.903
54.12000 144.169
54.16000 144.264
54.20000 136.995
54.24000 138.261
54.28000 138.500
54.32000 135.710
54.36000 132.859
54.40000 139.707
54.44000 145.045
54.48000 136.278
54.52000 135.666
54.56000 131.292
54.60000 139.893
54.64000 141.350
54.68000 140.973
54.72000 137.706
54.76000 137.656
54.80000 141.462
54.84000 137.468
54.88000 133.735
54.92000 135.727
54.96000 144.829
55.00000 140.571
55.04000 137.199
55.08000 147.407
55.12000 142.007
55.16000 147.358
55.20000 146.443
55.24000 136.428
55.28000 148.498
55.32000 152.915
55.36000 162.426
55.40000 166.274
55.44000 162.086
55.48000 170.265
55.52000 174.270
55.56000 182.284
55.60000 202.038
55.64000 211.423
55.68000 234.132
55.72000 273.883
55.76000 326.736
55.80000 372.856
55.84000 442.738
55.88000 475.145
55.92000 549.100
55.96000 579.471
56.00000 606.773
56.04000 566.456
56.08000 535.840
56.12000 491.316
56.16000 435.418
56.20000 390.663
56.24000 360.011
56.28000 312.182
56.32000 264.545
56.36000 239.491
56.40000 226.396
56.44000 216.584
56.48000 203.285
56.52000 191.513
56.56000 168.749
56.60000 169.031
56.64000 156.485
56.68000 166.126
56.72000 155.174
56.76000 144.751
56.80000 144.856
56.84000 146.236
56.88000 140.335
56.92000 148.436
56.96000 138.350
57.00000 136.730
57.04000 133.587
57.08000 127.875
57.12000 129.796
57.16000 134.454
57.20000 140.665
57.24000 132.159
57.28000 131.090
57.32000 123.380
57.36000 125.977
57.40000 128.796
57.44000 122.270
57.48000 137.465
57.52000 138.075
57.56000 138.116
57.60000 124.643
57.64000 129.475
57.68000 125.816
57.72000 128.535
57.76000 132.891
57.80000 128.844
57.84000 120.257
57.88000 121.870
57.92000 128.919
57.96000 119.114
58.00000 124.539
58.04000 124.854
58.08000 134.256
58.12000 128.674
58.16000 112.191
58.20000 121.933
58.24000 132.680
58.28000 122.579
58.32000 121.948
58.36000 123.342
58.40000 124.465
58.44000 127.634
58.48000 125.080
58.52000 127.462
58.56000 117.572
58.60000 128.658
58.64000 130.004
58.68000 119.019
58.72000 121.611
58.76000 125.697
58.80000 118.744
58.84000 117.584
58.88000 121.998
58.92000 126.075
58.96000 113.584
59.00000 127.522
59.04000 118.319
59.08000 127.612
59.12000 124.444
59.16000 119.751
59.20000 124.491
59.24000 117.550
59.28000 113.538
59.32000 121.858
59.36000 126.516
59.40000 116.997
59.44000 121.967
59.48000 122.139
59.52000 121.927
59.56000 109.306
59.60000 118.104
59.64000 119.052
59.68000 109.794
59.72000 120.572
59.76000 113.477
59.80000 117.887
59.84000 117.531
59.88000 115.832
59.92000 126.283
59.96000 123.369
60.00000 112.426
60.04000 124.209
60.08000 117.906
60.12000 104.290
60.16000 112.742
60.20000 107.777
60.24000 109.969
60.28000 113.497
60.32000 122.607
60.36000 121.759
60.40000 121.620
60.44000 118.173
60.48000 122.911
60.52000 118.215
60.56000 117.030
60.60000 123.644
60.64000 136.296
60.68000 120.181
60.72000 113.057
60.76000 115.679
60.80000 114.190
60.84000 125.512
60.88000 123.408
60.92000 122.711
60.96000 121.323
61.00000 120.938
61.04000 119.330
61.08000 113.600
61.12000 119.033
61.16000 117.877
61.20000 131.644
61.24000 132.821
61.28000 119.683
61.32000 123.070
61.36000 125.052
61.40000 128.545
61.44000 144.582
61.48000 135.480
61.52000 180.331
61.56000 238.986
61.60000 321.710
61.64000 358.400
61.68000 387.255
61.72000 381.092
61.76000 359.232
61.80000 261.262
61.84000 201.092
61.88000 154.163
61.92000 158.906
61.96000 148.592
62.00000 137.899
62.04000 131.476
62.08000 125.738
62.12000 133.287
62.16000 129.473
62.20000 127.965
62.24000 122.143
62.28000 126.129
62.32000 128.461
62.36000 127.026
62.40000 131.883
62.44000 128.991
62.48000 127.974
62.52000 134.005
62.56000 141.745
62.60000 137.399
62.64000 149.183
62.68000 139.719
62.72000 140.851
62.76000 123.715
62.80000 126.497
62.84000 137.966
62.88000 137.298
62.92000 141.753
62.96000 133.288
63.00000 135.388
63.04000 140.313
63.08000 145.189
63.12000 153.290
63.16000 147.246
63.20000 133.122
63.24000 145.264
63.28000 147.067
63.32000 130.569
63.36000 126.183
63.40000 130.372
63.44000 135.040
63.48000 141.615
63.52000 144.099
63.56000 149.800
63.60000 148.767
63.64000 146.419
63.68000 144.154
63.72000 154.039
63.76000 141.658
63.80000 148.129
63.84000 157.657
63.88000 145.039
63.92000 151.333
63.96000 144.701
64.00000 142.387
64.04000 149.726
64.08000 154.553
64.12000 160.072
64.16000 156.894
64.20000 152.732
64.24000 163.922
64.28000 154.391
64.32000 166.401
64.36000 163.203
64.40000 160.905
64.44000 174.107
64.48000 170.050
64.52000 164.133
64.56000 175.027
64.60000 178.567
64.64000 174.970
64.68000 181.834
64.72000 175.763
64.76000 184.500
64.80000 190.694
64.84000 186.760
64.88000 190.347
64.92000 193.361
64.96000 197.741
65.00000 202.695
65.04000 211.870
65.08000 209.414
65.12000 218.552
65.16000 221.986
65.20000 244.159
65.24000 254.394
65.28000 269.700
65.32000 279.695
65.36000 302.975
65.40000 338.095
65.44000 359.569
65.48000 396.993
65.52000 433.130
65.56000 500.472
65.60000 557.674
65.64000 652.664
65.68000 916.097
65.72000 1404.613
65.76000 2038.739
65.80000 2596.125
65.84000 2836.996
65.88000 2847.542
65.92000 2661.264
65.96000 2136.017
66.00000 1417.283
66.04000 858.808
66.08000 634.344
66.12000 525.318
66.16000 472.762
66.20000 487.809
66.24000 498.376
66.28000 596.414
66.32000 717.659
66.36000 793.497
66.40000 827.144
66.44000 863.511
66.48000 799.980
66.52000 687.042
66.56000 568.548
66.60000 488.383
66.64000 438.311
66.68000 413.713
66.72000 417.035
66.76000 433.569
66.80000 422.172
66.84000 420.023
66.88000 446.420
66.92000 434.622
66.96000 440.780
67.00000 437.962
67.04000 430.445
67.08000 439.477
67.12000 458.048
67.16000 469.093
67.20000 468.040
67.24000 463.404
67.28000 475.510
67.32000 477.062
67.36000 483.496
67.40000 497.077
67.44000 492.099
67.48000 493.310
67.52000 496.140
67.56000 509.747
67.60000 519.054
67.64000 523.938
67.68000 526.497
67.72000 552.535
67.76000 538.197
67.80000 567.674
67.84000 563.740
67.88000 578.417
67.92000 563.979
67.96000 587.476
68.00000 610.148
68.04000 603.025
68.08000 624.367
68.12000 617.958
68.16000 653.175
68.20000 668.996
68.24000 654.516
68.28000 703.285
68.32000 718.016
68.36000 711.455
68.40000 748.466
68.44000 796.352
68.48000 819.225
68.52000 863.980
68.56000 970.872
68.60000 1092.009
68.64000 1279.365
68.68000 1507.031
68.72000 1760.896
68.76000 2051.256
68.80000 2349.185
68.84000 2774.902
68.88000 3644.900
68.92000 6431.697
68.96000 15192.036
69.00000 33748.020
69.04000 52787.246
69.08000 63096.938
69.12000 67363.648
69.16000 71315.320
69.20000 69052.031
69.24000 55749.063
69.28000 42596.391
69.32000 34511.883
69.36000 31885.309
69.40000 25918.072
69.44000 15598.898
69.48000 7101.820
69.52000 3133.985
69.56000 1843.367
69.60000 1416.037
69.64000 1178.304
69.68000 1024.114
69.72000 888.828
69.76000 819.099
69.80000 778.385
69.84000 706.437
69.88000 666.036
69.92000 626.393
69.96000 594.278
70.00000 597.663