File: XRD/09-10-2025 Dep 8/XY Data/BTO_Mapping_Theta2Theta_09-10-2025_001_50_3-090_-9-511.xy
20.00000 498.276
20.04000 489.174
20.08000 489.080
20.12000 476.060
20.16000 475.845
20.20000 483.004
20.24000 483.011
20.28000 508.169
20.32000 484.324
20.36000 489.301
20.40000 488.960
20.44000 488.144
20.48000 480.255
20.52000 478.873
20.56000 485.024
20.60000 461.162
20.64000 480.765
20.68000 486.986
20.72000 505.969
20.76000 475.439
20.80000 494.737
20.84000 483.101
20.88000 480.934
20.92000 491.755
20.96000 482.033
21.00000 498.514
21.04000 477.916
21.08000 490.771
21.12000 484.359
21.16000 472.127
21.20000 467.589
21.24000 503.980
21.28000 473.190
21.32000 487.868
21.36000 480.033
21.40000 497.800
21.44000 467.325
21.48000 476.122
21.52000 490.844
21.56000 492.957
21.60000 495.978
21.64000 473.254
21.68000 488.679
21.72000 490.265
21.76000 506.849
21.80000 518.788
21.84000 530.795
21.88000 556.721
21.92000 570.076
21.96000 597.224
22.00000 625.391
22.04000 636.205
22.08000 642.687
22.12000 643.548
22.16000 637.283
22.20000 625.966
22.24000 596.089
22.28000 584.418
22.32000 564.813
22.36000 531.664
22.40000 523.369
22.44000 502.439
22.48000 503.058
22.52000 470.816
22.56000 468.300
22.60000 477.382
22.64000 459.851
22.68000 465.145
22.72000 471.021
22.76000 464.616
22.80000 452.917
22.84000 442.098
22.88000 450.744
22.92000 442.252
22.96000 447.073
23.00000 422.694
23.04000 430.227
23.08000 428.778
23.12000 452.683
23.16000 442.394
23.20000 434.665
23.24000 443.765
23.28000 444.341
23.32000 448.296
23.36000 432.599
23.40000 426.524
23.44000 431.189
23.48000 448.328
23.52000 439.229
23.56000 425.986
23.60000 437.787
23.64000 444.894
23.68000 431.185
23.72000 442.205
23.76000 432.534
23.80000 417.579
23.84000 419.718
23.88000 438.831
23.92000 432.351
23.96000 435.406
24.00000 438.721
24.04000 427.779
24.08000 428.344
24.12000 433.928
24.16000 421.896
24.20000 421.689
24.24000 431.662
24.28000 426.369
24.32000 423.861
24.36000 422.659
24.40000 420.394
24.44000 414.573
24.48000 427.407
24.52000 422.541
24.56000 420.502
24.60000 419.664
24.64000 425.415
24.68000 418.855
24.72000 411.872
24.76000 419.671
24.80000 431.804
24.84000 434.263
24.88000 410.648
24.92000 425.092
24.96000 431.772
25.00000 421.081
25.04000 406.964
25.08000 425.152
25.12000 418.132
25.16000 408.040
25.20000 406.734
25.24000 400.834
25.28000 416.624
25.32000 403.558
25.36000 398.842
25.40000 420.580
25.44000 392.350
25.48000 381.511
25.52000 411.857
25.56000 401.823
25.60000 413.533
25.64000 401.386
25.68000 405.641
25.72000 406.767
25.76000 397.243
25.80000 404.121
25.84000 415.496
25.88000 403.644
25.92000 413.996
25.96000 403.514
26.00000 408.334
26.04000 394.460
26.08000 389.981
26.12000 396.070
26.16000 407.305
26.20000 386.532
26.24000 413.003
26.28000 389.284
26.32000 398.697
26.36000 401.084
26.40000 395.585
26.44000 383.030
26.48000 394.480
26.52000 381.484
26.56000 380.429
26.60000 388.923
26.64000 393.036
26.68000 387.602
26.72000 384.170
26.76000 397.159
26.80000 395.426
26.84000 371.295
26.88000 404.089
26.92000 392.752
26.96000 392.136
27.00000 377.019
27.04000 369.124
27.08000 412.776
27.12000 380.646
27.16000 379.117
27.20000 380.656
27.24000 389.073
27.28000 382.759
27.32000 367.857
27.36000 367.787
27.40000 384.843
27.44000 383.963
27.48000 386.907
27.52000 400.513
27.56000 373.946
27.60000 371.887
27.64000 364.769
27.68000 381.599
27.72000 376.970
27.76000 385.251
27.80000 394.301
27.84000 369.514
27.88000 375.773
27.92000 370.585
27.96000 377.956
28.00000 363.309
28.04000 385.786
28.08000 370.975
28.12000 371.588
28.16000 375.163
28.20000 380.826
28.24000 384.768
28.28000 384.118
28.32000 384.798
28.36000 380.652
28.40000 381.967
28.44000 375.986
28.48000 373.792
28.52000 365.226
28.56000 379.337
28.60000 381.121
28.64000 378.042
28.68000 364.934
28.72000 368.771
28.76000 374.892
28.80000 356.539
28.84000 356.153
28.88000 360.120
28.92000 375.498
28.96000 384.931
29.00000 363.435
29.04000 371.389
29.08000 387.674
29.12000 370.367
29.16000 372.633
29.20000 372.249
29.24000 360.149
29.28000 360.816
29.32000 367.118
29.36000 370.289
29.40000 364.981
29.44000 369.616
29.48000 357.262
29.52000 362.711
29.56000 376.583
29.60000 364.147
29.64000 376.101
29.68000 366.655
29.72000 382.761
29.76000 391.239
29.80000 371.557
29.84000 387.864
29.88000 407.897
29.92000 430.692
29.96000 451.986
30.00000 474.107
30.04000 464.422
30.08000 462.369
30.12000 457.111
30.16000 445.651
30.20000 446.778
30.24000 411.732
30.28000 388.352
30.32000 401.460
30.36000 400.491
30.40000 416.662
30.44000 404.155
30.48000 391.623
30.52000 416.170
30.56000 402.223
30.60000 400.846
30.64000 406.326
30.68000 420.715
30.72000 435.376
30.76000 420.352
30.80000 438.490
30.84000 451.473
30.88000 455.324
30.92000 499.577
30.96000 506.722
31.00000 570.167
31.04000 606.801
31.08000 726.643
31.12000 911.041
31.16000 1094.488
31.20000 1435.773
31.24000 1775.503
31.28000 2349.262
31.32000 2760.382
31.36000 3100.469
31.40000 3224.890
31.44000 3169.688
31.48000 2823.794
31.52000 2401.846
31.56000 1931.682
31.60000 1521.156
31.64000 1120.170
31.68000 940.157
31.72000 792.511
31.76000 669.279
31.80000 563.266
31.84000 517.478
31.88000 467.762
31.92000 445.433
31.96000 423.209
32.00000 416.354
32.04000 389.217
32.08000 376.816
32.12000 382.494
32.16000 376.166
32.20000 369.360
32.24000 350.920
32.28000 362.673
32.32000 352.035
32.36000 345.565
32.40000 340.232
32.44000 347.761
32.48000 316.790
32.52000 345.329
32.56000 335.809
32.60000 344.901
32.64000 343.002
32.68000 325.797
32.72000 352.610
32.76000 334.701
32.80000 315.013
32.84000 328.753
32.88000 327.066
32.92000 323.729
32.96000 320.323
33.00000 311.580
33.04000 313.719
33.08000 321.649
33.12000 320.658
33.16000 311.434
33.20000 314.383
33.24000 301.966
33.28000 304.794
33.32000 300.214
33.36000 305.379
33.40000 316.399
33.44000 286.185
33.48000 300.946
33.52000 289.955
33.56000 295.057
33.60000 293.021
33.64000 299.098
33.68000 302.663
33.72000 301.898
33.76000 318.332
33.80000 303.230
33.84000 296.496
33.88000 299.261
33.92000 298.570
33.96000 291.516
34.00000 299.543
34.04000 281.692
34.08000 290.579
34.12000 309.416
34.16000 281.179
34.20000 285.730
34.24000 290.113
34.28000 300.670
34.32000 299.467
34.36000 286.293
34.40000 279.894
34.44000 293.595
34.48000 277.199
34.52000 291.159
34.56000 284.918
34.60000 275.104
34.64000 281.364
34.68000 284.239
34.72000 293.190
34.76000 282.362
34.80000 285.110
34.84000 278.375
34.88000 275.588
34.92000 291.817
34.96000 308.120
35.00000 277.079
35.04000 280.058
35.08000 265.148
35.12000 279.922
35.16000 279.981
35.20000 278.268
35.24000 270.865
35.28000 269.062
35.32000 257.447
35.36000 261.888
35.40000 280.592
35.44000 269.165
35.48000 274.365
35.52000 276.105
35.56000 266.519
35.60000 275.233
35.64000 259.683
35.68000 271.337
35.72000 266.702
35.76000 254.383
35.80000 284.186
35.84000 278.204
35.88000 266.471
35.92000 267.220
35.96000 274.034
36.00000 269.117
36.04000 263.642
36.08000 264.561
36.12000 261.428
36.16000 267.720
36.20000 262.888
36.24000 265.896
36.28000 272.241
36.32000 265.616
36.36000 267.361
36.40000 256.451
36.44000 263.091
36.48000 265.033
36.52000 262.568
36.56000 278.077
36.60000 262.434
36.64000 270.105
36.68000 262.388
36.72000 282.281
36.76000 269.096
36.80000 265.128
36.84000 292.059
36.88000 294.376
36.92000 274.651
36.96000 273.729
37.00000 285.113
37.04000 288.162
37.08000 288.488
37.12000 297.024
37.16000 279.541
37.20000 285.658
37.24000 270.000
37.28000 256.192
37.32000 273.244
37.36000 273.061
37.40000 262.378
37.44000 272.772
37.48000 255.824
37.52000 276.773
37.56000 277.710
37.60000 277.293
37.64000 269.270
37.68000 258.767
37.72000 265.771
37.76000 258.701
37.80000 265.625
37.84000 261.325
37.88000 259.785
37.92000 270.140
37.96000 277.883
38.00000 257.286
38.04000 270.590
38.08000 272.178
38.12000 272.664
38.16000 262.059
38.20000 288.049
38.24000 291.423
38.28000 305.221
38.32000 313.320
38.36000 319.988
38.40000 359.080
38.44000 383.631
38.48000 439.926
38.52000 548.624
38.56000 663.389
38.60000 812.412
38.64000 941.025
38.68000 1046.747
38.72000 1132.078
38.76000 1076.404
38.80000 1022.196
38.84000 874.132
38.88000 737.658
38.92000 597.786
38.96000 481.732
39.00000 386.058
39.04000 354.254
39.08000 329.179
39.12000 301.867
39.16000 280.401
39.20000 258.188
39.24000 273.212
39.28000 266.177
39.32000 273.766
39.36000 252.680
39.40000 256.474
39.44000 255.562
39.48000 242.404
39.52000 240.936
39.56000 242.296
39.60000 247.678
39.64000 232.801
39.68000 241.493
39.72000 239.816
39.76000 253.551
39.80000 238.543
39.84000 228.050
39.88000 236.190
39.92000 239.527
39.96000 251.057
40.00000 228.337
40.04000 239.196
40.08000 233.165
40.12000 219.833
40.16000 225.301
40.20000 229.398
40.24000 241.492
40.28000 235.243
40.32000 234.096
40.36000 249.522
40.40000 229.787
40.44000 225.658
40.48000 236.177
40.52000 213.081
40.56000 216.915
40.60000 222.019
40.64000 221.125
40.68000 217.249
40.72000 216.190
40.76000 215.045
40.80000 224.138
40.84000 225.989
40.88000 211.307
40.92000 226.618
40.96000 231.327
41.00000 225.118
41.04000 217.618
41.08000 211.573
41.12000 203.638
41.16000 217.377
41.20000 225.713
41.24000 221.862
41.28000 212.088
41.32000 209.510
41.36000 224.401
41.40000 218.357
41.44000 227.921
41.48000 221.716
41.52000 211.469
41.56000 211.602
41.60000 211.529
41.64000 216.469
41.68000 220.429
41.72000 221.142
41.76000 212.537
41.80000 207.737
41.84000 214.352
41.88000 217.363
41.92000 222.696
41.96000 201.717
42.00000 206.300
42.04000 201.436
42.08000 204.717
42.12000 212.206
42.16000 216.654
42.20000 205.799
42.24000 209.754
42.28000 198.277
42.32000 207.703
42.36000 195.211
42.40000 205.277
42.44000 205.025
42.48000 199.128
42.52000 200.713
42.56000 210.446
42.60000 209.173
42.64000 218.028
42.68000 205.850
42.72000 204.407
42.76000 202.775
42.80000 209.680
42.84000 198.962
42.88000 205.861
42.92000 196.854
42.96000 190.623
43.00000 190.636
43.04000 207.740
43.08000 201.131
43.12000 198.869
43.16000 211.512
43.20000 204.116
43.24000 205.378
43.28000 213.580
43.32000 200.378
43.36000 207.261
43.40000 213.595
43.44000 200.446
43.48000 188.621
43.52000 213.329
43.56000 207.538
43.60000 199.751
43.64000 207.084
43.68000 200.384
43.72000 206.505
43.76000 197.014
43.80000 203.676
43.84000 203.564
43.88000 194.976
43.92000 186.816
43.96000 196.684
44.00000 200.177
44.04000 197.928
44.08000 207.588
44.12000 206.318
44.16000 206.144
44.20000 199.609
44.24000 199.135
44.28000 197.057
44.32000 211.047
44.36000 208.453
44.40000 205.891
44.44000 199.268
44.48000 212.002
44.52000 213.603
44.56000 209.394
44.60000 202.079
44.64000 211.823
44.68000 213.749
44.72000 215.912
44.76000 216.968
44.80000 229.795
44.84000 255.475
44.88000 260.633
44.92000 273.680
44.96000 297.322
45.00000 303.689
45.04000 310.601
45.08000 344.850
45.12000 340.216
45.16000 338.399
45.20000 343.298
45.24000 331.683
45.28000 326.513
45.32000 301.437
45.36000 294.917
45.40000 284.867
45.44000 265.579
45.48000 253.848
45.52000 258.081
45.56000 236.603
45.60000 239.007
45.64000 216.587
45.68000 230.077
45.72000 214.600
45.76000 218.653
45.80000 213.650
45.84000 201.500
45.88000 194.398
45.92000 199.911
45.96000 202.496
46.00000 197.018
46.04000 191.543
46.08000 193.686
46.12000 180.353
46.16000 187.660
46.20000 191.288
46.24000 186.984
46.28000 177.872
46.32000 177.088
46.36000 179.883
46.40000 179.730
46.44000 178.903
46.48000 169.821
46.52000 182.076
46.56000 173.521
46.60000 180.056
46.64000 180.112
46.68000 185.108
46.72000 173.495
46.76000 180.419
46.80000 177.473
46.84000 183.777
46.88000 175.302
46.92000 173.474
46.96000 182.945
47.00000 161.075
47.04000 164.730
47.08000 164.150
47.12000 181.125
47.16000 172.376
47.20000 169.457
47.24000 170.696
47.28000 171.428
47.32000 183.564
47.36000 156.666
47.40000 166.711
47.44000 170.597
47.48000 174.030
47.52000 171.100
47.56000 165.019
47.60000 163.057
47.64000 173.333
47.68000 164.120
47.72000 181.717
47.76000 164.638
47.80000 159.135
47.84000 160.873
47.88000 164.976
47.92000 159.213
47.96000 167.555
48.00000 154.121
48.04000 166.980
48.08000 178.249
48.12000 171.017
48.16000 164.606
48.20000 165.504
48.24000 156.586
48.28000 157.855
48.32000 181.456
48.36000 164.681
48.40000 170.413
48.44000 167.130
48.48000 163.659
48.52000 167.365
48.56000 160.673
48.60000 169.525
48.64000 162.401
48.68000 164.660
48.72000 164.205
48.76000 165.551
48.80000 156.937
48.84000 159.250
48.88000 158.664
48.92000 160.478
48.96000 164.357
49.00000 159.580
49.04000 162.982
49.08000 157.700
49.12000 159.674
49.16000 156.314
49.20000 161.951
49.24000 149.390
49.28000 160.377
49.32000 165.724
49.36000 158.922
49.40000 149.440
49.44000 149.629
49.48000 159.871
49.52000 160.103
49.56000 151.930
49.60000 158.567
49.64000 152.356
49.68000 160.803
49.72000 155.912
49.76000 153.577
49.80000 161.794
49.84000 151.321
49.88000 159.383
49.92000 160.557
49.96000 141.994
50.00000 154.623
50.04000 154.551
50.08000 159.411
50.12000 159.092
50.16000 156.299
50.20000 148.022
50.24000 160.775
50.28000 160.882
50.32000 169.126
50.36000 163.495
50.40000 177.894
50.44000 184.379
50.48000 185.553
50.52000 183.285
50.56000 196.519
50.60000 206.200
50.64000 227.292
50.68000 229.808
50.72000 230.123
50.76000 222.030
50.80000 235.020
50.84000 229.338
50.88000 229.782
50.92000 217.725
50.96000 187.701
51.00000 189.618
51.04000 184.768
51.08000 181.381
51.12000 179.183
51.16000 168.128
51.20000 165.821
51.24000 150.485
51.28000 154.567
51.32000 164.782
51.36000 159.234
51.40000 140.938
51.44000 156.837
51.48000 145.941
51.52000 149.359
51.56000 152.213
51.60000 151.893
51.64000 154.130
51.68000 150.991
51.72000 140.835
51.76000 144.204
51.80000 144.443
51.84000 133.869
51.88000 145.586
51.92000 141.995
51.96000 147.713
52.00000 153.237
52.04000 145.332
52.08000 151.253
52.12000 140.903
52.16000 145.203
52.20000 142.946
52.24000 139.139
52.28000 143.766
52.32000 136.947
52.36000 149.511
52.40000 140.745
52.44000 152.826
52.48000 139.820
52.52000 134.577
52.56000 138.236
52.60000 143.121
52.64000 146.380
52.68000 140.585
52.72000 137.765
52.76000 137.794
52.80000 144.244
52.84000 137.494
52.88000 137.392
52.92000 136.414
52.96000 132.886
53.00000 138.977
53.04000 130.246
53.08000 150.446
53.12000 143.533
53.16000 140.234
53.20000 149.081
53.24000 151.013
53.28000 154.472
53.32000 153.011
53.36000 151.195
53.40000 161.592
53.44000 164.263
53.48000 159.509
53.52000 152.012
53.56000 159.790
53.60000 139.046
53.64000 149.894
53.68000 139.270
53.72000 140.145
53.76000 145.088
53.80000 142.111
53.84000 153.620
53.88000 147.913
53.92000 143.178
53.96000 140.708
54.00000 134.427
54.04000 143.996
54.08000 146.021
54.12000 141.503
54.16000 138.240
54.20000 133.380
54.24000 140.468
54.28000 139.658
54.32000 132.751
54.36000 136.506
54.40000 133.634
54.44000 147.608
54.48000 148.885
54.52000 142.859
54.56000 139.092
54.60000 145.834
54.64000 136.385
54.68000 146.704
54.72000 134.895
54.76000 133.055
54.80000 134.204
54.84000 140.511
54.88000 139.880
54.92000 150.671
54.96000 134.550
55.00000 138.575
55.04000 148.943
55.08000 146.190
55.12000 153.172
55.16000 138.616
55.20000 139.366
55.24000 158.526
55.28000 152.398
55.32000 152.606
55.36000 147.868
55.40000 157.282
55.44000 168.392
55.48000 177.471
55.52000 174.077
55.56000 207.390
55.60000 205.070
55.64000 221.311
55.68000 264.816
55.72000 290.507
55.76000 328.153
55.80000 385.379
55.84000 453.087
55.88000 487.091
55.92000 543.268
55.96000 559.467
56.00000 558.109
56.04000 524.537
56.08000 517.010
56.12000 466.403
56.16000 434.774
56.20000 371.135
56.24000 326.261
56.28000 297.881
56.32000 255.085
56.36000 224.303
56.40000 216.939
56.44000 202.079
56.48000 181.458
56.52000 168.484
56.56000 156.149
56.60000 170.505
56.64000 156.571
56.68000 152.168
56.72000 160.333
56.76000 149.611
56.80000 143.392
56.84000 143.807
56.88000 142.528
56.92000 136.156
56.96000 140.724
57.00000 134.966
57.04000 136.027
57.08000 138.736
57.12000 121.311
57.16000 130.291
57.20000 137.366
57.24000 132.729
57.28000 118.786
57.32000 139.257
57.36000 130.949
57.40000 125.690
57.44000 127.896
57.48000 126.208
57.52000 128.120
57.56000 123.317
57.60000 133.701
57.64000 128.328
57.68000 131.406
57.72000 138.258
57.76000 124.553
57.80000 120.841
57.84000 122.984
57.88000 123.455
57.92000 125.106
57.96000 123.596
58.00000 118.909
58.04000 125.166
58.08000 121.265
58.12000 123.294
58.16000 128.051
58.20000 131.097
58.24000 122.337
58.28000 122.992
58.32000 119.362
58.36000 115.453
58.40000 127.318
58.44000 128.164
58.48000 124.587
58.52000 119.641
58.56000 118.793
58.60000 119.543
58.64000 130.363
58.68000 134.254
58.72000 121.615
58.76000 134.013
58.80000 124.842
58.84000 128.319
58.88000 107.259
58.92000 118.522
58.96000 122.427
59.00000 121.596
59.04000 128.443
59.08000 122.884
59.12000 124.356
59.16000 115.364
59.20000 129.526
59.24000 118.681
59.28000 114.838
59.32000 129.216
59.36000 122.614
59.40000 115.904
59.44000 120.156
59.48000 129.939
59.52000 121.388
59.56000 126.553
59.60000 122.604
59.64000 122.802
59.68000 122.354
59.72000 117.903
59.76000 117.649
59.80000 118.084
59.84000 123.699
59.88000 116.530
59.92000 123.183
59.96000 127.010
60.00000 123.515
60.04000 113.096
60.08000 115.080
60.12000 111.842
60.16000 122.537
60.20000 118.733
60.24000 125.252
60.28000 125.409
60.32000 118.090
60.36000 122.363
60.40000 108.373
60.44000 121.743
60.48000 120.043
60.52000 117.979
60.56000 119.173
60.60000 118.760
60.64000 114.059
60.68000 113.822
60.72000 117.025
60.76000 120.067
60.80000 127.104
60.84000 116.001
60.88000 120.277
60.92000 122.257
60.96000 110.314
61.00000 123.847
61.04000 120.021
61.08000 133.605
61.12000 133.351
61.16000 126.180
61.20000 121.806
61.24000 119.393
61.28000 127.734
61.32000 113.204
61.36000 125.743
61.40000 118.936
61.44000 131.445
61.48000 130.535
61.52000 173.769
61.56000 256.434
61.60000 316.108
61.64000 356.313
61.68000 356.770
61.72000 357.911
61.76000 342.253
61.80000 262.890
61.84000 191.832
61.88000 162.868
61.92000 142.882
61.96000 138.305
62.00000 141.403
62.04000 140.985
62.08000 148.872
62.12000 130.128
62.16000 131.818
62.20000 121.499
62.24000 129.171
62.28000 136.731
62.32000 138.188
62.36000 129.263
62.40000 140.010
62.44000 132.568
62.48000 138.809
62.52000 148.073
62.56000 134.538
62.60000 153.427
62.64000 134.316
62.68000 138.197
62.72000 138.386
62.76000 134.114
62.80000 139.861
62.84000 144.915
62.88000 135.215
62.92000 134.495
62.96000 148.023
63.00000 141.182
63.04000 136.308
63.08000 137.957
63.12000 133.014
63.16000 143.652
63.20000 150.347
63.24000 137.719
63.28000 139.759
63.32000 143.217
63.36000 140.497
63.40000 136.146
63.44000 145.246
63.48000 151.398
63.52000 139.643
63.56000 140.451
63.60000 150.286
63.64000 153.520
63.68000 134.185
63.72000 144.398
63.76000 146.195
63.80000 144.879
63.84000 149.843
63.88000 140.533
63.92000 144.614
63.96000 148.448
64.00000 146.066
64.04000 148.535
64.08000 152.605
64.12000 153.324
64.16000 155.567
64.20000 164.657
64.24000 161.818
64.28000 161.915
64.32000 163.284
64.36000 162.612
64.40000 162.865
64.44000 164.389
64.48000 165.165
64.52000 180.070
64.56000 169.323
64.60000 162.604
64.64000 173.752
64.68000 178.772
64.72000 181.780
64.76000 190.927
64.80000 192.315
64.84000 192.123
64.88000 206.401
64.92000 192.628
64.96000 199.015
65.00000 201.885
65.04000 225.284
65.08000 215.082
65.12000 231.232
65.16000 242.668
65.20000 243.002
65.24000 256.988
65.28000 264.830
65.32000 300.121
65.36000 333.307
65.40000 343.496
65.44000 396.193
65.48000 438.054
65.52000 489.386
65.56000 507.928
65.60000 557.228
65.64000 637.419
65.68000 889.140
65.72000 1368.874
65.76000 2027.869
65.80000 2492.916
65.84000 2703.859
65.88000 2704.181
65.92000 2490.731
65.96000 1982.145
66.00000 1275.929
66.04000 809.745
66.08000 573.664
66.12000 500.506
66.16000 459.364
66.20000 451.994
66.24000 500.009
66.28000 560.737
66.32000 691.364
66.36000 757.481
66.40000 801.264
66.44000 786.887
66.48000 734.485
66.52000 647.950
66.56000 527.356
66.60000 461.922
66.64000 428.062
66.68000 414.988
66.72000 402.147
66.76000 437.166
66.80000 390.777
66.84000 390.333
66.88000 411.205
66.92000 412.336
66.96000 420.110
67.00000 419.228
67.04000 427.534
67.08000 428.228
67.12000 450.036
67.16000 449.990
67.20000 434.680
67.24000 452.014
67.28000 458.947
67.32000 474.293
67.36000 457.913
67.40000 460.251
67.44000 482.075
67.48000 477.920
67.52000 487.640
67.56000 513.001
67.60000 500.681
67.64000 517.614
67.68000 506.748
67.72000 505.159
67.76000 523.721
67.80000 534.157
67.84000 527.506
67.88000 549.482
67.92000 563.977
67.96000 585.281
68.00000 587.269
68.04000 591.188
68.08000 586.702
68.12000 601.136
68.16000 607.360
68.20000 627.155
68.24000 654.251
68.28000 665.542
68.32000 683.461
68.36000 690.633
68.40000 725.385
68.44000 739.235
68.48000 800.348
68.52000 867.456
68.56000 912.546
68.60000 1056.058
68.64000 1243.193
68.68000 1479.057
68.72000 1750.154
68.76000 1946.095
68.80000 2224.148
68.84000 2599.687
68.88000 3484.655
68.92000 6240.424
68.96000 15260.932
69.00000 33257.449
69.04000 51066.188
69.08000 59700.605
69.12000 63505.805
69.16000 67133.656
69.20000 65147.574
69.24000 51410.082
69.28000 38491.723
69.32000 32108.266
69.36000 29667.920
69.40000 23943.469
69.44000 13924.020
69.48000 5993.251
69.52000 2795.235
69.56000 1721.154
69.60000 1316.335
69.64000 1132.085
69.68000 983.150
69.72000 855.855
69.76000 780.184
69.80000 739.727
69.84000 678.946
69.88000 659.720
69.92000 611.547
69.96000 584.792
70.00000 559.346