File: XRD/09-10-2025 Dep 8/XY Data/BTO_Mapping_Theta2Theta_09-10-2025_001_31_-19-563_4-158.xy
20.00000 502.138
20.04000 491.429
20.08000 494.322
20.12000 505.808
20.16000 489.198
20.20000 464.036
20.24000 491.957
20.28000 485.916
20.32000 510.598
20.36000 475.637
20.40000 475.184
20.44000 487.873
20.48000 469.525
20.52000 489.326
20.56000 471.786
20.60000 479.193
20.64000 497.164
20.68000 479.719
20.72000 489.689
20.76000 489.659
20.80000 462.811
20.84000 483.275
20.88000 473.104
20.92000 479.869
20.96000 491.595
21.00000 500.488
21.04000 500.779
21.08000 476.009
21.12000 484.661
21.16000 484.675
21.20000 475.462
21.24000 494.550
21.28000 484.901
21.32000 477.980
21.36000 443.531
21.40000 489.499
21.44000 482.603
21.48000 492.308
21.52000 496.081
21.56000 472.403
21.60000 481.980
21.64000 506.746
21.68000 495.114
21.72000 519.338
21.76000 540.270
21.80000 564.470
21.84000 570.546
21.88000 614.113
21.92000 649.165
21.96000 659.991
22.00000 727.260
22.04000 703.106
22.08000 686.614
22.12000 674.164
22.16000 667.645
22.20000 637.688
22.24000 625.291
22.28000 582.704
22.32000 547.469
22.36000 541.719
22.40000 499.743
22.44000 516.554
22.48000 487.126
22.52000 488.115
22.56000 478.894
22.60000 465.291
22.64000 463.142
22.68000 467.417
22.72000 439.668
22.76000 440.211
22.80000 458.329
22.84000 449.078
22.88000 457.701
22.92000 439.886
22.96000 450.499
23.00000 465.504
23.04000 464.296
23.08000 439.958
23.12000 444.569
23.16000 455.626
23.20000 444.902
23.24000 447.456
23.28000 436.078
23.32000 430.700
23.36000 433.149
23.40000 447.166
23.44000 407.150
23.48000 450.560
23.52000 447.598
23.56000 435.326
23.60000 424.914
23.64000 434.419
23.68000 432.612
23.72000 440.694
23.76000 429.037
23.80000 417.522
23.84000 428.749
23.88000 421.338
23.92000 428.793
23.96000 424.784
24.00000 437.824
24.04000 413.962
24.08000 415.027
24.12000 431.679
24.16000 414.303
24.20000 405.635
24.24000 417.326
24.28000 417.366
24.32000 425.532
24.36000 427.498
24.40000 424.580
24.44000 410.154
24.48000 425.360
24.52000 425.927
24.56000 428.612
24.60000 410.570
24.64000 414.140
24.68000 429.344
24.72000 409.464
24.76000 408.081
24.80000 421.756
24.84000 427.338
24.88000 413.420
24.92000 417.523
24.96000 415.338
25.00000 424.251
25.04000 408.671
25.08000 422.594
25.12000 414.248
25.16000 421.997
25.20000 399.274
25.24000 417.810
25.28000 415.379
25.32000 405.124
25.36000 408.665
25.40000 415.303
25.44000 405.335
25.48000 403.447
25.52000 404.799
25.56000 394.779
25.60000 401.561
25.64000 407.415
25.68000 397.820
25.72000 419.184
25.76000 394.924
25.80000 422.312
25.84000 412.212
25.88000 393.678
25.92000 399.305
25.96000 394.700
26.00000 404.987
26.04000 395.401
26.08000 401.374
26.12000 387.189
26.16000 404.859
26.20000 393.641
26.24000 407.507
26.28000 406.304
26.32000 378.228
26.36000 379.340
26.40000 394.918
26.44000 393.313
26.48000 406.609
26.52000 398.335
26.56000 396.494
26.60000 390.644
26.64000 394.495
26.68000 382.687
26.72000 368.249
26.76000 383.258
26.80000 388.636
26.84000 403.496
26.88000 376.323
26.92000 386.401
26.96000 393.405
27.00000 391.984
27.04000 368.902
27.08000 380.564
27.12000 377.913
27.16000 373.982
27.20000 374.137
27.24000 371.826
27.28000 375.245
27.32000 366.313
27.36000 377.860
27.40000 385.461
27.44000 398.132
27.48000 378.194
27.52000 374.806
27.56000 378.760
27.60000 363.740
27.64000 383.794
27.68000 391.333
27.72000 394.079
27.76000 384.070
27.80000 380.234
27.84000 369.098
27.88000 371.002
27.92000 375.484
27.96000 375.348
28.00000 373.639
28.04000 371.346
28.08000 391.066
28.12000 385.618
28.16000 376.875
28.20000 384.460
28.24000 383.795
28.28000 366.921
28.32000 382.663
28.36000 365.441
28.40000 367.291
28.44000 370.951
28.48000 370.447
28.52000 370.756
28.56000 359.337
28.60000 368.885
28.64000 396.089
28.68000 357.611
28.72000 379.282
28.76000 367.690
28.80000 374.571
28.84000 376.334
28.88000 366.841
28.92000 363.820
28.96000 364.397
29.00000 364.987
29.04000 367.336
29.08000 353.965
29.12000 356.967
29.16000 361.012
29.20000 360.236
29.24000 355.411
29.28000 363.553
29.32000 366.178
29.36000 358.729
29.40000 375.890
29.44000 376.008
29.48000 377.458
29.52000 359.625
29.56000 356.125
29.60000 364.316
29.64000 366.786
29.68000 375.334
29.72000 368.415
29.76000 384.803
29.80000 384.320
29.84000 398.610
29.88000 396.230
29.92000 425.063
29.96000 436.104
30.00000 467.669
30.04000 445.559
30.08000 445.806
30.12000 443.336
30.16000 441.602
30.20000 439.851
30.24000 410.654
30.28000 428.159
30.32000 411.666
30.36000 415.823
30.40000 406.108
30.44000 386.467
30.48000 395.355
30.52000 393.046
30.56000 406.412
30.60000 422.475
30.64000 402.115
30.68000 408.139
30.72000 418.302
30.76000 414.590
30.80000 410.190
30.84000 426.454
30.88000 451.685
30.92000 463.858
30.96000 495.220
31.00000 536.391
31.04000 606.858
31.08000 715.633
31.12000 855.252
31.16000 1114.015
31.20000 1428.478
31.24000 1793.769
31.28000 2252.673
31.32000 2658.866
31.36000 2879.710
31.40000 2978.110
31.44000 2894.318
31.48000 2615.013
31.52000 2217.578
31.56000 1779.151
31.60000 1374.125
31.64000 1084.268
31.68000 856.424
31.72000 697.040
31.76000 594.886
31.80000 542.554
31.84000 476.605
31.88000 447.075
31.92000 408.980
31.96000 424.850
32.00000 377.454
32.04000 369.034
32.08000 357.823
32.12000 357.627
32.16000 361.824
32.20000 346.519
32.24000 355.813
32.28000 359.741
32.32000 337.739
32.36000 345.492
32.40000 351.003
32.44000 341.343
32.48000 350.540
32.52000 349.140
32.56000 322.413
32.60000 336.961
32.64000 337.716
32.68000 335.125
32.72000 328.874
32.76000 341.218
32.80000 329.041
32.84000 328.068
32.88000 329.360
32.92000 332.551
32.96000 308.788
33.00000 319.305
33.04000 314.299
33.08000 315.025
33.12000 295.616
33.16000 305.672
33.20000 312.020
33.24000 299.700
33.28000 304.152
33.32000 324.583
33.36000 313.423
33.40000 327.939
33.44000 303.111
33.48000 306.671
33.52000 308.579
33.56000 296.737
33.60000 302.880
33.64000 293.758
33.68000 299.842
33.72000 296.225
33.76000 302.432
33.80000 298.956
33.84000 289.208
33.88000 304.401
33.92000 298.475
33.96000 300.196
34.00000 289.710
34.04000 291.568
34.08000 300.545
34.12000 299.835
34.16000 280.370
34.20000 271.360
34.24000 282.668
34.28000 293.835
34.32000 284.838
34.36000 285.362
34.40000 288.700
34.44000 273.309
34.48000 286.035
34.52000 284.992
34.56000 280.637
34.60000 281.494
34.64000 286.147
34.68000 273.321
34.72000 295.875
34.76000 287.118
34.80000 288.101
34.84000 284.648
34.88000 285.948
34.92000 293.628
34.96000 278.291
35.00000 279.059
35.04000 274.560
35.08000 264.124
35.12000 283.971
35.16000 278.980
35.20000 285.286
35.24000 286.948
35.28000 287.178
35.32000 269.624
35.36000 273.718
35.40000 272.527
35.44000 272.897
35.48000 274.500
35.52000 296.405
35.56000 266.791
35.60000 268.802
35.64000 267.387
35.68000 280.329
35.72000 267.031
35.76000 266.245
35.80000 274.464
35.84000 273.631
35.88000 269.887
35.92000 290.477
35.96000 261.239
36.00000 259.089
36.04000 283.111
36.08000 261.909
36.12000 259.456
36.16000 275.950
36.20000 273.105
36.24000 275.946
36.28000 260.388
36.32000 261.955
36.36000 273.098
36.40000 259.959
36.44000 247.171
36.48000 268.087
36.52000 267.895
36.56000 267.504
36.60000 254.745
36.64000 276.459
36.68000 267.959
36.72000 273.406
36.76000 281.736
36.80000 260.678
36.84000 268.461
36.88000 268.287
36.92000 283.712
36.96000 282.398
37.00000 281.378
37.04000 265.138
37.08000 282.053
37.12000 278.428
37.16000 278.020
37.20000 275.858
37.24000 283.715
37.28000 275.459
37.32000 267.262
37.36000 272.773
37.40000 264.412
37.44000 253.746
37.48000 265.814
37.52000 268.287
37.56000 253.315
37.60000 271.223
37.64000 267.591
37.68000 264.435
37.72000 262.912
37.76000 270.896
37.80000 266.756
37.84000 268.643
37.88000 265.510
37.92000 269.278
37.96000 264.333
38.00000 270.965
38.04000 282.967
38.08000 288.767
38.12000 277.621
38.16000 287.549
38.20000 282.670
38.24000 293.971
38.28000 307.110
38.32000 328.085
38.36000 344.387
38.40000 377.688
38.44000 423.863
38.48000 469.224
38.52000 564.124
38.56000 658.937
38.60000 731.307
38.64000 820.432
38.68000 868.842
38.72000 850.299
38.76000 831.906
38.80000 758.646
38.84000 670.326
38.88000 583.946
38.92000 487.883
38.96000 413.595
39.00000 373.007
39.04000 345.179
39.08000 315.812
39.12000 297.517
39.16000 275.830
39.20000 280.642
39.24000 273.759
39.28000 262.106
39.32000 263.658
39.36000 256.460
39.40000 256.458
39.44000 252.258
39.48000 256.361
39.52000 240.209
39.56000 249.456
39.60000 238.341
39.64000 234.743
39.68000 249.738
39.72000 248.188
39.76000 239.326
39.80000 230.018
39.84000 230.143
39.88000 230.865
39.92000 225.954
39.96000 229.462
40.00000 238.161
40.04000 240.699
40.08000 227.300
40.12000 234.374
40.16000 229.025
40.20000 231.473
40.24000 230.797
40.28000 235.497
40.32000 229.868
40.36000 219.945
40.40000 229.919
40.44000 214.995
40.48000 235.514
40.52000 236.629
40.56000 240.575
40.60000 216.154
40.64000 238.307
40.68000 228.137
40.72000 230.135
40.76000 222.877
40.80000 236.462
40.84000 219.141
40.88000 215.063
40.92000 221.746
40.96000 215.159
41.00000 226.443
41.04000 220.162
41.08000 222.415
41.12000 226.751
41.16000 220.243
41.20000 214.451
41.24000 219.900
41.28000 218.247
41.32000 233.793
41.36000 215.008
41.40000 219.304
41.44000 225.613
41.48000 207.949
41.52000 218.946
41.56000 205.532
41.60000 212.894
41.64000 204.384
41.68000 212.378
41.72000 203.055
41.76000 210.555
41.80000 205.847
41.84000 219.756
41.88000 215.851
41.92000 217.625
41.96000 207.242
42.00000 214.655
42.04000 208.239
42.08000 204.046
42.12000 218.400
42.16000 207.591
42.20000 197.479
42.24000 210.510
42.28000 213.520
42.32000 205.752
42.36000 221.583
42.40000 216.828
42.44000 204.402
42.48000 204.783
42.52000 217.825
42.56000 213.932
42.60000 198.454
42.64000 207.636
42.68000 228.004
42.72000 198.051
42.76000 202.736
42.80000 201.408
42.84000 195.786
42.88000 209.817
42.92000 212.965
42.96000 217.459
43.00000 211.880
43.04000 211.957
43.08000 218.586
43.12000 204.897
43.16000 212.468
43.20000 217.061
43.24000 200.893
43.28000 204.072
43.32000 203.043
43.36000 202.800
43.40000 201.537
43.44000 210.123
43.48000 211.999
43.52000 207.553
43.56000 203.174
43.60000 207.657
43.64000 202.396
43.68000 207.471
43.72000 213.523
43.76000 196.967
43.80000 183.389
43.84000 199.375
43.88000 197.157
43.92000 202.599
43.96000 207.818
44.00000 201.392
44.04000 215.648
44.08000 199.090
44.12000 193.195
44.16000 203.550
44.20000 209.034
44.24000 196.999
44.28000 202.129
44.32000 216.926
44.36000 208.397
44.40000 218.224
44.44000 192.714
44.48000 216.364
44.52000 238.324
44.56000 232.095
44.60000 234.599
44.64000 215.359
44.68000 248.468
44.72000 266.066
44.76000 282.981
44.80000 314.821
44.84000 330.196
44.88000 335.642
44.92000 366.977
44.96000 416.998
45.00000 405.313
45.04000 425.367
45.08000 413.197
45.12000 402.433
45.16000 382.011
45.20000 373.807
45.24000 358.030
45.28000 323.573
45.32000 315.837
45.36000 296.689
45.40000 276.089
45.44000 269.707
45.48000 261.622
45.52000 240.627
45.56000 235.176
45.60000 228.656
45.64000 232.257
45.68000 232.808
45.72000 215.188
45.76000 202.866
45.80000 196.283
45.84000 205.880
45.88000 192.200
45.92000 186.541
45.96000 184.680
46.00000 194.240
46.04000 201.479
46.08000 189.729
46.12000 182.469
46.16000 187.394
46.20000 176.148
46.24000 185.520
46.28000 193.254
46.32000 175.865
46.36000 183.329
46.40000 171.754
46.44000 187.448
46.48000 171.932
46.52000 177.890
46.56000 177.732
46.60000 184.526
46.64000 187.632
46.68000 187.982
46.72000 183.106
46.76000 173.519
46.80000 187.271
46.84000 173.111
46.88000 174.351
46.92000 176.646
46.96000 181.555
47.00000 177.541
47.04000 180.881
47.08000 171.854
47.12000 170.469
47.16000 169.950
47.20000 167.228
47.24000 167.044
47.28000 170.300
47.32000 154.170
47.36000 169.325
47.40000 171.733
47.44000 163.281
47.48000 165.626
47.52000 169.066
47.56000 166.916
47.60000 165.682
47.64000 171.054
47.68000 169.781
47.72000 163.406
47.76000 168.210
47.80000 174.420
47.84000 164.729
47.88000 169.342
47.92000 165.076
47.96000 169.334
48.00000 168.959
48.04000 165.361
48.08000 166.783
48.12000 166.725
48.16000 179.958
48.20000 161.764
48.24000 163.123
48.28000 162.153
48.32000 164.617
48.36000 167.048
48.40000 170.830
48.44000 166.131
48.48000 155.691
48.52000 162.944
48.56000 150.844
48.60000 159.379
48.64000 166.777
48.68000 157.825
48.72000 172.516
48.76000 167.498
48.80000 159.009
48.84000 163.487
48.88000 162.360
48.92000 169.116
48.96000 167.046
49.00000 153.580
49.04000 152.459
49.08000 159.816
49.12000 166.941
49.16000 160.635
49.20000 155.662
49.24000 158.275
49.28000 161.422
49.32000 159.761
49.36000 152.668
49.40000 162.526
49.44000 176.993
49.48000 162.239
49.52000 167.382
49.56000 155.841
49.60000 161.911
49.64000 155.919
49.68000 154.463
49.72000 144.464
49.76000 156.442
49.80000 159.990
49.84000 164.013
49.88000 144.102
49.92000 148.076
49.96000 165.568
50.00000 166.689
50.04000 153.321
50.08000 169.452
50.12000 157.700
50.16000 175.920
50.20000 164.581
50.24000 157.664
50.28000 168.032
50.32000 166.138
50.36000 181.805
50.40000 179.725
50.44000 190.488
50.48000 191.889
50.52000 217.467
50.56000 239.714
50.60000 237.696
50.64000 249.281
50.68000 237.729
50.72000 245.098
50.76000 227.097
50.80000 243.282
50.84000 233.313
50.88000 238.892
50.92000 222.830
50.96000 210.053
51.00000 203.310
51.04000 180.220
51.08000 179.402
51.12000 175.558
51.16000 173.721
51.20000 163.074
51.24000 161.272
51.28000 155.661
51.32000 157.775
51.36000 153.277
51.40000 154.823
51.44000 161.088
51.48000 136.516
51.52000 155.388
51.56000 138.993
51.60000 146.938
51.64000 153.161
51.68000 156.406
51.72000 150.700
51.76000 144.899
51.80000 155.365
51.84000 136.573
51.88000 142.757
51.92000 144.804
51.96000 152.588
52.00000 138.179
52.04000 139.460
52.08000 149.453
52.12000 148.066
52.16000 143.620
52.20000 150.423
52.24000 152.143
52.28000 145.924
52.32000 145.346
52.36000 138.456
52.40000 143.618
52.44000 148.033
52.48000 139.972
52.52000 141.152
52.56000 148.565
52.60000 136.205
52.64000 149.727
52.68000 134.257
52.72000 142.278
52.76000 126.425
52.80000 142.589
52.84000 153.197
52.88000 153.676
52.92000 153.346
52.96000 141.972
53.00000 143.167
53.04000 141.183
53.08000 141.907
53.12000 144.575
53.16000 140.959
53.20000 142.403
53.24000 149.215
53.28000 157.768
53.32000 155.609
53.36000 160.939
53.40000 152.080
53.44000 143.809
53.48000 158.966
53.52000 158.560
53.56000 154.824
53.60000 148.307
53.64000 156.156
53.68000 167.729
53.72000 153.132
53.76000 153.976
53.80000 155.250
53.84000 146.528
53.88000 131.069
53.92000 158.676
53.96000 143.291
54.00000 146.486
54.04000 150.994
54.08000 134.382
54.12000 135.878
54.16000 145.199
54.20000 138.842
54.24000 141.678
54.28000 141.624
54.32000 144.112
54.36000 140.028
54.40000 149.468
54.44000 132.041
54.48000 145.129
54.52000 154.632
54.56000 143.427
54.60000 143.811
54.64000 142.429
54.68000 148.350
54.72000 136.661
54.76000 145.638
54.80000 145.379
54.84000 139.676
54.88000 154.926
54.92000 141.608
54.96000 148.954
55.00000 150.774
55.04000 138.115
55.08000 148.449
55.12000 164.079
55.16000 157.017
55.20000 155.647
55.24000 153.951
55.28000 151.499
55.32000 172.509
55.36000 173.684
55.40000 171.272
55.44000 183.457
55.48000 176.088
55.52000 199.699
55.56000 207.414
55.60000 233.875
55.64000 279.533
55.68000 317.134
55.72000 354.611
55.76000 405.717
55.80000 449.599
55.84000 531.590
55.88000 554.084
55.92000 597.972
55.96000 594.603
56.00000 556.940
56.04000 520.368
56.08000 471.122
56.12000 425.698
56.16000 407.741
56.20000 342.096
56.24000 309.620
56.28000 267.730
56.32000 249.824
56.36000 228.972
56.40000 210.576
56.44000 191.749
56.48000 170.862
56.52000 169.473
56.56000 171.473
56.60000 148.950
56.64000 153.425
56.68000 152.692
56.72000 155.480
56.76000 143.406
56.80000 161.104
56.84000 145.143
56.88000 140.155
56.92000 139.077
56.96000 147.123
57.00000 156.186
57.04000 139.033
57.08000 131.122
57.12000 128.522
57.16000 136.120
57.20000 129.733
57.24000 133.757
57.28000 138.694
57.32000 128.032
57.36000 133.109
57.40000 123.675
57.44000 135.701
57.48000 132.231
57.52000 121.810
57.56000 122.453
57.60000 117.446
57.64000 127.112
57.68000 133.477
57.72000 128.063
57.76000 124.552
57.80000 130.387
57.84000 129.470
57.88000 132.119
57.92000 124.883
57.96000 123.782
58.00000 126.041
58.04000 119.334
58.08000 125.989
58.12000 129.000
58.16000 129.102
58.20000 123.789
58.24000 127.604
58.28000 124.731
58.32000 121.195
58.36000 124.071
58.40000 120.149
58.44000 126.204
58.48000 122.339
58.52000 131.963
58.56000 132.459
58.60000 120.772
58.64000 122.578
58.68000 117.782
58.72000 119.649
58.76000 127.970
58.80000 116.607
58.84000 129.139
58.88000 121.476
58.92000 123.244
58.96000 118.142
59.00000 114.357
59.04000 119.294
59.08000 119.021
59.12000 122.476
59.16000 120.570
59.20000 112.878
59.24000 124.026
59.28000 127.646
59.32000 125.635
59.36000 120.229
59.40000 114.589
59.44000 118.023
59.48000 121.857
59.52000 120.102
59.56000 120.408
59.60000 125.313
59.64000 130.717
59.68000 117.931
59.72000 122.112
59.76000 129.428
59.80000 125.882
59.84000 115.567
59.88000 117.572
59.92000 116.371
59.96000 121.205
60.00000 114.065
60.04000 118.562
60.08000 116.608
60.12000 111.872
60.16000 119.431
60.20000 116.019
60.24000 119.181
60.28000 121.584
60.32000 121.067
60.36000 112.556
60.40000 109.498
60.44000 117.274
60.48000 108.435
60.52000 112.729
60.56000 113.590
60.60000 120.483
60.64000 119.118
60.68000 124.864
60.72000 125.053
60.76000 123.545
60.80000 122.338
60.84000 116.491
60.88000 121.020
60.92000 128.519
60.96000 129.642
61.00000 124.831
61.04000 130.655
61.08000 128.917
61.12000 114.380
61.16000 128.080
61.20000 126.326
61.24000 126.827
61.28000 134.260
61.32000 137.217
61.36000 121.202
61.40000 126.743
61.44000 133.389
61.48000 160.662
61.52000 205.565
61.56000 281.045
61.60000 383.985
61.64000 436.629
61.68000 458.954
61.72000 447.630
61.76000 400.453
61.80000 285.008
61.84000 217.664
61.88000 164.249
61.92000 158.684
61.96000 144.458
62.00000 132.478
62.04000 141.283
62.08000 133.191
62.12000 134.736
62.16000 137.305
62.20000 142.613
62.24000 142.468
62.28000 143.598
62.32000 137.990
62.36000 134.550
62.40000 137.750
62.44000 139.741
62.48000 142.403
62.52000 136.130
62.56000 134.102
62.60000 136.083
62.64000 141.409
62.68000 134.687
62.72000 130.426
62.76000 138.455
62.80000 140.342
62.84000 134.714
62.88000 132.285
62.92000 141.284
62.96000 149.807
63.00000 142.119
63.04000 148.112
63.08000 137.184
63.12000 138.879
63.16000 141.764
63.20000 146.857
63.24000 145.694
63.28000 134.661
63.32000 146.777
63.36000 145.668
63.40000 136.225
63.44000 157.404
63.48000 144.038
63.52000 150.957
63.56000 151.877
63.60000 154.458
63.64000 146.080
63.68000 146.546
63.72000 137.972
63.76000 153.143
63.80000 151.989
63.84000 160.355
63.88000 156.213
63.92000 159.085
63.96000 164.131
64.00000 156.532
64.04000 158.692
64.08000 152.932
64.12000 155.490
64.16000 159.845
64.20000 154.557
64.24000 163.193
64.28000 174.822
64.32000 163.838
64.36000 159.420
64.40000 181.998
64.44000 177.493
64.48000 169.709
64.52000 168.943
64.56000 196.194
64.60000 170.672
64.64000 185.928
64.68000 188.009
64.72000 185.894
64.76000 193.198
64.80000 196.685
64.84000 203.928
64.88000 199.533
64.92000 202.377
64.96000 218.535
65.00000 220.997
65.04000 227.970
65.08000 230.983
65.12000 242.081
65.16000 260.606
65.20000 262.374
65.24000 284.059
65.28000 305.428
65.32000 321.943
65.36000 357.421
65.40000 374.802
65.44000 403.057
65.48000 456.973
65.52000 500.548
65.56000 535.508
65.60000 627.291
65.64000 741.326
65.68000 1069.719
65.72000 1689.069
65.76000 2521.619
65.80000 3170.587
65.84000 3491.470
65.88000 3437.509
65.92000 3323.612
65.96000 2615.794
66.00000 1662.035
66.04000 1021.275
66.08000 719.368
66.12000 568.453
66.16000 544.206
66.20000 539.590
66.24000 576.677
66.28000 690.200
66.32000 838.991
66.36000 951.312
66.40000 1000.646
66.44000 978.336
66.48000 927.924
66.52000 787.114
66.56000 650.420
66.60000 561.455
66.64000 498.272
66.68000 490.753
66.72000 482.090
66.76000 479.819
66.80000 473.529
66.84000 472.158
66.88000 473.349
66.92000 491.885
66.96000 487.747
67.00000 493.814
67.04000 514.689
67.08000 547.805
67.12000 517.397
67.16000 519.761
67.20000 516.075
67.24000 523.147
67.28000 530.636
67.32000 552.773
67.36000 556.625
67.40000 558.388
67.44000 555.748
67.48000 565.647
67.52000 561.614
67.56000 583.607
67.60000 595.751
67.64000 590.142
67.68000 596.935
67.72000 600.168
67.76000 612.119
67.80000 614.453
67.84000 619.997
67.88000 639.337
67.92000 648.169
67.96000 647.839
68.00000 654.892
68.04000 651.445
68.08000 695.802
68.12000 726.092
68.16000 717.937
68.20000 740.736
68.24000 756.407
68.28000 765.547
68.32000 781.935
68.36000 809.439
68.40000 834.499
68.44000 888.554
68.48000 931.307
68.52000 1006.845
68.56000 1099.209
68.60000 1256.937
68.64000 1521.371
68.68000 1828.353
68.72000 2092.710
68.76000 2415.678
68.80000 2859.894
68.84000 3363.808
68.88000 4623.681
68.92000 8303.470
68.96000 19886.836
69.00000 43228.051
69.04000 66451.453
69.08000 78751.297
69.12000 84169.000
69.16000 88883.023
69.20000 85373.438
69.24000 68520.141
69.28000 52875.172
69.32000 42741.836
69.36000 39347.148
69.40000 31344.289
69.44000 18677.207
69.48000 8468.859
69.52000 3712.834
69.56000 2152.492
69.60000 1636.172
69.64000 1336.645
69.68000 1171.376
69.72000 1018.037
69.76000 915.660
69.80000 851.130
69.84000 787.716
69.88000 745.484
69.92000 705.723
69.96000 653.781
70.00000 625.563