File: XRD/09-10-2025 Dep 8/XY Data/BTO_Mapping_Theta2Theta_09-10-2025_001_40_-24-271_-17-634.xy
20.00000 485.250
20.04000 478.064
20.08000 495.545
20.12000 498.595
20.16000 477.195
20.20000 477.945
20.24000 481.905
20.28000 486.957
20.32000 492.698
20.36000 507.925
20.40000 491.569
20.44000 484.044
20.48000 489.766
20.52000 490.692
20.56000 481.025
20.60000 494.186
20.64000 483.656
20.68000 469.570
20.72000 477.886
20.76000 489.308
20.80000 477.436
20.84000 490.442
20.88000 484.544
20.92000 495.847
20.96000 481.086
21.00000 471.802
21.04000 495.025
21.08000 485.089
21.12000 506.261
21.16000 477.959
21.20000 479.005
21.24000 516.854
21.28000 509.763
21.32000 493.817
21.36000 500.262
21.40000 488.621
21.44000 482.029
21.48000 485.292
21.52000 474.281
21.56000 495.937
21.60000 493.577
21.64000 522.737
21.68000 518.094
21.72000 530.382
21.76000 545.446
21.80000 585.976
21.84000 630.549
21.88000 644.338
21.92000 701.287
21.96000 704.498
22.00000 697.624
22.04000 719.424
22.08000 717.046
22.12000 693.334
22.16000 663.026
22.20000 597.591
22.24000 587.010
22.28000 551.593
22.32000 524.817
22.36000 502.807
22.40000 496.801
22.44000 484.808
22.48000 460.708
22.52000 491.864
22.56000 473.133
22.60000 465.710
22.64000 473.345
22.68000 465.166
22.72000 446.862
22.76000 455.306
22.80000 452.320
22.84000 449.769
22.88000 460.861
22.92000 455.568
22.96000 437.644
23.00000 451.652
23.04000 466.017
23.08000 466.636
23.12000 439.498
23.16000 456.175
23.20000 442.626
23.24000 414.913
23.28000 455.875
23.32000 432.291
23.36000 451.954
23.40000 445.793
23.44000 442.969
23.48000 432.341
23.52000 435.562
23.56000 428.987
23.60000 443.138
23.64000 436.578
23.68000 445.510
23.72000 414.399
23.76000 457.433
23.80000 435.294
23.84000 438.079
23.88000 424.921
23.92000 432.161
23.96000 459.560
24.00000 432.506
24.04000 422.633
24.08000 432.192
24.12000 427.274
24.16000 432.131
24.20000 416.955
24.24000 435.668
24.28000 413.551
24.32000 422.570
24.36000 427.297
24.40000 416.708
24.44000 411.045
24.48000 429.308
24.52000 423.792
24.56000 422.237
24.60000 411.496
24.64000 425.081
24.68000 415.325
24.72000 426.671
24.76000 419.285
24.80000 428.581
24.84000 406.075
24.88000 429.833
24.92000 423.632
24.96000 422.554
25.00000 429.924
25.04000 417.164
25.08000 429.810
25.12000 403.727
25.16000 402.699
25.20000 407.294
25.24000 394.109
25.28000 414.619
25.32000 431.711
25.36000 419.545
25.40000 409.124
25.44000 406.644
25.48000 403.780
25.52000 403.313
25.56000 411.405
25.60000 393.156
25.64000 405.312
25.68000 405.980
25.72000 394.673
25.76000 404.292
25.80000 417.904
25.84000 412.681
25.88000 412.251
25.92000 399.273
25.96000 410.444
26.00000 403.164
26.04000 402.658
26.08000 382.771
26.12000 400.498
26.16000 397.830
26.20000 410.439
26.24000 397.440
26.28000 396.936
26.32000 396.005
26.36000 394.105
26.40000 394.896
26.44000 396.872
26.48000 384.853
26.52000 390.934
26.56000 405.511
26.60000 395.277
26.64000 393.710
26.68000 400.177
26.72000 382.133
26.76000 389.814
26.80000 398.720
26.84000 398.388
26.88000 380.389
26.92000 391.206
26.96000 400.714
27.00000 376.313
27.04000 374.801
27.08000 368.046
27.12000 380.343
27.16000 383.442
27.20000 392.828
27.24000 376.792
27.28000 392.147
27.32000 377.845
27.36000 379.997
27.40000 381.690
27.44000 399.519
27.48000 370.090
27.52000 372.785
27.56000 378.290
27.60000 362.380
27.64000 374.534
27.68000 387.955
27.72000 385.576
27.76000 371.794
27.80000 385.949
27.84000 371.843
27.88000 369.371
27.92000 360.636
27.96000 383.495
28.00000 376.265
28.04000 379.429
28.08000 395.860
28.12000 394.500
28.16000 380.964
28.20000 403.751
28.24000 400.249
28.28000 395.069
28.32000 380.883
28.36000 382.171
28.40000 390.337
28.44000 367.387
28.48000 380.509
28.52000 373.955
28.56000 393.331
28.60000 376.175
28.64000 364.853
28.68000 382.929
28.72000 377.786
28.76000 367.416
28.80000 357.261
28.84000 348.483
28.88000 375.031
28.92000 348.320
28.96000 363.463
29.00000 387.061
29.04000 360.190
29.08000 375.195
29.12000 364.766
29.16000 372.846
29.20000 356.252
29.24000 370.942
29.28000 371.118
29.32000 356.901
29.36000 358.623
29.40000 369.433
29.44000 364.925
29.48000 368.664
29.52000 368.453
29.56000 362.713
29.60000 363.260
29.64000 397.489
29.68000 356.148
29.72000 379.376
29.76000 397.521
29.80000 412.727
29.84000 440.018
29.88000 459.862
29.92000 476.454
29.96000 497.576
30.00000 497.447
30.04000 513.609
30.08000 499.359
30.12000 482.534
30.16000 470.913
30.20000 471.094
30.24000 438.866
30.28000 423.290
30.32000 425.491
30.36000 431.665
30.40000 425.937
30.44000 406.248
30.48000 395.445
30.52000 375.848
30.56000 387.162
30.60000 399.970
30.64000 412.102
30.68000 430.123
30.72000 437.351
30.76000 413.822
30.80000 439.220
30.84000 434.056
30.88000 451.786
30.92000 477.396
30.96000 545.137
31.00000 598.981
31.04000 723.385
31.08000 924.402
31.12000 1281.150
31.16000 1781.419
31.20000 2357.073
31.24000 2984.680
31.28000 3658.688
31.32000 4165.692
31.36000 4302.007
31.40000 4170.617
31.44000 3764.341
31.48000 3194.086
31.52000 2485.447
31.56000 1891.482
31.60000 1416.318
31.64000 1066.251
31.68000 827.394
31.72000 669.397
31.76000 588.600
31.80000 511.785
31.84000 446.591
31.88000 410.948
31.92000 407.148
31.96000 395.583
32.00000 380.913
32.04000 370.762
32.08000 374.218
32.12000 368.026
32.16000 349.902
32.20000 342.290
32.24000 341.520
32.28000 331.377
32.32000 353.770
32.36000 356.843
32.40000 360.790
32.44000 343.758
32.48000 339.268
32.52000 345.808
32.56000 331.408
32.60000 324.044
32.64000 338.503
32.68000 334.649
32.72000 341.919
32.76000 335.447
32.80000 331.350
32.84000 317.921
32.88000 322.130
32.92000 333.611
32.96000 328.214
33.00000 309.212
33.04000 310.177
33.08000 319.682
33.12000 323.683
33.16000 317.026
33.20000 326.850
33.24000 308.544
33.28000 309.504
33.32000 307.410
33.36000 307.190
33.40000 298.674
33.44000 300.308
33.48000 304.009
33.52000 305.613
33.56000 315.830
33.60000 292.646
33.64000 308.599
33.68000 315.491
33.72000 292.820
33.76000 300.162
33.80000 292.822
33.84000 302.958
33.88000 297.223
33.92000 293.351
33.96000 275.604
34.00000 303.129
34.04000 292.007
34.08000 302.505
34.12000 287.293
34.16000 285.762
34.20000 291.655
34.24000 291.931
34.28000 301.511
34.32000 305.158
34.36000 295.951
34.40000 293.884
34.44000 299.846
34.48000 290.877
34.52000 293.304
34.56000 281.449
34.60000 285.791
34.64000 267.765
34.68000 291.847
34.72000 289.700
34.76000 287.971
34.80000 283.860
34.84000 275.020
34.88000 285.356
34.92000 299.736
34.96000 269.417
35.00000 289.237
35.04000 278.728
35.08000 278.894
35.12000 264.227
35.16000 281.899
35.20000 292.094
35.24000 270.711
35.28000 267.491
35.32000 284.520
35.36000 277.787
35.40000 279.609
35.44000 291.989
35.48000 295.861
35.52000 270.326
35.56000 279.770
35.60000 278.827
35.64000 285.732
35.68000 278.640
35.72000 274.700
35.76000 271.110
35.80000 280.042
35.84000 270.671
35.88000 267.028
35.92000 267.836
35.96000 275.782
36.00000 285.388
36.04000 274.045
36.08000 266.377
36.12000 271.342
36.16000 268.630
36.20000 255.839
36.24000 274.204
36.28000 269.976
36.32000 264.637
36.36000 274.104
36.40000 263.117
36.44000 263.546
36.48000 262.980
36.52000 275.180
36.56000 289.934
36.60000 265.459
36.64000 267.221
36.68000 265.549
36.72000 280.753
36.76000 283.937
36.80000 271.628
36.84000 282.791
36.88000 292.190
36.92000 282.321
36.96000 286.009
37.00000 287.360
37.04000 294.347
37.08000 282.490
37.12000 280.425
37.16000 275.073
37.20000 274.538
37.24000 268.989
37.28000 267.827
37.32000 261.919
37.36000 266.912
37.40000 271.011
37.44000 285.693
37.48000 271.451
37.52000 266.349
37.56000 276.785
37.60000 262.198
37.64000 270.882
37.68000 271.949
37.72000 270.499
37.76000 276.002
37.80000 269.364
37.84000 267.111
37.88000 271.428
37.92000 279.526
37.96000 267.893
38.00000 281.186
38.04000 279.262
38.08000 275.639
38.12000 287.074
38.16000 275.504
38.20000 301.006
38.24000 310.303
38.28000 327.228
38.32000 351.687
38.36000 379.039
38.40000 375.731
38.44000 438.778
38.48000 496.162
38.52000 542.852
38.56000 587.756
38.60000 644.719
38.64000 669.702
38.68000 688.051
38.72000 616.165
38.76000 604.654
38.80000 535.199
38.84000 477.893
38.88000 430.577
38.92000 390.254
38.96000 354.623
39.00000 339.293
39.04000 290.341
39.08000 290.374
39.12000 279.229
39.16000 270.283
39.20000 262.704
39.24000 288.464
39.28000 263.126
39.32000 261.404
39.36000 240.580
39.40000 236.572
39.44000 246.740
39.48000 258.765
39.52000 249.274
39.56000 244.053
39.60000 240.686
39.64000 256.483
39.68000 250.129
39.72000 237.583
39.76000 235.450
39.80000 239.884
39.84000 250.475
39.88000 244.892
39.92000 241.853
39.96000 238.231
40.00000 241.225
40.04000 248.579
40.08000 234.317
40.12000 225.000
40.16000 240.741
40.20000 226.945
40.24000 240.572
40.28000 229.148
40.32000 237.680
40.36000 242.655
40.40000 242.332
40.44000 228.584
40.48000 233.901
40.52000 234.119
40.56000 227.439
40.60000 220.233
40.64000 227.522
40.68000 236.479
40.72000 226.497
40.76000 222.507
40.80000 239.104
40.84000 233.485
40.88000 221.197
40.92000 224.038
40.96000 218.772
41.00000 223.580
41.04000 211.686
41.08000 228.176
41.12000 211.404
41.16000 217.390
41.20000 226.932
41.24000 226.168
41.28000 207.630
41.32000 221.907
41.36000 233.210
41.40000 211.384
41.44000 231.497
41.48000 221.980
41.52000 213.929
41.56000 212.608
41.60000 229.684
41.64000 228.328
41.68000 220.116
41.72000 226.495
41.76000 224.449
41.80000 218.764
41.84000 221.813
41.88000 217.502
41.92000 224.679
41.96000 212.906
42.00000 219.115
42.04000 223.522
42.08000 218.004
42.12000 210.642
42.16000 206.918
42.20000 214.298
42.24000 210.107
42.28000 201.532
42.32000 216.402
42.36000 205.912
42.40000 208.770
42.44000 215.723
42.48000 201.057
42.52000 211.368
42.56000 208.270
42.60000 203.495
42.64000 209.121
42.68000 206.065
42.72000 208.095
42.76000 222.866
42.80000 217.270
42.84000 213.076
42.88000 209.504
42.92000 211.532
42.96000 202.743
43.00000 215.801
43.04000 221.562
43.08000 209.703
43.12000 206.983
43.16000 200.100
43.20000 219.021
43.24000 202.348
43.28000 201.090
43.32000 203.216
43.36000 200.794
43.40000 199.882
43.44000 204.953
43.48000 206.483
43.52000 205.236
43.56000 220.483
43.60000 203.197
43.64000 215.781
43.68000 202.500
43.72000 197.931
43.76000 203.586
43.80000 199.685
43.84000 210.769
43.88000 195.492
43.92000 196.895
43.96000 196.745
44.00000 209.987
44.04000 200.914
44.08000 202.344
44.12000 203.902
44.16000 211.698
44.20000 220.900
44.24000 207.161
44.28000 219.034
44.32000 227.638
44.36000 222.308
44.40000 213.358
44.44000 218.237
44.48000 238.121
44.52000 263.148
44.56000 263.452
44.60000 272.605
44.64000 281.729
44.68000 292.567
44.72000 310.547
44.76000 362.947
44.80000 364.772
44.84000 397.775
44.88000 408.418
44.92000 432.718
44.96000 425.980
45.00000 442.950
45.04000 431.918
45.08000 407.092
45.12000 377.932
45.16000 370.713
45.20000 363.673
45.24000 331.219
45.28000 301.377
45.32000 286.103
45.36000 267.112
45.40000 270.675
45.44000 271.832
45.48000 226.059
45.52000 244.113
45.56000 239.992
45.60000 227.131
45.64000 220.353
45.68000 211.876
45.72000 218.372
45.76000 208.643
45.80000 199.175
45.84000 207.409
45.88000 200.215
45.92000 197.845
45.96000 198.246
46.00000 189.156
46.04000 198.073
46.08000 192.773
46.12000 181.653
46.16000 168.282
46.20000 190.073
46.24000 182.978
46.28000 182.011
46.32000 178.212
46.36000 176.059
46.40000 184.239
46.44000 177.306
46.48000 179.876
46.52000 182.339
46.56000 179.236
46.60000 178.353
46.64000 173.706
46.68000 170.239
46.72000 187.931
46.76000 183.512
46.80000 174.574
46.84000 174.795
46.88000 172.516
46.92000 165.975
46.96000 177.673
47.00000 170.408
47.04000 174.907
47.08000 172.026
47.12000 169.430
47.16000 172.980
47.20000 176.790
47.24000 173.261
47.28000 182.117
47.32000 163.554
47.36000 172.440
47.40000 170.440
47.44000 163.863
47.48000 167.877
47.52000 161.405
47.56000 173.399
47.60000 169.441
47.64000 169.398
47.68000 173.846
47.72000 174.020
47.76000 159.254
47.80000 166.912
47.84000 169.069
47.88000 165.878
47.92000 155.628
47.96000 161.206
48.00000 174.438
48.04000 165.659
48.08000 155.555
48.12000 164.493
48.16000 175.289
48.20000 159.667
48.24000 169.830
48.28000 184.643
48.32000 170.312
48.36000 172.085
48.40000 169.738
48.44000 168.511
48.48000 160.986
48.52000 168.943
48.56000 165.344
48.60000 165.344
48.64000 157.434
48.68000 171.062
48.72000 162.823
48.76000 157.587
48.80000 162.774
48.84000 165.447
48.88000 151.722
48.92000 166.677
48.96000 170.806
49.00000 156.271
49.04000 164.889
49.08000 168.070
49.12000 166.600
49.16000 160.641
49.20000 171.075
49.24000 154.802
49.28000 155.312
49.32000 165.957
49.36000 154.090
49.40000 158.137
49.44000 157.443
49.48000 158.440
49.52000 179.943
49.56000 160.117
49.60000 153.829
49.64000 162.696
49.68000 157.985
49.72000 159.343
49.76000 157.954
49.80000 163.570
49.84000 164.775
49.88000 165.321
49.92000 156.366
49.96000 172.963
50.00000 165.321
50.04000 167.549
50.08000 161.195
50.12000 173.912
50.16000 174.853
50.20000 180.021
50.24000 177.057
50.28000 187.320
50.32000 191.732
50.36000 204.332
50.40000 213.176
50.44000 229.545
50.48000 241.818
50.52000 255.164
50.56000 247.215
50.60000 244.710
50.64000 249.273
50.68000 239.889
50.72000 245.219
50.76000 240.947
50.80000 234.116
50.84000 218.534
50.88000 201.717
50.92000 207.650
50.96000 192.320
51.00000 177.711
51.04000 178.231
51.08000 177.618
51.12000 178.316
51.16000 163.706
51.20000 156.675
51.24000 156.091
51.28000 165.634
51.32000 157.610
51.36000 150.208
51.40000 147.440
51.44000 158.785
51.48000 160.471
51.52000 156.887
51.56000 153.030
51.60000 136.441
51.64000 145.285
51.68000 139.897
51.72000 141.365
51.76000 146.330
51.80000 144.019
51.84000 154.153
51.88000 149.619
51.92000 148.489
51.96000 145.739
52.00000 138.596
52.04000 138.855
52.08000 143.342
52.12000 149.329
52.16000 140.725
52.20000 144.660
52.24000 137.064
52.28000 151.264
52.32000 142.542
52.36000 142.655
52.40000 146.380
52.44000 151.746
52.48000 146.916
52.52000 144.057
52.56000 144.746
52.60000 149.907
52.64000 141.674
52.68000 143.725
52.72000 140.397
52.76000 152.506
52.80000 146.404
52.84000 153.083
52.88000 140.507
52.92000 141.854
52.96000 143.961
53.00000 148.101
53.04000 144.353
53.08000 154.024
53.12000 147.555
53.16000 151.216
53.20000 154.006
53.24000 154.825
53.28000 154.968
53.32000 161.353
53.36000 145.266
53.40000 156.738
53.44000 156.158
53.48000 158.395
53.52000 157.044
53.56000 137.796
53.60000 152.677
53.64000 146.784
53.68000 146.066
53.72000 152.736
53.76000 151.384
53.80000 147.512
53.84000 149.240
53.88000 139.289
53.92000 150.018
53.96000 138.305
54.00000 146.414
54.04000 150.163
54.08000 141.443
54.12000 149.404
54.16000 148.720
54.20000 138.788
54.24000 153.848
54.28000 148.859
54.32000 155.126
54.36000 139.772
54.40000 157.791
54.44000 138.095
54.48000 136.015
54.52000 157.160
54.56000 151.550
54.60000 139.472
54.64000 137.565
54.68000 143.036
54.72000 138.587
54.76000 145.455
54.80000 140.790
54.84000 150.944
54.88000 154.699
54.92000 151.145
54.96000 151.365
55.00000 150.065
55.04000 157.738
55.08000 158.678
55.12000 156.137
55.16000 164.320
55.20000 157.509
55.24000 167.107
55.28000 173.814
55.32000 189.022
55.36000 187.256
55.40000 189.464
55.44000 200.880
55.48000 230.929
55.52000 247.906
55.56000 290.994
55.60000 311.032
55.64000 356.213
55.68000 405.500
55.72000 438.675
55.76000 439.949
55.80000 513.344
55.84000 516.145
55.88000 517.776
55.92000 516.577
55.96000 480.679
56.00000 444.022
56.04000 404.143
56.08000 364.318
56.12000 332.149
56.16000 295.717
56.20000 262.597
56.24000 249.403
56.28000 226.303
56.32000 208.907
56.36000 200.058
56.40000 187.059
56.44000 176.786
56.48000 183.274
56.52000 164.097
56.56000 155.371
56.60000 158.805
56.64000 151.673
56.68000 148.947
56.72000 143.820
56.76000 137.750
56.80000 140.966
56.84000 135.290
56.88000 139.483
56.92000 141.177
56.96000 132.684
57.00000 125.695
57.04000 135.098
57.08000 142.598
57.12000 131.878
57.16000 139.051
57.20000 134.696
57.24000 129.325
57.28000 132.606
57.32000 129.459
57.36000 131.555
57.40000 139.553
57.44000 125.213
57.48000 117.814
57.52000 132.401
57.56000 129.867
57.60000 140.061
57.64000 118.943
57.68000 131.550
57.72000 122.274
57.76000 128.937
57.80000 121.626
57.84000 124.994
57.88000 125.872
57.92000 124.532
57.96000 124.843
58.00000 133.574
58.04000 125.913
58.08000 118.872
58.12000 119.926
58.16000 124.676
58.20000 135.861
58.24000 126.676
58.28000 131.722
58.32000 120.564
58.36000 119.514
58.40000 131.155
58.44000 129.201
58.48000 127.941
58.52000 126.508
58.56000 126.460
58.60000 114.577
58.64000 119.679
58.68000 132.143
58.72000 115.219
58.76000 122.684
58.80000 123.510
58.84000 124.457
58.88000 115.492
58.92000 121.658
58.96000 122.334
59.00000 124.722
59.04000 116.959
59.08000 120.378
59.12000 121.695
59.16000 122.264
59.20000 122.917
59.24000 117.187
59.28000 117.989
59.32000 120.934
59.36000 122.253
59.40000 123.778
59.44000 122.975
59.48000 115.509
59.52000 118.402
59.56000 131.946
59.60000 127.447
59.64000 120.198
59.68000 125.074
59.72000 110.588
59.76000 105.810
59.80000 128.787
59.84000 128.410
59.88000 127.248
59.92000 122.848
59.96000 127.356
60.00000 119.823
60.04000 115.801
60.08000 122.107
60.12000 122.902
60.16000 117.823
60.20000 124.110
60.24000 120.711
60.28000 117.302
60.32000 110.534
60.36000 122.483
60.40000 127.858
60.44000 129.197
60.48000 119.504
60.52000 118.067
60.56000 130.609
60.60000 115.747
60.64000 116.639
60.68000 121.986
60.72000 123.091
60.76000 128.027
60.80000 115.813
60.84000 129.050
60.88000 113.470
60.92000 118.408
60.96000 124.670
61.00000 119.284
61.04000 126.822
61.08000 135.603
61.12000 119.728
61.16000 129.979
61.20000 133.908
61.24000 117.039
61.28000 122.721
61.32000 127.537
61.36000 140.117
61.40000 122.044
61.44000 138.671
61.48000 148.163
61.52000 195.869
61.56000 264.324
61.60000 353.809
61.64000 412.134
61.68000 420.595
61.72000 423.074
61.76000 399.528
61.80000 313.425
61.84000 224.813
61.88000 165.042
61.92000 153.153
61.96000 144.864
62.00000 143.974
62.04000 138.421
62.08000 136.076
62.12000 139.854
62.16000 145.376
62.20000 134.936
62.24000 141.523
62.28000 139.132
62.32000 135.338
62.36000 146.116
62.40000 146.968
62.44000 142.430
62.48000 138.383
62.52000 143.277
62.56000 137.177
62.60000 136.693
62.64000 138.559
62.68000 135.452
62.72000 137.206
62.76000 126.143
62.80000 141.236
62.84000 140.712
62.88000 138.388
62.92000 143.666
62.96000 139.996
63.00000 144.336
63.04000 138.812
63.08000 146.468
63.12000 147.572
63.16000 147.585
63.20000 139.529
63.24000 159.937
63.28000 150.965
63.32000 143.216
63.36000 141.073
63.40000 142.599
63.44000 142.667
63.48000 144.246
63.52000 144.451
63.56000 150.642
63.60000 141.075
63.64000 144.705
63.68000 141.335
63.72000 150.718
63.76000 141.662
63.80000 154.600
63.84000 138.837
63.88000 152.044
63.92000 157.182
63.96000 156.743
64.00000 160.361
64.04000 164.065
64.08000 154.094
64.12000 162.848
64.16000 152.030
64.20000 166.596
64.24000 164.890
64.28000 162.616
64.32000 163.936
64.36000 163.398
64.40000 169.909
64.44000 178.555
64.48000 182.255
64.52000 177.549
64.56000 172.432
64.60000 182.231
64.64000 180.938
64.68000 192.833
64.72000 178.453
64.76000 182.261
64.80000 201.866
64.84000 190.911
64.88000 203.736
64.92000 211.478
64.96000 212.068
65.00000 226.178
65.04000 234.828
65.08000 250.368
65.12000 268.212
65.16000 302.702
65.20000 321.398
65.24000 337.399
65.28000 379.528
65.32000 408.098
65.36000 445.342
65.40000 488.538
65.44000 510.397
65.48000 542.703
65.52000 598.896
65.56000 593.476
65.60000 648.914
65.64000 729.589
65.68000 1014.016
65.72000 1534.747
65.76000 2315.544
65.80000 3029.034
65.84000 3299.512
65.88000 3332.453
65.92000 3145.339
65.96000 2525.033
66.00000 1697.746
66.04000 1008.301
66.08000 690.227
66.12000 586.112
66.16000 524.306
66.20000 520.128
66.24000 542.093
66.28000 654.369
66.32000 798.380
66.36000 925.817
66.40000 957.741
66.44000 938.465
66.48000 903.962
66.52000 776.420
66.56000 619.250
66.60000 540.079
66.64000 482.222
66.68000 454.163
66.72000 458.398
66.76000 462.650
66.80000 459.657
66.84000 454.305
66.88000 460.299
66.92000 468.756
66.96000 476.389
67.00000 468.933
67.04000 487.962
67.08000 501.785
67.12000 490.635
67.16000 494.672
67.20000 493.903
67.24000 510.098
67.28000 527.249
67.32000 518.901
67.36000 525.253
67.40000 538.883
67.44000 550.078
67.48000 556.576
67.52000 563.103
67.56000 551.111
67.60000 576.410
67.64000 566.547
67.68000 567.611
67.72000 564.996
67.76000 591.368
67.80000 596.356
67.84000 600.979
67.88000 630.343
67.92000 636.469
67.96000 607.621
68.00000 639.520
68.04000 656.310
68.08000 660.124
68.12000 659.882
68.16000 697.250
68.20000 685.862
68.24000 708.466
68.28000 726.817
68.32000 767.150
68.36000 790.896
68.40000 832.592
68.44000 866.424
68.48000 898.478
68.52000 937.042
68.56000 1014.221
68.60000 1171.667
68.64000 1422.231
68.68000 1663.472
68.72000 1973.509
68.76000 2268.061
68.80000 2644.704
68.84000 3105.878
68.88000 4106.406
68.92000 7156.147
68.96000 17287.270
69.00000 38872.145
69.04000 61899.590
69.08000 74215.398
69.12000 79519.094
69.16000 83772.859
69.20000 81181.195
69.24000 67058.938
69.28000 51007.441
69.32000 40755.473
69.36000 37546.602
69.40000 30594.695
69.44000 19066.465
69.48000 8634.300
69.52000 3729.394
69.56000 2084.266
69.60000 1584.664
69.64000 1319.793
69.68000 1123.694
69.72000 1002.032
69.76000 917.526
69.80000 805.356
69.84000 777.802
69.88000 712.012
69.92000 665.645
69.96000 637.009
70.00000 583.864