File: XRD/09-10-2025 Dep 8/XY Data/BTO_Mapping_Theta2Theta_09-10-2025_001_28_-24-271_17-634.xy
20.00000 486.465
20.04000 488.051
20.08000 488.275
20.12000 485.093
20.16000 498.422
20.20000 478.124
20.24000 481.807
20.28000 503.203
20.32000 471.898
20.36000 490.493
20.40000 478.659
20.44000 487.292
20.48000 497.614
20.52000 475.778
20.56000 466.261
20.60000 489.671
20.64000 490.065
20.68000 472.628
20.72000 474.942
20.76000 491.583
20.80000 500.848
20.84000 479.981
20.88000 469.626
20.92000 478.134
20.96000 488.681
21.00000 492.246
21.04000 496.700
21.08000 495.192
21.12000 493.628
21.16000 472.397
21.20000 489.412
21.24000 482.663
21.28000 476.242
21.32000 483.148
21.36000 464.569
21.40000 488.688
21.44000 484.387
21.48000 471.406
21.52000 484.535
21.56000 485.117
21.60000 496.693
21.64000 487.369
21.68000 511.399
21.72000 506.452
21.76000 522.285
21.80000 537.136
21.84000 547.521
21.88000 571.369
21.92000 610.878
21.96000 658.580
22.00000 668.888
22.04000 693.028
22.08000 675.503
22.12000 672.055
22.16000 666.068
22.20000 612.031
22.24000 589.478
22.28000 587.304
22.32000 547.021
22.36000 527.229
22.40000 497.834
22.44000 495.645
22.48000 476.571
22.52000 483.945
22.56000 466.061
22.60000 493.402
22.64000 468.688
22.68000 465.366
22.72000 470.835
22.76000 452.913
22.80000 440.477
22.84000 430.002
22.88000 455.461
22.92000 467.986
22.96000 438.276
23.00000 438.854
23.04000 441.733
23.08000 460.905
23.12000 446.494
23.16000 435.934
23.20000 430.325
23.24000 441.078
23.28000 433.816
23.32000 432.509
23.36000 460.674
23.40000 449.758
23.44000 455.561
23.48000 437.477
23.52000 423.442
23.56000 411.009
23.60000 405.460
23.64000 419.517
23.68000 435.914
23.72000 418.170
23.76000 414.926
23.80000 429.831
23.84000 443.239
23.88000 423.606
23.92000 419.135
23.96000 421.371
24.00000 428.983
24.04000 447.658
24.08000 435.753
24.12000 428.211
24.16000 406.692
24.20000 430.250
24.24000 433.197
24.28000 428.686
24.32000 417.360
24.36000 416.070
24.40000 418.070
24.44000 421.424
24.48000 422.456
24.52000 412.194
24.56000 414.956
24.60000 419.869
24.64000 409.503
24.68000 427.124
24.72000 421.168
24.76000 414.575
24.80000 405.306
24.84000 423.606
24.88000 389.850
24.92000 404.518
24.96000 407.017
25.00000 432.925
25.04000 413.578
25.08000 400.353
25.12000 406.255
25.16000 408.324
25.20000 412.428
25.24000 413.758
25.28000 405.860
25.32000 403.990
25.36000 398.672
25.40000 413.965
25.44000 406.943
25.48000 393.720
25.52000 420.573
25.56000 395.570
25.60000 408.545
25.64000 386.134
25.68000 399.966
25.72000 402.272
25.76000 415.857
25.80000 413.468
25.84000 398.606
25.88000 405.581
25.92000 403.658
25.96000 406.176
26.00000 408.800
26.04000 393.135
26.08000 391.987
26.12000 399.658
26.16000 405.011
26.20000 387.334
26.24000 392.384
26.28000 395.996
26.32000 401.347
26.36000 403.171
26.40000 392.072
26.44000 384.247
26.48000 378.140
26.52000 389.603
26.56000 410.055
26.60000 386.672
26.64000 410.688
26.68000 380.360
26.72000 376.935
26.76000 411.685
26.80000 396.369
26.84000 391.064
26.88000 382.268
26.92000 379.432
26.96000 388.369
27.00000 395.457
27.04000 384.823
27.08000 390.915
27.12000 388.349
27.16000 398.220
27.20000 390.047
27.24000 372.599
27.28000 374.097
27.32000 376.465
27.36000 365.097
27.40000 379.352
27.44000 373.598
27.48000 378.173
27.52000 370.800
27.56000 379.255
27.60000 383.791
27.64000 390.345
27.68000 398.474
27.72000 375.589
27.76000 380.769
27.80000 401.465
27.84000 381.058
27.88000 377.462
27.92000 345.944
27.96000 372.035
28.00000 398.535
28.04000 374.876
28.08000 372.702
28.12000 384.606
28.16000 363.191
28.20000 370.969
28.24000 383.867
28.28000 402.604
28.32000 389.435
28.36000 382.494
28.40000 382.809
28.44000 363.793
28.48000 361.922
28.52000 391.717
28.56000 367.246
28.60000 365.533
28.64000 355.545
28.68000 369.119
28.72000 364.340
28.76000 363.875
28.80000 353.931
28.84000 357.652
28.88000 355.504
28.92000 375.742
28.96000 357.335
29.00000 349.576
29.04000 366.128
29.08000 354.920
29.12000 373.560
29.16000 369.580
29.20000 364.019
29.24000 353.226
29.28000 355.622
29.32000 370.615
29.36000 350.225
29.40000 350.163
29.44000 370.448
29.48000 380.938
29.52000 375.941
29.56000 355.581
29.60000 361.036
29.64000 378.181
29.68000 370.456
29.72000 382.124
29.76000 385.711
29.80000 378.973
29.84000 391.766
29.88000 406.367
29.92000 421.042
29.96000 436.848
30.00000 445.907
30.04000 461.416
30.08000 457.719
30.12000 458.427
30.16000 442.782
30.20000 419.842
30.24000 428.108
30.28000 397.087
30.32000 399.817
30.36000 379.014
30.40000 394.913
30.44000 396.341
30.48000 387.859
30.52000 392.742
30.56000 395.029
30.60000 416.665
30.64000 419.082
30.68000 416.537
30.72000 398.302
30.76000 392.440
30.80000 430.322
30.84000 424.785
30.88000 428.903
30.92000 462.996
30.96000 472.958
31.00000 512.790
31.04000 579.420
31.08000 653.167
31.12000 814.367
31.16000 1012.263
31.20000 1280.235
31.24000 1649.281
31.28000 2096.125
31.32000 2523.594
31.36000 2867.017
31.40000 2974.028
31.44000 2975.544
31.48000 2747.369
31.52000 2346.610
31.56000 1926.755
31.60000 1532.476
31.64000 1163.154
31.68000 969.872
31.72000 756.011
31.76000 664.023
31.80000 573.632
31.84000 504.067
31.88000 454.745
31.92000 432.068
31.96000 398.632
32.00000 404.512
32.04000 380.359
32.08000 375.070
32.12000 364.048
32.16000 370.590
32.20000 358.195
32.24000 363.132
32.28000 335.133
32.32000 358.513
32.36000 349.875
32.40000 348.899
32.44000 328.003
32.48000 343.101
32.52000 349.146
32.56000 335.846
32.60000 334.660
32.64000 339.229
32.68000 341.971
32.72000 335.245
32.76000 338.677
32.80000 321.519
32.84000 335.895
32.88000 315.226
32.92000 323.492
32.96000 325.097
33.00000 318.343
33.04000 322.141
33.08000 333.635
33.12000 314.388
33.16000 303.750
33.20000 296.217
33.24000 310.986
33.28000 306.916
33.32000 309.063
33.36000 302.939
33.40000 316.152
33.44000 293.944
33.48000 301.942
33.52000 296.638
33.56000 287.358
33.60000 284.967
33.64000 289.926
33.68000 292.471
33.72000 286.387
33.76000 298.047
33.80000 286.915
33.84000 299.870
33.88000 289.455
33.92000 316.478
33.96000 303.567
34.00000 297.558
34.04000 290.997
34.08000 289.237
34.12000 304.031
34.16000 299.094
34.20000 290.399
34.24000 302.494
34.28000 285.275
34.32000 273.024
34.36000 298.396
34.40000 285.478
34.44000 267.407
34.48000 287.143
34.52000 286.330
34.56000 299.029
34.60000 289.945
34.64000 275.770
34.68000 281.001
34.72000 277.275
34.76000 282.947
34.80000 288.671
34.84000 280.919
34.88000 291.951
34.92000 277.778
34.96000 281.958
35.00000 290.878
35.04000 280.972
35.08000 276.619
35.12000 279.602
35.16000 272.512
35.20000 277.721
35.24000 286.749
35.28000 270.595
35.32000 269.656
35.36000 272.313
35.40000 267.789
35.44000 275.656
35.48000 278.384
35.52000 265.510
35.56000 280.719
35.60000 271.418
35.64000 272.096
35.68000 268.922
35.72000 277.599
35.76000 268.683
35.80000 259.716
35.84000 270.470
35.88000 275.601
35.92000 267.340
35.96000 257.117
36.00000 260.490
36.04000 271.147
36.08000 256.964
36.12000 253.468
36.16000 266.224
36.20000 254.447
36.24000 264.613
36.28000 269.424
36.32000 265.489
36.36000 265.780
36.40000 273.541
36.44000 272.985
36.48000 275.514
36.52000 252.620
36.56000 260.481
36.60000 254.281
36.64000 254.044
36.68000 259.347
36.72000 255.888
36.76000 270.147
36.80000 264.048
36.84000 276.947
36.88000 267.838
36.92000 282.661
36.96000 285.772
37.00000 287.419
37.04000 286.559
37.08000 286.067
37.12000 275.249
37.16000 258.093
37.20000 269.736
37.24000 266.170
37.28000 272.214
37.32000 263.270
37.36000 255.950
37.40000 270.402
37.44000 260.471
37.48000 259.304
37.52000 269.777
37.56000 253.043
37.60000 264.444
37.64000 258.448
37.68000 266.240
37.72000 269.626
37.76000 255.205
37.80000 268.485
37.84000 272.842
37.88000 264.698
37.92000 266.526
37.96000 273.276
38.00000 264.119
38.04000 273.498
38.08000 272.871
38.12000 274.001
38.16000 274.864
38.20000 282.807
38.24000 273.495
38.28000 300.734
38.32000 313.820
38.36000 322.739
38.40000 353.369
38.44000 381.819
38.48000 444.079
38.52000 544.594
38.56000 625.577
38.60000 735.059
38.64000 801.309
38.68000 885.656
38.72000 911.132
38.76000 894.525
38.80000 820.476
38.84000 721.962
38.88000 619.276
38.92000 520.809
38.96000 435.008
39.00000 361.983
39.04000 339.323
39.08000 306.074
39.12000 288.570
39.16000 274.885
39.20000 272.140
39.24000 268.462
39.28000 265.193
39.32000 238.592
39.36000 235.966
39.40000 243.176
39.44000 257.014
39.48000 245.601
39.52000 254.851
39.56000 255.029
39.60000 254.154
39.64000 238.572
39.68000 234.265
39.72000 243.840
39.76000 232.280
39.80000 246.293
39.84000 240.829
39.88000 224.953
39.92000 237.628
39.96000 238.467
40.00000 239.461
40.04000 231.168
40.08000 229.502
40.12000 236.151
40.16000 239.916
40.20000 230.092
40.24000 231.580
40.28000 230.030
40.32000 228.086
40.36000 219.045
40.40000 229.001
40.44000 220.703
40.48000 213.211
40.52000 223.406
40.56000 214.309
40.60000 226.259
40.64000 218.742
40.68000 229.747
40.72000 228.136
40.76000 216.459
40.80000 227.086
40.84000 211.822
40.88000 209.864
40.92000 220.150
40.96000 217.888
41.00000 218.730
41.04000 210.241
41.08000 234.783
41.12000 225.159
41.16000 222.137
41.20000 220.204
41.24000 213.778
41.28000 223.441
41.32000 199.195
41.36000 217.946
41.40000 215.614
41.44000 209.773
41.48000 215.834
41.52000 199.091
41.56000 219.412
41.60000 196.038
41.64000 212.567
41.68000 209.842
41.72000 221.977
41.76000 213.232
41.80000 212.939
41.84000 213.593
41.88000 210.867
41.92000 194.071
41.96000 205.969
42.00000 212.633
42.04000 222.580
42.08000 215.058
42.12000 207.945
42.16000 204.633
42.20000 200.582
42.24000 212.750
42.28000 215.413
42.32000 198.185
42.36000 208.236
42.40000 204.056
42.44000 203.993
42.48000 200.532
42.52000 209.928
42.56000 192.177
42.60000 209.641
42.64000 211.070
42.68000 215.349
42.72000 196.924
42.76000 210.223
42.80000 193.579
42.84000 198.114
42.88000 209.074
42.92000 205.836
42.96000 205.603
43.00000 209.749
43.04000 203.760
43.08000 198.016
43.12000 209.811
43.16000 201.748
43.20000 216.021
43.24000 203.061
43.28000 202.096
43.32000 201.523
43.36000 205.556
43.40000 196.049
43.44000 205.411
43.48000 221.152
43.52000 201.337
43.56000 195.876
43.60000 204.462
43.64000 201.098
43.68000 202.055
43.72000 203.488
43.76000 201.592
43.80000 183.453
43.84000 192.813
43.88000 193.789
43.92000 190.959
43.96000 196.866
44.00000 193.546
44.04000 197.731
44.08000 202.982
44.12000 183.076
44.16000 210.059
44.20000 200.770
44.24000 209.507
44.28000 216.745
44.32000 204.625
44.36000 202.766
44.40000 224.581
44.44000 209.570
44.48000 216.121
44.52000 209.029
44.56000 222.991
44.60000 220.747
44.64000 225.836
44.68000 244.487
44.72000 234.136
44.76000 255.527
44.80000 265.220
44.84000 262.713
44.88000 312.882
44.92000 332.107
44.96000 362.317
45.00000 375.650
45.04000 383.043
45.08000 394.416
45.12000 374.273
45.16000 396.252
45.20000 361.676
45.24000 333.858
45.28000 316.414
45.32000 313.795
45.36000 294.210
45.40000 280.051
45.44000 251.867
45.48000 253.890
45.52000 244.673
45.56000 226.968
45.60000 220.496
45.64000 218.713
45.68000 224.477
45.72000 220.241
45.76000 219.095
45.80000 200.627
45.84000 198.383
45.88000 198.739
45.92000 193.350
45.96000 188.929
46.00000 192.472
46.04000 191.362
46.08000 193.221
46.12000 197.313
46.16000 179.758
46.20000 193.340
46.24000 185.089
46.28000 176.118
46.32000 168.761
46.36000 171.016
46.40000 176.592
46.44000 170.123
46.48000 175.259
46.52000 164.440
46.56000 185.883
46.60000 181.969
46.64000 181.301
46.68000 181.007
46.72000 179.864
46.76000 165.812
46.80000 173.863
46.84000 179.570
46.88000 174.999
46.92000 172.974
46.96000 179.016
47.00000 166.189
47.04000 159.273
47.08000 166.239
47.12000 177.538
47.16000 164.930
47.20000 176.304
47.24000 177.188
47.28000 157.806
47.32000 164.685
47.36000 166.695
47.40000 172.315
47.44000 168.155
47.48000 169.608
47.52000 169.274
47.56000 169.686
47.60000 170.959
47.64000 160.437
47.68000 167.364
47.72000 155.269
47.76000 166.253
47.80000 162.292
47.84000 162.853
47.88000 155.959
47.92000 164.911
47.96000 163.920
48.00000 179.309
48.04000 167.429
48.08000 164.338
48.12000 160.738
48.16000 170.580
48.20000 164.011
48.24000 162.650
48.28000 174.573
48.32000 174.715
48.36000 170.250
48.40000 172.423
48.44000 168.439
48.48000 164.072
48.52000 155.754
48.56000 169.775
48.60000 159.733
48.64000 167.628
48.68000 157.343
48.72000 166.748
48.76000 160.555
48.80000 177.995
48.84000 159.500
48.88000 153.939
48.92000 165.108
48.96000 171.742
49.00000 161.946
49.04000 166.151
49.08000 158.598
49.12000 146.638
49.16000 155.414
49.20000 161.228
49.24000 162.047
49.28000 152.335
49.32000 163.965
49.36000 161.146
49.40000 161.377
49.44000 163.233
49.48000 153.684
49.52000 150.385
49.56000 144.817
49.60000 153.982
49.64000 161.015
49.68000 157.512
49.72000 152.096
49.76000 157.225
49.80000 149.712
49.84000 144.076
49.88000 156.234
49.92000 159.758
49.96000 161.428
50.00000 151.458
50.04000 148.641
50.08000 153.845
50.12000 159.698
50.16000 162.844
50.20000 173.971
50.24000 162.623
50.28000 162.482
50.32000 159.650
50.36000 182.737
50.40000 187.141
50.44000 177.626
50.48000 194.693
50.52000 207.391
50.56000 210.510
50.60000 219.575
50.64000 245.474
50.68000 241.747
50.72000 239.310
50.76000 243.786
50.80000 265.623
50.84000 250.940
50.88000 228.247
50.92000 212.438
50.96000 200.192
51.00000 197.769
51.04000 205.080
51.08000 197.916
51.12000 167.786
51.16000 175.932
51.20000 171.036
51.24000 161.443
51.28000 164.736
51.32000 168.915
51.36000 144.884
51.40000 165.046
51.44000 169.331
51.48000 161.942
51.52000 148.466
51.56000 143.322
51.60000 159.126
51.64000 148.255
51.68000 144.594
51.72000 145.909
51.76000 147.301
51.80000 148.884
51.84000 153.936
51.88000 137.860
51.92000 149.540
51.96000 153.728
52.00000 142.975
52.04000 140.932
52.08000 148.171
52.12000 130.156
52.16000 144.749
52.20000 149.822
52.24000 148.647
52.28000 151.433
52.32000 150.760
52.36000 142.678
52.40000 140.281
52.44000 145.071
52.48000 149.647
52.52000 143.888
52.56000 129.152
52.60000 136.286
52.64000 136.787
52.68000 137.112
52.72000 140.088
52.76000 148.697
52.80000 147.209
52.84000 145.355
52.88000 137.750
52.92000 145.396
52.96000 141.342
53.00000 137.610
53.04000 130.923
53.08000 151.344
53.12000 150.010
53.16000 152.142
53.20000 151.210
53.24000 151.345
53.28000 153.264
53.32000 158.659
53.36000 154.604
53.40000 155.284
53.44000 158.693
53.48000 155.197
53.52000 151.037
53.56000 154.430
53.60000 160.632
53.64000 147.937
53.68000 147.309
53.72000 148.897
53.76000 140.424
53.80000 133.749
53.84000 140.062
53.88000 149.192
53.92000 141.511
53.96000 142.916
54.00000 139.579
54.04000 147.514
54.08000 144.750
54.12000 142.638
54.16000 144.988
54.20000 144.864
54.24000 142.036
54.28000 145.869
54.32000 145.466
54.36000 139.295
54.40000 131.049
54.44000 143.320
54.48000 147.675
54.52000 139.951
54.56000 128.996
54.60000 131.977
54.64000 125.002
54.68000 143.811
54.72000 138.063
54.76000 141.024
54.80000 155.789
54.84000 147.615
54.88000 152.569
54.92000 155.057
54.96000 148.904
55.00000 151.418
55.04000 154.170
55.08000 150.205
55.12000 145.556
55.16000 143.844
55.20000 148.973
55.24000 156.569
55.28000 162.987
55.32000 162.300
55.36000 163.759
55.40000 167.042
55.44000 183.570
55.48000 177.219
55.52000 192.585
55.56000 200.181
55.60000 229.431
55.64000 252.457
55.68000 288.133
55.72000 320.925
55.76000 368.251
55.80000 459.826
55.84000 512.036
55.88000 567.425
55.92000 568.288
55.96000 595.507
56.00000 594.032
56.04000 567.088
56.08000 528.611
56.12000 481.910
56.16000 419.545
56.20000 385.563
56.24000 331.022
56.28000 283.785
56.32000 258.974
56.36000 225.037
56.40000 220.854
56.44000 194.803
56.48000 189.399
56.52000 181.197
56.56000 179.968
56.60000 159.678
56.64000 159.429
56.68000 152.605
56.72000 144.871
56.76000 143.774
56.80000 145.137
56.84000 143.500
56.88000 140.742
56.92000 137.797
56.96000 141.865
57.00000 125.060
57.04000 131.016
57.08000 137.984
57.12000 133.181
57.16000 132.196
57.20000 134.691
57.24000 135.011
57.28000 138.936
57.32000 133.419
57.36000 136.151
57.40000 132.963
57.44000 132.876
57.48000 134.032
57.52000 123.733
57.56000 124.232
57.60000 129.439
57.64000 137.600
57.68000 120.468
57.72000 134.324
57.76000 111.815
57.80000 125.377
57.84000 119.370
57.88000 136.891
57.92000 128.660
57.96000 120.936
58.00000 121.262
58.04000 122.800
58.08000 123.757
58.12000 120.752
58.16000 124.676
58.20000 121.671
58.24000 125.901
58.28000 125.197
58.32000 116.758
58.36000 126.057
58.40000 122.180
58.44000 125.518
58.48000 123.970
58.52000 125.453
58.56000 136.349
58.60000 121.946
58.64000 118.681
58.68000 130.511
58.72000 122.080
58.76000 122.717
58.80000 123.180
58.84000 114.037
58.88000 125.475
58.92000 122.515
58.96000 116.593
59.00000 127.679
59.04000 123.311
59.08000 131.292
59.12000 122.421
59.16000 122.069
59.20000 123.794
59.24000 123.045
59.28000 122.695
59.32000 122.538
59.36000 122.425
59.40000 118.387
59.44000 121.444
59.48000 122.019
59.52000 116.240
59.56000 122.735
59.60000 110.604
59.64000 114.088
59.68000 118.768
59.72000 117.357
59.76000 122.739
59.80000 118.240
59.84000 122.994
59.88000 111.501
59.92000 116.799
59.96000 117.468
60.00000 120.625
60.04000 121.024
60.08000 121.365
60.12000 115.672
60.16000 121.964
60.20000 122.878
60.24000 123.633
60.28000 123.627
60.32000 133.250
60.36000 115.816
60.40000 120.474
60.44000 122.002
60.48000 124.294
60.52000 119.116
60.56000 121.721
60.60000 128.699
60.64000 108.667
60.68000 118.661
60.72000 111.153
60.76000 108.210
60.80000 120.057
60.84000 122.905
60.88000 125.346
60.92000 128.465
60.96000 122.626
61.00000 122.972
61.04000 127.372
61.08000 120.714
61.12000 123.865
61.16000 125.495
61.20000 128.377
61.24000 128.013
61.28000 117.548
61.32000 126.528
61.36000 126.704
61.40000 135.223
61.44000 135.313
61.48000 172.178
61.52000 194.752
61.56000 289.124
61.60000 353.687
61.64000 403.419
61.68000 452.917
61.72000 462.590
61.76000 424.345
61.80000 320.181
61.84000 231.029
61.88000 171.246
61.92000 149.584
61.96000 147.889
62.00000 144.346
62.04000 139.497
62.08000 139.063
62.12000 137.382
62.16000 139.358
62.20000 127.102
62.24000 131.515
62.28000 137.369
62.32000 144.736
62.36000 134.577
62.40000 138.853
62.44000 140.255
62.48000 140.851
62.52000 138.670
62.56000 142.405
62.60000 144.216
62.64000 141.479
62.68000 143.383
62.72000 138.965
62.76000 140.141
62.80000 147.293
62.84000 137.934
62.88000 135.038
62.92000 144.719
62.96000 139.377
63.00000 134.483
63.04000 143.113
63.08000 147.420
63.12000 147.622
63.16000 142.177
63.20000 145.477
63.24000 150.683
63.28000 140.035
63.32000 136.977
63.36000 138.579
63.40000 139.765
63.44000 140.108
63.48000 145.211
63.52000 144.064
63.56000 148.493
63.60000 148.949
63.64000 139.861
63.68000 143.526
63.72000 151.036
63.76000 164.492
63.80000 150.178
63.84000 144.009
63.88000 157.159
63.92000 151.574
63.96000 157.440
64.00000 150.604
64.04000 155.105
64.08000 159.653
64.12000 164.686
64.16000 161.652
64.20000 169.328
64.24000 169.427
64.28000 161.093
64.32000 163.229
64.36000 177.790
64.40000 171.070
64.44000 172.999
64.48000 168.318
64.52000 179.143
64.56000 177.704
64.60000 167.260
64.64000 181.511
64.68000 185.835
64.72000 190.474
64.76000 191.908
64.80000 197.833
64.84000 204.230
64.88000 187.040
64.92000 205.161
64.96000 211.225
65.00000 209.945
65.04000 216.236
65.08000 229.244
65.12000 239.318
65.16000 246.799
65.20000 258.321
65.24000 282.207
65.28000 294.029
65.32000 300.800
65.36000 338.829
65.40000 364.895
65.44000 424.717
65.48000 439.369
65.52000 471.603
65.56000 512.271
65.60000 602.410
65.64000 704.397
65.68000 983.964
65.72000 1529.461
65.76000 2333.709
65.80000 3003.183
65.84000 3394.970
65.88000 3436.140
65.92000 3282.471
65.96000 2647.008
66.00000 1803.603
66.04000 1073.929
66.08000 729.074
66.12000 602.118
66.16000 550.805
66.20000 531.052
66.24000 585.056
66.28000 672.008
66.32000 815.356
66.36000 934.879
66.40000 959.656
66.44000 963.067
66.48000 931.783
66.52000 773.636
66.56000 643.454
66.60000 564.551
66.64000 497.735
66.68000 474.573
66.72000 458.228
66.76000 447.502
66.80000 451.535
66.84000 475.635
66.88000 490.463
66.92000 474.914
66.96000 479.546
67.00000 496.066
67.04000 502.211
67.08000 494.986
67.12000 497.899
67.16000 508.966
67.20000 546.879
67.24000 526.705
67.28000 534.176
67.32000 535.866
67.36000 551.363
67.40000 539.792
67.44000 555.907
67.48000 564.318
67.52000 549.077
67.56000 551.508
67.60000 576.368
67.64000 585.212
67.68000 590.993
67.72000 617.509
67.76000 598.692
67.80000 594.691
67.84000 618.465
67.88000 629.243
67.92000 624.421
67.96000 621.245
68.00000 639.817
68.04000 665.502
68.08000 684.797
68.12000 705.898
68.16000 713.529
68.20000 733.398
68.24000 719.423
68.28000 766.853
68.32000 800.045
68.36000 797.491
68.40000 834.669
68.44000 875.514
68.48000 918.973
68.52000 1005.069
68.56000 1067.771
68.60000 1197.249
68.64000 1451.924
68.68000 1735.829
68.72000 2000.496
68.76000 2382.749
68.80000 2791.359
68.84000 3249.691
68.88000 4396.713
68.92000 7572.403
68.96000 17384.529
69.00000 38911.141
69.04000 62197.020
69.08000 75766.906
69.12000 81274.844
69.16000 86203.094
69.20000 83975.758
69.24000 69700.508
69.28000 53976.613
69.32000 42601.707
69.36000 38772.641
69.40000 32031.990
69.44000 20106.867
69.48000 9527.830
69.52000 4167.766
69.56000 2264.206
69.60000 1647.145
69.64000 1359.627
69.68000 1159.803
69.72000 999.867
69.76000 928.866
69.80000 811.677
69.84000 770.347
69.88000 720.256
69.92000 684.803
69.96000 638.056
70.00000 626.562