File: XRD/09-10-2025 Dep 8/XY Data/BTO_Mapping_Theta2Theta_09-10-2025_001_37_-39-126_-8-316.xy
20.00000 510.866
20.04000 495.387
20.08000 486.094
20.12000 496.922
20.16000 497.510
20.20000 482.230
20.24000 472.100
20.28000 480.878
20.32000 475.754
20.36000 486.534
20.40000 493.318
20.44000 477.259
20.48000 488.316
20.52000 491.322
20.56000 483.346
20.60000 501.537
20.64000 490.175
20.68000 482.560
20.72000 479.002
20.76000 495.616
20.80000 485.250
20.84000 495.097
20.88000 487.243
20.92000 487.324
20.96000 479.793
21.00000 500.952
21.04000 488.054
21.08000 505.936
21.12000 498.943
21.16000 476.338
21.20000 480.973
21.24000 499.690
21.28000 495.701
21.32000 489.237
21.36000 490.041
21.40000 499.005
21.44000 474.962
21.48000 494.484
21.52000 510.051
21.56000 515.256
21.60000 498.843
21.64000 519.129
21.68000 530.418
21.72000 550.850
21.76000 563.052
21.80000 623.345
21.84000 692.551
21.88000 737.873
21.92000 784.391
21.96000 813.961
22.00000 824.496
22.04000 795.330
22.08000 772.896
22.12000 728.048
22.16000 692.851
22.20000 629.843
22.24000 596.055
22.28000 554.583
22.32000 569.200
22.36000 510.310
22.40000 505.944
22.44000 508.603
22.48000 484.542
22.52000 473.376
22.56000 496.713
22.60000 453.997
22.64000 470.038
22.68000 463.512
22.72000 453.360
22.76000 465.377
22.80000 454.638
22.84000 467.728
22.88000 457.876
22.92000 455.737
22.96000 463.827
23.00000 454.750
23.04000 440.503
23.08000 450.922
23.12000 441.829
23.16000 462.694
23.20000 470.126
23.24000 438.457
23.28000 462.398
23.32000 451.841
23.36000 455.281
23.40000 451.608
23.44000 434.461
23.48000 458.293
23.52000 432.446
23.56000 428.288
23.60000 435.753
23.64000 442.439
23.68000 440.563
23.72000 447.980
23.76000 430.049
23.80000 439.267
23.84000 425.971
23.88000 437.429
23.92000 420.092
23.96000 449.322
24.00000 430.138
24.04000 428.215
24.08000 435.679
24.12000 426.558
24.16000 427.424
24.20000 419.901
24.24000 449.508
24.28000 430.592
24.32000 430.752
24.36000 437.151
24.40000 415.384
24.44000 414.127
24.48000 423.882
24.52000 426.846
24.56000 420.635
24.60000 426.032
24.64000 421.236
24.68000 430.704
24.72000 435.399
24.76000 429.459
24.80000 408.614
24.84000 418.907
24.88000 402.102
24.92000 424.593
24.96000 422.540
25.00000 411.934
25.04000 422.385
25.08000 421.213
25.12000 423.019
25.16000 432.028
25.20000 422.172
25.24000 419.542
25.28000 428.505
25.32000 407.414
25.36000 419.713
25.40000 419.394
25.44000 404.067
25.48000 402.365
25.52000 400.362
25.56000 404.745
25.60000 414.588
25.64000 420.287
25.68000 417.829
25.72000 402.371
25.76000 391.076
25.80000 408.343
25.84000 402.606
25.88000 406.567
25.92000 406.716
25.96000 411.646
26.00000 414.807
26.04000 414.014
26.08000 398.213
26.12000 407.357
26.16000 400.625
26.20000 404.952
26.24000 402.087
26.28000 405.024
26.32000 409.160
26.36000 383.543
26.40000 400.287
26.44000 410.010
26.48000 406.524
26.52000 407.057
26.56000 377.011
26.60000 394.431
26.64000 397.199
26.68000 402.463
26.72000 410.090
26.76000 398.178
26.80000 409.050
26.84000 408.683
26.88000 400.781
26.92000 405.571
26.96000 392.227
27.00000 382.544
27.04000 388.553
27.08000 380.046
27.12000 399.296
27.16000 384.290
27.20000 397.098
27.24000 401.335
27.28000 395.909
27.32000 374.267
27.36000 400.185
27.40000 380.505
27.44000 405.582
27.48000 386.923
27.52000 394.942
27.56000 374.101
27.60000 382.617
27.64000 373.646
27.68000 395.344
27.72000 386.712
27.76000 374.920
27.80000 383.208
27.84000 378.852
27.88000 380.799
27.92000 393.795
27.96000 378.859
28.00000 402.121
28.04000 386.604
28.08000 401.419
28.12000 394.478
28.16000 408.285
28.20000 394.525
28.24000 421.256
28.28000 415.125
28.32000 396.261
28.36000 384.012
28.40000 379.613
28.44000 395.898
28.48000 384.966
28.52000 394.424
28.56000 396.703
28.60000 370.157
28.64000 384.126
28.68000 379.271
28.72000 368.291
28.76000 371.380
28.80000 368.249
28.84000 376.559
28.88000 374.574
28.92000 361.295
28.96000 377.970
29.00000 370.293
29.04000 374.109
29.08000 362.393
29.12000 357.715
29.16000 375.117
29.20000 390.685
29.24000 392.969
29.28000 360.961
29.32000 363.054
29.36000 372.898
29.40000 382.330
29.44000 366.569
29.48000 380.226
29.52000 359.460
29.56000 370.673
29.60000 391.257
29.64000 384.283
29.68000 378.122
29.72000 425.195
29.76000 491.708
29.80000 504.145
29.84000 572.396
29.88000 610.027
29.92000 624.799
29.96000 650.414
30.00000 623.543
30.04000 598.330
30.08000 571.359
30.12000 543.104
30.16000 510.982
30.20000 496.357
30.24000 490.877
30.28000 450.051
30.32000 458.093
30.36000 426.945
30.40000 434.883
30.44000 435.620
30.48000 430.610
30.52000 433.809
30.56000 433.580
30.60000 436.921
30.64000 460.273
30.68000 455.406
30.72000 483.985
30.76000 481.163
30.80000 497.252
30.84000 511.289
30.88000 546.291
30.92000 595.514
30.96000 700.131
31.00000 868.543
31.04000 1244.467
31.08000 1920.365
31.12000 2898.057
31.16000 4215.323
31.20000 5669.783
31.24000 6874.198
31.28000 7687.280
31.32000 7861.999
31.36000 7219.039
31.40000 6148.079
31.44000 4598.350
31.48000 3320.864
31.52000 2280.457
31.56000 1508.126
31.60000 1122.461
31.64000 866.599
31.68000 713.512
31.72000 608.188
31.76000 576.963
31.80000 497.007
31.84000 471.130
31.88000 441.024
31.92000 410.392
31.96000 407.211
32.00000 397.248
32.04000 404.846
32.08000 385.543
32.12000 374.555
32.16000 364.825
32.20000 353.234
32.24000 361.617
32.28000 376.423
32.32000 363.803
32.36000 344.011
32.40000 358.556
32.44000 353.227
32.48000 334.827
32.52000 340.308
32.56000 343.087
32.60000 350.222
32.64000 353.088
32.68000 352.286
32.72000 342.904
32.76000 335.996
32.80000 358.460
32.84000 338.006
32.88000 326.771
32.92000 326.430
32.96000 329.816
33.00000 312.326
33.04000 326.722
33.08000 335.847
33.12000 310.621
33.16000 314.836
33.20000 317.616
33.24000 318.549
33.28000 316.371
33.32000 323.674
33.36000 316.532
33.40000 328.677
33.44000 323.604
33.48000 316.771
33.52000 315.485
33.56000 305.903
33.60000 299.757
33.64000 304.827
33.68000 314.307
33.72000 308.399
33.76000 311.587
33.80000 303.965
33.84000 302.049
33.88000 299.858
33.92000 287.068
33.96000 315.149
34.00000 305.082
34.04000 302.194
34.08000 300.798
34.12000 293.034
34.16000 307.268
34.20000 295.180
34.24000 316.656
34.28000 309.191
34.32000 299.159
34.36000 300.690
34.40000 293.474
34.44000 284.622
34.48000 293.583
34.52000 295.874
34.56000 290.008
34.60000 282.393
34.64000 293.628
34.68000 300.167
34.72000 296.220
34.76000 298.648
34.80000 286.649
34.84000 291.013
34.88000 300.762
34.92000 289.467
34.96000 287.999
35.00000 295.170
35.04000 285.295
35.08000 273.200
35.12000 276.410
35.16000 286.827
35.20000 288.071
35.24000 273.924
35.28000 288.638
35.32000 283.118
35.36000 275.603
35.40000 282.299
35.44000 274.503
35.48000 276.806
35.52000 272.260
35.56000 266.259
35.60000 258.917
35.64000 284.325
35.68000 287.625
35.72000 280.230
35.76000 274.579
35.80000 262.113
35.84000 271.629
35.88000 277.415
35.92000 277.430
35.96000 276.884
36.00000 256.203
36.04000 270.855
36.08000 279.077
36.12000 269.462
36.16000 272.419
36.20000 270.258
36.24000 275.685
36.28000 283.173
36.32000 271.876
36.36000 269.391
36.40000 263.347
36.44000 267.378
36.48000 277.628
36.52000 281.347
36.56000 279.586
36.60000 284.638
36.64000 282.980
36.68000 287.137
36.72000 283.254
36.76000 290.266
36.80000 290.511
36.84000 277.403
36.88000 279.165
36.92000 291.639
36.96000 288.786
37.00000 289.893
37.04000 267.879
37.08000 273.066
37.12000 288.833
37.16000 281.989
37.20000 268.732
37.24000 264.041
37.28000 278.144
37.32000 264.895
37.36000 254.742
37.40000 268.082
37.44000 283.586
37.48000 269.902
37.52000 279.585
37.56000 268.100
37.60000 272.206
37.64000 276.940
37.68000 263.826
37.72000 265.135
37.76000 284.276
37.80000 266.700
37.84000 282.144
37.88000 274.568
37.92000 254.904
37.96000 268.434
38.00000 277.252
38.04000 271.109
38.08000 285.601
38.12000 296.772
38.16000 298.612
38.20000 299.810
38.24000 300.355
38.28000 309.382
38.32000 318.301
38.36000 330.772
38.40000 328.011
38.44000 380.840
38.48000 423.599
38.52000 414.123
38.56000 425.172
38.60000 467.909
38.64000 446.736
38.68000 442.080
38.72000 427.429
38.76000 415.021
38.80000 373.366
38.84000 357.222
38.88000 335.352
38.92000 309.314
38.96000 298.175
39.00000 282.054
39.04000 283.955
39.08000 266.302
39.12000 249.474
39.16000 259.043
39.20000 251.729
39.24000 260.735
39.28000 246.245
39.32000 243.012
39.36000 251.763
39.40000 252.482
39.44000 233.708
39.48000 242.960
39.52000 250.367
39.56000 246.681
39.60000 242.347
39.64000 235.430
39.68000 237.090
39.72000 245.483
39.76000 246.339
39.80000 244.220
39.84000 230.988
39.88000 251.482
39.92000 236.658
39.96000 247.326
40.00000 229.632
40.04000 233.074
40.08000 236.033
40.12000 238.593
40.16000 241.318
40.20000 240.289
40.24000 242.402
40.28000 234.712
40.32000 239.662
40.36000 224.779
40.40000 225.300
40.44000 227.978
40.48000 228.052
40.52000 227.449
40.56000 229.375
40.60000 240.729
40.64000 228.878
40.68000 226.668
40.72000 237.601
40.76000 213.257
40.80000 221.214
40.84000 219.662
40.88000 209.781
40.92000 217.793
40.96000 221.032
41.00000 234.335
41.04000 228.633
41.08000 219.734
41.12000 221.165
41.16000 226.473
41.20000 220.207
41.24000 217.008
41.28000 223.148
41.32000 221.678
41.36000 221.654
41.40000 206.728
41.44000 223.544
41.48000 209.755
41.52000 219.865
41.56000 223.814
41.60000 214.288
41.64000 224.720
41.68000 219.183
41.72000 219.340
41.76000 215.234
41.80000 217.189
41.84000 199.896
41.88000 212.904
41.92000 205.345
41.96000 210.197
42.00000 215.486
42.04000 218.528
42.08000 218.269
42.12000 220.930
42.16000 216.166
42.20000 214.306
42.24000 218.929
42.28000 209.234
42.32000 215.654
42.36000 225.660
42.40000 207.788
42.44000 212.986
42.48000 202.554
42.52000 214.297
42.56000 215.539
42.60000 215.374
42.64000 210.303
42.68000 203.114
42.72000 219.963
42.76000 218.206
42.80000 218.617
42.84000 230.882
42.88000 214.733
42.92000 212.386
42.96000 220.109
43.00000 209.923
43.04000 215.048
43.08000 216.336
43.12000 224.400
43.16000 216.447
43.20000 212.758
43.24000 212.742
43.28000 214.272
43.32000 207.714
43.36000 199.061
43.40000 209.358
43.44000 216.955
43.48000 202.773
43.52000 210.021
43.56000 206.423
43.60000 206.868
43.64000 204.001
43.68000 213.502
43.72000 203.395
43.76000 207.659
43.80000 200.292
43.84000 210.537
43.88000 203.949
43.92000 215.883
43.96000 211.469
44.00000 207.550
44.04000 205.962
44.08000 216.055
44.12000 203.111
44.16000 210.551
44.20000 216.916
44.24000 213.950
44.28000 217.218
44.32000 226.069
44.36000 215.625
44.40000 235.122
44.44000 233.786
44.48000 264.142
44.52000 274.255
44.56000 274.462
44.60000 320.282
44.64000 350.089
44.68000 399.277
44.72000 449.144
44.76000 441.127
44.80000 495.409
44.84000 521.176
44.88000 528.325
44.92000 541.679
44.96000 512.521
45.00000 498.454
45.04000 500.251
45.08000 474.530
45.12000 430.662
45.16000 418.717
45.20000 381.781
45.24000 374.168
45.28000 335.427
45.32000 328.206
45.36000 318.099
45.40000 287.299
45.44000 282.681
45.48000 272.289
45.52000 253.585
45.56000 242.189
45.60000 241.440
45.64000 230.737
45.68000 224.451
45.72000 231.784
45.76000 235.210
45.80000 222.138
45.84000 213.029
45.88000 221.479
45.92000 194.920
45.96000 197.052
46.00000 200.164
46.04000 197.621
46.08000 191.598
46.12000 192.801
46.16000 193.361
46.20000 192.637
46.24000 176.163
46.28000 194.260
46.32000 185.838
46.36000 191.113
46.40000 179.358
46.44000 166.361
46.48000 185.480
46.52000 178.204
46.56000 178.004
46.60000 188.991
46.64000 181.806
46.68000 186.954
46.72000 183.204
46.76000 183.821
46.80000 174.344
46.84000 181.466
46.88000 174.884
46.92000 178.299
46.96000 182.618
47.00000 170.049
47.04000 170.235
47.08000 182.748
47.12000 172.074
47.16000 163.061
47.20000 168.179
47.24000 163.329
47.28000 167.637
47.32000 180.929
47.36000 167.851
47.40000 168.444
47.44000 164.518
47.48000 167.208
47.52000 182.340
47.56000 170.861
47.60000 175.947
47.64000 160.447
47.68000 160.870
47.72000 156.226
47.76000 176.357
47.80000 170.899
47.84000 174.317
47.88000 159.026
47.92000 169.922
47.96000 158.077
48.00000 167.266
48.04000 162.618
48.08000 171.901
48.12000 177.096
48.16000 167.511
48.20000 168.630
48.24000 169.244
48.28000 163.282
48.32000 174.388
48.36000 162.856
48.40000 166.460
48.44000 172.498
48.48000 165.716
48.52000 171.952
48.56000 150.689
48.60000 170.325
48.64000 164.485
48.68000 165.111
48.72000 165.615
48.76000 166.016
48.80000 163.388
48.84000 164.787
48.88000 161.298
48.92000 161.730
48.96000 165.614
49.00000 168.961
49.04000 170.957
49.08000 161.333
49.12000 155.851
49.16000 163.351
49.20000 173.089
49.24000 167.315
49.28000 167.534
49.32000 162.742
49.36000 162.396
49.40000 162.781
49.44000 159.512
49.48000 161.810
49.52000 158.924
49.56000 154.273
49.60000 166.037
49.64000 165.432
49.68000 163.650
49.72000 159.675
49.76000 165.983
49.80000 162.830
49.84000 179.923
49.88000 159.781
49.92000 167.386
49.96000 164.730
50.00000 168.876
50.04000 157.748
50.08000 167.080
50.12000 162.338
50.16000 183.255
50.20000 170.256
50.24000 183.028
50.28000 200.931
50.32000 207.944
50.36000 209.061
50.40000 233.295
50.44000 230.215
50.48000 254.356
50.52000 255.842
50.56000 263.662
50.60000 252.371
50.64000 240.544
50.68000 234.430
50.72000 237.273
50.76000 216.204
50.80000 217.945
50.84000 206.608
50.88000 187.913
50.92000 186.311
50.96000 173.720
51.00000 163.875
51.04000 180.133
51.08000 177.473
51.12000 163.748
51.16000 167.337
51.20000 159.524
51.24000 157.837
51.28000 168.142
51.32000 155.683
51.36000 157.083
51.40000 150.931
51.44000 158.462
51.48000 145.577
51.52000 156.528
51.56000 150.822
51.60000 145.701
51.64000 154.463
51.68000 142.013
51.72000 143.158
51.76000 144.119
51.80000 144.337
51.84000 148.692
51.88000 142.593
51.92000 145.837
51.96000 147.191
52.00000 147.758
52.04000 155.529
52.08000 149.866
52.12000 145.605
52.16000 153.704
52.20000 150.987
52.24000 149.237
52.28000 144.738
52.32000 148.986
52.36000 142.975
52.40000 148.152
52.44000 139.898
52.48000 148.367
52.52000 149.016
52.56000 147.094
52.60000 161.489
52.64000 150.692
52.68000 146.477
52.72000 139.647
52.76000 156.482
52.80000 147.918
52.84000 151.045
52.88000 137.980
52.92000 146.050
52.96000 139.364
53.00000 149.275
53.04000 154.275
53.08000 148.685
53.12000 157.371
53.16000 158.738
53.20000 164.807
53.24000 161.882
53.28000 148.369
53.32000 154.256
53.36000 155.139
53.40000 150.657
53.44000 148.274
53.48000 150.717
53.52000 144.108
53.56000 154.785
53.60000 154.669
53.64000 155.892
53.68000 148.691
53.72000 148.891
53.76000 138.343
53.80000 156.923
53.84000 151.254
53.88000 143.565
53.92000 145.210
53.96000 146.184
54.00000 139.328
54.04000 143.240
54.08000 150.217
54.12000 139.376
54.16000 145.225
54.20000 145.984
54.24000 140.731
54.28000 137.710
54.32000 148.746
54.36000 149.481
54.40000 144.650
54.44000 139.295
54.48000 142.545
54.52000 150.997
54.56000 137.494
54.60000 149.905
54.64000 147.073
54.68000 143.336
54.72000 154.383
54.76000 143.558
54.80000 137.751
54.84000 148.237
54.88000 138.436
54.92000 154.570
54.96000 141.419
55.00000 155.313
55.04000 155.012
55.08000 154.274
55.12000 158.566
55.16000 154.548
55.20000 163.259
55.24000 163.089
55.28000 177.797
55.32000 175.454
55.36000 200.532
55.40000 220.787
55.44000 281.823
55.48000 306.729
55.52000 365.993
55.56000 413.972
55.60000 475.390
55.64000 501.535
55.68000 529.838
55.72000 543.181
55.76000 512.384
55.80000 518.345
55.84000 485.642
55.88000 436.172
55.92000 378.170
55.96000 336.506
56.00000 306.245
56.04000 290.841
56.08000 247.703
56.12000 228.919
56.16000 209.069
56.20000 203.440
56.24000 191.463
56.28000 185.113
56.32000 184.541
56.36000 181.393
56.40000 167.939
56.44000 166.428
56.48000 150.714
56.52000 154.033
56.56000 156.352
56.60000 147.289
56.64000 138.121
56.68000 149.779
56.72000 141.880
56.76000 139.583
56.80000 137.807
56.84000 145.785
56.88000 139.951
56.92000 133.613
56.96000 141.280
57.00000 125.346
57.04000 129.626
57.08000 127.390
57.12000 127.546
57.16000 130.080
57.20000 134.082
57.24000 122.541
57.28000 127.177
57.32000 122.976
57.36000 130.394
57.40000 131.054
57.44000 117.992
57.48000 133.065
57.52000 132.127
57.56000 126.690
57.60000 121.561
57.64000 127.412
57.68000 123.304
57.72000 129.498
57.76000 136.442
57.80000 125.297
57.84000 126.606
57.88000 136.053
57.92000 134.008
57.96000 131.287
58.00000 122.504
58.04000 117.786
58.08000 125.615
58.12000 117.437
58.16000 121.052
58.20000 126.968
58.24000 142.069
58.28000 129.272
58.32000 124.967
58.36000 123.289
58.40000 134.245
58.44000 126.199
58.48000 116.300
58.52000 124.502
58.56000 127.717
58.60000 128.033
58.64000 124.774
58.68000 129.724
58.72000 128.025
58.76000 128.165
58.80000 129.614
58.84000 121.461
58.88000 121.943
58.92000 113.398
58.96000 117.322
59.00000 126.377
59.04000 120.141
59.08000 118.703
59.12000 117.144
59.16000 121.589
59.20000 124.547
59.24000 120.964
59.28000 116.886
59.32000 118.997
59.36000 122.632
59.40000 132.591
59.44000 122.047
59.48000 130.595
59.52000 122.822
59.56000 121.145
59.60000 129.598
59.64000 125.235
59.68000 120.234
59.72000 115.198
59.76000 117.428
59.80000 118.759
59.84000 121.339
59.88000 114.525
59.92000 123.895
59.96000 123.657
60.00000 127.418
60.04000 124.587
60.08000 122.328
60.12000 116.210
60.16000 120.579
60.20000 114.251
60.24000 129.302
60.28000 125.445
60.32000 127.834
60.36000 122.956
60.40000 111.731
60.44000 109.841
60.48000 116.765
60.52000 121.357
60.56000 119.952
60.60000 117.705
60.64000 112.260
60.68000 119.496
60.72000 126.858
60.76000 119.495
60.80000 122.830
60.84000 126.671
60.88000 128.926
60.92000 134.807
60.96000 121.391
61.00000 126.807
61.04000 122.472
61.08000 115.163
61.12000 125.551
61.16000 125.785
61.20000 138.716
61.24000 137.271
61.28000 144.656
61.32000 129.669
61.36000 127.138
61.40000 134.927
61.44000 136.711
61.48000 135.302
61.52000 180.201
61.56000 260.170
61.60000 356.836
61.64000 408.783
61.68000 443.485
61.72000 442.699
61.76000 398.291
61.80000 333.713
61.84000 232.762
61.88000 175.451
61.92000 146.868
61.96000 145.561
62.00000 152.959
62.04000 139.056
62.08000 147.044
62.12000 156.645
62.16000 147.265
62.20000 160.023
62.24000 152.921
62.28000 141.904
62.32000 150.254
62.36000 147.573
62.40000 162.709
62.44000 155.492
62.48000 145.849
62.52000 148.465
62.56000 136.403
62.60000 145.368
62.64000 141.695
62.68000 141.791
62.72000 144.265
62.76000 142.691
62.80000 140.158
62.84000 143.346
62.88000 148.502
62.92000 147.912
62.96000 148.592
63.00000 151.872
63.04000 141.287
63.08000 145.264
63.12000 142.169
63.16000 139.426
63.20000 140.816
63.24000 141.355
63.28000 150.334
63.32000 143.090
63.36000 151.241
63.40000 151.634
63.44000 157.097
63.48000 144.991
63.52000 150.636
63.56000 145.395
63.60000 141.160
63.64000 151.831
63.68000 147.326
63.72000 152.938
63.76000 153.228
63.80000 151.728
63.84000 163.996
63.88000 150.091
63.92000 164.351
63.96000 161.078
64.00000 160.619
64.04000 157.006
64.08000 160.989
64.12000 163.818
64.16000 160.981
64.20000 169.897
64.24000 168.824
64.28000 168.747
64.32000 173.710
64.36000 165.513
64.40000 170.957
64.44000 167.982
64.48000 167.939
64.52000 172.340
64.56000 191.693
64.60000 188.759
64.64000 191.569
64.68000 206.313
64.72000 193.414
64.76000 200.473
64.80000 208.890
64.84000 220.740
64.88000 221.984
64.92000 239.342
64.96000 255.191
65.00000 300.566
65.04000 320.128
65.08000 365.069
65.12000 421.444
65.16000 508.501
65.20000 612.358
65.24000 688.766
65.28000 725.362
65.32000 734.042
65.36000 764.287
65.40000 753.966
65.44000 743.189
65.48000 700.953
65.52000 677.827
65.56000 647.439
65.60000 666.876
65.64000 716.365
65.68000 926.241
65.72000 1412.661
65.76000 2215.268
65.80000 2918.001
65.84000 3307.083
65.88000 3373.789
65.92000 3212.550
65.96000 2690.321
66.00000 1857.354
66.04000 1106.293
66.08000 731.448
66.12000 594.846
66.16000 521.336
66.20000 509.409
66.24000 545.149
66.28000 625.918
66.32000 791.286
66.36000 910.542
66.40000 925.899
66.44000 933.272
66.48000 943.755
66.52000 822.448
66.56000 664.724
66.60000 557.140
66.64000 493.969
66.68000 473.855
66.72000 472.419
66.76000 450.913
66.80000 466.399
66.84000 449.545
66.88000 448.786
66.92000 472.116
66.96000 470.522
67.00000 465.915
67.04000 495.868
67.08000 479.220
67.12000 489.803
67.16000 495.207
67.20000 513.245
67.24000 501.342
67.28000 508.838
67.32000 531.180
67.36000 542.239
67.40000 498.551
67.44000 532.105
67.48000 567.973
67.52000 562.086
67.56000 551.456
67.60000 564.114
67.64000 578.405
67.68000 567.563
67.72000 587.397
67.76000 588.423
67.80000 606.146
67.84000 598.719
67.88000 628.784
67.92000 617.905
67.96000 604.752
68.00000 638.572
68.04000 640.873
68.08000 665.535
68.12000 693.643
68.16000 690.410
68.20000 708.235
68.24000 736.965
68.28000 731.855
68.32000 770.529
68.36000 789.816
68.40000 794.019
68.44000 825.519
68.48000 908.159
68.52000 964.404
68.56000 1037.318
68.60000 1140.165
68.64000 1339.584
68.68000 1602.062
68.72000 1918.007
68.76000 2253.010
68.80000 2579.755
68.84000 3003.161
68.88000 3936.226
68.92000 6435.415
68.96000 14876.359
69.00000 35350.594
69.04000 59613.715
69.08000 73953.563
69.12000 79301.148
69.16000 83811.859
69.20000 83672.883
69.24000 72430.313
69.28000 54261.164
69.32000 42128.750
69.36000 38203.457
69.40000 32553.713
69.44000 21781.082
69.48000 10096.054
69.52000 4236.755
69.56000 2243.030
69.60000 1657.650
69.64000 1339.221
69.68000 1131.261
69.72000 1002.260
69.76000 909.581
69.80000 870.383
69.84000 765.262
69.88000 711.134
69.92000 660.303
69.96000 632.446
70.00000 610.111