File: XRD/09-10-2025 Dep 8/XY Data/BTO_Mapping_Theta2Theta_09-10-2025_001_58_9-135_-4-067.xy
20.00000 484.076
20.04000 488.435
20.08000 466.766
20.12000 469.306
20.16000 493.283
20.20000 475.186
20.24000 486.984
20.28000 496.887
20.32000 491.745
20.36000 481.859
20.40000 470.519
20.44000 490.534
20.48000 475.741
20.52000 478.034
20.56000 479.303
20.60000 482.193
20.64000 475.600
20.68000 488.866
20.72000 475.706
20.76000 474.964
20.80000 471.228
20.84000 463.552
20.88000 476.326
20.92000 498.229
20.96000 496.542
21.00000 472.237
21.04000 494.811
21.08000 485.320
21.12000 476.225
21.16000 481.218
21.20000 472.151
21.24000 470.796
21.28000 479.911
21.32000 497.589
21.36000 473.183
21.40000 474.579
21.44000 477.524
21.48000 474.459
21.52000 475.529
21.56000 464.543
21.60000 481.436
21.64000 471.524
21.68000 483.905
21.72000 466.528
21.76000 499.023
21.80000 506.547
21.84000 527.479
21.88000 542.279
21.92000 553.723
21.96000 562.127
22.00000 578.531
22.04000 591.315
22.08000 643.353
22.12000 614.416
22.16000 634.304
22.20000 602.534
22.24000 601.880
22.28000 550.496
22.32000 543.415
22.36000 551.586
22.40000 516.427
22.44000 511.323
22.48000 511.014
22.52000 469.705
22.56000 470.550
22.60000 502.198
22.64000 462.245
22.68000 463.001
22.72000 458.281
22.76000 453.981
22.80000 442.109
22.84000 444.360
22.88000 439.136
22.92000 456.853
22.96000 449.172
23.00000 423.536
23.04000 451.892
23.08000 459.391
23.12000 452.968
23.16000 435.174
23.20000 433.664
23.24000 457.013
23.28000 429.581
23.32000 441.807
23.36000 441.150
23.40000 436.624
23.44000 431.432
23.48000 425.216
23.52000 429.258
23.56000 437.701
23.60000 438.198
23.64000 416.488
23.68000 418.565
23.72000 433.680
23.76000 434.310
23.80000 439.553
23.84000 429.466
23.88000 420.827
23.92000 421.517
23.96000 451.950
24.00000 427.218
24.04000 420.156
24.08000 433.241
24.12000 422.819
24.16000 416.997
24.20000 422.932
24.24000 432.004
24.28000 426.090
24.32000 420.770
24.36000 430.035
24.40000 419.289
24.44000 425.064
24.48000 422.786
24.52000 416.754
24.56000 426.714
24.60000 404.827
24.64000 422.029
24.68000 414.394
24.72000 433.597
24.76000 417.382
24.80000 418.552
24.84000 407.875
24.88000 425.216
24.92000 416.435
24.96000 427.685
25.00000 401.979
25.04000 410.679
25.08000 435.015
25.12000 420.517
25.16000 424.198
25.20000 404.746
25.24000 411.090
25.28000 411.662
25.32000 394.688
25.36000 405.675
25.40000 416.494
25.44000 407.653
25.48000 391.965
25.52000 393.126
25.56000 413.688
25.60000 407.559
25.64000 395.581
25.68000 400.139
25.72000 404.298
25.76000 410.700
25.80000 406.219
25.84000 419.514
25.88000 398.416
25.92000 410.256
25.96000 414.220
26.00000 392.491
26.04000 386.603
26.08000 395.603
26.12000 385.372
26.16000 401.443
26.20000 403.289
26.24000 389.452
26.28000 395.954
26.32000 403.644
26.36000 384.228
26.40000 385.628
26.44000 386.130
26.48000 400.912
26.52000 382.489
26.56000 375.307
26.60000 392.260
26.64000 388.327
26.68000 389.555
26.72000 377.175
26.76000 393.118
26.80000 382.040
26.84000 386.911
26.88000 388.756
26.92000 392.725
26.96000 396.838
27.00000 384.214
27.04000 377.664
27.08000 374.148
27.12000 378.515
27.16000 385.087
27.20000 376.141
27.24000 376.825
27.28000 360.642
27.32000 386.128
27.36000 374.248
27.40000 387.665
27.44000 394.636
27.48000 394.879
27.52000 376.928
27.56000 389.426
27.60000 361.684
27.64000 369.393
27.68000 374.957
27.72000 372.844
27.76000 368.239
27.80000 364.364
27.84000 362.300
27.88000 367.563
27.92000 391.403
27.96000 374.465
28.00000 385.478
28.04000 381.849
28.08000 387.430
28.12000 382.328
28.16000 378.417
28.20000 388.639
28.24000 394.099
28.28000 382.158
28.32000 383.099
28.36000 383.583
28.40000 387.233
28.44000 380.077
28.48000 383.467
28.52000 367.844
28.56000 360.589
28.60000 369.291
28.64000 389.408
28.68000 365.833
28.72000 377.977
28.76000 359.696
28.80000 370.323
28.84000 361.445
28.88000 363.558
28.92000 377.403
28.96000 368.909
29.00000 359.318
29.04000 361.385
29.08000 361.728
29.12000 367.340
29.16000 378.071
29.20000 361.124
29.24000 351.301
29.28000 366.206
29.32000 377.940
29.36000 383.342
29.40000 365.508
29.44000 378.110
29.48000 369.509
29.52000 365.109
29.56000 367.166
29.60000 357.619
29.64000 376.209
29.68000 364.276
29.72000 377.867
29.76000 367.322
29.80000 392.443
29.84000 407.330
29.88000 408.459
29.92000 423.159
29.96000 435.480
30.00000 456.460
30.04000 469.478
30.08000 463.091
30.12000 466.418
30.16000 456.449
30.20000 477.280
30.24000 424.825
30.28000 425.167
30.32000 411.352
30.36000 401.038
30.40000 403.566
30.44000 385.013
30.48000 394.868
30.52000 394.433
30.56000 400.576
30.60000 408.550
30.64000 423.382
30.68000 409.819
30.72000 416.520
30.76000 416.258
30.80000 431.724
30.84000 458.117
30.88000 467.565
30.92000 480.177
30.96000 514.317
31.00000 534.150
31.04000 605.365
31.08000 680.629
31.12000 799.851
31.16000 1037.481
31.20000 1323.036
31.24000 1724.442
31.28000 2191.496
31.32000 2712.785
31.36000 3000.071
31.40000 3141.816
31.44000 3064.673
31.48000 2850.110
31.52000 2453.510
31.56000 1986.675
31.60000 1525.635
31.64000 1194.923
31.68000 958.993
31.72000 755.922
31.76000 667.587
31.80000 591.073
31.84000 536.976
31.88000 486.293
31.92000 430.128
31.96000 423.051
32.00000 406.363
32.04000 384.745
32.08000 389.117
32.12000 371.521
32.16000 359.583
32.20000 353.240
32.24000 341.391
32.28000 353.853
32.32000 343.203
32.36000 358.658
32.40000 342.990
32.44000 351.544
32.48000 334.859
32.52000 339.845
32.56000 343.006
32.60000 342.722
32.64000 329.919
32.68000 324.239
32.72000 312.992
32.76000 330.437
32.80000 335.439
32.84000 334.369
32.88000 317.081
32.92000 320.612
32.96000 322.657
33.00000 316.262
33.04000 323.969
33.08000 301.111
33.12000 309.806
33.16000 307.038
33.20000 312.061
33.24000 312.435
33.28000 305.104
33.32000 315.997
33.36000 309.288
33.40000 300.256
33.44000 303.054
33.48000 312.667
33.52000 299.606
33.56000 303.144
33.60000 306.447
33.64000 301.606
33.68000 299.334
33.72000 302.652
33.76000 294.158
33.80000 310.388
33.84000 285.209
33.88000 295.300
33.92000 293.521
33.96000 287.269
34.00000 296.452
34.04000 292.254
34.08000 290.365
34.12000 294.794
34.16000 294.278
34.20000 302.024
34.24000 283.911
34.28000 280.183
34.32000 302.161
34.36000 285.816
34.40000 293.912
34.44000 278.958
34.48000 292.293
34.52000 278.412
34.56000 291.081
34.60000 269.938
34.64000 277.395
34.68000 285.159
34.72000 286.863
34.76000 265.993
34.80000 282.037
34.84000 288.186
34.88000 277.188
34.92000 279.611
34.96000 270.034
35.00000 266.129
35.04000 272.927
35.08000 284.460
35.12000 281.208
35.16000 290.318
35.20000 273.918
35.24000 267.592
35.28000 291.197
35.32000 272.465
35.36000 269.515
35.40000 271.843
35.44000 264.633
35.48000 266.169
35.52000 281.034
35.56000 271.950
35.60000 276.150
35.64000 260.218
35.68000 270.904
35.72000 265.179
35.76000 269.807
35.80000 266.685
35.84000 253.721
35.88000 271.842
35.92000 274.365
35.96000 267.232
36.00000 268.065
36.04000 257.247
36.08000 265.306
36.12000 271.504
36.16000 261.370
36.20000 272.890
36.24000 262.706
36.28000 265.793
36.32000 269.820
36.36000 253.434
36.40000 255.376
36.44000 253.005
36.48000 279.349
36.52000 253.622
36.56000 267.073
36.60000 266.572
36.64000 254.731
36.68000 275.200
36.72000 258.320
36.76000 272.716
36.80000 264.251
36.84000 257.498
36.88000 267.743
36.92000 275.083
36.96000 274.556
37.00000 286.679
37.04000 272.409
37.08000 289.220
37.12000 278.299
37.16000 288.039
37.20000 275.247
37.24000 272.860
37.28000 269.913
37.32000 269.818
37.36000 258.808
37.40000 262.269
37.44000 246.667
37.48000 268.663
37.52000 251.033
37.56000 252.382
37.60000 256.653
37.64000 265.215
37.68000 263.904
37.72000 266.035
37.76000 267.533
37.80000 255.613
37.84000 253.563
37.88000 263.030
37.92000 276.523
37.96000 264.534
38.00000 264.265
38.04000 274.351
38.08000 283.705
38.12000 279.802
38.16000 279.442
38.20000 267.467
38.24000 283.921
38.28000 285.382
38.32000 290.766
38.36000 319.552
38.40000 337.868
38.44000 370.521
38.48000 437.947
38.52000 491.773
38.56000 633.468
38.60000 738.871
38.64000 881.158
38.68000 1041.660
38.72000 1095.957
38.76000 1104.158
38.80000 1072.912
38.84000 913.857
38.88000 790.353
38.92000 636.095
38.96000 514.489
39.00000 394.957
39.04000 360.349
39.08000 317.831
39.12000 300.676
39.16000 281.776
39.20000 274.245
39.24000 282.820
39.28000 261.304
39.32000 244.937
39.36000 245.740
39.40000 238.722
39.44000 260.207
39.48000 238.533
39.52000 263.519
39.56000 236.845
39.60000 237.432
39.64000 226.842
39.68000 241.698
39.72000 229.497
39.76000 238.284
39.80000 239.568
39.84000 227.709
39.88000 241.379
39.92000 230.974
39.96000 225.257
40.00000 232.905
40.04000 238.478
40.08000 228.842
40.12000 232.542
40.16000 233.685
40.20000 226.761
40.24000 226.392
40.28000 242.282
40.32000 229.733
40.36000 230.515
40.40000 221.813
40.44000 224.949
40.48000 231.215
40.52000 237.250
40.56000 234.504
40.60000 220.732
40.64000 213.627
40.68000 241.534
40.72000 233.719
40.76000 222.285
40.80000 221.981
40.84000 212.158
40.88000 234.732
40.92000 227.505
40.96000 223.133
41.00000 241.909
41.04000 200.284
41.08000 214.004
41.12000 217.945
41.16000 227.367
41.20000 215.735
41.24000 214.456
41.28000 212.481
41.32000 225.623
41.36000 208.568
41.40000 222.800
41.44000 219.843
41.48000 220.264
41.52000 208.684
41.56000 205.605
41.60000 205.515
41.64000 211.128
41.68000 215.778
41.72000 205.366
41.76000 206.476
41.80000 212.662
41.84000 193.179
41.88000 206.923
41.92000 214.657
41.96000 207.123
42.00000 216.543
42.04000 220.627
42.08000 207.236
42.12000 197.895
42.16000 206.771
42.20000 203.839
42.24000 207.546
42.28000 208.769
42.32000 219.639
42.36000 189.971
42.40000 207.597
42.44000 199.384
42.48000 206.443
42.52000 205.590
42.56000 202.588
42.60000 198.150
42.64000 205.787
42.68000 203.826
42.72000 195.690
42.76000 210.896
42.80000 215.546
42.84000 201.233
42.88000 211.073
42.92000 199.968
42.96000 203.631
43.00000 201.902
43.04000 210.294
43.08000 191.105
43.12000 208.468
43.16000 222.688
43.20000 200.632
43.24000 205.488
43.28000 217.787
43.32000 201.764
43.36000 200.782
43.40000 204.637
43.44000 201.398
43.48000 196.835
43.52000 204.208
43.56000 198.736
43.60000 196.053
43.64000 199.679
43.68000 192.293
43.72000 194.231
43.76000 201.972
43.80000 197.994
43.84000 191.527
43.88000 197.404
43.92000 202.292
43.96000 195.415
44.00000 195.732
44.04000 194.912
44.08000 203.329
44.12000 194.126
44.16000 194.758
44.20000 192.863
44.24000 199.666
44.28000 196.759
44.32000 197.209
44.36000 196.495
44.40000 203.955
44.44000 193.679
44.48000 202.385
44.52000 198.767
44.56000 213.036
44.60000 212.976
44.64000 184.451
44.68000 223.116
44.72000 215.660
44.76000 205.392
44.80000 216.332
44.84000 230.273
44.88000 234.879
44.92000 252.480
44.96000 254.280
45.00000 272.594
45.04000 295.530
45.08000 302.452
45.12000 316.479
45.16000 333.399
45.20000 310.960
45.24000 309.789
45.28000 303.944
45.32000 297.829
45.36000 287.741
45.40000 283.985
45.44000 279.109
45.48000 276.332
45.52000 249.935
45.56000 248.353
45.60000 244.433
45.64000 229.447
45.68000 219.179
45.72000 221.940
45.76000 209.228
45.80000 215.795
45.84000 218.475
45.88000 216.287
45.92000 202.467
45.96000 195.889
46.00000 201.607
46.04000 181.354
46.08000 180.730
46.12000 174.039
46.16000 194.061
46.20000 193.801
46.24000 184.710
46.28000 177.871
46.32000 168.660
46.36000 175.007
46.40000 170.763
46.44000 178.690
46.48000 189.568
46.52000 178.556
46.56000 172.024
46.60000 185.041
46.64000 180.465
46.68000 169.705
46.72000 179.658
46.76000 177.766
46.80000 169.539
46.84000 167.589
46.88000 174.350
46.92000 168.206
46.96000 166.086
47.00000 170.034
47.04000 184.003
47.08000 181.092
47.12000 167.979
47.16000 166.606
47.20000 165.114
47.24000 163.454
47.28000 157.078
47.32000 165.252
47.36000 166.500
47.40000 164.958
47.44000 161.038
47.48000 164.144
47.52000 175.888
47.56000 159.187
47.60000 171.035
47.64000 174.525
47.68000 171.026
47.72000 160.879
47.76000 173.983
47.80000 164.760
47.84000 175.148
47.88000 162.586
47.92000 164.391
47.96000 169.366
48.00000 163.378
48.04000 164.474
48.08000 157.059
48.12000 168.366
48.16000 157.334
48.20000 164.007
48.24000 153.910
48.28000 160.078
48.32000 165.364
48.36000 161.949
48.40000 167.385
48.44000 166.617
48.48000 160.753
48.52000 173.905
48.56000 174.044
48.60000 161.594
48.64000 165.726
48.68000 159.810
48.72000 155.138
48.76000 152.958
48.80000 173.131
48.84000 169.021
48.88000 165.691
48.92000 164.479
48.96000 155.545
49.00000 135.376
49.04000 156.699
49.08000 157.918
49.12000 154.408
49.16000 150.512
49.20000 163.475
49.24000 157.549
49.28000 145.461
49.32000 154.591
49.36000 154.585
49.40000 161.915
49.44000 163.970
49.48000 158.206
49.52000 156.448
49.56000 160.146
49.60000 157.700
49.64000 147.394
49.68000 153.181
49.72000 144.942
49.76000 162.171
49.80000 156.549
49.84000 158.375
49.88000 146.942
49.92000 150.467
49.96000 149.182
50.00000 148.736
50.04000 157.921
50.08000 155.532
50.12000 156.726
50.16000 166.566
50.20000 148.888
50.24000 159.098
50.28000 154.388
50.32000 163.209
50.36000 158.686
50.40000 162.048
50.44000 163.056
50.48000 183.098
50.52000 171.094
50.56000 170.467
50.60000 202.606
50.64000 221.001
50.68000 226.295
50.72000 229.022
50.76000 237.531
50.80000 232.224
50.84000 222.067
50.88000 224.267
50.92000 213.934
50.96000 209.936
51.00000 184.997
51.04000 179.351
51.08000 178.620
51.12000 176.608
51.16000 166.040
51.20000 156.755
51.24000 168.011
51.28000 158.733
51.32000 155.120
51.36000 156.634
51.40000 160.831
51.44000 156.022
51.48000 156.383
51.52000 153.178
51.56000 151.958
51.60000 151.842
51.64000 151.724
51.68000 147.599
51.72000 149.508
51.76000 145.782
51.80000 151.492
51.84000 143.707
51.88000 149.143
51.92000 137.465
51.96000 142.275
52.00000 145.630
52.04000 147.894
52.08000 139.682
52.12000 141.764
52.16000 135.711
52.20000 148.477
52.24000 146.407
52.28000 139.345
52.32000 144.563
52.36000 141.721
52.40000 146.226
52.44000 148.557
52.48000 131.706
52.52000 145.654
52.56000 132.198
52.60000 147.600
52.64000 152.340
52.68000 134.855
52.72000 140.792
52.76000 143.183
52.80000 148.786
52.84000 140.827
52.88000 141.158
52.92000 139.885
52.96000 142.143
53.00000 143.936
53.04000 140.869
53.08000 142.891
53.12000 139.554
53.16000 135.695
53.20000 146.667
53.24000 142.192
53.28000 155.157
53.32000 149.082
53.36000 165.384
53.40000 153.558
53.44000 150.762
53.48000 147.977
53.52000 155.475
53.56000 153.647
53.60000 146.196
53.64000 139.046
53.68000 145.120
53.72000 146.731
53.76000 138.276
53.80000 149.571
53.84000 137.272
53.88000 140.634
53.92000 140.834
53.96000 145.315
54.00000 139.863
54.04000 136.665
54.08000 137.575
54.12000 129.249
54.16000 133.672
54.20000 146.829
54.24000 138.257
54.28000 134.935
54.32000 142.907
54.36000 150.167
54.40000 139.730
54.44000 133.864
54.48000 141.991
54.52000 134.394
54.56000 144.657
54.60000 133.999
54.64000 146.399
54.68000 140.646
54.72000 141.426
54.76000 144.844
54.80000 131.743
54.84000 133.799
54.88000 145.709
54.92000 137.349
54.96000 143.436
55.00000 143.480
55.04000 146.939
55.08000 147.132
55.12000 136.828
55.16000 156.458
55.20000 152.477
55.24000 153.553
55.28000 144.607
55.32000 152.423
55.36000 157.025
55.40000 161.363
55.44000 161.730
55.48000 169.655
55.52000 177.913
55.56000 179.703
55.60000 192.696
55.64000 196.667
55.68000 243.446
55.72000 269.986
55.76000 292.473
55.80000 349.128
55.84000 415.587
55.88000 451.945
55.92000 493.137
55.96000 544.529
56.00000 560.942
56.04000 559.586
56.08000 523.696
56.12000 475.391
56.16000 438.075
56.20000 370.373
56.24000 325.546
56.28000 304.614
56.32000 262.312
56.36000 237.128
56.40000 208.847
56.44000 199.224
56.48000 194.341
56.52000 170.567
56.56000 170.987
56.60000 157.670
56.64000 149.196
56.68000 147.226
56.72000 152.802
56.76000 144.286
56.80000 138.254
56.84000 133.873
56.88000 139.957
56.92000 131.617
56.96000 142.318
57.00000 121.525
57.04000 131.036
57.08000 134.046
57.12000 131.263
57.16000 127.330
57.20000 137.958
57.24000 133.948
57.28000 131.489
57.32000 134.801
57.36000 130.827
57.40000 142.094
57.44000 121.678
57.48000 134.732
57.52000 136.596
57.56000 118.130
57.60000 125.892
57.64000 121.189
57.68000 129.489
57.72000 121.401
57.76000 128.106
57.80000 127.582
57.84000 127.356
57.88000 133.159
57.92000 126.920
57.96000 124.818
58.00000 118.593
58.04000 127.053
58.08000 127.973
58.12000 119.649
58.16000 123.359
58.20000 120.564
58.24000 123.818
58.28000 124.983
58.32000 128.925
58.36000 130.093
58.40000 130.299
58.44000 129.916
58.48000 122.689
58.52000 131.253
58.56000 122.699
58.60000 131.457
58.64000 124.012
58.68000 129.104
58.72000 116.232
58.76000 123.075
58.80000 110.581
58.84000 120.339
58.88000 119.438
58.92000 127.971
58.96000 112.633
59.00000 123.745
59.04000 126.545
59.08000 105.869
59.12000 123.159
59.16000 129.553
59.20000 122.265
59.24000 124.149
59.28000 122.557
59.32000 114.827
59.36000 120.137
59.40000 116.789
59.44000 116.300
59.48000 111.937
59.52000 117.339
59.56000 117.730
59.60000 118.773
59.64000 121.457
59.68000 116.710
59.72000 126.774
59.76000 123.449
59.80000 120.603
59.84000 116.460
59.88000 116.532
59.92000 110.474
59.96000 113.936
60.00000 115.706
60.04000 114.065
60.08000 119.767
60.12000 123.011
60.16000 122.096
60.20000 116.384
60.24000 110.166
60.28000 121.641
60.32000 115.060
60.36000 115.628
60.40000 115.994
60.44000 117.710
60.48000 111.510
60.52000 123.433
60.56000 120.506
60.60000 118.193
60.64000 118.538
60.68000 114.541
60.72000 115.461
60.76000 124.482
60.80000 114.774
60.84000 122.696
60.88000 125.172
60.92000 124.617
60.96000 115.336
61.00000 120.483
61.04000 114.215
61.08000 117.907
61.12000 117.414
61.16000 130.563
61.20000 125.581
61.24000 117.404
61.28000 128.191
61.32000 124.863
61.36000 134.104
61.40000 128.288
61.44000 136.134
61.48000 141.525
61.52000 167.148
61.56000 222.088
61.60000 285.015
61.64000 310.911
61.68000 339.131
61.72000 331.451
61.76000 295.485
61.80000 244.704
61.84000 184.011
61.88000 134.570
61.92000 132.361
61.96000 132.111
62.00000 141.701
62.04000 130.869
62.08000 131.663
62.12000 134.193
62.16000 135.572
62.20000 131.473
62.24000 131.538
62.28000 127.529
62.32000 129.193
62.36000 129.802
62.40000 131.002
62.44000 133.345
62.48000 142.139
62.52000 135.679
62.56000 126.142
62.60000 142.343
62.64000 135.697
62.68000 131.718
62.72000 139.097
62.76000 137.858
62.80000 148.000
62.84000 145.845
62.88000 144.913
62.92000 133.943
62.96000 135.099
63.00000 138.349
63.04000 141.956
63.08000 142.574
63.12000 134.953
63.16000 138.561
63.20000 134.627
63.24000 137.138
63.28000 136.086
63.32000 146.589
63.36000 136.271
63.40000 148.182
63.44000 148.940
63.48000 145.893
63.52000 145.449
63.56000 146.066
63.60000 149.620
63.64000 149.614
63.68000 145.284
63.72000 139.631
63.76000 136.228
63.80000 144.608
63.84000 153.036
63.88000 162.028
63.92000 147.943
63.96000 149.119
64.00000 141.898
64.04000 148.319
64.08000 158.910
64.12000 161.610
64.16000 167.855
64.20000 155.842
64.24000 159.867
64.28000 156.369
64.32000 159.506
64.36000 161.922
64.40000 166.461
64.44000 173.757
64.48000 164.858
64.52000 168.744
64.56000 173.420
64.60000 174.992
64.64000 183.120
64.68000 179.550
64.72000 167.286
64.76000 177.647
64.80000 182.082
64.84000 183.919
64.88000 179.543
64.92000 192.693
64.96000 193.899
65.00000 197.945
65.04000 195.257
65.08000 223.515
65.12000 210.639
65.16000 225.722
65.20000 232.281
65.24000 242.015
65.28000 254.270
65.32000 291.697
65.36000 314.183
65.40000 338.143
65.44000 377.846
65.48000 407.262
65.52000 436.619
65.56000 490.606
65.60000 542.169
65.64000 617.747
65.68000 824.299
65.72000 1262.997
65.76000 1795.281
65.80000 2264.851
65.84000 2438.550
65.88000 2426.657
65.92000 2287.531
65.96000 1798.267
66.00000 1198.473
66.04000 731.193
66.08000 552.979
66.12000 479.986
66.16000 420.662
66.20000 428.078
66.24000 469.842
66.28000 531.812
66.32000 608.702
66.36000 726.521
66.40000 735.164
66.44000 717.934
66.48000 696.962
66.52000 607.996
66.56000 484.194
66.60000 420.512
66.64000 400.710
66.68000 387.411
66.72000 397.642
66.76000 391.075
66.80000 377.554
66.84000 391.720
66.88000 399.821
66.92000 388.414
66.96000 399.776
67.00000 391.473
67.04000 415.186
67.08000 421.664
67.12000 410.051
67.16000 434.841
67.20000 441.035
67.24000 444.086
67.28000 446.731
67.32000 458.100
67.36000 431.194
67.40000 449.188
67.44000 476.889
67.48000 457.806
67.52000 462.577
67.56000 467.177
67.60000 477.817
67.64000 476.738
67.68000 467.775
67.72000 498.021
67.76000 506.050
67.80000 519.377
67.84000 508.768
67.88000 520.174
67.92000 518.797
67.96000 563.210
68.00000 537.526
68.04000 554.144
68.08000 577.878
68.12000 593.729
68.16000 606.833
68.20000 615.931
68.24000 636.099
68.28000 645.575
68.32000 630.464
68.36000 702.723
68.40000 693.463
68.44000 736.002
68.48000 753.370
68.52000 792.751
68.56000 856.244
68.60000 984.398
68.64000 1141.117
68.68000 1332.411
68.72000 1586.676
68.76000 1834.801
68.80000 2047.610
68.84000 2398.566
68.88000 3087.298
68.92000 5341.941
68.96000 13245.793
69.00000 29386.443
69.04000 45285.340
69.08000 53484.602
69.12000 56606.438
69.16000 60116.984
69.20000 58529.609
69.24000 46341.254
69.28000 34610.473
69.32000 28910.529
69.36000 26737.385
69.40000 21745.137
69.44000 12716.609
69.48000 5429.676
69.52000 2609.287
69.56000 1612.637
69.60000 1259.269
69.64000 1068.962
69.68000 921.144
69.72000 837.364
69.76000 752.053
69.80000 684.198
69.84000 642.998
69.88000 634.421
69.92000 589.393
69.96000 563.823
70.00000 546.023