File: XRD/09-10-2025 Dep 8/XY Data/BTO_Mapping_Theta2Theta_09-10-2025_001_05_40-000_0-000.xy
20.00000 484.286
20.04000 498.039
20.08000 493.480
20.12000 484.143
20.16000 499.808
20.20000 464.674
20.24000 487.139
20.28000 498.798
20.32000 475.895
20.36000 480.347
20.40000 505.750
20.44000 489.873
20.48000 484.977
20.52000 488.345
20.56000 466.084
20.60000 477.348
20.64000 503.840
20.68000 471.811
20.72000 489.600
20.76000 469.345
20.80000 486.245
20.84000 480.572
20.88000 473.867
20.92000 488.036
20.96000 464.470
21.00000 477.069
21.04000 480.153
21.08000 475.518
21.12000 458.125
21.16000 486.042
21.20000 480.534
21.24000 479.192
21.28000 481.509
21.32000 468.116
21.36000 467.770
21.40000 482.324
21.44000 456.884
21.48000 475.918
21.52000 469.706
21.56000 486.318
21.60000 473.215
21.64000 475.379
21.68000 484.661
21.72000 490.794
21.76000 488.196
21.80000 486.696
21.84000 493.677
21.88000 524.944
21.92000 534.212
21.96000 520.366
22.00000 544.822
22.04000 558.658
22.08000 581.888
22.12000 578.229
22.16000 578.620
22.20000 565.880
22.24000 558.236
22.28000 549.137
22.32000 519.383
22.36000 527.079
22.40000 502.010
22.44000 510.210
22.48000 496.994
22.52000 469.829
22.56000 484.537
22.60000 475.061
22.64000 456.681
22.68000 466.609
22.72000 438.008
22.76000 453.162
22.80000 426.188
22.84000 453.756
22.88000 461.526
22.92000 425.186
22.96000 443.108
23.00000 449.916
23.04000 462.083
23.08000 448.876
23.12000 447.942
23.16000 449.488
23.20000 457.331
23.24000 428.004
23.28000 439.742
23.32000 436.458
23.36000 440.957
23.40000 434.032
23.44000 451.765
23.48000 428.665
23.52000 441.447
23.56000 429.249
23.60000 451.172
23.64000 427.082
23.68000 454.495
23.72000 433.715
23.76000 461.104
23.80000 460.147
23.84000 457.948
23.88000 470.344
23.92000 469.893
23.96000 491.000
24.00000 475.177
24.04000 461.571
24.08000 466.240
24.12000 472.231
24.16000 462.483
24.20000 456.671
24.24000 445.848
24.28000 447.958
24.32000 434.528
24.36000 456.008
24.40000 431.847
24.44000 435.396
24.48000 430.423
24.52000 409.096
24.56000 410.230
24.60000 413.447
24.64000 401.040
24.68000 419.702
24.72000 427.323
24.76000 418.969
24.80000 422.662
24.84000 411.951
24.88000 426.092
24.92000 426.137
24.96000 438.046
25.00000 419.155
25.04000 405.722
25.08000 416.792
25.12000 403.248
25.16000 383.807
25.20000 411.265
25.24000 392.322
25.28000 415.599
25.32000 390.033
25.36000 405.638
25.40000 406.377
25.44000 404.767
25.48000 401.909
25.52000 411.204
25.56000 427.645
25.60000 400.332
25.64000 395.837
25.68000 404.758
25.72000 399.253
25.76000 381.917
25.80000 397.739
25.84000 402.512
25.88000 393.723
25.92000 395.308
25.96000 403.270
26.00000 401.775
26.04000 393.148
26.08000 381.387
26.12000 379.281
26.16000 383.758
26.20000 386.399
26.24000 394.547
26.28000 394.856
26.32000 395.555
26.36000 389.334
26.40000 387.376
26.44000 386.378
26.48000 403.652
26.52000 395.715
26.56000 394.907
26.60000 383.159
26.64000 382.667
26.68000 384.643
26.72000 381.268
26.76000 386.176
26.80000 388.086
26.84000 377.276
26.88000 368.344
26.92000 379.900
26.96000 376.296
27.00000 377.904
27.04000 369.745
27.08000 396.076
27.12000 385.028
27.16000 393.721
27.20000 387.671
27.24000 382.508
27.28000 382.851
27.32000 385.697
27.36000 382.104
27.40000 371.608
27.44000 378.501
27.48000 376.127
27.52000 376.882
27.56000 384.098
27.60000 388.892
27.64000 368.874
27.68000 367.496
27.72000 360.213
27.76000 352.359
27.80000 362.918
27.84000 371.040
27.88000 376.609
27.92000 367.953
27.96000 380.622
28.00000 366.492
28.04000 376.338
28.08000 352.732
28.12000 391.026
28.16000 385.323
28.20000 380.945
28.24000 357.817
28.28000 349.857
28.32000 359.436
28.36000 376.067
28.40000 363.303
28.44000 374.719
28.48000 361.826
28.52000 368.630
28.56000 370.654
28.60000 355.104
28.64000 356.703
28.68000 376.300
28.72000 365.646
28.76000 346.976
28.80000 353.149
28.84000 348.957
28.88000 363.092
28.92000 361.632
28.96000 349.256
29.00000 359.343
29.04000 366.445
29.08000 357.749
29.12000 351.823
29.16000 352.261
29.20000 359.855
29.24000 368.815
29.28000 354.626
29.32000 359.854
29.36000 362.942
29.40000 367.891
29.44000 345.489
29.48000 359.709
29.52000 352.135
29.56000 337.567
29.60000 347.842
29.64000 347.081
29.68000 369.970
29.72000 353.542
29.76000 361.135
29.80000 354.232
29.84000 358.774
29.88000 377.401
29.92000 372.892
29.96000 402.514
30.00000 397.726
30.04000 410.624
30.08000 392.531
30.12000 392.471
30.16000 409.777
30.20000 395.366
30.24000 380.251
30.28000 374.309
30.32000 378.678
30.36000 384.929
30.40000 369.761
30.44000 373.241
30.48000 368.398
30.52000 379.111
30.56000 378.756
30.60000 363.064
30.64000 387.137
30.68000 379.597
30.72000 380.891
30.76000 389.192
30.80000 373.580
30.84000 397.300
30.88000 391.841
30.92000 394.675
30.96000 432.526
31.00000 445.915
31.04000 459.437
31.08000 492.655
31.12000 561.512
31.16000 620.930
31.20000 732.949
31.24000 875.934
31.28000 1069.302
31.32000 1257.251
31.36000 1414.513
31.40000 1634.954
31.44000 1680.011
31.48000 1615.721
31.52000 1563.801
31.56000 1411.261
31.60000 1164.269
31.64000 964.139
31.68000 820.366
31.72000 691.497
31.76000 587.914
31.80000 517.772
31.84000 470.975
31.88000 437.359
31.92000 413.157
31.96000 403.980
32.00000 372.932
32.04000 372.654
32.08000 354.191
32.12000 371.758
32.16000 348.926
32.20000 356.842
32.24000 347.348
32.28000 325.103
32.32000 338.502
32.36000 342.221
32.40000 336.701
32.44000 352.393
32.48000 347.963
32.52000 322.541
32.56000 317.465
32.60000 321.367
32.64000 325.609
32.68000 326.021
32.72000 331.444
32.76000 308.385
32.80000 322.195
32.84000 314.464
32.88000 305.550
32.92000 306.675
32.96000 292.904
33.00000 286.818
33.04000 296.764
33.08000 297.545
33.12000 301.455
33.16000 305.033
33.20000 293.580
33.24000 287.254
33.28000 291.181
33.32000 287.336
33.36000 302.438
33.40000 309.471
33.44000 291.102
33.48000 301.547
33.52000 297.160
33.56000 289.315
33.60000 292.125
33.64000 291.594
33.68000 295.857
33.72000 276.973
33.76000 289.258
33.80000 298.749
33.84000 290.915
33.88000 283.659
33.92000 300.501
33.96000 286.448
34.00000 294.939
34.04000 289.859
34.08000 301.118
34.12000 278.631
34.16000 293.244
34.20000 288.837
34.24000 298.410
34.28000 288.448
34.32000 280.223
34.36000 287.040
34.40000 295.316
34.44000 281.936
34.48000 295.435
34.52000 293.578
34.56000 290.330
34.60000 291.961
34.64000 296.452
34.68000 296.552
34.72000 291.274
34.76000 279.120
34.80000 288.525
34.84000 286.581
34.88000 275.380
34.92000 283.002
34.96000 270.243
35.00000 283.494
35.04000 264.254
35.08000 269.022
35.12000 278.141
35.16000 264.913
35.20000 275.125
35.24000 277.864
35.28000 278.993
35.32000 266.470
35.36000 271.282
35.40000 264.161
35.44000 273.971
35.48000 271.716
35.52000 269.809
35.56000 266.438
35.60000 256.748
35.64000 268.304
35.68000 264.176
35.72000 277.600
35.76000 269.468
35.80000 255.140
35.84000 273.779
35.88000 270.693
35.92000 255.647
35.96000 270.169
36.00000 254.153
36.04000 262.348
36.08000 268.057
36.12000 265.268
36.16000 274.889
36.20000 263.726
36.24000 270.570
36.28000 262.483
36.32000 255.747
36.36000 238.390
36.40000 266.451
36.44000 265.839
36.48000 265.438
36.52000 257.956
36.56000 268.618
36.60000 264.356
36.64000 249.951
36.68000 266.665
36.72000 260.152
36.76000 255.940
36.80000 257.774
36.84000 255.427
36.88000 251.198
36.92000 265.562
36.96000 280.672
37.00000 280.239
37.04000 278.243
37.08000 273.293
37.12000 271.462
37.16000 278.008
37.20000 266.644
37.24000 270.358
37.28000 270.212
37.32000 268.354
37.36000 266.949
37.40000 252.825
37.44000 261.392
37.48000 267.947
37.52000 266.621
37.56000 255.961
37.60000 244.691
37.64000 257.542
37.68000 248.849
37.72000 243.947
37.76000 255.838
37.80000 261.561
37.84000 250.701
37.88000 243.478
37.92000 260.024
37.96000 254.413
38.00000 241.243
38.04000 251.325
38.08000 248.245
38.12000 259.585
38.16000 255.111
38.20000 273.456
38.24000 256.630
38.28000 265.963
38.32000 271.909
38.36000 262.249
38.40000 286.395
38.44000 300.589
38.48000 321.930
38.52000 351.077
38.56000 398.967
38.60000 517.602
38.64000 610.459
38.68000 753.886
38.72000 819.695
38.76000 908.826
38.80000 941.650
38.84000 899.270
38.88000 827.526
38.92000 694.987
38.96000 585.592
39.00000 475.823
39.04000 386.998
39.08000 329.096
39.12000 303.589
39.16000 279.636
39.20000 280.895
39.24000 250.475
39.28000 252.803
39.32000 254.013
39.36000 246.896
39.40000 244.306
39.44000 248.791
39.48000 242.316
39.52000 240.405
39.56000 253.766
39.60000 235.387
39.64000 237.207
39.68000 236.781
39.72000 236.026
39.76000 232.718
39.80000 230.413
39.84000 235.889
39.88000 233.956
39.92000 224.685
39.96000 220.383
40.00000 233.442
40.04000 237.407
40.08000 215.952
40.12000 214.194
40.16000 210.094
40.20000 232.096
40.24000 216.745
40.28000 220.038
40.32000 225.828
40.36000 223.512
40.40000 219.187
40.44000 225.426
40.48000 229.165
40.52000 217.729
40.56000 215.224
40.60000 224.001
40.64000 227.736
40.68000 218.495
40.72000 206.430
40.76000 218.631
40.80000 209.616
40.84000 221.716
40.88000 219.054
40.92000 203.843
40.96000 219.944
41.00000 212.839
41.04000 213.430
41.08000 224.482
41.12000 202.906
41.16000 207.731
41.20000 209.496
41.24000 213.096
41.28000 216.429
41.32000 212.982
41.36000 215.390
41.40000 212.770
41.44000 216.781
41.48000 212.643
41.52000 206.906
41.56000 208.564
41.60000 203.285
41.64000 205.601
41.68000 205.921
41.72000 198.352
41.76000 205.141
41.80000 208.460
41.84000 206.896
41.88000 204.626
41.92000 206.706
41.96000 219.871
42.00000 211.473
42.04000 208.605
42.08000 214.990
42.12000 209.169
42.16000 215.008
42.20000 205.316
42.24000 194.418
42.28000 218.220
42.32000 215.869
42.36000 216.923
42.40000 202.809
42.44000 203.817
42.48000 214.818
42.52000 207.418
42.56000 210.283
42.60000 201.887
42.64000 200.686
42.68000 210.287
42.72000 209.201
42.76000 192.874
42.80000 211.222
42.84000 204.848
42.88000 194.228
42.92000 204.850
42.96000 209.807
43.00000 209.819
43.04000 194.558
43.08000 191.335
43.12000 193.482
43.16000 193.629
43.20000 195.560
43.24000 203.143
43.28000 207.437
43.32000 205.129
43.36000 202.308
43.40000 192.285
43.44000 191.018
43.48000 199.192
43.52000 192.283
43.56000 199.434
43.60000 211.688
43.64000 192.416
43.68000 190.966
43.72000 203.014
43.76000 200.206
43.80000 199.439
43.84000 201.195
43.88000 193.943
43.92000 208.837
43.96000 195.559
44.00000 189.954
44.04000 190.355
44.08000 185.031
44.12000 196.396
44.16000 199.958
44.20000 203.659
44.24000 200.727
44.28000 198.243
44.32000 205.361
44.36000 186.620
44.40000 196.221
44.44000 195.162
44.48000 194.355
44.52000 188.947
44.56000 197.614
44.60000 197.016
44.64000 196.037
44.68000 216.687
44.72000 218.751
44.76000 216.155
44.80000 209.721
44.84000 215.688
44.88000 229.954
44.92000 240.810
44.96000 238.712
45.00000 248.733
45.04000 247.292
45.08000 263.361
45.12000 267.413
45.16000 250.078
45.20000 267.791
45.24000 258.160
45.28000 268.574
45.32000 255.518
45.36000 265.064
45.40000 252.397
45.44000 247.751
45.48000 223.675
45.52000 231.274
45.56000 223.646
45.60000 217.059
45.64000 213.705
45.68000 232.105
45.72000 217.363
45.76000 204.926
45.80000 201.623
45.84000 214.646
45.88000 203.159
45.92000 194.976
45.96000 195.926
46.00000 190.700
46.04000 189.457
46.08000 195.443
46.12000 184.192
46.16000 199.419
46.20000 178.724
46.24000 177.767
46.28000 183.204
46.32000 186.176
46.36000 190.554
46.40000 171.569
46.44000 173.549
46.48000 172.105
46.52000 171.627
46.56000 176.428
46.60000 175.406
46.64000 180.948
46.68000 187.907
46.72000 168.482
46.76000 161.259
46.80000 180.538
46.84000 176.177
46.88000 165.008
46.92000 169.123
46.96000 181.479
47.00000 175.584
47.04000 175.130
47.08000 163.601
47.12000 160.907
47.16000 169.481
47.20000 163.274
47.24000 168.872
47.28000 176.184
47.32000 163.584
47.36000 165.786
47.40000 169.712
47.44000 151.054
47.48000 160.213
47.52000 166.925
47.56000 150.796
47.60000 157.899
47.64000 161.775
47.68000 162.052
47.72000 162.147
47.76000 173.729
47.80000 160.466
47.84000 174.336
47.88000 172.788
47.92000 157.591
47.96000 154.511
48.00000 157.370
48.04000 154.084
48.08000 149.391
48.12000 165.593
48.16000 186.195
48.20000 156.236
48.24000 160.713
48.28000 150.968
48.32000 168.397
48.36000 167.683
48.40000 164.756
48.44000 162.226
48.48000 169.938
48.52000 162.561
48.56000 168.788
48.60000 167.402
48.64000 167.750
48.68000 156.403
48.72000 151.023
48.76000 168.770
48.80000 158.647
48.84000 153.835
48.88000 162.702
48.92000 163.097
48.96000 161.408
49.00000 162.142
49.04000 155.711
49.08000 167.782
49.12000 156.593
49.16000 159.491
49.20000 161.935
49.24000 162.644
49.28000 149.180
49.32000 146.057
49.36000 147.891
49.40000 151.284
49.44000 156.077
49.48000 153.072
49.52000 154.899
49.56000 162.428
49.60000 153.294
49.64000 151.966
49.68000 144.982
49.72000 161.069
49.76000 153.034
49.80000 159.387
49.84000 145.930
49.88000 151.121
49.92000 152.089
49.96000 159.661
50.00000 155.145
50.04000 150.031
50.08000 151.877
50.12000 146.486
50.16000 147.131
50.20000 157.405
50.24000 164.800
50.28000 161.006
50.32000 164.241
50.36000 164.806
50.40000 165.126
50.44000 150.528
50.48000 165.511
50.52000 172.254
50.56000 156.765
50.60000 181.584
50.64000 181.639
50.68000 184.407
50.72000 194.862
50.76000 196.130
50.80000 192.902
50.84000 204.295
50.88000 182.518
50.92000 182.714
50.96000 186.573
51.00000 171.859
51.04000 174.815
51.08000 170.088
51.12000 167.032
51.16000 161.363
51.20000 158.613
51.24000 164.593
51.28000 169.704
51.32000 156.341
51.36000 149.914
51.40000 156.746
51.44000 149.631
51.48000 157.841
51.52000 141.824
51.56000 140.095
51.60000 149.011
51.64000 141.846
51.68000 144.701
51.72000 141.001
51.76000 146.890
51.80000 136.924
51.84000 145.174
51.88000 143.995
51.92000 143.111
51.96000 135.517
52.00000 146.965
52.04000 148.609
52.08000 144.459
52.12000 143.241
52.16000 138.999
52.20000 135.306
52.24000 146.256
52.28000 144.608
52.32000 146.577
52.36000 136.286
52.40000 141.220
52.44000 139.828
52.48000 141.807
52.52000 128.641
52.56000 136.725
52.60000 141.130
52.64000 142.067
52.68000 135.030
52.72000 131.675
52.76000 141.246
52.80000 130.882
52.84000 143.877
52.88000 138.449
52.92000 130.448
52.96000 144.515
53.00000 141.771
53.04000 136.001
53.08000 141.943
53.12000 138.491
53.16000 134.616
53.20000 142.627
53.24000 140.009
53.28000 140.332
53.32000 150.083
53.36000 132.691
53.40000 138.975
53.44000 146.272
53.48000 153.086
53.52000 147.910
53.56000 145.264
53.60000 148.217
53.64000 144.353
53.68000 151.724
53.72000 141.289
53.76000 144.771
53.80000 147.907
53.84000 142.507
53.88000 153.414
53.92000 143.151
53.96000 138.483
54.00000 136.672
54.04000 147.779
54.08000 144.894
54.12000 142.498
54.16000 144.880
54.20000 126.871
54.24000 139.155
54.28000 137.911
54.32000 140.583
54.36000 132.669
54.40000 145.942
54.44000 131.940
54.48000 131.744
54.52000 134.582
54.56000 143.029
54.60000 143.465
54.64000 144.331
54.68000 136.199
54.72000 137.539
54.76000 133.845
54.80000 144.836
54.84000 151.296
54.88000 140.376
54.92000 128.461
54.96000 141.477
55.00000 137.230
55.04000 137.567
55.08000 141.386
55.12000 148.291
55.16000 151.718
55.20000 146.457
55.24000 147.853
55.28000 151.346
55.32000 153.415
55.36000 150.876
55.40000 150.166
55.44000 160.254
55.48000 157.839
55.52000 159.386
55.56000 177.884
55.60000 176.359
55.64000 179.175
55.68000 212.000
55.72000 231.983
55.76000 251.392
55.80000 295.145
55.84000 331.663
55.88000 381.161
55.92000 451.991
55.96000 489.818
56.00000 540.174
56.04000 559.385
56.08000 583.609
56.12000 582.733
56.16000 529.616
56.20000 495.446
56.24000 428.728
56.28000 389.109
56.32000 320.669
56.36000 292.421
56.40000 255.613
56.44000 226.747
56.48000 213.190
56.52000 193.383
56.56000 179.474
56.60000 165.413
56.64000 162.107
56.68000 158.501
56.72000 146.680
56.76000 144.149
56.80000 155.207
56.84000 142.085
56.88000 135.251
56.92000 131.774
56.96000 140.494
57.00000 122.236
57.04000 132.893
57.08000 128.999
57.12000 137.368
57.16000 131.279
57.20000 121.990
57.24000 132.511
57.28000 124.058
57.32000 129.819
57.36000 124.397
57.40000 129.027
57.44000 134.288
57.48000 123.514
57.52000 141.510
57.56000 132.563
57.60000 126.175
57.64000 118.571
57.68000 127.889
57.72000 139.269
57.76000 127.227
57.80000 128.541
57.84000 133.135
57.88000 123.113
57.92000 131.985
57.96000 127.612
58.00000 126.501
58.04000 119.607
58.08000 123.642
58.12000 115.421
58.16000 124.238
58.20000 126.898
58.24000 137.545
58.28000 132.877
58.32000 121.892
58.36000 123.207
58.40000 130.134
58.44000 131.458
58.48000 115.781
58.52000 124.371
58.56000 122.411
58.60000 121.042
58.64000 115.259
58.68000 115.554
58.72000 120.416
58.76000 126.973
58.80000 125.725
58.84000 123.694
58.88000 115.510
58.92000 115.321
58.96000 119.579
59.00000 120.762
59.04000 112.552
59.08000 122.449
59.12000 113.459
59.16000 123.210
59.20000 113.598
59.24000 115.222
59.28000 118.460
59.32000 123.635
59.36000 115.247
59.40000 116.354
59.44000 116.469
59.48000 121.703
59.52000 124.739
59.56000 116.491
59.60000 114.735
59.64000 113.875
59.68000 120.731
59.72000 119.728
59.76000 114.216
59.80000 122.131
59.84000 116.446
59.88000 118.284
59.92000 116.463
59.96000 116.358
60.00000 119.054
60.04000 123.469
60.08000 127.481
60.12000 118.271
60.16000 119.431
60.20000 118.449
60.24000 121.445
60.28000 114.424
60.32000 122.629
60.36000 119.803
60.40000 127.297
60.44000 116.664
60.48000 123.610
60.52000 126.996
60.56000 120.101
60.60000 116.336
60.64000 125.404
60.68000 112.176
60.72000 119.904
60.76000 122.263
60.80000 117.906
60.84000 117.506
60.88000 119.741
60.92000 112.846
60.96000 118.808
61.00000 119.653
61.04000 118.302
61.08000 118.820
61.12000 119.848
61.16000 121.467
61.20000 123.635
61.24000 122.988
61.28000 127.667
61.32000 124.420
61.36000 125.836
61.40000 122.641
61.44000 122.972
61.48000 131.478
61.52000 156.500
61.56000 199.090
61.60000 241.696
61.64000 293.543
61.68000 296.425
61.72000 296.196
61.76000 281.021
61.80000 216.087
61.84000 171.305
61.88000 141.530
61.92000 138.268
61.96000 128.765
62.00000 134.715
62.04000 124.340
62.08000 134.768
62.12000 131.578
62.16000 117.682
62.20000 115.280
62.24000 127.738
62.28000 137.882
62.32000 133.740
62.36000 122.842
62.40000 124.309
62.44000 130.565
62.48000 131.355
62.52000 137.456
62.56000 129.035
62.60000 134.742
62.64000 130.358
62.68000 126.170
62.72000 136.298
62.76000 142.543
62.80000 132.682
62.84000 125.558
62.88000 124.764
62.92000 126.832
62.96000 126.680
63.00000 141.526
63.04000 129.737
63.08000 137.808
63.12000 130.106
63.16000 138.649
63.20000 135.227
63.24000 141.209
63.28000 131.104
63.32000 140.047
63.36000 144.942
63.40000 140.534
63.44000 124.569
63.48000 137.837
63.52000 136.706
63.56000 133.881
63.60000 144.022
63.64000 148.252
63.68000 140.640
63.72000 145.294
63.76000 141.879
63.80000 134.304
63.84000 153.155
63.88000 136.672
63.92000 137.372
63.96000 138.441
64.00000 146.803
64.04000 149.433
64.08000 157.807
64.12000 145.194
64.16000 148.571
64.20000 155.042
64.24000 150.338
64.28000 151.298
64.32000 156.125
64.36000 156.996
64.40000 163.273
64.44000 161.509
64.48000 149.777
64.52000 165.956
64.56000 166.162
64.60000 157.499
64.64000 166.879
64.68000 164.090
64.72000 161.287
64.76000 169.660
64.80000 165.196
64.84000 183.327
64.88000 168.853
64.92000 183.419
64.96000 192.355
65.00000 184.768
65.04000 194.499
65.08000 193.316
65.12000 195.179
65.16000 202.147
65.20000 210.938
65.24000 212.877
65.28000 212.496
65.32000 232.627
65.36000 231.076
65.40000 266.439
65.44000 269.790
65.48000 297.654
65.52000 307.821
65.56000 351.710
65.60000 381.793
65.64000 459.066
65.68000 648.493
65.72000 980.450
65.76000 1442.948
65.80000 1837.225
65.84000 1982.770
65.88000 1988.487
65.92000 1869.482
65.96000 1542.656
66.00000 1018.377
66.04000 652.607
66.08000 495.582
66.12000 425.223
66.16000 379.513
66.20000 382.200
66.24000 407.485
66.28000 469.386
66.32000 560.126
66.36000 602.497
66.40000 630.711
66.44000 624.187
66.48000 616.997
66.52000 535.813
66.56000 444.624
66.60000 401.269
66.64000 342.803
66.68000 345.136
66.72000 356.643
66.76000 374.441
66.80000 351.714
66.84000 362.541
66.88000 360.022
66.92000 370.897
66.96000 373.423
67.00000 363.458
67.04000 368.474
67.08000 399.709
67.12000 388.964
67.16000 394.080
67.20000 401.100
67.24000 400.642
67.28000 414.019
67.32000 429.290
67.36000 416.374
67.40000 437.850
67.44000 435.039
67.48000 452.266
67.52000 408.990
67.56000 439.570
67.60000 429.867
67.64000 455.827
67.68000 477.356
67.72000 494.167
67.76000 478.047
67.80000 474.318
67.84000 487.497
67.88000 484.023
67.92000 495.937
67.96000 507.514
68.00000 523.792
68.04000 514.969
68.08000 525.616
68.12000 550.862
68.16000 544.005
68.20000 571.131
68.24000 578.168
68.28000 598.421
68.32000 636.994
68.36000 609.510
68.40000 650.003
68.44000 662.560
68.48000 692.985
68.52000 723.103
68.56000 798.076
68.60000 901.187
68.64000 1009.132
68.68000 1203.477
68.72000 1394.488
68.76000 1571.179
68.80000 1754.832
68.84000 2029.466
68.88000 2560.744
68.92000 4319.728
68.96000 10587.410
69.00000 23967.732
69.04000 37466.418
69.08000 44003.203
69.12000 46693.738
69.16000 49522.316
69.20000 48457.449
69.24000 38920.992
69.28000 28664.912
69.32000 23950.561
69.36000 22161.521
69.40000 18286.693
69.44000 10881.605
69.48000 4604.985
69.52000 2279.340
69.56000 1464.237
69.60000 1152.612
69.64000 974.155
69.68000 845.409
69.72000 772.726
69.76000 690.252
69.80000 683.256
69.84000 618.556
69.88000 529.770
69.92000 543.676
69.96000 527.555
70.00000 508.359