File: XRD/09-10-2025 Dep 8/XY Data/BTO_Mapping_Theta2Theta_09-10-2025_001_32_-29-344_6-237.xy
20.00000 503.766
20.04000 499.269
20.08000 493.793
20.12000 484.666
20.16000 484.125
20.20000 491.431
20.24000 499.059
20.28000 502.914
20.32000 481.171
20.36000 483.629
20.40000 480.319
20.44000 485.442
20.48000 485.571
20.52000 485.862
20.56000 476.020
20.60000 501.098
20.64000 473.521
20.68000 454.426
20.72000 470.770
20.76000 479.375
20.80000 497.606
20.84000 492.704
20.88000 482.601
20.92000 484.400
20.96000 498.128
21.00000 471.188
21.04000 484.481
21.08000 483.153
21.12000 479.999
21.16000 471.344
21.20000 475.096
21.24000 484.248
21.28000 478.640
21.32000 479.178
21.36000 487.727
21.40000 486.529
21.44000 485.724
21.48000 488.722
21.52000 482.412
21.56000 490.547
21.60000 508.383
21.64000 502.193
21.68000 531.843
21.72000 519.678
21.76000 543.363
21.80000 564.706
21.84000 574.310
21.88000 615.737
21.92000 665.023
21.96000 701.884
22.00000 698.504
22.04000 695.867
22.08000 704.433
22.12000 691.642
22.16000 658.454
22.20000 605.582
22.24000 585.457
22.28000 570.962
22.32000 538.068
22.36000 523.595
22.40000 523.147
22.44000 508.039
22.48000 481.785
22.52000 474.250
22.56000 473.961
22.60000 453.811
22.64000 453.248
22.68000 453.550
22.72000 459.399
22.76000 448.650
22.80000 458.241
22.84000 447.285
22.88000 437.545
22.92000 452.597
22.96000 452.136
23.00000 450.253
23.04000 424.380
23.08000 440.762
23.12000 444.366
23.16000 427.220
23.20000 452.118
23.24000 431.876
23.28000 449.385
23.32000 458.676
23.36000 430.008
23.40000 438.731
23.44000 443.591
23.48000 438.601
23.52000 429.780
23.56000 428.796
23.60000 443.383
23.64000 453.415
23.68000 433.885
23.72000 427.444
23.76000 447.556
23.80000 442.635
23.84000 407.843
23.88000 436.920
23.92000 436.607
23.96000 432.487
24.00000 439.174
24.04000 433.394
24.08000 413.350
24.12000 413.084
24.16000 443.679
24.20000 429.742
24.24000 418.177
24.28000 406.719
24.32000 430.763
24.36000 430.228
24.40000 426.173
24.44000 418.550
24.48000 435.186
24.52000 427.528
24.56000 435.763
24.60000 411.983
24.64000 417.647
24.68000 415.457
24.72000 410.874
24.76000 411.142
24.80000 414.239
24.84000 419.878
24.88000 419.604
24.92000 423.529
24.96000 419.619
25.00000 430.358
25.04000 408.075
25.08000 410.830
25.12000 418.564
25.16000 403.952
25.20000 401.818
25.24000 403.818
25.28000 403.504
25.32000 396.495
25.36000 416.902
25.40000 422.482
25.44000 398.942
25.48000 417.388
25.52000 410.458
25.56000 404.855
25.60000 397.947
25.64000 411.385
25.68000 403.320
25.72000 411.138
25.76000 411.449
25.80000 402.203
25.84000 411.902
25.88000 409.450
25.92000 410.019
25.96000 399.327
26.00000 383.172
26.04000 393.092
26.08000 405.358
26.12000 385.329
26.16000 399.571
26.20000 404.363
26.24000 398.070
26.28000 391.682
26.32000 379.436
26.36000 375.564
26.40000 400.061
26.44000 390.252
26.48000 403.816
26.52000 396.525
26.56000 391.656
26.60000 382.378
26.64000 388.787
26.68000 390.589
26.72000 396.090
26.76000 393.099
26.80000 395.773
26.84000 386.766
26.88000 379.732
26.92000 376.450
26.96000 379.814
27.00000 396.984
27.04000 394.006
27.08000 379.965
27.12000 397.259
27.16000 398.130
27.20000 394.953
27.24000 382.572
27.28000 387.734
27.32000 383.597
27.36000 397.943
27.40000 382.113
27.44000 374.313
27.48000 363.418
27.52000 382.327
27.56000 385.519
27.60000 375.847
27.64000 392.035
27.68000 370.074
27.72000 376.152
27.76000 368.380
27.80000 388.455
27.84000 380.978
27.88000 368.528
27.92000 369.991
27.96000 374.157
28.00000 399.421
28.04000 376.267
28.08000 385.721
28.12000 370.067
28.16000 392.138
28.20000 387.033
28.24000 382.884
28.28000 368.596
28.32000 368.915
28.36000 385.229
28.40000 392.382
28.44000 378.329
28.48000 355.724
28.52000 383.991
28.56000 378.153
28.60000 375.365
28.64000 362.224
28.68000 372.076
28.72000 366.960
28.76000 370.557
28.80000 359.963
28.84000 365.841
28.88000 365.264
28.92000 373.551
28.96000 358.485
29.00000 359.363
29.04000 372.293
29.08000 376.307
29.12000 361.979
29.16000 378.082
29.20000 367.834
29.24000 368.743
29.28000 366.093
29.32000 380.831
29.36000 361.185
29.40000 368.747
29.44000 368.305
29.48000 351.478
29.52000 375.450
29.56000 356.066
29.60000 364.665
29.64000 358.836
29.68000 371.852
29.72000 372.692
29.76000 400.796
29.80000 401.031
29.84000 420.434
29.88000 419.683
29.92000 444.691
29.96000 460.004
30.00000 467.506
30.04000 463.901
30.08000 466.175
30.12000 481.945
30.16000 469.613
30.20000 452.098
30.24000 435.998
30.28000 430.293
30.32000 407.020
30.36000 387.270
30.40000 394.603
30.44000 396.097
30.48000 404.489
30.52000 404.317
30.56000 410.508
30.60000 401.706
30.64000 393.758
30.68000 410.458
30.72000 441.079
30.76000 431.469
30.80000 427.015
30.84000 430.083
30.88000 438.758
30.92000 485.093
30.96000 516.975
31.00000 537.651
31.04000 639.300
31.08000 777.144
31.12000 1018.690
31.16000 1333.374
31.20000 1786.559
31.24000 2284.518
31.28000 2936.621
31.32000 3398.648
31.36000 3663.549
31.40000 3717.012
31.44000 3459.011
31.48000 3107.690
31.52000 2584.951
31.56000 1997.722
31.60000 1514.511
31.64000 1139.814
31.68000 881.656
31.72000 732.221
31.76000 634.677
31.80000 522.518
31.84000 475.304
31.88000 440.633
31.92000 425.832
31.96000 402.352
32.00000 388.413
32.04000 374.740
32.08000 372.172
32.12000 366.791
32.16000 369.945
32.20000 352.539
32.24000 345.359
32.28000 344.127
32.32000 350.079
32.36000 347.896
32.40000 348.850
32.44000 358.346
32.48000 347.363
32.52000 343.703
32.56000 338.372
32.60000 345.103
32.64000 329.922
32.68000 333.185
32.72000 348.972
32.76000 321.863
32.80000 341.785
32.84000 320.327
32.88000 324.087
32.92000 324.297
32.96000 317.622
33.00000 298.025
33.04000 306.754
33.08000 323.570
33.12000 302.800
33.16000 319.530
33.20000 301.662
33.24000 314.942
33.28000 326.617
33.32000 316.201
33.36000 303.668
33.40000 306.398
33.44000 309.892
33.48000 297.669
33.52000 303.357
33.56000 312.808
33.60000 302.844
33.64000 303.730
33.68000 314.502
33.72000 297.471
33.76000 294.445
33.80000 295.876
33.84000 298.573
33.88000 286.932
33.92000 297.998
33.96000 290.880
34.00000 296.010
34.04000 290.536
34.08000 290.113
34.12000 288.300
34.16000 299.299
34.20000 296.129
34.24000 292.361
34.28000 301.738
34.32000 287.907
34.36000 303.446
34.40000 293.320
34.44000 288.932
34.48000 294.907
34.52000 298.286
34.56000 287.615
34.60000 284.755
34.64000 282.352
34.68000 295.966
34.72000 288.494
34.76000 290.332
34.80000 275.619
34.84000 281.844
34.88000 299.646
34.92000 273.007
34.96000 268.006
35.00000 280.528
35.04000 289.630
35.08000 289.846
35.12000 266.086
35.16000 263.352
35.20000 287.437
35.24000 288.232
35.28000 278.583
35.32000 280.335
35.36000 288.092
35.40000 253.024
35.44000 278.603
35.48000 294.699
35.52000 272.236
35.56000 274.436
35.60000 275.495
35.64000 267.877
35.68000 280.090
35.72000 273.271
35.76000 269.034
35.80000 277.681
35.84000 278.024
35.88000 267.831
35.92000 260.804
35.96000 269.555
36.00000 263.899
36.04000 269.819
36.08000 269.361
36.12000 263.563
36.16000 265.291
36.20000 254.471
36.24000 257.759
36.28000 261.831
36.32000 261.816
36.36000 274.143
36.40000 275.186
36.44000 260.411
36.48000 267.143
36.52000 268.929
36.56000 256.985
36.60000 248.410
36.64000 268.613
36.68000 261.585
36.72000 259.393
36.76000 267.046
36.80000 265.864
36.84000 277.049
36.88000 279.299
36.92000 280.213
36.96000 287.250
37.00000 285.316
37.04000 272.783
37.08000 270.578
37.12000 266.609
37.16000 267.781
37.20000 273.482
37.24000 272.380
37.28000 258.995
37.32000 263.255
37.36000 269.903
37.40000 277.451
37.44000 275.081
37.48000 261.145
37.52000 266.505
37.56000 264.690
37.60000 257.106
37.64000 262.791
37.68000 270.234
37.72000 268.124
37.76000 268.172
37.80000 269.519
37.84000 280.120
37.88000 277.985
37.92000 276.568
37.96000 257.148
38.00000 261.590
38.04000 281.943
38.08000 265.136
38.12000 273.136
38.16000 284.367
38.20000 285.901
38.24000 314.938
38.28000 296.851
38.32000 319.394
38.36000 337.403
38.40000 363.104
38.44000 424.215
38.48000 478.700
38.52000 548.011
38.56000 607.634
38.60000 696.619
38.64000 733.102
38.68000 752.586
38.72000 742.721
38.76000 701.868
38.80000 618.458
38.84000 578.671
38.88000 487.824
38.92000 421.788
38.96000 380.617
39.00000 343.981
39.04000 306.554
39.08000 294.530
39.12000 287.994
39.16000 277.408
39.20000 265.311
39.24000 257.127
39.28000 261.780
39.32000 245.425
39.36000 261.079
39.40000 259.422
39.44000 261.988
39.48000 240.174
39.52000 225.891
39.56000 243.440
39.60000 238.738
39.64000 237.573
39.68000 231.217
39.72000 235.681
39.76000 261.826
39.80000 248.695
39.84000 248.309
39.88000 241.567
39.92000 238.154
39.96000 232.605
40.00000 240.644
40.04000 240.363
40.08000 246.303
40.12000 236.416
40.16000 221.774
40.20000 226.213
40.24000 241.442
40.28000 225.563
40.32000 234.190
40.36000 228.017
40.40000 236.797
40.44000 238.606
40.48000 241.521
40.52000 239.926
40.56000 236.696
40.60000 215.733
40.64000 233.006
40.68000 239.739
40.72000 231.815
40.76000 228.983
40.80000 218.011
40.84000 226.608
40.88000 227.197
40.92000 218.562
40.96000 227.691
41.00000 226.825
41.04000 223.512
41.08000 229.806
41.12000 223.165
41.16000 217.399
41.20000 231.151
41.24000 214.006
41.28000 217.733
41.32000 210.776
41.36000 218.735
41.40000 222.157
41.44000 219.161
41.48000 212.860
41.52000 219.125
41.56000 228.656
41.60000 215.355
41.64000 221.267
41.68000 214.928
41.72000 211.260
41.76000 210.630
41.80000 227.469
41.84000 217.690
41.88000 209.602
41.92000 221.366
41.96000 216.131
42.00000 208.109
42.04000 209.677
42.08000 214.332
42.12000 211.054
42.16000 224.325
42.20000 211.538
42.24000 203.449
42.28000 208.593
42.32000 213.639
42.36000 212.064
42.40000 210.184
42.44000 205.154
42.48000 202.065
42.52000 212.543
42.56000 203.075
42.60000 204.817
42.64000 205.711
42.68000 208.244
42.72000 213.446
42.76000 221.564
42.80000 215.947
42.84000 225.888
42.88000 209.683
42.92000 219.324
42.96000 212.662
43.00000 232.823
43.04000 210.249
43.08000 216.316
43.12000 222.478
43.16000 203.321
43.20000 207.244
43.24000 205.417
43.28000 213.016
43.32000 199.040
43.36000 201.680
43.40000 218.357
43.44000 210.577
43.48000 201.737
43.52000 198.208
43.56000 200.436
43.60000 211.077
43.64000 210.627
43.68000 192.902
43.72000 206.967
43.76000 211.723
43.80000 207.446
43.84000 204.202
43.88000 201.521
43.92000 211.235
43.96000 206.597
44.00000 210.046
44.04000 198.646
44.08000 199.668
44.12000 218.458
44.16000 211.134
44.20000 198.901
44.24000 209.758
44.28000 207.488
44.32000 200.256
44.36000 215.917
44.40000 215.613
44.44000 214.664
44.48000 227.577
44.52000 229.351
44.56000 238.377
44.60000 250.984
44.64000 258.791
44.68000 266.721
44.72000 277.355
44.76000 315.115
44.80000 319.383
44.84000 354.051
44.88000 387.758
44.92000 405.807
44.96000 429.824
45.00000 410.355
45.04000 407.089
45.08000 452.710
45.12000 397.846
45.16000 374.714
45.20000 348.368
45.24000 332.539
45.28000 297.658
45.32000 287.698
45.36000 269.799
45.40000 265.331
45.44000 256.501
45.48000 261.367
45.52000 244.777
45.56000 236.313
45.60000 230.756
45.64000 217.040
45.68000 218.851
45.72000 213.885
45.76000 201.543
45.80000 202.307
45.84000 204.935
45.88000 196.195
45.92000 186.122
45.96000 189.365
46.00000 202.756
46.04000 193.475
46.08000 195.300
46.12000 186.926
46.16000 189.026
46.20000 185.620
46.24000 184.928
46.28000 184.088
46.32000 177.458
46.36000 181.220
46.40000 179.864
46.44000 178.610
46.48000 173.892
46.52000 191.509
46.56000 179.586
46.60000 169.551
46.64000 167.811
46.68000 179.114
46.72000 197.565
46.76000 169.104
46.80000 182.549
46.84000 174.687
46.88000 170.709
46.92000 180.442
46.96000 175.575
47.00000 181.816
47.04000 187.542
47.08000 161.005
47.12000 168.084
47.16000 165.363
47.20000 166.077
47.24000 176.608
47.28000 167.056
47.32000 163.955
47.36000 176.793
47.40000 172.989
47.44000 161.450
47.48000 160.813
47.52000 158.563
47.56000 159.039
47.60000 175.771
47.64000 165.075
47.68000 166.732
47.72000 176.203
47.76000 180.114
47.80000 168.125
47.84000 164.480
47.88000 160.941
47.92000 163.360
47.96000 172.842
48.00000 171.816
48.04000 159.863
48.08000 162.750
48.12000 162.122
48.16000 165.062
48.20000 168.745
48.24000 161.849
48.28000 162.580
48.32000 169.578
48.36000 165.171
48.40000 174.199
48.44000 159.813
48.48000 160.186
48.52000 162.012
48.56000 165.687
48.60000 163.562
48.64000 165.849
48.68000 165.591
48.72000 154.792
48.76000 160.503
48.80000 173.390
48.84000 160.074
48.88000 165.574
48.92000 147.359
48.96000 163.600
49.00000 166.867
49.04000 173.246
49.08000 158.156
49.12000 164.976
49.16000 154.403
49.20000 170.801
49.24000 160.279
49.28000 155.295
49.32000 170.595
49.36000 163.628
49.40000 153.812
49.44000 161.966
49.48000 161.773
49.52000 171.807
49.56000 156.587
49.60000 165.036
49.64000 150.360
49.68000 155.403
49.72000 157.828
49.76000 151.791
49.80000 152.973
49.84000 165.114
49.88000 167.333
49.92000 166.634
49.96000 164.787
50.00000 158.166
50.04000 173.035
50.08000 161.142
50.12000 170.860
50.16000 176.804
50.20000 167.596
50.24000 162.677
50.28000 173.513
50.32000 179.857
50.36000 195.103
50.40000 198.328
50.44000 191.388
50.48000 217.857
50.52000 226.305
50.56000 224.789
50.60000 247.986
50.64000 257.421
50.68000 263.271
50.72000 248.040
50.76000 240.421
50.80000 234.112
50.84000 236.452
50.88000 212.889
50.92000 202.179
50.96000 194.835
51.00000 197.159
51.04000 204.994
51.08000 183.048
51.12000 175.430
51.16000 170.213
51.20000 170.272
51.24000 173.751
51.28000 176.106
51.32000 160.630
51.36000 161.318
51.40000 164.731
51.44000 152.199
51.48000 145.672
51.52000 153.013
51.56000 144.465
51.60000 158.316
51.64000 152.534
51.68000 143.415
51.72000 153.997
51.76000 136.660
51.80000 148.480
51.84000 150.611
51.88000 147.563
51.92000 144.146
51.96000 149.692
52.00000 154.163
52.04000 138.278
52.08000 139.234
52.12000 151.167
52.16000 139.577
52.20000 151.102
52.24000 141.677
52.28000 144.181
52.32000 152.031
52.36000 139.556
52.40000 140.341
52.44000 136.238
52.48000 150.076
52.52000 143.991
52.56000 146.189
52.60000 138.161
52.64000 139.666
52.68000 137.581
52.72000 137.388
52.76000 141.512
52.80000 143.602
52.84000 151.109
52.88000 147.948
52.92000 144.328
52.96000 151.717
53.00000 147.493
53.04000 151.195
53.08000 152.470
53.12000 148.794
53.16000 158.747
53.20000 153.116
53.24000 152.354
53.28000 156.571
53.32000 150.012
53.36000 157.463
53.40000 160.480
53.44000 153.437
53.48000 154.307
53.52000 146.664
53.56000 144.808
53.60000 146.386
53.64000 140.599
53.68000 139.182
53.72000 148.307
53.76000 141.044
53.80000 150.357
53.84000 138.703
53.88000 146.333
53.92000 141.660
53.96000 134.624
54.00000 141.209
54.04000 135.300
54.08000 139.279
54.12000 133.099
54.16000 133.527
54.20000 145.541
54.24000 145.164
54.28000 144.003
54.32000 142.840
54.36000 139.903
54.40000 135.617
54.44000 140.818
54.48000 151.722
54.52000 150.143
54.56000 150.855
54.60000 149.605
54.64000 137.480
54.68000 141.116
54.72000 156.664
54.76000 147.991
54.80000 140.135
54.84000 137.146
54.88000 144.614
54.92000 145.225
54.96000 152.853
55.00000 146.661
55.04000 147.731
55.08000 149.198
55.12000 141.814
55.16000 148.503
55.20000 155.381
55.24000 146.945
55.28000 155.134
55.32000 163.609
55.36000 172.714
55.40000 184.902
55.44000 197.455
55.48000 187.187
55.52000 220.256
55.56000 251.102
55.60000 269.054
55.64000 304.566
55.68000 356.896
55.72000 389.757
55.76000 440.819
55.80000 488.097
55.84000 517.549
55.88000 546.039
55.92000 552.645
55.96000 545.383
56.00000 518.161
56.04000 488.803
56.08000 431.423
56.12000 393.589
56.16000 356.763
56.20000 311.840
56.24000 285.587
56.28000 249.443
56.32000 224.804
56.36000 209.033
56.40000 198.374
56.44000 193.855
56.48000 177.294
56.52000 169.520
56.56000 159.856
56.60000 161.237
56.64000 156.353
56.68000 154.056
56.72000 149.066
56.76000 150.593
56.80000 148.831
56.84000 139.030
56.88000 134.617
56.92000 128.995
56.96000 129.800
57.00000 142.379
57.04000 128.314
57.08000 134.080
57.12000 141.903
57.16000 134.084
57.20000 138.506
57.24000 135.796
57.28000 130.725
57.32000 132.073
57.36000 124.999
57.40000 135.717
57.44000 127.742
57.48000 124.670
57.52000 127.605
57.56000 131.487
57.60000 118.180
57.64000 139.404
57.68000 127.182
57.72000 133.968
57.76000 132.591
57.80000 131.282
57.84000 125.114
57.88000 127.321
57.92000 130.715
57.96000 122.110
58.00000 125.464
58.04000 128.640
58.08000 123.426
58.12000 126.540
58.16000 133.001
58.20000 136.813
58.24000 122.260
58.28000 131.513
58.32000 129.869
58.36000 121.001
58.40000 130.001
58.44000 122.248
58.48000 126.340
58.52000 119.797
58.56000 120.070
58.60000 117.433
58.64000 122.823
58.68000 121.797
58.72000 127.205
58.76000 120.210
58.80000 119.722
58.84000 140.752
58.88000 117.188
58.92000 119.398
58.96000 128.606
59.00000 127.799
59.04000 115.716
59.08000 105.666
59.12000 113.572
59.16000 112.933
59.20000 131.127
59.24000 117.720
59.28000 124.287
59.32000 120.322
59.36000 126.285
59.40000 116.556
59.44000 112.042
59.48000 107.858
59.52000 118.664
59.56000 120.797
59.60000 120.273
59.64000 116.015
59.68000 121.118
59.72000 123.271
59.76000 121.953
59.80000 117.370
59.84000 120.147
59.88000 122.279
59.92000 132.731
59.96000 104.240
60.00000 123.449
60.04000 120.395
60.08000 122.829
60.12000 119.719
60.16000 124.278
60.20000 124.283
60.24000 125.627
60.28000 118.814
60.32000 116.077
60.36000 129.008
60.40000 120.151
60.44000 123.853
60.48000 119.279
60.52000 118.656
60.56000 129.142
60.60000 112.499
60.64000 120.280
60.68000 123.482
60.72000 118.127
60.76000 123.949
60.80000 119.226
60.84000 116.134
60.88000 117.488
60.92000 122.525
60.96000 122.410
61.00000 125.642
61.04000 125.963
61.08000 131.361
61.12000 125.708
61.16000 127.728
61.20000 122.810
61.24000 128.402
61.28000 128.779
61.32000 127.236
61.36000 118.177
61.40000 136.540
61.44000 140.000
61.48000 147.374
61.52000 193.286
61.56000 279.507
61.60000 357.659
61.64000 411.784
61.68000 434.504
61.72000 450.748
61.76000 404.262
61.80000 320.417
61.84000 230.423
61.88000 161.264
61.92000 148.635
61.96000 144.066
62.00000 136.301
62.04000 134.248
62.08000 130.845
62.12000 142.048
62.16000 134.689
62.20000 125.520
62.24000 142.799
62.28000 125.225
62.32000 142.095
62.36000 132.937
62.40000 135.677
62.44000 142.978
62.48000 139.919
62.52000 134.292
62.56000 139.491
62.60000 151.194
62.64000 131.433
62.68000 140.149
62.72000 147.059
62.76000 147.792
62.80000 135.247
62.84000 142.189
62.88000 130.933
62.92000 141.766
62.96000 138.791
63.00000 138.782
63.04000 144.143
63.08000 140.407
63.12000 146.839
63.16000 140.916
63.20000 137.873
63.24000 142.519
63.28000 131.273
63.32000 146.730
63.36000 151.081
63.40000 143.702
63.44000 126.628
63.48000 151.348
63.52000 146.914
63.56000 143.029
63.60000 144.749
63.64000 145.147
63.68000 144.717
63.72000 148.666
63.76000 152.277
63.80000 155.614
63.84000 163.081
63.88000 156.091
63.92000 152.109
63.96000 139.098
64.00000 160.621
64.04000 159.275
64.08000 164.283
64.12000 158.290
64.16000 156.561
64.20000 162.099
64.24000 166.493
64.28000 157.830
64.32000 161.231
64.36000 164.400
64.40000 165.022
64.44000 170.205
64.48000 159.650
64.52000 170.577
64.56000 172.851
64.60000 177.033
64.64000 185.914
64.68000 188.711
64.72000 191.839
64.76000 202.433
64.80000 195.963
64.84000 194.091
64.88000 206.648
64.92000 209.159
64.96000 206.697
65.00000 217.073
65.04000 218.949
65.08000 223.774
65.12000 235.684
65.16000 277.472
65.20000 299.641
65.24000 313.675
65.28000 319.363
65.32000 366.666
65.36000 377.091
65.40000 425.080
65.44000 458.258
65.48000 506.353
65.52000 532.833
65.56000 594.342
65.60000 655.572
65.64000 739.545
65.68000 1012.644
65.72000 1593.719
65.76000 2419.298
65.80000 3078.405
65.84000 3418.689
65.88000 3468.645
65.92000 3247.244
65.96000 2609.371
66.00000 1777.894
66.04000 1074.981
66.08000 728.665
66.12000 581.733
66.16000 532.596
66.20000 507.767
66.24000 562.660
66.28000 662.555
66.32000 805.724
66.36000 913.552
66.40000 974.833
66.44000 980.911
66.48000 936.799
66.52000 786.417
66.56000 638.340
66.60000 565.334
66.64000 507.554
66.68000 461.623
66.72000 458.755
66.76000 439.394
66.80000 461.476
66.84000 464.305
66.88000 467.462
66.92000 495.962
66.96000 491.260
67.00000 497.051
67.04000 496.527
67.08000 511.035
67.12000 487.987
67.16000 493.676
67.20000 518.547
67.24000 503.873
67.28000 527.039
67.32000 519.599
67.36000 526.777
67.40000 548.637
67.44000 547.420
67.48000 559.883
67.52000 556.676
67.56000 579.412
67.60000 553.999
67.64000 588.865
67.68000 601.313
67.72000 624.288
67.76000 599.173
67.80000 613.987
67.84000 650.814
67.88000 632.931
67.92000 614.467
67.96000 642.744
68.00000 652.485
68.04000 661.785
68.08000 690.253
68.12000 658.966
68.16000 708.266
68.20000 722.388
68.24000 737.326
68.28000 743.620
68.32000 775.849
68.36000 811.756
68.40000 824.744
68.44000 892.893
68.48000 898.962
68.52000 950.541
68.56000 1067.029
68.60000 1216.679
68.64000 1423.756
68.68000 1724.831
68.72000 2042.647
68.76000 2354.701
68.80000 2757.396
68.84000 3226.448
68.88000 4311.333
68.92000 7576.615
68.96000 17854.904
69.00000 39879.406
69.04000 63515.730
69.08000 76523.219
69.12000 81721.836
69.16000 86328.797
69.20000 83291.508
69.24000 69638.883
69.28000 52819.977
69.32000 42184.426
69.36000 38812.441
69.40000 31530.146
69.44000 19770.563
69.48000 9114.386
69.52000 3927.672
69.56000 2181.675
69.60000 1592.838
69.64000 1343.011
69.68000 1153.276
69.72000 1003.048
69.76000 918.186
69.80000 855.690
69.84000 779.207
69.88000 723.526
69.92000 668.440
69.96000 654.271
70.00000 625.924