File: XRD/09-10-2025 Dep 8/XY Data/BTO_Mapping_Theta2Theta_09-10-2025_001_61_36-542_-16-269.xy
20.00000 485.234
20.04000 492.568
20.08000 474.421
20.12000 458.072
20.16000 471.437
20.20000 476.840
20.24000 475.571
20.28000 463.564
20.32000 488.452
20.36000 482.125
20.40000 495.015
20.44000 480.019
20.48000 478.355
20.52000 475.882
20.56000 477.512
20.60000 484.207
20.64000 463.292
20.68000 477.344
20.72000 489.819
20.76000 495.767
20.80000 479.273
20.84000 484.014
20.88000 491.216
20.92000 484.100
20.96000 460.061
21.00000 460.509
21.04000 471.627
21.08000 472.042
21.12000 472.629
21.16000 464.204
21.20000 462.396
21.24000 470.060
21.28000 502.613
21.32000 476.466
21.36000 472.547
21.40000 469.837
21.44000 470.065
21.48000 465.868
21.52000 474.911
21.56000 472.768
21.60000 475.291
21.64000 471.323
21.68000 475.913
21.72000 477.029
21.76000 482.806
21.80000 474.432
21.84000 509.995
21.88000 497.380
21.92000 509.044
21.96000 516.968
22.00000 559.776
22.04000 567.004
22.08000 572.334
22.12000 596.298
22.16000 588.045
22.20000 562.339
22.24000 558.811
22.28000 563.050
22.32000 551.307
22.36000 545.793
22.40000 495.540
22.44000 501.206
22.48000 496.788
22.52000 469.284
22.56000 466.677
22.60000 439.011
22.64000 457.609
22.68000 454.072
22.72000 465.496
22.76000 459.554
22.80000 447.765
22.84000 462.212
22.88000 444.029
22.92000 427.611
22.96000 458.473
23.00000 438.490
23.04000 439.461
23.08000 458.883
23.12000 461.657
23.16000 444.729
23.20000 447.521
23.24000 454.517
23.28000 434.194
23.32000 425.792
23.36000 448.539
23.40000 443.685
23.44000 436.041
23.48000 437.378
23.52000 438.614
23.56000 442.579
23.60000 443.232
23.64000 451.627
23.68000 440.946
23.72000 438.235
23.76000 438.795
23.80000 462.097
23.84000 448.117
23.88000 467.075
23.92000 449.398
23.96000 450.723
24.00000 468.846
24.04000 453.575
24.08000 462.342
24.12000 449.839
24.16000 469.920
24.20000 461.497
24.24000 462.833
24.28000 420.578
24.32000 425.693
24.36000 427.064
24.40000 422.839
24.44000 412.278
24.48000 414.232
24.52000 424.476
24.56000 437.585
24.60000 411.649
24.64000 420.405
24.68000 416.978
24.72000 429.546
24.76000 413.063
24.80000 408.441
24.84000 398.998
24.88000 410.335
24.92000 406.083
24.96000 417.652
25.00000 392.978
25.04000 418.321
25.08000 408.238
25.12000 389.416
25.16000 403.515
25.20000 405.224
25.24000 391.446
25.28000 401.068
25.32000 403.640
25.36000 408.019
25.40000 409.557
25.44000 396.637
25.48000 405.228
25.52000 411.989
25.56000 389.103
25.60000 397.914
25.64000 397.138
25.68000 401.498
25.72000 399.997
25.76000 399.620
25.80000 417.208
25.84000 398.077
25.88000 397.227
25.92000 411.510
25.96000 403.853
26.00000 397.420
26.04000 373.851
26.08000 392.911
26.12000 394.887
26.16000 381.964
26.20000 393.266
26.24000 388.077
26.28000 387.058
26.32000 398.839
26.36000 388.806
26.40000 395.985
26.44000 400.047
26.48000 394.981
26.52000 390.136
26.56000 385.966
26.60000 385.030
26.64000 388.246
26.68000 387.291
26.72000 385.316
26.76000 378.958
26.80000 388.538
26.84000 381.365
26.88000 395.680
26.92000 379.360
26.96000 403.218
27.00000 376.349
27.04000 373.167
27.08000 397.428
27.12000 388.416
27.16000 371.958
27.20000 365.150
27.24000 386.348
27.28000 379.581
27.32000 377.021
27.36000 374.592
27.40000 380.841
27.44000 366.430
27.48000 372.825
27.52000 387.208
27.56000 385.211
27.60000 347.407
27.64000 365.225
27.68000 378.773
27.72000 354.597
27.76000 359.601
27.80000 378.957
27.84000 374.258
27.88000 355.714
27.92000 359.471
27.96000 353.141
28.00000 353.783
28.04000 361.071
28.08000 371.393
28.12000 355.778
28.16000 357.704
28.20000 354.021
28.24000 369.229
28.28000 367.925
28.32000 354.879
28.36000 375.242
28.40000 367.026
28.44000 359.204
28.48000 360.327
28.52000 358.797
28.56000 346.990
28.60000 366.149
28.64000 355.215
28.68000 357.753
28.72000 361.645
28.76000 364.980
28.80000 367.998
28.84000 365.017
28.88000 355.760
28.92000 379.433
28.96000 357.829
29.00000 365.008
29.04000 371.607
29.08000 360.291
29.12000 344.674
29.16000 341.859
29.20000 356.824
29.24000 364.832
29.28000 364.107
29.32000 352.582
29.36000 351.378
29.40000 351.977
29.44000 357.339
29.48000 346.382
29.52000 347.359
29.56000 351.503
29.60000 358.938
29.64000 361.772
29.68000 356.748
29.72000 359.504
29.76000 347.750
29.80000 362.200
29.84000 367.068
29.88000 385.189
29.92000 376.772
29.96000 399.616
30.00000 389.868
30.04000 380.193
30.08000 391.320
30.12000 410.151
30.16000 397.518
30.20000 395.845
30.24000 385.159
30.28000 367.260
30.32000 386.787
30.36000 391.257
30.40000 375.279
30.44000 368.247
30.48000 384.083
30.52000 367.295
30.56000 365.695
30.60000 373.571
30.64000 372.651
30.68000 395.038
30.72000 374.840
30.76000 392.820
30.80000 387.750
30.84000 379.839
30.88000 393.487
30.92000 406.692
30.96000 416.299
31.00000 438.381
31.04000 453.549
31.08000 483.867
31.12000 552.728
31.16000 638.820
31.20000 743.454
31.24000 903.333
31.28000 1135.627
31.32000 1333.625
31.36000 1534.051
31.40000 1714.513
31.44000 1785.740
31.48000 1730.526
31.52000 1627.954
31.56000 1436.087
31.60000 1209.584
31.64000 981.256
31.68000 826.021
31.72000 693.861
31.76000 582.223
31.80000 530.732
31.84000 488.876
31.88000 431.133
31.92000 407.464
31.96000 399.194
32.00000 380.036
32.04000 353.034
32.08000 353.330
32.12000 348.100
32.16000 382.968
32.20000 336.793
32.24000 319.433
32.28000 339.716
32.32000 347.316
32.36000 334.772
32.40000 325.592
32.44000 320.857
32.48000 310.614
32.52000 332.951
32.56000 320.721
32.60000 331.590
32.64000 327.246
32.68000 328.142
32.72000 321.378
32.76000 317.016
32.80000 330.653
32.84000 329.314
32.88000 325.094
32.92000 323.547
32.96000 299.414
33.00000 320.894
33.04000 305.092
33.08000 310.019
33.12000 299.784
33.16000 303.743
33.20000 304.846
33.24000 284.469
33.28000 296.796
33.32000 302.412
33.36000 304.784
33.40000 296.054
33.44000 293.610
33.48000 278.934
33.52000 293.984
33.56000 309.193
33.60000 297.430
33.64000 285.017
33.68000 305.704
33.72000 289.248
33.76000 287.219
33.80000 291.030
33.84000 293.646
33.88000 294.391
33.92000 279.927
33.96000 294.479
34.00000 295.624
34.04000 277.550
34.08000 297.020
34.12000 294.688
34.16000 282.269
34.20000 286.874
34.24000 297.035
34.28000 296.738
34.32000 297.324
34.36000 292.088
34.40000 284.312
34.44000 291.292
34.48000 280.737
34.52000 295.982
34.56000 286.985
34.60000 280.114
34.64000 288.562
34.68000 283.851
34.72000 285.128
34.76000 296.640
34.80000 277.039
34.84000 287.152
34.88000 252.941
34.92000 263.973
34.96000 269.478
35.00000 295.336
35.04000 290.393
35.08000 274.770
35.12000 261.997
35.16000 276.039
35.20000 282.581
35.24000 270.708
35.28000 288.997
35.32000 269.652
35.36000 268.220
35.40000 273.950
35.44000 264.124
35.48000 268.076
35.52000 268.997
35.56000 267.524
35.60000 254.553
35.64000 261.981
35.68000 267.322
35.72000 260.843
35.76000 264.635
35.80000 258.965
35.84000 262.833
35.88000 265.806
35.92000 264.759
35.96000 259.162
36.00000 265.599
36.04000 247.551
36.08000 267.064
36.12000 265.097
36.16000 253.433
36.20000 244.819
36.24000 266.490
36.28000 273.961
36.32000 250.297
36.36000 256.192
36.40000 259.684
36.44000 269.181
36.48000 272.938
36.52000 261.262
36.56000 256.189
36.60000 257.904
36.64000 258.273
36.68000 259.587
36.72000 273.846
36.76000 259.439
36.80000 262.574
36.84000 256.612
36.88000 278.867
36.92000 263.544
36.96000 262.801
37.00000 282.969
37.04000 282.203
37.08000 292.408
37.12000 284.308
37.16000 300.312
37.20000 273.092
37.24000 275.047
37.28000 275.733
37.32000 265.050
37.36000 270.468
37.40000 260.012
37.44000 261.124
37.48000 267.363
37.52000 256.685
37.56000 261.394
37.60000 243.062
37.64000 248.165
37.68000 251.528
37.72000 252.616
37.76000 262.601
37.80000 261.722
37.84000 253.082
37.88000 260.934
37.92000 253.286
37.96000 264.587
38.00000 257.640
38.04000 268.862
38.08000 263.751
38.12000 257.642
38.16000 268.443
38.20000 266.654
38.24000 266.189
38.28000 282.875
38.32000 284.613
38.36000 281.113
38.40000 298.098
38.44000 307.871
38.48000 326.576
38.52000 386.829
38.56000 460.635
38.60000 536.926
38.64000 705.458
38.68000 832.429
38.72000 997.167
38.76000 1048.813
38.80000 1053.696
38.84000 1003.347
38.88000 910.882
38.92000 772.060
38.96000 616.638
39.00000 495.342
39.04000 412.084
39.08000 348.837
39.12000 309.994
39.16000 280.622
39.20000 280.332
39.24000 263.416
39.28000 246.368
39.32000 263.013
39.36000 243.124
39.40000 245.220
39.44000 245.134
39.48000 247.395
39.52000 235.391
39.56000 223.651
39.60000 228.578
39.64000 232.768
39.68000 231.276
39.72000 225.027
39.76000 232.110
39.80000 240.364
39.84000 222.482
39.88000 229.185
39.92000 235.241
39.96000 223.094
40.00000 235.728
40.04000 220.418
40.08000 232.942
40.12000 235.937
40.16000 221.292
40.20000 222.775
40.24000 229.621
40.28000 229.389
40.32000 227.053
40.36000 213.085
40.40000 215.300
40.44000 215.673
40.48000 226.650
40.52000 218.988
40.56000 224.730
40.60000 221.211
40.64000 216.659
40.68000 219.768
40.72000 220.601
40.76000 217.523
40.80000 220.615
40.84000 212.187
40.88000 218.095
40.92000 209.331
40.96000 208.244
41.00000 225.287
41.04000 209.703
41.08000 215.200
41.12000 222.476
41.16000 214.017
41.20000 227.322
41.24000 220.095
41.28000 218.707
41.32000 215.952
41.36000 210.366
41.40000 208.955
41.44000 216.801
41.48000 209.544
41.52000 219.063
41.56000 214.994
41.60000 218.109
41.64000 202.748
41.68000 207.954
41.72000 212.138
41.76000 210.142
41.80000 215.164
41.84000 204.842
41.88000 216.993
41.92000 210.643
41.96000 217.360
42.00000 200.097
42.04000 218.333
42.08000 212.057
42.12000 210.758
42.16000 201.355
42.20000 212.737
42.24000 201.089
42.28000 207.094
42.32000 196.213
42.36000 211.870
42.40000 204.056
42.44000 208.363
42.48000 203.849
42.52000 200.499
42.56000 214.659
42.60000 214.658
42.64000 198.333
42.68000 192.708
42.72000 200.234
42.76000 214.104
42.80000 194.607
42.84000 194.992
42.88000 188.553
42.92000 195.587
42.96000 211.170
43.00000 194.217
43.04000 210.596
43.08000 199.505
43.12000 189.057
43.16000 194.954
43.20000 196.765
43.24000 202.259
43.28000 191.133
43.32000 204.145
43.36000 198.188
43.40000 201.441
43.44000 193.813
43.48000 180.924
43.52000 195.218
43.56000 193.663
43.60000 191.257
43.64000 194.208
43.68000 194.400
43.72000 191.084
43.76000 185.534
43.80000 191.709
43.84000 201.511
43.88000 190.966
43.92000 187.540
43.96000 190.334
44.00000 193.731
44.04000 184.767
44.08000 200.749
44.12000 188.931
44.16000 192.142
44.20000 190.736
44.24000 190.713
44.28000 199.005
44.32000 183.642
44.36000 199.140
44.40000 195.241
44.44000 191.061
44.48000 194.516
44.52000 210.283
44.56000 204.415
44.60000 200.580
44.64000 209.527
44.68000 213.653
44.72000 206.435
44.76000 208.024
44.80000 204.310
44.84000 198.561
44.88000 221.940
44.92000 231.899
44.96000 230.700
45.00000 236.569
45.04000 246.999
45.08000 265.691
45.12000 277.264
45.16000 260.528
45.20000 269.869
45.24000 275.556
45.28000 261.037
45.32000 247.919
45.36000 262.592
45.40000 246.953
45.44000 248.718
45.48000 234.114
45.52000 235.540
45.56000 224.508
45.60000 225.821
45.64000 226.946
45.68000 215.436
45.72000 201.122
45.76000 197.466
45.80000 207.435
45.84000 201.348
45.88000 197.093
45.92000 195.829
45.96000 190.736
46.00000 185.440
46.04000 194.634
46.08000 195.457
46.12000 200.091
46.16000 190.335
46.20000 194.001
46.24000 180.166
46.28000 180.530
46.32000 182.234
46.36000 181.298
46.40000 174.158
46.44000 186.805
46.48000 174.306
46.52000 169.632
46.56000 177.781
46.60000 175.754
46.64000 171.521
46.68000 163.889
46.72000 170.450
46.76000 177.957
46.80000 174.869
46.84000 172.831
46.88000 172.166
46.92000 166.980
46.96000 163.311
47.00000 167.312
47.04000 186.260
47.08000 170.856
47.12000 176.908
47.16000 166.597
47.20000 179.597
47.24000 168.723
47.28000 165.608
47.32000 162.095
47.36000 166.290
47.40000 167.503
47.44000 167.388
47.48000 169.595
47.52000 162.793
47.56000 162.133
47.60000 169.039
47.64000 179.363
47.68000 165.323
47.72000 167.996
47.76000 169.373
47.80000 166.987
47.84000 158.736
47.88000 149.696
47.92000 159.263
47.96000 163.529
48.00000 165.980
48.04000 159.563
48.08000 165.945
48.12000 164.010
48.16000 160.986
48.20000 165.070
48.24000 159.380
48.28000 168.591
48.32000 154.207
48.36000 163.214
48.40000 177.696
48.44000 152.537
48.48000 166.153
48.52000 159.059
48.56000 147.686
48.60000 173.618
48.64000 163.022
48.68000 164.528
48.72000 166.514
48.76000 161.882
48.80000 151.506
48.84000 156.883
48.88000 166.368
48.92000 153.697
48.96000 164.521
49.00000 172.413
49.04000 158.782
49.08000 162.242
49.12000 157.179
49.16000 165.178
49.20000 152.265
49.24000 150.581
49.28000 151.227
49.32000 152.253
49.36000 155.114
49.40000 163.130
49.44000 156.746
49.48000 154.571
49.52000 162.259
49.56000 151.537
49.60000 157.746
49.64000 152.246
49.68000 153.672
49.72000 157.844
49.76000 155.166
49.80000 158.186
49.84000 151.105
49.88000 153.769
49.92000 154.245
49.96000 152.388
50.00000 153.032
50.04000 159.245
50.08000 155.096
50.12000 162.363
50.16000 148.918
50.20000 157.705
50.24000 145.224
50.28000 153.315
50.32000 153.268
50.36000 165.958
50.40000 151.444
50.44000 155.210
50.48000 162.210
50.52000 172.022
50.56000 182.772
50.60000 180.599
50.64000 176.895
50.68000 198.473
50.72000 200.789
50.76000 207.087
50.80000 202.571
50.84000 207.597
50.88000 193.315
50.92000 200.335
50.96000 188.972
51.00000 190.393
51.04000 178.591
51.08000 163.936
51.12000 166.460
51.16000 175.330
51.20000 168.535
51.24000 147.521
51.28000 163.874
51.32000 167.293
51.36000 152.962
51.40000 158.600
51.44000 143.926
51.48000 144.134
51.52000 153.676
51.56000 142.318
51.60000 145.564
51.64000 153.382
51.68000 152.504
51.72000 145.098
51.76000 142.422
51.80000 138.227
51.84000 147.561
51.88000 140.783
51.92000 144.378
51.96000 144.639
52.00000 147.197
52.04000 144.612
52.08000 152.243
52.12000 140.444
52.16000 139.819
52.20000 149.326
52.24000 131.538
52.28000 140.123
52.32000 138.468
52.36000 138.875
52.40000 151.753
52.44000 134.034
52.48000 133.347
52.52000 144.449
52.56000 139.975
52.60000 133.790
52.64000 138.825
52.68000 139.613
52.72000 143.811
52.76000 141.970
52.80000 151.653
52.84000 142.359
52.88000 128.080
52.92000 140.312
52.96000 140.807
53.00000 138.718
53.04000 143.189
53.08000 143.884
53.12000 142.116
53.16000 131.499
53.20000 141.312
53.24000 145.007
53.28000 142.432
53.32000 156.188
53.36000 143.156
53.40000 152.694
53.44000 151.020
53.48000 154.585
53.52000 154.779
53.56000 154.436
53.60000 155.268
53.64000 151.566
53.68000 146.020
53.72000 141.353
53.76000 145.340
53.80000 142.733
53.84000 142.230
53.88000 143.476
53.92000 140.239
53.96000 124.898
54.00000 122.143
54.04000 134.988
54.08000 132.729
54.12000 138.570
54.16000 147.380
54.20000 142.340
54.24000 133.737
54.28000 134.061
54.32000 137.139
54.36000 131.375
54.40000 127.736
54.44000 136.058
54.48000 140.847
54.52000 138.230
54.56000 131.176
54.60000 134.456
54.64000 135.386
54.68000 134.188
54.72000 143.559
54.76000 140.369
54.80000 134.975
54.84000 130.706
54.88000 137.055
54.92000 145.042
54.96000 132.055
55.00000 142.964
55.04000 136.204
55.08000 142.352
55.12000 149.165
55.16000 136.414
55.20000 151.149
55.24000 143.764
55.28000 142.334
55.32000 144.330
55.36000 144.831
55.40000 148.880
55.44000 147.305
55.48000 159.331
55.52000 165.930
55.56000 166.346
55.60000 176.287
55.64000 184.542
55.68000 208.765
55.72000 219.424
55.76000 234.123
55.80000 288.527
55.84000 341.706
55.88000 400.574
55.92000 465.055
55.96000 526.508
56.00000 576.563
56.04000 586.793
56.08000 588.702
56.12000 545.572
56.16000 526.948
56.20000 487.246
56.24000 442.908
56.28000 374.549
56.32000 310.933
56.36000 283.991
56.40000 255.072
56.44000 221.758
56.48000 186.525
56.52000 179.125
56.56000 182.780
56.60000 164.592
56.64000 155.206
56.68000 155.016
56.72000 151.103
56.76000 143.345
56.80000 149.159
56.84000 138.788
56.88000 129.527
56.92000 128.619
56.96000 138.356
57.00000 132.331
57.04000 138.837
57.08000 137.390
57.12000 128.289
57.16000 137.533
57.20000 124.056
57.24000 130.875
57.28000 125.120
57.32000 132.591
57.36000 130.050
57.40000 124.581
57.44000 126.419
57.48000 131.182
57.52000 121.637
57.56000 120.169
57.60000 122.243
57.64000 131.606
57.68000 119.528
57.72000 130.250
57.76000 119.154
57.80000 127.787
57.84000 125.025
57.88000 128.559
57.92000 121.053
57.96000 135.556
58.00000 133.976
58.04000 118.336
58.08000 125.616
58.12000 120.428
58.16000 122.248
58.20000 125.184
58.24000 115.361
58.28000 114.916
58.32000 120.220
58.36000 114.645
58.40000 130.727
58.44000 129.195
58.48000 123.931
58.52000 125.482
58.56000 120.037
58.60000 127.573
58.64000 119.583
58.68000 120.861
58.72000 117.061
58.76000 126.311
58.80000 121.521
58.84000 116.598
58.88000 120.005
58.92000 122.054
58.96000 126.206
59.00000 121.134
59.04000 114.862
59.08000 125.392
59.12000 116.187
59.16000 124.885
59.20000 117.709
59.24000 114.320
59.28000 116.402
59.32000 126.656
59.36000 120.112
59.40000 115.784
59.44000 119.077
59.48000 115.871
59.52000 113.712
59.56000 114.687
59.60000 115.768
59.64000 116.411
59.68000 121.425
59.72000 120.351
59.76000 122.260
59.80000 113.557
59.84000 117.441
59.88000 120.463
59.92000 111.168
59.96000 119.533
60.00000 116.480
60.04000 114.602
60.08000 128.513
60.12000 117.628
60.16000 124.407
60.20000 116.532
60.24000 110.507
60.28000 121.776
60.32000 109.042
60.36000 123.829
60.40000 119.772
60.44000 123.954
60.48000 117.903
60.52000 117.264
60.56000 129.924
60.60000 116.511
60.64000 107.927
60.68000 113.381
60.72000 121.111
60.76000 117.660
60.80000 122.524
60.84000 121.538
60.88000 115.798
60.92000 108.858
60.96000 127.620
61.00000 116.975
61.04000 117.175
61.08000 127.614
61.12000 124.430
61.16000 118.746
61.20000 124.335
61.24000 121.006
61.28000 120.932
61.32000 127.287
61.36000 117.800
61.40000 117.933
61.44000 123.603
61.48000 128.508
61.52000 159.507
61.56000 222.615
61.60000 250.478
61.64000 283.507
61.68000 299.364
61.72000 304.806
61.76000 297.292
61.80000 225.594
61.84000 171.305
61.88000 144.413
61.92000 133.247
61.96000 130.170
62.00000 128.487
62.04000 132.944
62.08000 126.421
62.12000 126.633
62.16000 132.252
62.20000 132.223
62.24000 126.927
62.28000 141.299
62.32000 127.224
62.36000 128.463
62.40000 132.839
62.44000 126.461
62.48000 129.758
62.52000 130.774
62.56000 130.160
62.60000 130.490
62.64000 133.541
62.68000 136.427
62.72000 140.389
62.76000 120.720
62.80000 133.269
62.84000 122.557
62.88000 126.955
62.92000 133.019
62.96000 139.513
63.00000 130.166
63.04000 134.279
63.08000 135.459
63.12000 137.887
63.16000 138.976
63.20000 135.099
63.24000 139.310
63.28000 147.831
63.32000 137.463
63.36000 139.533
63.40000 134.448
63.44000 143.521
63.48000 140.521
63.52000 134.912
63.56000 140.610
63.60000 148.683
63.64000 142.172
63.68000 129.523
63.72000 136.794
63.76000 141.088
63.80000 130.545
63.84000 144.025
63.88000 146.597
63.92000 147.022
63.96000 139.677
64.00000 137.907
64.04000 161.778
64.08000 143.259
64.12000 156.925
64.16000 162.324
64.20000 152.298
64.24000 153.815
64.28000 145.582
64.32000 147.109
64.36000 155.438
64.40000 157.956
64.44000 155.963
64.48000 158.388
64.52000 165.199
64.56000 163.279
64.60000 162.644
64.64000 166.744
64.68000 168.697
64.72000 158.934
64.76000 167.674
64.80000 181.837
64.84000 179.182
64.88000 187.252
64.92000 186.492
64.96000 191.936
65.00000 196.974
65.04000 179.272
65.08000 201.157
65.12000 180.620
65.16000 205.805
65.20000 212.626
65.24000 212.786
65.28000 219.121
65.32000 230.190
65.36000 241.912
65.40000 269.728
65.44000 280.915
65.48000 293.904
65.52000 326.571
65.56000 352.575
65.60000 413.586
65.64000 445.784
65.68000 650.678
65.72000 976.664
65.76000 1464.276
65.80000 1836.126
65.84000 2034.321
65.88000 2026.399
65.92000 1961.173
65.96000 1564.349
66.00000 1055.729
66.04000 669.768
66.08000 492.195
66.12000 427.964
66.16000 375.950
66.20000 404.924
66.24000 407.944
66.28000 478.544
66.32000 566.071
66.36000 628.473
66.40000 646.902
66.44000 660.380
66.48000 618.116
66.52000 553.840
66.56000 460.526
66.60000 402.935
66.64000 363.781
66.68000 359.192
66.72000 354.206
66.76000 340.977
66.80000 353.213
66.84000 342.954
66.88000 368.302
66.92000 360.513
66.96000 362.438
67.00000 398.331
67.04000 403.382
67.08000 372.282
67.12000 402.385
67.16000 403.047
67.20000 408.457
67.24000 391.469
67.28000 410.715
67.32000 409.593
67.36000 408.095
67.40000 427.127
67.44000 405.747
67.48000 438.866
67.52000 437.471
67.56000 445.951
67.60000 469.041
67.64000 451.293
67.68000 455.557
67.72000 473.307
67.76000 481.520
67.80000 492.015
67.84000 486.436
67.88000 496.182
67.92000 489.064
67.96000 503.772
68.00000 503.346
68.04000 522.081
68.08000 527.777
68.12000 523.992
68.16000 556.134
68.20000 567.563
68.24000 583.879
68.28000 616.615
68.32000 629.109
68.36000 606.712
68.40000 646.021
68.44000 672.103
68.48000 702.042
68.52000 764.030
68.56000 833.533
68.60000 894.614
68.64000 1037.616
68.68000 1212.365
68.72000 1419.481
68.76000 1550.325
68.80000 1802.703
68.84000 2039.082
68.88000 2618.317
68.92000 4400.866
68.96000 10545.064
69.00000 23892.328
69.04000 37716.477
69.08000 44725.688
69.12000 47505.563
69.16000 50438.340
69.20000 49810.141
69.24000 40190.715
69.28000 29485.320
69.32000 24468.629
69.36000 22848.961
69.40000 18885.342
69.44000 11433.371
69.48000 4905.253
69.52000 2375.556
69.56000 1520.181
69.60000 1167.431
69.64000 987.483
69.68000 878.518
69.72000 764.804
69.76000 713.297
69.80000 668.910
69.84000 611.856
69.88000 585.484
69.92000 566.622
69.96000 536.754
70.00000 513.249