File: XRD/09-10-2025 Dep 8/XY Data/BTO_Mapping_Theta2Theta_09-10-2025_001_29_-32-361_23-511.xy
20.00000 519.174
20.04000 480.705
20.08000 484.677
20.12000 475.280
20.16000 486.973
20.20000 477.355
20.24000 495.064
20.28000 478.986
20.32000 478.375
20.36000 477.588
20.40000 477.672
20.44000 479.533
20.48000 491.737
20.52000 494.233
20.56000 479.606
20.60000 486.623
20.64000 484.984
20.68000 467.569
20.72000 477.080
20.76000 475.423
20.80000 469.278
20.84000 467.667
20.88000 462.204
20.92000 451.670
20.96000 461.157
21.00000 480.114
21.04000 492.888
21.08000 489.054
21.12000 488.894
21.16000 485.978
21.20000 497.332
21.24000 491.897
21.28000 487.063
21.32000 472.171
21.36000 475.867
21.40000 479.154
21.44000 480.026
21.48000 475.056
21.52000 475.635
21.56000 471.444
21.60000 481.676
21.64000 488.322
21.68000 506.652
21.72000 493.361
21.76000 506.011
21.80000 527.502
21.84000 547.908
21.88000 541.527
21.92000 609.628
21.96000 633.572
22.00000 652.729
22.04000 679.938
22.08000 677.073
22.12000 653.149
22.16000 656.207
22.20000 627.734
22.24000 613.519
22.28000 559.547
22.32000 531.160
22.36000 517.732
22.40000 518.504
22.44000 488.879
22.48000 483.202
22.52000 460.845
22.56000 470.733
22.60000 487.287
22.64000 468.401
22.68000 464.561
22.72000 468.068
22.76000 449.251
22.80000 445.359
22.84000 441.489
22.88000 436.107
22.92000 427.382
22.96000 444.862
23.00000 459.505
23.04000 432.336
23.08000 443.067
23.12000 473.014
23.16000 435.296
23.20000 431.542
23.24000 453.386
23.28000 444.601
23.32000 428.730
23.36000 450.909
23.40000 449.799
23.44000 434.953
23.48000 443.010
23.52000 428.446
23.56000 431.622
23.60000 431.130
23.64000 435.553
23.68000 423.926
23.72000 445.484
23.76000 430.240
23.80000 421.587
23.84000 424.285
23.88000 425.520
23.92000 430.690
23.96000 432.668
24.00000 426.163
24.04000 412.711
24.08000 429.053
24.12000 422.416
24.16000 433.294
24.20000 423.782
24.24000 428.724
24.28000 413.902
24.32000 420.625
24.36000 426.276
24.40000 423.182
24.44000 439.748
24.48000 417.511
24.52000 423.832
24.56000 426.439
24.60000 426.748
24.64000 428.945
24.68000 422.680
24.72000 414.794
24.76000 405.130
24.80000 426.343
24.84000 414.890
24.88000 402.434
24.92000 424.210
24.96000 417.344
25.00000 400.586
25.04000 418.703
25.08000 389.138
25.12000 421.563
25.16000 417.406
25.20000 403.831
25.24000 400.517
25.28000 407.295
25.32000 417.782
25.36000 395.260
25.40000 399.935
25.44000 410.648
25.48000 413.923
25.52000 389.313
25.56000 392.943
25.60000 410.470
25.64000 416.460
25.68000 410.538
25.72000 395.394
25.76000 406.918
25.80000 396.976
25.84000 371.916
25.88000 390.457
25.92000 403.534
25.96000 396.991
26.00000 400.694
26.04000 392.427
26.08000 397.979
26.12000 374.566
26.16000 377.847
26.20000 375.265
26.24000 400.376
26.28000 398.212
26.32000 391.969
26.36000 384.664
26.40000 396.843
26.44000 405.149
26.48000 387.182
26.52000 403.229
26.56000 392.226
26.60000 392.524
26.64000 394.593
26.68000 391.677
26.72000 370.064
26.76000 420.891
26.80000 400.747
26.84000 385.416
26.88000 378.287
26.92000 390.352
26.96000 392.973
27.00000 382.296
27.04000 389.173
27.08000 388.268
27.12000 371.706
27.16000 377.629
27.20000 378.162
27.24000 367.667
27.28000 385.081
27.32000 384.999
27.36000 386.648
27.40000 382.543
27.44000 383.790
27.48000 376.841
27.52000 371.770
27.56000 386.228
27.60000 380.833
27.64000 376.198
27.68000 379.361
27.72000 369.184
27.76000 387.435
27.80000 383.188
27.84000 371.440
27.88000 376.440
27.92000 389.899
27.96000 396.305
28.00000 376.149
28.04000 391.466
28.08000 392.683
28.12000 352.986
28.16000 384.850
28.20000 384.992
28.24000 373.201
28.28000 376.568
28.32000 389.420
28.36000 373.055
28.40000 391.909
28.44000 367.673
28.48000 369.744
28.52000 376.088
28.56000 376.097
28.60000 374.454
28.64000 375.521
28.68000 358.026
28.72000 366.242
28.76000 353.815
28.80000 351.201
28.84000 351.941
28.88000 355.487
28.92000 374.295
28.96000 368.844
29.00000 375.981
29.04000 336.648
29.08000 371.055
29.12000 373.632
29.16000 363.997
29.20000 370.898
29.24000 362.737
29.28000 365.503
29.32000 372.522
29.36000 374.056
29.40000 357.597
29.44000 360.972
29.48000 361.902
29.52000 368.036
29.56000 365.813
29.60000 360.177
29.64000 355.863
29.68000 368.854
29.72000 375.696
29.76000 370.270
29.80000 392.525
29.84000 395.258
29.88000 414.779
29.92000 410.540
29.96000 444.285
30.00000 481.581
30.04000 477.875
30.08000 485.029
30.12000 463.473
30.16000 460.448
30.20000 435.005
30.24000 434.218
30.28000 432.831
30.32000 423.087
30.36000 401.846
30.40000 400.357
30.44000 394.614
30.48000 389.373
30.52000 386.374
30.56000 390.696
30.60000 396.912
30.64000 386.976
30.68000 400.028
30.72000 391.648
30.76000 401.683
30.80000 423.610
30.84000 421.550
30.88000 444.044
30.92000 468.723
30.96000 475.576
31.00000 508.096
31.04000 576.634
31.08000 623.694
31.12000 773.573
31.16000 1004.785
31.20000 1312.389
31.24000 1706.026
31.28000 2255.508
31.32000 2813.701
31.36000 3187.860
31.40000 3447.831
31.44000 3518.265
31.48000 3244.924
31.52000 2835.407
31.56000 2363.646
31.60000 1878.388
31.64000 1408.471
31.68000 1113.266
31.72000 880.098
31.76000 712.445
31.80000 618.328
31.84000 550.677
31.88000 488.793
31.92000 444.110
31.96000 395.987
32.00000 404.538
32.04000 378.178
32.08000 372.020
32.12000 378.900
32.16000 357.511
32.20000 361.719
32.24000 350.426
32.28000 343.701
32.32000 345.876
32.36000 357.791
32.40000 341.067
32.44000 335.101
32.48000 336.850
32.52000 341.099
32.56000 337.937
32.60000 338.727
32.64000 341.954
32.68000 347.358
32.72000 323.982
32.76000 316.444
32.80000 336.775
32.84000 329.308
32.88000 314.544
32.92000 328.471
32.96000 322.302
33.00000 331.988
33.04000 316.401
33.08000 330.250
33.12000 311.247
33.16000 317.542
33.20000 306.494
33.24000 321.640
33.28000 303.816
33.32000 313.204
33.36000 308.388
33.40000 330.852
33.44000 307.496
33.48000 312.831
33.52000 307.530
33.56000 307.250
33.60000 304.966
33.64000 305.579
33.68000 291.692
33.72000 300.404
33.76000 298.281
33.80000 312.603
33.84000 285.590
33.88000 288.340
33.92000 284.478
33.96000 304.613
34.00000 299.520
34.04000 274.552
34.08000 279.401
34.12000 288.837
34.16000 287.603
34.20000 281.438
34.24000 279.019
34.28000 281.305
34.32000 278.403
34.36000 298.490
34.40000 299.763
34.44000 280.228
34.48000 284.945
34.52000 289.589
34.56000 298.700
34.60000 284.222
34.64000 294.091
34.68000 284.689
34.72000 278.674
34.76000 267.296
34.80000 285.058
34.84000 292.705
34.88000 296.680
34.92000 285.600
34.96000 295.549
35.00000 285.968
35.04000 282.542
35.08000 276.984
35.12000 281.426
35.16000 289.379
35.20000 272.248
35.24000 269.518
35.28000 263.041
35.32000 271.354
35.36000 269.468
35.40000 283.958
35.44000 268.756
35.48000 279.316
35.52000 284.646
35.56000 261.160
35.60000 274.276
35.64000 281.136
35.68000 268.106
35.72000 266.654
35.76000 271.875
35.80000 289.958
35.84000 260.839
35.88000 269.699
35.92000 259.354
35.96000 268.899
36.00000 269.030
36.04000 265.872
36.08000 273.453
36.12000 270.099
36.16000 268.075
36.20000 269.976
36.24000 250.937
36.28000 258.666
36.32000 254.159
36.36000 271.817
36.40000 257.739
36.44000 265.221
36.48000 262.883
36.52000 255.566
36.56000 257.340
36.60000 269.524
36.64000 256.443
36.68000 275.722
36.72000 265.051
36.76000 264.132
36.80000 261.907
36.84000 266.829
36.88000 261.622
36.92000 272.250
36.96000 272.287
37.00000 267.095
37.04000 286.353
37.08000 285.462
37.12000 280.871
37.16000 278.008
37.20000 269.228
37.24000 268.608
37.28000 252.071
37.32000 263.172
37.36000 259.375
37.40000 268.476
37.44000 264.523
37.48000 259.279
37.52000 261.938
37.56000 261.926
37.60000 262.851
37.64000 266.452
37.68000 260.649
37.72000 256.235
37.76000 268.683
37.80000 259.456
37.84000 264.120
37.88000 256.133
37.92000 270.519
37.96000 257.991
38.00000 266.510
38.04000 278.279
38.08000 265.404
38.12000 281.489
38.16000 266.645
38.20000 286.378
38.24000 269.220
38.28000 294.226
38.32000 300.651
38.36000 314.402
38.40000 316.660
38.44000 362.004
38.48000 401.761
38.52000 488.185
38.56000 566.044
38.60000 655.397
38.64000 737.455
38.68000 829.488
38.72000 850.751
38.76000 796.130
38.80000 754.652
38.84000 672.570
38.88000 577.755
38.92000 498.640
38.96000 426.553
39.00000 373.844
39.04000 325.370
39.08000 316.816
39.12000 290.025
39.16000 280.875
39.20000 271.179
39.24000 270.257
39.28000 258.419
39.32000 245.498
39.36000 238.503
39.40000 256.785
39.44000 246.194
39.48000 247.165
39.52000 240.327
39.56000 252.353
39.60000 245.199
39.64000 234.554
39.68000 239.255
39.72000 241.577
39.76000 247.798
39.80000 227.395
39.84000 244.600
39.88000 238.583
39.92000 228.690
39.96000 241.656
40.00000 234.856
40.04000 230.956
40.08000 223.836
40.12000 224.947
40.16000 224.618
40.20000 221.145
40.24000 241.079
40.28000 232.924
40.32000 232.444
40.36000 230.329
40.40000 231.777
40.44000 223.789
40.48000 230.545
40.52000 226.815
40.56000 219.255
40.60000 227.763
40.64000 217.604
40.68000 215.956
40.72000 225.652
40.76000 232.373
40.80000 210.093
40.84000 218.821
40.88000 227.538
40.92000 213.257
40.96000 224.234
41.00000 228.418
41.04000 222.851
41.08000 214.799
41.12000 220.396
41.16000 226.341
41.20000 222.283
41.24000 218.515
41.28000 214.563
41.32000 222.980
41.36000 219.311
41.40000 207.138
41.44000 222.324
41.48000 215.111
41.52000 210.578
41.56000 207.547
41.60000 213.017
41.64000 211.106
41.68000 211.311
41.72000 234.175
41.76000 197.918
41.80000 220.591
41.84000 216.261
41.88000 210.014
41.92000 209.773
41.96000 207.367
42.00000 203.592
42.04000 203.385
42.08000 207.253
42.12000 213.082
42.16000 200.500
42.20000 200.044
42.24000 207.663
42.28000 223.762
42.32000 219.336
42.36000 201.481
42.40000 210.229
42.44000 206.222
42.48000 203.821
42.52000 208.773
42.56000 204.601
42.60000 212.418
42.64000 203.628
42.68000 207.026
42.72000 201.687
42.76000 200.694
42.80000 211.728
42.84000 207.313
42.88000 203.532
42.92000 205.458
42.96000 205.908
43.00000 222.107
43.04000 208.297
43.08000 206.940
43.12000 199.965
43.16000 206.923
43.20000 209.626
43.24000 195.480
43.28000 202.733
43.32000 205.863
43.36000 213.185
43.40000 199.356
43.44000 200.654
43.48000 209.294
43.52000 203.369
43.56000 200.950
43.60000 202.979
43.64000 196.365
43.68000 196.675
43.72000 214.024
43.76000 202.608
43.80000 193.210
43.84000 198.603
43.88000 203.534
43.92000 189.547
43.96000 202.226
44.00000 199.674
44.04000 191.177
44.08000 190.778
44.12000 186.556
44.16000 194.769
44.20000 198.783
44.24000 193.011
44.28000 202.761
44.32000 206.860
44.36000 201.639
44.40000 203.701
44.44000 201.680
44.48000 209.106
44.52000 221.362
44.56000 220.451
44.60000 216.908
44.64000 230.208
44.68000 232.455
44.72000 224.023
44.76000 265.462
44.80000 272.897
44.84000 275.536
44.88000 311.227
44.92000 320.998
44.96000 334.378
45.00000 366.312
45.04000 377.585
45.08000 375.162
45.12000 387.093
45.16000 371.046
45.20000 346.715
45.24000 342.893
45.28000 325.758
45.32000 303.011
45.36000 277.416
45.40000 269.316
45.44000 262.963
45.48000 256.148
45.52000 248.466
45.56000 229.934
45.60000 224.839
45.64000 221.500
45.68000 210.893
45.72000 216.802
45.76000 216.379
45.80000 197.281
45.84000 199.508
45.88000 200.351
45.92000 189.815
45.96000 189.209
46.00000 188.219
46.04000 179.064
46.08000 180.957
46.12000 184.112
46.16000 181.251
46.20000 182.153
46.24000 189.444
46.28000 183.465
46.32000 174.462
46.36000 168.387
46.40000 178.492
46.44000 167.447
46.48000 176.167
46.52000 180.620
46.56000 180.082
46.60000 172.599
46.64000 178.702
46.68000 166.348
46.72000 176.190
46.76000 168.676
46.80000 173.938
46.84000 173.666
46.88000 179.837
46.92000 162.394
46.96000 175.181
47.00000 167.576
47.04000 174.858
47.08000 168.768
47.12000 171.171
47.16000 164.652
47.20000 168.868
47.24000 167.715
47.28000 166.158
47.32000 168.434
47.36000 172.881
47.40000 162.377
47.44000 180.025
47.48000 164.214
47.52000 164.278
47.56000 152.002
47.60000 160.267
47.64000 174.796
47.68000 170.948
47.72000 167.646
47.76000 159.059
47.80000 175.793
47.84000 170.024
47.88000 171.255
47.92000 161.995
47.96000 170.348
48.00000 168.764
48.04000 156.082
48.08000 165.587
48.12000 171.062
48.16000 169.952
48.20000 166.945
48.24000 169.095
48.28000 163.383
48.32000 171.320
48.36000 157.858
48.40000 163.205
48.44000 163.956
48.48000 168.466
48.52000 163.077
48.56000 165.884
48.60000 178.356
48.64000 159.500
48.68000 157.712
48.72000 158.839
48.76000 157.030
48.80000 159.739
48.84000 162.190
48.88000 163.201
48.92000 158.445
48.96000 167.757
49.00000 165.324
49.04000 149.963
49.08000 153.621
49.12000 161.537
49.16000 155.399
49.20000 164.635
49.24000 153.966
49.28000 153.414
49.32000 164.901
49.36000 162.890
49.40000 160.436
49.44000 156.864
49.48000 161.782
49.52000 160.873
49.56000 168.970
49.60000 153.923
49.64000 157.699
49.68000 159.609
49.72000 158.282
49.76000 154.476
49.80000 158.661
49.84000 163.699
49.88000 160.814
49.92000 156.579
49.96000 150.945
50.00000 150.637
50.04000 155.548
50.08000 167.862
50.12000 154.379
50.16000 170.666
50.20000 158.794
50.24000 154.496
50.28000 169.536
50.32000 168.495
50.36000 168.823
50.40000 179.672
50.44000 179.380
50.48000 191.489
50.52000 205.284
50.56000 227.168
50.60000 230.569
50.64000 246.648
50.68000 257.468
50.72000 248.288
50.76000 262.276
50.80000 241.090
50.84000 237.720
50.88000 233.614
50.92000 223.585
50.96000 219.864
51.00000 187.575
51.04000 200.477
51.08000 188.413
51.12000 171.871
51.16000 164.695
51.20000 155.413
51.24000 161.954
51.28000 163.530
51.32000 161.052
51.36000 165.322
51.40000 156.361
51.44000 154.873
51.48000 153.436
51.52000 155.894
51.56000 148.657
51.60000 138.782
51.64000 152.220
51.68000 148.355
51.72000 154.692
51.76000 150.577
51.80000 142.725
51.84000 146.974
51.88000 151.458
51.92000 152.893
51.96000 156.041
52.00000 156.295
52.04000 150.522
52.08000 145.042
52.12000 156.241
52.16000 151.371
52.20000 143.919
52.24000 137.784
52.28000 145.422
52.32000 152.067
52.36000 144.614
52.40000 149.084
52.44000 146.512
52.48000 143.062
52.52000 129.525
52.56000 135.868
52.60000 138.710
52.64000 139.351
52.68000 142.964
52.72000 143.136
52.76000 139.638
52.80000 131.518
52.84000 154.954
52.88000 146.410
52.92000 148.458
52.96000 139.834
53.00000 137.809
53.04000 154.041
53.08000 139.571
53.12000 145.999
53.16000 133.514
53.20000 149.938
53.24000 151.324
53.28000 154.250
53.32000 152.860
53.36000 161.551
53.40000 153.425
53.44000 155.476
53.48000 149.559
53.52000 153.511
53.56000 153.963
53.60000 152.804
53.64000 154.366
53.68000 145.293
53.72000 143.926
53.76000 148.853
53.80000 138.522
53.84000 142.274
53.88000 129.222
53.92000 144.974
53.96000 147.717
54.00000 144.033
54.04000 145.353
54.08000 135.046
54.12000 136.254
54.16000 155.392
54.20000 144.910
54.24000 141.412
54.28000 136.350
54.32000 153.344
54.36000 138.285
54.40000 133.929
54.44000 139.082
54.48000 138.871
54.52000 146.171
54.56000 141.660
54.60000 141.199
54.64000 145.997
54.68000 133.798
54.72000 132.570
54.76000 148.237
54.80000 157.046
54.84000 149.973
54.88000 143.268
54.92000 149.184
54.96000 143.983
55.00000 144.150
55.04000 142.439
55.08000 151.375
55.12000 144.271
55.16000 149.642
55.20000 154.083
55.24000 142.435
55.28000 150.737
55.32000 153.728
55.36000 164.087
55.40000 169.280
55.44000 163.467
55.48000 191.114
55.52000 193.475
55.56000 205.011
55.60000 224.566
55.64000 258.603
55.68000 290.186
55.72000 337.778
55.76000 366.609
55.80000 435.239
55.84000 490.571
55.88000 529.844
55.92000 565.587
55.96000 592.944
56.00000 599.556
56.04000 583.275
56.08000 543.219
56.12000 488.608
56.16000 410.362
56.20000 364.432
56.24000 341.478
56.28000 300.345
56.32000 250.453
56.36000 232.895
56.40000 209.324
56.44000 199.311
56.48000 192.535
56.52000 181.194
56.56000 170.373
56.60000 164.772
56.64000 153.477
56.68000 147.788
56.72000 153.856
56.76000 160.468
56.80000 142.875
56.84000 143.933
56.88000 143.777
56.92000 144.303
56.96000 134.735
57.00000 139.935
57.04000 145.868
57.08000 142.200
57.12000 132.673
57.16000 130.712
57.20000 137.835
57.24000 139.064
57.28000 134.605
57.32000 137.498
57.36000 139.241
57.40000 136.429
57.44000 125.940
57.48000 117.500
57.52000 131.508
57.56000 131.248
57.60000 126.940
57.64000 130.067
57.68000 123.654
57.72000 123.786
57.76000 128.866
57.80000 130.225
57.84000 128.026
57.88000 135.111
57.92000 121.075
57.96000 125.853
58.00000 127.242
58.04000 119.257
58.08000 137.557
58.12000 131.942
58.16000 127.880
58.20000 122.057
58.24000 124.782
58.28000 129.667
58.32000 122.111
58.36000 129.039
58.40000 119.579
58.44000 125.883
58.48000 124.103
58.52000 115.253
58.56000 134.672
58.60000 128.752
58.64000 127.877
58.68000 121.545
58.72000 127.629
58.76000 129.433
58.80000 111.634
58.84000 119.850
58.88000 117.008
58.92000 128.470
58.96000 124.378
59.00000 120.973
59.04000 120.870
59.08000 125.406
59.12000 123.618
59.16000 130.471
59.20000 123.194
59.24000 122.060
59.28000 119.381
59.32000 122.910
59.36000 124.313
59.40000 113.644
59.44000 113.786
59.48000 121.040
59.52000 113.463
59.56000 118.130
59.60000 117.820
59.64000 117.294
59.68000 124.385
59.72000 120.303
59.76000 121.023
59.80000 132.693
59.84000 116.041
59.88000 119.187
59.92000 106.623
59.96000 118.324
60.00000 127.342
60.04000 124.355
60.08000 115.179
60.12000 106.401
60.16000 116.197
60.20000 113.532
60.24000 120.560
60.28000 115.579
60.32000 120.626
60.36000 116.266
60.40000 115.380
60.44000 124.178
60.48000 108.415
60.52000 128.562
60.56000 121.456
60.60000 118.844
60.64000 123.009
60.68000 120.662
60.72000 120.302
60.76000 116.124
60.80000 116.930
60.84000 127.912
60.88000 123.229
60.92000 123.083
60.96000 110.697
61.00000 119.914
61.04000 119.935
61.08000 132.895
61.12000 123.098
61.16000 115.816
61.20000 126.567
61.24000 125.587
61.28000 121.730
61.32000 122.266
61.36000 122.128
61.40000 131.413
61.44000 146.425
61.48000 148.304
61.52000 180.240
61.56000 262.569
61.60000 365.561
61.64000 427.828
61.68000 458.825
61.72000 460.193
61.76000 426.227
61.80000 332.598
61.84000 250.438
61.88000 177.518
61.92000 144.647
61.96000 134.033
62.00000 142.074
62.04000 141.631
62.08000 135.563
62.12000 137.115
62.16000 137.472
62.20000 113.835
62.24000 143.746
62.28000 142.775
62.32000 139.764
62.36000 129.404
62.40000 143.171
62.44000 133.441
62.48000 145.161
62.52000 135.900
62.56000 148.154
62.60000 138.128
62.64000 136.680
62.68000 140.113
62.72000 140.840
62.76000 135.229
62.80000 147.953
62.84000 146.378
62.88000 141.479
62.92000 136.830
62.96000 139.735
63.00000 137.569
63.04000 141.547
63.08000 151.359
63.12000 147.413
63.16000 135.809
63.20000 142.540
63.24000 149.776
63.28000 143.171
63.32000 143.460
63.36000 144.607
63.40000 140.677
63.44000 134.140
63.48000 138.734
63.52000 143.586
63.56000 140.182
63.60000 148.442
63.64000 146.182
63.68000 150.160
63.72000 153.603
63.76000 148.683
63.80000 146.050
63.84000 148.528
63.88000 147.340
63.92000 144.631
63.96000 152.773
64.00000 148.809
64.04000 150.041
64.08000 163.734
64.12000 162.021
64.16000 150.272
64.20000 166.169
64.24000 162.356
64.28000 167.234
64.32000 165.041
64.36000 165.205
64.40000 168.622
64.44000 171.348
64.48000 171.326
64.52000 182.864
64.56000 183.612
64.60000 177.178
64.64000 180.149
64.68000 189.158
64.72000 188.470
64.76000 189.954
64.80000 178.103
64.84000 204.769
64.88000 200.186
64.92000 200.393
64.96000 208.653
65.00000 203.808
65.04000 215.048
65.08000 228.963
65.12000 236.378
65.16000 260.263
65.20000 274.340
65.24000 281.547
65.28000 310.677
65.32000 311.453
65.36000 347.879
65.40000 381.676
65.44000 415.170
65.48000 457.678
65.52000 500.036
65.56000 550.763
65.60000 628.558
65.64000 731.231
65.68000 991.291
65.72000 1504.192
65.76000 2369.027
65.80000 3108.133
65.84000 3524.080
65.88000 3560.237
65.92000 3433.068
65.96000 2860.582
66.00000 1962.168
66.04000 1219.858
66.08000 811.265
66.12000 640.063
66.16000 577.178
66.20000 561.945
66.24000 584.116
66.28000 659.148
66.32000 817.695
66.36000 946.049
66.40000 1014.393
66.44000 1014.748
66.48000 942.746
66.52000 835.807
66.56000 705.414
66.60000 564.442
66.64000 492.879
66.68000 498.908
66.72000 477.023
66.76000 472.482
66.80000 483.400
66.84000 483.941
66.88000 500.860
66.92000 488.726
66.96000 491.376
67.00000 504.663
67.04000 488.448
67.08000 510.766
67.12000 519.821
67.16000 526.984
67.20000 504.965
67.24000 514.780
67.28000 541.632
67.32000 541.990
67.36000 544.215
67.40000 554.315
67.44000 554.290
67.48000 564.839
67.52000 578.676
67.56000 586.393
67.60000 590.954
67.64000 608.018
67.68000 600.658
67.72000 593.987
67.76000 610.406
67.80000 611.095
67.84000 632.990
67.88000 638.775
67.92000 624.119
67.96000 682.666
68.00000 672.218
68.04000 686.506
68.08000 689.204
68.12000 693.839
68.16000 709.031
68.20000 748.198
68.24000 760.557
68.28000 771.343
68.32000 815.052
68.36000 812.706
68.40000 868.290
68.44000 888.995
68.48000 932.198
68.52000 969.765
68.56000 1087.530
68.60000 1228.723
68.64000 1427.101
68.68000 1702.637
68.72000 2061.363
68.76000 2360.512
68.80000 2786.901
68.84000 3314.527
68.88000 4416.401
68.92000 7308.083
68.96000 16488.277
69.00000 37693.488
69.04000 62408.414
69.08000 77925.969
69.12000 83775.281
69.16000 88547.367
69.20000 87442.680
69.24000 74774.328
69.28000 57998.543
69.32000 44981.969
69.36000 40422.504
69.40000 33932.598
69.44000 22433.910
69.48000 10862.979
69.52000 4669.705
69.56000 2462.481
69.60000 1739.031
69.64000 1390.147
69.68000 1211.386
69.72000 1050.323
69.76000 947.466
69.80000 857.552
69.84000 781.295
69.88000 744.049
69.92000 721.832
69.96000 669.242
70.00000 620.572