File: XRD/09-10-2025 Dep 8/XY Data/BTO_Mapping_Theta2Theta_09-10-2025_001_04_30-000_0-000.xy
20.00000 496.427
20.04000 482.150
20.08000 486.693
20.12000 484.758
20.16000 492.135
20.20000 485.588
20.24000 461.488
20.28000 483.238
20.32000 487.187
20.36000 481.259
20.40000 470.983
20.44000 477.367
20.48000 487.076
20.52000 489.054
20.56000 476.924
20.60000 478.119
20.64000 470.540
20.68000 482.586
20.72000 492.446
20.76000 467.814
20.80000 478.617
20.84000 488.086
20.88000 465.712
20.92000 472.554
20.96000 464.566
21.00000 480.776
21.04000 468.455
21.08000 465.741
21.12000 467.759
21.16000 462.547
21.20000 449.516
21.24000 466.013
21.28000 459.209
21.32000 460.221
21.36000 468.423
21.40000 469.247
21.44000 465.106
21.48000 462.494
21.52000 478.027
21.56000 465.832
21.60000 465.014
21.64000 461.605
21.68000 483.280
21.72000 478.202
21.76000 495.846
21.80000 495.845
21.84000 497.110
21.88000 506.868
21.92000 514.016
21.96000 529.775
22.00000 559.200
22.04000 580.732
22.08000 566.028
22.12000 600.192
22.16000 592.173
22.20000 581.071
22.24000 581.231
22.28000 568.831
22.32000 549.225
22.36000 538.489
22.40000 507.322
22.44000 501.659
22.48000 504.135
22.52000 483.167
22.56000 485.981
22.60000 480.484
22.64000 460.893
22.68000 452.940
22.72000 462.919
22.76000 448.430
22.80000 452.746
22.84000 477.679
22.88000 448.720
22.92000 452.946
22.96000 448.541
23.00000 447.814
23.04000 461.302
23.08000 451.654
23.12000 446.159
23.16000 431.634
23.20000 432.897
23.24000 459.391
23.28000 436.182
23.32000 467.274
23.36000 447.047
23.40000 438.030
23.44000 437.980
23.48000 463.146
23.52000 458.066
23.56000 437.693
23.60000 449.754
23.64000 435.682
23.68000 430.399
23.72000 450.017
23.76000 455.539
23.80000 457.224
23.84000 453.524
23.88000 461.367
23.92000 466.566
23.96000 426.302
24.00000 465.479
24.04000 469.785
24.08000 455.180
24.12000 439.445
24.16000 464.262
24.20000 442.923
24.24000 452.426
24.28000 442.904
24.32000 450.976
24.36000 424.994
24.40000 419.942
24.44000 408.266
24.48000 413.335
24.52000 419.280
24.56000 419.774
24.60000 434.182
24.64000 414.779
24.68000 427.747
24.72000 420.720
24.76000 411.745
24.80000 419.073
24.84000 421.644
24.88000 411.159
24.92000 410.446
24.96000 406.928
25.00000 399.738
25.04000 401.928
25.08000 393.570
25.12000 404.094
25.16000 402.708
25.20000 406.222
25.24000 417.625
25.28000 398.122
25.32000 402.090
25.36000 416.718
25.40000 419.161
25.44000 409.410
25.48000 406.727
25.52000 406.102
25.56000 409.912
25.60000 410.740
25.64000 413.157
25.68000 391.445
25.72000 396.429
25.76000 402.047
25.80000 394.330
25.84000 406.312
25.88000 406.837
25.92000 408.492
25.96000 399.325
26.00000 400.819
26.04000 385.383
26.08000 402.345
26.12000 395.386
26.16000 403.912
26.20000 404.607
26.24000 393.871
26.28000 400.758
26.32000 397.830
26.36000 380.332
26.40000 382.931
26.44000 396.619
26.48000 398.542
26.52000 388.586
26.56000 384.232
26.60000 404.785
26.64000 405.255
26.68000 377.278
26.72000 384.188
26.76000 383.509
26.80000 390.801
26.84000 380.391
26.88000 376.006
26.92000 390.306
26.96000 378.094
27.00000 379.492
27.04000 390.991
27.08000 385.868
27.12000 380.607
27.16000 375.482
27.20000 387.127
27.24000 391.260
27.28000 386.953
27.32000 379.673
27.36000 391.163
27.40000 384.824
27.44000 384.616
27.48000 371.283
27.52000 378.124
27.56000 378.746
27.60000 373.319
27.64000 382.661
27.68000 364.108
27.72000 370.281
27.76000 368.922
27.80000 368.720
27.84000 378.359
27.88000 360.462
27.92000 369.369
27.96000 364.768
28.00000 355.860
28.04000 379.627
28.08000 368.197
28.12000 363.666
28.16000 366.409
28.20000 366.759
28.24000 377.514
28.28000 374.068
28.32000 363.146
28.36000 366.692
28.40000 380.202
28.44000 366.948
28.48000 369.258
28.52000 367.758
28.56000 352.357
28.60000 367.912
28.64000 349.343
28.68000 359.003
28.72000 378.888
28.76000 371.169
28.80000 364.628
28.84000 343.648
28.88000 373.868
28.92000 347.770
28.96000 365.914
29.00000 355.680
29.04000 361.314
29.08000 354.178
29.12000 359.655
29.16000 370.264
29.20000 346.771
29.24000 350.336
29.28000 364.135
29.32000 355.045
29.36000 352.087
29.40000 370.620
29.44000 347.389
29.48000 373.888
29.52000 355.383
29.56000 355.217
29.60000 353.822
29.64000 350.076
29.68000 346.465
29.72000 358.876
29.76000 355.498
29.80000 368.122
29.84000 370.249
29.88000 382.537
29.92000 396.789
29.96000 391.599
30.00000 407.181
30.04000 413.406
30.08000 438.414
30.12000 419.381
30.16000 413.121
30.20000 405.943
30.24000 398.393
30.28000 410.858
30.32000 388.673
30.36000 387.818
30.40000 366.727
30.44000 376.489
30.48000 386.654
30.52000 379.669
30.56000 382.709
30.60000 371.468
30.64000 385.966
30.68000 386.741
30.72000 381.780
30.76000 390.397
30.80000 405.302
30.84000 425.502
30.88000 419.156
30.92000 393.986
30.96000 423.676
31.00000 440.032
31.04000 475.703
31.08000 523.011
31.12000 596.414
31.16000 687.665
31.20000 866.256
31.24000 1004.075
31.28000 1339.575
31.32000 1605.210
31.36000 1878.937
31.40000 2032.538
31.44000 2097.567
31.48000 2010.607
31.52000 1832.613
31.56000 1625.902
31.60000 1321.649
31.64000 1076.382
31.68000 901.454
31.72000 724.473
31.76000 637.000
31.80000 537.983
31.84000 483.528
31.88000 440.804
31.92000 420.164
31.96000 415.449
32.00000 390.250
32.04000 383.474
32.08000 353.280
32.12000 351.224
32.16000 332.573
32.20000 331.269
32.24000 339.707
32.28000 373.621
32.32000 349.792
32.36000 327.579
32.40000 321.740
32.44000 333.581
32.48000 344.361
32.52000 331.624
32.56000 310.682
32.60000 325.050
32.64000 326.333
32.68000 335.806
32.72000 321.993
32.76000 315.823
32.80000 316.558
32.84000 324.720
32.88000 324.070
32.92000 317.362
32.96000 315.222
33.00000 298.318
33.04000 305.804
33.08000 297.015
33.12000 303.557
33.16000 304.952
33.20000 312.947
33.24000 318.276
33.28000 298.690
33.32000 309.446
33.36000 295.764
33.40000 298.141
33.44000 296.468
33.48000 291.467
33.52000 295.027
33.56000 299.188
33.60000 293.085
33.64000 286.188
33.68000 297.471
33.72000 281.096
33.76000 289.543
33.80000 286.260
33.84000 291.315
33.88000 305.238
33.92000 291.160
33.96000 288.285
34.00000 286.866
34.04000 285.991
34.08000 289.874
34.12000 281.251
34.16000 292.614
34.20000 296.393
34.24000 307.254
34.28000 299.329
34.32000 280.117
34.36000 298.887
34.40000 279.201
34.44000 283.762
34.48000 294.825
34.52000 277.472
34.56000 291.496
34.60000 281.585
34.64000 281.432
34.68000 279.639
34.72000 282.853
34.76000 283.582
34.80000 281.570
34.84000 279.755
34.88000 275.267
34.92000 270.084
34.96000 292.166
35.00000 280.735
35.04000 283.994
35.08000 269.930
35.12000 277.365
35.16000 283.912
35.20000 268.197
35.24000 269.027
35.28000 269.462
35.32000 271.509
35.36000 266.672
35.40000 260.795
35.44000 284.329
35.48000 262.263
35.52000 270.462
35.56000 273.940
35.60000 262.828
35.64000 273.679
35.68000 262.680
35.72000 259.485
35.76000 265.251
35.80000 253.290
35.84000 272.670
35.88000 262.046
35.92000 265.425
35.96000 264.004
36.00000 278.907
36.04000 268.480
36.08000 267.033
36.12000 255.673
36.16000 274.466
36.20000 256.659
36.24000 255.275
36.28000 257.268
36.32000 258.975
36.36000 257.682
36.40000 264.153
36.44000 264.531
36.48000 261.614
36.52000 254.580
36.56000 262.869
36.60000 248.647
36.64000 249.738
36.68000 270.429
36.72000 263.356
36.76000 272.161
36.80000 257.152
36.84000 262.311
36.88000 275.909
36.92000 271.341
36.96000 267.588
37.00000 280.923
37.04000 274.770
37.08000 288.217
37.12000 288.492
37.16000 263.651
37.20000 274.843
37.24000 261.239
37.28000 258.147
37.32000 247.196
37.36000 275.534
37.40000 259.151
37.44000 262.009
37.48000 249.263
37.52000 254.490
37.56000 261.330
37.60000 250.799
37.64000 257.399
37.68000 253.371
37.72000 258.557
37.76000 253.725
37.80000 256.038
37.84000 256.493
37.88000 247.111
37.92000 265.220
37.96000 251.980
38.00000 259.926
38.04000 257.730
38.08000 255.334
38.12000 246.254
38.16000 269.890
38.20000 258.405
38.24000 265.703
38.28000 272.137
38.32000 278.270
38.36000 286.280
38.40000 295.007
38.44000 313.336
38.48000 348.956
38.52000 371.558
38.56000 467.770
38.60000 575.121
38.64000 686.108
38.68000 813.814
38.72000 919.967
38.76000 956.162
38.80000 973.457
38.84000 889.581
38.88000 796.213
38.92000 652.858
38.96000 547.943
39.00000 468.449
39.04000 363.316
39.08000 306.778
39.12000 281.140
39.16000 287.786
39.20000 259.524
39.24000 269.880
39.28000 255.010
39.32000 240.491
39.36000 232.926
39.40000 236.612
39.44000 249.105
39.48000 230.557
39.52000 234.426
39.56000 231.934
39.60000 232.448
39.64000 237.195
39.68000 240.087
39.72000 228.024
39.76000 231.236
39.80000 231.745
39.84000 234.346
39.88000 224.999
39.92000 218.667
39.96000 236.885
40.00000 225.863
40.04000 235.526
40.08000 229.966
40.12000 223.763
40.16000 228.819
40.20000 219.048
40.24000 218.412
40.28000 235.730
40.32000 217.729
40.36000 225.415
40.40000 217.265
40.44000 222.229
40.48000 232.916
40.52000 227.664
40.56000 228.446
40.60000 224.334
40.64000 231.221
40.68000 220.460
40.72000 215.978
40.76000 213.161
40.80000 209.988
40.84000 214.892
40.88000 204.827
40.92000 208.775
40.96000 219.782
41.00000 206.069
41.04000 217.277
41.08000 221.824
41.12000 211.273
41.16000 209.137
41.20000 206.326
41.24000 213.480
41.28000 210.035
41.32000 202.372
41.36000 214.298
41.40000 222.742
41.44000 215.876
41.48000 205.216
41.52000 204.122
41.56000 205.229
41.60000 199.474
41.64000 217.619
41.68000 217.363
41.72000 211.097
41.76000 208.358
41.80000 209.547
41.84000 212.778
41.88000 208.277
41.92000 211.667
41.96000 200.573
42.00000 201.539
42.04000 209.325
42.08000 196.140
42.12000 210.547
42.16000 212.162
42.20000 213.650
42.24000 203.181
42.28000 198.547
42.32000 196.878
42.36000 208.755
42.40000 204.233
42.44000 208.518
42.48000 201.437
42.52000 213.552
42.56000 210.135
42.60000 219.280
42.64000 200.625
42.68000 193.291
42.72000 205.717
42.76000 191.332
42.80000 209.631
42.84000 199.958
42.88000 201.164
42.92000 211.829
42.96000 204.512
43.00000 209.159
43.04000 195.140
43.08000 203.961
43.12000 207.223
43.16000 198.662
43.20000 202.518
43.24000 190.052
43.28000 211.797
43.32000 195.187
43.36000 203.934
43.40000 202.444
43.44000 195.239
43.48000 198.858
43.52000 210.972
43.56000 199.381
43.60000 187.877
43.64000 193.118
43.68000 198.786
43.72000 197.563
43.76000 191.162
43.80000 198.960
43.84000 195.363
43.88000 213.959
43.92000 194.068
43.96000 196.338
44.00000 200.977
44.04000 194.492
44.08000 196.280
44.12000 186.294
44.16000 188.624
44.20000 178.584
44.24000 199.847
44.28000 203.513
44.32000 190.155
44.36000 199.868
44.40000 190.884
44.44000 198.071
44.48000 204.403
44.52000 199.080
44.56000 219.716
44.60000 210.710
44.64000 209.295
44.68000 202.083
44.72000 216.181
44.76000 213.797
44.80000 213.902
44.84000 223.096
44.88000 230.489
44.92000 232.379
44.96000 237.392
45.00000 248.113
45.04000 258.121
45.08000 254.808
45.12000 266.344
45.16000 271.099
45.20000 277.642
45.24000 272.682
45.28000 271.764
45.32000 272.712
45.36000 260.941
45.40000 266.349
45.44000 242.490
45.48000 247.359
45.52000 242.445
45.56000 236.130
45.60000 228.687
45.64000 231.432
45.68000 214.275
45.72000 224.832
45.76000 218.500
45.80000 216.610
45.84000 216.335
45.88000 198.109
45.92000 210.461
45.96000 201.292
46.00000 202.959
46.04000 197.357
46.08000 195.037
46.12000 178.287
46.16000 188.300
46.20000 187.274
46.24000 182.490
46.28000 174.050
46.32000 181.893
46.36000 188.329
46.40000 175.260
46.44000 181.816
46.48000 172.024
46.52000 177.133
46.56000 187.151
46.60000 182.341
46.64000 176.583
46.68000 176.719
46.72000 182.390
46.76000 167.721
46.80000 165.478
46.84000 175.971
46.88000 167.492
46.92000 175.996
46.96000 175.457
47.00000 175.228
47.04000 174.259
47.08000 167.283
47.12000 167.448
47.16000 164.396
47.20000 164.224
47.24000 172.111
47.28000 174.680
47.32000 166.137
47.36000 175.213
47.40000 162.677
47.44000 172.215
47.48000 173.911
47.52000 168.636
47.56000 165.131
47.60000 170.650
47.64000 173.976
47.68000 164.335
47.72000 172.979
47.76000 173.072
47.80000 165.636
47.84000 164.320
47.88000 153.496
47.92000 161.430
47.96000 158.155
48.00000 149.360
48.04000 161.493
48.08000 160.385
48.12000 166.694
48.16000 160.745
48.20000 152.225
48.24000 154.491
48.28000 168.720
48.32000 166.700
48.36000 159.869
48.40000 166.686
48.44000 172.850
48.48000 159.855
48.52000 164.028
48.56000 163.372
48.60000 157.632
48.64000 164.587
48.68000 157.048
48.72000 153.418
48.76000 155.280
48.80000 172.053
48.84000 153.617
48.88000 158.421
48.92000 161.412
48.96000 155.046
49.00000 174.979
49.04000 166.183
49.08000 153.578
49.12000 159.902
49.16000 169.095
49.20000 155.085
49.24000 159.041
49.28000 162.596
49.32000 155.897
49.36000 156.955
49.40000 158.461
49.44000 157.046
49.48000 151.534
49.52000 156.205
49.56000 149.783
49.60000 162.399
49.64000 158.492
49.68000 158.712
49.72000 149.298
49.76000 162.705
49.80000 150.900
49.84000 150.097
49.88000 150.555
49.92000 142.324
49.96000 159.651
50.00000 158.464
50.04000 152.939
50.08000 164.687
50.12000 168.756
50.16000 162.391
50.20000 152.675
50.24000 159.016
50.28000 153.828
50.32000 149.136
50.36000 161.515
50.40000 150.653
50.44000 158.299
50.48000 166.572
50.52000 167.131
50.56000 170.586
50.60000 191.748
50.64000 180.179
50.68000 202.495
50.72000 206.682
50.76000 217.814
50.80000 213.392
50.84000 221.570
50.88000 212.723
50.92000 202.022
50.96000 207.108
51.00000 176.721
51.04000 183.356
51.08000 171.974
51.12000 164.344
51.16000 172.483
51.20000 156.719
51.24000 155.432
51.28000 161.631
51.32000 152.298
51.36000 155.719
51.40000 158.294
51.44000 155.005
51.48000 144.313
51.52000 164.323
51.56000 146.649
51.60000 149.604
51.64000 146.677
51.68000 152.398
51.72000 135.076
51.76000 148.578
51.80000 144.384
51.84000 150.648
51.88000 146.163
51.92000 138.568
51.96000 140.181
52.00000 148.612
52.04000 139.721
52.08000 136.314
52.12000 143.792
52.16000 148.991
52.20000 137.673
52.24000 135.908
52.28000 145.241
52.32000 154.558
52.36000 136.635
52.40000 139.900
52.44000 145.613
52.48000 134.261
52.52000 136.245
52.56000 139.856
52.60000 132.687
52.64000 138.639
52.68000 144.984
52.72000 139.544
52.76000 134.162
52.80000 139.097
52.84000 142.234
52.88000 145.324
52.92000 138.027
52.96000 136.599
53.00000 137.057
53.04000 137.921
53.08000 141.127
53.12000 136.754
53.16000 143.435
53.20000 140.669
53.24000 152.820
53.28000 151.394
53.32000 147.651
53.36000 148.659
53.40000 158.919
53.44000 157.940
53.48000 155.802
53.52000 151.059
53.56000 156.158
53.60000 153.410
53.64000 153.163
53.68000 143.405
53.72000 133.580
53.76000 137.991
53.80000 143.797
53.84000 143.207
53.88000 148.561
53.92000 144.330
53.96000 152.259
54.00000 147.930
54.04000 140.925
54.08000 130.244
54.12000 145.840
54.16000 133.034
54.20000 138.099
54.24000 135.628
54.28000 140.444
54.32000 139.969
54.36000 138.286
54.40000 133.811
54.44000 142.868
54.48000 146.301
54.52000 132.769
54.56000 134.349
54.60000 144.379
54.64000 147.726
54.68000 140.978
54.72000 135.418
54.76000 143.354
54.80000 142.990
54.84000 133.323
54.88000 139.287
54.92000 145.626
54.96000 150.015
55.00000 138.510
55.04000 140.387
55.08000 141.482
55.12000 142.736
55.16000 148.132
55.20000 136.512
55.24000 146.781
55.28000 150.023
55.32000 149.792
55.36000 148.259
55.40000 150.746
55.44000 161.467
55.48000 155.843
55.52000 162.485
55.56000 178.392
55.60000 176.670
55.64000 187.352
55.68000 201.209
55.72000 223.645
55.76000 245.855
55.80000 297.279
55.84000 344.336
55.88000 403.924
55.92000 465.981
55.96000 513.441
56.00000 574.077
56.04000 586.527
56.08000 579.081
56.12000 551.715
56.16000 495.401
56.20000 460.058
56.24000 396.086
56.28000 348.586
56.32000 316.876
56.36000 264.708
56.40000 225.591
56.44000 214.057
56.48000 192.422
56.52000 180.768
56.56000 177.930
56.60000 162.357
56.64000 163.416
56.68000 157.775
56.72000 146.314
56.76000 142.322
56.80000 143.580
56.84000 134.916
56.88000 141.220
56.92000 129.455
56.96000 136.997
57.00000 130.511
57.04000 137.690
57.08000 131.154
57.12000 137.883
57.16000 135.118
57.20000 129.771
57.24000 127.484
57.28000 127.937
57.32000 128.297
57.36000 118.482
57.40000 126.126
57.44000 131.876
57.48000 125.485
57.52000 126.812
57.56000 122.102
57.60000 128.887
57.64000 130.837
57.68000 124.412
57.72000 119.182
57.76000 123.596
57.80000 127.109
57.84000 118.057
57.88000 133.718
57.92000 127.508
57.96000 130.399
58.00000 133.848
58.04000 132.851
58.08000 120.685
58.12000 126.304
58.16000 118.531
58.20000 129.988
58.24000 123.350
58.28000 117.193
58.32000 124.722
58.36000 130.831
58.40000 114.920
58.44000 113.681
58.48000 124.304
58.52000 130.408
58.56000 128.662
58.60000 118.283
58.64000 116.962
58.68000 123.185
58.72000 125.908
58.76000 117.254
58.80000 113.405
58.84000 116.409
58.88000 123.282
58.92000 117.109
58.96000 124.499
59.00000 111.844
59.04000 120.881
59.08000 116.183
59.12000 119.890
59.16000 117.840
59.20000 131.448
59.24000 120.028
59.28000 116.985
59.32000 126.963
59.36000 119.801
59.40000 111.230
59.44000 120.004
59.48000 131.423
59.52000 121.866
59.56000 124.137
59.60000 131.439
59.64000 120.627
59.68000 117.444
59.72000 118.275
59.76000 124.482
59.80000 123.175
59.84000 116.568
59.88000 121.302
59.92000 131.016
59.96000 120.683
60.00000 127.983
60.04000 117.166
60.08000 111.267
60.12000 118.442
60.16000 126.661
60.20000 125.374
60.24000 123.868
60.28000 121.268
60.32000 121.989
60.36000 123.929
60.40000 123.372
60.44000 119.761
60.48000 114.194
60.52000 118.164
60.56000 118.101
60.60000 113.277
60.64000 119.390
60.68000 122.547
60.72000 119.540
60.76000 125.422
60.80000 122.287
60.84000 123.133
60.88000 116.850
60.92000 116.586
60.96000 121.983
61.00000 124.433
61.04000 124.912
61.08000 128.537
61.12000 123.527
61.16000 126.063
61.20000 123.345
61.24000 125.907
61.28000 118.434
61.32000 126.296
61.36000 130.653
61.40000 123.456
61.44000 121.992
61.48000 130.529
61.52000 163.428
61.56000 217.738
61.60000 250.470
61.64000 299.992
61.68000 309.412
61.72000 304.480
61.76000 273.198
61.80000 212.793
61.84000 170.941
61.88000 143.240
61.92000 133.827
61.96000 137.672
62.00000 143.385
62.04000 131.893
62.08000 134.085
62.12000 137.301
62.16000 135.838
62.20000 125.905
62.24000 128.120
62.28000 139.401
62.32000 136.953
62.36000 137.060
62.40000 129.517
62.44000 126.978
62.48000 137.729
62.52000 133.470
62.56000 128.880
62.60000 139.545
62.64000 128.139
62.68000 135.695
62.72000 144.054
62.76000 129.207
62.80000 127.404
62.84000 138.962
62.88000 136.933
62.92000 131.325
62.96000 132.982
63.00000 131.252
63.04000 133.335
63.08000 138.963
63.12000 121.691
63.16000 138.182
63.20000 136.940
63.24000 125.433
63.28000 137.027
63.32000 135.441
63.36000 143.127
63.40000 143.350
63.44000 128.802
63.48000 138.402
63.52000 139.190
63.56000 135.814
63.60000 150.644
63.64000 136.431
63.68000 145.565
63.72000 140.754
63.76000 148.170
63.80000 131.586
63.84000 144.609
63.88000 143.890
63.92000 144.541
63.96000 148.402
64.00000 146.647
64.04000 141.669
64.08000 150.251
64.12000 147.736
64.16000 146.086
64.20000 161.345
64.24000 169.785
64.28000 149.102
64.32000 154.885
64.36000 154.355
64.40000 154.246
64.44000 163.251
64.48000 158.678
64.52000 154.009
64.56000 160.381
64.60000 154.129
64.64000 167.169
64.68000 163.476
64.72000 163.166
64.76000 170.397
64.80000 182.196
64.84000 178.409
64.88000 179.188
64.92000 175.328
64.96000 184.555
65.00000 197.782
65.04000 192.489
65.08000 201.350
65.12000 210.099
65.16000 203.756
65.20000 209.130
65.24000 212.753
65.28000 217.996
65.32000 249.533
65.36000 257.416
65.40000 275.674
65.44000 298.089
65.48000 328.154
65.52000 328.900
65.56000 384.484
65.60000 423.347
65.64000 491.641
65.68000 697.305
65.72000 1071.776
65.76000 1525.823
65.80000 1907.783
65.84000 2060.335
65.88000 2063.262
65.92000 1929.815
65.96000 1561.577
66.00000 1030.885
66.04000 656.018
66.08000 488.601
66.12000 423.973
66.16000 384.408
66.20000 402.523
66.24000 411.324
66.28000 472.197
66.32000 557.798
66.36000 632.653
66.40000 654.354
66.44000 641.834
66.48000 617.453
66.52000 550.809
66.56000 444.562
66.60000 394.333
66.64000 389.429
66.68000 384.066
66.72000 362.903
66.76000 365.790
66.80000 372.066
66.84000 380.548
66.88000 373.648
66.92000 365.869
66.96000 364.163
67.00000 380.103
67.04000 398.161
67.08000 384.343
67.12000 391.846
67.16000 380.198
67.20000 395.321
67.24000 396.922
67.28000 402.142
67.32000 412.990
67.36000 420.855
67.40000 421.882
67.44000 430.227
67.48000 434.913
67.52000 429.352
67.56000 459.156
67.60000 440.724
67.64000 446.783
67.68000 442.787
67.72000 477.460
67.76000 464.872
67.80000 460.792
67.84000 491.474
67.88000 488.016
67.92000 518.386
67.96000 505.104
68.00000 516.311
68.04000 544.208
68.08000 539.304
68.12000 540.880
68.16000 557.920
68.20000 571.880
68.24000 595.362
68.28000 609.191
68.32000 587.504
68.36000 621.355
68.40000 641.865
68.44000 687.222
68.48000 710.361
68.52000 725.341
68.56000 804.024
68.60000 917.757
68.64000 1065.967
68.68000 1258.232
68.72000 1406.820
68.76000 1566.067
68.80000 1839.863
68.84000 2135.286
68.88000 2713.086
68.92000 4709.066
68.96000 11687.724
69.00000 25882.600
69.04000 39191.320
69.08000 45705.188
69.12000 48456.023
69.16000 51539.484
69.20000 50030.578
69.24000 39583.051
69.28000 29165.092
69.32000 24687.551
69.36000 22978.207
69.40000 18520.309
69.44000 10793.143
69.48000 4619.960
69.52000 2271.979
69.56000 1456.238
69.60000 1151.836
69.64000 983.328
69.68000 858.139
69.72000 774.179
69.76000 712.202
69.80000 666.668
69.84000 620.619
69.88000 580.429
69.92000 551.854
69.96000 535.312
70.00000 521.472