File: XRD/09-10-2025 Dep 8/XY Data/BTO_Mapping_Theta2Theta_09-10-2025_001_14_3-090_9-511.xy
20.00000 475.545
20.04000 484.840
20.08000 480.218
20.12000 474.613
20.16000 487.768
20.20000 504.057
20.24000 464.015
20.28000 472.170
20.32000 470.159
20.36000 474.714
20.40000 481.714
20.44000 475.632
20.48000 477.777
20.52000 491.002
20.56000 457.149
20.60000 480.369
20.64000 491.383
20.68000 465.200
20.72000 484.868
20.76000 471.229
20.80000 478.310
20.84000 460.351
20.88000 464.263
20.92000 460.649
20.96000 509.110
21.00000 506.611
21.04000 486.162
21.08000 469.091
21.12000 482.803
21.16000 472.588
21.20000 481.825
21.24000 480.190
21.28000 469.701
21.32000 480.014
21.36000 480.983
21.40000 486.511
21.44000 462.117
21.48000 474.346
21.52000 474.140
21.56000 477.823
21.60000 463.627
21.64000 483.878
21.68000 475.090
21.72000 482.148
21.76000 494.594
21.80000 515.319
21.84000 501.966
21.88000 540.064
21.92000 550.576
21.96000 571.645
22.00000 589.558
22.04000 620.580
22.08000 628.026
22.12000 637.401
22.16000 637.326
22.20000 611.542
22.24000 600.457
22.28000 557.736
22.32000 561.639
22.36000 540.335
22.40000 531.032
22.44000 519.904
22.48000 496.403
22.52000 480.901
22.56000 465.220
22.60000 475.993
22.64000 451.065
22.68000 470.100
22.72000 459.001
22.76000 450.276
22.80000 441.302
22.84000 448.171
22.88000 433.868
22.92000 462.381
22.96000 439.781
23.00000 427.144
23.04000 426.089
23.08000 443.289
23.12000 450.501
23.16000 448.943
23.20000 424.925
23.24000 430.570
23.28000 434.437
23.32000 419.918
23.36000 437.864
23.40000 443.643
23.44000 447.135
23.48000 439.255
23.52000 429.782
23.56000 425.634
23.60000 435.048
23.64000 443.552
23.68000 446.583
23.72000 421.371
23.76000 422.413
23.80000 432.756
23.84000 418.289
23.88000 426.835
23.92000 434.082
23.96000 427.248
24.00000 419.987
24.04000 417.397
24.08000 437.757
24.12000 416.799
24.16000 423.584
24.20000 426.230
24.24000 415.094
24.28000 428.886
24.32000 426.571
24.36000 420.649
24.40000 412.442
24.44000 423.688
24.48000 422.166
24.52000 429.901
24.56000 424.975
24.60000 421.116
24.64000 421.447
24.68000 403.039
24.72000 420.359
24.76000 418.095
24.80000 383.910
24.84000 418.354
24.88000 417.747
24.92000 409.982
24.96000 410.416
25.00000 419.293
25.04000 404.581
25.08000 394.699
25.12000 400.994
25.16000 414.704
25.20000 411.476
25.24000 401.198
25.28000 405.285
25.32000 413.226
25.36000 405.626
25.40000 413.211
25.44000 398.588
25.48000 409.463
25.52000 395.073
25.56000 408.456
25.60000 413.126
25.64000 405.413
25.68000 395.541
25.72000 399.006
25.76000 402.926
25.80000 406.698
25.84000 402.581
25.88000 393.174
25.92000 405.485
25.96000 400.080
26.00000 388.128
26.04000 397.578
26.08000 393.365
26.12000 389.475
26.16000 402.210
26.20000 401.007
26.24000 403.561
26.28000 404.068
26.32000 399.073
26.36000 377.091
26.40000 391.236
26.44000 401.890
26.48000 392.313
26.52000 398.847
26.56000 383.040
26.60000 379.321
26.64000 380.080
26.68000 384.728
26.72000 381.809
26.76000 368.596
26.80000 383.127
26.84000 394.926
26.88000 368.252
26.92000 367.171
26.96000 393.725
27.00000 383.383
27.04000 392.000
27.08000 373.593
27.12000 393.442
27.16000 394.866
27.20000 377.344
27.24000 386.147
27.28000 371.259
27.32000 383.060
27.36000 382.137
27.40000 379.289
27.44000 382.753
27.48000 374.355
27.52000 372.580
27.56000 367.069
27.60000 365.172
27.64000 386.725
27.68000 386.048
27.72000 363.587
27.76000 378.624
27.80000 385.501
27.84000 374.546
27.88000 389.851
27.92000 387.067
27.96000 378.898
28.00000 378.697
28.04000 369.478
28.08000 361.753
28.12000 384.142
28.16000 382.915
28.20000 380.737
28.24000 369.912
28.28000 367.429
28.32000 379.240
28.36000 384.942
28.40000 386.526
28.44000 380.913
28.48000 360.006
28.52000 360.003
28.56000 377.399
28.60000 388.494
28.64000 346.991
28.68000 364.079
28.72000 354.671
28.76000 364.601
28.80000 364.564
28.84000 372.818
28.88000 359.183
28.92000 373.442
28.96000 361.020
29.00000 366.535
29.04000 364.317
29.08000 340.795
29.12000 375.265
29.16000 389.691
29.20000 371.490
29.24000 360.243
29.28000 372.353
29.32000 380.287
29.36000 355.318
29.40000 362.719
29.44000 378.138
29.48000 374.715
29.52000 372.166
29.56000 372.460
29.60000 360.699
29.64000 377.139
29.68000 369.536
29.72000 367.164
29.76000 380.501
29.80000 387.031
29.84000 388.861
29.88000 403.836
29.92000 435.698
29.96000 461.036
30.00000 465.760
30.04000 470.417
30.08000 480.244
30.12000 453.933
30.16000 460.712
30.20000 430.332
30.24000 437.340
30.28000 445.822
30.32000 414.065
30.36000 406.822
30.40000 384.693
30.44000 397.259
30.48000 393.688
30.52000 410.831
30.56000 411.272
30.60000 400.444
30.64000 397.608
30.68000 414.540
30.72000 396.416
30.76000 413.022
30.80000 408.018
30.84000 437.121
30.88000 456.246
30.92000 481.402
30.96000 495.093
31.00000 532.488
31.04000 561.598
31.08000 668.180
31.12000 807.638
31.16000 1019.513
31.20000 1323.202
31.24000 1635.994
31.28000 2171.886
31.32000 2594.778
31.36000 3034.736
31.40000 3158.509
31.44000 3084.214
31.48000 2818.227
31.52000 2445.266
31.56000 1983.788
31.60000 1553.203
31.64000 1196.225
31.68000 955.994
31.72000 772.216
31.76000 647.718
31.80000 571.362
31.84000 501.956
31.88000 479.233
31.92000 456.447
31.96000 416.428
32.00000 411.288
32.04000 408.976
32.08000 375.481
32.12000 374.167
32.16000 360.622
32.20000 361.118
32.24000 348.780
32.28000 342.678
32.32000 342.500
32.36000 356.941
32.40000 346.920
32.44000 330.635
32.48000 333.406
32.52000 329.697
32.56000 317.645
32.60000 323.686
32.64000 322.850
32.68000 341.219
32.72000 327.168
32.76000 326.902
32.80000 326.996
32.84000 321.342
32.88000 328.850
32.92000 328.164
32.96000 314.138
33.00000 330.736
33.04000 303.985
33.08000 309.818
33.12000 314.652
33.16000 308.200
33.20000 314.469
33.24000 313.167
33.28000 311.800
33.32000 300.217
33.36000 292.534
33.40000 315.812
33.44000 301.546
33.48000 293.179
33.52000 296.677
33.56000 302.578
33.60000 285.259
33.64000 304.072
33.68000 293.593
33.72000 295.474
33.76000 298.211
33.80000 287.138
33.84000 294.899
33.88000 286.002
33.92000 296.751
33.96000 295.001
34.00000 300.686
34.04000 284.657
34.08000 297.717
34.12000 296.629
34.16000 287.850
34.20000 279.851
34.24000 285.200
34.28000 281.773
34.32000 282.526
34.36000 293.416
34.40000 284.473
34.44000 286.628
34.48000 281.110
34.52000 283.451
34.56000 292.798
34.60000 285.467
34.64000 287.686
34.68000 278.976
34.72000 295.648
34.76000 277.475
34.80000 279.309
34.84000 279.377
34.88000 288.522
34.92000 281.871
34.96000 286.702
35.00000 275.449
35.04000 291.728
35.08000 287.497
35.12000 276.713
35.16000 271.068
35.20000 278.264
35.24000 265.902
35.28000 286.345
35.32000 265.675
35.36000 271.069
35.40000 271.809
35.44000 268.743
35.48000 288.169
35.52000 261.092
35.56000 273.219
35.60000 268.929
35.64000 264.207
35.68000 266.395
35.72000 275.809
35.76000 271.814
35.80000 264.129
35.84000 257.527
35.88000 251.814
35.92000 263.075
35.96000 272.013
36.00000 262.029
36.04000 270.963
36.08000 276.640
36.12000 251.868
36.16000 266.509
36.20000 263.449
36.24000 263.271
36.28000 257.359
36.32000 276.488
36.36000 260.025
36.40000 247.519
36.44000 250.491
36.48000 263.759
36.52000 249.334
36.56000 265.049
36.60000 261.709
36.64000 254.185
36.68000 261.618
36.72000 266.889
36.76000 255.327
36.80000 268.554
36.84000 259.217
36.88000 275.047
36.92000 268.110
36.96000 291.337
37.00000 278.611
37.04000 288.494
37.08000 287.147
37.12000 267.853
37.16000 273.266
37.20000 277.638
37.24000 265.604
37.28000 261.738
37.32000 269.099
37.36000 269.068
37.40000 268.564
37.44000 271.382
37.48000 250.454
37.52000 266.136
37.56000 249.821
37.60000 258.033
37.64000 259.818
37.68000 250.637
37.72000 245.665
37.76000 268.261
37.80000 263.336
37.84000 256.670
37.88000 272.284
37.92000 263.067
37.96000 259.510
38.00000 272.634
38.04000 277.173
38.08000 255.978
38.12000 274.876
38.16000 273.846
38.20000 263.557
38.24000 280.561
38.28000 300.638
38.32000 291.200
38.36000 303.996
38.40000 353.144
38.44000 368.001
38.48000 421.573
38.52000 497.114
38.56000 609.106
38.60000 724.528
38.64000 884.859
38.68000 1009.128
38.72000 1035.703
38.76000 1076.500
38.80000 1040.849
38.84000 912.860
38.88000 761.901
38.92000 625.648
38.96000 513.861
39.00000 412.757
39.04000 335.960
39.08000 311.250
39.12000 296.949
39.16000 272.508
39.20000 280.449
39.24000 252.259
39.28000 252.782
39.32000 250.358
39.36000 256.821
39.40000 257.373
39.44000 243.325
39.48000 256.866
39.52000 237.423
39.56000 238.145
39.60000 238.173
39.64000 240.662
39.68000 230.084
39.72000 232.935
39.76000 246.704
39.80000 237.713
39.84000 228.310
39.88000 231.863
39.92000 233.626
39.96000 226.962
40.00000 240.459
40.04000 228.419
40.08000 233.837
40.12000 250.826
40.16000 208.265
40.20000 233.630
40.24000 231.694
40.28000 231.547
40.32000 226.364
40.36000 231.808
40.40000 216.524
40.44000 222.205
40.48000 232.584
40.52000 222.696
40.56000 216.227
40.60000 223.314
40.64000 228.940
40.68000 216.831
40.72000 218.230
40.76000 226.510
40.80000 222.830
40.84000 222.553
40.88000 219.600
40.92000 216.657
40.96000 218.748
41.00000 213.695
41.04000 219.965
41.08000 219.075
41.12000 210.794
41.16000 222.442
41.20000 211.953
41.24000 201.657
41.28000 226.804
41.32000 215.146
41.36000 213.545
41.40000 217.421
41.44000 213.566
41.48000 203.985
41.52000 211.889
41.56000 205.494
41.60000 222.421
41.64000 212.311
41.68000 218.352
41.72000 203.730
41.76000 208.970
41.80000 203.781
41.84000 210.620
41.88000 214.314
41.92000 217.115
41.96000 209.069
42.00000 208.462
42.04000 208.167
42.08000 206.979
42.12000 202.604
42.16000 210.671
42.20000 209.104
42.24000 211.481
42.28000 213.807
42.32000 198.950
42.36000 209.701
42.40000 205.847
42.44000 202.261
42.48000 219.735
42.52000 208.383
42.56000 204.219
42.60000 200.591
42.64000 192.214
42.68000 210.892
42.72000 200.765
42.76000 200.129
42.80000 199.208
42.84000 202.338
42.88000 207.718
42.92000 205.101
42.96000 209.954
43.00000 210.636
43.04000 206.683
43.08000 206.084
43.12000 211.485
43.16000 197.915
43.20000 198.393
43.24000 207.600
43.28000 199.217
43.32000 191.640
43.36000 204.154
43.40000 202.441
43.44000 198.325
43.48000 211.162
43.52000 203.285
43.56000 192.086
43.60000 196.661
43.64000 194.297
43.68000 200.566
43.72000 201.825
43.76000 202.093
43.80000 201.428
43.84000 185.500
43.88000 189.054
43.92000 179.171
43.96000 194.324
44.00000 206.349
44.04000 193.224
44.08000 193.924
44.12000 207.108
44.16000 187.405
44.20000 195.756
44.24000 202.383
44.28000 198.429
44.32000 204.239
44.36000 189.696
44.40000 202.663
44.44000 195.306
44.48000 202.383
44.52000 196.238
44.56000 217.714
44.60000 207.519
44.64000 204.547
44.68000 222.456
44.72000 207.266
44.76000 219.242
44.80000 230.920
44.84000 229.526
44.88000 238.067
44.92000 256.073
44.96000 271.634
45.00000 273.981
45.04000 300.696
45.08000 319.286
45.12000 307.517
45.16000 318.821
45.20000 327.101
45.24000 307.124
45.28000 306.307
45.32000 301.974
45.36000 297.226
45.40000 277.712
45.44000 271.961
45.48000 254.345
45.52000 249.363
45.56000 249.359
45.60000 258.419
45.64000 235.402
45.68000 219.005
45.72000 221.582
45.76000 211.184
45.80000 205.825
45.84000 214.620
45.88000 196.521
45.92000 204.943
45.96000 197.277
46.00000 198.172
46.04000 196.970
46.08000 195.843
46.12000 189.129
46.16000 183.340
46.20000 186.596
46.24000 191.921
46.28000 182.761
46.32000 187.076
46.36000 183.072
46.40000 185.020
46.44000 182.953
46.48000 179.412
46.52000 176.449
46.56000 181.590
46.60000 184.446
46.64000 182.301
46.68000 174.328
46.72000 173.450
46.76000 178.233
46.80000 174.800
46.84000 178.146
46.88000 177.550
46.92000 173.970
46.96000 167.468
47.00000 163.141
47.04000 171.010
47.08000 165.502
47.12000 168.106
47.16000 170.653
47.20000 162.337
47.24000 161.460
47.28000 167.242
47.32000 173.412
47.36000 178.242
47.40000 171.754
47.44000 165.582
47.48000 153.020
47.52000 153.590
47.56000 178.990
47.60000 166.462
47.64000 158.149
47.68000 163.825
47.72000 160.202
47.76000 154.560
47.80000 160.827
47.84000 157.727
47.88000 170.522
47.92000 169.728
47.96000 153.539
48.00000 165.863
48.04000 159.654
48.08000 159.303
48.12000 162.487
48.16000 176.960
48.20000 156.556
48.24000 171.848
48.28000 163.691
48.32000 162.416
48.36000 167.258
48.40000 165.691
48.44000 153.921
48.48000 178.873
48.52000 155.204
48.56000 158.560
48.60000 151.606
48.64000 164.361
48.68000 161.650
48.72000 173.585
48.76000 160.101
48.80000 169.257
48.84000 160.765
48.88000 152.196
48.92000 161.984
48.96000 153.819
49.00000 159.489
49.04000 159.928
49.08000 149.580
49.12000 167.898
49.16000 152.005
49.20000 167.120
49.24000 158.478
49.28000 150.566
49.32000 151.374
49.36000 158.959
49.40000 156.814
49.44000 154.392
49.48000 155.260
49.52000 165.538
49.56000 165.590
49.60000 153.434
49.64000 148.776
49.68000 157.695
49.72000 158.583
49.76000 155.264
49.80000 153.014
49.84000 151.920
49.88000 147.248
49.92000 154.819
49.96000 147.857
50.00000 159.261
50.04000 169.211
50.08000 146.793
50.12000 151.322
50.16000 152.918
50.20000 158.405
50.24000 158.765
50.28000 158.186
50.32000 162.022
50.36000 147.208
50.40000 167.003
50.44000 174.451
50.48000 183.267
50.52000 172.503
50.56000 192.922
50.60000 206.868
50.64000 209.981
50.68000 211.762
50.72000 226.537
50.76000 224.071
50.80000 240.072
50.84000 226.916
50.88000 213.505
50.92000 214.864
50.96000 192.150
51.00000 183.241
51.04000 183.557
51.08000 168.279
51.12000 170.457
51.16000 165.496
51.20000 162.726
51.24000 161.038
51.28000 149.286
51.32000 150.446
51.36000 151.135
51.40000 141.220
51.44000 152.791
51.48000 148.759
51.52000 146.181
51.56000 144.513
51.60000 134.284
51.64000 156.601
51.68000 152.614
51.72000 149.566
51.76000 146.903
51.80000 144.794
51.84000 159.796
51.88000 146.655
51.92000 137.103
51.96000 144.848
52.00000 145.760
52.04000 140.595
52.08000 138.133
52.12000 135.988
52.16000 136.641
52.20000 150.727
52.24000 154.200
52.28000 161.685
52.32000 140.954
52.36000 145.636
52.40000 143.694
52.44000 137.151
52.48000 144.203
52.52000 139.472
52.56000 139.175
52.60000 144.656
52.64000 136.629
52.68000 142.736
52.72000 148.957
52.76000 137.383
52.80000 150.680
52.84000 143.481
52.88000 137.326
52.92000 144.618
52.96000 148.287
53.00000 146.592
53.04000 151.592
53.08000 152.684
53.12000 146.131
53.16000 139.673
53.20000 149.031
53.24000 143.223
53.28000 136.480
53.32000 151.065
53.36000 145.792
53.40000 155.102
53.44000 143.371
53.48000 157.415
53.52000 153.902
53.56000 145.978
53.60000 143.638
53.64000 144.555
53.68000 147.725
53.72000 144.728
53.76000 143.598
53.80000 126.946
53.84000 135.804
53.88000 153.583
53.92000 140.563
53.96000 133.343
54.00000 142.548
54.04000 143.314
54.08000 136.654
54.12000 141.785
54.16000 143.450
54.20000 135.523
54.24000 145.990
54.28000 138.891
54.32000 135.696
54.36000 138.131
54.40000 133.165
54.44000 142.803
54.48000 152.699
54.52000 137.375
54.56000 130.965
54.60000 123.067
54.64000 135.779
54.68000 149.766
54.72000 136.805
54.76000 147.449
54.80000 144.068
54.84000 155.773
54.88000 149.490
54.92000 134.441
54.96000 142.414
55.00000 143.989
55.04000 128.471
55.08000 150.496
55.12000 148.285
55.16000 142.759
55.20000 157.951
55.24000 148.251
55.28000 144.640
55.32000 151.744
55.36000 161.966
55.40000 159.023
55.44000 174.157
55.48000 164.071
55.52000 184.449
55.56000 175.482
55.60000 193.691
55.64000 199.498
55.68000 226.056
55.72000 269.999
55.76000 302.349
55.80000 348.842
55.84000 398.301
55.88000 474.720
55.92000 510.392
55.96000 563.225
56.00000 557.621
56.04000 549.254
56.08000 537.533
56.12000 496.703
56.16000 435.446
56.20000 390.333
56.24000 331.548
56.28000 293.456
56.32000 258.699
56.36000 227.340
56.40000 202.387
56.44000 200.725
56.48000 196.158
56.52000 168.421
56.56000 169.919
56.60000 165.919
56.64000 163.943
56.68000 143.139
56.72000 156.467
56.76000 145.235
56.80000 148.634
56.84000 142.745
56.88000 143.492
56.92000 129.336
56.96000 136.062
57.00000 141.604
57.04000 136.291
57.08000 145.568
57.12000 132.002
57.16000 138.474
57.20000 134.072
57.24000 131.719
57.28000 130.058
57.32000 131.821
57.36000 126.265
57.40000 130.070
57.44000 119.015
57.48000 119.178
57.52000 121.459
57.56000 127.234
57.60000 136.653
57.64000 122.482
57.68000 125.964
57.72000 141.489
57.76000 138.422
57.80000 127.358
57.84000 126.302
57.88000 130.951
57.92000 118.858
57.96000 124.087
58.00000 126.808
58.04000 128.710
58.08000 131.167
58.12000 118.229
58.16000 127.852
58.20000 127.819
58.24000 126.999
58.28000 117.869
58.32000 121.374
58.36000 118.635
58.40000 117.844
58.44000 119.336
58.48000 124.445
58.52000 118.967
58.56000 118.851
58.60000 129.533
58.64000 118.868
58.68000 130.791
58.72000 120.536
58.76000 124.703
58.80000 115.770
58.84000 120.943
58.88000 119.452
58.92000 112.443
58.96000 113.491
59.00000 130.480
59.04000 120.091
59.08000 123.765
59.12000 123.470
59.16000 124.747
59.20000 128.907
59.24000 121.778
59.28000 112.307
59.32000 122.993
59.36000 118.664
59.40000 114.757
59.44000 124.924
59.48000 123.835
59.52000 126.441
59.56000 120.763
59.60000 115.723
59.64000 119.349
59.68000 114.579
59.72000 114.295
59.76000 126.437
59.80000 115.583
59.84000 117.130
59.88000 113.175
59.92000 115.992
59.96000 125.082
60.00000 124.470
60.04000 121.512
60.08000 113.465
60.12000 112.369
60.16000 122.367
60.20000 119.622
60.24000 118.786
60.28000 116.489
60.32000 110.187
60.36000 123.258
60.40000 117.380
60.44000 117.188
60.48000 118.349
60.52000 100.723
60.56000 115.602
60.60000 114.813
60.64000 118.013
60.68000 122.060
60.72000 115.052
60.76000 114.937
60.80000 121.838
60.84000 120.543
60.88000 109.965
60.92000 122.300
60.96000 114.253
61.00000 119.580
61.04000 123.406
61.08000 123.232
61.12000 126.885
61.16000 121.447
61.20000 137.924
61.24000 113.606
61.28000 131.997
61.32000 131.326
61.36000 127.552
61.40000 120.008
61.44000 133.711
61.48000 131.605
61.52000 171.313
61.56000 215.285
61.60000 304.939
61.64000 342.787
61.68000 327.315
61.72000 343.297
61.76000 311.356
61.80000 249.152
61.84000 175.817
61.88000 137.723
61.92000 137.792
61.96000 142.687
62.00000 130.789
62.04000 133.008
62.08000 135.236
62.12000 119.968
62.16000 124.521
62.20000 132.042
62.24000 132.060
62.28000 135.787
62.32000 126.992
62.36000 124.116
62.40000 136.412
62.44000 135.787
62.48000 137.558
62.52000 132.736
62.56000 137.299
62.60000 141.324
62.64000 147.479
62.68000 143.137
62.72000 137.364
62.76000 139.496
62.80000 146.294
62.84000 130.830
62.88000 139.871
62.92000 139.651
62.96000 140.380
63.00000 136.018
63.04000 140.960
63.08000 136.367
63.12000 135.372
63.16000 138.166
63.20000 131.126
63.24000 133.123
63.28000 133.639
63.32000 128.583
63.36000 131.015
63.40000 141.806
63.44000 133.497
63.48000 143.126
63.52000 133.850
63.56000 133.723
63.60000 137.249
63.64000 143.102
63.68000 139.510
63.72000 155.264
63.76000 146.934
63.80000 151.947
63.84000 147.042
63.88000 143.293
63.92000 150.471
63.96000 138.756
64.00000 143.853
64.04000 147.392
64.08000 148.725
64.12000 146.581
64.16000 152.658
64.20000 157.649
64.24000 153.795
64.28000 153.132
64.32000 166.992
64.36000 159.350
64.40000 160.622
64.44000 168.928
64.48000 174.646
64.52000 151.995
64.56000 167.358
64.60000 178.052
64.64000 167.330
64.68000 168.733
64.72000 167.752
64.76000 183.554
64.80000 186.368
64.84000 192.306
64.88000 201.392
64.92000 192.421
64.96000 194.579
65.00000 205.650
65.04000 199.606
65.08000 204.242
65.12000 206.286
65.16000 229.925
65.20000 222.162
65.24000 240.521
65.28000 259.711
65.32000 279.959
65.36000 303.351
65.40000 347.025
65.44000 362.818
65.48000 410.727
65.52000 463.710
65.56000 483.047
65.60000 538.404
65.64000 623.827
65.68000 872.136
65.72000 1281.718
65.76000 1822.551
65.80000 2281.290
65.84000 2467.774
65.88000 2476.389
65.92000 2288.948
65.96000 1792.897
66.00000 1187.854
66.04000 753.522
66.08000 577.389
66.12000 478.983
66.16000 443.387
66.20000 438.209
66.24000 475.808
66.28000 566.404
66.32000 649.603
66.36000 714.103
66.40000 763.289
66.44000 768.798
66.48000 713.155
66.52000 602.853
66.56000 500.016
66.60000 445.606
66.64000 392.124
66.68000 402.493
66.72000 388.223
66.76000 405.668
66.80000 388.308
66.84000 388.626
66.88000 413.422
66.92000 407.618
66.96000 397.604
67.00000 408.653
67.04000 421.647
67.08000 421.983
67.12000 450.854
67.16000 432.483
67.20000 421.567
67.24000 424.083
67.28000 445.008
67.32000 445.651
67.36000 450.584
67.40000 446.568
67.44000 444.688
67.48000 460.988
67.52000 488.623
67.56000 474.919
67.60000 480.057
67.64000 482.995
67.68000 495.835
67.72000 496.377
67.76000 510.254
67.80000 496.198
67.84000 517.541
67.88000 518.716
67.92000 547.274
67.96000 559.366
68.00000 562.831
68.04000 580.614
68.08000 578.374
68.12000 580.831
68.16000 593.537
68.20000 607.670
68.24000 607.716
68.28000 633.000
68.32000 648.989
68.36000 669.906
68.40000 705.563
68.44000 718.881
68.48000 760.537
68.52000 789.123
68.56000 871.406
68.60000 1006.525
68.64000 1194.042
68.68000 1391.158
68.72000 1600.320
68.76000 1854.407
68.80000 2089.671
68.84000 2458.491
68.88000 3153.858
68.92000 5604.237
68.96000 13699.604
69.00000 30235.061
69.04000 46366.715
69.08000 54363.199
69.12000 57570.063
69.16000 61052.316
69.20000 59102.141
69.24000 46653.086
69.28000 35026.734
69.32000 29227.529
69.36000 26821.740
69.40000 21896.773
69.44000 12732.307
69.48000 5508.064
69.52000 2605.825
69.56000 1620.267
69.60000 1258.087
69.64000 1049.211
69.68000 914.723
69.72000 838.982
69.76000 770.924
69.80000 698.083
69.84000 678.107
69.88000 636.553
69.92000 581.043
69.96000 548.454
70.00000 547.720