File: XRD/09-10-2025 Dep 8/XY Data/BTO_Mapping_Theta2Theta_09-10-2025_001_17_12-361_38-042.xy
20.00000 473.093
20.04000 488.400
20.08000 468.280
20.12000 500.025
20.16000 503.533
20.20000 454.228
20.24000 485.983
20.28000 487.059
20.32000 480.052
20.36000 472.982
20.40000 456.231
20.44000 487.305
20.48000 489.004
20.52000 467.439
20.56000 484.351
20.60000 478.990
20.64000 475.850
20.68000 461.634
20.72000 463.698
20.76000 478.267
20.80000 466.731
20.84000 456.131
20.88000 453.512
20.92000 484.164
20.96000 475.257
21.00000 465.488
21.04000 457.624
21.08000 466.149
21.12000 463.226
21.16000 466.386
21.20000 461.518
21.24000 476.102
21.28000 465.625
21.32000 482.817
21.36000 485.254
21.40000 479.270
21.44000 464.197
21.48000 455.874
21.52000 471.918
21.56000 480.009
21.60000 492.537
21.64000 485.898
21.68000 463.869
21.72000 472.699
21.76000 472.823
21.80000 486.469
21.84000 493.729
21.88000 517.148
21.92000 508.564
21.96000 507.031
22.00000 564.949
22.04000 578.785
22.08000 582.121
22.12000 571.896
22.16000 588.997
22.20000 572.343
22.24000 575.612
22.28000 569.925
22.32000 544.021
22.36000 527.151
22.40000 525.609
22.44000 499.600
22.48000 504.241
22.52000 492.208
22.56000 484.400
22.60000 464.657
22.64000 466.760
22.68000 452.497
22.72000 457.479
22.76000 450.266
22.80000 433.550
22.84000 461.193
22.88000 439.473
22.92000 445.178
22.96000 455.570
23.00000 451.294
23.04000 437.234
23.08000 431.891
23.12000 439.409
23.16000 427.725
23.20000 457.590
23.24000 436.612
23.28000 432.506
23.32000 428.017
23.36000 440.855
23.40000 427.625
23.44000 428.358
23.48000 433.876
23.52000 439.569
23.56000 421.486
23.60000 438.868
23.64000 427.600
23.68000 440.193
23.72000 446.546
23.76000 440.435
23.80000 432.155
23.84000 456.085
23.88000 460.745
23.92000 465.493
23.96000 458.816
24.00000 464.700
24.04000 469.371
24.08000 445.668
24.12000 447.402
24.16000 456.579
24.20000 460.149
24.24000 435.475
24.28000 431.169
24.32000 429.945
24.36000 439.562
24.40000 432.935
24.44000 440.797
24.48000 418.921
24.52000 428.028
24.56000 428.517
24.60000 423.596
24.64000 404.015
24.68000 404.920
24.72000 405.983
24.76000 389.239
24.80000 399.765
24.84000 411.738
24.88000 406.685
24.92000 418.538
24.96000 405.130
25.00000 421.220
25.04000 419.975
25.08000 415.217
25.12000 414.972
25.16000 402.775
25.20000 405.420
25.24000 398.628
25.28000 391.060
25.32000 412.646
25.36000 412.336
25.40000 398.522
25.44000 391.444
25.48000 407.584
25.52000 398.664
25.56000 390.089
25.60000 400.448
25.64000 404.920
25.68000 407.839
25.72000 418.893
25.76000 410.565
25.80000 392.130
25.84000 407.887
25.88000 375.918
25.92000 428.713
25.96000 388.250
26.00000 393.647
26.04000 369.385
26.08000 389.733
26.12000 392.795
26.16000 379.740
26.20000 389.257
26.24000 394.330
26.28000 388.665
26.32000 394.583
26.36000 387.255
26.40000 377.670
26.44000 381.424
26.48000 376.051
26.52000 384.357
26.56000 398.323
26.60000 389.853
26.64000 375.477
26.68000 395.616
26.72000 392.439
26.76000 371.136
26.80000 378.341
26.84000 375.009
26.88000 373.680
26.92000 370.725
26.96000 389.698
27.00000 383.162
27.04000 377.422
27.08000 399.467
27.12000 368.292
27.16000 374.217
27.20000 391.082
27.24000 381.845
27.28000 369.561
27.32000 375.154
27.36000 370.642
27.40000 376.677
27.44000 378.133
27.48000 370.952
27.52000 358.493
27.56000 362.957
27.60000 385.110
27.64000 373.788
27.68000 378.831
27.72000 381.981
27.76000 369.754
27.80000 352.636
27.84000 365.043
27.88000 354.373
27.92000 378.673
27.96000 367.736
28.00000 378.120
28.04000 369.005
28.08000 369.860
28.12000 359.827
28.16000 375.352
28.20000 374.233
28.24000 365.920
28.28000 380.224
28.32000 353.373
28.36000 364.591
28.40000 359.966
28.44000 374.849
28.48000 368.696
28.52000 362.844
28.56000 367.138
28.60000 357.137
28.64000 358.422
28.68000 358.357
28.72000 350.458
28.76000 357.713
28.80000 366.667
28.84000 368.216
28.88000 346.703
28.92000 351.679
28.96000 354.462
29.00000 353.552
29.04000 344.095
29.08000 363.314
29.12000 362.777
29.16000 366.624
29.20000 351.607
29.24000 353.461
29.28000 372.550
29.32000 365.016
29.36000 341.628
29.40000 353.359
29.44000 332.255
29.48000 350.025
29.52000 356.721
29.56000 337.710
29.60000 347.835
29.64000 335.911
29.68000 350.715
29.72000 372.784
29.76000 362.369
29.80000 362.580
29.84000 363.641
29.88000 361.151
29.92000 382.026
29.96000 399.955
30.00000 398.375
30.04000 395.193
30.08000 385.777
30.12000 402.608
30.16000 391.494
30.20000 395.890
30.24000 405.992
30.28000 405.460
30.32000 386.328
30.36000 381.823
30.40000 374.877
30.44000 368.363
30.48000 366.858
30.52000 376.618
30.56000 374.079
30.60000 366.037
30.64000 377.327
30.68000 373.954
30.72000 369.243
30.76000 381.819
30.80000 386.289
30.84000 392.197
30.88000 389.237
30.92000 400.633
30.96000 411.263
31.00000 419.184
31.04000 443.802
31.08000 477.217
31.12000 497.877
31.16000 625.467
31.20000 713.343
31.24000 847.326
31.28000 1089.640
31.32000 1318.830
31.36000 1597.178
31.40000 1775.734
31.44000 1853.414
31.48000 1855.701
31.52000 1749.743
31.56000 1558.479
31.60000 1329.680
31.64000 1089.591
31.68000 879.124
31.72000 746.466
31.76000 664.276
31.80000 555.738
31.84000 475.033
31.88000 459.132
31.92000 413.777
31.96000 410.943
32.00000 397.294
32.04000 376.237
32.08000 370.973
32.12000 359.680
32.16000 348.554
32.20000 352.213
32.24000 339.076
32.28000 325.209
32.32000 338.568
32.36000 342.029
32.40000 355.952
32.44000 340.082
32.48000 332.119
32.52000 339.628
32.56000 315.385
32.60000 344.062
32.64000 341.258
32.68000 332.343
32.72000 320.294
32.76000 319.736
32.80000 292.634
32.84000 311.012
32.88000 322.562
32.92000 309.679
32.96000 309.336
33.00000 316.688
33.04000 305.500
33.08000 301.987
33.12000 294.763
33.16000 304.464
33.20000 293.610
33.24000 294.011
33.28000 305.187
33.32000 303.688
33.36000 295.662
33.40000 288.551
33.44000 308.837
33.48000 298.988
33.52000 301.128
33.56000 290.582
33.60000 283.272
33.64000 294.233
33.68000 287.103
33.72000 288.548
33.76000 291.934
33.80000 311.965
33.84000 280.163
33.88000 298.269
33.92000 284.648
33.96000 268.093
34.00000 285.661
34.04000 305.753
34.08000 298.924
34.12000 282.279
34.16000 286.123
34.20000 298.126
34.24000 294.448
34.28000 283.293
34.32000 278.911
34.36000 284.438
34.40000 284.814
34.44000 298.051
34.48000 290.591
34.52000 282.146
34.56000 291.290
34.60000 294.120
34.64000 279.651
34.68000 275.776
34.72000 273.553
34.76000 286.863
34.80000 291.373
34.84000 277.609
34.88000 283.285
34.92000 287.218
34.96000 270.777
35.00000 273.701
35.04000 276.231
35.08000 270.910
35.12000 273.674
35.16000 275.924
35.20000 266.552
35.24000 265.103
35.28000 278.589
35.32000 270.034
35.36000 265.694
35.40000 268.426
35.44000 260.656
35.48000 255.815
35.52000 268.426
35.56000 279.460
35.60000 259.314
35.64000 277.659
35.68000 271.142
35.72000 252.819
35.76000 274.314
35.80000 267.788
35.84000 263.251
35.88000 251.511
35.92000 272.204
35.96000 268.180
36.00000 256.867
36.04000 262.602
36.08000 248.447
36.12000 269.801
36.16000 269.698
36.20000 269.475
36.24000 255.725
36.28000 253.669
36.32000 271.496
36.36000 248.873
36.40000 259.481
36.44000 246.964
36.48000 245.454
36.52000 251.488
36.56000 252.054
36.60000 245.208
36.64000 252.193
36.68000 263.858
36.72000 269.970
36.76000 253.519
36.80000 254.464
36.84000 262.450
36.88000 268.710
36.92000 287.342
36.96000 263.548
37.00000 268.924
37.04000 276.378
37.08000 280.789
37.12000 278.387
37.16000 285.288
37.20000 281.693
37.24000 278.194
37.28000 258.483
37.32000 260.929
37.36000 250.844
37.40000 254.215
37.44000 260.146
37.48000 255.017
37.52000 264.754
37.56000 251.869
37.60000 255.060
37.64000 254.038
37.68000 271.123
37.72000 245.590
37.76000 245.040
37.80000 249.584
37.84000 251.907
37.88000 253.147
37.92000 255.686
37.96000 248.838
38.00000 252.255
38.04000 252.689
38.08000 257.530
38.12000 278.029
38.16000 268.666
38.20000 272.259
38.24000 261.741
38.28000 254.069
38.32000 287.323
38.36000 277.237
38.40000 287.860
38.44000 309.361
38.48000 334.369
38.52000 384.429
38.56000 436.515
38.60000 560.103
38.64000 661.877
38.68000 804.674
38.72000 953.068
38.76000 1054.076
38.80000 1086.941
38.84000 1051.055
38.88000 939.131
38.92000 771.715
38.96000 664.455
39.00000 528.541
39.04000 413.913
39.08000 367.353
39.12000 307.892
39.16000 293.458
39.20000 285.455
39.24000 264.076
39.28000 256.656
39.32000 261.234
39.36000 245.416
39.40000 247.137
39.44000 254.114
39.48000 243.053
39.52000 235.176
39.56000 231.981
39.60000 233.358
39.64000 230.403
39.68000 240.831
39.72000 243.063
39.76000 222.749
39.80000 237.662
39.84000 239.584
39.88000 211.373
39.92000 231.237
39.96000 214.422
40.00000 233.518
40.04000 241.154
40.08000 229.286
40.12000 229.782
40.16000 225.237
40.20000 226.792
40.24000 223.146
40.28000 235.518
40.32000 225.727
40.36000 230.933
40.40000 219.408
40.44000 208.005
40.48000 228.031
40.52000 221.282
40.56000 217.404
40.60000 206.731
40.64000 220.009
40.68000 211.727
40.72000 220.827
40.76000 224.864
40.80000 199.639
40.84000 214.152
40.88000 203.236
40.92000 217.082
40.96000 215.883
41.00000 228.131
41.04000 218.382
41.08000 204.049
41.12000 200.526
41.16000 221.367
41.20000 226.155
41.24000 214.618
41.28000 210.758
41.32000 209.867
41.36000 201.349
41.40000 209.316
41.44000 218.205
41.48000 211.166
41.52000 200.937
41.56000 201.294
41.60000 202.022
41.64000 202.409
41.68000 208.712
41.72000 208.773
41.76000 208.708
41.80000 205.571
41.84000 197.363
41.88000 202.730
41.92000 210.343
41.96000 210.465
42.00000 198.147
42.04000 209.667
42.08000 203.047
42.12000 203.164
42.16000 198.787
42.20000 202.967
42.24000 210.923
42.28000 208.643
42.32000 211.710
42.36000 204.271
42.40000 204.620
42.44000 203.294
42.48000 204.389
42.52000 205.125
42.56000 198.379
42.60000 208.942
42.64000 198.483
42.68000 205.761
42.72000 207.806
42.76000 198.323
42.80000 200.522
42.84000 204.511
42.88000 205.268
42.92000 197.024
42.96000 207.883
43.00000 189.735
43.04000 203.419
43.08000 208.594
43.12000 210.372
43.16000 208.013
43.20000 205.140
43.24000 204.288
43.28000 196.458
43.32000 199.528
43.36000 205.453
43.40000 199.748
43.44000 199.342
43.48000 203.788
43.52000 202.413
43.56000 190.202
43.60000 191.865
43.64000 188.875
43.68000 203.542
43.72000 195.231
43.76000 198.922
43.80000 200.463
43.84000 195.870
43.88000 196.353
43.92000 189.519
43.96000 192.284
44.00000 185.502
44.04000 196.472
44.08000 202.552
44.12000 179.218
44.16000 186.176
44.20000 176.799
44.24000 206.224
44.28000 192.587
44.32000 181.472
44.36000 201.889
44.40000 199.459
44.44000 205.833
44.48000 202.121
44.52000 197.186
44.56000 195.116
44.60000 193.841
44.64000 197.590
44.68000 205.980
44.72000 204.919
44.76000 208.560
44.80000 218.103
44.84000 215.375
44.88000 223.925
44.92000 235.496
44.96000 224.794
45.00000 242.313
45.04000 255.786
45.08000 247.585
45.12000 258.210
45.16000 266.354
45.20000 260.873
45.24000 271.291
45.28000 270.679
45.32000 269.070
45.36000 253.798
45.40000 250.089
45.44000 238.287
45.48000 243.317
45.52000 244.614
45.56000 239.236
45.60000 231.268
45.64000 230.347
45.68000 228.590
45.72000 215.998
45.76000 219.017
45.80000 202.223
45.84000 200.287
45.88000 205.582
45.92000 196.418
45.96000 195.495
46.00000 187.857
46.04000 186.900
46.08000 184.207
46.12000 173.675
46.16000 193.299
46.20000 178.751
46.24000 173.161
46.28000 179.816
46.32000 185.197
46.36000 177.773
46.40000 191.808
46.44000 173.338
46.48000 179.660
46.52000 178.673
46.56000 181.719
46.60000 170.726
46.64000 183.874
46.68000 171.802
46.72000 171.286
46.76000 168.027
46.80000 177.782
46.84000 168.566
46.88000 161.053
46.92000 167.217
46.96000 174.496
47.00000 173.814
47.04000 178.333
47.08000 171.726
47.12000 161.804
47.16000 167.325
47.20000 170.541
47.24000 174.179
47.28000 173.411
47.32000 175.434
47.36000 163.567
47.40000 161.942
47.44000 159.778
47.48000 161.954
47.52000 157.873
47.56000 162.651
47.60000 166.983
47.64000 169.136
47.68000 166.561
47.72000 156.273
47.76000 163.642
47.80000 162.686
47.84000 164.055
47.88000 162.599
47.92000 161.943
47.96000 157.772
48.00000 160.138
48.04000 162.294
48.08000 166.617
48.12000 153.438
48.16000 162.920
48.20000 162.441
48.24000 163.786
48.28000 152.559
48.32000 159.388
48.36000 162.594
48.40000 158.932
48.44000 152.773
48.48000 138.360
48.52000 158.327
48.56000 165.359
48.60000 153.106
48.64000 160.299
48.68000 157.811
48.72000 161.633
48.76000 158.477
48.80000 155.596
48.84000 150.781
48.88000 160.314
48.92000 159.059
48.96000 160.450
49.00000 154.249
49.04000 151.636
49.08000 159.551
49.12000 143.054
49.16000 146.281
49.20000 151.485
49.24000 154.779
49.28000 143.520
49.32000 150.794
49.36000 158.220
49.40000 153.260
49.44000 164.256
49.48000 141.195
49.52000 146.065
49.56000 150.522
49.60000 149.697
49.64000 138.717
49.68000 157.643
49.72000 149.327
49.76000 148.749
49.80000 153.515
49.84000 151.332
49.88000 152.549
49.92000 148.394
49.96000 147.341
50.00000 156.347
50.04000 149.231
50.08000 156.368
50.12000 152.003
50.16000 159.174
50.20000 149.878
50.24000 159.483
50.28000 154.026
50.32000 154.101
50.36000 163.005
50.40000 164.555
50.44000 163.216
50.48000 166.527
50.52000 164.503
50.56000 154.418
50.60000 185.765
50.64000 186.874
50.68000 193.517
50.72000 202.910
50.76000 211.057
50.80000 215.285
50.84000 217.260
50.88000 205.172
50.92000 204.178
50.96000 198.210
51.00000 196.828
51.04000 169.884
51.08000 171.764
51.12000 173.381
51.16000 168.381
51.20000 160.980
51.24000 160.786
51.28000 164.159
51.32000 152.625
51.36000 158.004
51.40000 156.049
51.44000 150.692
51.48000 146.904
51.52000 147.719
51.56000 139.771
51.60000 145.507
51.64000 145.222
51.68000 132.276
51.72000 148.815
51.76000 147.948
51.80000 145.530
51.84000 142.148
51.88000 145.333
51.92000 132.477
51.96000 148.954
52.00000 148.691
52.04000 150.890
52.08000 141.426
52.12000 151.210
52.16000 134.218
52.20000 135.326
52.24000 134.205
52.28000 137.114
52.32000 140.164
52.36000 138.092
52.40000 134.055
52.44000 140.082
52.48000 137.211
52.52000 127.382
52.56000 135.068
52.60000 138.073
52.64000 141.633
52.68000 146.246
52.72000 141.012
52.76000 142.973
52.80000 147.569
52.84000 139.478
52.88000 142.532
52.92000 130.879
52.96000 135.387
53.00000 137.563
53.04000 133.155
53.08000 138.975
53.12000 135.653
53.16000 142.484
53.20000 135.687
53.24000 152.995
53.28000 145.969
53.32000 151.451
53.36000 149.646
53.40000 161.194
53.44000 150.150
53.48000 151.709
53.52000 150.448
53.56000 158.495
53.60000 150.229
53.64000 144.840
53.68000 147.640
53.72000 145.443
53.76000 143.825
53.80000 132.948
53.84000 142.077
53.88000 140.853
53.92000 146.803
53.96000 141.432
54.00000 135.326
54.04000 141.031
54.08000 139.656
54.12000 143.970
54.16000 143.639
54.20000 130.349
54.24000 137.859
54.28000 140.660
54.32000 136.266
54.36000 135.422
54.40000 133.426
54.44000 132.418
54.48000 140.796
54.52000 142.137
54.56000 135.645
54.60000 140.303
54.64000 131.859
54.68000 137.980
54.72000 147.063
54.76000 144.394
54.80000 147.338
54.84000 148.774
54.88000 143.725
54.92000 143.731
54.96000 140.087
55.00000 139.661
55.04000 138.887
55.08000 136.955
55.12000 147.977
55.16000 135.547
55.20000 132.427
55.24000 150.823
55.28000 146.080
55.32000 144.315
55.36000 143.693
55.40000 158.342
55.44000 148.710
55.48000 157.665
55.52000 157.799
55.56000 169.950
55.60000 163.076
55.64000 180.293
55.68000 201.243
55.72000 215.287
55.76000 240.058
55.80000 269.440
55.84000 312.490
55.88000 379.302
55.92000 449.580
55.96000 489.427
56.00000 509.931
56.04000 558.997
56.08000 567.756
56.12000 561.768
56.16000 522.213
56.20000 466.285
56.24000 419.612
56.28000 384.884
56.32000 324.711
56.36000 286.749
56.40000 255.080
56.44000 221.696
56.48000 196.760
56.52000 186.393
56.56000 188.313
56.60000 166.265
56.64000 158.765
56.68000 155.914
56.72000 154.680
56.76000 147.668
56.80000 145.649
56.84000 148.793
56.88000 134.499
56.92000 137.683
56.96000 140.218
57.00000 124.432
57.04000 133.480
57.08000 124.817
57.12000 129.512
57.16000 129.396
57.20000 138.912
57.24000 125.622
57.28000 132.695
57.32000 126.788
57.36000 134.389
57.40000 123.559
57.44000 124.360
57.48000 135.589
57.52000 117.606
57.56000 126.281
57.60000 136.550
57.64000 125.123
57.68000 120.590
57.72000 129.532
57.76000 125.994
57.80000 129.348
57.84000 119.463
57.88000 124.693
57.92000 120.492
57.96000 129.147
58.00000 131.271
58.04000 138.874
58.08000 122.814
58.12000 114.164
58.16000 128.430
58.20000 120.509
58.24000 118.185
58.28000 117.485
58.32000 116.859
58.36000 120.911
58.40000 118.244
58.44000 124.152
58.48000 114.094
58.52000 119.646
58.56000 125.969
58.60000 120.632
58.64000 125.089
58.68000 127.372
58.72000 116.761
58.76000 117.800
58.80000 118.894
58.84000 124.143
58.88000 118.152
58.92000 118.737
58.96000 115.984
59.00000 121.367
59.04000 115.025
59.08000 112.171
59.12000 117.281
59.16000 118.254
59.20000 114.612
59.24000 115.331
59.28000 113.666
59.32000 121.799
59.36000 117.005
59.40000 115.205
59.44000 116.357
59.48000 113.723
59.52000 117.809
59.56000 113.288
59.60000 110.418
59.64000 119.874
59.68000 108.692
59.72000 120.484
59.76000 113.997
59.80000 119.073
59.84000 126.292
59.88000 119.538
59.92000 121.083
59.96000 120.006
60.00000 115.035
60.04000 119.820
60.08000 124.381
60.12000 119.795
60.16000 119.650
60.20000 123.710
60.24000 118.236
60.28000 123.584
60.32000 123.411
60.36000 105.837
60.40000 113.801
60.44000 128.910
60.48000 117.901
60.52000 116.752
60.56000 119.374
60.60000 116.828
60.64000 127.791
60.68000 116.776
60.72000 118.576
60.76000 111.238
60.80000 114.708
60.84000 126.547
60.88000 117.957
60.92000 116.888
60.96000 126.582
61.00000 115.395
61.04000 122.070
61.08000 120.363
61.12000 125.928
61.16000 126.523
61.20000 126.056
61.24000 121.789
61.28000 121.822
61.32000 119.077
61.36000 126.888
61.40000 127.875
61.44000 123.195
61.48000 132.629
61.52000 156.498
61.56000 213.375
61.60000 260.157
61.64000 297.696
61.68000 318.630
61.72000 320.288
61.76000 296.299
61.80000 235.848
61.84000 180.965
61.88000 145.036
61.92000 149.951
61.96000 132.940
62.00000 122.448
62.04000 125.759
62.08000 119.377
62.12000 134.236
62.16000 128.830
62.20000 126.420
62.24000 123.979
62.28000 126.336
62.32000 133.807
62.36000 131.377
62.40000 130.547
62.44000 127.119
62.48000 125.393
62.52000 133.158
62.56000 128.077
62.60000 129.226
62.64000 130.443
62.68000 131.375
62.72000 132.891
62.76000 129.643
62.80000 134.222
62.84000 135.970
62.88000 139.040
62.92000 134.457
62.96000 143.191
63.00000 135.122
63.04000 136.485
63.08000 126.154
63.12000 143.151
63.16000 145.035
63.20000 136.139
63.24000 134.793
63.28000 132.723
63.32000 130.939
63.36000 142.054
63.40000 132.018
63.44000 137.609
63.48000 143.816
63.52000 136.368
63.56000 144.398
63.60000 144.937
63.64000 126.033
63.68000 138.096
63.72000 137.768
63.76000 143.657
63.80000 139.056
63.84000 141.127
63.88000 143.610
63.92000 146.351
63.96000 151.001
64.00000 142.533
64.04000 149.771
64.08000 145.943
64.12000 158.337
64.16000 155.134
64.20000 156.128
64.24000 147.010
64.28000 149.359
64.32000 158.838
64.36000 159.974
64.40000 153.146
64.44000 154.349
64.48000 161.907
64.52000 153.366
64.56000 165.850
64.60000 175.457
64.64000 173.752
64.68000 179.926
64.72000 170.138
64.76000 181.515
64.80000 172.670
64.84000 171.488
64.88000 168.750
64.92000 189.299
64.96000 190.236
65.00000 185.949
65.04000 200.351
65.08000 202.002
65.12000 187.735
65.16000 216.839
65.20000 215.131
65.24000 215.604
65.28000 216.188
65.32000 234.597
65.36000 256.972
65.40000 264.347
65.44000 272.876
65.48000 291.732
65.52000 320.073
65.56000 363.640
65.60000 411.971
65.64000 466.675
65.68000 668.486
65.72000 1001.143
65.76000 1474.209
65.80000 1912.305
65.84000 2135.790
65.88000 2136.517
65.92000 2032.955
65.96000 1728.754
66.00000 1176.281
66.04000 719.188
66.08000 547.474
66.12000 427.852
66.16000 407.984
66.20000 409.002
66.24000 411.369
66.28000 489.186
66.32000 581.339
66.36000 634.392
66.40000 674.411
66.44000 660.077
66.48000 631.135
66.52000 568.491
66.56000 455.706
66.60000 417.812
66.64000 394.116
66.68000 368.042
66.72000 376.785
66.76000 362.726
66.80000 370.387
66.84000 363.106
66.88000 383.508
66.92000 399.068
66.96000 396.620
67.00000 379.834
67.04000 393.078
67.08000 406.670
67.12000 405.638
67.16000 409.967
67.20000 399.822
67.24000 414.614
67.28000 425.523
67.32000 418.229
67.36000 428.373
67.40000 429.347
67.44000 437.487
67.48000 461.755
67.52000 448.729
67.56000 446.217
67.60000 465.851
67.64000 457.908
67.68000 454.326
67.72000 490.672
67.76000 504.919
67.80000 485.239
67.84000 499.344
67.88000 489.178
67.92000 509.069
67.96000 512.282
68.00000 515.245
68.04000 542.763
68.08000 550.459
68.12000 575.854
68.16000 567.804
68.20000 590.821
68.24000 603.373
68.28000 599.578
68.32000 627.017
68.36000 632.488
68.40000 660.750
68.44000 710.581
68.48000 721.559
68.52000 745.039
68.56000 799.744
68.60000 923.885
68.64000 1061.601
68.68000 1210.460
68.72000 1415.372
68.76000 1623.557
68.80000 1886.989
68.84000 2186.770
68.88000 2776.363
68.92000 4401.212
68.96000 10147.543
69.00000 23819.582
69.04000 38590.445
69.08000 46815.211
69.12000 49844.762
69.16000 52952.848
69.20000 52556.188
69.24000 43138.270
69.28000 31926.373
69.32000 26211.758
69.36000 24142.791
69.40000 20484.637
69.44000 12704.963
69.48000 5646.282
69.52000 2680.605
69.56000 1601.636
69.60000 1210.262
69.64000 1034.618
69.68000 896.559
69.72000 804.439
69.76000 766.200
69.80000 705.010
69.84000 639.168
69.88000 599.816
69.92000 532.820
69.96000 543.629
70.00000 501.324