File: XRD/09-10-2025 Dep 8/XY Data/BTO_Mapping_Theta2Theta_09-10-2025_001_25_-20-000_34-641.xy
20.00000 495.139
20.04000 495.036
20.08000 493.451
20.12000 491.908
20.16000 478.121
20.20000 503.767
20.24000 485.863
20.28000 493.954
20.32000 471.948
20.36000 475.637
20.40000 506.424
20.44000 479.797
20.48000 482.928
20.52000 469.412
20.56000 492.963
20.60000 483.131
20.64000 483.845
20.68000 465.165
20.72000 464.019
20.76000 470.181
20.80000 468.566
20.84000 501.618
20.88000 476.585
20.92000 477.824
20.96000 465.736
21.00000 482.328
21.04000 462.367
21.08000 489.435
21.12000 479.771
21.16000 463.619
21.20000 487.282
21.24000 479.816
21.28000 471.792
21.32000 480.778
21.36000 467.523
21.40000 468.919
21.44000 479.295
21.48000 463.637
21.52000 468.065
21.56000 476.947
21.60000 462.025
21.64000 495.414
21.68000 485.897
21.72000 483.584
21.76000 508.131
21.80000 505.314
21.84000 511.597
21.88000 535.751
21.92000 535.579
21.96000 570.947
22.00000 616.203
22.04000 627.327
22.08000 622.383
22.12000 613.200
22.16000 636.676
22.20000 593.167
22.24000 610.955
22.28000 582.379
22.32000 548.062
22.36000 536.272
22.40000 499.846
22.44000 505.500
22.48000 465.222
22.52000 480.860
22.56000 480.557
22.60000 458.447
22.64000 458.589
22.68000 436.791
22.72000 423.813
22.76000 434.054
22.80000 451.509
22.84000 450.493
22.88000 444.783
22.92000 474.260
22.96000 442.018
23.00000 440.845
23.04000 458.452
23.08000 438.307
23.12000 450.127
23.16000 434.830
23.20000 439.852
23.24000 428.384
23.28000 445.426
23.32000 434.414
23.36000 441.166
23.40000 438.803
23.44000 432.166
23.48000 426.268
23.52000 416.333
23.56000 434.779
23.60000 427.799
23.64000 437.946
23.68000 421.087
23.72000 439.805
23.76000 443.913
23.80000 424.237
23.84000 433.238
23.88000 432.692
23.92000 442.998
23.96000 438.118
24.00000 423.384
24.04000 423.499
24.08000 436.780
24.12000 424.695
24.16000 414.607
24.20000 436.896
24.24000 447.032
24.28000 415.687
24.32000 424.529
24.36000 401.140
24.40000 407.582
24.44000 424.724
24.48000 440.577
24.52000 407.471
24.56000 422.772
24.60000 415.409
24.64000 416.007
24.68000 415.218
24.72000 422.893
24.76000 424.351
24.80000 415.106
24.84000 404.213
24.88000 404.749
24.92000 413.242
24.96000 418.578
25.00000 401.180
25.04000 396.772
25.08000 423.508
25.12000 416.580
25.16000 398.971
25.20000 392.656
25.24000 408.536
25.28000 405.484
25.32000 410.297
25.36000 407.822
25.40000 403.441
25.44000 405.834
25.48000 404.209
25.52000 405.446
25.56000 402.801
25.60000 396.708
25.64000 395.272
25.68000 405.894
25.72000 411.544
25.76000 408.846
25.80000 392.592
25.84000 412.953
25.88000 404.181
25.92000 409.863
25.96000 406.024
26.00000 392.742
26.04000 383.563
26.08000 397.628
26.12000 404.859
26.16000 394.707
26.20000 400.556
26.24000 401.396
26.28000 396.253
26.32000 391.945
26.36000 380.977
26.40000 389.800
26.44000 389.366
26.48000 397.647
26.52000 380.010
26.56000 389.339
26.60000 389.901
26.64000 388.359
26.68000 373.361
26.72000 387.828
26.76000 411.714
26.80000 399.378
26.84000 375.327
26.88000 373.506
26.92000 386.233
26.96000 393.987
27.00000 382.656
27.04000 368.427
27.08000 365.673
27.12000 379.238
27.16000 382.679
27.20000 367.987
27.24000 376.384
27.28000 387.502
27.32000 375.307
27.36000 397.216
27.40000 380.087
27.44000 371.676
27.48000 390.694
27.52000 375.911
27.56000 379.212
27.60000 372.685
27.64000 376.603
27.68000 371.022
27.72000 385.918
27.76000 380.012
27.80000 360.286
27.84000 358.280
27.88000 378.645
27.92000 366.598
27.96000 369.682
28.00000 370.090
28.04000 368.267
28.08000 363.652
28.12000 368.944
28.16000 384.768
28.20000 375.197
28.24000 361.771
28.28000 363.084
28.32000 391.055
28.36000 370.151
28.40000 357.504
28.44000 360.753
28.48000 364.540
28.52000 375.977
28.56000 374.663
28.60000 365.316
28.64000 363.873
28.68000 370.336
28.72000 351.727
28.76000 366.611
28.80000 371.113
28.84000 377.333
28.88000 363.449
28.92000 357.646
28.96000 347.144
29.00000 368.666
29.04000 352.641
29.08000 364.588
29.12000 366.919
29.16000 366.001
29.20000 364.558
29.24000 370.146
29.28000 370.018
29.32000 356.467
29.36000 355.863
29.40000 365.778
29.44000 358.453
29.48000 354.766
29.52000 369.565
29.56000 357.554
29.60000 362.319
29.64000 374.066
29.68000 360.163
29.72000 370.959
29.76000 364.307
29.80000 369.607
29.84000 386.593
29.88000 410.247
29.92000 404.431
29.96000 435.059
30.00000 452.061
30.04000 449.127
30.08000 462.855
30.12000 447.654
30.16000 431.916
30.20000 415.138
30.24000 442.197
30.28000 414.107
30.32000 413.906
30.36000 405.423
30.40000 405.043
30.44000 391.004
30.48000 404.562
30.52000 394.612
30.56000 373.323
30.60000 374.837
30.64000 393.149
30.68000 414.428
30.72000 397.652
30.76000 404.478
30.80000 402.096
30.84000 402.322
30.88000 433.381
30.92000 427.025
30.96000 465.765
31.00000 478.424
31.04000 512.477
31.08000 569.247
31.12000 628.119
31.16000 776.247
31.20000 964.339
31.24000 1206.143
31.28000 1635.376
31.32000 2070.919
31.36000 2489.580
31.40000 2744.815
31.44000 2924.051
31.48000 2842.813
31.52000 2663.072
31.56000 2261.516
31.60000 1847.204
31.64000 1430.810
31.68000 1156.240
31.72000 917.488
31.76000 792.039
31.80000 672.103
31.84000 591.058
31.88000 526.913
31.92000 466.257
31.96000 432.218
32.00000 418.510
32.04000 400.680
32.08000 380.240
32.12000 365.989
32.16000 360.643
32.20000 350.508
32.24000 350.366
32.28000 345.674
32.32000 355.659
32.36000 360.267
32.40000 347.052
32.44000 337.947
32.48000 336.922
32.52000 343.012
32.56000 334.574
32.60000 333.167
32.64000 329.181
32.68000 330.580
32.72000 329.183
32.76000 336.543
32.80000 333.918
32.84000 327.222
32.88000 335.706
32.92000 324.737
32.96000 327.975
33.00000 310.123
33.04000 315.700
33.08000 315.550
33.12000 306.880
33.16000 311.433
33.20000 323.655
33.24000 310.634
33.28000 310.510
33.32000 321.259
33.36000 291.133
33.40000 295.669
33.44000 306.880
33.48000 284.421
33.52000 296.863
33.56000 301.937
33.60000 298.520
33.64000 313.317
33.68000 284.621
33.72000 322.366
33.76000 290.476
33.80000 293.959
33.84000 302.344
33.88000 294.579
33.92000 287.155
33.96000 289.211
34.00000 287.532
34.04000 303.485
34.08000 286.029
34.12000 290.060
34.16000 289.498
34.20000 287.664
34.24000 300.599
34.28000 292.889
34.32000 289.200
34.36000 282.602
34.40000 295.932
34.44000 282.100
34.48000 294.609
34.52000 285.910
34.56000 271.503
34.60000 282.475
34.64000 273.385
34.68000 288.908
34.72000 266.195
34.76000 298.311
34.80000 279.345
34.84000 286.588
34.88000 279.680
34.92000 278.850
34.96000 280.937
35.00000 279.112
35.04000 280.011
35.08000 273.299
35.12000 277.891
35.16000 279.979
35.20000 278.297
35.24000 262.343
35.28000 271.779
35.32000 270.660
35.36000 280.277
35.40000 271.828
35.44000 257.927
35.48000 284.413
35.52000 285.004
35.56000 280.039
35.60000 282.658
35.64000 271.195
35.68000 274.815
35.72000 265.280
35.76000 266.162
35.80000 273.313
35.84000 262.882
35.88000 287.237
35.92000 248.058
35.96000 277.425
36.00000 246.341
36.04000 253.758
36.08000 268.393
36.12000 267.993
36.16000 273.184
36.20000 273.594
36.24000 278.931
36.28000 269.645
36.32000 262.106
36.36000 260.933
36.40000 275.245
36.44000 259.476
36.48000 256.029
36.52000 258.208
36.56000 263.874
36.60000 262.291
36.64000 257.250
36.68000 264.965
36.72000 259.103
36.76000 259.590
36.80000 257.537
36.84000 265.132
36.88000 268.095
36.92000 291.232
36.96000 268.987
37.00000 283.576
37.04000 271.131
37.08000 295.008
37.12000 285.189
37.16000 280.610
37.20000 284.870
37.24000 264.850
37.28000 269.365
37.32000 261.467
37.36000 261.294
37.40000 287.063
37.44000 254.453
37.48000 262.964
37.52000 280.608
37.56000 269.126
37.60000 269.800
37.64000 263.826
37.68000 266.348
37.72000 256.730
37.76000 260.703
37.80000 255.699
37.84000 264.524
37.88000 270.608
37.92000 271.277
37.96000 266.792
38.00000 262.917
38.04000 253.963
38.08000 253.852
38.12000 257.494
38.16000 277.509
38.20000 280.833
38.24000 277.673
38.28000 292.350
38.32000 283.702
38.36000 313.732
38.40000 304.876
38.44000 334.506
38.48000 375.534
38.52000 435.453
38.56000 526.665
38.60000 663.374
38.64000 784.880
38.68000 925.435
38.72000 1013.618
38.76000 1059.428
38.80000 1017.272
38.84000 935.874
38.88000 808.894
38.92000 671.282
38.96000 530.887
39.00000 467.380
39.04000 380.540
39.08000 346.848
39.12000 297.955
39.16000 292.230
39.20000 287.579
39.24000 265.304
39.28000 247.298
39.32000 270.345
39.36000 258.312
39.40000 255.494
39.44000 238.241
39.48000 247.720
39.52000 218.942
39.56000 254.930
39.60000 238.733
39.64000 240.165
39.68000 239.656
39.72000 244.606
39.76000 230.265
39.80000 228.401
39.84000 238.475
39.88000 223.172
39.92000 231.195
39.96000 236.480
40.00000 233.476
40.04000 225.797
40.08000 234.347
40.12000 228.266
40.16000 239.340
40.20000 243.775
40.24000 237.872
40.28000 226.637
40.32000 227.884
40.36000 239.753
40.40000 224.445
40.44000 223.291
40.48000 234.338
40.52000 221.005
40.56000 215.228
40.60000 221.573
40.64000 230.274
40.68000 227.087
40.72000 211.683
40.76000 214.657
40.80000 213.352
40.84000 211.184
40.88000 219.019
40.92000 215.104
40.96000 217.809
41.00000 224.336
41.04000 219.427
41.08000 208.761
41.12000 224.022
41.16000 220.963
41.20000 220.537
41.24000 197.897
41.28000 210.115
41.32000 222.579
41.36000 208.013
41.40000 214.008
41.44000 207.855
41.48000 208.268
41.52000 207.538
41.56000 214.070
41.60000 205.473
41.64000 214.828
41.68000 213.127
41.72000 214.674
41.76000 209.025
41.80000 221.979
41.84000 218.446
41.88000 202.217
41.92000 200.459
41.96000 209.334
42.00000 212.026
42.04000 218.003
42.08000 201.652
42.12000 208.657
42.16000 203.584
42.20000 210.523
42.24000 201.675
42.28000 203.676
42.32000 202.703
42.36000 210.451
42.40000 200.238
42.44000 201.432
42.48000 197.461
42.52000 203.554
42.56000 208.295
42.60000 202.453
42.64000 201.815
42.68000 200.035
42.72000 208.833
42.76000 216.228
42.80000 208.149
42.84000 202.261
42.88000 186.196
42.92000 206.652
42.96000 202.316
43.00000 199.789
43.04000 213.011
43.08000 204.741
43.12000 201.931
43.16000 206.030
43.20000 200.079
43.24000 195.028
43.28000 202.333
43.32000 210.809
43.36000 207.975
43.40000 195.643
43.44000 203.376
43.48000 188.008
43.52000 198.603
43.56000 201.547
43.60000 191.757
43.64000 197.955
43.68000 193.891
43.72000 185.911
43.76000 195.178
43.80000 197.940
43.84000 197.121
43.88000 194.224
43.92000 201.901
43.96000 189.245
44.00000 205.996
44.04000 208.270
44.08000 188.382
44.12000 198.818
44.16000 187.329
44.20000 193.193
44.24000 197.035
44.28000 200.909
44.32000 202.074
44.36000 195.460
44.40000 196.464
44.44000 194.612
44.48000 207.409
44.52000 213.978
44.56000 189.505
44.60000 188.908
44.64000 198.163
44.68000 210.899
44.72000 217.275
44.76000 224.032
44.80000 216.725
44.84000 219.015
44.88000 243.521
44.92000 254.916
44.96000 254.924
45.00000 287.789
45.04000 281.066
45.08000 301.594
45.12000 316.826
45.16000 324.138
45.20000 343.405
45.24000 329.798
45.28000 318.384
45.32000 303.771
45.36000 291.580
45.40000 274.758
45.44000 266.014
45.48000 259.900
45.52000 239.534
45.56000 260.074
45.60000 245.930
45.64000 234.005
45.68000 239.132
45.72000 215.243
45.76000 220.072
45.80000 208.334
45.84000 198.487
45.88000 196.452
45.92000 202.468
45.96000 194.247
46.00000 187.949
46.04000 194.944
46.08000 189.635
46.12000 186.253
46.16000 185.389
46.20000 191.870
46.24000 187.059
46.28000 196.684
46.32000 174.960
46.36000 172.622
46.40000 193.681
46.44000 176.398
46.48000 176.327
46.52000 178.562
46.56000 174.787
46.60000 176.859
46.64000 167.472
46.68000 171.047
46.72000 179.308
46.76000 166.894
46.80000 180.236
46.84000 173.475
46.88000 169.732
46.92000 176.670
46.96000 167.063
47.00000 174.909
47.04000 176.524
47.08000 172.075
47.12000 186.363
47.16000 181.519
47.20000 170.714
47.24000 176.171
47.28000 178.112
47.32000 177.220
47.36000 169.416
47.40000 161.244
47.44000 162.024
47.48000 169.781
47.52000 162.028
47.56000 169.493
47.60000 171.084
47.64000 166.527
47.68000 171.978
47.72000 169.042
47.76000 180.299
47.80000 171.609
47.84000 167.513
47.88000 165.906
47.92000 160.725
47.96000 157.716
48.00000 150.551
48.04000 168.668
48.08000 152.297
48.12000 159.431
48.16000 157.098
48.20000 161.213
48.24000 156.935
48.28000 167.207
48.32000 165.729
48.36000 167.891
48.40000 155.438
48.44000 168.079
48.48000 158.968
48.52000 154.657
48.56000 163.472
48.60000 161.113
48.64000 164.263
48.68000 169.044
48.72000 164.499
48.76000 171.476
48.80000 153.316
48.84000 161.409
48.88000 151.738
48.92000 157.674
48.96000 168.005
49.00000 164.846
49.04000 157.897
49.08000 163.717
49.12000 153.220
49.16000 149.761
49.20000 163.537
49.24000 153.080
49.28000 151.254
49.32000 153.704
49.36000 146.549
49.40000 152.272
49.44000 157.406
49.48000 149.454
49.52000 142.821
49.56000 154.963
49.60000 152.831
49.64000 153.186
49.68000 152.386
49.72000 162.553
49.76000 155.500
49.80000 153.508
49.84000 160.638
49.88000 165.494
49.92000 155.187
49.96000 156.096
50.00000 155.044
50.04000 152.918
50.08000 158.251
50.12000 158.705
50.16000 155.107
50.20000 158.387
50.24000 166.364
50.28000 164.223
50.32000 159.105
50.36000 151.078
50.40000 165.779
50.44000 166.067
50.48000 175.068
50.52000 171.910
50.56000 183.019
50.60000 204.640
50.64000 210.313
50.68000 218.804
50.72000 232.508
50.76000 234.080
50.80000 245.292
50.84000 254.599
50.88000 246.474
50.92000 238.190
50.96000 214.217
51.00000 214.437
51.04000 199.657
51.08000 174.974
51.12000 181.114
51.16000 168.973
51.20000 171.770
51.24000 166.080
51.28000 171.281
51.32000 164.501
51.36000 166.358
51.40000 165.467
51.44000 160.593
51.48000 153.473
51.52000 157.942
51.56000 144.465
51.60000 150.309
51.64000 142.924
51.68000 145.753
51.72000 148.987
51.76000 150.667
51.80000 143.678
51.84000 144.692
51.88000 142.522
51.92000 151.655
51.96000 138.762
52.00000 130.639
52.04000 148.901
52.08000 146.473
52.12000 141.285
52.16000 145.413
52.20000 142.450
52.24000 141.053
52.28000 141.384
52.32000 145.178
52.36000 145.389
52.40000 144.586
52.44000 150.528
52.48000 144.836
52.52000 147.771
52.56000 138.492
52.60000 137.528
52.64000 138.562
52.68000 149.029
52.72000 131.593
52.76000 150.764
52.80000 138.815
52.84000 145.271
52.88000 142.735
52.92000 139.505
52.96000 142.346
53.00000 146.517
53.04000 152.408
53.08000 143.040
53.12000 140.222
53.16000 143.528
53.20000 152.688
53.24000 147.007
53.28000 139.685
53.32000 150.231
53.36000 159.827
53.40000 151.883
53.44000 156.651
53.48000 157.627
53.52000 157.664
53.56000 147.153
53.60000 149.722
53.64000 146.822
53.68000 149.423
53.72000 140.546
53.76000 144.905
53.80000 141.093
53.84000 137.410
53.88000 134.877
53.92000 145.026
53.96000 142.017
54.00000 143.238
54.04000 148.597
54.08000 140.988
54.12000 138.204
54.16000 143.931
54.20000 143.954
54.24000 140.929
54.28000 139.712
54.32000 150.692
54.36000 129.742
54.40000 139.998
54.44000 146.501
54.48000 140.876
54.52000 134.199
54.56000 137.546
54.60000 151.241
54.64000 148.026
54.68000 149.129
54.72000 141.126
54.76000 142.422
54.80000 138.171
54.84000 136.854
54.88000 135.397
54.92000 141.451
54.96000 146.359
55.00000 134.774
55.04000 152.753
55.08000 137.510
55.12000 138.252
55.16000 146.339
55.20000 151.627
55.24000 158.139
55.28000 149.217
55.32000 152.892
55.36000 139.971
55.40000 158.111
55.44000 159.625
55.48000 157.378
55.52000 160.158
55.56000 186.395
55.60000 187.702
55.64000 205.511
55.68000 218.677
55.72000 257.146
55.76000 273.615
55.80000 335.553
55.84000 403.129
55.88000 472.653
55.92000 534.680
55.96000 570.230
56.00000 600.704
56.04000 618.891
56.08000 576.598
56.12000 539.315
56.16000 508.126
56.20000 431.100
56.24000 385.531
56.28000 299.291
56.32000 306.224
56.36000 279.089
56.40000 226.742
56.44000 224.134
56.48000 191.221
56.52000 193.594
56.56000 172.198
56.60000 167.416
56.64000 153.104
56.68000 154.729
56.72000 155.960
56.76000 149.131
56.80000 149.308
56.84000 145.235
56.88000 147.022
56.92000 146.452
56.96000 134.427
57.00000 122.965
57.04000 136.113
57.08000 133.827
57.12000 128.853
57.16000 128.045
57.20000 127.767
57.24000 121.734
57.28000 125.788
57.32000 128.606
57.36000 135.776
57.40000 132.815
57.44000 129.514
57.48000 127.268
57.52000 131.487
57.56000 124.004
57.60000 124.503
57.64000 122.741
57.68000 128.917
57.72000 130.330
57.76000 134.349
57.80000 131.169
57.84000 131.941
57.88000 129.183
57.92000 124.005
57.96000 121.736
58.00000 120.541
58.04000 121.376
58.08000 128.628
58.12000 124.729
58.16000 119.618
58.20000 122.745
58.24000 125.467
58.28000 128.009
58.32000 125.434
58.36000 123.402
58.40000 121.380
58.44000 127.079
58.48000 131.760
58.52000 125.070
58.56000 128.805
58.60000 123.121
58.64000 130.887
58.68000 123.177
58.72000 125.068
58.76000 133.517
58.80000 130.264
58.84000 126.770
58.88000 123.658
58.92000 118.605
58.96000 118.971
59.00000 119.513
59.04000 119.844
59.08000 118.522
59.12000 124.120
59.16000 116.436
59.20000 115.442
59.24000 114.936
59.28000 120.402
59.32000 107.945
59.36000 124.557
59.40000 116.209
59.44000 119.802
59.48000 115.329
59.52000 118.448
59.56000 118.123
59.60000 118.319
59.64000 114.646
59.68000 126.063
59.72000 118.767
59.76000 116.817
59.80000 125.408
59.84000 116.762
59.88000 120.092
59.92000 121.474
59.96000 113.035
60.00000 119.069
60.04000 116.263
60.08000 116.823
60.12000 117.987
60.16000 115.304
60.20000 107.080
60.24000 108.323
60.28000 120.090
60.32000 120.192
60.36000 112.732
60.40000 120.328
60.44000 113.172
60.48000 125.011
60.52000 109.114
60.56000 112.171
60.60000 116.102
60.64000 115.865
60.68000 114.878
60.72000 113.292
60.76000 109.453
60.80000 115.796
60.84000 125.193
60.88000 116.624
60.92000 115.258
60.96000 129.214
61.00000 119.489
61.04000 117.086
61.08000 116.902
61.12000 123.931
61.16000 123.083
61.20000 122.241
61.24000 126.372
61.28000 125.950
61.32000 133.307
61.36000 116.165
61.40000 128.795
61.44000 127.431
61.48000 131.978
61.52000 168.832
61.56000 220.539
61.60000 304.144
61.64000 344.719
61.68000 379.289
61.72000 376.087
61.76000 365.569
61.80000 287.487
61.84000 217.023
61.88000 175.499
61.92000 149.144
61.96000 144.938
62.00000 124.780
62.04000 141.493
62.08000 143.823
62.12000 139.211
62.16000 138.851
62.20000 132.590
62.24000 130.072
62.28000 131.628
62.32000 125.541
62.36000 131.702
62.40000 135.882
62.44000 128.446
62.48000 135.473
62.52000 143.137
62.56000 132.982
62.60000 127.155
62.64000 138.254
62.68000 131.866
62.72000 133.052
62.76000 136.362
62.80000 138.731
62.84000 130.780
62.88000 136.759
62.92000 136.677
62.96000 134.064
63.00000 130.756
63.04000 147.561
63.08000 137.518
63.12000 149.824
63.16000 137.868
63.20000 137.442
63.24000 136.918
63.28000 144.967
63.32000 140.899
63.36000 142.750
63.40000 141.778
63.44000 140.908
63.48000 144.609
63.52000 141.483
63.56000 138.053
63.60000 139.183
63.64000 148.423
63.68000 146.098
63.72000 146.307
63.76000 146.715
63.80000 142.652
63.84000 136.060
63.88000 147.605
63.92000 151.203
63.96000 148.144
64.00000 147.486
64.04000 150.315
64.08000 142.643
64.12000 167.614
64.16000 159.813
64.20000 157.305
64.24000 155.202
64.28000 152.934
64.32000 161.456
64.36000 158.413
64.40000 162.242
64.44000 165.134
64.48000 172.924
64.52000 165.678
64.56000 173.095
64.60000 171.140
64.64000 175.866
64.68000 176.587
64.72000 183.347
64.76000 199.566
64.80000 172.296
64.84000 186.603
64.88000 193.881
64.92000 191.242
64.96000 202.509
65.00000 214.013
65.04000 209.288
65.08000 219.225
65.12000 213.362
65.16000 225.151
65.20000 224.021
65.24000 252.289
65.28000 273.622
65.32000 278.082
65.36000 290.912
65.40000 312.429
65.44000 348.509
65.48000 384.579
65.52000 414.354
65.56000 445.620
65.60000 526.567
65.64000 619.905
65.68000 815.702
65.72000 1241.595
65.76000 1934.261
65.80000 2530.938
65.84000 2876.083
65.88000 2921.756
65.92000 2767.326
65.96000 2307.278
66.00000 1599.813
66.04000 978.590
66.08000 683.534
66.12000 566.815
66.16000 507.746
66.20000 481.584
66.24000 503.579
66.28000 564.300
66.32000 685.035
66.36000 802.095
66.40000 849.956
66.44000 828.247
66.48000 809.890
66.52000 732.263
66.56000 608.092
66.60000 474.770
66.64000 448.868
66.68000 420.878
66.72000 436.588
66.76000 430.662
66.80000 423.514
66.84000 427.416
66.88000 418.044
66.92000 432.079
66.96000 430.261
67.00000 445.428
67.04000 461.228
67.08000 480.677
67.12000 448.529
67.16000 458.179
67.20000 472.134
67.24000 471.421
67.28000 483.198
67.32000 472.888
67.36000 480.769
67.40000 486.213
67.44000 500.830
67.48000 504.111
67.52000 515.667
67.56000 517.699
67.60000 496.977
67.64000 517.154
67.68000 547.164
67.72000 542.446
67.76000 566.809
67.80000 561.068
67.84000 567.942
67.88000 577.007
67.92000 571.224
67.96000 580.868
68.00000 590.552
68.04000 608.881
68.08000 637.498
68.12000 627.829
68.16000 631.766
68.20000 632.756
68.24000 648.484
68.28000 692.460
68.32000 712.672
68.36000 734.812
68.40000 752.854
68.44000 782.110
68.48000 814.323
68.52000 880.331
68.56000 910.234
68.60000 1045.389
68.64000 1207.184
68.68000 1492.641
68.72000 1731.591
68.76000 1980.109
68.80000 2306.884
68.84000 2663.779
68.88000 3456.967
68.92000 5566.282
68.96000 12369.686
69.00000 29341.904
69.04000 49397.000
69.08000 62023.156
69.12000 66526.844
69.16000 70412.883
69.20000 70543.008
69.24000 59294.441
69.28000 45952.262
69.32000 35826.355
69.36000 32525.277
69.40000 27861.359
69.44000 17930.141
69.48000 8745.654
69.52000 3821.294
69.56000 2026.868
69.60000 1464.916
69.64000 1205.134
69.68000 1058.080
69.72000 948.944
69.76000 850.138
69.80000 766.194
69.84000 727.232
69.88000 669.514
69.92000 627.131
69.96000 606.025
70.00000 587.655