File: XRD/09-10-2025 Dep 8/XY Data/BTO_Mapping_Theta2Theta_09-10-2025_001_42_-5-000_-8-660.xy
20.00000 503.017
20.04000 487.141
20.08000 493.188
20.12000 487.181
20.16000 497.831
20.20000 490.493
20.24000 480.995
20.28000 489.299
20.32000 492.110
20.36000 500.963
20.40000 475.250
20.44000 498.249
20.48000 480.324
20.52000 520.067
20.56000 493.964
20.60000 483.256
20.64000 475.409
20.68000 486.380
20.72000 482.421
20.76000 479.317
20.80000 488.900
20.84000 484.476
20.88000 487.257
20.92000 474.688
20.96000 484.995
21.00000 488.698
21.04000 476.342
21.08000 486.819
21.12000 482.619
21.16000 468.966
21.20000 482.714
21.24000 500.344
21.28000 489.988
21.32000 483.950
21.36000 481.304
21.40000 487.874
21.44000 484.767
21.48000 493.045
21.52000 497.951
21.56000 476.338
21.60000 473.004
21.64000 488.740
21.68000 508.137
21.72000 509.804
21.76000 517.634
21.80000 537.067
21.84000 549.711
21.88000 567.713
21.92000 596.266
21.96000 612.179
22.00000 669.938
22.04000 691.878
22.08000 667.407
22.12000 681.595
22.16000 663.821
22.20000 649.656
22.24000 601.504
22.28000 576.744
22.32000 557.895
22.36000 529.531
22.40000 529.895
22.44000 490.942
22.48000 491.557
22.52000 484.535
22.56000 464.745
22.60000 461.149
22.64000 469.894
22.68000 472.726
22.72000 452.410
22.76000 450.131
22.80000 439.841
22.84000 469.620
22.88000 456.399
22.92000 445.045
22.96000 448.992
23.00000 448.222
23.04000 447.661
23.08000 442.452
23.12000 439.028
23.16000 430.419
23.20000 439.347
23.24000 434.289
23.28000 451.928
23.32000 462.591
23.36000 424.660
23.40000 423.719
23.44000 432.724
23.48000 438.451
23.52000 422.280
23.56000 421.233
23.60000 436.628
23.64000 411.973
23.68000 430.805
23.72000 441.369
23.76000 443.405
23.80000 420.625
23.84000 424.721
23.88000 432.775
23.92000 430.338
23.96000 423.529
24.00000 429.617
24.04000 401.013
24.08000 425.344
24.12000 427.336
24.16000 432.565
24.20000 411.079
24.24000 427.838
24.28000 420.618
24.32000 410.996
24.36000 441.322
24.40000 422.350
24.44000 416.668
24.48000 442.425
24.52000 419.766
24.56000 430.058
24.60000 438.486
24.64000 420.454
24.68000 405.591
24.72000 410.164
24.76000 411.832
24.80000 406.542
24.84000 410.960
24.88000 407.786
24.92000 411.393
24.96000 408.739
25.00000 415.662
25.04000 416.090
25.08000 423.313
25.12000 413.050
25.16000 398.947
25.20000 397.768
25.24000 413.565
25.28000 428.265
25.32000 415.875
25.36000 390.059
25.40000 397.895
25.44000 397.138
25.48000 393.550
25.52000 407.834
25.56000 404.157
25.60000 403.350
25.64000 397.197
25.68000 402.629
25.72000 404.816
25.76000 409.914
25.80000 399.842
25.84000 397.199
25.88000 404.171
25.92000 393.554
25.96000 391.649
26.00000 391.762
26.04000 419.076
26.08000 388.633
26.12000 391.599
26.16000 419.613
26.20000 399.339
26.24000 401.053
26.28000 387.881
26.32000 402.672
26.36000 410.824
26.40000 410.153
26.44000 404.594
26.48000 394.462
26.52000 402.254
26.56000 372.351
26.60000 397.086
26.64000 385.366
26.68000 390.043
26.72000 393.400
26.76000 384.580
26.80000 379.575
26.84000 391.387
26.88000 385.497
26.92000 378.848
26.96000 379.902
27.00000 370.713
27.04000 378.591
27.08000 400.722
27.12000 370.074
27.16000 384.295
27.20000 390.055
27.24000 378.166
27.28000 385.512
27.32000 363.168
27.36000 384.274
27.40000 403.482
27.44000 390.429
27.48000 386.650
27.52000 385.445
27.56000 385.582
27.60000 389.404
27.64000 381.426
27.68000 392.618
27.72000 372.112
27.76000 377.788
27.80000 364.544
27.84000 388.822
27.88000 376.483
27.92000 377.457
27.96000 368.412
28.00000 370.435
28.04000 374.203
28.08000 373.304
28.12000 388.080
28.16000 386.304
28.20000 380.191
28.24000 369.153
28.28000 364.710
28.32000 370.968
28.36000 372.235
28.40000 379.194
28.44000 358.039
28.48000 380.402
28.52000 370.388
28.56000 366.179
28.60000 366.226
28.64000 354.507
28.68000 361.258
28.72000 366.568
28.76000 371.831
28.80000 375.032
28.84000 386.246
28.88000 353.956
28.92000 362.911
28.96000 358.037
29.00000 358.723
29.04000 355.193
29.08000 369.376
29.12000 360.606
29.16000 355.063
29.20000 368.955
29.24000 356.239
29.28000 341.711
29.32000 350.110
29.36000 369.638
29.40000 381.305
29.44000 355.881
29.48000 368.452
29.52000 369.438
29.56000 362.404
29.60000 362.453
29.64000 352.099
29.68000 375.437
29.72000 386.371
29.76000 381.352
29.80000 397.758
29.84000 407.427
29.88000 412.828
29.92000 422.885
29.96000 459.634
30.00000 470.185
30.04000 476.730
30.08000 466.119
30.12000 458.466
30.16000 470.278
30.20000 431.022
30.24000 438.396
30.28000 428.793
30.32000 410.968
30.36000 405.205
30.40000 421.970
30.44000 396.855
30.48000 401.548
30.52000 413.615
30.56000 398.750
30.60000 402.896
30.64000 416.052
30.68000 432.523
30.72000 419.822
30.76000 408.781
30.80000 441.202
30.84000 440.212
30.88000 472.318
30.92000 457.110
30.96000 518.430
31.00000 556.605
31.04000 631.532
31.08000 740.696
31.12000 891.078
31.16000 1112.916
31.20000 1457.612
31.24000 1774.265
31.28000 2326.638
31.32000 2771.605
31.36000 3008.994
31.40000 3080.893
31.44000 2944.395
31.48000 2635.881
31.52000 2253.403
31.56000 1803.183
31.60000 1418.827
31.64000 1119.080
31.68000 875.217
31.72000 723.795
31.76000 625.160
31.80000 546.556
31.84000 490.960
31.88000 436.168
31.92000 430.769
31.96000 409.845
32.00000 390.046
32.04000 389.496
32.08000 377.054
32.12000 366.414
32.16000 357.734
32.20000 355.875
32.24000 356.947
32.28000 353.499
32.32000 353.395
32.36000 354.702
32.40000 343.141
32.44000 334.668
32.48000 344.401
32.52000 335.628
32.56000 331.153
32.60000 329.392
32.64000 321.489
32.68000 331.957
32.72000 342.383
32.76000 340.854
32.80000 319.717
32.84000 328.067
32.88000 323.236
32.92000 324.637
32.96000 316.230
33.00000 312.154
33.04000 319.303
33.08000 308.012
33.12000 298.960
33.16000 312.785
33.20000 307.398
33.24000 313.565
33.28000 313.280
33.32000 295.218
33.36000 299.552
33.40000 286.435
33.44000 308.691
33.48000 303.856
33.52000 291.521
33.56000 309.168
33.60000 286.087
33.64000 308.549
33.68000 290.781
33.72000 300.424
33.76000 304.646
33.80000 291.108
33.84000 282.588
33.88000 293.584
33.92000 296.812
33.96000 281.074
34.00000 305.778
34.04000 295.457
34.08000 282.536
34.12000 292.152
34.16000 279.123
34.20000 291.437
34.24000 303.508
34.28000 294.742
34.32000 303.440
34.36000 294.811
34.40000 290.923
34.44000 276.638
34.48000 289.644
34.52000 290.686
34.56000 279.550
34.60000 280.116
34.64000 277.078
34.68000 287.272
34.72000 297.397
34.76000 284.456
34.80000 290.799
34.84000 291.457
34.88000 288.204
34.92000 278.278
34.96000 271.080
35.00000 278.488
35.04000 279.653
35.08000 270.309
35.12000 274.878
35.16000 278.096
35.20000 287.590
35.24000 270.761
35.28000 286.745
35.32000 276.057
35.36000 263.964
35.40000 266.506
35.44000 272.649
35.48000 277.112
35.52000 270.539
35.56000 254.284
35.60000 276.414
35.64000 267.735
35.68000 272.941
35.72000 301.083
35.76000 277.602
35.80000 269.095
35.84000 257.846
35.88000 260.583
35.92000 272.079
35.96000 269.374
36.00000 252.879
36.04000 271.411
36.08000 260.725
36.12000 263.630
36.16000 260.038
36.20000 270.146
36.24000 261.919
36.28000 256.468
36.32000 261.000
36.36000 261.822
36.40000 261.563
36.44000 263.657
36.48000 253.454
36.52000 264.979
36.56000 264.004
36.60000 262.361
36.64000 264.561
36.68000 268.070
36.72000 261.498
36.76000 289.754
36.80000 274.388
36.84000 295.681
36.88000 265.913
36.92000 269.564
36.96000 276.314
37.00000 296.474
37.04000 294.430
37.08000 285.636
37.12000 270.945
37.16000 258.822
37.20000 282.901
37.24000 273.638
37.28000 263.719
37.32000 262.777
37.36000 270.544
37.40000 267.568
37.44000 274.718
37.48000 258.928
37.52000 248.286
37.56000 258.286
37.60000 264.283
37.64000 273.668
37.68000 262.444
37.72000 267.872
37.76000 242.054
37.80000 268.796
37.84000 269.505
37.88000 265.964
37.92000 275.436
37.96000 283.269
38.00000 269.975
38.04000 271.032
38.08000 258.195
38.12000 278.063
38.16000 280.401
38.20000 296.841
38.24000 293.677
38.28000 316.538
38.32000 314.132
38.36000 325.838
38.40000 367.755
38.44000 401.954
38.48000 471.571
38.52000 562.935
38.56000 675.788
38.60000 826.354
38.64000 923.765
38.68000 995.231
38.72000 997.341
38.76000 993.277
38.80000 881.951
38.84000 764.781
38.88000 647.460
38.92000 542.003
38.96000 450.942
39.00000 383.597
39.04000 349.305
39.08000 314.698
39.12000 289.007
39.16000 284.926
39.20000 265.705
39.24000 248.489
39.28000 255.657
39.32000 262.587
39.36000 256.348
39.40000 253.324
39.44000 244.089
39.48000 249.799
39.52000 246.581
39.56000 244.283
39.60000 235.799
39.64000 243.439
39.68000 238.463
39.72000 237.087
39.76000 253.294
39.80000 249.726
39.84000 244.771
39.88000 235.834
39.92000 232.712
39.96000 245.528
40.00000 223.844
40.04000 238.330
40.08000 235.355
40.12000 234.691
40.16000 240.835
40.20000 227.524
40.24000 233.523
40.28000 235.720
40.32000 215.474
40.36000 229.152
40.40000 220.039
40.44000 217.396
40.48000 219.967
40.52000 235.112
40.56000 233.368
40.60000 217.618
40.64000 218.823
40.68000 214.685
40.72000 234.588
40.76000 220.302
40.80000 225.894
40.84000 225.744
40.88000 225.463
40.92000 225.705
40.96000 223.401
41.00000 214.544
41.04000 225.752
41.08000 221.442
41.12000 232.762
41.16000 217.390
41.20000 223.351
41.24000 226.495
41.28000 226.765
41.32000 216.112
41.36000 225.218
41.40000 218.028
41.44000 214.434
41.48000 209.359
41.52000 216.804
41.56000 223.000
41.60000 218.976
41.64000 216.226
41.68000 211.083
41.72000 216.144
41.76000 212.183
41.80000 208.357
41.84000 209.414
41.88000 211.192
41.92000 220.993
41.96000 209.239
42.00000 214.265
42.04000 199.076
42.08000 209.598
42.12000 210.503
42.16000 212.210
42.20000 217.006
42.24000 214.413
42.28000 208.025
42.32000 216.908
42.36000 212.390
42.40000 204.595
42.44000 214.184
42.48000 199.143
42.52000 194.530
42.56000 202.314
42.60000 204.844
42.64000 196.850
42.68000 203.932
42.72000 204.568
42.76000 217.827
42.80000 205.231
42.84000 211.161
42.88000 197.114
42.92000 200.229
42.96000 201.375
43.00000 207.275
43.04000 207.568
43.08000 188.285
43.12000 206.180
43.16000 210.045
43.20000 207.259
43.24000 196.407
43.28000 198.569
43.32000 203.397
43.36000 198.929
43.40000 185.009
43.44000 198.632
43.48000 196.949
43.52000 199.014
43.56000 207.432
43.60000 206.143
43.64000 197.603
43.68000 194.204
43.72000 202.142
43.76000 208.769
43.80000 207.259
43.84000 206.683
43.88000 193.526
43.92000 195.290
43.96000 202.981
44.00000 186.202
44.04000 196.494
44.08000 205.713
44.12000 222.153
44.16000 190.859
44.20000 194.255
44.24000 187.682
44.28000 205.602
44.32000 212.513
44.36000 213.559
44.40000 209.936
44.44000 198.214
44.48000 201.798
44.52000 216.935
44.56000 207.333
44.60000 216.889
44.64000 216.564
44.68000 226.341
44.72000 241.809
44.76000 261.241
44.80000 264.521
44.84000 277.909
44.88000 304.588
44.92000 313.376
44.96000 324.997
45.00000 366.600
45.04000 377.963
45.08000 388.595
45.12000 400.730
45.16000 385.912
45.20000 367.547
45.24000 346.691
45.28000 319.108
45.32000 305.518
45.36000 293.452
45.40000 290.904
45.44000 283.154
45.48000 274.246
45.52000 255.117
45.56000 241.019
45.60000 237.860
45.64000 229.009
45.68000 224.751
45.72000 215.430
45.76000 222.146
45.80000 206.014
45.84000 210.332
45.88000 183.341
45.92000 196.977
45.96000 187.176
46.00000 179.110
46.04000 198.954
46.08000 183.888
46.12000 191.515
46.16000 179.266
46.20000 189.530
46.24000 173.154
46.28000 181.399
46.32000 181.970
46.36000 176.499
46.40000 176.736
46.44000 178.165
46.48000 175.395
46.52000 191.242
46.56000 181.294
46.60000 177.508
46.64000 170.715
46.68000 175.345
46.72000 165.176
46.76000 176.595
46.80000 161.493
46.84000 177.852
46.88000 179.360
46.92000 183.334
46.96000 173.988
47.00000 164.743
47.04000 175.232
47.08000 172.527
47.12000 170.690
47.16000 163.103
47.20000 171.348
47.24000 172.169
47.28000 178.041
47.32000 167.491
47.36000 171.268
47.40000 171.934
47.44000 168.949
47.48000 169.893
47.52000 171.979
47.56000 174.862
47.60000 159.968
47.64000 178.561
47.68000 152.330
47.72000 170.263
47.76000 167.385
47.80000 166.878
47.84000 167.528
47.88000 168.155
47.92000 162.320
47.96000 163.143
48.00000 163.025
48.04000 164.916
48.08000 173.494
48.12000 176.164
48.16000 170.310
48.20000 173.101
48.24000 161.202
48.28000 152.829
48.32000 156.864
48.36000 165.901
48.40000 158.087
48.44000 166.010
48.48000 162.033
48.52000 151.780
48.56000 153.316
48.60000 170.848
48.64000 165.160
48.68000 158.202
48.72000 159.707
48.76000 168.100
48.80000 167.721
48.84000 158.406
48.88000 159.419
48.92000 159.310
48.96000 148.410
49.00000 162.713
49.04000 152.284
49.08000 157.383
49.12000 158.865
49.16000 151.443
49.20000 170.342
49.24000 163.496
49.28000 157.166
49.32000 167.322
49.36000 159.857
49.40000 152.690
49.44000 156.791
49.48000 153.742
49.52000 167.196
49.56000 152.545
49.60000 156.560
49.64000 148.731
49.68000 160.929
49.72000 159.119
49.76000 150.435
49.80000 158.919
49.84000 154.386
49.88000 154.908
49.92000 160.327
49.96000 149.726
50.00000 154.650
50.04000 180.054
50.08000 158.474
50.12000 168.443
50.16000 159.213
50.20000 159.604
50.24000 161.396
50.28000 176.981
50.32000 164.050
50.36000 170.990
50.40000 174.695
50.44000 184.837
50.48000 178.715
50.52000 203.260
50.56000 205.913
50.60000 228.092
50.64000 227.392
50.68000 224.106
50.72000 237.331
50.76000 239.923
50.80000 230.320
50.84000 233.172
50.88000 199.667
50.92000 201.225
50.96000 202.138
51.00000 188.060
51.04000 180.952
51.08000 176.353
51.12000 158.252
51.16000 174.224
51.20000 171.034
51.24000 168.025
51.28000 168.595
51.32000 151.532
51.36000 158.286
51.40000 147.202
51.44000 157.574
51.48000 151.302
51.52000 149.141
51.56000 149.209
51.60000 151.166
51.64000 145.851
51.68000 156.183
51.72000 146.526
51.76000 154.158
51.80000 159.837
51.84000 148.237
51.88000 144.720
51.92000 158.941
51.96000 159.384
52.00000 150.061
52.04000 148.262
52.08000 139.132
52.12000 138.187
52.16000 143.973
52.20000 144.997
52.24000 156.797
52.28000 142.052
52.32000 147.962
52.36000 146.937
52.40000 146.155
52.44000 141.663
52.48000 145.828
52.52000 149.251
52.56000 140.668
52.60000 137.937
52.64000 138.572
52.68000 140.644
52.72000 146.921
52.76000 144.343
52.80000 148.605
52.84000 150.431
52.88000 139.480
52.92000 146.041
52.96000 136.976
53.00000 128.955
53.04000 131.899
53.08000 141.447
53.12000 139.474
53.16000 141.746
53.20000 148.426
53.24000 150.418
53.28000 151.858
53.32000 150.488
53.36000 151.505
53.40000 153.674
53.44000 154.377
53.48000 165.251
53.52000 159.117
53.56000 148.415
53.60000 138.694
53.64000 142.240
53.68000 141.048
53.72000 143.495
53.76000 151.679
53.80000 145.117
53.84000 138.389
53.88000 144.802
53.92000 135.622
53.96000 141.660
54.00000 141.016
54.04000 141.404
54.08000 137.151
54.12000 140.962
54.16000 143.479
54.20000 132.345
54.24000 140.001
54.28000 130.851
54.32000 126.981
54.36000 146.601
54.40000 140.922
54.44000 140.218
54.48000 153.218
54.52000 141.921
54.56000 138.772
54.60000 142.714
54.64000 148.159
54.68000 140.355
54.72000 135.275
54.76000 140.415
54.80000 152.769
54.84000 146.854
54.88000 144.014
54.92000 146.146
54.96000 143.112
55.00000 145.645
55.04000 149.702
55.08000 144.805
55.12000 135.967
55.16000 146.352
55.20000 153.390
55.24000 157.316
55.28000 154.506
55.32000 159.255
55.36000 162.255
55.40000 170.339
55.44000 178.880
55.48000 172.351
55.52000 180.464
55.56000 209.066
55.60000 212.311
55.64000 246.498
55.68000 281.802
55.72000 320.291
55.76000 363.396
55.80000 420.803
55.84000 487.337
55.88000 508.655
55.92000 581.666
55.96000 592.502
56.00000 570.963
56.04000 551.711
56.08000 502.691
56.12000 456.482
56.16000 429.038
56.20000 357.391
56.24000 312.971
56.28000 289.942
56.32000 244.181
56.36000 227.522
56.40000 213.175
56.44000 195.753
56.48000 184.753
56.52000 179.634
56.56000 166.563
56.60000 163.538
56.64000 159.691
56.68000 160.739
56.72000 148.524
56.76000 141.850
56.80000 139.267
56.84000 138.136
56.88000 138.539
56.92000 145.962
56.96000 132.404
57.00000 129.096
57.04000 133.370
57.08000 131.831
57.12000 134.521
57.16000 135.758
57.20000 138.310
57.24000 140.788
57.28000 131.440
57.32000 128.367
57.36000 119.501
57.40000 135.622
57.44000 123.320
57.48000 133.068
57.52000 137.549
57.56000 135.697
57.60000 128.246
57.64000 128.808
57.68000 124.371
57.72000 122.991
57.76000 128.526
57.80000 127.974
57.84000 125.453
57.88000 127.530
57.92000 130.855
57.96000 132.175
58.00000 121.998
58.04000 118.267
58.08000 123.471
58.12000 116.827
58.16000 119.097
58.20000 130.864
58.24000 126.066
58.28000 120.360
58.32000 127.097
58.36000 135.227
58.40000 128.462
58.44000 135.468
58.48000 124.144
58.52000 120.575
58.56000 128.613
58.60000 129.489
58.64000 129.147
58.68000 126.952
58.72000 126.918
58.76000 122.505
58.80000 120.530
58.84000 120.383
58.88000 116.438
58.92000 128.630
58.96000 122.667
59.00000 125.450
59.04000 127.339
59.08000 130.099
59.12000 130.097
59.16000 117.242
59.20000 113.936
59.24000 125.377
59.28000 116.635
59.32000 122.028
59.36000 115.139
59.40000 127.320
59.44000 116.319
59.48000 111.527
59.52000 111.098
59.56000 113.469
59.60000 127.372
59.64000 116.575
59.68000 116.113
59.72000 107.043
59.76000 119.008
59.80000 115.052
59.84000 115.942
59.88000 117.627
59.92000 121.469
59.96000 116.637
60.00000 113.704
60.04000 121.919
60.08000 113.327
60.12000 120.819
60.16000 117.955
60.20000 116.233
60.24000 113.806
60.28000 117.562
60.32000 124.839
60.36000 119.765
60.40000 118.582
60.44000 131.997
60.48000 119.900
60.52000 119.657
60.56000 111.353
60.60000 121.005
60.64000 121.779
60.68000 113.127
60.72000 120.959
60.76000 111.881
60.80000 115.897
60.84000 125.526
60.88000 115.121
60.92000 137.639
60.96000 122.792
61.00000 121.159
61.04000 127.033
61.08000 118.776
61.12000 127.341
61.16000 122.044
61.20000 127.766
61.24000 126.693
61.28000 121.101
61.32000 126.922
61.36000 132.378
61.40000 130.026
61.44000 128.043
61.48000 151.893
61.52000 194.286
61.56000 261.470
61.60000 340.366
61.64000 393.701
61.68000 414.403
61.72000 406.364
61.76000 351.747
61.80000 276.399
61.84000 201.626
61.88000 169.379
61.92000 149.752
61.96000 145.004
62.00000 144.080
62.04000 135.231
62.08000 129.871
62.12000 139.468
62.16000 139.368
62.20000 142.477
62.24000 143.877
62.28000 135.950
62.32000 136.206
62.36000 129.037
62.40000 133.539
62.44000 144.497
62.48000 134.342
62.52000 148.685
62.56000 148.700
62.60000 129.420
62.64000 144.770
62.68000 137.039
62.72000 130.806
62.76000 129.977
62.80000 140.403
62.84000 136.309
62.88000 134.932
62.92000 139.077
62.96000 135.669
63.00000 152.015
63.04000 137.289
63.08000 142.699
63.12000 141.782
63.16000 138.555
63.20000 142.289
63.24000 143.117
63.28000 145.496
63.32000 145.997
63.36000 145.647
63.40000 146.330
63.44000 155.173
63.48000 145.124
63.52000 161.795
63.56000 139.123
63.60000 158.140
63.64000 149.563
63.68000 149.652
63.72000 144.669
63.76000 157.854
63.80000 140.996
63.84000 146.237
63.88000 149.479
63.92000 148.638
63.96000 162.122
64.00000 148.344
64.04000 149.898
64.08000 157.403
64.12000 146.463
64.16000 151.711
64.20000 156.953
64.24000 162.088
64.28000 162.503
64.32000 168.552
64.36000 166.644
64.40000 170.334
64.44000 166.895
64.48000 171.722
64.52000 167.616
64.56000 174.941
64.60000 169.519
64.64000 174.318
64.68000 175.200
64.72000 193.159
64.76000 185.761
64.80000 193.049
64.84000 192.920
64.88000 196.180
64.92000 201.824
64.96000 210.105
65.00000 205.327
65.04000 218.266
65.08000 223.278
65.12000 233.833
65.16000 259.957
65.20000 262.869
65.24000 263.825
65.28000 282.182
65.32000 321.459
65.36000 350.701
65.40000 361.197
65.44000 395.601
65.48000 430.009
65.52000 464.740
65.56000 538.321
65.60000 595.459
65.64000 674.715
65.68000 998.677
65.72000 1566.776
65.76000 2263.699
65.80000 2761.471
65.84000 3042.804
65.88000 3054.232
65.92000 2825.976
65.96000 2188.417
66.00000 1471.652
66.04000 916.318
66.08000 655.303
66.12000 537.214
66.16000 468.283
66.20000 483.541
66.24000 516.508
66.28000 638.981
66.32000 784.813
66.36000 881.197
66.40000 877.918
66.44000 854.214
66.48000 813.831
66.52000 721.765
66.56000 572.839
66.60000 508.629
66.64000 456.017
66.68000 434.302
66.72000 436.448
66.76000 442.910
66.80000 440.095
66.84000 439.006
66.88000 444.075
66.92000 452.925
66.96000 455.168
67.00000 458.751
67.04000 474.069
67.08000 476.683
67.12000 467.772
67.16000 472.388
67.20000 456.631
67.24000 497.281
67.28000 481.960
67.32000 492.468
67.36000 516.971
67.40000 525.858
67.44000 502.219
67.48000 520.834
67.52000 543.199
67.56000 534.143
67.60000 552.957
67.64000 527.690
67.68000 527.677
67.72000 552.850
67.76000 564.324
67.80000 586.018
67.84000 568.139
67.88000 605.943
67.92000 600.569
67.96000 600.943
68.00000 622.509
68.04000 637.729
68.08000 650.751
68.12000 645.823
68.16000 654.801
68.20000 678.181
68.24000 676.683
68.28000 719.296
68.32000 754.441
68.36000 734.368
68.40000 786.588
68.44000 813.904
68.48000 869.492
68.52000 935.981
68.56000 1005.283
68.60000 1135.809
68.64000 1384.479
68.68000 1618.708
68.72000 1894.437
68.76000 2206.329
68.80000 2528.840
68.84000 2989.266
68.88000 4022.165
68.92000 7376.869
68.96000 17929.420
69.00000 38542.387
69.04000 58603.453
69.08000 69057.359
69.12000 73311.711
69.16000 77702.875
69.20000 74388.141
69.24000 58909.703
69.28000 44725.559
69.32000 36940.637
69.36000 34076.102
69.40000 27369.363
69.44000 15840.772
69.48000 6955.122
69.52000 3150.993
69.56000 1893.540
69.60000 1441.071
69.64000 1229.198
69.68000 1074.081
69.72000 948.476
69.76000 852.855
69.80000 803.435
69.84000 737.558
69.88000 695.443
69.92000 641.684
69.96000 619.503
70.00000 580.657