File: XRD/09-10-2025 Dep 8/XY Data/BTO_Mapping_Theta2Theta_09-10-2025_001_27_-16-180_11-756.xy
20.00000 486.066
20.04000 475.113
20.08000 484.936
20.12000 479.641
20.16000 460.358
20.20000 462.860
20.24000 485.123
20.28000 481.922
20.32000 484.106
20.36000 474.733
20.40000 494.890
20.44000 476.656
20.48000 471.141
20.52000 481.559
20.56000 495.029
20.60000 481.461
20.64000 493.793
20.68000 475.450
20.72000 493.726
20.76000 482.975
20.80000 471.678
20.84000 487.932
20.88000 480.420
20.92000 495.475
20.96000 494.572
21.00000 502.620
21.04000 491.101
21.08000 490.553
21.12000 462.026
21.16000 481.014
21.20000 483.846
21.24000 468.469
21.28000 474.246
21.32000 478.941
21.36000 499.547
21.40000 480.085
21.44000 469.146
21.48000 476.267
21.52000 482.664
21.56000 498.399
21.60000 491.355
21.64000 484.646
21.68000 485.754
21.72000 495.635
21.76000 506.890
21.80000 537.941
21.84000 571.801
21.88000 576.314
21.92000 620.803
21.96000 635.316
22.00000 630.895
22.04000 678.365
22.08000 699.120
22.12000 669.849
22.16000 666.124
22.20000 600.540
22.24000 590.760
22.28000 563.670
22.32000 560.184
22.36000 524.619
22.40000 509.917
22.44000 499.356
22.48000 488.895
22.52000 474.909
22.56000 465.947
22.60000 477.194
22.64000 471.389
22.68000 452.739
22.72000 443.147
22.76000 459.173
22.80000 441.828
22.84000 452.424
22.88000 452.476
22.92000 447.417
22.96000 439.818
23.00000 435.328
23.04000 433.106
23.08000 447.536
23.12000 434.023
23.16000 434.766
23.20000 437.075
23.24000 435.411
23.28000 433.105
23.32000 441.386
23.36000 446.306
23.40000 438.485
23.44000 437.847
23.48000 429.523
23.52000 428.286
23.56000 433.620
23.60000 445.244
23.64000 444.130
23.68000 427.318
23.72000 424.465
23.76000 417.535
23.80000 428.651
23.84000 427.681
23.88000 429.501
23.92000 414.908
23.96000 430.344
24.00000 423.105
24.04000 445.666
24.08000 419.967
24.12000 439.844
24.16000 427.436
24.20000 433.666
24.24000 428.326
24.28000 416.486
24.32000 434.776
24.36000 439.517
24.40000 428.824
24.44000 425.244
24.48000 416.858
24.52000 416.842
24.56000 403.487
24.60000 434.256
24.64000 428.230
24.68000 389.794
24.72000 415.056
24.76000 426.438
24.80000 415.399
24.84000 410.731
24.88000 406.400
24.92000 410.820
24.96000 406.339
25.00000 404.478
25.04000 402.805
25.08000 399.837
25.12000 426.021
25.16000 401.558
25.20000 416.099
25.24000 415.520
25.28000 395.682
25.32000 400.615
25.36000 399.772
25.40000 390.334
25.44000 397.260
25.48000 409.940
25.52000 402.052
25.56000 410.538
25.60000 404.876
25.64000 401.718
25.68000 410.574
25.72000 405.840
25.76000 395.676
25.80000 389.456
25.84000 391.924
25.88000 409.780
25.92000 406.517
25.96000 399.910
26.00000 401.673
26.04000 389.749
26.08000 398.181
26.12000 403.310
26.16000 386.537
26.20000 398.832
26.24000 389.906
26.28000 396.489
26.32000 407.488
26.36000 398.664
26.40000 401.836
26.44000 403.360
26.48000 389.983
26.52000 376.700
26.56000 397.030
26.60000 396.343
26.64000 385.937
26.68000 400.003
26.72000 399.923
26.76000 406.142
26.80000 378.882
26.84000 368.127
26.88000 393.281
26.92000 379.716
26.96000 398.185
27.00000 397.012
27.04000 395.106
27.08000 395.137
27.12000 367.644
27.16000 390.737
27.20000 391.355
27.24000 384.786
27.28000 388.733
27.32000 380.474
27.36000 396.147
27.40000 382.110
27.44000 363.726
27.48000 380.077
27.52000 366.601
27.56000 377.780
27.60000 386.193
27.64000 377.377
27.68000 383.497
27.72000 373.452
27.76000 382.983
27.80000 371.660
27.84000 371.732
27.88000 366.246
27.92000 380.221
27.96000 369.052
28.00000 357.719
28.04000 385.674
28.08000 393.055
28.12000 352.424
28.16000 378.228
28.20000 398.419
28.24000 384.386
28.28000 378.469
28.32000 373.402
28.36000 387.859
28.40000 376.877
28.44000 396.158
28.48000 390.067
28.52000 369.229
28.56000 375.483
28.60000 379.867
28.64000 351.054
28.68000 368.044
28.72000 342.740
28.76000 358.621
28.80000 364.291
28.84000 366.051
28.88000 357.191
28.92000 348.672
28.96000 362.906
29.00000 370.385
29.04000 348.997
29.08000 353.417
29.12000 358.331
29.16000 369.791
29.20000 370.844
29.24000 352.967
29.28000 363.702
29.32000 363.259
29.36000 365.347
29.40000 373.808
29.44000 348.993
29.48000 356.451
29.52000 368.282
29.56000 364.709
29.60000 351.930
29.64000 368.160
29.68000 346.626
29.72000 381.742
29.76000 387.490
29.80000 389.485
29.84000 401.578
29.88000 414.314
29.92000 421.617
29.96000 426.851
30.00000 450.303
30.04000 461.998
30.08000 448.449
30.12000 445.644
30.16000 437.099
30.20000 436.020
30.24000 409.530
30.28000 400.651
30.32000 402.849
30.36000 411.530
30.40000 425.171
30.44000 397.767
30.48000 392.896
30.52000 383.904
30.56000 399.596
30.60000 390.055
30.64000 408.846
30.68000 404.143
30.72000 401.214
30.76000 424.446
30.80000 428.659
30.84000 435.069
30.88000 450.826
30.92000 451.249
30.96000 505.300
31.00000 540.642
31.04000 588.979
31.08000 682.223
31.12000 813.448
31.16000 1057.400
31.20000 1350.357
31.24000 1670.422
31.28000 2142.593
31.32000 2564.202
31.36000 2844.014
31.40000 2955.768
31.44000 2944.622
31.48000 2609.100
31.52000 2192.161
31.56000 1789.173
31.60000 1430.717
31.64000 1163.922
31.68000 881.752
31.72000 751.320
31.76000 617.505
31.80000 568.261
31.84000 491.610
31.88000 457.795
31.92000 433.414
31.96000 416.521
32.00000 390.770
32.04000 383.027
32.08000 379.483
32.12000 366.722
32.16000 361.687
32.20000 353.242
32.24000 348.030
32.28000 352.421
32.32000 355.683
32.36000 335.307
32.40000 351.426
32.44000 350.250
32.48000 355.820
32.52000 338.441
32.56000 342.933
32.60000 336.894
32.64000 339.283
32.68000 335.178
32.72000 324.952
32.76000 319.094
32.80000 322.870
32.84000 327.584
32.88000 328.545
32.92000 316.694
32.96000 312.767
33.00000 324.886
33.04000 332.468
33.08000 327.225
33.12000 328.029
33.16000 305.746
33.20000 290.221
33.24000 303.084
33.28000 307.115
33.32000 306.299
33.36000 295.279
33.40000 297.147
33.44000 299.925
33.48000 296.340
33.52000 301.599
33.56000 299.777
33.60000 297.176
33.64000 301.884
33.68000 293.427
33.72000 299.202
33.76000 304.976
33.80000 279.274
33.84000 291.268
33.88000 291.260
33.92000 287.153
33.96000 307.206
34.00000 303.380
34.04000 303.767
34.08000 295.417
34.12000 289.061
34.16000 286.091
34.20000 287.053
34.24000 289.057
34.28000 290.863
34.32000 290.842
34.36000 278.448
34.40000 294.040
34.44000 292.848
34.48000 270.671
34.52000 273.779
34.56000 286.983
34.60000 282.859
34.64000 279.869
34.68000 278.430
34.72000 277.579
34.76000 270.323
34.80000 282.535
34.84000 277.802
34.88000 281.419
34.92000 277.575
34.96000 263.986
35.00000 285.337
35.04000 274.891
35.08000 269.664
35.12000 287.564
35.16000 279.292
35.20000 284.291
35.24000 269.820
35.28000 276.487
35.32000 269.052
35.36000 277.036
35.40000 274.860
35.44000 281.080
35.48000 289.759
35.52000 277.009
35.56000 274.619
35.60000 257.823
35.64000 262.404
35.68000 256.771
35.72000 265.956
35.76000 262.979
35.80000 272.676
35.84000 265.225
35.88000 273.186
35.92000 266.602
35.96000 263.376
36.00000 258.611
36.04000 269.606
36.08000 274.002
36.12000 263.545
36.16000 273.212
36.20000 264.541
36.24000 264.009
36.28000 265.282
36.32000 254.273
36.36000 247.997
36.40000 262.327
36.44000 265.172
36.48000 260.734
36.52000 259.038
36.56000 254.005
36.60000 265.188
36.64000 269.794
36.68000 267.592
36.72000 273.622
36.76000 275.842
36.80000 279.197
36.84000 260.243
36.88000 284.334
36.92000 270.653
36.96000 274.372
37.00000 287.137
37.04000 296.893
37.08000 291.381
37.12000 287.557
37.16000 279.746
37.20000 269.007
37.24000 262.228
37.28000 268.007
37.32000 273.311
37.36000 279.961
37.40000 269.430
37.44000 268.505
37.48000 270.021
37.52000 260.760
37.56000 271.122
37.60000 253.796
37.64000 269.036
37.68000 270.996
37.72000 260.459
37.76000 253.622
37.80000 266.152
37.84000 264.128
37.88000 266.906
37.92000 262.796
37.96000 258.689
38.00000 263.648
38.04000 265.300
38.08000 281.609
38.12000 270.914
38.16000 282.318
38.20000 291.632
38.24000 286.051
38.28000 304.547
38.32000 336.580
38.36000 328.960
38.40000 362.804
38.44000 407.783
38.48000 447.110
38.52000 535.349
38.56000 650.580
38.60000 776.724
38.64000 867.556
38.68000 940.855
38.72000 996.663
38.76000 943.456
38.80000 857.400
38.84000 743.951
38.88000 613.557
38.92000 514.163
38.96000 438.494
39.00000 366.175
39.04000 320.492
39.08000 308.440
39.12000 300.844
39.16000 276.268
39.20000 272.795
39.24000 271.418
39.28000 262.098
39.32000 258.058
39.36000 265.497
39.40000 247.692
39.44000 261.810
39.48000 235.184
39.52000 259.721
39.56000 241.938
39.60000 246.398
39.64000 245.578
39.68000 246.578
39.72000 244.200
39.76000 223.198
39.80000 238.542
39.84000 238.338
39.88000 237.126
39.92000 238.718
39.96000 238.084
40.00000 235.651
40.04000 245.813
40.08000 229.305
40.12000 228.484
40.16000 220.454
40.20000 225.899
40.24000 227.262
40.28000 209.358
40.32000 226.196
40.36000 245.144
40.40000 234.998
40.44000 232.397
40.48000 223.526
40.52000 227.046
40.56000 220.780
40.60000 204.794
40.64000 225.853
40.68000 219.127
40.72000 222.227
40.76000 221.632
40.80000 210.690
40.84000 226.450
40.88000 221.927
40.92000 224.558
40.96000 227.550
41.00000 225.775
41.04000 220.823
41.08000 219.851
41.12000 219.812
41.16000 210.118
41.20000 215.275
41.24000 218.428
41.28000 214.887
41.32000 217.631
41.36000 219.768
41.40000 211.282
41.44000 218.207
41.48000 216.620
41.52000 208.303
41.56000 218.772
41.60000 202.706
41.64000 213.036
41.68000 213.979
41.72000 202.463
41.76000 227.055
41.80000 225.954
41.84000 200.873
41.88000 215.012
41.92000 205.007
41.96000 206.878
42.00000 205.713
42.04000 193.770
42.08000 214.449
42.12000 205.519
42.16000 206.602
42.20000 205.310
42.24000 208.885
42.28000 202.691
42.32000 207.672
42.36000 200.449
42.40000 207.413
42.44000 192.040
42.48000 205.562
42.52000 197.033
42.56000 204.675
42.60000 208.089
42.64000 196.266
42.68000 205.783
42.72000 209.910
42.76000 207.069
42.80000 218.014
42.84000 197.038
42.88000 207.001
42.92000 207.980
42.96000 201.870
43.00000 222.245
43.04000 204.400
43.08000 206.377
43.12000 203.916
43.16000 201.677
43.20000 212.144
43.24000 197.677
43.28000 231.555
43.32000 195.686
43.36000 205.296
43.40000 203.925
43.44000 198.719
43.48000 202.400
43.52000 200.040
43.56000 197.020
43.60000 195.401
43.64000 196.952
43.68000 212.177
43.72000 197.913
43.76000 202.264
43.80000 191.129
43.84000 200.865
43.88000 190.670
43.92000 197.869
43.96000 187.865
44.00000 202.221
44.04000 195.611
44.08000 188.290
44.12000 212.512
44.16000 206.561
44.20000 212.926
44.24000 202.674
44.28000 200.691
44.32000 208.515
44.36000 211.465
44.40000 206.368
44.44000 192.629
44.48000 209.616
44.52000 217.414
44.56000 211.834
44.60000 221.619
44.64000 229.240
44.68000 244.584
44.72000 239.468
44.76000 245.128
44.80000 260.123
44.84000 273.161
44.88000 296.131
44.92000 320.078
44.96000 346.092
45.00000 365.037
45.04000 360.594
45.08000 380.253
45.12000 372.268
45.16000 392.830
45.20000 359.367
45.24000 334.675
45.28000 332.592
45.32000 298.943
45.36000 296.716
45.40000 273.154
45.44000 277.556
45.48000 256.562
45.52000 242.550
45.56000 229.833
45.60000 232.337
45.64000 222.015
45.68000 220.743
45.72000 215.630
45.76000 211.999
45.80000 197.264
45.84000 212.858
45.88000 196.074
45.92000 184.026
45.96000 199.106
46.00000 190.542
46.04000 190.831
46.08000 187.706
46.12000 188.889
46.16000 180.070
46.20000 182.289
46.24000 188.684
46.28000 173.395
46.32000 179.890
46.36000 175.157
46.40000 170.340
46.44000 170.643
46.48000 173.740
46.52000 180.326
46.56000 177.163
46.60000 174.952
46.64000 171.656
46.68000 178.159
46.72000 174.638
46.76000 172.689
46.80000 170.556
46.84000 178.653
46.88000 159.298
46.92000 162.490
46.96000 169.329
47.00000 171.125
47.04000 161.047
47.08000 171.124
47.12000 191.377
47.16000 166.573
47.20000 163.634
47.24000 168.839
47.28000 178.919
47.32000 174.583
47.36000 165.326
47.40000 160.446
47.44000 168.954
47.48000 171.921
47.52000 180.868
47.56000 167.685
47.60000 167.047
47.64000 161.685
47.68000 157.505
47.72000 171.578
47.76000 161.421
47.80000 160.548
47.84000 156.745
47.88000 175.748
47.92000 163.975
47.96000 161.690
48.00000 167.486
48.04000 158.696
48.08000 153.365
48.12000 152.295
48.16000 163.520
48.20000 164.058
48.24000 175.999
48.28000 164.905
48.32000 161.577
48.36000 172.059
48.40000 164.424
48.44000 165.595
48.48000 164.968
48.52000 156.262
48.56000 158.232
48.60000 161.667
48.64000 160.461
48.68000 168.901
48.72000 165.888
48.76000 158.229
48.80000 169.211
48.84000 154.955
48.88000 168.535
48.92000 154.828
48.96000 159.733
49.00000 155.125
49.04000 157.854
49.08000 164.304
49.12000 152.508
49.16000 161.943
49.20000 155.716
49.24000 153.728
49.28000 151.990
49.32000 151.631
49.36000 154.008
49.40000 164.497
49.44000 161.537
49.48000 160.252
49.52000 167.862
49.56000 157.912
49.60000 158.392
49.64000 156.341
49.68000 160.152
49.72000 152.838
49.76000 160.785
49.80000 144.321
49.84000 149.497
49.88000 154.690
49.92000 144.027
49.96000 167.944
50.00000 166.218
50.04000 154.614
50.08000 173.287
50.12000 170.816
50.16000 159.067
50.20000 159.863
50.24000 155.872
50.28000 158.369
50.32000 174.182
50.36000 168.584
50.40000 169.551
50.44000 174.936
50.48000 194.397
50.52000 197.875
50.56000 198.531
50.60000 222.327
50.64000 243.013
50.68000 229.911
50.72000 244.214
50.76000 238.397
50.80000 242.939
50.84000 230.427
50.88000 212.469
50.92000 208.186
50.96000 196.718
51.00000 189.540
51.04000 185.321
51.08000 180.303
51.12000 174.023
51.16000 174.347
51.20000 158.139
51.24000 158.621
51.28000 153.401
51.32000 156.511
51.36000 152.393
51.40000 148.819
51.44000 144.766
51.48000 162.131
51.52000 146.597
51.56000 157.026
51.60000 154.285
51.64000 145.465
51.68000 147.318
51.72000 146.627
51.76000 149.050
51.80000 149.262
51.84000 142.130
51.88000 146.225
51.92000 145.258
51.96000 136.929
52.00000 146.425
52.04000 147.210
52.08000 146.688
52.12000 139.133
52.16000 142.655
52.20000 145.679
52.24000 145.097
52.28000 147.730
52.32000 144.279
52.36000 146.228
52.40000 150.198
52.44000 135.327
52.48000 138.893
52.52000 138.593
52.56000 132.922
52.60000 131.161
52.64000 126.523
52.68000 137.197
52.72000 133.455
52.76000 140.237
52.80000 137.666
52.84000 152.249
52.88000 144.700
52.92000 142.735
52.96000 134.869
53.00000 147.140
53.04000 142.548
53.08000 142.220
53.12000 143.151
53.16000 153.131
53.20000 152.659
53.24000 152.616
53.28000 159.301
53.32000 150.976
53.36000 156.471
53.40000 154.200
53.44000 152.864
53.48000 152.166
53.52000 146.237
53.56000 135.882
53.60000 151.987
53.64000 157.798
53.68000 142.754
53.72000 148.668
53.76000 143.119
53.80000 146.872
53.84000 153.055
53.88000 142.153
53.92000 132.516
53.96000 132.050
54.00000 151.177
54.04000 141.226
54.08000 145.866
54.12000 149.569
54.16000 147.295
54.20000 137.610
54.24000 148.845
54.28000 138.502
54.32000 150.069
54.36000 135.041
54.40000 139.463
54.44000 146.066
54.48000 138.889
54.52000 141.001
54.56000 147.492
54.60000 145.708
54.64000 141.963
54.68000 145.827
54.72000 140.326
54.76000 143.229
54.80000 137.401
54.84000 141.613
54.88000 142.817
54.92000 139.675
54.96000 134.838
55.00000 140.263
55.04000 146.427
55.08000 147.326
55.12000 151.396
55.16000 146.662
55.20000 142.397
55.24000 139.882
55.28000 142.029
55.32000 162.315
55.36000 162.835
55.40000 175.807
55.44000 179.627
55.48000 190.733
55.52000 193.778
55.56000 209.899
55.60000 231.282
55.64000 245.506
55.68000 286.314
55.72000 331.444
55.76000 388.586
55.80000 424.320
55.84000 488.163
55.88000 545.985
55.92000 574.511
55.96000 614.214
56.00000 591.804
56.04000 562.960
56.08000 521.495
56.12000 480.003
56.16000 432.022
56.20000 361.881
56.24000 318.535
56.28000 285.219
56.32000 259.936
56.36000 222.798
56.40000 202.212
56.44000 188.567
56.48000 190.773
56.52000 174.374
56.56000 171.849
56.60000 167.237
56.64000 160.189
56.68000 157.975
56.72000 148.267
56.76000 147.380
56.80000 154.346
56.84000 150.477
56.88000 138.849
56.92000 137.373
56.96000 138.471
57.00000 141.786
57.04000 136.087
57.08000 142.707
57.12000 129.335
57.16000 127.914
57.20000 141.753
57.24000 134.116
57.28000 140.704
57.32000 144.273
57.36000 138.351
57.40000 136.896
57.44000 118.339
57.48000 126.984
57.52000 126.530
57.56000 118.800
57.60000 122.844
57.64000 134.061
57.68000 125.478
57.72000 124.222
57.76000 117.144
57.80000 130.518
57.84000 119.781
57.88000 129.586
57.92000 132.395
57.96000 128.147
58.00000 129.302
58.04000 122.104
58.08000 117.503
58.12000 129.724
58.16000 133.692
58.20000 133.488
58.24000 116.716
58.28000 127.138
58.32000 125.524
58.36000 116.236
58.40000 124.735
58.44000 128.547
58.48000 129.238
58.52000 121.760
58.56000 128.430
58.60000 123.166
58.64000 127.992
58.68000 127.425
58.72000 121.306
58.76000 119.163
58.80000 120.834
58.84000 126.829
58.88000 114.539
58.92000 124.185
58.96000 121.732
59.00000 112.507
59.04000 123.065
59.08000 123.098
59.12000 121.990
59.16000 111.076
59.20000 121.249
59.24000 114.978
59.28000 130.642
59.32000 119.057
59.36000 120.327
59.40000 111.518
59.44000 117.405
59.48000 123.857
59.52000 128.922
59.56000 122.150
59.60000 117.778
59.64000 120.883
59.68000 118.988
59.72000 118.557
59.76000 124.016
59.80000 115.073
59.84000 121.394
59.88000 113.752
59.92000 131.690
59.96000 124.101
60.00000 121.377
60.04000 121.026
60.08000 120.637
60.12000 132.011
60.16000 121.129
60.20000 123.657
60.24000 114.653
60.28000 121.422
60.32000 114.161
60.36000 118.509
60.40000 126.717
60.44000 110.391
60.48000 115.827
60.52000 118.236
60.56000 119.210
60.60000 116.441
60.64000 116.679
60.68000 112.875
60.72000 116.206
60.76000 104.028
60.80000 116.718
60.84000 110.262
60.88000 119.232
60.92000 121.192
60.96000 122.934
61.00000 115.863
61.04000 113.258
61.08000 117.727
61.12000 123.152
61.16000 129.257
61.20000 130.380
61.24000 121.959
61.28000 130.354
61.32000 136.485
61.36000 121.414
61.40000 133.984
61.44000 141.342
61.48000 153.448
61.52000 188.378
61.56000 279.920
61.60000 352.816
61.64000 407.542
61.68000 439.400
61.72000 430.839
61.76000 375.821
61.80000 291.347
61.84000 205.805
61.88000 163.460
61.92000 148.450
61.96000 139.343
62.00000 138.694
62.04000 140.138
62.08000 137.509
62.12000 123.290
62.16000 127.259
62.20000 136.782
62.24000 144.133
62.28000 131.169
62.32000 134.287
62.36000 134.510
62.40000 138.635
62.44000 133.109
62.48000 131.384
62.52000 139.485
62.56000 141.477
62.60000 134.771
62.64000 132.236
62.68000 129.139
62.72000 130.228
62.76000 137.142
62.80000 136.768
62.84000 136.674
62.88000 139.438
62.92000 130.333
62.96000 126.317
63.00000 131.872
63.04000 149.817
63.08000 136.623
63.12000 156.752
63.16000 141.392
63.20000 139.418
63.24000 139.781
63.28000 144.171
63.32000 142.326
63.36000 139.419
63.40000 147.670
63.44000 143.974
63.48000 138.935
63.52000 153.480
63.56000 139.593
63.60000 145.576
63.64000 145.786
63.68000 147.162
63.72000 146.909
63.76000 145.013
63.80000 148.690
63.84000 148.366
63.88000 148.123
63.92000 163.509
63.96000 157.804
64.00000 159.883
64.04000 164.306
64.08000 165.922
64.12000 154.336
64.16000 146.083
64.20000 159.021
64.24000 163.923
64.28000 157.511
64.32000 164.678
64.36000 174.721
64.40000 164.309
64.44000 167.827
64.48000 179.420
64.52000 171.596
64.56000 175.170
64.60000 183.729
64.64000 169.213
64.68000 173.911
64.72000 178.440
64.76000 177.708
64.80000 202.395
64.84000 194.363
64.88000 192.602
64.92000 207.336
64.96000 190.876
65.00000 200.877
65.04000 227.696
65.08000 227.485
65.12000 226.265
65.16000 239.384
65.20000 260.537
65.24000 270.557
65.28000 284.695
65.32000 301.473
65.36000 323.235
65.40000 363.675
65.44000 377.006
65.48000 434.002
65.52000 481.435
65.56000 521.165
65.60000 586.113
65.64000 718.129
65.68000 987.935
65.72000 1575.365
65.76000 2341.960
65.80000 2975.712
65.84000 3182.821
65.88000 3172.556
65.92000 2988.557
65.96000 2450.450
66.00000 1567.418
66.04000 941.427
66.08000 679.253
66.12000 543.372
66.16000 514.847
66.20000 494.528
66.24000 531.318
66.28000 656.448
66.32000 785.982
66.36000 895.861
66.40000 898.186
66.44000 912.475
66.48000 864.822
66.52000 748.540
66.56000 610.982
66.60000 511.052
66.64000 480.831
66.68000 443.098
66.72000 451.172
66.76000 457.244
66.80000 450.302
66.84000 438.658
66.88000 460.487
66.92000 449.687
66.96000 442.322
67.00000 452.451
67.04000 486.733
67.08000 483.104
67.12000 475.431
67.16000 488.245
67.20000 513.800
67.24000 491.280
67.28000 502.672
67.32000 514.072
67.36000 523.571
67.40000 529.962
67.44000 518.108
67.48000 532.062
67.52000 547.424
67.56000 552.759
67.60000 525.853
67.64000 564.903
67.68000 580.855
67.72000 569.234
67.76000 594.076
67.80000 582.246
67.84000 605.698
67.88000 609.921
67.92000 608.945
67.96000 629.374
68.00000 623.525
68.04000 651.910
68.08000 641.539
68.12000 682.292
68.16000 682.009
68.20000 677.595
68.24000 721.854
68.28000 720.403
68.32000 783.056
68.36000 790.904
68.40000 828.745
68.44000 848.772
68.48000 877.904
68.52000 931.806
68.56000 1040.473
68.60000 1200.299
68.64000 1417.217
68.68000 1673.151
68.72000 1977.479
68.76000 2298.824
68.80000 2635.588
68.84000 3110.275
68.88000 4314.947
68.92000 7766.697
68.96000 18489.604
69.00000 39718.258
69.04000 61094.828
69.08000 72218.352
69.12000 76878.375
69.16000 81055.336
69.20000 78024.977
69.24000 62564.961
69.28000 48074.875
69.32000 39082.629
69.36000 35808.371
69.40000 28954.092
69.44000 17039.318
69.48000 7754.814
69.52000 3476.967
69.56000 2014.831
69.60000 1534.131
69.64000 1266.769
69.68000 1091.249
69.72000 961.663
69.76000 880.509
69.80000 808.676
69.84000 731.579
69.88000 693.450
69.92000 646.954
69.96000 616.721
70.00000 611.899