File: XRD/09-10-2025 Dep 8/XY Data/BTO_Mapping_Theta2Theta_09-10-2025_001_56_20-074_-22-294.xy
20.00000 495.129
20.04000 516.547
20.08000 497.980
20.12000 492.016
20.16000 488.578
20.20000 471.939
20.24000 483.063
20.28000 507.829
20.32000 457.329
20.36000 482.078
20.40000 497.645
20.44000 497.728
20.48000 475.364
20.52000 489.500
20.56000 471.831
20.60000 484.433
20.64000 478.196
20.68000 465.862
20.72000 472.798
20.76000 467.096
20.80000 468.808
20.84000 467.923
20.88000 480.396
20.92000 479.745
20.96000 461.370
21.00000 467.064
21.04000 507.277
21.08000 486.308
21.12000 469.768
21.16000 483.874
21.20000 475.569
21.24000 464.905
21.28000 480.498
21.32000 474.962
21.36000 470.595
21.40000 482.283
21.44000 482.568
21.48000 486.917
21.52000 484.481
21.56000 481.754
21.60000 483.129
21.64000 478.842
21.68000 491.699
21.72000 470.846
21.76000 488.751
21.80000 508.502
21.84000 493.239
21.88000 532.431
21.92000 533.836
21.96000 577.107
22.00000 565.780
22.04000 587.976
22.08000 567.146
22.12000 601.284
22.16000 607.203
22.20000 586.216
22.24000 581.915
22.28000 574.221
22.32000 534.507
22.36000 529.605
22.40000 519.955
22.44000 506.738
22.48000 480.522
22.52000 487.443
22.56000 494.812
22.60000 467.458
22.64000 468.841
22.68000 476.315
22.72000 448.875
22.76000 445.461
22.80000 464.603
22.84000 439.441
22.88000 455.487
22.92000 449.634
22.96000 452.740
23.00000 439.637
23.04000 445.406
23.08000 444.316
23.12000 461.177
23.16000 436.246
23.20000 436.338
23.24000 442.109
23.28000 437.195
23.32000 463.748
23.36000 447.251
23.40000 423.227
23.44000 435.801
23.48000 434.589
23.52000 429.609
23.56000 436.683
23.60000 427.031
23.64000 449.645
23.68000 434.565
23.72000 424.286
23.76000 428.465
23.80000 421.315
23.84000 441.716
23.88000 433.058
23.92000 436.228
23.96000 421.177
24.00000 441.562
24.04000 439.750
24.08000 434.580
24.12000 426.196
24.16000 411.952
24.20000 439.108
24.24000 421.774
24.28000 422.005
24.32000 436.262
24.36000 433.476
24.40000 445.658
24.44000 421.765
24.48000 415.687
24.52000 406.531
24.56000 422.463
24.60000 408.769
24.64000 428.360
24.68000 420.660
24.72000 417.625
24.76000 431.775
24.80000 424.881
24.84000 411.936
24.88000 405.526
24.92000 433.380
24.96000 397.917
25.00000 405.680
25.04000 408.550
25.08000 389.606
25.12000 419.457
25.16000 402.930
25.20000 408.947
25.24000 390.923
25.28000 396.960
25.32000 418.584
25.36000 410.255
25.40000 424.188
25.44000 390.354
25.48000 412.842
25.52000 373.713
25.56000 398.238
25.60000 408.085
25.64000 399.720
25.68000 403.771
25.72000 421.016
25.76000 421.539
25.80000 401.989
25.84000 396.278
25.88000 404.560
25.92000 385.160
25.96000 413.363
26.00000 391.844
26.04000 394.226
26.08000 383.864
26.12000 384.539
26.16000 397.471
26.20000 380.764
26.24000 386.519
26.28000 397.489
26.32000 385.776
26.36000 383.940
26.40000 396.250
26.44000 392.278
26.48000 406.008
26.52000 403.535
26.56000 385.019
26.60000 384.630
26.64000 390.676
26.68000 380.713
26.72000 383.309
26.76000 396.129
26.80000 383.724
26.84000 397.336
26.88000 377.569
26.92000 389.975
26.96000 386.572
27.00000 384.108
27.04000 381.348
27.08000 370.898
27.12000 382.118
27.16000 379.764
27.20000 387.915
27.24000 377.965
27.28000 387.400
27.32000 382.834
27.36000 393.322
27.40000 371.281
27.44000 365.526
27.48000 381.788
27.52000 363.121
27.56000 375.575
27.60000 360.554
27.64000 385.465
27.68000 385.554
27.72000 388.375
27.76000 381.794
27.80000 386.294
27.84000 365.661
27.88000 390.381
27.92000 377.715
27.96000 373.254
28.00000 364.963
28.04000 371.673
28.08000 382.256
28.12000 372.648
28.16000 370.956
28.20000 375.275
28.24000 376.309
28.28000 380.587
28.32000 402.546
28.36000 375.766
28.40000 365.136
28.44000 363.339
28.48000 371.892
28.52000 358.262
28.56000 379.078
28.60000 382.053
28.64000 366.398
28.68000 378.152
28.72000 365.407
28.76000 353.214
28.80000 373.725
28.84000 355.158
28.88000 362.422
28.92000 363.802
28.96000 371.598
29.00000 356.356
29.04000 337.603
29.08000 366.997
29.12000 352.428
29.16000 369.848
29.20000 365.398
29.24000 368.874
29.28000 358.483
29.32000 358.865
29.36000 368.071
29.40000 361.836
29.44000 376.645
29.48000 364.671
29.52000 364.350
29.56000 362.293
29.60000 361.110
29.64000 357.286
29.68000 358.479
29.72000 369.573
29.76000 374.502
29.80000 380.016
29.84000 400.238
29.88000 417.837
29.92000 406.831
29.96000 425.980
30.00000 418.221
30.04000 455.490
30.08000 464.213
30.12000 454.057
30.16000 452.385
30.20000 425.202
30.24000 410.821
30.28000 405.898
30.32000 404.162
30.36000 415.721
30.40000 405.140
30.44000 411.013
30.48000 390.180
30.52000 396.501
30.56000 394.512
30.60000 402.723
30.64000 387.256
30.68000 384.677
30.72000 396.392
30.76000 390.681
30.80000 412.738
30.84000 415.149
30.88000 434.961
30.92000 439.968
30.96000 473.790
31.00000 489.495
31.04000 538.824
31.08000 596.998
31.12000 707.900
31.16000 863.402
31.20000 1110.785
31.24000 1382.572
31.28000 1799.364
31.32000 2244.028
31.36000 2565.603
31.40000 2794.947
31.44000 2756.808
31.48000 2594.935
31.52000 2294.379
31.56000 1926.291
31.60000 1544.792
31.64000 1228.965
31.68000 979.409
31.72000 815.355
31.76000 691.002
31.80000 595.727
31.84000 519.648
31.88000 474.628
31.92000 433.849
31.96000 408.130
32.00000 405.634
32.04000 411.150
32.08000 393.576
32.12000 378.695
32.16000 374.845
32.20000 369.852
32.24000 349.205
32.28000 343.079
32.32000 331.221
32.36000 338.286
32.40000 340.390
32.44000 336.167
32.48000 324.699
32.52000 341.532
32.56000 331.029
32.60000 329.515
32.64000 325.545
32.68000 314.455
32.72000 314.791
32.76000 323.360
32.80000 338.403
32.84000 327.622
32.88000 308.765
32.92000 322.954
32.96000 308.276
33.00000 318.793
33.04000 305.278
33.08000 294.012
33.12000 300.097
33.16000 295.313
33.20000 293.975
33.24000 304.098
33.28000 294.492
33.32000 304.503
33.36000 310.224
33.40000 311.812
33.44000 299.138
33.48000 298.950
33.52000 299.692
33.56000 299.830
33.60000 313.687
33.64000 289.702
33.68000 288.777
33.72000 281.342
33.76000 308.060
33.80000 310.109
33.84000 292.050
33.88000 301.776
33.92000 304.676
33.96000 301.830
34.00000 298.665
34.04000 297.792
34.08000 281.881
34.12000 292.254
34.16000 290.244
34.20000 292.423
34.24000 291.040
34.28000 292.721
34.32000 288.935
34.36000 293.649
34.40000 280.276
34.44000 275.512
34.48000 291.299
34.52000 282.203
34.56000 287.405
34.60000 285.738
34.64000 282.053
34.68000 276.463
34.72000 272.040
34.76000 286.474
34.80000 284.095
34.84000 287.768
34.88000 292.776
34.92000 290.314
34.96000 269.941
35.00000 275.076
35.04000 280.951
35.08000 283.884
35.12000 279.272
35.16000 276.873
35.20000 273.311
35.24000 274.672
35.28000 277.957
35.32000 267.732
35.36000 280.229
35.40000 270.793
35.44000 276.957
35.48000 278.737
35.52000 263.225
35.56000 269.737
35.60000 270.186
35.64000 277.068
35.68000 276.340
35.72000 270.158
35.76000 277.071
35.80000 256.633
35.84000 277.985
35.88000 261.350
35.92000 264.638
35.96000 266.631
36.00000 250.655
36.04000 272.243
36.08000 269.996
36.12000 286.456
36.16000 264.027
36.20000 269.068
36.24000 277.030
36.28000 285.460
36.32000 254.686
36.36000 254.432
36.40000 248.400
36.44000 258.633
36.48000 259.786
36.52000 263.440
36.56000 255.287
36.60000 262.736
36.64000 252.714
36.68000 265.086
36.72000 257.959
36.76000 260.055
36.80000 267.770
36.84000 282.025
36.88000 271.998
36.92000 275.440
36.96000 300.099
37.00000 295.193
37.04000 295.162
37.08000 290.237
37.12000 289.930
37.16000 294.068
37.20000 281.323
37.24000 278.546
37.28000 277.845
37.32000 281.499
37.36000 259.482
37.40000 261.281
37.44000 261.158
37.48000 268.081
37.52000 263.442
37.56000 268.202
37.60000 263.644
37.64000 253.685
37.68000 259.864
37.72000 262.747
37.76000 248.752
37.80000 264.973
37.84000 271.849
37.88000 269.814
37.92000 261.402
37.96000 249.253
38.00000 265.719
38.04000 260.945
38.08000 277.658
38.12000 269.310
38.16000 267.609
38.20000 288.477
38.24000 275.690
38.28000 286.815
38.32000 290.054
38.36000 315.330
38.40000 313.228
38.44000 345.497
38.48000 404.036
38.52000 457.836
38.56000 566.596
38.60000 701.948
38.64000 861.671
38.68000 1026.324
38.72000 1149.846
38.76000 1217.214
38.80000 1149.781
38.84000 1076.662
38.88000 902.750
38.92000 704.022
38.96000 600.259
39.00000 469.559
39.04000 397.810
39.08000 340.063
39.12000 306.082
39.16000 284.034
39.20000 265.508
39.24000 260.591
39.28000 262.630
39.32000 255.237
39.36000 246.928
39.40000 247.321
39.44000 246.609
39.48000 253.780
39.52000 237.318
39.56000 245.907
39.60000 241.220
39.64000 244.341
39.68000 235.714
39.72000 232.385
39.76000 225.422
39.80000 236.415
39.84000 228.596
39.88000 218.522
39.92000 226.553
39.96000 238.779
40.00000 223.949
40.04000 229.574
40.08000 229.031
40.12000 225.662
40.16000 211.979
40.20000 225.514
40.24000 227.638
40.28000 224.689
40.32000 221.435
40.36000 239.459
40.40000 236.150
40.44000 220.524
40.48000 236.027
40.52000 221.608
40.56000 218.362
40.60000 231.032
40.64000 227.332
40.68000 213.821
40.72000 214.481
40.76000 213.784
40.80000 221.741
40.84000 214.081
40.88000 217.392
40.92000 221.464
40.96000 211.554
41.00000 223.948
41.04000 215.740
41.08000 213.652
41.12000 212.354
41.16000 217.700
41.20000 196.983
41.24000 212.411
41.28000 213.341
41.32000 210.693
41.36000 209.873
41.40000 218.635
41.44000 212.269
41.48000 217.177
41.52000 214.239
41.56000 206.067
41.60000 206.235
41.64000 213.470
41.68000 204.074
41.72000 194.997
41.76000 206.468
41.80000 207.893
41.84000 213.516
41.88000 206.656
41.92000 209.289
41.96000 209.321
42.00000 206.674
42.04000 212.187
42.08000 210.281
42.12000 215.209
42.16000 214.389
42.20000 209.804
42.24000 209.982
42.28000 214.596
42.32000 198.338
42.36000 193.629
42.40000 203.850
42.44000 196.548
42.48000 206.109
42.52000 198.209
42.56000 198.415
42.60000 205.498
42.64000 212.412
42.68000 204.179
42.72000 194.832
42.76000 197.681
42.80000 202.388
42.84000 191.753
42.88000 199.257
42.92000 197.919
42.96000 202.899
43.00000 203.652
43.04000 201.088
43.08000 209.889
43.12000 203.499
43.16000 207.728
43.20000 194.620
43.24000 195.666
43.28000 204.902
43.32000 195.586
43.36000 200.744
43.40000 205.292
43.44000 207.847
43.48000 192.803
43.52000 211.651
43.56000 195.794
43.60000 204.456
43.64000 197.088
43.68000 184.925
43.72000 199.348
43.76000 190.977
43.80000 194.575
43.84000 188.330
43.88000 194.214
43.92000 190.537
43.96000 189.618
44.00000 202.735
44.04000 185.857
44.08000 199.523
44.12000 206.547
44.16000 191.850
44.20000 205.923
44.24000 188.794
44.28000 193.346
44.32000 189.203
44.36000 195.667
44.40000 204.793
44.44000 194.445
44.48000 187.332
44.52000 207.018
44.56000 190.659
44.60000 198.503
44.64000 194.480
44.68000 196.307
44.72000 201.271
44.76000 211.410
44.80000 217.524
44.84000 226.178
44.88000 223.948
44.92000 230.709
44.96000 235.440
45.00000 263.094
45.04000 256.615
45.08000 266.397
45.12000 289.187
45.16000 273.583
45.20000 274.565
45.24000 290.599
45.28000 286.194
45.32000 279.030
45.36000 267.813
45.40000 262.105
45.44000 262.841
45.48000 256.239
45.52000 245.360
45.56000 233.847
45.60000 232.841
45.64000 234.061
45.68000 233.450
45.72000 218.050
45.76000 214.713
45.80000 201.953
45.84000 212.734
45.88000 198.978
45.92000 201.738
45.96000 196.491
46.00000 191.600
46.04000 191.925
46.08000 185.823
46.12000 192.663
46.16000 190.779
46.20000 182.734
46.24000 182.902
46.28000 192.148
46.32000 189.144
46.36000 185.191
46.40000 177.099
46.44000 179.255
46.48000 181.091
46.52000 177.887
46.56000 169.621
46.60000 181.756
46.64000 179.730
46.68000 177.683
46.72000 167.927
46.76000 178.340
46.80000 175.100
46.84000 180.279
46.88000 185.757
46.92000 171.791
46.96000 179.293
47.00000 168.286
47.04000 178.837
47.08000 182.165
47.12000 177.886
47.16000 168.924
47.20000 175.040
47.24000 177.316
47.28000 169.253
47.32000 174.266
47.36000 177.112
47.40000 168.362
47.44000 168.140
47.48000 169.268
47.52000 169.343
47.56000 171.334
47.60000 164.108
47.64000 162.224
47.68000 171.349
47.72000 171.381
47.76000 161.517
47.80000 150.361
47.84000 164.201
47.88000 166.242
47.92000 169.278
47.96000 160.631
48.00000 165.058
48.04000 167.193
48.08000 159.944
48.12000 162.585
48.16000 160.998
48.20000 160.542
48.24000 158.654
48.28000 155.605
48.32000 171.735
48.36000 163.830
48.40000 172.643
48.44000 164.178
48.48000 158.390
48.52000 167.422
48.56000 169.107
48.60000 154.955
48.64000 163.599
48.68000 167.605
48.72000 169.178
48.76000 162.025
48.80000 157.644
48.84000 159.943
48.88000 162.366
48.92000 171.811
48.96000 157.830
49.00000 159.384
49.04000 156.043
49.08000 159.550
49.12000 146.303
49.16000 151.050
49.20000 153.911
49.24000 159.636
49.28000 149.574
49.32000 154.356
49.36000 153.462
49.40000 145.321
49.44000 153.798
49.48000 151.051
49.52000 153.358
49.56000 158.988
49.60000 152.908
49.64000 153.067
49.68000 148.569
49.72000 157.461
49.76000 157.308
49.80000 146.895
49.84000 164.306
49.88000 153.177
49.92000 144.320
49.96000 158.670
50.00000 154.932
50.04000 163.560
50.08000 158.481
50.12000 154.476
50.16000 157.440
50.20000 155.447
50.24000 168.888
50.28000 155.968
50.32000 169.199
50.36000 163.265
50.40000 157.785
50.44000 162.005
50.48000 172.187
50.52000 183.831
50.56000 172.628
50.60000 191.759
50.64000 217.561
50.68000 212.428
50.72000 223.541
50.76000 219.821
50.80000 211.742
50.84000 224.495
50.88000 214.609
50.92000 213.910
50.96000 196.966
51.00000 183.289
51.04000 181.570
51.08000 186.908
51.12000 171.731
51.16000 166.812
51.20000 160.227
51.24000 165.316
51.28000 168.727
51.32000 163.674
51.36000 153.223
51.40000 156.754
51.44000 152.707
51.48000 158.110
51.52000 158.362
51.56000 144.369
51.60000 156.534
51.64000 141.503
51.68000 148.580
51.72000 154.105
51.76000 152.859
51.80000 147.381
51.84000 137.212
51.88000 150.051
51.92000 143.296
51.96000 146.805
52.00000 149.355
52.04000 143.933
52.08000 145.115
52.12000 132.458
52.16000 142.815
52.20000 138.951
52.24000 146.939
52.28000 139.230
52.32000 136.779
52.36000 140.535
52.40000 141.531
52.44000 140.681
52.48000 147.524
52.52000 148.749
52.56000 128.706
52.60000 134.000
52.64000 140.060
52.68000 144.423
52.72000 139.948
52.76000 144.045
52.80000 142.129
52.84000 147.309
52.88000 139.276
52.92000 152.237
52.96000 141.315
53.00000 140.959
53.04000 130.609
53.08000 131.914
53.12000 141.927
53.16000 151.738
53.20000 138.641
53.24000 143.355
53.28000 147.998
53.32000 138.746
53.36000 137.723
53.40000 151.164
53.44000 145.117
53.48000 139.828
53.52000 148.093
53.56000 147.961
53.60000 148.763
53.64000 143.129
53.68000 132.104
53.72000 150.129
53.76000 150.706
53.80000 145.424
53.84000 146.636
53.88000 138.912
53.92000 139.855
53.96000 146.922
54.00000 146.575
54.04000 140.449
54.08000 138.928
54.12000 134.342
54.16000 133.237
54.20000 147.227
54.24000 139.798
54.28000 137.847
54.32000 143.144
54.36000 137.107
54.40000 140.975
54.44000 141.750
54.48000 139.392
54.52000 135.789
54.56000 145.175
54.60000 136.899
54.64000 140.558
54.68000 137.814
54.72000 144.760
54.76000 145.002
54.80000 136.283
54.84000 137.460
54.88000 145.366
54.92000 133.078
54.96000 136.659
55.00000 135.363
55.04000 133.078
55.08000 137.421
55.12000 140.321
55.16000 150.400
55.20000 147.307
55.24000 142.950
55.28000 148.240
55.32000 141.276
55.36000 151.064
55.40000 156.690
55.44000 162.343
55.48000 165.097
55.52000 162.660
55.56000 171.541
55.60000 180.876
55.64000 190.520
55.68000 202.099
55.72000 232.246
55.76000 271.530
55.80000 329.996
55.84000 376.347
55.88000 421.641
55.92000 473.741
55.96000 545.542
56.00000 549.657
56.04000 544.772
56.08000 519.174
56.12000 499.799
56.16000 456.039
56.20000 393.457
56.24000 369.392
56.28000 312.059
56.32000 283.854
56.36000 260.177
56.40000 236.023
56.44000 203.941
56.48000 179.389
56.52000 174.480
56.56000 169.089
56.60000 156.176
56.64000 162.157
56.68000 159.691
56.72000 147.491
56.76000 146.822
56.80000 143.409
56.84000 137.542
56.88000 141.563
56.92000 134.305
56.96000 137.017
57.00000 133.465
57.04000 128.623
57.08000 124.694
57.12000 146.846
57.16000 137.773
57.20000 114.746
57.24000 125.546
57.28000 124.090
57.32000 132.229
57.36000 125.150
57.40000 137.265
57.44000 135.635
57.48000 126.511
57.52000 121.238
57.56000 114.619
57.60000 121.734
57.64000 121.533
57.68000 120.835
57.72000 133.372
57.76000 128.890
57.80000 122.515
57.84000 138.125
57.88000 135.054
57.92000 127.111
57.96000 124.046
58.00000 116.374
58.04000 119.769
58.08000 115.063
58.12000 127.232
58.16000 113.814
58.20000 122.252
58.24000 118.765
58.28000 122.600
58.32000 126.461
58.36000 127.851
58.40000 127.602
58.44000 124.950
58.48000 123.847
58.52000 130.103
58.56000 131.589
58.60000 116.321
58.64000 128.885
58.68000 119.322
58.72000 127.189
58.76000 120.153
58.80000 116.681
58.84000 119.644
58.88000 120.831
58.92000 121.693
58.96000 121.132
59.00000 125.192
59.04000 110.925
59.08000 117.704
59.12000 121.386
59.16000 128.074
59.20000 111.853
59.24000 111.767
59.28000 120.358
59.32000 121.863
59.36000 123.958
59.40000 129.160
59.44000 117.622
59.48000 130.920
59.52000 127.388
59.56000 122.018
59.60000 129.759
59.64000 119.737
59.68000 121.000
59.72000 124.739
59.76000 123.572
59.80000 137.552
59.84000 118.558
59.88000 115.853
59.92000 118.498
59.96000 113.924
60.00000 110.470
60.04000 110.069
60.08000 121.007
60.12000 122.664
60.16000 115.216
60.20000 118.136
60.24000 121.008
60.28000 118.921
60.32000 120.179
60.36000 113.447
60.40000 125.925
60.44000 106.336
60.48000 120.892
60.52000 124.691
60.56000 113.978
60.60000 115.070
60.64000 114.988
60.68000 126.790
60.72000 117.995
60.76000 116.625
60.80000 124.779
60.84000 116.311
60.88000 114.927
60.92000 116.412
60.96000 111.906
61.00000 121.238
61.04000 115.172
61.08000 115.693
61.12000 132.188
61.16000 124.639
61.20000 124.674
61.24000 123.572
61.28000 125.828
61.32000 125.024
61.36000 129.060
61.40000 135.928
61.44000 128.616
61.48000 128.425
61.52000 167.116
61.56000 218.526
61.60000 278.316
61.64000 308.600
61.68000 327.886
61.72000 324.084
61.76000 304.191
61.80000 243.743
61.84000 178.407
61.88000 153.937
61.92000 132.522
61.96000 134.701
62.00000 129.546
62.04000 124.069
62.08000 117.254
62.12000 137.059
62.16000 135.716
62.20000 124.983
62.24000 133.114
62.28000 117.411
62.32000 134.872
62.36000 130.405
62.40000 133.211
62.44000 136.001
62.48000 135.803
62.52000 132.643
62.56000 138.151
62.60000 139.184
62.64000 134.338
62.68000 132.981
62.72000 140.007
62.76000 143.215
62.80000 135.560
62.84000 140.330
62.88000 128.066
62.92000 135.508
62.96000 135.130
63.00000 142.018
63.04000 133.424
63.08000 137.558
63.12000 138.149
63.16000 140.520
63.20000 135.550
63.24000 149.067
63.28000 141.375
63.32000 137.289
63.36000 131.884
63.40000 147.985
63.44000 140.862
63.48000 139.265
63.52000 139.084
63.56000 138.752
63.60000 143.760
63.64000 140.225
63.68000 142.082
63.72000 141.192
63.76000 142.781
63.80000 139.014
63.84000 145.017
63.88000 145.214
63.92000 154.328
63.96000 148.969
64.00000 146.374
64.04000 149.339
64.08000 151.221
64.12000 151.587
64.16000 152.667
64.20000 153.302
64.24000 157.040
64.28000 153.099
64.32000 157.352
64.36000 156.211
64.40000 159.684
64.44000 165.860
64.48000 160.876
64.52000 168.834
64.56000 168.511
64.60000 171.908
64.64000 171.104
64.68000 183.127
64.72000 162.051
64.76000 178.152
64.80000 182.327
64.84000 189.554
64.88000 184.435
64.92000 188.755
64.96000 195.850
65.00000 184.508
65.04000 202.783
65.08000 210.394
65.12000 201.419
65.16000 214.402
65.20000 221.857
65.24000 226.017
65.28000 245.091
65.32000 281.607
65.36000 292.763
65.40000 309.655
65.44000 321.961
65.48000 358.533
65.52000 415.464
65.56000 445.382
65.60000 503.090
65.64000 583.843
65.68000 756.404
65.72000 1138.420
65.76000 1728.609
65.80000 2139.892
65.84000 2353.305
65.88000 2368.662
65.92000 2192.820
65.96000 1816.085
66.00000 1207.494
66.04000 742.168
66.08000 562.891
66.12000 446.938
66.16000 426.467
66.20000 441.283
66.24000 448.586
66.28000 534.178
66.32000 617.951
66.36000 681.499
66.40000 727.428
66.44000 719.585
66.48000 679.372
66.52000 608.866
66.56000 491.925
66.60000 415.355
66.64000 410.008
66.68000 381.450
66.72000 397.802
66.76000 390.799
66.80000 377.890
66.84000 379.572
66.88000 407.632
66.92000 399.860
66.96000 391.147
67.00000 396.127
67.04000 416.720
67.08000 426.550
67.12000 426.531
67.16000 431.429
67.20000 425.114
67.24000 425.342
67.28000 419.126
67.32000 447.794
67.36000 445.623
67.40000 441.305
67.44000 456.977
67.48000 452.197
67.52000 467.729
67.56000 475.944
67.60000 473.108
67.64000 464.839
67.68000 478.898
67.72000 484.385
67.76000 495.535
67.80000 511.702
67.84000 502.738
67.88000 522.513
67.92000 521.473
67.96000 525.338
68.00000 528.166
68.04000 573.005
68.08000 563.572
68.12000 565.823
68.16000 574.334
68.20000 580.813
68.24000 607.516
68.28000 616.556
68.32000 631.699
68.36000 664.960
68.40000 696.678
68.44000 712.420
68.48000 733.941
68.52000 794.548
68.56000 879.087
68.60000 978.374
68.64000 1136.095
68.68000 1358.920
68.72000 1534.248
68.76000 1779.422
68.80000 1992.076
68.84000 2322.167
68.88000 3030.357
68.92000 5026.137
68.96000 12065.951
69.00000 27592.912
69.04000 43176.918
69.08000 51282.004
69.12000 54611.641
69.16000 58161.938
69.20000 56855.027
69.24000 45815.750
69.28000 33942.559
69.32000 28109.596
69.36000 26145.133
69.40000 21442.850
69.44000 12819.008
69.48000 5577.935
69.52000 2660.035
69.56000 1617.535
69.60000 1302.091
69.64000 1084.135
69.68000 921.289
69.72000 821.854
69.76000 737.121
69.80000 689.719
69.84000 656.074
69.88000 627.433
69.92000 579.490
69.96000 557.660
70.00000 527.812