File: XRD/09-10-2025 Dep 8/XY Data/BTO_Mapping_Theta2Theta_09-10-2025_001_39_-16-180_-11-756.xy
20.00000 489.343
20.04000 493.942
20.08000 489.997
20.12000 484.845
20.16000 474.400
20.20000 484.266
20.24000 486.283
20.28000 484.470
20.32000 498.033
20.36000 485.978
20.40000 480.346
20.44000 500.958
20.48000 481.161
20.52000 489.578
20.56000 470.207
20.60000 478.848
20.64000 495.406
20.68000 476.148
20.72000 503.236
20.76000 479.436
20.80000 499.151
20.84000 478.827
20.88000 482.533
20.92000 475.609
20.96000 487.739
21.00000 486.173
21.04000 489.061
21.08000 484.413
21.12000 502.300
21.16000 486.882
21.20000 489.038
21.24000 483.353
21.28000 484.412
21.32000 492.720
21.36000 463.278
21.40000 497.535
21.44000 467.602
21.48000 476.374
21.52000 490.006
21.56000 485.035
21.60000 491.554
21.64000 506.878
21.68000 517.621
21.72000 524.061
21.76000 533.083
21.80000 568.461
21.84000 616.957
21.88000 649.407
21.92000 654.264
21.96000 682.006
22.00000 733.327
22.04000 731.261
22.08000 734.231
22.12000 714.392
22.16000 657.192
22.20000 634.732
22.24000 583.456
22.28000 577.022
22.32000 560.912
22.36000 525.899
22.40000 478.632
22.44000 492.407
22.48000 471.459
22.52000 482.643
22.56000 471.841
22.60000 472.458
22.64000 450.956
22.68000 462.751
22.72000 458.918
22.76000 451.468
22.80000 444.553
22.84000 461.384
22.88000 451.506
22.92000 457.205
22.96000 449.577
23.00000 469.135
23.04000 457.322
23.08000 453.359
23.12000 451.811
23.16000 443.527
23.20000 456.392
23.24000 442.804
23.28000 435.293
23.32000 474.020
23.36000 435.789
23.40000 446.964
23.44000 423.449
23.48000 459.852
23.52000 437.835
23.56000 437.913
23.60000 433.473
23.64000 434.807
23.68000 414.290
23.72000 430.912
23.76000 437.575
23.80000 437.501
23.84000 427.638
23.88000 435.761
23.92000 431.546
23.96000 446.028
24.00000 443.128
24.04000 456.146
24.08000 438.317
24.12000 417.618
24.16000 437.758
24.20000 432.073
24.24000 428.758
24.28000 412.290
24.32000 420.110
24.36000 408.667
24.40000 408.945
24.44000 418.703
24.48000 424.467
24.52000 415.659
24.56000 436.708
24.60000 417.556
24.64000 406.107
24.68000 437.064
24.72000 415.063
24.76000 420.606
24.80000 397.718
24.84000 418.659
24.88000 428.057
24.92000 423.736
24.96000 420.513
25.00000 428.422
25.04000 422.139
25.08000 425.863
25.12000 414.974
25.16000 419.386
25.20000 418.940
25.24000 413.729
25.28000 399.036
25.32000 402.305
25.36000 411.741
25.40000 401.564
25.44000 412.229
25.48000 410.652
25.52000 408.042
25.56000 409.916
25.60000 415.740
25.64000 404.015
25.68000 401.554
25.72000 419.988
25.76000 407.999
25.80000 401.286
25.84000 409.535
25.88000 406.760
25.92000 389.604
25.96000 396.665
26.00000 407.368
26.04000 388.124
26.08000 410.436
26.12000 404.269
26.16000 405.366
26.20000 402.116
26.24000 398.164
26.28000 414.830
26.32000 399.163
26.36000 401.171
26.40000 389.378
26.44000 389.314
26.48000 396.382
26.52000 407.309
26.56000 388.109
26.60000 411.866
26.64000 384.871
26.68000 403.254
26.72000 380.467
26.76000 390.432
26.80000 395.505
26.84000 390.318
26.88000 389.418
26.92000 385.935
26.96000 400.135
27.00000 381.896
27.04000 370.959
27.08000 386.200
27.12000 390.365
27.16000 389.826
27.20000 371.100
27.24000 381.099
27.28000 381.048
27.32000 382.565
27.36000 382.863
27.40000 376.401
27.44000 383.373
27.48000 393.836
27.52000 378.167
27.56000 387.632
27.60000 389.418
27.64000 377.996
27.68000 377.329
27.72000 371.241
27.76000 379.393
27.80000 378.543
27.84000 376.401
27.88000 386.909
27.92000 384.881
27.96000 388.001
28.00000 392.776
28.04000 377.100
28.08000 371.536
28.12000 381.565
28.16000 383.071
28.20000 381.720
28.24000 392.952
28.28000 384.216
28.32000 395.956
28.36000 384.836
28.40000 358.887
28.44000 393.930
28.48000 369.358
28.52000 372.176
28.56000 378.226
28.60000 360.858
28.64000 356.145
28.68000 375.481
28.72000 378.397
28.76000 370.927
28.80000 361.728
28.84000 359.683
28.88000 361.228
28.92000 354.516
28.96000 372.353
29.00000 394.646
29.04000 369.582
29.08000 373.501
29.12000 378.978
29.16000 358.476
29.20000 362.836
29.24000 352.859
29.28000 393.817
29.32000 365.619
29.36000 366.481
29.40000 365.304
29.44000 362.755
29.48000 368.716
29.52000 362.588
29.56000 374.880
29.60000 370.225
29.64000 380.273
29.68000 375.255
29.72000 367.678
29.76000 388.964
29.80000 405.328
29.84000 398.267
29.88000 405.884
29.92000 424.313
29.96000 451.879
30.00000 465.375
30.04000 460.364
30.08000 440.651
30.12000 452.541
30.16000 443.032
30.20000 416.265
30.24000 412.752
30.28000 417.233
30.32000 401.075
30.36000 405.248
30.40000 401.824
30.44000 390.745
30.48000 400.203
30.52000 401.226
30.56000 405.204
30.60000 390.244
30.64000 403.016
30.68000 403.301
30.72000 379.045
30.76000 416.884
30.80000 405.424
30.84000 428.201
30.88000 447.171
30.92000 463.834
30.96000 492.822
31.00000 551.347
31.04000 603.447
31.08000 710.458
31.12000 902.522
31.16000 1183.026
31.20000 1516.026
31.24000 1920.387
31.28000 2347.614
31.32000 2737.068
31.36000 3010.967
31.40000 3041.975
31.44000 2933.053
31.48000 2634.487
31.52000 2207.410
31.56000 1717.982
31.60000 1336.332
31.64000 1012.498
31.68000 833.146
31.72000 690.904
31.76000 591.347
31.80000 530.803
31.84000 474.776
31.88000 424.420
31.92000 436.001
31.96000 403.902
32.00000 389.498
32.04000 376.584
32.08000 348.609
32.12000 370.572
32.16000 346.297
32.20000 346.361
32.24000 341.355
32.28000 341.268
32.32000 342.457
32.36000 341.845
32.40000 346.366
32.44000 339.551
32.48000 335.813
32.52000 332.993
32.56000 348.414
32.60000 327.655
32.64000 345.476
32.68000 341.261
32.72000 346.243
32.76000 328.436
32.80000 335.944
32.84000 314.767
32.88000 335.933
32.92000 335.630
32.96000 318.771
33.00000 317.780
33.04000 338.717
33.08000 315.776
33.12000 327.073
33.16000 322.693
33.20000 304.434
33.24000 309.470
33.28000 303.156
33.32000 293.786
33.36000 302.073
33.40000 304.776
33.44000 306.724
33.48000 288.399
33.52000 315.285
33.56000 293.069
33.60000 294.376
33.64000 296.728
33.68000 296.217
33.72000 307.398
33.76000 302.478
33.80000 312.424
33.84000 311.613
33.88000 306.819
33.92000 291.531
33.96000 300.812
34.00000 292.942
34.04000 288.866
34.08000 291.884
34.12000 306.263
34.16000 298.643
34.20000 277.126
34.24000 297.760
34.28000 290.989
34.32000 299.013
34.36000 289.371
34.40000 303.225
34.44000 273.838
34.48000 295.691
34.52000 290.922
34.56000 283.777
34.60000 291.264
34.64000 288.544
34.68000 279.372
34.72000 289.281
34.76000 268.959
34.80000 290.958
34.84000 305.801
34.88000 285.158
34.92000 280.292
34.96000 286.179
35.00000 277.984
35.04000 275.530
35.08000 272.284
35.12000 277.296
35.16000 280.917
35.20000 271.064
35.24000 280.005
35.28000 274.415
35.32000 271.626
35.36000 269.774
35.40000 284.447
35.44000 279.672
35.48000 279.300
35.52000 268.285
35.56000 267.671
35.60000 255.896
35.64000 277.802
35.68000 266.694
35.72000 269.940
35.76000 281.693
35.80000 260.683
35.84000 261.242
35.88000 274.863
35.92000 269.086
35.96000 259.413
36.00000 260.668
36.04000 259.706
36.08000 276.533
36.12000 260.436
36.16000 266.595
36.20000 265.241
36.24000 269.526
36.28000 270.214
36.32000 273.073
36.36000 259.795
36.40000 279.822
36.44000 285.339
36.48000 270.326
36.52000 267.851
36.56000 269.718
36.60000 266.665
36.64000 258.793
36.68000 269.124
36.72000 280.674
36.76000 278.346
36.80000 266.119
36.84000 276.179
36.88000 283.773
36.92000 290.944
36.96000 254.382
37.00000 276.577
37.04000 283.624
37.08000 288.412
37.12000 287.762
37.16000 280.288
37.20000 278.587
37.24000 275.875
37.28000 276.742
37.32000 276.742
37.36000 269.711
37.40000 271.804
37.44000 259.857
37.48000 269.091
37.52000 259.055
37.56000 270.868
37.60000 254.575
37.64000 263.455
37.68000 263.159
37.72000 262.360
37.76000 257.125
37.80000 251.061
37.84000 261.914
37.88000 262.955
37.92000 250.178
37.96000 263.701
38.00000 268.367
38.04000 271.143
38.08000 272.049
38.12000 269.782
38.16000 292.645
38.20000 293.229
38.24000 304.827
38.28000 312.200
38.32000 332.735
38.36000 340.504
38.40000 380.534
38.44000 414.906
38.48000 490.066
38.52000 551.124
38.56000 637.338
38.60000 690.425
38.64000 797.687
38.68000 829.761
38.72000 849.016
38.76000 793.448
38.80000 708.660
38.84000 638.341
38.88000 527.127
38.92000 451.581
38.96000 398.636
39.00000 365.790
39.04000 341.030
39.08000 306.201
39.12000 283.273
39.16000 281.648
39.20000 266.248
39.24000 259.439
39.28000 272.777
39.32000 279.599
39.36000 259.776
39.40000 255.777
39.44000 257.248
39.48000 254.192
39.52000 245.928
39.56000 243.140
39.60000 248.080
39.64000 242.832
39.68000 246.851
39.72000 251.570
39.76000 249.423
39.80000 248.284
39.84000 235.549
39.88000 246.309
39.92000 245.424
39.96000 250.036
40.00000 234.904
40.04000 237.876
40.08000 238.763
40.12000 239.033
40.16000 228.119
40.20000 243.591
40.24000 236.999
40.28000 225.959
40.32000 229.258
40.36000 222.287
40.40000 232.952
40.44000 239.796
40.48000 246.073
40.52000 236.645
40.56000 226.007
40.60000 219.959
40.64000 225.394
40.68000 217.386
40.72000 228.858
40.76000 210.841
40.80000 248.841
40.84000 229.037
40.88000 223.532
40.92000 227.855
40.96000 224.340
41.00000 227.853
41.04000 221.759
41.08000 223.974
41.12000 207.101
41.16000 219.715
41.20000 216.269
41.24000 224.944
41.28000 220.865
41.32000 229.886
41.36000 222.677
41.40000 221.707
41.44000 219.247
41.48000 223.779
41.52000 221.406
41.56000 216.351
41.60000 217.993
41.64000 227.946
41.68000 214.560
41.72000 204.909
41.76000 217.562
41.80000 209.294
41.84000 203.380
41.88000 211.240
41.92000 226.865
41.96000 211.543
42.00000 212.522
42.04000 210.467
42.08000 206.698
42.12000 201.745
42.16000 216.919
42.20000 215.809
42.24000 211.848
42.28000 216.792
42.32000 199.297
42.36000 202.185
42.40000 212.364
42.44000 201.172
42.48000 193.250
42.52000 208.029
42.56000 203.456
42.60000 208.056
42.64000 208.860
42.68000 208.413
42.72000 211.654
42.76000 207.629
42.80000 203.559
42.84000 192.249
42.88000 215.306
42.92000 214.505
42.96000 208.912
43.00000 207.975
43.04000 205.989
43.08000 210.225
43.12000 207.622
43.16000 197.802
43.20000 223.992
43.24000 208.357
43.28000 207.909
43.32000 200.310
43.36000 214.204
43.40000 205.694
43.44000 210.521
43.48000 202.742
43.52000 203.578
43.56000 210.523
43.60000 214.171
43.64000 196.824
43.68000 190.413
43.72000 211.743
43.76000 203.458
43.80000 203.664
43.84000 205.635
43.88000 203.537
43.92000 206.632
43.96000 197.690
44.00000 197.524
44.04000 203.242
44.08000 205.000
44.12000 212.137
44.16000 206.354
44.20000 211.642
44.24000 203.533
44.28000 199.054
44.32000 212.344
44.36000 214.498
44.40000 219.436
44.44000 225.105
44.48000 227.738
44.52000 215.992
44.56000 227.258
44.60000 237.678
44.64000 257.200
44.68000 263.341
44.72000 266.045
44.76000 295.431
44.80000 320.488
44.84000 357.951
44.88000 361.073
44.92000 402.462
44.96000 410.689
45.00000 423.542
45.04000 444.960
45.08000 434.176
45.12000 402.401
45.16000 403.191
45.20000 375.934
45.24000 355.450
45.28000 337.441
45.32000 313.768
45.36000 302.073
45.40000 275.863
45.44000 264.199
45.48000 252.584
45.52000 246.353
45.56000 232.425
45.60000 234.216
45.64000 224.290
45.68000 214.508
45.72000 216.053
45.76000 197.937
45.80000 207.337
45.84000 205.335
45.88000 198.974
45.92000 202.047
45.96000 190.543
46.00000 198.341
46.04000 189.160
46.08000 183.389
46.12000 187.967
46.16000 174.632
46.20000 192.851
46.24000 189.138
46.28000 197.101
46.32000 184.946
46.36000 179.626
46.40000 177.503
46.44000 181.438
46.48000 183.628
46.52000 181.943
46.56000 183.598
46.60000 189.034
46.64000 175.299
46.68000 168.800
46.72000 169.743
46.76000 183.713
46.80000 176.586
46.84000 176.256
46.88000 172.894
46.92000 187.212
46.96000 168.529
47.00000 170.092
47.04000 170.531
47.08000 171.692
47.12000 180.701
47.16000 170.062
47.20000 164.216
47.24000 155.612
47.28000 169.810
47.32000 181.970
47.36000 171.278
47.40000 167.332
47.44000 160.683
47.48000 172.873
47.52000 167.719
47.56000 170.896
47.60000 167.857
47.64000 162.781
47.68000 164.078
47.72000 176.504
47.76000 155.538
47.80000 171.666
47.84000 161.672
47.88000 162.967
47.92000 160.381
47.96000 179.533
48.00000 175.386
48.04000 171.883
48.08000 162.730
48.12000 161.527
48.16000 159.984
48.20000 161.556
48.24000 159.098
48.28000 157.495
48.32000 161.357
48.36000 166.764
48.40000 166.612
48.44000 177.184
48.48000 168.585
48.52000 171.999
48.56000 165.753
48.60000 168.787
48.64000 166.912
48.68000 166.352
48.72000 160.682
48.76000 159.932
48.80000 161.574
48.84000 156.312
48.88000 147.339
48.92000 155.791
48.96000 161.418
49.00000 167.130
49.04000 168.553
49.08000 163.020
49.12000 157.297
49.16000 158.284
49.20000 154.188
49.24000 152.658
49.28000 161.334
49.32000 154.558
49.36000 162.967
49.40000 156.003
49.44000 156.099
49.48000 148.295
49.52000 156.973
49.56000 162.929
49.60000 153.881
49.64000 166.670
49.68000 153.185
49.72000 157.777
49.76000 153.831
49.80000 157.073
49.84000 161.506
49.88000 161.866
49.92000 163.215
49.96000 165.063
50.00000 161.732
50.04000 153.965
50.08000 158.918
50.12000 153.782
50.16000 164.751
50.20000 173.646
50.24000 172.875
50.28000 151.880
50.32000 175.721
50.36000 177.277
50.40000 178.883
50.44000 187.525
50.48000 220.022
50.52000 213.870
50.56000 230.000
50.60000 232.741
50.64000 243.735
50.68000 239.353
50.72000 245.769
50.76000 256.886
50.80000 236.598
50.84000 228.960
50.88000 227.398
50.92000 230.011
50.96000 198.334
51.00000 182.891
51.04000 187.760
51.08000 187.208
51.12000 171.936
51.16000 168.271
51.20000 166.383
51.24000 167.519
51.28000 166.154
51.32000 168.992
51.36000 162.776
51.40000 159.683
51.44000 152.461
51.48000 143.522
51.52000 157.876
51.56000 152.437
51.60000 148.553
51.64000 145.447
51.68000 149.648
51.72000 145.381
51.76000 144.677
51.80000 145.199
51.84000 146.407
51.88000 149.077
51.92000 143.381
51.96000 145.628
52.00000 151.413
52.04000 154.017
52.08000 145.372
52.12000 145.697
52.16000 144.209
52.20000 148.671
52.24000 139.947
52.28000 141.755
52.32000 149.374
52.36000 148.544
52.40000 142.224
52.44000 144.686
52.48000 147.258
52.52000 156.125
52.56000 152.259
52.60000 138.169
52.64000 150.307
52.68000 157.852
52.72000 147.595
52.76000 143.875
52.80000 132.886
52.84000 145.886
52.88000 138.207
52.92000 130.657
52.96000 148.727
53.00000 146.818
53.04000 140.838
53.08000 146.979
53.12000 148.126
53.16000 152.718
53.20000 146.876
53.24000 142.506
53.28000 152.463
53.32000 161.434
53.36000 169.668
53.40000 150.730
53.44000 159.596
53.48000 159.831
53.52000 151.562
53.56000 142.535
53.60000 151.023
53.64000 148.824
53.68000 150.215
53.72000 132.796
53.76000 140.289
53.80000 141.178
53.84000 139.601
53.88000 153.045
53.92000 151.780
53.96000 136.861
54.00000 147.808
54.04000 141.062
54.08000 140.977
54.12000 134.989
54.16000 144.971
54.20000 143.805
54.24000 136.803
54.28000 149.852
54.32000 151.327
54.36000 136.339
54.40000 138.642
54.44000 136.273
54.48000 140.678
54.52000 142.441
54.56000 131.990
54.60000 139.873
54.64000 142.514
54.68000 142.997
54.72000 148.793
54.76000 144.975
54.80000 149.881
54.84000 147.872
54.88000 147.371
54.92000 149.209
54.96000 155.682
55.00000 144.384
55.04000 159.700
55.08000 149.614
55.12000 157.786
55.16000 155.974
55.20000 146.977
55.24000 160.161
55.28000 163.034
55.32000 166.704
55.36000 182.092
55.40000 185.252
55.44000 183.133
55.48000 200.210
55.52000 211.827
55.56000 229.063
55.60000 262.088
55.64000 296.282
55.68000 324.447
55.72000 372.361
55.76000 437.456
55.80000 476.418
55.84000 508.867
55.88000 560.202
55.92000 568.092
55.96000 601.700
56.00000 550.309
56.04000 531.850
56.08000 482.750
56.12000 422.114
56.16000 369.022
56.20000 348.438
56.24000 299.142
56.28000 266.821
56.32000 238.142
56.36000 227.598
56.40000 197.511
56.44000 188.405
56.48000 180.374
56.52000 171.958
56.56000 175.348
56.60000 159.198
56.64000 152.645
56.68000 148.959
56.72000 144.057
56.76000 149.316
56.80000 160.598
56.84000 144.004
56.88000 148.575
56.92000 142.723
56.96000 127.549
57.00000 129.963
57.04000 125.244
57.08000 130.848
57.12000 140.098
57.16000 128.324
57.20000 134.437
57.24000 132.732
57.28000 134.152
57.32000 139.036
57.36000 133.091
57.40000 126.120
57.44000 135.129
57.48000 135.951
57.52000 128.180
57.56000 127.985
57.60000 120.983
57.64000 128.882
57.68000 124.213
57.72000 120.891
57.76000 128.323
57.80000 129.729
57.84000 127.948
57.88000 126.637
57.92000 132.606
57.96000 122.967
58.00000 124.410
58.04000 113.439
58.08000 127.522
58.12000 117.888
58.16000 122.624
58.20000 120.580
58.24000 118.753
58.28000 124.990
58.32000 118.308
58.36000 116.148
58.40000 119.606
58.44000 125.089
58.48000 123.729
58.52000 126.933
58.56000 140.496
58.60000 123.396
58.64000 129.668
58.68000 124.040
58.72000 123.067
58.76000 120.006
58.80000 120.541
58.84000 126.342
58.88000 125.161
58.92000 122.584
58.96000 116.621
59.00000 128.363
59.04000 118.938
59.08000 123.932
59.12000 116.000
59.16000 114.151
59.20000 127.217
59.24000 126.372
59.28000 126.232
59.32000 123.817
59.36000 123.590
59.40000 125.615
59.44000 126.228
59.48000 125.554
59.52000 121.593
59.56000 124.344
59.60000 120.728
59.64000 128.608
59.68000 111.588
59.72000 116.783
59.76000 113.169
59.80000 131.520
59.84000 127.856
59.88000 125.177
59.92000 121.603
59.96000 122.958
60.00000 132.193
60.04000 128.729
60.08000 114.454
60.12000 120.990
60.16000 130.893
60.20000 122.031
60.24000 122.829
60.28000 120.870
60.32000 114.041
60.36000 115.804
60.40000 126.257
60.44000 117.122
60.48000 123.454
60.52000 122.411
60.56000 118.447
60.60000 119.369
60.64000 114.655
60.68000 125.508
60.72000 115.746
60.76000 121.291
60.80000 112.576
60.84000 119.377
60.88000 114.615
60.92000 121.629
60.96000 123.888
61.00000 119.284
61.04000 127.343
61.08000 129.584
61.12000 122.191
61.16000 121.039
61.20000 126.911
61.24000 122.542
61.28000 118.229
61.32000 134.279
61.36000 136.303
61.40000 126.962
61.44000 133.063
61.48000 166.494
61.52000 203.453
61.56000 285.923
61.60000 349.234
61.64000 422.343
61.68000 448.132
61.72000 451.194
61.76000 383.433
61.80000 284.566
61.84000 205.230
61.88000 159.245
61.92000 156.955
61.96000 138.628
62.00000 137.438
62.04000 134.837
62.08000 135.354
62.12000 136.197
62.16000 137.827
62.20000 124.891
62.24000 130.057
62.28000 133.879
62.32000 137.656
62.36000 135.379
62.40000 138.226
62.44000 144.792
62.48000 142.081
62.52000 141.360
62.56000 141.276
62.60000 144.721
62.64000 135.196
62.68000 132.980
62.72000 141.122
62.76000 137.925
62.80000 145.685
62.84000 141.122
62.88000 135.098
62.92000 133.405
62.96000 136.371
63.00000 136.837
63.04000 146.007
63.08000 136.453
63.12000 141.943
63.16000 147.230
63.20000 146.476
63.24000 125.194
63.28000 143.280
63.32000 141.531
63.36000 138.055
63.40000 141.557
63.44000 137.760
63.48000 135.751
63.52000 141.390
63.56000 154.417
63.60000 146.384
63.64000 133.349
63.68000 152.639
63.72000 145.508
63.76000 140.943
63.80000 154.471
63.84000 150.667
63.88000 159.358
63.92000 151.156
63.96000 161.426
64.00000 152.245
64.04000 153.340
64.08000 161.596
64.12000 158.357
64.16000 153.960
64.20000 164.855
64.24000 156.958
64.28000 181.784
64.32000 168.752
64.36000 163.851
64.40000 179.872
64.44000 159.635
64.48000 171.730
64.52000 168.067
64.56000 170.782
64.60000 168.889
64.64000 184.156
64.68000 182.208
64.72000 193.935
64.76000 192.373
64.80000 195.575
64.84000 200.959
64.88000 201.424
64.92000 206.561
64.96000 219.972
65.00000 222.510
65.04000 225.184
65.08000 227.661
65.12000 245.517
65.16000 244.049
65.20000 261.755
65.24000 289.287
65.28000 304.234
65.32000 322.680
65.36000 362.485
65.40000 385.228
65.44000 401.444
65.48000 434.608
65.52000 486.253
65.56000 549.704
65.60000 613.283
65.64000 703.034
65.68000 1039.440
65.72000 1676.245
65.76000 2455.066
65.80000 3079.189
65.84000 3334.525
65.88000 3350.474
65.92000 3103.108
65.96000 2480.299
66.00000 1614.347
66.04000 965.540
66.08000 678.569
66.12000 573.168
66.16000 481.924
66.20000 513.048
66.24000 557.289
66.28000 681.898
66.32000 814.795
66.36000 945.459
66.40000 972.940
66.44000 960.639
66.48000 877.808
66.52000 778.980
66.56000 598.663
66.60000 529.722
66.64000 471.556
66.68000 469.378
66.72000 478.668
66.76000 471.540
66.80000 452.140
66.84000 469.978
66.88000 462.178
66.92000 490.715
66.96000 482.332
67.00000 487.070
67.04000 495.666
67.08000 479.659
67.12000 499.321
67.16000 501.461
67.20000 512.536
67.24000 514.977
67.28000 525.451
67.32000 500.737
67.36000 531.847
67.40000 522.090
67.44000 547.884
67.48000 558.230
67.52000 548.954
67.56000 573.578
67.60000 546.869
67.64000 572.227
67.68000 589.218
67.72000 597.263
67.76000 618.223
67.80000 599.486
67.84000 611.409
67.88000 614.235
67.92000 633.162
67.96000 638.428
68.00000 632.135
68.04000 685.790
68.08000 681.347
68.12000 702.307
68.16000 707.174
68.20000 715.386
68.24000 687.181
68.28000 738.957
68.32000 769.500
68.36000 818.595
68.40000 831.236
68.44000 883.565
68.48000 922.738
68.52000 973.234
68.56000 1079.449
68.60000 1226.597
68.64000 1422.823
68.68000 1755.556
68.72000 2066.098
68.76000 2345.015
68.80000 2727.306
68.84000 3307.008
68.88000 4522.616
68.92000 8134.518
68.96000 19465.238
69.00000 42086.977
69.04000 64252.762
69.08000 75917.289
69.12000 80700.313
69.16000 85217.852
69.20000 81721.375
69.24000 65277.977
69.28000 50151.629
69.32000 40846.004
69.36000 37541.570
69.40000 30042.740
69.44000 17698.377
69.48000 7941.253
69.52000 3510.105
69.56000 2092.105
69.60000 1548.995
69.64000 1287.809
69.68000 1118.475
69.72000 992.023
69.76000 884.762
69.80000 825.833
69.84000 764.079
69.88000 730.742
69.92000 649.983
69.96000 643.851
70.00000 608.536