File: XRD/09-10-2025 Dep 8/XY Data/BTO_Mapping_Theta2Theta_09-10-2025_001_13_26-765_29-726.xy
20.00000 482.644
20.04000 485.384
20.08000 488.547
20.12000 482.947
20.16000 479.845
20.20000 481.142
20.24000 472.959
20.28000 471.731
20.32000 483.683
20.36000 468.436
20.40000 478.192
20.44000 475.149
20.48000 467.065
20.52000 459.879
20.56000 486.200
20.60000 484.244
20.64000 480.882
20.68000 482.211
20.72000 462.193
20.76000 487.301
20.80000 484.609
20.84000 457.466
20.88000 482.094
20.92000 469.314
20.96000 469.991
21.00000 477.584
21.04000 469.263
21.08000 481.754
21.12000 486.749
21.16000 462.264
21.20000 479.362
21.24000 482.896
21.28000 484.446
21.32000 479.389
21.36000 450.017
21.40000 467.722
21.44000 460.508
21.48000 482.720
21.52000 474.861
21.56000 470.669
21.60000 471.950
21.64000 480.219
21.68000 496.097
21.72000 474.330
21.76000 478.256
21.80000 484.056
21.84000 496.473
21.88000 536.287
21.92000 520.998
21.96000 533.713
22.00000 563.893
22.04000 565.617
22.08000 578.335
22.12000 568.219
22.16000 574.523
22.20000 577.503
22.24000 554.912
22.28000 570.672
22.32000 555.877
22.36000 538.393
22.40000 522.237
22.44000 506.657
22.48000 479.170
22.52000 491.757
22.56000 485.615
22.60000 462.135
22.64000 450.132
22.68000 447.677
22.72000 451.811
22.76000 466.290
22.80000 435.222
22.84000 448.615
22.88000 466.962
22.92000 433.173
22.96000 458.353
23.00000 447.106
23.04000 441.548
23.08000 449.164
23.12000 461.883
23.16000 438.482
23.20000 431.191
23.24000 437.689
23.28000 431.927
23.32000 431.412
23.36000 433.257
23.40000 462.334
23.44000 442.907
23.48000 442.531
23.52000 447.761
23.56000 439.444
23.60000 450.893
23.64000 454.623
23.68000 445.415
23.72000 442.637
23.76000 449.011
23.80000 459.040
23.84000 467.911
23.88000 477.693
23.92000 467.511
23.96000 480.175
24.00000 477.307
24.04000 469.229
24.08000 454.882
24.12000 453.248
24.16000 454.572
24.20000 444.622
24.24000 452.468
24.28000 431.124
24.32000 425.627
24.36000 429.312
24.40000 420.299
24.44000 435.752
24.48000 447.853
24.52000 420.056
24.56000 409.552
24.60000 422.530
24.64000 406.377
24.68000 416.831
24.72000 421.149
24.76000 411.376
24.80000 412.951
24.84000 417.407
24.88000 403.866
24.92000 420.440
24.96000 420.559
25.00000 434.587
25.04000 419.236
25.08000 401.165
25.12000 419.133
25.16000 402.622
25.20000 399.067
25.24000 393.638
25.28000 391.084
25.32000 391.148
25.36000 384.894
25.40000 399.015
25.44000 412.039
25.48000 408.967
25.52000 409.749
25.56000 417.770
25.60000 382.447
25.64000 412.825
25.68000 382.360
25.72000 402.605
25.76000 388.705
25.80000 414.299
25.84000 390.156
25.88000 404.316
25.92000 395.640
25.96000 401.894
26.00000 384.572
26.04000 390.561
26.08000 400.387
26.12000 383.523
26.16000 395.498
26.20000 382.610
26.24000 391.267
26.28000 383.807
26.32000 378.561
26.36000 397.380
26.40000 402.878
26.44000 408.250
26.48000 384.692
26.52000 392.073
26.56000 370.348
26.60000 370.648
26.64000 378.401
26.68000 376.316
26.72000 389.988
26.76000 379.350
26.80000 388.120
26.84000 377.880
26.88000 386.681
26.92000 374.750
26.96000 383.362
27.00000 382.919
27.04000 386.491
27.08000 363.362
27.12000 374.011
27.16000 364.832
27.20000 369.601
27.24000 378.409
27.28000 381.568
27.32000 364.340
27.36000 366.969
27.40000 365.813
27.44000 382.090
27.48000 358.191
27.52000 372.204
27.56000 369.226
27.60000 384.380
27.64000 382.088
27.68000 403.673
27.72000 376.024
27.76000 365.742
27.80000 357.315
27.84000 369.934
27.88000 371.190
27.92000 360.294
27.96000 358.517
28.00000 386.101
28.04000 376.220
28.08000 371.655
28.12000 376.729
28.16000 380.433
28.20000 347.400
28.24000 371.743
28.28000 371.738
28.32000 368.266
28.36000 359.740
28.40000 367.090
28.44000 363.251
28.48000 356.578
28.52000 343.483
28.56000 357.194
28.60000 351.069
28.64000 361.017
28.68000 370.080
28.72000 368.014
28.76000 354.106
28.80000 347.764
28.84000 366.074
28.88000 371.927
28.92000 358.058
28.96000 363.176
29.00000 356.313
29.04000 361.790
29.08000 363.859
29.12000 352.075
29.16000 366.921
29.20000 350.549
29.24000 367.641
29.28000 346.227
29.32000 353.035
29.36000 355.842
29.40000 365.621
29.44000 355.578
29.48000 354.802
29.52000 352.928
29.56000 362.543
29.60000 343.647
29.64000 338.139
29.68000 340.497
29.72000 349.069
29.76000 367.125
29.80000 340.920
29.84000 366.578
29.88000 365.341
29.92000 378.462
29.96000 373.680
30.00000 372.331
30.04000 399.157
30.08000 391.996
30.12000 397.098
30.16000 401.481
30.20000 374.314
30.24000 401.897
30.28000 386.077
30.32000 375.883
30.36000 376.985
30.40000 386.088
30.44000 382.128
30.48000 376.913
30.52000 379.159
30.56000 360.893
30.60000 382.802
30.64000 391.228
30.68000 386.362
30.72000 390.723
30.76000 379.471
30.80000 379.280
30.84000 384.525
30.88000 395.696
30.92000 393.518
30.96000 418.225
31.00000 422.857
31.04000 447.927
31.08000 465.547
31.12000 549.790
31.16000 592.915
31.20000 697.645
31.24000 806.898
31.28000 1014.677
31.32000 1195.407
31.36000 1382.797
31.40000 1554.774
31.44000 1673.573
31.48000 1650.824
31.52000 1567.459
31.56000 1377.752
31.60000 1187.734
31.64000 964.836
31.68000 827.445
31.72000 707.029
31.76000 617.756
31.80000 530.421
31.84000 480.067
31.88000 452.659
31.92000 404.795
31.96000 397.307
32.00000 381.770
32.04000 376.970
32.08000 377.336
32.12000 358.735
32.16000 357.016
32.20000 340.528
32.24000 332.144
32.28000 344.441
32.32000 349.664
32.36000 357.283
32.40000 321.610
32.44000 343.541
32.48000 342.283
32.52000 330.982
32.56000 337.564
32.60000 325.452
32.64000 323.740
32.68000 315.343
32.72000 332.726
32.76000 321.770
32.80000 330.058
32.84000 314.103
32.88000 310.326
32.92000 309.589
32.96000 298.972
33.00000 313.774
33.04000 291.984
33.08000 299.814
33.12000 304.870
33.16000 309.577
33.20000 307.115
33.24000 303.433
33.28000 286.390
33.32000 294.714
33.36000 299.171
33.40000 302.469
33.44000 286.108
33.48000 296.477
33.52000 321.428
33.56000 300.889
33.60000 303.043
33.64000 297.530
33.68000 304.381
33.72000 291.365
33.76000 286.381
33.80000 299.251
33.84000 278.707
33.88000 289.672
33.92000 279.751
33.96000 288.936
34.00000 284.327
34.04000 293.427
34.08000 306.967
34.12000 304.065
34.16000 278.352
34.20000 292.338
34.24000 289.630
34.28000 295.030
34.32000 289.200
34.36000 294.149
34.40000 277.238
34.44000 277.763
34.48000 288.824
34.52000 275.334
34.56000 275.010
34.60000 276.581
34.64000 277.259
34.68000 291.143
34.72000 276.009
34.76000 277.964
34.80000 274.393
34.84000 276.374
34.88000 272.998
34.92000 270.711
34.96000 273.517
35.00000 279.631
35.04000 268.888
35.08000 272.451
35.12000 274.470
35.16000 270.329
35.20000 283.909
35.24000 263.549
35.28000 260.129
35.32000 273.202
35.36000 262.153
35.40000 265.698
35.44000 280.343
35.48000 250.617
35.52000 272.725
35.56000 267.011
35.60000 261.830
35.64000 253.658
35.68000 273.558
35.72000 280.630
35.76000 255.412
35.80000 280.546
35.84000 255.571
35.88000 257.822
35.92000 259.497
35.96000 262.386
36.00000 262.024
36.04000 276.448
36.08000 259.728
36.12000 258.709
36.16000 268.417
36.20000 269.004
36.24000 263.125
36.28000 257.266
36.32000 271.178
36.36000 255.716
36.40000 259.798
36.44000 263.342
36.48000 257.530
36.52000 246.556
36.56000 267.094
36.60000 254.260
36.64000 268.623
36.68000 260.957
36.72000 242.480
36.76000 242.632
36.80000 256.889
36.84000 255.805
36.88000 261.709
36.92000 252.362
36.96000 252.604
37.00000 270.035
37.04000 273.315
37.08000 278.668
37.12000 277.365
37.16000 294.094
37.20000 282.908
37.24000 281.819
37.28000 254.805
37.32000 263.491
37.36000 248.793
37.40000 260.604
37.44000 262.510
37.48000 255.270
37.52000 268.678
37.56000 259.435
37.60000 246.686
37.64000 257.241
37.68000 252.289
37.72000 253.521
37.76000 255.838
37.80000 252.222
37.84000 265.783
37.88000 262.075
37.92000 248.372
37.96000 266.196
38.00000 262.475
38.04000 253.139
38.08000 257.811
38.12000 255.846
38.16000 247.228
38.20000 275.088
38.24000 264.274
38.28000 276.729
38.32000 286.980
38.36000 269.707
38.40000 277.669
38.44000 302.553
38.48000 310.873
38.52000 364.867
38.56000 411.714
38.60000 512.041
38.64000 593.342
38.68000 728.055
38.72000 895.367
38.76000 949.794
38.80000 967.710
38.84000 951.023
38.88000 852.827
38.92000 739.868
38.96000 621.925
39.00000 505.567
39.04000 410.602
39.08000 338.658
39.12000 309.287
39.16000 291.012
39.20000 257.370
39.24000 267.536
39.28000 249.897
39.32000 249.997
39.36000 247.767
39.40000 241.371
39.44000 250.345
39.48000 237.363
39.52000 240.934
39.56000 233.456
39.60000 233.857
39.64000 241.228
39.68000 222.186
39.72000 227.943
39.76000 232.452
39.80000 222.830
39.84000 226.665
39.88000 220.876
39.92000 224.657
39.96000 225.551
40.00000 228.349
40.04000 232.147
40.08000 219.496
40.12000 224.608
40.16000 222.950
40.20000 228.326
40.24000 236.788
40.28000 223.838
40.32000 221.027
40.36000 224.766
40.40000 225.756
40.44000 225.594
40.48000 232.519
40.52000 216.730
40.56000 210.101
40.60000 219.069
40.64000 219.069
40.68000 226.745
40.72000 231.060
40.76000 218.869
40.80000 220.065
40.84000 224.523
40.88000 222.295
40.92000 201.309
40.96000 209.233
41.00000 211.905
41.04000 205.920
41.08000 205.033
41.12000 217.060
41.16000 221.676
41.20000 210.236
41.24000 221.727
41.28000 203.557
41.32000 209.369
41.36000 215.356
41.40000 207.294
41.44000 221.454
41.48000 205.837
41.52000 205.569
41.56000 214.558
41.60000 205.582
41.64000 208.267
41.68000 214.992
41.72000 211.544
41.76000 212.284
41.80000 206.279
41.84000 219.593
41.88000 198.241
41.92000 205.064
41.96000 203.954
42.00000 212.378
42.04000 207.640
42.08000 207.100
42.12000 216.852
42.16000 214.722
42.20000 204.318
42.24000 207.325
42.28000 210.879
42.32000 209.924
42.36000 215.745
42.40000 197.461
42.44000 206.769
42.48000 212.769
42.52000 205.606
42.56000 203.723
42.60000 204.078
42.64000 206.690
42.68000 195.853
42.72000 196.438
42.76000 207.737
42.80000 209.975
42.84000 200.790
42.88000 210.134
42.92000 191.517
42.96000 200.962
43.00000 205.584
43.04000 193.216
43.08000 188.836
43.12000 197.936
43.16000 203.254
43.20000 215.963
43.24000 203.588
43.28000 186.876
43.32000 207.018
43.36000 194.928
43.40000 192.592
43.44000 201.560
43.48000 189.571
43.52000 190.721
43.56000 197.899
43.60000 202.617
43.64000 209.671
43.68000 205.182
43.72000 195.901
43.76000 196.439
43.80000 201.080
43.84000 187.654
43.88000 194.009
43.92000 198.316
43.96000 198.389
44.00000 197.603
44.04000 194.769
44.08000 202.306
44.12000 198.102
44.16000 200.159
44.20000 186.504
44.24000 187.947
44.28000 197.088
44.32000 199.149
44.36000 185.872
44.40000 201.445
44.44000 184.480
44.48000 185.460
44.52000 194.837
44.56000 215.281
44.60000 206.502
44.64000 212.691
44.68000 204.901
44.72000 201.076
44.76000 199.350
44.80000 207.161
44.84000 232.390
44.88000 229.967
44.92000 228.987
44.96000 240.303
45.00000 237.418
45.04000 252.346
45.08000 261.873
45.12000 274.065
45.16000 260.617
45.20000 279.074
45.24000 269.513
45.28000 259.587
45.32000 256.613
45.36000 257.339
45.40000 243.002
45.44000 239.575
45.48000 244.089
45.52000 231.086
45.56000 226.448
45.60000 222.776
45.64000 217.616
45.68000 211.666
45.72000 219.391
45.76000 194.924
45.80000 206.350
45.84000 195.760
45.88000 204.378
45.92000 198.928
45.96000 199.906
46.00000 204.426
46.04000 187.232
46.08000 185.958
46.12000 180.828
46.16000 179.916
46.20000 182.056
46.24000 190.305
46.28000 187.107
46.32000 178.198
46.36000 182.144
46.40000 183.292
46.44000 179.268
46.48000 178.760
46.52000 184.424
46.56000 176.198
46.60000 179.735
46.64000 183.485
46.68000 180.698
46.72000 164.383
46.76000 170.286
46.80000 172.847
46.84000 176.193
46.88000 169.517
46.92000 165.099
46.96000 181.054
47.00000 179.425
47.04000 175.601
47.08000 169.077
47.12000 171.060
47.16000 160.835
47.20000 170.066
47.24000 162.485
47.28000 169.272
47.32000 166.668
47.36000 171.431
47.40000 162.143
47.44000 165.674
47.48000 167.799
47.52000 163.763
47.56000 174.589
47.60000 165.367
47.64000 165.314
47.68000 160.966
47.72000 162.858
47.76000 165.136
47.80000 160.330
47.84000 149.387
47.88000 161.793
47.92000 158.891
47.96000 164.104
48.00000 160.955
48.04000 160.183
48.08000 167.202
48.12000 165.535
48.16000 166.101
48.20000 155.745
48.24000 158.770
48.28000 170.300
48.32000 167.451
48.36000 161.446
48.40000 149.509
48.44000 152.657
48.48000 145.754
48.52000 161.188
48.56000 146.857
48.60000 162.198
48.64000 159.404
48.68000 158.538
48.72000 152.332
48.76000 158.077
48.80000 159.781
48.84000 156.552
48.88000 149.748
48.92000 158.682
48.96000 161.226
49.00000 161.648
49.04000 157.161
49.08000 168.100
49.12000 146.781
49.16000 148.497
49.20000 148.806
49.24000 153.993
49.28000 163.135
49.32000 160.817
49.36000 148.421
49.40000 151.703
49.44000 150.885
49.48000 141.492
49.52000 150.071
49.56000 156.740
49.60000 154.914
49.64000 162.597
49.68000 158.484
49.72000 160.105
49.76000 154.736
49.80000 149.447
49.84000 153.256
49.88000 150.897
49.92000 154.527
49.96000 153.670
50.00000 152.669
50.04000 153.484
50.08000 150.859
50.12000 153.443
50.16000 152.354
50.20000 147.961
50.24000 159.668
50.28000 155.038
50.32000 149.534
50.36000 171.085
50.40000 153.453
50.44000 161.811
50.48000 154.337
50.52000 170.446
50.56000 165.430
50.60000 171.790
50.64000 175.099
50.68000 189.874
50.72000 190.918
50.76000 201.174
50.80000 194.769
50.84000 197.281
50.88000 199.152
50.92000 189.963
50.96000 187.789
51.00000 191.933
51.04000 178.792
51.08000 169.511
51.12000 164.910
51.16000 164.732
51.20000 159.516
51.24000 167.087
51.28000 148.399
51.32000 157.343
51.36000 146.744
51.40000 154.747
51.44000 142.735
51.48000 151.501
51.52000 151.181
51.56000 154.813
51.60000 149.807
51.64000 137.728
51.68000 146.588
51.72000 133.073
51.76000 142.884
51.80000 141.902
51.84000 143.775
51.88000 140.975
51.92000 145.044
51.96000 133.842
52.00000 136.707
52.04000 149.503
52.08000 145.422
52.12000 145.177
52.16000 137.628
52.20000 151.438
52.24000 144.997
52.28000 142.520
52.32000 137.639
52.36000 142.644
52.40000 144.088
52.44000 133.469
52.48000 137.917
52.52000 145.214
52.56000 142.669
52.60000 134.714
52.64000 143.005
52.68000 136.307
52.72000 135.426
52.76000 138.349
52.80000 145.635
52.84000 143.233
52.88000 142.702
52.92000 136.065
52.96000 140.456
53.00000 139.009
53.04000 142.562
53.08000 134.489
53.12000 128.011
53.16000 134.933
53.20000 144.110
53.24000 140.820
53.28000 157.067
53.32000 153.675
53.36000 148.992
53.40000 150.849
53.44000 150.624
53.48000 156.948
53.52000 148.676
53.56000 156.394
53.60000 152.552
53.64000 157.150
53.68000 142.440
53.72000 133.146
53.76000 144.596
53.80000 148.177
53.84000 143.077
53.88000 142.532
53.92000 138.020
53.96000 135.212
54.00000 134.621
54.04000 137.876
54.08000 127.824
54.12000 136.665
54.16000 134.693
54.20000 140.498
54.24000 141.955
54.28000 139.825
54.32000 133.989
54.36000 137.966
54.40000 122.750
54.44000 142.886
54.48000 145.229
54.52000 134.293
54.56000 138.883
54.60000 141.616
54.64000 130.823
54.68000 140.228
54.72000 134.939
54.76000 143.244
54.80000 138.730
54.84000 139.347
54.88000 139.262
54.92000 141.762
54.96000 139.760
55.00000 144.386
55.04000 146.941
55.08000 138.706
55.12000 135.630
55.16000 141.057
55.20000 139.579
55.24000 134.877
55.28000 148.640
55.32000 154.601
55.36000 147.490
55.40000 154.743
55.44000 150.918
55.48000 157.645
55.52000 160.285
55.56000 161.751
55.60000 171.748
55.64000 180.327
55.68000 204.259
55.72000 219.713
55.76000 244.569
55.80000 262.527
55.84000 327.182
55.88000 377.792
55.92000 440.587
55.96000 498.788
56.00000 530.077
56.04000 597.476
56.08000 578.221
56.12000 582.013
56.16000 546.366
56.20000 491.636
56.24000 436.074
56.28000 377.575
56.32000 343.738
56.36000 305.460
56.40000 245.185
56.44000 232.383
56.48000 211.256
56.52000 174.652
56.56000 177.791
56.60000 169.599
56.64000 154.971
56.68000 160.363
56.72000 151.098
56.76000 150.605
56.80000 144.748
56.84000 133.080
56.88000 139.563
56.92000 145.821
56.96000 129.881
57.00000 135.792
57.04000 122.346
57.08000 133.209
57.12000 126.956
57.16000 128.616
57.20000 134.926
57.24000 127.784
57.28000 136.987
57.32000 134.526
57.36000 132.061
57.40000 125.952
57.44000 142.393
57.48000 130.768
57.52000 134.384
57.56000 125.170
57.60000 129.495
57.64000 129.690
57.68000 120.735
57.72000 128.400
57.76000 131.920
57.80000 118.558
57.84000 114.792
57.88000 124.182
57.92000 116.664
57.96000 121.229
58.00000 119.947
58.04000 129.739
58.08000 124.487
58.12000 122.991
58.16000 134.185
58.20000 128.464
58.24000 125.975
58.28000 125.418
58.32000 127.635
58.36000 128.378
58.40000 120.772
58.44000 116.314
58.48000 115.779
58.52000 118.911
58.56000 119.127
58.60000 120.609
58.64000 122.404
58.68000 123.820
58.72000 107.521
58.76000 123.078
58.80000 108.822
58.84000 123.278
58.88000 111.693
58.92000 118.786
58.96000 114.773
59.00000 116.286
59.04000 119.288
59.08000 135.741
59.12000 122.939
59.16000 126.308
59.20000 118.946
59.24000 115.888
59.28000 122.795
59.32000 118.984
59.36000 123.310
59.40000 120.320
59.44000 122.677
59.48000 126.670
59.52000 116.976
59.56000 117.730
59.60000 126.520
59.64000 122.319
59.68000 126.962
59.72000 121.585
59.76000 123.688
59.80000 128.144
59.84000 113.891
59.88000 119.420
59.92000 114.486
59.96000 114.004
60.00000 115.190
60.04000 117.346
60.08000 116.953
60.12000 104.901
60.16000 126.220
60.20000 108.140
60.24000 103.054
60.28000 117.132
60.32000 117.394
60.36000 119.754
60.40000 127.107
60.44000 121.598
60.48000 117.009
60.52000 118.068
60.56000 114.447
60.60000 113.406
60.64000 121.491
60.68000 114.802
60.72000 115.978
60.76000 119.030
60.80000 119.751
60.84000 121.298
60.88000 121.918
60.92000 117.914
60.96000 127.057
61.00000 117.429
61.04000 115.742
61.08000 128.671
61.12000 126.866
61.16000 132.282
61.20000 122.991
61.24000 133.464
61.28000 123.552
61.32000 129.908
61.36000 122.768
61.40000 123.578
61.44000 127.997
61.48000 131.142
61.52000 164.128
61.56000 208.504
61.60000 264.775
61.64000 286.141
61.68000 296.959
61.72000 298.997
61.76000 279.683
61.80000 217.211
61.84000 174.364
61.88000 153.751
61.92000 134.251
61.96000 135.240
62.00000 126.546
62.04000 132.107
62.08000 131.475
62.12000 130.861
62.16000 135.983
62.20000 123.689
62.24000 130.335
62.28000 125.321
62.32000 132.919
62.36000 128.457
62.40000 114.149
62.44000 133.370
62.48000 135.702
62.52000 134.678
62.56000 127.009
62.60000 139.956
62.64000 131.809
62.68000 134.164
62.72000 138.222
62.76000 132.558
62.80000 135.877
62.84000 123.033
62.88000 127.658
62.92000 126.446
62.96000 136.607
63.00000 132.541
63.04000 140.579
63.08000 131.399
63.12000 125.620
63.16000 142.848
63.20000 135.712
63.24000 131.002
63.28000 134.498
63.32000 135.585
63.36000 134.302
63.40000 135.056
63.44000 128.858
63.48000 139.550
63.52000 140.100
63.56000 141.429
63.60000 129.376
63.64000 141.950
63.68000 139.077
63.72000 142.321
63.76000 151.357
63.80000 139.508
63.84000 134.960
63.88000 148.115
63.92000 146.215
63.96000 154.160
64.00000 143.035
64.04000 142.030
64.08000 132.563
64.12000 154.840
64.16000 157.105
64.20000 143.519
64.24000 156.943
64.28000 163.687
64.32000 146.820
64.36000 153.414
64.40000 159.379
64.44000 161.827
64.48000 164.676
64.52000 154.670
64.56000 164.970
64.60000 161.698
64.64000 176.096
64.68000 166.509
64.72000 171.933
64.76000 174.938
64.80000 172.664
64.84000 184.498
64.88000 177.732
64.92000 183.860
64.96000 176.989
65.00000 182.152
65.04000 185.849
65.08000 189.831
65.12000 189.895
65.16000 202.089
65.20000 213.067
65.24000 214.537
65.28000 216.467
65.32000 228.171
65.36000 241.602
65.40000 263.341
65.44000 273.809
65.48000 282.571
65.52000 324.836
65.56000 364.479
65.60000 394.386
65.64000 448.699
65.68000 622.089
65.72000 931.014
65.76000 1444.165
65.80000 1795.089
65.84000 1997.286
65.88000 2027.214
65.92000 1914.755
65.96000 1590.691
66.00000 1094.782
66.04000 676.560
66.08000 507.712
66.12000 444.562
66.16000 395.690
66.20000 370.071
66.24000 407.435
66.28000 483.630
66.32000 539.154
66.36000 612.556
66.40000 644.696
66.44000 654.975
66.48000 611.531
66.52000 574.969
66.56000 456.039
66.60000 404.784
66.64000 379.960
66.68000 361.816
66.72000 371.622
66.76000 344.508
66.80000 373.730
66.84000 365.479
66.88000 356.002
66.92000 362.634
66.96000 373.414
67.00000 393.887
67.04000 367.631
67.08000 380.411
67.12000 388.307
67.16000 389.996
67.20000 403.656
67.24000 394.368
67.28000 405.794
67.32000 409.885
67.36000 421.536
67.40000 428.399
67.44000 421.935
67.48000 428.449
67.52000 417.050
67.56000 449.183
67.60000 435.221
67.64000 435.916
67.68000 457.630
67.72000 483.947
67.76000 468.271
67.80000 474.162
67.84000 482.384
67.88000 480.441
67.92000 517.700
67.96000 501.490
68.00000 514.386
68.04000 523.462
68.08000 535.778
68.12000 538.097
68.16000 551.810
68.20000 563.198
68.24000 597.879
68.28000 601.616
68.32000 603.309
68.36000 629.111
68.40000 645.378
68.44000 667.148
68.48000 709.023
68.52000 751.547
68.56000 786.998
68.60000 927.420
68.64000 1036.876
68.68000 1178.169
68.72000 1414.972
68.76000 1600.038
68.80000 1829.300
68.84000 2130.527
68.88000 2655.934
68.92000 4302.404
68.96000 10031.381
69.00000 23327.584
69.04000 37137.434
69.08000 44132.344
69.12000 46867.043
69.16000 49940.500
69.20000 49553.109
69.24000 40263.109
69.28000 29807.031
69.32000 24415.521
69.36000 22668.635
69.40000 18912.799
69.44000 11568.973
69.48000 5086.745
69.52000 2435.146
69.56000 1498.533
69.60000 1173.538
69.64000 994.941
69.68000 840.630
69.72000 792.374
69.76000 719.984
69.80000 667.705
69.84000 614.646
69.88000 593.142
69.92000 557.358
69.96000 529.030
70.00000 502.918