File: XRD/09-10-2025 Dep 8/XY Data/BTO_Mapping_Theta2Theta_09-10-2025_001_38_-8-090_-5-878.xy
20.00000 495.851
20.04000 504.319
20.08000 502.098
20.12000 481.448
20.16000 494.351
20.20000 488.852
20.24000 499.850
20.28000 482.294
20.32000 467.474
20.36000 489.091
20.40000 468.732
20.44000 490.651
20.48000 492.047
20.52000 483.326
20.56000 474.972
20.60000 487.584
20.64000 487.427
20.68000 484.826
20.72000 495.422
20.76000 479.318
20.80000 474.481
20.84000 491.827
20.88000 468.281
20.92000 478.495
20.96000 477.250
21.00000 481.284
21.04000 499.730
21.08000 481.417
21.12000 468.906
21.16000 499.561
21.20000 478.992
21.24000 495.798
21.28000 489.308
21.32000 485.615
21.36000 468.232
21.40000 478.842
21.44000 479.622
21.48000 469.623
21.52000 487.009
21.56000 484.832
21.60000 482.919
21.64000 476.646
21.68000 513.254
21.72000 523.309
21.76000 531.643
21.80000 534.294
21.84000 571.722
21.88000 597.386
21.92000 616.248
21.96000 664.750
22.00000 662.830
22.04000 682.684
22.08000 698.385
22.12000 683.992
22.16000 648.871
22.20000 624.327
22.24000 617.193
22.28000 583.428
22.32000 553.469
22.36000 519.528
22.40000 511.103
22.44000 496.253
22.48000 501.439
22.52000 480.707
22.56000 477.599
22.60000 480.296
22.64000 471.159
22.68000 476.182
22.72000 461.072
22.76000 444.215
22.80000 439.912
22.84000 449.774
22.88000 454.426
22.92000 430.597
22.96000 440.121
23.00000 437.202
23.04000 451.907
23.08000 430.408
23.12000 448.604
23.16000 450.472
23.20000 470.285
23.24000 443.330
23.28000 434.314
23.32000 449.015
23.36000 434.708
23.40000 433.910
23.44000 450.975
23.48000 441.468
23.52000 435.545
23.56000 442.988
23.60000 425.955
23.64000 422.836
23.68000 429.174
23.72000 445.323
23.76000 414.802
23.80000 427.835
23.84000 432.078
23.88000 440.278
23.92000 426.956
23.96000 419.583
24.00000 423.586
24.04000 430.220
24.08000 421.829
24.12000 418.915
24.16000 422.629
24.20000 414.400
24.24000 424.131
24.28000 422.583
24.32000 420.283
24.36000 433.610
24.40000 428.444
24.44000 415.596
24.48000 410.797
24.52000 426.484
24.56000 434.429
24.60000 420.088
24.64000 417.373
24.68000 421.276
24.72000 429.655
24.76000 421.294
24.80000 421.207
24.84000 416.966
24.88000 401.742
24.92000 408.935
24.96000 404.277
25.00000 410.069
25.04000 410.427
25.08000 430.480
25.12000 406.052
25.16000 414.751
25.20000 386.672
25.24000 406.250
25.28000 407.303
25.32000 403.064
25.36000 420.640
25.40000 411.608
25.44000 406.229
25.48000 402.162
25.52000 435.639
25.56000 416.069
25.60000 435.770
25.64000 407.509
25.68000 398.221
25.72000 386.648
25.76000 401.198
25.80000 405.482
25.84000 396.252
25.88000 401.244
25.92000 403.474
25.96000 400.535
26.00000 412.772
26.04000 418.647
26.08000 392.932
26.12000 402.085
26.16000 376.679
26.20000 390.038
26.24000 394.368
26.28000 402.597
26.32000 408.151
26.36000 406.233
26.40000 417.037
26.44000 393.463
26.48000 400.228
26.52000 409.317
26.56000 400.689
26.60000 396.018
26.64000 380.719
26.68000 401.551
26.72000 394.403
26.76000 379.004
26.80000 385.167
26.84000 382.553
26.88000 387.145
26.92000 399.397
26.96000 391.261
27.00000 383.479
27.04000 381.485
27.08000 370.613
27.12000 397.046
27.16000 382.919
27.20000 384.704
27.24000 400.449
27.28000 367.470
27.32000 387.502
27.36000 383.988
27.40000 389.047
27.44000 378.177
27.48000 391.397
27.52000 385.462
27.56000 382.807
27.60000 365.781
27.64000 377.184
27.68000 399.993
27.72000 385.151
27.76000 377.260
27.80000 370.933
27.84000 378.117
27.88000 371.576
27.92000 376.057
27.96000 381.608
28.00000 368.686
28.04000 383.669
28.08000 381.341
28.12000 377.202
28.16000 367.860
28.20000 374.093
28.24000 389.296
28.28000 373.381
28.32000 390.053
28.36000 360.826
28.40000 376.192
28.44000 366.139
28.48000 375.061
28.52000 386.044
28.56000 376.368
28.60000 381.062
28.64000 358.879
28.68000 369.604
28.72000 386.310
28.76000 367.443
28.80000 360.754
28.84000 362.363
28.88000 362.326
28.92000 380.221
28.96000 382.764
29.00000 361.560
29.04000 374.585
29.08000 368.602
29.12000 352.394
29.16000 358.274
29.20000 372.409
29.24000 356.820
29.28000 384.040
29.32000 377.073
29.36000 365.507
29.40000 367.464
29.44000 368.446
29.48000 361.853
29.52000 359.489
29.56000 373.865
29.60000 372.200
29.64000 351.211
29.68000 364.384
29.72000 378.041
29.76000 371.816
29.80000 401.116
29.84000 392.826
29.88000 399.449
29.92000 422.666
29.96000 442.049
30.00000 456.402
30.04000 458.698
30.08000 454.495
30.12000 442.454
30.16000 424.957
30.20000 441.704
30.24000 415.889
30.28000 419.777
30.32000 402.811
30.36000 404.387
30.40000 385.640
30.44000 407.522
30.48000 396.898
30.52000 378.362
30.56000 383.667
30.60000 390.811
30.64000 408.786
30.68000 415.522
30.72000 415.396
30.76000 418.909
30.80000 441.431
30.84000 434.572
30.88000 459.711
30.92000 469.413
30.96000 523.187
31.00000 568.878
31.04000 627.459
31.08000 735.243
31.12000 902.323
31.16000 1141.584
31.20000 1426.226
31.24000 1824.634
31.28000 2279.998
31.32000 2684.635
31.36000 2911.018
31.40000 2983.004
31.44000 2933.070
31.48000 2611.555
31.52000 2215.013
31.56000 1728.157
31.60000 1397.042
31.64000 1079.026
31.68000 855.174
31.72000 690.847
31.76000 607.068
31.80000 551.359
31.84000 488.038
31.88000 438.608
31.92000 400.705
31.96000 415.789
32.00000 388.330
32.04000 378.755
32.08000 369.823
32.12000 363.221
32.16000 359.074
32.20000 365.181
32.24000 350.189
32.28000 353.706
32.32000 355.912
32.36000 356.997
32.40000 345.031
32.44000 346.121
32.48000 345.305
32.52000 357.886
32.56000 343.189
32.60000 340.924
32.64000 332.978
32.68000 337.175
32.72000 330.775
32.76000 343.011
32.80000 312.551
32.84000 319.034
32.88000 324.760
32.92000 331.656
32.96000 325.007
33.00000 325.862
33.04000 303.939
33.08000 316.698
33.12000 317.025
33.16000 308.632
33.20000 314.776
33.24000 305.265
33.28000 315.956
33.32000 318.023
33.36000 305.460
33.40000 311.795
33.44000 300.133
33.48000 298.540
33.52000 301.838
33.56000 306.550
33.60000 285.098
33.64000 288.985
33.68000 294.865
33.72000 302.944
33.76000 296.968
33.80000 296.053
33.84000 293.351
33.88000 294.199
33.92000 321.529
33.96000 300.919
34.00000 307.279
34.04000 297.339
34.08000 303.402
34.12000 296.923
34.16000 272.196
34.20000 287.068
34.24000 298.935
34.28000 308.883
34.32000 295.040
34.36000 300.717
34.40000 276.152
34.44000 289.109
34.48000 281.314
34.52000 292.650
34.56000 288.184
34.60000 291.157
34.64000 279.260
34.68000 288.118
34.72000 282.602
34.76000 293.285
34.80000 284.038
34.84000 289.719
34.88000 295.366
34.92000 279.910
34.96000 268.836
35.00000 281.791
35.04000 278.081
35.08000 274.495
35.12000 271.407
35.16000 266.626
35.20000 280.503
35.24000 280.023
35.28000 272.031
35.32000 272.544
35.36000 284.112
35.40000 277.070
35.44000 263.692
35.48000 271.224
35.52000 271.555
35.56000 284.221
35.60000 260.090
35.64000 267.214
35.68000 264.320
35.72000 270.523
35.76000 267.912
35.80000 255.376
35.84000 271.353
35.88000 269.187
35.92000 251.362
35.96000 270.043
36.00000 264.156
36.04000 268.022
36.08000 263.373
36.12000 259.324
36.16000 265.580
36.20000 271.446
36.24000 266.361
36.28000 256.702
36.32000 250.483
36.36000 259.965
36.40000 251.327
36.44000 280.062
36.48000 269.650
36.52000 262.367
36.56000 268.693
36.60000 255.136
36.64000 256.732
36.68000 261.517
36.72000 255.039
36.76000 283.527
36.80000 270.813
36.84000 278.702
36.88000 274.168
36.92000 278.164
36.96000 283.029
37.00000 278.018
37.04000 290.505
37.08000 301.746
37.12000 292.676
37.16000 276.616
37.20000 273.971
37.24000 270.576
37.28000 278.623
37.32000 269.688
37.36000 265.288
37.40000 263.066
37.44000 266.234
37.48000 264.048
37.52000 256.303
37.56000 248.670
37.60000 269.398
37.64000 266.491
37.68000 257.415
37.72000 254.443
37.76000 262.849
37.80000 269.581
37.84000 258.425
37.88000 262.542
37.92000 268.116
37.96000 266.515
38.00000 284.845
38.04000 278.294
38.08000 271.483
38.12000 263.534
38.16000 285.027
38.20000 291.238
38.24000 293.264
38.28000 299.120
38.32000 318.090
38.36000 336.831
38.40000 366.929
38.44000 415.774
38.48000 487.837
38.52000 563.860
38.56000 677.741
38.60000 790.953
38.64000 882.672
38.68000 981.727
38.72000 993.396
38.76000 925.029
38.80000 835.002
38.84000 742.471
38.88000 615.985
38.92000 511.882
38.96000 426.098
39.00000 379.462
39.04000 323.551
39.08000 314.842
39.12000 309.634
39.16000 269.089
39.20000 270.899
39.24000 267.494
39.28000 261.094
39.32000 261.407
39.36000 261.910
39.40000 268.095
39.44000 242.098
39.48000 242.861
39.52000 243.528
39.56000 251.697
39.60000 244.255
39.64000 231.161
39.68000 246.897
39.72000 228.807
39.76000 235.318
39.80000 247.331
39.84000 250.706
39.88000 240.569
39.92000 235.568
39.96000 238.243
40.00000 237.736
40.04000 225.984
40.08000 246.012
40.12000 230.917
40.16000 230.115
40.20000 234.500
40.24000 239.860
40.28000 227.637
40.32000 227.815
40.36000 242.645
40.40000 223.878
40.44000 222.701
40.48000 228.372
40.52000 222.302
40.56000 231.664
40.60000 224.441
40.64000 231.970
40.68000 215.028
40.72000 229.010
40.76000 224.064
40.80000 217.719
40.84000 220.517
40.88000 217.503
40.92000 222.646
40.96000 225.719
41.00000 207.071
41.04000 209.198
41.08000 209.247
41.12000 198.992
41.16000 210.999
41.20000 220.846
41.24000 209.494
41.28000 223.955
41.32000 219.177
41.36000 218.576
41.40000 218.495
41.44000 222.758
41.48000 217.787
41.52000 209.963
41.56000 227.487
41.60000 229.932
41.64000 222.376
41.68000 208.059
41.72000 216.168
41.76000 217.187
41.80000 211.043
41.84000 217.701
41.88000 210.828
41.92000 201.989
41.96000 203.562
42.00000 205.082
42.04000 217.039
42.08000 208.233
42.12000 219.925
42.16000 206.127
42.20000 207.704
42.24000 211.571
42.28000 216.736
42.32000 215.089
42.36000 206.560
42.40000 209.305
42.44000 206.811
42.48000 194.678
42.52000 202.210
42.56000 200.041
42.60000 204.891
42.64000 199.748
42.68000 196.626
42.72000 197.346
42.76000 221.411
42.80000 207.669
42.84000 216.147
42.88000 200.113
42.92000 204.764
42.96000 189.811
43.00000 206.783
43.04000 207.560
43.08000 201.395
43.12000 217.739
43.16000 211.962
43.20000 214.642
43.24000 202.560
43.28000 204.018
43.32000 200.616
43.36000 206.920
43.40000 212.287
43.44000 202.936
43.48000 206.951
43.52000 201.800
43.56000 189.959
43.60000 207.129
43.64000 201.951
43.68000 199.364
43.72000 206.766
43.76000 195.591
43.80000 193.045
43.84000 197.615
43.88000 203.006
43.92000 208.427
43.96000 197.973
44.00000 201.652
44.04000 202.831
44.08000 202.308
44.12000 199.977
44.16000 200.381
44.20000 187.941
44.24000 211.348
44.28000 195.453
44.32000 206.630
44.36000 213.187
44.40000 204.314
44.44000 206.325
44.48000 214.262
44.52000 214.812
44.56000 220.663
44.60000 226.334
44.64000 218.371
44.68000 230.383
44.72000 241.696
44.76000 258.406
44.80000 276.932
44.84000 294.231
44.88000 304.566
44.92000 342.591
44.96000 356.726
45.00000 377.758
45.04000 378.366
45.08000 394.809
45.12000 393.082
45.16000 360.593
45.20000 367.802
45.24000 343.199
45.28000 332.214
45.32000 317.331
45.36000 296.090
45.40000 262.767
45.44000 269.816
45.48000 250.684
45.52000 253.725
45.56000 235.762
45.60000 233.404
45.64000 210.640
45.68000 207.587
45.72000 201.895
45.76000 217.372
45.80000 205.413
45.84000 193.995
45.88000 211.053
45.92000 189.493
45.96000 197.306
46.00000 196.657
46.04000 191.326
46.08000 195.154
46.12000 191.280
46.16000 186.892
46.20000 179.626
46.24000 188.978
46.28000 174.833
46.32000 191.134
46.36000 174.390
46.40000 184.020
46.44000 176.469
46.48000 176.455
46.52000 170.250
46.56000 165.790
46.60000 167.917
46.64000 172.450
46.68000 173.994
46.72000 170.302
46.76000 176.614
46.80000 162.120
46.84000 168.180
46.88000 161.398
46.92000 179.022
46.96000 165.594
47.00000 174.548
47.04000 179.349
47.08000 167.220
47.12000 167.704
47.16000 165.738
47.20000 159.607
47.24000 147.840
47.28000 179.138
47.32000 175.371
47.36000 173.140
47.40000 164.437
47.44000 164.539
47.48000 165.722
47.52000 174.150
47.56000 173.466
47.60000 173.001
47.64000 174.508
47.68000 167.836
47.72000 166.364
47.76000 179.777
47.80000 161.947
47.84000 161.457
47.88000 170.996
47.92000 171.603
47.96000 159.109
48.00000 175.161
48.04000 167.435
48.08000 160.391
48.12000 165.552
48.16000 172.898
48.20000 153.829
48.24000 162.663
48.28000 174.295
48.32000 168.596
48.36000 164.454
48.40000 161.576
48.44000 168.794
48.48000 162.655
48.52000 162.899
48.56000 171.664
48.60000 163.096
48.64000 167.237
48.68000 164.342
48.72000 165.042
48.76000 171.374
48.80000 170.958
48.84000 164.488
48.88000 158.734
48.92000 152.482
48.96000 150.454
49.00000 163.943
49.04000 160.157
49.08000 162.291
49.12000 167.998
49.16000 161.917
49.20000 145.698
49.24000 160.666
49.28000 158.197
49.32000 155.552
49.36000 163.313
49.40000 149.537
49.44000 154.771
49.48000 162.203
49.52000 156.130
49.56000 169.988
49.60000 156.871
49.64000 158.441
49.68000 157.936
49.72000 154.471
49.76000 167.014
49.80000 159.711
49.84000 161.254
49.88000 161.077
49.92000 157.721
49.96000 150.716
50.00000 159.136
50.04000 169.732
50.08000 154.894
50.12000 143.989
50.16000 176.403
50.20000 162.596
50.24000 158.214
50.28000 169.707
50.32000 163.007
50.36000 165.615
50.40000 170.117
50.44000 178.599
50.48000 181.153
50.52000 198.239
50.56000 217.984
50.60000 213.545
50.64000 236.614
50.68000 237.623
50.72000 242.089
50.76000 247.230
50.80000 233.742
50.84000 226.185
50.88000 213.300
50.92000 213.390
50.96000 184.603
51.00000 190.546
51.04000 183.870
51.08000 176.770
51.12000 170.351
51.16000 173.894
51.20000 172.903
51.24000 173.899
51.28000 167.353
51.32000 169.272
51.36000 155.860
51.40000 154.393
51.44000 152.931
51.48000 160.296
51.52000 151.083
51.56000 151.665
51.60000 152.670
51.64000 148.653
51.68000 144.149
51.72000 150.216
51.76000 145.319
51.80000 143.880
51.84000 145.344
51.88000 147.874
51.92000 144.309
51.96000 138.292
52.00000 153.315
52.04000 141.940
52.08000 151.520
52.12000 143.692
52.16000 141.235
52.20000 151.044
52.24000 139.704
52.28000 146.432
52.32000 139.641
52.36000 147.969
52.40000 133.614
52.44000 137.400
52.48000 141.366
52.52000 142.921
52.56000 132.469
52.60000 148.291
52.64000 134.956
52.68000 143.488
52.72000 143.397
52.76000 150.647
52.80000 151.469
52.84000 145.253
52.88000 139.827
52.92000 138.760
52.96000 144.779
53.00000 142.173
53.04000 141.048
53.08000 139.176
53.12000 150.446
53.16000 145.495
53.20000 143.089
53.24000 149.738
53.28000 152.321
53.32000 148.720
53.36000 154.843
53.40000 155.332
53.44000 139.786
53.48000 164.444
53.52000 145.624
53.56000 143.886
53.60000 149.381
53.64000 150.295
53.68000 153.147
53.72000 149.267
53.76000 138.486
53.80000 145.234
53.84000 140.289
53.88000 146.306
53.92000 145.559
53.96000 148.324
54.00000 141.494
54.04000 139.262
54.08000 138.604
54.12000 134.366
54.16000 135.777
54.20000 156.639
54.24000 138.958
54.28000 144.642
54.32000 139.333
54.36000 139.705
54.40000 136.648
54.44000 142.143
54.48000 145.891
54.52000 148.988
54.56000 139.720
54.60000 147.235
54.64000 151.198
54.68000 145.674
54.72000 137.686
54.76000 140.518
54.80000 151.637
54.84000 137.973
54.88000 134.816
54.92000 144.890
54.96000 149.881
55.00000 147.517
55.04000 149.782
55.08000 152.253
55.12000 139.321
55.16000 148.840
55.20000 148.374
55.24000 149.506
55.28000 152.268
55.32000 156.387
55.36000 160.384
55.40000 167.792
55.44000 172.317
55.48000 187.676
55.52000 194.268
55.56000 197.840
55.60000 227.380
55.64000 271.139
55.68000 296.843
55.72000 336.588
55.76000 377.622
55.80000 437.819
55.84000 489.188
55.88000 528.177
55.92000 574.043
55.96000 588.456
56.00000 576.771
56.04000 538.483
56.08000 516.534
56.12000 450.860
56.16000 378.668
56.20000 340.558
56.24000 309.118
56.28000 272.119
56.32000 244.170
56.36000 219.988
56.40000 210.085
56.44000 199.562
56.48000 193.555
56.52000 166.624
56.56000 166.725
56.60000 153.143
56.64000 150.919
56.68000 153.180
56.72000 152.526
56.76000 148.034
56.80000 140.592
56.84000 143.066
56.88000 139.136
56.92000 131.185
56.96000 131.693
57.00000 131.001
57.04000 142.769
57.08000 140.249
57.12000 137.855
57.16000 133.685
57.20000 136.486
57.24000 132.903
57.28000 134.674
57.32000 129.359
57.36000 127.987
57.40000 129.279
57.44000 132.056
57.48000 133.562
57.52000 130.808
57.56000 135.084
57.60000 127.713
57.64000 132.442
57.68000 130.071
57.72000 131.413
57.76000 126.710
57.80000 134.026
57.84000 124.764
57.88000 131.028
57.92000 128.221
57.96000 134.464
58.00000 128.904
58.04000 135.345
58.08000 123.755
58.12000 120.410
58.16000 122.792
58.20000 123.910
58.24000 123.490
58.28000 126.603
58.32000 135.522
58.36000 130.431
58.40000 131.228
58.44000 135.574
58.48000 127.350
58.52000 122.762
58.56000 121.639
58.60000 130.002
58.64000 120.915
58.68000 125.621
58.72000 121.687
58.76000 124.152
58.80000 127.290
58.84000 112.034
58.88000 108.603
58.92000 124.261
58.96000 122.276
59.00000 126.461
59.04000 127.127
59.08000 120.322
59.12000 118.320
59.16000 119.533
59.20000 116.971
59.24000 121.275
59.28000 126.220
59.32000 118.857
59.36000 122.411
59.40000 126.906
59.44000 112.580
59.48000 128.489
59.52000 117.627
59.56000 115.004
59.60000 123.973
59.64000 119.292
59.68000 117.061
59.72000 131.223
59.76000 123.147
59.80000 124.155
59.84000 125.792
59.88000 125.382
59.92000 136.445
59.96000 113.311
60.00000 122.063
60.04000 126.674
60.08000 122.528
60.12000 111.849
60.16000 114.457
60.20000 123.612
60.24000 125.347
60.28000 108.395
60.32000 113.923
60.36000 116.298
60.40000 126.059
60.44000 120.348
60.48000 115.064
60.52000 113.128
60.56000 121.536
60.60000 119.874
60.64000 100.000
60.68000 109.765
60.72000 128.221
60.76000 113.500
60.80000 110.558
60.84000 118.112
60.88000 119.760
60.92000 123.296
60.96000 124.727
61.00000 124.377
61.04000 137.233
61.08000 126.820
61.12000 123.858
61.16000 127.363
61.20000 122.442
61.24000 128.440
61.28000 126.937
61.32000 121.095
61.36000 131.029
61.40000 126.790
61.44000 132.222
61.48000 144.175
61.52000 193.126
61.56000 280.663
61.60000 349.012
61.64000 409.429
61.68000 449.022
61.72000 430.706
61.76000 390.639
61.80000 280.271
61.84000 200.877
61.88000 162.771
61.92000 146.245
61.96000 133.311
62.00000 140.859
62.04000 140.510
62.08000 135.746
62.12000 133.237
62.16000 128.654
62.20000 128.649
62.24000 131.168
62.28000 135.567
62.32000 141.978
62.36000 133.867
62.40000 132.181
62.44000 132.273
62.48000 125.996
62.52000 134.041
62.56000 143.279
62.60000 134.244
62.64000 139.535
62.68000 137.895
62.72000 132.591
62.76000 138.002
62.80000 140.104
62.84000 139.409
62.88000 137.258
62.92000 145.417
62.96000 140.857
63.00000 145.079
63.04000 133.874
63.08000 138.815
63.12000 154.015
63.16000 151.040
63.20000 153.036
63.24000 133.631
63.28000 132.739
63.32000 136.166
63.36000 152.847
63.40000 146.477
63.44000 135.343
63.48000 147.074
63.52000 127.173
63.56000 143.229
63.60000 152.291
63.64000 142.127
63.68000 147.302
63.72000 146.693
63.76000 144.919
63.80000 156.250
63.84000 151.739
63.88000 142.485
63.92000 142.914
63.96000 157.822
64.00000 155.698
64.04000 148.944
64.08000 149.537
64.12000 158.171
64.16000 170.457
64.20000 162.521
64.24000 157.154
64.28000 155.434
64.32000 166.009
64.36000 161.602
64.40000 161.936
64.44000 170.873
64.48000 172.625
64.52000 178.672
64.56000 172.088
64.60000 178.384
64.64000 187.368
64.68000 193.959
64.72000 172.908
64.76000 190.658
64.80000 195.552
64.84000 185.541
64.88000 201.251
64.92000 205.694
64.96000 208.891
65.00000 215.872
65.04000 220.801
65.08000 231.654
65.12000 243.247
65.16000 249.847
65.20000 265.194
65.24000 280.335
65.28000 299.599
65.32000 322.507
65.36000 355.541
65.40000 373.189
65.44000 406.971
65.48000 449.688
65.52000 482.046
65.56000 525.564
65.60000 578.890
65.64000 702.573
65.68000 1018.201
65.72000 1601.660
65.76000 2346.252
65.80000 2941.771
65.84000 3208.093
65.88000 3155.886
65.92000 3002.698
65.96000 2327.615
66.00000 1508.761
66.04000 945.009
66.08000 664.881
66.12000 522.228
66.16000 506.460
66.20000 517.360
66.24000 558.511
66.28000 646.831
66.32000 799.571
66.36000 904.159
66.40000 913.602
66.44000 915.125
66.48000 864.922
66.52000 747.165
66.56000 617.804
66.60000 501.911
66.64000 462.623
66.68000 453.668
66.72000 435.567
66.76000 436.883
66.80000 462.990
66.84000 454.300
66.88000 457.874
66.92000 461.287
66.96000 440.790
67.00000 462.694
67.04000 482.908
67.08000 492.570
67.12000 477.994
67.16000 477.482
67.20000 495.095
67.24000 515.804
67.28000 489.288
67.32000 504.916
67.36000 522.663
67.40000 530.863
67.44000 530.730
67.48000 548.868
67.52000 555.721
67.56000 551.874
67.60000 553.552
67.64000 541.767
67.68000 566.930
67.72000 572.507
67.76000 572.524
67.80000 587.308
67.84000 602.738
67.88000 610.405
67.92000 636.776
67.96000 622.843
68.00000 625.798
68.04000 657.578
68.08000 640.186
68.12000 662.525
68.16000 695.141
68.20000 691.658
68.24000 700.544
68.28000 750.828
68.32000 758.088
68.36000 778.474
68.40000 780.268
68.44000 837.953
68.48000 872.230
68.52000 924.151
68.56000 1045.655
68.60000 1197.071
68.64000 1408.629
68.68000 1665.446
68.72000 1955.042
68.76000 2227.152
68.80000 2608.430
68.84000 3164.837
68.88000 4298.517
68.92000 7873.045
68.96000 18920.779
69.00000 40318.234
69.04000 61175.145
69.08000 71690.930
69.12000 76403.906
69.16000 80691.531
69.20000 77338.023
69.24000 61393.027
69.28000 46988.340
69.32000 38638.059
69.36000 35499.000
69.40000 28386.480
69.44000 16485.328
69.48000 7239.161
69.52000 3275.091
69.56000 1975.535
69.60000 1487.610
69.64000 1243.431
69.68000 1072.905
69.72000 963.924
69.76000 862.209
69.80000 800.607
69.84000 722.236
69.88000 676.845
69.92000 667.323
69.96000 646.015
70.00000 600.132