File: XRD/09-10-2025 Dep 8/XY Data/BTO_Mapping_Theta2Theta_09-10-2025_001_22_-5-000_8-660.xy
20.00000 486.298
20.04000 488.697
20.08000 493.853
20.12000 503.059
20.16000 488.772
20.20000 481.641
20.24000 476.781
20.28000 490.368
20.32000 486.291
20.36000 494.014
20.40000 471.571
20.44000 482.667
20.48000 482.132
20.52000 484.248
20.56000 473.135
20.60000 483.055
20.64000 475.745
20.68000 472.484
20.72000 494.930
20.76000 479.856
20.80000 474.610
20.84000 486.026
20.88000 466.060
20.92000 479.725
20.96000 468.499
21.00000 495.189
21.04000 479.387
21.08000 464.594
21.12000 477.372
21.16000 489.436
21.20000 480.434
21.24000 465.189
21.28000 469.882
21.32000 478.316
21.36000 454.553
21.40000 482.325
21.44000 472.172
21.48000 499.712
21.52000 468.173
21.56000 481.074
21.60000 492.376
21.64000 475.100
21.68000 492.006
21.72000 491.618
21.76000 515.118
21.80000 532.796
21.84000 527.911
21.88000 564.796
21.92000 569.117
21.96000 613.115
22.00000 632.572
22.04000 636.802
22.08000 644.811
22.12000 631.772
22.16000 650.066
22.20000 635.331
22.24000 602.258
22.28000 568.495
22.32000 559.131
22.36000 527.247
22.40000 516.303
22.44000 502.101
22.48000 481.994
22.52000 463.985
22.56000 472.824
22.60000 459.375
22.64000 469.803
22.68000 470.084
22.72000 458.563
22.76000 449.503
22.80000 455.611
22.84000 448.395
22.88000 460.194
22.92000 446.148
22.96000 437.900
23.00000 462.720
23.04000 428.216
23.08000 433.619
23.12000 423.666
23.16000 428.933
23.20000 417.330
23.24000 462.740
23.28000 459.903
23.32000 416.041
23.36000 435.097
23.40000 422.305
23.44000 461.186
23.48000 454.367
23.52000 432.198
23.56000 439.204
23.60000 447.647
23.64000 424.758
23.68000 433.714
23.72000 429.071
23.76000 437.199
23.80000 419.386
23.84000 422.387
23.88000 414.142
23.92000 424.937
23.96000 435.889
24.00000 439.198
24.04000 435.032
24.08000 438.488
24.12000 435.851
24.16000 422.986
24.20000 424.098
24.24000 411.107
24.28000 427.956
24.32000 418.545
24.36000 427.088
24.40000 401.532
24.44000 417.365
24.48000 418.555
24.52000 399.780
24.56000 417.629
24.60000 425.994
24.64000 406.780
24.68000 432.165
24.72000 420.216
24.76000 420.115
24.80000 393.064
24.84000 429.048
24.88000 423.186
24.92000 393.322
24.96000 412.610
25.00000 390.496
25.04000 422.077
25.08000 419.360
25.12000 415.362
25.16000 411.662
25.20000 411.182
25.24000 414.960
25.28000 405.798
25.32000 405.027
25.36000 408.341
25.40000 393.512
25.44000 411.973
25.48000 420.941
25.52000 386.635
25.56000 402.035
25.60000 392.720
25.64000 405.211
25.68000 390.265
25.72000 401.894
25.76000 401.572
25.80000 389.293
25.84000 417.267
25.88000 391.976
25.92000 399.636
25.96000 400.679
26.00000 398.449
26.04000 377.781
26.08000 406.928
26.12000 411.167
26.16000 371.712
26.20000 384.955
26.24000 392.980
26.28000 394.970
26.32000 409.659
26.36000 397.491
26.40000 388.113
26.44000 397.477
26.48000 388.113
26.52000 400.636
26.56000 402.054
26.60000 404.171
26.64000 382.491
26.68000 379.117
26.72000 389.497
26.76000 378.479
26.80000 378.844
26.84000 384.113
26.88000 382.379
26.92000 402.881
26.96000 400.382
27.00000 379.679
27.04000 383.697
27.08000 369.392
27.12000 386.651
27.16000 382.640
27.20000 386.934
27.24000 378.326
27.28000 405.858
27.32000 390.805
27.36000 389.343
27.40000 395.652
27.44000 376.890
27.48000 377.119
27.52000 386.691
27.56000 384.187
27.60000 384.947
27.64000 369.438
27.68000 386.749
27.72000 362.245
27.76000 384.248
27.80000 345.594
27.84000 366.509
27.88000 372.991
27.92000 369.809
27.96000 377.509
28.00000 369.681
28.04000 378.501
28.08000 361.472
28.12000 368.125
28.16000 368.791
28.20000 363.068
28.24000 379.204
28.28000 375.626
28.32000 368.065
28.36000 394.629
28.40000 367.144
28.44000 369.138
28.48000 381.484
28.52000 392.198
28.56000 374.141
28.60000 373.962
28.64000 372.234
28.68000 364.895
28.72000 371.752
28.76000 354.938
28.80000 371.282
28.84000 348.921
28.88000 361.440
28.92000 367.312
28.96000 358.095
29.00000 368.906
29.04000 356.311
29.08000 355.897
29.12000 354.448
29.16000 365.063
29.20000 349.354
29.24000 352.364
29.28000 365.602
29.32000 366.488
29.36000 369.691
29.40000 351.253
29.44000 373.512
29.48000 363.532
29.52000 357.725
29.56000 378.520
29.60000 369.808
29.64000 377.939
29.68000 355.197
29.72000 367.725
29.76000 380.075
29.80000 385.258
29.84000 390.096
29.88000 412.699
29.92000 427.167
29.96000 445.794
30.00000 448.763
30.04000 468.772
30.08000 446.816
30.12000 477.345
30.16000 435.791
30.20000 436.497
30.24000 436.902
30.28000 439.028
30.32000 417.379
30.36000 417.191
30.40000 407.255
30.44000 405.575
30.48000 384.851
30.52000 409.338
30.56000 393.810
30.60000 403.462
30.64000 411.413
30.68000 429.214
30.72000 397.909
30.76000 415.769
30.80000 443.146
30.84000 441.372
30.88000 476.975
30.92000 489.032
30.96000 495.658
31.00000 522.836
31.04000 615.181
31.08000 694.938
31.12000 831.413
31.16000 1080.421
31.20000 1344.002
31.24000 1740.026
31.28000 2198.766
31.32000 2676.448
31.36000 3015.096
31.40000 3173.043
31.44000 3049.179
31.48000 2783.908
31.52000 2388.073
31.56000 1927.549
31.60000 1512.522
31.64000 1201.551
31.68000 932.248
31.72000 753.747
31.76000 674.008
31.80000 575.381
31.84000 502.290
31.88000 480.046
31.92000 445.367
31.96000 423.046
32.00000 393.494
32.04000 387.670
32.08000 393.284
32.12000 385.574
32.16000 354.598
32.20000 355.023
32.24000 350.340
32.28000 344.256
32.32000 353.543
32.36000 352.609
32.40000 347.987
32.44000 351.630
32.48000 322.219
32.52000 334.535
32.56000 333.441
32.60000 345.147
32.64000 345.437
32.68000 324.194
32.72000 330.236
32.76000 324.691
32.80000 326.690
32.84000 323.138
32.88000 325.585
32.92000 329.404
32.96000 317.269
33.00000 318.594
33.04000 326.525
33.08000 321.574
33.12000 301.404
33.16000 304.128
33.20000 286.248
33.24000 307.476
33.28000 292.140
33.32000 302.790
33.36000 318.133
33.40000 308.450
33.44000 304.546
33.48000 302.661
33.52000 305.116
33.56000 306.720
33.60000 292.461
33.64000 291.715
33.68000 297.561
33.72000 302.133
33.76000 300.328
33.80000 293.018
33.84000 291.576
33.88000 297.208
33.92000 295.682
33.96000 289.571
34.00000 290.755
34.04000 285.552
34.08000 292.065
34.12000 307.146
34.16000 288.380
34.20000 300.301
34.24000 286.041
34.28000 292.886
34.32000 280.728
34.36000 282.675
34.40000 287.712
34.44000 271.202
34.48000 287.490
34.52000 302.200
34.56000 289.763
34.60000 292.804
34.64000 277.953
34.68000 291.972
34.72000 283.960
34.76000 274.856
34.80000 281.466
34.84000 286.758
34.88000 276.993
34.92000 274.639
34.96000 288.735
35.00000 278.309
35.04000 282.894
35.08000 284.309
35.12000 272.711
35.16000 268.357
35.20000 270.940
35.24000 277.590
35.28000 262.922
35.32000 277.736
35.36000 267.635
35.40000 268.864
35.44000 268.856
35.48000 288.049
35.52000 276.835
35.56000 274.051
35.60000 269.067
35.64000 270.297
35.68000 269.037
35.72000 273.011
35.76000 262.980
35.80000 269.648
35.84000 263.507
35.88000 254.983
35.92000 272.153
35.96000 268.509
36.00000 264.309
36.04000 264.301
36.08000 260.153
36.12000 254.230
36.16000 263.227
36.20000 249.712
36.24000 264.669
36.28000 254.676
36.32000 277.407
36.36000 261.754
36.40000 244.681
36.44000 274.217
36.48000 272.574
36.52000 262.901
36.56000 251.915
36.60000 263.703
36.64000 267.985
36.68000 260.207
36.72000 277.274
36.76000 259.076
36.80000 276.990
36.84000 271.521
36.88000 276.414
36.92000 285.973
36.96000 268.039
37.00000 287.537
37.04000 304.535
37.08000 283.830
37.12000 274.730
37.16000 264.626
37.20000 267.341
37.24000 269.506
37.28000 277.497
37.32000 264.378
37.36000 277.142
37.40000 269.217
37.44000 275.659
37.48000 258.812
37.52000 258.789
37.56000 272.266
37.60000 261.552
37.64000 269.861
37.68000 253.366
37.72000 261.717
37.76000 274.237
37.80000 275.494
37.84000 260.640
37.88000 247.846
37.92000 264.546
37.96000 260.226
38.00000 269.672
38.04000 266.321
38.08000 259.514
38.12000 265.699
38.16000 277.499
38.20000 285.409
38.24000 284.613
38.28000 294.892
38.32000 326.062
38.36000 323.180
38.40000 346.377
38.44000 394.945
38.48000 444.080
38.52000 541.586
38.56000 651.287
38.60000 798.440
38.64000 939.070
38.68000 1049.792
38.72000 1073.643
38.76000 1082.299
38.80000 967.550
38.84000 853.827
38.88000 723.275
38.92000 593.309
38.96000 482.092
39.00000 402.029
39.04000 343.822
39.08000 316.673
39.12000 294.063
39.16000 279.460
39.20000 267.869
39.24000 263.483
39.28000 248.036
39.32000 252.285
39.36000 259.502
39.40000 251.961
39.44000 257.007
39.48000 251.021
39.52000 244.676
39.56000 243.087
39.60000 231.570
39.64000 244.224
39.68000 251.935
39.72000 238.151
39.76000 239.006
39.80000 241.192
39.84000 250.799
39.88000 238.930
39.92000 222.047
39.96000 214.072
40.00000 230.290
40.04000 227.786
40.08000 249.274
40.12000 230.542
40.16000 235.840
40.20000 225.728
40.24000 224.600
40.28000 245.072
40.32000 240.828
40.36000 222.916
40.40000 220.174
40.44000 224.774
40.48000 226.537
40.52000 217.737
40.56000 224.866
40.60000 218.499
40.64000 220.648
40.68000 224.491
40.72000 223.319
40.76000 217.352
40.80000 236.254
40.84000 218.586
40.88000 220.528
40.92000 219.933
40.96000 221.149
41.00000 229.504
41.04000 221.309
41.08000 223.505
41.12000 212.218
41.16000 211.575
41.20000 214.137
41.24000 236.818
41.28000 216.070
41.32000 210.799
41.36000 215.619
41.40000 225.612
41.44000 210.047
41.48000 219.415
41.52000 216.796
41.56000 214.713
41.60000 197.097
41.64000 217.177
41.68000 203.190
41.72000 214.135
41.76000 212.629
41.80000 213.834
41.84000 212.299
41.88000 210.514
41.92000 201.180
41.96000 225.922
42.00000 216.032
42.04000 214.158
42.08000 213.566
42.12000 207.346
42.16000 216.824
42.20000 213.062
42.24000 209.802
42.28000 212.590
42.32000 204.111
42.36000 205.520
42.40000 204.028
42.44000 203.169
42.48000 196.580
42.52000 204.509
42.56000 201.352
42.60000 209.372
42.64000 205.269
42.68000 197.840
42.72000 206.216
42.76000 196.524
42.80000 198.710
42.84000 199.023
42.88000 200.381
42.92000 206.271
42.96000 199.130
43.00000 199.122
43.04000 197.397
43.08000 207.730
43.12000 199.568
43.16000 210.788
43.20000 214.846
43.24000 200.299
43.28000 216.216
43.32000 207.562
43.36000 206.027
43.40000 204.796
43.44000 200.989
43.48000 208.129
43.52000 201.507
43.56000 194.672
43.60000 213.595
43.64000 206.498
43.68000 205.245
43.72000 206.722
43.76000 200.600
43.80000 209.694
43.84000 202.735
43.88000 207.694
43.92000 212.882
43.96000 198.377
44.00000 211.794
44.04000 196.764
44.08000 190.446
44.12000 199.597
44.16000 200.470
44.20000 201.529
44.24000 197.848
44.28000 201.658
44.32000 194.159
44.36000 205.234
44.40000 195.681
44.44000 204.185
44.48000 205.354
44.52000 214.354
44.56000 225.509
44.60000 214.333
44.64000 210.071
44.68000 226.820
44.72000 223.127
44.76000 231.660
44.80000 235.513
44.84000 239.765
44.88000 252.104
44.92000 268.904
44.96000 301.585
45.00000 316.732
45.04000 316.607
45.08000 329.995
45.12000 353.123
45.16000 354.518
45.20000 346.375
45.24000 342.903
45.28000 333.876
45.32000 303.454
45.36000 286.981
45.40000 286.322
45.44000 267.363
45.48000 256.139
45.52000 250.959
45.56000 254.594
45.60000 247.177
45.64000 232.396
45.68000 231.217
45.72000 228.570
45.76000 206.875
45.80000 209.130
45.84000 188.838
45.88000 212.796
45.92000 192.083
45.96000 194.623
46.00000 190.194
46.04000 199.173
46.08000 189.440
46.12000 186.878
46.16000 186.441
46.20000 191.989
46.24000 175.742
46.28000 173.886
46.32000 175.027
46.36000 178.422
46.40000 169.883
46.44000 186.077
46.48000 186.704
46.52000 176.766
46.56000 178.364
46.60000 165.410
46.64000 170.995
46.68000 173.283
46.72000 174.991
46.76000 172.183
46.80000 165.252
46.84000 176.152
46.88000 169.516
46.92000 177.662
46.96000 173.242
47.00000 178.343
47.04000 175.920
47.08000 169.751
47.12000 173.805
47.16000 167.902
47.20000 160.934
47.24000 177.396
47.28000 164.949
47.32000 163.818
47.36000 173.879
47.40000 165.341
47.44000 160.659
47.48000 169.884
47.52000 169.200
47.56000 173.673
47.60000 166.428
47.64000 167.402
47.68000 154.912
47.72000 161.528
47.76000 158.432
47.80000 168.492
47.84000 165.497
47.88000 166.789
47.92000 173.703
47.96000 164.066
48.00000 167.349
48.04000 166.891
48.08000 161.280
48.12000 156.101
48.16000 175.802
48.20000 170.547
48.24000 165.806
48.28000 152.498
48.32000 166.461
48.36000 152.387
48.40000 152.868
48.44000 159.589
48.48000 159.779
48.52000 166.110
48.56000 159.579
48.60000 171.161
48.64000 160.101
48.68000 163.464
48.72000 161.812
48.76000 155.209
48.80000 171.656
48.84000 150.937
48.88000 159.557
48.92000 164.082
48.96000 162.017
49.00000 156.380
49.04000 164.813
49.08000 148.932
49.12000 153.345
49.16000 163.603
49.20000 158.314
49.24000 155.917
49.28000 151.140
49.32000 144.881
49.36000 166.503
49.40000 159.844
49.44000 154.180
49.48000 147.752
49.52000 153.270
49.56000 156.995
49.60000 159.959
49.64000 161.697
49.68000 159.874
49.72000 161.819
49.76000 161.232
49.80000 154.483
49.84000 168.811
49.88000 151.817
49.92000 163.460
49.96000 156.974
50.00000 149.778
50.04000 149.370
50.08000 150.655
50.12000 158.317
50.16000 156.626
50.20000 158.818
50.24000 164.386
50.28000 151.762
50.32000 167.604
50.36000 165.211
50.40000 169.701
50.44000 174.390
50.48000 190.271
50.52000 182.958
50.56000 200.660
50.60000 213.174
50.64000 214.406
50.68000 243.230
50.72000 225.962
50.76000 237.106
50.80000 222.269
50.84000 216.735
50.88000 214.050
50.92000 199.138
50.96000 193.212
51.00000 199.956
51.04000 190.536
51.08000 182.083
51.12000 180.136
51.16000 175.346
51.20000 163.773
51.24000 161.406
51.28000 171.138
51.32000 165.513
51.36000 152.372
51.40000 152.448
51.44000 149.912
51.48000 166.017
51.52000 151.274
51.56000 152.795
51.60000 147.199
51.64000 146.984
51.68000 159.823
51.72000 153.436
51.76000 143.809
51.80000 145.535
51.84000 135.898
51.88000 140.147
51.92000 143.885
51.96000 137.033
52.00000 144.353
52.04000 137.218
52.08000 147.294
52.12000 152.197
52.16000 136.865
52.20000 138.545
52.24000 148.439
52.28000 148.883
52.32000 147.583
52.36000 129.937
52.40000 144.716
52.44000 149.469
52.48000 145.641
52.52000 148.852
52.56000 157.303
52.60000 144.900
52.64000 164.417
52.68000 144.975
52.72000 141.450
52.76000 134.939
52.80000 130.280
52.84000 133.821
52.88000 146.120
52.92000 135.065
52.96000 140.362
53.00000 139.869
53.04000 137.698
53.08000 148.212
53.12000 147.252
53.16000 143.745
53.20000 148.429
53.24000 142.965
53.28000 151.807
53.32000 147.095
53.36000 143.576
53.40000 153.863
53.44000 144.312
53.48000 163.195
53.52000 152.340
53.56000 153.300
53.60000 154.378
53.64000 154.080
53.68000 132.611
53.72000 145.085
53.76000 150.429
53.80000 136.123
53.84000 141.310
53.88000 147.564
53.92000 149.944
53.96000 152.233
54.00000 145.182
54.04000 149.845
54.08000 140.077
54.12000 139.213
54.16000 140.370
54.20000 134.001
54.24000 139.588
54.28000 142.139
54.32000 146.627
54.36000 146.117
54.40000 139.966
54.44000 146.345
54.48000 134.152
54.52000 135.605
54.56000 144.518
54.60000 136.457
54.64000 149.655
54.68000 139.361
54.72000 143.966
54.76000 142.365
54.80000 145.083
54.84000 147.507
54.88000 141.865
54.92000 153.024
54.96000 146.869
55.00000 135.589
55.04000 138.731
55.08000 154.033
55.12000 145.225
55.16000 147.770
55.20000 146.867
55.24000 150.154
55.28000 159.685
55.32000 159.810
55.36000 158.503
55.40000 157.292
55.44000 177.057
55.48000 170.805
55.52000 184.838
55.56000 183.820
55.60000 210.903
55.64000 225.117
55.68000 247.072
55.72000 288.658
55.76000 333.116
55.80000 395.806
55.84000 430.816
55.88000 506.002
55.92000 544.440
55.96000 571.830
56.00000 571.017
56.04000 549.814
56.08000 498.035
56.12000 452.298
56.16000 417.831
56.20000 371.775
56.24000 340.267
56.28000 306.780
56.32000 256.356
56.36000 229.944
56.40000 217.554
56.44000 191.587
56.48000 169.005
56.52000 185.462
56.56000 168.287
56.60000 181.932
56.64000 160.921
56.68000 159.021
56.72000 150.727
56.76000 143.958
56.80000 141.424
56.84000 146.669
56.88000 136.493
56.92000 132.790
56.96000 127.246
57.00000 138.880
57.04000 131.875
57.08000 131.169
57.12000 128.071
57.16000 126.072
57.20000 130.802
57.24000 135.660
57.28000 130.084
57.32000 125.488
57.36000 128.978
57.40000 134.469
57.44000 128.661
57.48000 131.500
57.52000 129.411
57.56000 133.524
57.60000 130.334
57.64000 130.127
57.68000 129.083
57.72000 128.616
57.76000 125.688
57.80000 124.957
57.84000 117.588
57.88000 123.431
57.92000 128.918
57.96000 120.498
58.00000 117.973
58.04000 120.155
58.08000 127.853
58.12000 130.600
58.16000 132.898
58.20000 135.036
58.24000 133.598
58.28000 130.534
58.32000 134.009
58.36000 132.428
58.40000 137.529
58.44000 122.008
58.48000 120.964
58.52000 125.480
58.56000 125.462
58.60000 128.009
58.64000 114.356
58.68000 124.345
58.72000 122.744
58.76000 122.251
58.80000 117.946
58.84000 124.332
58.88000 122.853
58.92000 123.238
58.96000 114.361
59.00000 121.233
59.04000 113.168
59.08000 117.288
59.12000 117.376
59.16000 114.651
59.20000 115.482
59.24000 119.692
59.28000 123.056
59.32000 118.740
59.36000 130.304
59.40000 108.357
59.44000 130.767
59.48000 130.172
59.52000 118.119
59.56000 113.180
59.60000 118.002
59.64000 108.961
59.68000 124.616
59.72000 123.377
59.76000 113.268
59.80000 113.356
59.84000 120.524
59.88000 121.915
59.92000 116.443
59.96000 124.657
60.00000 134.743
60.04000 115.528
60.08000 119.216
60.12000 129.363
60.16000 116.331
60.20000 117.862
60.24000 114.013
60.28000 117.100
60.32000 109.828
60.36000 123.885
60.40000 123.144
60.44000 117.558
60.48000 122.414
60.52000 111.346
60.56000 112.647
60.60000 114.178
60.64000 123.423
60.68000 115.838
60.72000 115.825
60.76000 120.662
60.80000 117.546
60.84000 98.888
60.88000 119.505
60.92000 114.603
60.96000 126.101
61.00000 120.948
61.04000 121.743
61.08000 124.379
61.12000 120.040
61.16000 123.613
61.20000 129.744
61.24000 127.882
61.28000 120.139
61.32000 127.579
61.36000 120.102
61.40000 111.330
61.44000 126.835
61.48000 137.257
61.52000 181.178
61.56000 260.237
61.60000 312.694
61.64000 344.835
61.68000 359.579
61.72000 369.994
61.76000 344.872
61.80000 262.496
61.84000 195.678
61.88000 159.149
61.92000 133.591
61.96000 139.789
62.00000 139.143
62.04000 124.288
62.08000 134.633
62.12000 134.028
62.16000 140.870
62.20000 146.294
62.24000 132.982
62.28000 128.867
62.32000 127.412
62.36000 141.984
62.40000 137.686
62.44000 135.953
62.48000 130.487
62.52000 139.470
62.56000 131.105
62.60000 130.052
62.64000 132.505
62.68000 135.899
62.72000 134.748
62.76000 133.656
62.80000 134.013
62.84000 139.276
62.88000 135.921
62.92000 135.724
62.96000 140.196
63.00000 137.770
63.04000 139.067
63.08000 142.200
63.12000 134.044
63.16000 132.411
63.20000 140.618
63.24000 149.632
63.28000 130.990
63.32000 137.119
63.36000 148.040
63.40000 138.328
63.44000 135.062
63.48000 145.978
63.52000 143.501
63.56000 148.879
63.60000 150.900
63.64000 147.935
63.68000 144.897
63.72000 144.931
63.76000 147.023
63.80000 150.437
63.84000 142.775
63.88000 147.638
63.92000 153.567
63.96000 142.546
64.00000 161.155
64.04000 155.607
64.08000 146.752
64.12000 161.478
64.16000 147.646
64.20000 159.723
64.24000 166.346
64.28000 165.658
64.32000 153.833
64.36000 162.124
64.40000 160.941
64.44000 171.604
64.48000 172.057
64.52000 166.390
64.56000 176.314
64.60000 184.212
64.64000 171.774
64.68000 168.710
64.72000 180.969
64.76000 180.890
64.80000 187.678
64.84000 191.240
64.88000 195.137
64.92000 190.704
64.96000 204.180
65.00000 203.408
65.04000 210.005
65.08000 213.794
65.12000 211.900
65.16000 238.936
65.20000 263.629
65.24000 257.172
65.28000 279.360
65.32000 297.189
65.36000 316.998
65.40000 352.320
65.44000 399.456
65.48000 431.145
65.52000 464.841
65.56000 510.599
65.60000 596.878
65.64000 662.708
65.68000 921.131
65.72000 1407.174
65.76000 2054.932
65.80000 2557.793
65.84000 2760.365
65.88000 2746.173
65.92000 2543.848
65.96000 2032.473
66.00000 1325.908
66.04000 831.395
66.08000 598.300
66.12000 492.280
66.16000 470.080
66.20000 446.537
66.24000 483.417
66.28000 580.857
66.32000 662.233
66.36000 803.630
66.40000 823.062
66.44000 835.324
66.48000 776.940
66.52000 653.438
66.56000 534.895
66.60000 489.585
66.64000 425.585
66.68000 433.443
66.72000 408.765
66.76000 404.583
66.80000 410.684
66.84000 424.007
66.88000 411.722
66.92000 416.277
66.96000 432.760
67.00000 441.957
67.04000 448.829
67.08000 441.016
67.12000 432.266
67.16000 444.986
67.20000 452.529
67.24000 465.562
67.28000 457.999
67.32000 477.306
67.36000 474.271
67.40000 479.845
67.44000 485.876
67.48000 491.286
67.52000 533.394
67.56000 509.287
67.60000 514.174
67.64000 513.624
67.68000 523.085
67.72000 552.605
67.76000 528.512
67.80000 543.321
67.84000 564.000
67.88000 575.151
67.92000 561.896
67.96000 578.196
68.00000 600.964
68.04000 613.519
68.08000 601.462
68.12000 639.034
68.16000 630.853
68.20000 653.834
68.24000 656.210
68.28000 666.202
68.32000 718.890
68.36000 728.731
68.40000 749.000
68.44000 773.603
68.48000 811.586
68.52000 878.013
68.56000 928.162
68.60000 1063.435
68.64000 1259.510
68.68000 1488.993
68.72000 1752.411
68.76000 1991.972
68.80000 2277.629
68.84000 2688.494
68.88000 3605.584
68.92000 6461.868
68.96000 15856.593
69.00000 34336.871
69.04000 52430.066
69.08000 61593.875
69.12000 65407.012
69.16000 69047.680
69.20000 66633.391
69.24000 52594.254
69.28000 40054.824
69.32000 33000.594
69.36000 30558.686
69.40000 24615.117
69.44000 14270.296
69.48000 6260.813
69.52000 2857.867
69.56000 1735.494
69.60000 1350.211
69.64000 1110.072
69.68000 975.640
69.72000 865.525
69.76000 778.353
69.80000 764.666
69.84000 686.002
69.88000 662.624
69.92000 615.084
69.96000 600.168
70.00000 566.068