File: XRD/09-10-2025 Dep 8/XY Data/BTO_Mapping_Theta2Theta_09-10-2025_001_33_-39-126_8-316.xy
20.00000 498.272
20.04000 470.163
20.08000 467.989
20.12000 470.841
20.16000 492.397
20.20000 507.976
20.24000 481.059
20.28000 490.569
20.32000 491.899
20.36000 478.826
20.40000 475.982
20.44000 499.986
20.48000 480.084
20.52000 465.377
20.56000 484.678
20.60000 485.223
20.64000 476.304
20.68000 484.587
20.72000 480.791
20.76000 493.937
20.80000 489.984
20.84000 469.561
20.88000 484.553
20.92000 497.420
20.96000 489.896
21.00000 475.320
21.04000 486.661
21.08000 480.317
21.12000 491.463
21.16000 494.794
21.20000 486.417
21.24000 473.338
21.28000 476.120
21.32000 477.567
21.36000 485.524
21.40000 482.205
21.44000 487.753
21.48000 495.978
21.52000 496.267
21.56000 482.561
21.60000 496.143
21.64000 498.068
21.68000 507.423
21.72000 522.724
21.76000 544.642
21.80000 558.857
21.84000 595.021
21.88000 609.204
21.92000 619.171
21.96000 639.920
22.00000 654.789
22.04000 650.767
22.08000 664.945
22.12000 659.357
22.16000 637.490
22.20000 591.509
22.24000 558.492
22.28000 560.716
22.32000 519.545
22.36000 516.099
22.40000 513.157
22.44000 478.963
22.48000 485.801
22.52000 481.807
22.56000 462.663
22.60000 481.980
22.64000 465.557
22.68000 472.599
22.72000 461.583
22.76000 454.944
22.80000 477.291
22.84000 441.577
22.88000 447.250
22.92000 433.084
22.96000 445.844
23.00000 461.838
23.04000 453.950
23.08000 445.900
23.12000 457.929
23.16000 444.135
23.20000 445.762
23.24000 442.899
23.28000 436.174
23.32000 442.507
23.36000 425.206
23.40000 436.430
23.44000 441.114
23.48000 428.699
23.52000 422.035
23.56000 445.649
23.60000 436.478
23.64000 432.793
23.68000 448.322
23.72000 448.962
23.76000 438.702
23.80000 432.535
23.84000 420.743
23.88000 430.321
23.92000 439.859
23.96000 429.357
24.00000 419.968
24.04000 428.547
24.08000 416.462
24.12000 435.618
24.16000 435.369
24.20000 440.839
24.24000 425.739
24.28000 426.255
24.32000 419.583
24.36000 412.330
24.40000 428.823
24.44000 409.648
24.48000 428.522
24.52000 416.509
24.56000 421.051
24.60000 420.540
24.64000 411.864
24.68000 414.025
24.72000 400.415
24.76000 398.890
24.80000 418.949
24.84000 416.141
24.88000 417.245
24.92000 418.613
24.96000 414.600
25.00000 427.549
25.04000 405.262
25.08000 406.451
25.12000 412.458
25.16000 415.006
25.20000 435.338
25.24000 403.354
25.28000 409.598
25.32000 404.450
25.36000 404.324
25.40000 413.186
25.44000 407.687
25.48000 408.986
25.52000 394.223
25.56000 414.324
25.60000 388.517
25.64000 422.406
25.68000 399.342
25.72000 394.894
25.76000 409.243
25.80000 404.419
25.84000 405.268
25.88000 409.776
25.92000 397.280
25.96000 408.931
26.00000 404.763
26.04000 385.528
26.08000 385.539
26.12000 404.898
26.16000 382.445
26.20000 401.574
26.24000 396.003
26.28000 400.995
26.32000 402.157
26.36000 396.443
26.40000 393.817
26.44000 405.700
26.48000 398.300
26.52000 402.602
26.56000 403.223
26.60000 413.826
26.64000 400.393
26.68000 398.086
26.72000 378.144
26.76000 388.311
26.80000 387.816
26.84000 406.837
26.88000 382.820
26.92000 385.253
26.96000 380.574
27.00000 381.101
27.04000 369.717
27.08000 390.197
27.12000 376.104
27.16000 374.850
27.20000 395.297
27.24000 378.759
27.28000 378.339
27.32000 384.564
27.36000 390.620
27.40000 395.486
27.44000 385.780
27.48000 392.530
27.52000 366.918
27.56000 394.875
27.60000 381.246
27.64000 373.078
27.68000 375.824
27.72000 386.177
27.76000 370.977
27.80000 379.420
27.84000 372.219
27.88000 382.980
27.92000 392.906
27.96000 371.805
28.00000 390.254
28.04000 388.383
28.08000 374.496
28.12000 414.032
28.16000 393.829
28.20000 388.126
28.24000 406.487
28.28000 383.945
28.32000 381.791
28.36000 394.566
28.40000 377.985
28.44000 392.211
28.48000 378.263
28.52000 387.128
28.56000 379.313
28.60000 374.334
28.64000 364.611
28.68000 383.803
28.72000 362.299
28.76000 376.227
28.80000 374.333
28.84000 375.468
28.88000 377.003
28.92000 372.654
28.96000 368.676
29.00000 357.687
29.04000 364.367
29.08000 370.285
29.12000 380.654
29.16000 390.004
29.20000 367.952
29.24000 366.396
29.28000 382.718
29.32000 373.261
29.36000 372.202
29.40000 362.655
29.44000 382.566
29.48000 374.265
29.52000 360.908
29.56000 350.550
29.60000 370.044
29.64000 379.819
29.68000 386.775
29.72000 418.221
29.76000 420.173
29.80000 454.394
29.84000 471.179
29.88000 506.607
29.92000 538.547
29.96000 591.381
30.00000 563.562
30.04000 573.964
30.08000 565.490
30.12000 535.782
30.16000 525.441
30.20000 504.112
30.24000 482.204
30.28000 469.985
30.32000 456.594
30.36000 429.627
30.40000 439.348
30.44000 435.655
30.48000 430.819
30.52000 424.019
30.56000 431.273
30.60000 439.029
30.64000 429.223
30.68000 438.084
30.72000 435.265
30.76000 442.274
30.80000 445.998
30.84000 461.991
30.88000 475.985
30.92000 525.461
30.96000 582.521
31.00000 658.307
31.04000 821.246
31.08000 1121.386
31.12000 1550.167
31.16000 2281.045
31.20000 3240.687
31.24000 4146.761
31.28000 5167.202
31.32000 5912.687
31.36000 6224.937
31.40000 5995.474
31.44000 5415.498
31.48000 4517.480
31.52000 3466.521
31.56000 2583.100
31.60000 1857.197
31.64000 1318.285
31.68000 1010.010
31.72000 822.924
31.76000 693.027
31.80000 575.643
31.84000 512.160
31.88000 460.924
31.92000 444.679
31.96000 427.363
32.00000 394.946
32.04000 388.640
32.08000 388.447
32.12000 364.144
32.16000 373.829
32.20000 351.641
32.24000 364.069
32.28000 365.058
32.32000 356.229
32.36000 352.680
32.40000 340.112
32.44000 361.615
32.48000 362.165
32.52000 343.092
32.56000 362.969
32.60000 355.646
32.64000 333.128
32.68000 352.542
32.72000 335.588
32.76000 338.459
32.80000 351.940
32.84000 336.171
32.88000 324.470
32.92000 321.410
32.96000 320.508
33.00000 327.161
33.04000 324.278
33.08000 334.743
33.12000 315.563
33.16000 304.054
33.20000 317.983
33.24000 324.376
33.28000 304.827
33.32000 297.435
33.36000 327.176
33.40000 302.566
33.44000 300.438
33.48000 306.752
33.52000 307.099
33.56000 305.429
33.60000 301.649
33.64000 307.363
33.68000 287.039
33.72000 306.736
33.76000 297.286
33.80000 293.810
33.84000 307.150
33.88000 305.546
33.92000 311.724
33.96000 285.738
34.00000 296.841
34.04000 294.302
34.08000 288.934
34.12000 292.786
34.16000 304.332
34.20000 312.149
34.24000 297.027
34.28000 293.208
34.32000 298.395
34.36000 292.318
34.40000 283.198
34.44000 287.305
34.48000 283.164
34.52000 281.410
34.56000 280.970
34.60000 289.130
34.64000 297.564
34.68000 293.852
34.72000 287.627
34.76000 290.560
34.80000 282.695
34.84000 291.801
34.88000 291.743
34.92000 276.501
34.96000 291.048
35.00000 270.568
35.04000 277.782
35.08000 278.074
35.12000 269.258
35.16000 278.773
35.20000 288.483
35.24000 268.533
35.28000 272.076
35.32000 278.251
35.36000 265.054
35.40000 298.940
35.44000 269.071
35.48000 264.917
35.52000 274.711
35.56000 261.167
35.60000 278.746
35.64000 272.370
35.68000 277.362
35.72000 280.576
35.76000 279.399
35.80000 266.447
35.84000 280.544
35.88000 287.740
35.92000 267.838
35.96000 276.902
36.00000 269.002
36.04000 264.838
36.08000 272.875
36.12000 256.273
36.16000 264.002
36.20000 273.543
36.24000 269.163
36.28000 275.530
36.32000 261.237
36.36000 259.894
36.40000 269.870
36.44000 261.200
36.48000 261.405
36.52000 278.144
36.56000 271.985
36.60000 274.718
36.64000 262.305
36.68000 266.516
36.72000 273.630
36.76000 280.751
36.80000 276.331
36.84000 291.390
36.88000 279.717
36.92000 274.355
36.96000 283.261
37.00000 285.781
37.04000 284.499
37.08000 272.059
37.12000 264.934
37.16000 281.804
37.20000 268.159
37.24000 266.130
37.28000 266.364
37.32000 265.012
37.36000 269.963
37.40000 261.133
37.44000 269.952
37.48000 254.771
37.52000 259.632
37.56000 281.858
37.60000 260.735
37.64000 263.081
37.68000 269.226
37.72000 271.131
37.76000 271.531
37.80000 257.760
37.84000 272.473
37.88000 270.649
37.92000 271.317
37.96000 273.698
38.00000 261.710
38.04000 267.365
38.08000 277.848
38.12000 272.977
38.16000 283.834
38.20000 276.714
38.24000 307.432
38.28000 312.626
38.32000 314.074
38.36000 343.519
38.40000 371.142
38.44000 402.382
38.48000 445.235
38.52000 472.795
38.56000 508.024
38.60000 561.951
38.64000 567.260
38.68000 577.648
38.72000 564.557
38.76000 532.330
38.80000 483.030
38.84000 440.151
38.88000 397.249
38.92000 365.314
38.96000 347.639
39.00000 315.484
39.04000 299.697
39.08000 300.613
39.12000 286.971
39.16000 260.232
39.20000 254.622
39.24000 262.762
39.28000 257.001
39.32000 244.668
39.36000 252.645
39.40000 253.050
39.44000 241.328
39.48000 251.831
39.52000 248.612
39.56000 245.611
39.60000 242.785
39.64000 239.758
39.68000 243.534
39.72000 257.185
39.76000 237.417
39.80000 225.272
39.84000 244.875
39.88000 231.900
39.92000 226.168
39.96000 243.503
40.00000 242.789
40.04000 230.010
40.08000 233.925
40.12000 241.259
40.16000 236.851
40.20000 228.282
40.24000 229.028
40.28000 229.998
40.32000 231.345
40.36000 239.065
40.40000 225.635
40.44000 235.741
40.48000 227.554
40.52000 241.481
40.56000 226.222
40.60000 228.221
40.64000 228.629
40.68000 218.832
40.72000 227.391
40.76000 229.229
40.80000 216.376
40.84000 228.339
40.88000 230.326
40.92000 218.406
40.96000 221.411
41.00000 241.388
41.04000 222.696
41.08000 214.695
41.12000 221.208
41.16000 215.652
41.20000 222.052
41.24000 214.263
41.28000 218.209
41.32000 217.926
41.36000 210.910
41.40000 225.854
41.44000 211.127
41.48000 227.840
41.52000 212.303
41.56000 212.402
41.60000 218.292
41.64000 216.532
41.68000 217.320
41.72000 216.705
41.76000 210.218
41.80000 213.828
41.84000 202.373
41.88000 224.010
41.92000 218.252
41.96000 203.484
42.00000 220.280
42.04000 214.694
42.08000 203.911
42.12000 205.592
42.16000 221.114
42.20000 214.909
42.24000 223.643
42.28000 214.173
42.32000 206.154
42.36000 211.428
42.40000 206.531
42.44000 193.117
42.48000 206.748
42.52000 205.159
42.56000 199.830
42.60000 208.776
42.64000 205.480
42.68000 204.260
42.72000 209.707
42.76000 201.225
42.80000 199.760
42.84000 201.169
42.88000 220.152
42.92000 209.953
42.96000 208.294
43.00000 193.410
43.04000 203.280
43.08000 205.446
43.12000 210.192
43.16000 205.959
43.20000 200.377
43.24000 215.101
43.28000 228.684
43.32000 210.961
43.36000 199.239
43.40000 210.227
43.44000 198.071
43.48000 214.062
43.52000 204.055
43.56000 210.044
43.60000 206.110
43.64000 200.272
43.68000 197.398
43.72000 204.110
43.76000 190.992
43.80000 207.665
43.84000 204.619
43.88000 206.192
43.92000 195.966
43.96000 202.179
44.00000 213.238
44.04000 199.225
44.08000 204.294
44.12000 192.453
44.16000 202.515
44.20000 208.333
44.24000 206.765
44.28000 211.827
44.32000 208.014
44.36000 219.068
44.40000 211.578
44.44000 222.933
44.48000 224.946
44.52000 221.730
44.56000 236.007
44.60000 241.941
44.64000 270.559
44.68000 284.533
44.72000 295.322
44.76000 310.260
44.80000 340.064
44.84000 347.642
44.88000 375.847
44.92000 378.642
44.96000 368.937
45.00000 382.565
45.04000 368.488
45.08000 365.028
45.12000 348.368
45.16000 338.630
45.20000 309.589
45.24000 315.525
45.28000 286.673
45.32000 274.615
45.36000 273.137
45.40000 270.259
45.44000 259.674
45.48000 249.111
45.52000 235.865
45.56000 240.540
45.60000 224.147
45.64000 223.111
45.68000 214.422
45.72000 207.582
45.76000 209.552
45.80000 209.947
45.84000 203.618
45.88000 191.681
45.92000 203.917
45.96000 196.471
46.00000 198.268
46.04000 193.871
46.08000 199.590
46.12000 186.060
46.16000 185.794
46.20000 196.124
46.24000 187.550
46.28000 177.591
46.32000 176.374
46.36000 185.734
46.40000 163.559
46.44000 178.527
46.48000 172.111
46.52000 177.134
46.56000 172.760
46.60000 172.744
46.64000 182.269
46.68000 158.979
46.72000 182.754
46.76000 172.833
46.80000 171.967
46.84000 172.732
46.88000 181.753
46.92000 181.878
46.96000 169.844
47.00000 175.550
47.04000 172.819
47.08000 177.261
47.12000 171.811
47.16000 160.691
47.20000 174.647
47.24000 176.897
47.28000 172.664
47.32000 172.402
47.36000 168.070
47.40000 176.180
47.44000 167.069
47.48000 165.808
47.52000 168.102
47.56000 171.062
47.60000 165.249
47.64000 169.901
47.68000 163.453
47.72000 166.064
47.76000 166.466
47.80000 161.845
47.84000 162.803
47.88000 169.457
47.92000 171.557
47.96000 166.159
48.00000 165.068
48.04000 159.627
48.08000 163.935
48.12000 169.017
48.16000 170.687
48.20000 160.503
48.24000 165.328
48.28000 156.726
48.32000 178.058
48.36000 178.786
48.40000 175.199
48.44000 175.303
48.48000 165.444
48.52000 175.740
48.56000 166.335
48.60000 169.587
48.64000 162.020
48.68000 168.564
48.72000 164.873
48.76000 164.081
48.80000 173.520
48.84000 163.694
48.88000 158.791
48.92000 171.556
48.96000 167.139
49.00000 169.986
49.04000 159.903
49.08000 169.951
49.12000 153.267
49.16000 158.919
49.20000 175.774
49.24000 158.549
49.28000 155.447
49.32000 158.139
49.36000 164.118
49.40000 158.216
49.44000 161.380
49.48000 158.654
49.52000 164.027
49.56000 154.263
49.60000 171.396
49.64000 158.437
49.68000 158.987
49.72000 162.554
49.76000 157.183
49.80000 159.387
49.84000 164.866
49.88000 158.969
49.92000 160.206
49.96000 165.435
50.00000 159.193
50.04000 177.076
50.08000 176.942
50.12000 178.454
50.16000 166.645
50.20000 175.023
50.24000 179.850
50.28000 175.866
50.32000 194.104
50.36000 216.780
50.40000 212.828
50.44000 221.361
50.48000 233.326
50.52000 238.912
50.56000 254.469
50.60000 254.395
50.64000 273.224
50.68000 241.866
50.72000 250.318
50.76000 255.990
50.80000 234.754
50.84000 220.049
50.88000 221.107
50.92000 205.133
50.96000 177.517
51.00000 182.732
51.04000 175.106
51.08000 179.304
51.12000 172.008
51.16000 167.472
51.20000 169.414
51.24000 163.748
51.28000 152.656
51.32000 156.559
51.36000 161.957
51.40000 151.961
51.44000 154.381
51.48000 137.978
51.52000 154.352
51.56000 159.401
51.60000 168.415
51.64000 156.355
51.68000 162.003
51.72000 138.502
51.76000 154.931
51.80000 151.742
51.84000 148.451
51.88000 149.269
51.92000 151.805
51.96000 147.616
52.00000 147.870
52.04000 143.138
52.08000 142.528
52.12000 140.470
52.16000 145.741
52.20000 144.088
52.24000 146.020
52.28000 142.964
52.32000 149.324
52.36000 145.633
52.40000 147.871
52.44000 147.075
52.48000 144.315
52.52000 148.218
52.56000 151.183
52.60000 139.760
52.64000 156.699
52.68000 141.434
52.72000 150.780
52.76000 135.507
52.80000 141.331
52.84000 141.150
52.88000 135.905
52.92000 146.693
52.96000 152.723
53.00000 150.445
53.04000 150.857
53.08000 152.996
53.12000 148.371
53.16000 159.960
53.20000 158.398
53.24000 161.773
53.28000 148.516
53.32000 149.998
53.36000 151.902
53.40000 151.615
53.44000 149.036
53.48000 152.619
53.52000 152.074
53.56000 151.605
53.60000 152.319
53.64000 146.140
53.68000 153.174
53.72000 148.276
53.76000 134.896
53.80000 162.862
53.84000 148.531
53.88000 151.935
53.92000 150.161
53.96000 138.760
54.00000 140.117
54.04000 141.923
54.08000 146.833
54.12000 131.359
54.16000 142.385
54.20000 136.448
54.24000 133.999
54.28000 149.957
54.32000 143.429
54.36000 144.671
54.40000 144.371
54.44000 142.631
54.48000 133.833
54.52000 146.304
54.56000 148.797
54.60000 147.297
54.64000 142.260
54.68000 142.233
54.72000 143.808
54.76000 153.824
54.80000 145.880
54.84000 141.052
54.88000 140.922
54.92000 149.232
54.96000 144.954
55.00000 149.840
55.04000 151.760
55.08000 149.503
55.12000 150.452
55.16000 164.519
55.20000 165.791
55.24000 167.534
55.28000 160.144
55.32000 158.595
55.36000 169.871
55.40000 188.179
55.44000 197.670
55.48000 213.251
55.52000 253.580
55.56000 268.627
55.60000 309.918
55.64000 364.700
55.68000 398.707
55.72000 434.171
55.76000 476.792
55.80000 470.352
55.84000 489.409
55.88000 496.322
55.92000 467.248
55.96000 444.802
56.00000 426.931
56.04000 386.064
56.08000 336.308
56.12000 318.250
56.16000 275.642
56.20000 273.174
56.24000 236.768
56.28000 218.313
56.32000 200.819
56.36000 208.812
56.40000 185.302
56.44000 176.849
56.48000 178.129
56.52000 165.706
56.56000 155.517
56.60000 158.346
56.64000 148.440
56.68000 139.345
56.72000 139.863
56.76000 139.801
56.80000 139.307
56.84000 134.865
56.88000 128.718
56.92000 143.096
56.96000 137.372
57.00000 138.499
57.04000 139.084
57.08000 141.370
57.12000 133.237
57.16000 132.145
57.20000 142.309
57.24000 133.193
57.28000 134.587
57.32000 132.195
57.36000 139.057
57.40000 122.706
57.44000 139.097
57.48000 127.339
57.52000 131.743
57.56000 132.023
57.60000 126.150
57.64000 128.343
57.68000 129.181
57.72000 131.997
57.76000 119.338
57.80000 127.020
57.84000 135.656
57.88000 131.242
57.92000 127.664
57.96000 139.567
58.00000 134.619
58.04000 120.673
58.08000 126.149
58.12000 126.745
58.16000 120.934
58.20000 124.488
58.24000 125.962
58.28000 122.037
58.32000 131.250
58.36000 108.743
58.40000 127.385
58.44000 123.164
58.48000 119.070
58.52000 123.546
58.56000 131.129
58.60000 125.366
58.64000 128.676
58.68000 133.125
58.72000 132.057
58.76000 136.193
58.80000 124.487
58.84000 132.798
58.88000 128.229
58.92000 119.467
58.96000 116.882
59.00000 132.986
59.04000 116.211
59.08000 119.043
59.12000 113.139
59.16000 114.931
59.20000 127.264
59.24000 122.924
59.28000 127.018
59.32000 128.180
59.36000 120.443
59.40000 118.771
59.44000 120.337
59.48000 122.819
59.52000 124.852
59.56000 119.383
59.60000 122.602
59.64000 120.977
59.68000 115.309
59.72000 125.458
59.76000 123.302
59.80000 119.538
59.84000 119.527
59.88000 123.542
59.92000 109.824
59.96000 124.774
60.00000 114.238
60.04000 118.415
60.08000 125.452
60.12000 117.192
60.16000 126.440
60.20000 127.423
60.24000 114.886
60.28000 116.638
60.32000 136.027
60.36000 107.670
60.40000 112.254
60.44000 114.627
60.48000 114.822
60.52000 118.765
60.56000 117.484
60.60000 131.050
60.64000 113.322
60.68000 118.783
60.72000 116.282
60.76000 118.444
60.80000 126.278
60.84000 127.667
60.88000 120.197
60.92000 124.524
60.96000 131.624
61.00000 111.550
61.04000 124.383
61.08000 126.528
61.12000 132.346
61.16000 118.111
61.20000 128.758
61.24000 131.407
61.28000 122.901
61.32000 129.075
61.36000 123.106
61.40000 132.792
61.44000 134.490
61.48000 152.858
61.52000 195.025
61.56000 272.839
61.60000 342.989
61.64000 421.418
61.68000 491.029
61.72000 458.874
61.76000 430.290
61.80000 343.049
61.84000 245.239
61.88000 184.476
61.92000 159.962
61.96000 142.695
62.00000 140.492
62.04000 142.547
62.08000 141.443
62.12000 143.992
62.16000 138.535
62.20000 143.070
62.24000 143.538
62.28000 147.976
62.32000 146.442
62.36000 136.341
62.40000 143.477
62.44000 156.668
62.48000 143.544
62.52000 143.187
62.56000 145.063
62.60000 141.803
62.64000 148.849
62.68000 142.980
62.72000 141.394
62.76000 144.641
62.80000 141.348
62.84000 148.414
62.88000 150.520
62.92000 160.643
62.96000 144.204
63.00000 147.560
63.04000 145.231
63.08000 137.083
63.12000 151.836
63.16000 153.518
63.20000 147.837
63.24000 141.301
63.28000 144.333
63.32000 142.807
63.36000 150.564
63.40000 140.890
63.44000 134.943
63.48000 151.374
63.52000 141.889
63.56000 173.028
63.60000 149.976
63.64000 155.642
63.68000 140.472
63.72000 146.183
63.76000 152.615
63.80000 156.973
63.84000 160.790
63.88000 154.566
63.92000 162.113
63.96000 157.060
64.00000 161.810
64.04000 156.627
64.08000 159.363
64.12000 160.438
64.16000 158.034
64.20000 155.608
64.24000 173.247
64.28000 171.433
64.32000 173.473
64.36000 187.121
64.40000 176.144
64.44000 171.487
64.48000 182.949
64.52000 174.615
64.56000 182.996
64.60000 200.776
64.64000 196.324
64.68000 189.273
64.72000 188.339
64.76000 193.300
64.80000 194.672
64.84000 214.311
64.88000 210.997
64.92000 225.845
64.96000 229.341
65.00000 251.708
65.04000 248.101
65.08000 277.090
65.12000 274.608
65.16000 321.180
65.20000 358.060
65.24000 413.345
65.28000 435.497
65.32000 507.463
65.36000 553.022
65.40000 603.122
65.44000 637.861
65.48000 683.712
65.52000 693.782
65.56000 726.637
65.60000 746.364
65.64000 837.970
65.68000 1055.515
65.72000 1538.931
65.76000 2389.426
65.80000 3110.728
65.84000 3485.858
65.88000 3563.996
65.92000 3415.046
65.96000 2842.068
66.00000 1980.937
66.04000 1189.830
66.08000 797.793
66.12000 614.612
66.16000 554.894
66.20000 544.719
66.24000 557.420
66.28000 662.515
66.32000 824.096
66.36000 942.169
66.40000 992.677
66.44000 1008.236
66.48000 968.394
66.52000 860.552
66.56000 687.954
66.60000 566.385
66.64000 518.599
66.68000 505.954
66.72000 470.702
66.76000 480.967
66.80000 476.662
66.84000 484.029
66.88000 486.627
66.92000 491.577
66.96000 494.629
67.00000 489.592
67.04000 507.104
67.08000 526.206
67.12000 514.769
67.16000 519.407
67.20000 526.829
67.24000 529.585
67.28000 537.714
67.32000 525.281
67.36000 541.446
67.40000 544.342
67.44000 556.885
67.48000 560.590
67.52000 587.110
67.56000 572.637
67.60000 584.947
67.64000 608.870
67.68000 608.356
67.72000 614.742
67.76000 604.353
67.80000 617.782
67.84000 628.329
67.88000 624.190
67.92000 642.320
67.96000 670.728
68.00000 671.218
68.04000 662.934
68.08000 673.416
68.12000 685.369
68.16000 714.935
68.20000 720.358
68.24000 744.831
68.28000 764.151
68.32000 779.045
68.36000 800.413
68.40000 825.953
68.44000 866.385
68.48000 922.751
68.52000 999.631
68.56000 1050.653
68.60000 1174.297
68.64000 1404.331
68.68000 1699.161
68.72000 2057.625
68.76000 2321.496
68.80000 2672.528
68.84000 3210.784
68.88000 4098.041
68.92000 6682.786
68.96000 15620.716
69.00000 37107.984
69.04000 62420.602
69.08000 77136.508
69.12000 82637.398
69.16000 87493.211
69.20000 86956.867
69.24000 75441.969
69.28000 56760.363
69.32000 43889.180
69.36000 39899.934
69.40000 33711.645
69.44000 22577.910
69.48000 10402.879
69.52000 4401.444
69.56000 2374.878
69.60000 1719.757
69.64000 1401.898
69.68000 1195.193
69.72000 1035.514
69.76000 939.513
69.80000 867.329
69.84000 781.047
69.88000 752.778
69.92000 679.657
69.96000 645.363
70.00000 649.889