File: XRD/09-10-2025 Dep 8/XY Data/BTO_Mapping_Theta2Theta_09-10-2025_001_20_-3-136_29-836.xy
20.00000 493.179
20.04000 501.129
20.08000 493.156
20.12000 478.907
20.16000 471.129
20.20000 471.612
20.24000 501.396
20.28000 484.677
20.32000 482.485
20.36000 456.188
20.40000 481.360
20.44000 482.284
20.48000 477.095
20.52000 489.246
20.56000 457.636
20.60000 467.962
20.64000 471.881
20.68000 469.814
20.72000 480.511
20.76000 457.618
20.80000 470.156
20.84000 473.754
20.88000 488.408
20.92000 462.341
20.96000 474.751
21.00000 477.123
21.04000 475.559
21.08000 490.380
21.12000 471.242
21.16000 465.703
21.20000 483.353
21.24000 468.403
21.28000 481.179
21.32000 463.556
21.36000 463.259
21.40000 476.201
21.44000 479.289
21.48000 479.233
21.52000 463.224
21.56000 458.269
21.60000 469.829
21.64000 473.291
21.68000 478.854
21.72000 462.610
21.76000 494.581
21.80000 493.724
21.84000 495.301
21.88000 532.421
21.92000 539.437
21.96000 561.938
22.00000 583.011
22.04000 595.309
22.08000 598.774
22.12000 593.438
22.16000 597.460
22.20000 594.933
22.24000 584.459
22.28000 575.775
22.32000 547.334
22.36000 533.753
22.40000 517.783
22.44000 511.785
22.48000 508.976
22.52000 470.547
22.56000 475.951
22.60000 481.032
22.64000 459.251
22.68000 459.950
22.72000 451.220
22.76000 462.847
22.80000 438.032
22.84000 437.919
22.88000 449.524
22.92000 447.496
22.96000 443.023
23.00000 424.798
23.04000 444.617
23.08000 434.785
23.12000 443.939
23.16000 433.772
23.20000 450.594
23.24000 425.743
23.28000 433.228
23.32000 452.234
23.36000 456.126
23.40000 435.634
23.44000 430.570
23.48000 444.105
23.52000 439.354
23.56000 439.097
23.60000 421.431
23.64000 419.798
23.68000 431.495
23.72000 437.629
23.76000 426.342
23.80000 436.455
23.84000 429.953
23.88000 431.203
23.92000 438.564
23.96000 426.738
24.00000 439.909
24.04000 426.062
24.08000 412.547
24.12000 423.899
24.16000 437.192
24.20000 412.695
24.24000 420.285
24.28000 438.172
24.32000 415.640
24.36000 418.512
24.40000 427.730
24.44000 428.074
24.48000 421.146
24.52000 425.154
24.56000 421.072
24.60000 409.306
24.64000 414.414
24.68000 432.085
24.72000 412.672
24.76000 406.641
24.80000 411.684
24.84000 409.815
24.88000 412.573
24.92000 418.680
24.96000 433.261
25.00000 422.262
25.04000 408.136
25.08000 399.359
25.12000 409.724
25.16000 412.032
25.20000 409.627
25.24000 404.930
25.28000 394.610
25.32000 419.475
25.36000 416.200
25.40000 416.527
25.44000 399.930
25.48000 402.545
25.52000 420.779
25.56000 395.782
25.60000 405.539
25.64000 398.989
25.68000 409.604
25.72000 400.773
25.76000 394.714
25.80000 387.088
25.84000 417.044
25.88000 397.871
25.92000 412.655
25.96000 404.102
26.00000 386.042
26.04000 396.367
26.08000 404.071
26.12000 416.463
26.16000 400.941
26.20000 388.045
26.24000 383.315
26.28000 373.828
26.32000 381.898
26.36000 406.680
26.40000 381.493
26.44000 379.727
26.48000 398.248
26.52000 394.373
26.56000 405.091
26.60000 375.331
26.64000 387.604
26.68000 371.562
26.72000 392.792
26.76000 381.934
26.80000 394.501
26.84000 384.902
26.88000 391.127
26.92000 384.036
26.96000 394.572
27.00000 389.311
27.04000 387.403
27.08000 382.346
27.12000 380.272
27.16000 376.322
27.20000 382.725
27.24000 379.402
27.28000 370.670
27.32000 377.056
27.36000 364.609
27.40000 390.678
27.44000 382.057
27.48000 379.122
27.52000 374.339
27.56000 383.966
27.60000 389.419
27.64000 377.723
27.68000 358.424
27.72000 373.004
27.76000 380.240
27.80000 367.875
27.84000 375.063
27.88000 374.957
27.92000 371.884
27.96000 373.720
28.00000 385.852
28.04000 396.656
28.08000 392.876
28.12000 375.537
28.16000 365.146
28.20000 383.714
28.24000 381.432
28.28000 377.634
28.32000 383.322
28.36000 382.308
28.40000 373.954
28.44000 390.257
28.48000 378.726
28.52000 365.577
28.56000 364.328
28.60000 365.242
28.64000 360.280
28.68000 371.176
28.72000 364.556
28.76000 361.586
28.80000 361.658
28.84000 353.824
28.88000 362.963
28.92000 355.277
28.96000 364.094
29.00000 364.474
29.04000 363.493
29.08000 354.108
29.12000 360.968
29.16000 345.306
29.20000 351.523
29.24000 354.288
29.28000 350.940
29.32000 351.144
29.36000 373.459
29.40000 356.886
29.44000 373.574
29.48000 348.883
29.52000 364.045
29.56000 344.596
29.60000 372.093
29.64000 361.865
29.68000 370.683
29.72000 369.517
29.76000 375.021
29.80000 378.627
29.84000 383.351
29.88000 395.713
29.92000 410.555
29.96000 405.641
30.00000 416.859
30.04000 455.540
30.08000 434.288
30.12000 467.952
30.16000 454.107
30.20000 437.927
30.24000 413.208
30.28000 410.242
30.32000 397.314
30.36000 395.482
30.40000 400.456
30.44000 375.961
30.48000 389.998
30.52000 390.528
30.56000 389.284
30.60000 404.969
30.64000 391.336
30.68000 410.651
30.72000 388.009
30.76000 400.149
30.80000 420.121
30.84000 425.020
30.88000 435.476
30.92000 441.885
30.96000 462.664
31.00000 474.697
31.04000 531.380
31.08000 568.284
31.12000 673.996
31.16000 789.536
31.20000 1037.485
31.24000 1311.141
31.28000 1786.039
31.32000 2205.221
31.36000 2538.943
31.40000 2788.368
31.44000 2896.179
31.48000 2738.030
31.52000 2451.658
31.56000 2033.598
31.60000 1662.739
31.64000 1280.702
31.68000 1041.741
31.72000 847.347
31.76000 709.694
31.80000 611.505
31.84000 547.377
31.88000 488.542
31.92000 446.356
31.96000 439.311
32.00000 399.201
32.04000 393.881
32.08000 371.874
32.12000 356.962
32.16000 358.352
32.20000 345.932
32.24000 351.912
32.28000 361.258
32.32000 339.411
32.36000 343.338
32.40000 340.867
32.44000 339.081
32.48000 330.128
32.52000 329.358
32.56000 357.058
32.60000 329.772
32.64000 327.446
32.68000 330.142
32.72000 332.939
32.76000 320.412
32.80000 306.029
32.84000 324.541
32.88000 313.086
32.92000 315.853
32.96000 316.000
33.00000 318.708
33.04000 296.626
33.08000 294.260
33.12000 294.652
33.16000 311.401
33.20000 303.506
33.24000 314.454
33.28000 299.077
33.32000 301.261
33.36000 306.268
33.40000 284.315
33.44000 300.926
33.48000 302.372
33.52000 295.896
33.56000 302.258
33.60000 291.126
33.64000 297.741
33.68000 300.644
33.72000 292.366
33.76000 295.830
33.80000 278.979
33.84000 268.393
33.88000 292.350
33.92000 310.201
33.96000 276.956
34.00000 290.670
34.04000 296.740
34.08000 278.398
34.12000 284.945
34.16000 288.813
34.20000 288.131
34.24000 290.106
34.28000 282.221
34.32000 286.323
34.36000 277.026
34.40000 285.062
34.44000 273.880
34.48000 288.656
34.52000 292.455
34.56000 297.337
34.60000 282.297
34.64000 272.826
34.68000 279.672
34.72000 272.398
34.76000 282.825
34.80000 288.969
34.84000 285.594
34.88000 266.246
34.92000 286.742
34.96000 279.642
35.00000 275.906
35.04000 272.503
35.08000 268.865
35.12000 282.032
35.16000 283.508
35.20000 270.890
35.24000 268.071
35.28000 254.805
35.32000 271.192
35.36000 280.081
35.40000 263.442
35.44000 268.288
35.48000 281.396
35.52000 277.365
35.56000 269.332
35.60000 264.778
35.64000 258.772
35.68000 257.491
35.72000 266.667
35.76000 265.305
35.80000 254.328
35.84000 270.720
35.88000 269.109
35.92000 274.635
35.96000 272.420
36.00000 256.630
36.04000 260.437
36.08000 269.882
36.12000 262.150
36.16000 247.431
36.20000 256.929
36.24000 254.524
36.28000 255.205
36.32000 236.061
36.36000 255.242
36.40000 255.401
36.44000 266.388
36.48000 254.848
36.52000 268.465
36.56000 271.016
36.60000 253.474
36.64000 273.012
36.68000 250.909
36.72000 251.876
36.76000 264.822
36.80000 259.392
36.84000 269.804
36.88000 275.163
36.92000 277.628
36.96000 282.068
37.00000 298.107
37.04000 285.180
37.08000 292.620
37.12000 286.423
37.16000 278.113
37.20000 266.686
37.24000 267.027
37.28000 271.298
37.32000 260.476
37.36000 253.041
37.40000 267.816
37.44000 267.715
37.48000 261.717
37.52000 261.153
37.56000 271.349
37.60000 254.624
37.64000 263.003
37.68000 256.307
37.72000 246.539
37.76000 258.807
37.80000 252.280
37.84000 259.192
37.88000 275.425
37.92000 253.760
37.96000 259.238
38.00000 257.368
38.04000 272.657
38.08000 279.011
38.12000 266.122
38.16000 269.451
38.20000 269.339
38.24000 266.888
38.28000 274.752
38.32000 296.448
38.36000 305.848
38.40000 320.703
38.44000 355.836
38.48000 389.749
38.52000 441.003
38.56000 556.213
38.60000 665.676
38.64000 815.785
38.68000 969.535
38.72000 1087.980
38.76000 1159.524
38.80000 1102.717
38.84000 1025.795
38.88000 879.755
38.92000 719.728
38.96000 569.791
39.00000 446.510
39.04000 392.500
39.08000 338.446
39.12000 302.917
39.16000 284.887
39.20000 288.358
39.24000 275.155
39.28000 254.574
39.32000 250.632
39.36000 261.031
39.40000 252.410
39.44000 239.198
39.48000 247.541
39.52000 240.404
39.56000 227.567
39.60000 235.567
39.64000 239.187
39.68000 248.480
39.72000 238.922
39.76000 236.169
39.80000 226.654
39.84000 237.979
39.88000 237.503
39.92000 233.303
39.96000 234.742
40.00000 235.996
40.04000 229.487
40.08000 232.168
40.12000 224.766
40.16000 229.018
40.20000 239.712
40.24000 217.181
40.28000 224.396
40.32000 228.919
40.36000 220.085
40.40000 216.618
40.44000 213.824
40.48000 228.628
40.52000 210.575
40.56000 224.337
40.60000 224.081
40.64000 228.872
40.68000 216.919
40.72000 215.529
40.76000 219.895
40.80000 219.004
40.84000 219.789
40.88000 210.282
40.92000 232.134
40.96000 218.496
41.00000 218.417
41.04000 217.720
41.08000 211.119
41.12000 218.713
41.16000 210.657
41.20000 213.214
41.24000 212.253
41.28000 207.762
41.32000 203.762
41.36000 218.819
41.40000 220.954
41.44000 208.782
41.48000 215.060
41.52000 214.933
41.56000 202.686
41.60000 204.614
41.64000 208.360
41.68000 198.628
41.72000 208.486
41.76000 210.375
41.80000 207.782
41.84000 209.563
41.88000 215.868
41.92000 216.317
41.96000 215.858
42.00000 221.625
42.04000 203.648
42.08000 210.640
42.12000 202.209
42.16000 196.960
42.20000 200.293
42.24000 195.646
42.28000 199.569
42.32000 201.040
42.36000 214.838
42.40000 194.437
42.44000 210.328
42.48000 198.992
42.52000 202.133
42.56000 212.847
42.60000 191.945
42.64000 193.488
42.68000 188.504
42.72000 199.054
42.76000 210.207
42.80000 187.285
42.84000 197.633
42.88000 199.355
42.92000 207.061
42.96000 208.987
43.00000 198.470
43.04000 207.438
43.08000 201.113
43.12000 194.036
43.16000 198.972
43.20000 188.666
43.24000 195.693
43.28000 193.786
43.32000 199.808
43.36000 202.984
43.40000 206.751
43.44000 200.969
43.48000 206.284
43.52000 202.839
43.56000 208.647
43.60000 193.412
43.64000 183.135
43.68000 203.842
43.72000 192.554
43.76000 204.655
43.80000 196.281
43.84000 209.746
43.88000 189.838
43.92000 191.851
43.96000 199.585
44.00000 188.929
44.04000 197.042
44.08000 196.001
44.12000 207.926
44.16000 195.530
44.20000 194.060
44.24000 198.323
44.28000 197.070
44.32000 198.830
44.36000 196.678
44.40000 192.444
44.44000 196.637
44.48000 196.945
44.52000 194.588
44.56000 197.252
44.60000 208.722
44.64000 189.284
44.68000 203.653
44.72000 201.129
44.76000 207.448
44.80000 208.919
44.84000 222.108
44.88000 229.566
44.92000 231.478
44.96000 248.458
45.00000 257.813
45.04000 247.697
45.08000 290.781
45.12000 287.773
45.16000 296.499
45.20000 295.198
45.24000 304.028
45.28000 307.264
45.32000 285.586
45.36000 265.745
45.40000 270.436
45.44000 262.263
45.48000 255.628
45.52000 253.375
45.56000 248.944
45.60000 245.078
45.64000 228.858
45.68000 222.282
45.72000 219.260
45.76000 222.803
45.80000 213.204
45.84000 208.166
45.88000 212.377
45.92000 194.134
45.96000 193.016
46.00000 211.587
46.04000 197.408
46.08000 186.024
46.12000 183.307
46.16000 190.704
46.20000 197.698
46.24000 181.485
46.28000 181.867
46.32000 184.292
46.36000 180.211
46.40000 177.569
46.44000 185.658
46.48000 183.998
46.52000 174.323
46.56000 165.105
46.60000 174.016
46.64000 175.966
46.68000 175.642
46.72000 188.771
46.76000 165.656
46.80000 180.478
46.84000 180.361
46.88000 175.822
46.92000 179.190
46.96000 180.801
47.00000 188.298
47.04000 153.918
47.08000 173.084
47.12000 166.221
47.16000 168.303
47.20000 171.126
47.24000 170.014
47.28000 163.293
47.32000 164.203
47.36000 164.068
47.40000 166.954
47.44000 166.350
47.48000 164.163
47.52000 166.961
47.56000 167.058
47.60000 166.484
47.64000 167.228
47.68000 165.955
47.72000 154.946
47.76000 169.309
47.80000 160.055
47.84000 166.377
47.88000 158.321
47.92000 160.093
47.96000 160.385
48.00000 163.664
48.04000 161.333
48.08000 156.855
48.12000 161.507
48.16000 156.189
48.20000 161.177
48.24000 159.942
48.28000 164.250
48.32000 168.043
48.36000 168.084
48.40000 162.599
48.44000 158.869
48.48000 159.831
48.52000 155.087
48.56000 169.186
48.60000 160.121
48.64000 162.030
48.68000 156.049
48.72000 157.592
48.76000 145.119
48.80000 161.668
48.84000 153.892
48.88000 155.299
48.92000 151.580
48.96000 158.040
49.00000 168.504
49.04000 169.152
49.08000 165.693
49.12000 144.218
49.16000 160.516
49.20000 159.358
49.24000 160.329
49.28000 151.194
49.32000 155.695
49.36000 159.487
49.40000 156.931
49.44000 162.337
49.48000 159.050
49.52000 146.747
49.56000 156.063
49.60000 157.282
49.64000 149.932
49.68000 156.844
49.72000 163.435
49.76000 158.675
49.80000 151.346
49.84000 139.795
49.88000 144.626
49.92000 165.000
49.96000 153.842
50.00000 153.000
50.04000 160.100
50.08000 159.351
50.12000 162.879
50.16000 156.336
50.20000 154.050
50.24000 147.136
50.28000 143.451
50.32000 170.185
50.36000 165.558
50.40000 169.239
50.44000 165.524
50.48000 157.715
50.52000 168.693
50.56000 190.712
50.60000 190.797
50.64000 201.093
50.68000 217.684
50.72000 231.163
50.76000 233.169
50.80000 227.415
50.84000 229.141
50.88000 235.978
50.92000 207.342
50.96000 196.826
51.00000 194.252
51.04000 191.126
51.08000 190.303
51.12000 176.330
51.16000 162.276
51.20000 171.237
51.24000 157.328
51.28000 156.612
51.32000 160.368
51.36000 166.506
51.40000 160.357
51.44000 152.822
51.48000 150.406
51.52000 158.946
51.56000 155.081
51.60000 140.798
51.64000 145.805
51.68000 143.067
51.72000 156.061
51.76000 136.752
51.80000 149.296
51.84000 140.953
51.88000 152.645
51.92000 148.182
51.96000 136.062
52.00000 145.224
52.04000 142.914
52.08000 133.142
52.12000 133.538
52.16000 148.862
52.20000 147.776
52.24000 138.546
52.28000 135.817
52.32000 132.972
52.36000 137.410
52.40000 136.510
52.44000 128.602
52.48000 139.410
52.52000 143.898
52.56000 140.402
52.60000 144.819
52.64000 146.245
52.68000 143.288
52.72000 142.574
52.76000 144.197
52.80000 144.462
52.84000 146.001
52.88000 144.364
52.92000 146.963
52.96000 135.794
53.00000 135.185
53.04000 141.191
53.08000 148.166
53.12000 147.690
53.16000 141.284
53.20000 143.384
53.24000 150.128
53.28000 147.038
53.32000 133.114
53.36000 149.848
53.40000 149.868
53.44000 155.805
53.48000 158.630
53.52000 148.065
53.56000 140.973
53.60000 150.362
53.64000 150.613
53.68000 143.403
53.72000 140.761
53.76000 136.391
53.80000 146.620
53.84000 145.780
53.88000 145.897
53.92000 141.871
53.96000 135.070
54.00000 131.564
54.04000 148.598
54.08000 137.921
54.12000 149.075
54.16000 135.662
54.20000 132.081
54.24000 131.959
54.28000 148.238
54.32000 135.634
54.36000 139.479
54.40000 134.772
54.44000 141.359
54.48000 140.283
54.52000 133.325
54.56000 142.204
54.60000 140.317
54.64000 141.927
54.68000 144.452
54.72000 144.767
54.76000 138.281
54.80000 137.686
54.84000 128.956
54.88000 135.578
54.92000 135.092
54.96000 138.655
55.00000 143.828
55.04000 141.323
55.08000 141.147
55.12000 140.893
55.16000 148.694
55.20000 148.981
55.24000 142.981
55.28000 154.819
55.32000 153.512
55.36000 143.333
55.40000 147.662
55.44000 150.567
55.48000 169.135
55.52000 164.971
55.56000 178.525
55.60000 182.524
55.64000 188.819
55.68000 206.718
55.72000 240.058
55.76000 269.926
55.80000 315.566
55.84000 345.865
55.88000 429.373
55.92000 474.559
55.96000 536.006
56.00000 546.609
56.04000 545.832
56.08000 561.644
56.12000 509.295
56.16000 459.081
56.20000 415.422
56.24000 365.932
56.28000 328.545
56.32000 290.806
56.36000 249.571
56.40000 242.047
56.44000 211.918
56.48000 193.074
56.52000 190.843
56.56000 164.724
56.60000 161.323
56.64000 161.592
56.68000 148.394
56.72000 161.610
56.76000 147.353
56.80000 143.696
56.84000 150.521
56.88000 142.809
56.92000 147.185
56.96000 140.397
57.00000 140.021
57.04000 127.672
57.08000 137.173
57.12000 132.031
57.16000 127.795
57.20000 133.364
57.24000 140.242
57.28000 130.020
57.32000 115.530
57.36000 132.730
57.40000 123.470
57.44000 120.023
57.48000 121.461
57.52000 115.681
57.56000 125.659
57.60000 117.635
57.64000 125.712
57.68000 127.624
57.72000 118.526
57.76000 135.974
57.80000 123.571
57.84000 135.116
57.88000 128.337
57.92000 126.020
57.96000 117.852
58.00000 121.897
58.04000 125.777
58.08000 124.988
58.12000 123.410
58.16000 110.494
58.20000 125.027
58.24000 133.264
58.28000 120.571
58.32000 119.891
58.36000 128.218
58.40000 137.391
58.44000 119.536
58.48000 125.379
58.52000 128.293
58.56000 126.254
58.60000 122.387
58.64000 126.665
58.68000 116.584
58.72000 114.666
58.76000 129.247
58.80000 117.688
58.84000 117.185
58.88000 117.318
58.92000 112.330
58.96000 121.729
59.00000 120.555
59.04000 122.612
59.08000 111.325
59.12000 121.615
59.16000 115.423
59.20000 121.734
59.24000 115.984
59.28000 114.803
59.32000 123.519
59.36000 125.151
59.40000 126.128
59.44000 117.006
59.48000 120.106
59.52000 124.363
59.56000 122.015
59.60000 108.646
59.64000 116.833
59.68000 124.021
59.72000 113.874
59.76000 120.165
59.80000 125.002
59.84000 114.650
59.88000 119.227
59.92000 128.222
59.96000 112.454
60.00000 117.634
60.04000 125.646
60.08000 121.223
60.12000 124.062
60.16000 124.873
60.20000 124.406
60.24000 127.158
60.28000 124.767
60.32000 134.030
60.36000 122.290
60.40000 120.619
60.44000 107.589
60.48000 112.594
60.52000 120.981
60.56000 129.954
60.60000 118.808
60.64000 107.471
60.68000 120.996
60.72000 116.957
60.76000 127.579
60.80000 113.840
60.84000 116.746
60.88000 116.585
60.92000 115.987
60.96000 108.304
61.00000 120.381
61.04000 114.445
61.08000 125.884
61.12000 123.630
61.16000 122.215
61.20000 116.693
61.24000 122.398
61.28000 115.999
61.32000 124.940
61.36000 124.355
61.40000 131.841
61.44000 133.344
61.48000 124.226
61.52000 168.777
61.56000 235.728
61.60000 282.956
61.64000 308.626
61.68000 342.741
61.72000 342.850
61.76000 327.895
61.80000 245.435
61.84000 188.254
61.88000 163.996
61.92000 142.342
61.96000 140.441
62.00000 123.274
62.04000 129.158
62.08000 129.605
62.12000 126.488
62.16000 130.505
62.20000 132.561
62.24000 135.217
62.28000 122.703
62.32000 130.900
62.36000 128.299
62.40000 131.545
62.44000 132.928
62.48000 133.244
62.52000 139.584
62.56000 133.412
62.60000 133.812
62.64000 138.844
62.68000 129.720
62.72000 136.514
62.76000 132.623
62.80000 131.688
62.84000 143.092
62.88000 140.669
62.92000 135.177
62.96000 131.261
63.00000 136.052
63.04000 124.613
63.08000 129.538
63.12000 142.067
63.16000 130.540
63.20000 132.802
63.24000 151.445
63.28000 140.585
63.32000 128.767
63.36000 134.263
63.40000 136.789
63.44000 135.303
63.48000 143.994
63.52000 127.504
63.56000 139.600
63.60000 144.822
63.64000 151.723
63.68000 150.218
63.72000 143.844
63.76000 150.732
63.80000 146.235
63.84000 161.579
63.88000 135.982
63.92000 152.764
63.96000 152.564
64.00000 152.523
64.04000 148.242
64.08000 152.899
64.12000 151.676
64.16000 162.710
64.20000 161.252
64.24000 164.529
64.28000 166.934
64.32000 149.814
64.36000 157.558
64.40000 165.645
64.44000 160.729
64.48000 160.012
64.52000 159.732
64.56000 174.587
64.60000 177.341
64.64000 170.505
64.68000 169.798
64.72000 177.555
64.76000 174.263
64.80000 175.789
64.84000 172.785
64.88000 185.950
64.92000 198.354
64.96000 201.443
65.00000 199.567
65.04000 202.899
65.08000 203.150
65.12000 199.381
65.16000 212.647
65.20000 211.851
65.24000 224.191
65.28000 243.726
65.32000 255.321
65.36000 267.555
65.40000 305.140
65.44000 356.301
65.48000 372.917
65.52000 389.976
65.56000 451.049
65.60000 507.219
65.64000 594.096
65.68000 804.048
65.72000 1219.374
65.76000 1832.675
65.80000 2286.879
65.84000 2404.584
65.88000 2471.002
65.92000 2351.490
65.96000 1907.847
66.00000 1269.902
66.04000 810.992
66.08000 559.048
66.12000 473.778
66.16000 436.637
66.20000 456.601
66.24000 461.907
66.28000 556.358
66.32000 657.753
66.36000 709.839
66.40000 731.749
66.44000 756.787
66.48000 722.502
66.52000 613.925
66.56000 508.827
66.60000 443.986
66.64000 423.498
66.68000 400.862
66.72000 392.465
66.76000 378.479
66.80000 386.049
66.84000 394.071
66.88000 377.705
66.92000 407.634
66.96000 405.727
67.00000 411.727
67.04000 418.749
67.08000 404.497
67.12000 420.526
67.16000 436.040
67.20000 421.986
67.24000 444.005
67.28000 446.959
67.32000 443.625
67.36000 449.222
67.40000 458.182
67.44000 465.531
67.48000 474.966
67.52000 475.551
67.56000 477.986
67.60000 471.260
67.64000 488.760
67.68000 503.021
67.72000 504.127
67.76000 504.412
67.80000 508.572
67.84000 529.560
67.88000 535.794
67.92000 527.052
67.96000 547.953
68.00000 553.794
68.04000 587.739
68.08000 574.314
68.12000 603.648
68.16000 588.669
68.20000 612.418
68.24000 611.955
68.28000 635.269
68.32000 666.203
68.36000 689.859
68.40000 682.521
68.44000 733.945
68.48000 759.381
68.52000 822.203
68.56000 874.933
68.60000 996.814
68.64000 1138.408
68.68000 1367.140
68.72000 1596.799
68.76000 1753.465
68.80000 2082.538
68.84000 2426.783
68.88000 3140.357
68.92000 5266.565
68.96000 12442.852
69.00000 28207.143
69.04000 44894.480
69.08000 53692.188
69.12000 57382.336
69.16000 60992.305
69.20000 59660.844
69.24000 48005.090
69.28000 36328.160
69.32000 29540.225
69.36000 27358.998
69.40000 22627.703
69.44000 13673.115
69.48000 6182.208
69.52000 2833.084
69.56000 1677.554
69.60000 1293.354
69.64000 1090.981
69.68000 970.183
69.72000 856.322
69.76000 753.158
69.80000 724.359
69.84000 647.681
69.88000 618.066
69.92000 593.870
69.96000 574.172
70.00000 529.450