File: XRD/09-10-2025 Dep 8/XY Data/BTO_Mapping_Theta2Theta_09-10-2025_001_01_0-000_0-000.xy
20.00000 501.925
20.04000 482.613
20.08000 471.689
20.12000 505.024
20.16000 487.258
20.20000 488.644
20.24000 479.183
20.28000 497.044
20.32000 474.666
20.36000 499.911
20.40000 495.222
20.44000 497.298
20.48000 486.771
20.52000 479.512
20.56000 468.286
20.60000 468.318
20.64000 489.796
20.68000 469.595
20.72000 494.234
20.76000 485.617
20.80000 479.204
20.84000 491.483
20.88000 478.873
20.92000 480.772
20.96000 471.335
21.00000 476.628
21.04000 484.521
21.08000 472.395
21.12000 484.591
21.16000 480.138
21.20000 487.423
21.24000 472.916
21.28000 487.284
21.32000 465.220
21.36000 490.243
21.40000 468.899
21.44000 488.760
21.48000 485.731
21.52000 515.210
21.56000 472.981
21.60000 489.235
21.64000 488.161
21.68000 508.185
21.72000 484.281
21.76000 501.677
21.80000 517.906
21.84000 552.326
21.88000 541.775
21.92000 556.646
21.96000 596.980
22.00000 639.317
22.04000 655.248
22.08000 646.048
22.12000 631.377
22.16000 629.419
22.20000 610.513
22.24000 614.162
22.28000 571.849
22.32000 558.775
22.36000 538.834
22.40000 535.089
22.44000 516.833
22.48000 495.758
22.52000 489.599
22.56000 473.549
22.60000 455.827
22.64000 463.094
22.68000 475.679
22.72000 478.193
22.76000 459.694
22.80000 448.213
22.84000 424.897
22.88000 440.872
22.92000 453.771
22.96000 431.587
23.00000 434.417
23.04000 427.746
23.08000 449.367
23.12000 436.653
23.16000 451.200
23.20000 447.211
23.24000 441.699
23.28000 440.339
23.32000 425.946
23.36000 427.224
23.40000 440.291
23.44000 439.722
23.48000 424.578
23.52000 433.746
23.56000 426.324
23.60000 438.995
23.64000 430.866
23.68000 447.837
23.72000 432.997
23.76000 449.202
23.80000 433.123
23.84000 425.303
23.88000 422.704
23.92000 426.099
23.96000 413.357
24.00000 421.942
24.04000 409.125
24.08000 429.776
24.12000 419.431
24.16000 422.138
24.20000 429.994
24.24000 435.167
24.28000 412.054
24.32000 420.997
24.36000 429.612
24.40000 391.394
24.44000 409.558
24.48000 410.907
24.52000 419.861
24.56000 412.393
24.60000 425.987
24.64000 426.725
24.68000 422.492
24.72000 407.127
24.76000 414.105
24.80000 419.306
24.84000 422.247
24.88000 410.094
24.92000 421.055
24.96000 411.398
25.00000 408.159
25.04000 401.100
25.08000 411.741
25.12000 423.895
25.16000 411.712
25.20000 429.454
25.24000 406.181
25.28000 406.261
25.32000 398.608
25.36000 399.663
25.40000 411.072
25.44000 396.359
25.48000 399.607
25.52000 396.981
25.56000 409.181
25.60000 409.868
25.64000 415.852
25.68000 398.216
25.72000 394.521
25.76000 405.271
25.80000 398.962
25.84000 410.707
25.88000 398.951
25.92000 386.633
25.96000 395.627
26.00000 408.139
26.04000 395.124
26.08000 400.490
26.12000 390.589
26.16000 407.028
26.20000 398.002
26.24000 383.284
26.28000 404.581
26.32000 373.012
26.36000 382.425
26.40000 390.229
26.44000 391.817
26.48000 388.727
26.52000 388.265
26.56000 402.609
26.60000 401.018
26.64000 402.744
26.68000 393.820
26.72000 411.248
26.76000 387.263
26.80000 392.859
26.84000 394.523
26.88000 388.398
26.92000 391.851
26.96000 396.336
27.00000 389.554
27.04000 376.089
27.08000 373.885
27.12000 391.790
27.16000 367.786
27.20000 361.180
27.24000 378.325
27.28000 375.684
27.32000 363.946
27.36000 394.766
27.40000 390.296
27.44000 383.626
27.48000 369.701
27.52000 388.234
27.56000 373.135
27.60000 407.590
27.64000 371.433
27.68000 381.877
27.72000 374.530
27.76000 378.046
27.80000 383.568
27.84000 379.357
27.88000 393.657
27.92000 376.686
27.96000 371.784
28.00000 380.048
28.04000 377.171
28.08000 362.126
28.12000 380.790
28.16000 383.991
28.20000 375.828
28.24000 377.809
28.28000 373.642
28.32000 381.944
28.36000 381.197
28.40000 363.726
28.44000 356.061
28.48000 366.837
28.52000 376.338
28.56000 369.116
28.60000 366.512
28.64000 361.755
28.68000 368.327
28.72000 375.779
28.76000 383.626
28.80000 367.197
28.84000 369.232
28.88000 378.643
28.92000 362.813
28.96000 366.383
29.00000 368.052
29.04000 383.559
29.08000 367.810
29.12000 363.499
29.16000 374.991
29.20000 364.261
29.24000 366.032
29.28000 367.858
29.32000 371.840
29.36000 360.216
29.40000 347.314
29.44000 351.761
29.48000 371.442
29.52000 357.872
29.56000 371.592
29.60000 371.850
29.64000 366.030
29.68000 369.757
29.72000 366.917
29.76000 391.867
29.80000 387.446
29.84000 397.361
29.88000 418.951
29.92000 443.866
29.96000 464.932
30.00000 463.287
30.04000 478.353
30.08000 466.279
30.12000 460.969
30.16000 457.163
30.20000 443.544
30.24000 412.790
30.28000 394.361
30.32000 408.532
30.36000 412.536
30.40000 406.219
30.44000 398.043
30.48000 397.803
30.52000 409.693
30.56000 400.688
30.60000 423.162
30.64000 419.070
30.68000 422.239
30.72000 413.678
30.76000 431.368
30.80000 431.623
30.84000 449.804
30.88000 461.452
30.92000 490.011
30.96000 518.732
31.00000 572.212
31.04000 622.600
31.08000 737.704
31.12000 897.940
31.16000 1135.080
31.20000 1446.007
31.24000 1839.470
31.28000 2372.614
31.32000 2847.454
31.36000 3145.419
31.40000 3243.816
31.44000 3139.769
31.48000 2772.236
31.52000 2372.556
31.56000 1850.505
31.60000 1468.085
31.64000 1124.604
31.68000 909.900
31.72000 760.044
31.76000 622.643
31.80000 556.390
31.84000 534.109
31.88000 469.645
31.92000 440.175
31.96000 419.977
32.00000 405.153
32.04000 391.129
32.08000 372.493
32.12000 375.918
32.16000 369.804
32.20000 353.172
32.24000 346.996
32.28000 328.136
32.32000 351.337
32.36000 350.483
32.40000 341.128
32.44000 345.187
32.48000 346.554
32.52000 358.692
32.56000 342.783
32.60000 336.147
32.64000 324.078
32.68000 329.929
32.72000 333.898
32.76000 333.732
32.80000 312.488
32.84000 322.180
32.88000 322.210
32.92000 328.117
32.96000 320.790
33.00000 317.134
33.04000 294.857
33.08000 299.282
33.12000 303.617
33.16000 311.639
33.20000 311.168
33.24000 307.130
33.28000 302.138
33.32000 309.204
33.36000 295.281
33.40000 282.123
33.44000 309.016
33.48000 301.952
33.52000 303.497
33.56000 303.758
33.60000 289.124
33.64000 304.166
33.68000 313.961
33.72000 302.176
33.76000 302.919
33.80000 295.393
33.84000 278.833
33.88000 295.525
33.92000 296.855
33.96000 298.722
34.00000 280.239
34.04000 296.521
34.08000 291.718
34.12000 290.862
34.16000 297.929
34.20000 290.850
34.24000 284.774
34.28000 285.481
34.32000 305.276
34.36000 283.964
34.40000 286.341
34.44000 289.785
34.48000 276.032
34.52000 282.926
34.56000 263.097
34.60000 284.226
34.64000 288.579
34.68000 270.420
34.72000 275.812
34.76000 270.100
34.80000 278.851
34.84000 285.819
34.88000 296.508
34.92000 281.138
34.96000 280.744
35.00000 279.813
35.04000 279.751
35.08000 288.854
35.12000 274.937
35.16000 272.978
35.20000 282.810
35.24000 277.442
35.28000 267.903
35.32000 261.548
35.36000 266.905
35.40000 266.475
35.44000 271.130
35.48000 274.013
35.52000 265.998
35.56000 254.146
35.60000 272.568
35.64000 276.103
35.68000 275.985
35.72000 271.136
35.76000 274.656
35.80000 262.465
35.84000 275.895
35.88000 257.124
35.92000 288.424
35.96000 260.880
36.00000 285.134
36.04000 261.055
36.08000 271.818
36.12000 266.966
36.16000 262.742
36.20000 263.725
36.24000 268.281
36.28000 257.538
36.32000 269.600
36.36000 262.656
36.40000 260.783
36.44000 257.994
36.48000 242.548
36.52000 263.059
36.56000 262.203
36.60000 246.350
36.64000 277.240
36.68000 266.769
36.72000 277.201
36.76000 265.767
36.80000 270.888
36.84000 284.117
36.88000 284.529
36.92000 272.851
36.96000 273.583
37.00000 291.239
37.04000 293.300
37.08000 276.159
37.12000 277.626
37.16000 270.421
37.20000 284.385
37.24000 277.762
37.28000 270.595
37.32000 271.819
37.36000 267.644
37.40000 265.362
37.44000 265.467
37.48000 259.242
37.52000 260.752
37.56000 263.533
37.60000 266.022
37.64000 256.258
37.68000 263.398
37.72000 273.621
37.76000 247.067
37.80000 267.999
37.84000 264.278
37.88000 269.170
37.92000 262.967
37.96000 264.744
38.00000 272.270
38.04000 281.270
38.08000 270.494
38.12000 277.364
38.16000 276.780
38.20000 293.787
38.24000 290.582
38.28000 287.257
38.32000 320.089
38.36000 328.026
38.40000 351.000
38.44000 400.152
38.48000 446.937
38.52000 554.870
38.56000 670.484
38.60000 814.402
38.64000 959.383
38.68000 1044.237
38.72000 1085.619
38.76000 1074.788
38.80000 966.706
38.84000 866.137
38.88000 703.424
38.92000 583.501
38.96000 462.810
39.00000 396.251
39.04000 335.792
39.08000 314.843
39.12000 276.651
39.16000 270.915
39.20000 264.386
39.24000 262.737
39.28000 259.720
39.32000 255.469
39.36000 265.099
39.40000 253.055
39.44000 235.919
39.48000 253.485
39.52000 252.219
39.56000 245.382
39.60000 233.622
39.64000 233.884
39.68000 228.420
39.72000 225.599
39.76000 234.640
39.80000 223.927
39.84000 221.795
39.88000 232.093
39.92000 233.405
39.96000 229.671
40.00000 219.442
40.04000 241.531
40.08000 228.710
40.12000 222.111
40.16000 221.234
40.20000 245.278
40.24000 227.097
40.28000 227.868
40.32000 221.660
40.36000 221.347
40.40000 221.716
40.44000 229.343
40.48000 218.660
40.52000 222.961
40.56000 239.019
40.60000 213.264
40.64000 210.274
40.68000 218.553
40.72000 215.049
40.76000 221.166
40.80000 215.669
40.84000 210.608
40.88000 227.242
40.92000 204.694
40.96000 227.360
41.00000 224.577
41.04000 217.751
41.08000 206.879
41.12000 219.858
41.16000 217.747
41.20000 225.254
41.24000 209.326
41.28000 222.199
41.32000 220.474
41.36000 214.730
41.40000 210.583
41.44000 213.057
41.48000 203.623
41.52000 212.536
41.56000 230.175
41.60000 201.724
41.64000 205.571
41.68000 215.806
41.72000 225.122
41.76000 219.761
41.80000 205.751
41.84000 209.067
41.88000 210.850
41.92000 223.320
41.96000 222.346
42.00000 210.633
42.04000 202.681
42.08000 203.353
42.12000 205.379
42.16000 198.478
42.20000 204.352
42.24000 209.055
42.28000 202.671
42.32000 207.380
42.36000 203.107
42.40000 209.911
42.44000 204.039
42.48000 189.906
42.52000 197.832
42.56000 202.990
42.60000 215.492
42.64000 207.940
42.68000 204.409
42.72000 206.826
42.76000 194.476
42.80000 204.418
42.84000 197.664
42.88000 207.985
42.92000 200.090
42.96000 201.062
43.00000 204.697
43.04000 207.827
43.08000 195.085
43.12000 199.328
43.16000 195.537
43.20000 203.801
43.24000 200.162
43.28000 206.581
43.32000 206.456
43.36000 195.668
43.40000 204.997
43.44000 189.968
43.48000 194.435
43.52000 194.706
43.56000 193.152
43.60000 202.925
43.64000 199.512
43.68000 197.418
43.72000 202.774
43.76000 203.996
43.80000 195.997
43.84000 201.042
43.88000 204.188
43.92000 192.586
43.96000 192.308
44.00000 197.181
44.04000 200.054
44.08000 187.359
44.12000 201.453
44.16000 182.405
44.20000 204.524
44.24000 210.389
44.28000 191.702
44.32000 195.603
44.36000 204.229
44.40000 203.166
44.44000 195.234
44.48000 199.944
44.52000 187.510
44.56000 207.598
44.60000 209.928
44.64000 215.329
44.68000 227.591
44.72000 222.057
44.76000 219.495
44.80000 245.437
44.84000 244.809
44.88000 260.023
44.92000 263.232
44.96000 295.805
45.00000 319.856
45.04000 321.943
45.08000 329.711
45.12000 339.346
45.16000 345.264
45.20000 342.461
45.24000 331.719
45.28000 309.065
45.32000 316.865
45.36000 296.187
45.40000 278.671
45.44000 268.160
45.48000 270.322
45.52000 246.873
45.56000 239.153
45.60000 243.010
45.64000 226.933
45.68000 215.220
45.72000 226.336
45.76000 223.279
45.80000 209.426
45.84000 210.345
45.88000 204.852
45.92000 195.117
45.96000 209.812
46.00000 184.961
46.04000 188.391
46.08000 191.068
46.12000 196.640
46.16000 192.552
46.20000 192.259
46.24000 182.283
46.28000 173.969
46.32000 183.079
46.36000 183.254
46.40000 179.446
46.44000 178.543
46.48000 178.796
46.52000 182.242
46.56000 181.880
46.60000 178.043
46.64000 183.119
46.68000 170.583
46.72000 176.691
46.76000 182.606
46.80000 183.268
46.84000 180.966
46.88000 170.924
46.92000 174.523
46.96000 173.324
47.00000 163.004
47.04000 175.161
47.08000 162.519
47.12000 173.648
47.16000 171.063
47.20000 171.802
47.24000 169.240
47.28000 165.182
47.32000 160.258
47.36000 163.527
47.40000 163.389
47.44000 167.615
47.48000 168.118
47.52000 162.010
47.56000 161.912
47.60000 172.479
47.64000 156.822
47.68000 170.780
47.72000 170.662
47.76000 168.516
47.80000 178.497
47.84000 159.418
47.88000 151.838
47.92000 160.341
47.96000 161.279
48.00000 161.854
48.04000 164.676
48.08000 166.088
48.12000 165.823
48.16000 161.127
48.20000 166.522
48.24000 157.605
48.28000 159.216
48.32000 159.452
48.36000 163.694
48.40000 164.184
48.44000 157.813
48.48000 175.976
48.52000 162.100
48.56000 152.902
48.60000 166.716
48.64000 154.520
48.68000 161.994
48.72000 153.306
48.76000 165.770
48.80000 156.011
48.84000 157.881
48.88000 159.017
48.92000 159.120
48.96000 157.598
49.00000 152.959
49.04000 161.839
49.08000 151.612
49.12000 174.275
49.16000 162.144
49.20000 158.813
49.24000 144.526
49.28000 158.522
49.32000 162.463
49.36000 159.800
49.40000 161.123
49.44000 155.037
49.48000 159.659
49.52000 160.755
49.56000 151.003
49.60000 151.291
49.64000 158.219
49.68000 163.026
49.72000 149.287
49.76000 152.707
49.80000 158.922
49.84000 157.804
49.88000 156.011
49.92000 167.948
49.96000 158.646
50.00000 157.976
50.04000 162.016
50.08000 147.490
50.12000 149.452
50.16000 149.271
50.20000 165.796
50.24000 159.151
50.28000 168.461
50.32000 165.044
50.36000 160.443
50.40000 161.612
50.44000 168.287
50.48000 188.597
50.52000 196.912
50.56000 199.111
50.60000 214.140
50.64000 211.077
50.68000 233.430
50.72000 237.093
50.76000 233.046
50.80000 227.497
50.84000 227.268
50.88000 224.621
50.92000 218.424
50.96000 204.646
51.00000 191.040
51.04000 180.711
51.08000 169.711
51.12000 171.763
51.16000 164.760
51.20000 159.615
51.24000 160.695
51.28000 156.494
51.32000 152.840
51.36000 155.823
51.40000 157.103
51.44000 152.180
51.48000 144.462
51.52000 149.730
51.56000 149.270
51.60000 141.500
51.64000 146.451
51.68000 154.220
51.72000 160.348
51.76000 154.308
51.80000 142.134
51.84000 146.575
51.88000 142.989
51.92000 148.117
51.96000 147.095
52.00000 137.336
52.04000 142.090
52.08000 147.214
52.12000 138.885
52.16000 140.166
52.20000 145.743
52.24000 136.688
52.28000 138.563
52.32000 143.891
52.36000 140.448
52.40000 147.086
52.44000 133.525
52.48000 144.408
52.52000 147.359
52.56000 150.263
52.60000 145.580
52.64000 151.216
52.68000 135.705
52.72000 150.719
52.76000 138.764
52.80000 135.847
52.84000 133.919
52.88000 138.029
52.92000 145.921
52.96000 124.530
53.00000 138.076
53.04000 142.147
53.08000 144.507
53.12000 138.938
53.16000 136.323
53.20000 140.703
53.24000 148.201
53.28000 159.462
53.32000 151.196
53.36000 150.185
53.40000 150.880
53.44000 161.185
53.48000 148.974
53.52000 150.682
53.56000 154.018
53.60000 149.111
53.64000 143.548
53.68000 143.739
53.72000 151.691
53.76000 147.606
53.80000 144.814
53.84000 148.658
53.88000 133.235
53.92000 149.610
53.96000 144.941
54.00000 147.187
54.04000 136.200
54.08000 138.487
54.12000 137.240
54.16000 142.024
54.20000 149.962
54.24000 133.796
54.28000 142.537
54.32000 144.126
54.36000 133.708
54.40000 129.853
54.44000 137.305
54.48000 136.610
54.52000 133.678
54.56000 142.317
54.60000 139.399
54.64000 142.717
54.68000 133.503
54.72000 139.855
54.76000 135.258
54.80000 136.140
54.84000 140.456
54.88000 150.454
54.92000 134.081
54.96000 139.842
55.00000 134.971
55.04000 139.392
55.08000 148.228
55.12000 151.384
55.16000 150.283
55.20000 144.948
55.24000 140.522
55.28000 144.672
55.32000 161.035
55.36000 156.657
55.40000 158.839
55.44000 164.939
55.48000 173.009
55.52000 183.454
55.56000 190.469
55.60000 213.378
55.64000 217.590
55.68000 242.601
55.72000 288.847
55.76000 336.180
55.80000 388.509
55.84000 442.578
55.88000 488.948
55.92000 534.782
55.96000 551.723
56.00000 558.354
56.04000 558.057
56.08000 514.868
56.12000 477.642
56.16000 398.772
56.20000 355.996
56.24000 317.347
56.28000 288.543
56.32000 244.948
56.36000 226.100
56.40000 216.252
56.44000 205.588
56.48000 186.610
56.52000 185.973
56.56000 168.719
56.60000 159.682
56.64000 159.967
56.68000 152.507
56.72000 152.286
56.76000 142.082
56.80000 129.371
56.84000 137.901
56.88000 137.506
56.92000 136.744
56.96000 142.754
57.00000 129.127
57.04000 142.051
57.08000 129.792
57.12000 126.208
57.16000 135.192
57.20000 129.521
57.24000 130.876
57.28000 133.930
57.32000 130.198
57.36000 122.954
57.40000 118.448
57.44000 137.243
57.48000 127.637
57.52000 124.080
57.56000 127.402
57.60000 121.073
57.64000 120.825
57.68000 128.717
57.72000 123.658
57.76000 122.740
57.80000 124.623
57.84000 134.218
57.88000 118.259
57.92000 123.102
57.96000 116.664
58.00000 129.469
58.04000 127.322
58.08000 119.788
58.12000 124.717
58.16000 126.451
58.20000 123.276
58.24000 123.886
58.28000 128.627
58.32000 129.887
58.36000 127.595
58.40000 124.257
58.44000 117.249
58.48000 125.890
58.52000 118.315
58.56000 115.521
58.60000 120.357
58.64000 122.084
58.68000 135.478
58.72000 113.972
58.76000 123.525
58.80000 116.155
58.84000 124.898
58.88000 123.549
58.92000 127.011
58.96000 127.973
59.00000 113.591
59.04000 118.232
59.08000 121.494
59.12000 120.229
59.16000 109.901
59.20000 119.685
59.24000 114.876
59.28000 121.524
59.32000 125.569
59.36000 116.241
59.40000 118.409
59.44000 114.076
59.48000 120.024
59.52000 116.145
59.56000 132.005
59.60000 126.167
59.64000 120.865
59.68000 125.356
59.72000 125.647
59.76000 115.985
59.80000 113.758
59.84000 112.266
59.88000 123.525
59.92000 127.382
59.96000 112.100
60.00000 120.825
60.04000 123.345
60.08000 116.339
60.12000 121.198
60.16000 115.715
60.20000 111.347
60.24000 120.241
60.28000 117.925
60.32000 124.804
60.36000 122.668
60.40000 126.184
60.44000 126.440
60.48000 121.825
60.52000 121.836
60.56000 121.761
60.60000 117.832
60.64000 121.273
60.68000 118.894
60.72000 122.501
60.76000 122.653
60.80000 127.843
60.84000 128.622
60.88000 117.266
60.92000 117.517
60.96000 112.511
61.00000 123.883
61.04000 123.080
61.08000 119.390
61.12000 116.908
61.16000 125.980
61.20000 127.243
61.24000 122.245
61.28000 118.973
61.32000 127.865
61.36000 121.237
61.40000 136.772
61.44000 133.322
61.48000 144.496
61.52000 186.890
61.56000 257.434
61.60000 325.339
61.64000 355.335
61.68000 351.402
61.72000 362.835
61.76000 331.463
61.80000 245.962
61.84000 183.856
61.88000 151.062
61.92000 148.861
61.96000 141.104
62.00000 128.281
62.04000 136.199
62.08000 119.301
62.12000 128.904
62.16000 132.705
62.20000 141.663
62.24000 133.850
62.28000 128.727
62.32000 139.130
62.36000 127.055
62.40000 146.697
62.44000 127.160
62.48000 133.394
62.52000 138.181
62.56000 134.886
62.60000 143.122
62.64000 141.108
62.68000 134.890
62.72000 130.729
62.76000 136.858
62.80000 133.108
62.84000 143.096
62.88000 139.774
62.92000 131.105
62.96000 140.074
63.00000 138.704
63.04000 123.441
63.08000 142.436
63.12000 139.202
63.16000 131.181
63.20000 142.322
63.24000 139.212
63.28000 137.360
63.32000 148.033
63.36000 138.785
63.40000 133.746
63.44000 144.550
63.48000 141.491
63.52000 141.560
63.56000 150.554
63.60000 135.463
63.64000 152.382
63.68000 146.242
63.72000 156.000
63.76000 157.873
63.80000 150.340
63.84000 144.053
63.88000 143.283
63.92000 149.016
63.96000 141.227
64.00000 137.161
64.04000 154.818
64.08000 145.105
64.12000 158.872
64.16000 158.541
64.20000 162.841
64.24000 164.674
64.28000 154.997
64.32000 164.858
64.36000 166.034
64.40000 160.446
64.44000 164.541
64.48000 164.663
64.52000 173.062
64.56000 175.835
64.60000 185.871
64.64000 171.243
64.68000 161.179
64.72000 186.024
64.76000 180.739
64.80000 180.606
64.84000 190.239
64.88000 193.131
64.92000 197.822
64.96000 202.849
65.00000 205.574
65.04000 217.477
65.08000 211.884
65.12000 211.397
65.16000 233.777
65.20000 229.340
65.24000 260.478
65.28000 281.812
65.32000 298.343
65.36000 315.871
65.40000 356.052
65.44000 401.500
65.48000 421.067
65.52000 478.462
65.56000 525.373
65.60000 567.799
65.64000 645.064
65.68000 926.074
65.72000 1444.660
65.76000 1986.570
65.80000 2469.574
65.84000 2652.760
65.88000 2640.446
65.92000 2415.925
65.96000 1911.476
66.00000 1238.472
66.04000 748.192
66.08000 558.076
66.12000 474.819
66.16000 448.444
66.20000 455.029
66.24000 494.526
66.28000 604.388
66.32000 715.223
66.36000 773.157
66.40000 788.047
66.44000 784.851
66.48000 757.355
66.52000 639.536
66.56000 537.326
66.60000 457.385
66.64000 424.818
66.68000 392.141
66.72000 412.941
66.76000 421.486
66.80000 398.433
66.84000 410.231
66.88000 416.560
66.92000 432.093
66.96000 440.381
67.00000 430.695
67.04000 437.094
67.08000 435.438
67.12000 433.691
67.16000 428.057
67.20000 447.825
67.24000 466.830
67.28000 457.355
67.32000 479.938
67.36000 474.953
67.40000 466.537
67.44000 489.911
67.48000 502.072
67.52000 490.356
67.56000 495.545
67.60000 490.033
67.64000 497.321
67.68000 511.850
67.72000 521.836
67.76000 526.447
67.80000 538.159
67.84000 528.464
67.88000 544.477
67.92000 572.635
67.96000 566.589
68.00000 554.436
68.04000 593.100
68.08000 598.663
68.12000 625.661
68.16000 613.052
68.20000 634.847
68.24000 650.493
68.28000 642.577
68.32000 695.261
68.36000 731.462
68.40000 734.909
68.44000 773.984
68.48000 803.898
68.52000 845.292
68.56000 943.915
68.60000 1067.505
68.64000 1259.050
68.68000 1499.506
68.72000 1745.179
68.76000 1905.831
68.80000 2289.470
68.84000 2691.863
68.88000 3618.844
68.92000 6678.476
68.96000 16777.305
69.00000 35787.898
69.04000 52753.566
69.08000 60576.957
69.12000 63930.016
69.16000 67419.852
69.20000 64423.969
69.24000 49964.348
69.28000 37837.805
69.32000 31898.654
69.36000 29340.941
69.40000 23212.209
69.44000 12847.997
69.48000 5541.445
69.52000 2644.749
69.56000 1670.585
69.60000 1300.467
69.64000 1102.835
69.68000 968.417
69.72000 869.696
69.76000 766.210
69.80000 721.953
69.84000 665.551
69.88000 636.295
69.92000 612.559
69.96000 590.765
70.00000 575.029