File: XRD/XRD/09-10-2025 Dep 8/XY Data/BTO_Mapping_Theta2Theta_09-10-2025_001_46_-1-045_-9-945.xy
20.00000 480.246
20.04000 501.224
20.08000 484.625
20.12000 483.248
20.16000 496.201
20.20000 486.410
20.24000 485.757
20.28000 479.579
20.32000 478.615
20.36000 493.911
20.40000 496.738
20.44000 495.049
20.48000 482.683
20.52000 495.798
20.56000 491.698
20.60000 498.036
20.64000 493.439
20.68000 474.598
20.72000 468.033
20.76000 467.175
20.80000 491.969
20.84000 502.442
20.88000 481.589
20.92000 483.535
20.96000 472.420
21.00000 482.438
21.04000 497.553
21.08000 488.006
21.12000 483.226
21.16000 475.272
21.20000 492.997
21.24000 473.880
21.28000 488.187
21.32000 482.553
21.36000 476.629
21.40000 476.791
21.44000 467.886
21.48000 482.675
21.52000 481.498
21.56000 499.446
21.60000 490.103
21.64000 483.897
21.68000 488.752
21.72000 507.170
21.76000 492.001
21.80000 512.182
21.84000 539.711
21.88000 570.334
21.92000 586.963
21.96000 605.468
22.00000 660.891
22.04000 651.837
22.08000 672.008
22.12000 669.560
22.16000 639.839
22.20000 622.930
22.24000 594.463
22.28000 571.801
22.32000 562.902
22.36000 533.796
22.40000 517.684
22.44000 500.095
22.48000 489.125
22.52000 484.959
22.56000 476.768
22.60000 476.151
22.64000 461.508
22.68000 473.086
22.72000 450.769
22.76000 444.516
22.80000 439.069
22.84000 451.517
22.88000 451.585
22.92000 462.899
22.96000 443.786
23.00000 441.327
23.04000 444.964
23.08000 460.713
23.12000 436.907
23.16000 454.157
23.20000 449.896
23.24000 431.852
23.28000 451.004
23.32000 437.542
23.36000 434.552
23.40000 439.658
23.44000 429.843
23.48000 427.949
23.52000 438.595
23.56000 432.586
23.60000 413.405
23.64000 440.659
23.68000 435.210
23.72000 437.985
23.76000 449.163
23.80000 434.081
23.84000 445.310
23.88000 426.205
23.92000 443.084
23.96000 443.117
24.00000 432.040
24.04000 412.798
24.08000 430.816
24.12000 429.578
24.16000 427.235
24.20000 422.286
24.24000 421.827
24.28000 420.448
24.32000 406.295
24.36000 415.554
24.40000 420.007
24.44000 423.338
24.48000 420.743
24.52000 416.362
24.56000 426.376
24.60000 408.803
24.64000 399.211
24.68000 424.694
24.72000 413.796
24.76000 430.250
24.80000 410.594
24.84000 408.712
24.88000 409.225
24.92000 421.386
24.96000 405.228
25.00000 440.228
25.04000 419.265
25.08000 426.022
25.12000 406.387
25.16000 406.180
25.20000 425.736
25.24000 414.473
25.28000 395.950
25.32000 397.346
25.36000 402.353
25.40000 405.153
25.44000 393.178
25.48000 400.891
25.52000 398.802
25.56000 411.032
25.60000 411.756
25.64000 399.904
25.68000 401.089
25.72000 397.518
25.76000 388.099
25.80000 389.867
25.84000 407.091
25.88000 392.369
25.92000 399.167
25.96000 413.513
26.00000 398.466
26.04000 386.404
26.08000 407.244
26.12000 401.664
26.16000 381.934
26.20000 395.994
26.24000 392.718
26.28000 370.988
26.32000 388.566
26.36000 405.415
26.40000 399.099
26.44000 409.954
26.48000 389.847
26.52000 390.292
26.56000 361.455
26.60000 400.381
26.64000 407.440
26.68000 389.632
26.72000 383.705
26.76000 371.455
26.80000 367.481
26.84000 385.930
26.88000 401.571
26.92000 386.882
26.96000 393.169
27.00000 386.762
27.04000 399.635
27.08000 392.838
27.12000 394.790
27.16000 361.259
27.20000 382.229
27.24000 387.154
27.28000 389.484
27.32000 374.885
27.36000 373.881
27.40000 380.485
27.44000 378.554
27.48000 380.213
27.52000 382.354
27.56000 379.210
27.60000 377.978
27.64000 374.898
27.68000 384.723
27.72000 385.146
27.76000 376.266
27.80000 372.534
27.84000 369.428
27.88000 374.847
27.92000 379.817
27.96000 376.387
28.00000 372.826
28.04000 373.345
28.08000 392.642
28.12000 397.252
28.16000 379.409
28.20000 372.916
28.24000 385.962
28.28000 361.248
28.32000 385.394
28.36000 382.993
28.40000 381.375
28.44000 372.471
28.48000 385.037
28.52000 362.409
28.56000 381.031
28.60000 383.285
28.64000 355.112
28.68000 347.201
28.72000 368.006
28.76000 370.637
28.80000 365.571
28.84000 346.780
28.88000 362.115
28.92000 365.366
28.96000 368.775
29.00000 379.710
29.04000 362.620
29.08000 367.961
29.12000 366.576
29.16000 357.445
29.20000 356.725
29.24000 354.482
29.28000 365.005
29.32000 368.653
29.36000 369.783
29.40000 363.363
29.44000 375.585
29.48000 363.578
29.52000 356.200
29.56000 361.694
29.60000 367.083
29.64000 352.490
29.68000 397.306
29.72000 384.788
29.76000 365.600
29.80000 382.218
29.84000 398.572
29.88000 421.751
29.92000 449.604
29.96000 438.087
30.00000 460.024
30.04000 458.153
30.08000 457.080
30.12000 468.320
30.16000 447.856
30.20000 433.973
30.24000 418.521
30.28000 421.108
30.32000 418.501
30.36000 409.009
30.40000 419.962
30.44000 403.194
30.48000 404.175
30.52000 399.939
30.56000 408.059
30.60000 403.821
30.64000 418.489
30.68000 420.785
30.72000 440.378
30.76000 428.299
30.80000 433.832
30.84000 447.822
30.88000 453.497
30.92000 488.766
30.96000 506.929
31.00000 544.819
31.04000 640.018
31.08000 753.172
31.12000 886.549
31.16000 1135.081
31.20000 1493.529
31.24000 1860.340
31.28000 2365.116
31.32000 2742.674
31.36000 3071.760
31.40000 3143.235
31.44000 3062.003
31.48000 2754.413
31.52000 2281.845
31.56000 1860.329
31.60000 1457.481
31.64000 1117.452
31.68000 915.667
31.72000 725.839
31.76000 626.389
31.80000 570.626
31.84000 513.361
31.88000 455.863
31.92000 452.156
31.96000 412.273
32.00000 396.258
32.04000 380.514
32.08000 390.520
32.12000 376.494
32.16000 361.771
32.20000 364.555
32.24000 360.107
32.28000 343.628
32.32000 366.660
32.36000 359.287
32.40000 347.875
32.44000 343.577
32.48000 330.340
32.52000 343.318
32.56000 347.253
32.60000 334.241
32.64000 342.798
32.68000 319.707
32.72000 330.338
32.76000 335.499
32.80000 306.953
32.84000 336.750
32.88000 318.359
32.92000 334.380
32.96000 311.601
33.00000 321.784
33.04000 307.035
33.08000 321.902
33.12000 315.957
33.16000 311.742
33.20000 308.408
33.24000 312.527
33.28000 322.436
33.32000 320.911
33.36000 302.876
33.40000 317.560
33.44000 319.769
33.48000 295.356
33.52000 289.238
33.56000 296.978
33.60000 293.794
33.64000 313.437
33.68000 310.994
33.72000 295.806
33.76000 309.802
33.80000 295.023
33.84000 302.742
33.88000 287.954
33.92000 286.684
33.96000 300.551
34.00000 297.755
34.04000 287.725
34.08000 298.970
34.12000 290.688
34.16000 290.299
34.20000 300.076
34.24000 283.745
34.28000 290.468
34.32000 285.740
34.36000 274.492
34.40000 285.196
34.44000 296.147
34.48000 288.702
34.52000 283.185
34.56000 296.673
34.60000 295.562
34.64000 292.688
34.68000 279.759
34.72000 289.550
34.76000 292.663
34.80000 287.333
34.84000 282.004
34.88000 280.786
34.92000 275.820
34.96000 271.691
35.00000 283.581
35.04000 285.826
35.08000 280.642
35.12000 279.372
35.16000 278.129
35.20000 280.040
35.24000 277.735
35.28000 268.145
35.32000 287.757
35.36000 284.277
35.40000 264.019
35.44000 280.903
35.48000 283.520
35.52000 286.295
35.56000 284.390
35.60000 284.103
35.64000 268.716
35.68000 261.731
35.72000 265.148
35.76000 276.937
35.80000 278.154
35.84000 267.816
35.88000 274.143
35.92000 273.343
35.96000 259.164
36.00000 269.887
36.04000 269.341
36.08000 266.876
36.12000 268.482
36.16000 266.325
36.20000 263.394
36.24000 261.442
36.28000 253.275
36.32000 262.740
36.36000 260.519
36.40000 261.174
36.44000 268.880
36.48000 262.893
36.52000 273.441
36.56000 254.880
36.60000 251.139
36.64000 276.862
36.68000 268.201
36.72000 254.577
36.76000 258.808
36.80000 272.817
36.84000 288.629
36.88000 282.297
36.92000 287.462
36.96000 272.333
37.00000 297.796
37.04000 285.973
37.08000 274.034
37.12000 274.567
37.16000 282.601
37.20000 272.476
37.24000 282.036
37.28000 260.052
37.32000 269.862
37.36000 271.423
37.40000 259.488
37.44000 268.972
37.48000 256.918
37.52000 277.406
37.56000 273.702
37.60000 262.516
37.64000 264.058
37.68000 262.577
37.72000 265.565
37.76000 256.186
37.80000 265.229
37.84000 257.496
37.88000 244.310
37.92000 266.687
37.96000 268.872
38.00000 273.363
38.04000 270.670
38.08000 274.630
38.12000 268.669
38.16000 284.293
38.20000 296.012
38.24000 278.706
38.28000 292.717
38.32000 313.448
38.36000 320.668
38.40000 370.439
38.44000 392.009
38.48000 452.948
38.52000 557.291
38.56000 684.213
38.60000 844.432
38.64000 921.345
38.68000 1024.220
38.72000 1081.639
38.76000 1043.343
38.80000 924.891
38.84000 804.225
38.88000 663.904
38.92000 546.866
38.96000 472.460
39.00000 390.126
39.04000 372.661
39.08000 317.487
39.12000 289.517
39.16000 296.262
39.20000 263.410
39.24000 253.921
39.28000 252.587
39.32000 252.420
39.36000 246.962
39.40000 250.285
39.44000 261.220
39.48000 249.731
39.52000 255.260
39.56000 247.245
39.60000 247.724
39.64000 236.491
39.68000 235.996
39.72000 237.090
39.76000 233.606
39.80000 238.980
39.84000 229.386
39.88000 238.492
39.92000 238.213
39.96000 240.854
40.00000 231.051
40.04000 229.815
40.08000 219.871
40.12000 231.852
40.16000 236.666
40.20000 239.464
40.24000 234.063
40.28000 225.888
40.32000 227.588
40.36000 223.822
40.40000 231.679
40.44000 239.181
40.48000 240.354
40.52000 229.865
40.56000 214.537
40.60000 224.539
40.64000 224.857
40.68000 225.987
40.72000 221.628
40.76000 224.179
40.80000 217.079
40.84000 218.689
40.88000 224.181
40.92000 225.413
40.96000 224.899
41.00000 231.048
41.04000 217.986
41.08000 226.409
41.12000 224.375
41.16000 220.383
41.20000 222.363
41.24000 226.587
41.28000 216.591
41.32000 219.272
41.36000 207.088
41.40000 222.973
41.44000 215.807
41.48000 200.751
41.52000 220.442
41.56000 207.564
41.60000 215.626
41.64000 219.313
41.68000 215.538
41.72000 214.998
41.76000 214.326
41.80000 218.349
41.84000 213.182
41.88000 220.701
41.92000 212.337
41.96000 213.716
42.00000 203.450
42.04000 229.077
42.08000 206.672
42.12000 201.459
42.16000 208.443
42.20000 199.957
42.24000 219.381
42.28000 217.183
42.32000 205.455
42.36000 198.693
42.40000 198.886
42.44000 205.982
42.48000 197.628
42.52000 210.457
42.56000 202.422
42.60000 194.518
42.64000 218.310
42.68000 217.703
42.72000 201.242
42.76000 217.075
42.80000 199.781
42.84000 204.931
42.88000 215.107
42.92000 203.726
42.96000 208.071
43.00000 199.989
43.04000 207.489
43.08000 209.535
43.12000 203.212
43.16000 210.876
43.20000 202.537
43.24000 205.090
43.28000 204.332
43.32000 193.532
43.36000 206.194
43.40000 203.840
43.44000 206.743
43.48000 201.452
43.52000 200.598
43.56000 190.083
43.60000 203.232
43.64000 198.758
43.68000 200.156
43.72000 203.314
43.76000 199.413
43.80000 188.762
43.84000 193.926
43.88000 194.621
43.92000 200.685
43.96000 190.679
44.00000 200.874
44.04000 205.189
44.08000 202.584
44.12000 195.217
44.16000 198.349
44.20000 206.881
44.24000 208.211
44.28000 200.081
44.32000 190.371
44.36000 200.137
44.40000 192.687
44.44000 214.520
44.48000 206.863
44.52000 216.157
44.56000 209.199
44.60000 203.976
44.64000 220.264
44.68000 220.380
44.72000 225.794
44.76000 241.325
44.80000 253.322
44.84000 266.315
44.88000 268.272
44.92000 285.045
44.96000 295.667
45.00000 347.505
45.04000 347.910
45.08000 353.311
45.12000 377.010
45.16000 353.070
45.20000 355.977
45.24000 343.780
45.28000 341.348
45.32000 317.353
45.36000 293.635
45.40000 282.175
45.44000 266.518
45.48000 274.316
45.52000 252.607
45.56000 242.326
45.60000 242.178
45.64000 220.794
45.68000 212.573
45.72000 205.463
45.76000 211.149
45.80000 204.251
45.84000 204.978
45.88000 203.265
45.92000 190.184
45.96000 188.098
46.00000 173.259
46.04000 185.672
46.08000 186.414
46.12000 190.071
46.16000 180.577
46.20000 190.738
46.24000 195.200
46.28000 174.535
46.32000 181.757
46.36000 170.026
46.40000 183.086
46.44000 189.725
46.48000 182.595
46.52000 173.208
46.56000 170.380
46.60000 179.711
46.64000 166.613
46.68000 177.990
46.72000 183.164
46.76000 166.506
46.80000 171.535
46.84000 179.706
46.88000 181.914
46.92000 159.550
46.96000 184.849
47.00000 180.644
47.04000 167.894
47.08000 175.047
47.12000 169.186
47.16000 179.903
47.20000 172.956
47.24000 164.682
47.28000 165.593
47.32000 169.181
47.36000 166.100
47.40000 168.637
47.44000 153.276
47.48000 171.988
47.52000 164.806
47.56000 155.433
47.60000 165.797
47.64000 154.824
47.68000 171.693
47.72000 162.300
47.76000 168.856
47.80000 161.930
47.84000 165.072
47.88000 172.865
47.92000 159.119
47.96000 164.888
48.00000 157.514
48.04000 158.127
48.08000 160.873
48.12000 161.893
48.16000 170.429
48.20000 158.939
48.24000 159.858
48.28000 161.374
48.32000 172.277
48.36000 173.353
48.40000 162.422
48.44000 163.157
48.48000 150.957
48.52000 154.354
48.56000 160.475
48.60000 164.095
48.64000 161.206
48.68000 162.943
48.72000 170.184
48.76000 167.984
48.80000 159.534
48.84000 155.446
48.88000 163.586
48.92000 170.215
48.96000 165.206
49.00000 170.101
49.04000 157.207
49.08000 151.026
49.12000 156.973
49.16000 166.450
49.20000 153.871
49.24000 165.941
49.28000 164.139
49.32000 160.971
49.36000 156.825
49.40000 145.757
49.44000 158.302
49.48000 149.202
49.52000 161.838
49.56000 153.961
49.60000 164.039
49.64000 159.012
49.68000 156.523
49.72000 152.317
49.76000 156.250
49.80000 148.508
49.84000 163.146
49.88000 155.896
49.92000 155.553
49.96000 163.334
50.00000 154.578
50.04000 151.668
50.08000 145.487
50.12000 157.564
50.16000 158.582
50.20000 164.901
50.24000 161.322
50.28000 161.212
50.32000 164.450
50.36000 159.130
50.40000 177.360
50.44000 169.823
50.48000 185.940
50.52000 188.323
50.56000 214.802
50.60000 206.692
50.64000 226.421
50.68000 233.500
50.72000 233.656
50.76000 242.745
50.80000 230.921
50.84000 228.431
50.88000 215.399
50.92000 200.304
50.96000 206.897
51.00000 180.774
51.04000 188.271
51.08000 174.409
51.12000 169.434
51.16000 173.176
51.20000 163.387
51.24000 158.843
51.28000 160.827
51.32000 153.338
51.36000 156.188
51.40000 165.803
51.44000 148.932
51.48000 142.544
51.52000 153.562
51.56000 156.056
51.60000 145.282
51.64000 147.255
51.68000 157.286
51.72000 147.145
51.76000 152.962
51.80000 153.011
51.84000 143.137
51.88000 132.675
51.92000 135.264
51.96000 144.627
52.00000 147.661
52.04000 145.711
52.08000 137.418
52.12000 135.783
52.16000 141.576
52.20000 141.850
52.24000 147.413
52.28000 139.044
52.32000 149.640
52.36000 143.413
52.40000 139.693
52.44000 153.231
52.48000 148.716
52.52000 145.335
52.56000 144.512
52.60000 144.884
52.64000 140.092
52.68000 148.507
52.72000 142.698
52.76000 137.060
52.80000 140.325
52.84000 163.916
52.88000 137.609
52.92000 136.602
52.96000 157.671
53.00000 142.697
53.04000 149.473
53.08000 146.818
53.12000 142.265
53.16000 145.667
53.20000 151.521
53.24000 155.335
53.28000 152.265
53.32000 159.325
53.36000 155.025
53.40000 155.487
53.44000 162.286
53.48000 166.553
53.52000 152.135
53.56000 146.641
53.60000 144.399
53.64000 147.611
53.68000 138.336
53.72000 145.636
53.76000 150.094
53.80000 150.179
53.84000 140.803
53.88000 143.859
53.92000 139.142
53.96000 142.401
54.00000 124.399
54.04000 147.210
54.08000 148.076
54.12000 144.625
54.16000 139.366
54.20000 137.061
54.24000 137.031
54.28000 135.197
54.32000 147.086
54.36000 143.041
54.40000 135.351
54.44000 143.400
54.48000 139.553
54.52000 130.759
54.56000 141.313
54.60000 143.551
54.64000 143.198
54.68000 145.570
54.72000 131.702
54.76000 137.820
54.80000 137.841
54.84000 132.516
54.88000 137.375
54.92000 139.389
54.96000 151.738
55.00000 150.210
55.04000 149.054
55.08000 156.853
55.12000 146.138
55.16000 156.767
55.20000 146.586
55.24000 158.285
55.28000 152.444
55.32000 172.296
55.36000 164.266
55.40000 172.728
55.44000 171.220
55.48000 186.499
55.52000 184.202
55.56000 190.345
55.60000 207.766
55.64000 253.430
55.68000 250.511
55.72000 294.832
55.76000 353.773
55.80000 410.800
55.84000 477.352
55.88000 519.162
55.92000 546.742
55.96000 576.104
56.00000 571.543
56.04000 524.961
56.08000 492.704
56.12000 443.792
56.16000 399.979
56.20000 359.907
56.24000 314.686
56.28000 261.711
56.32000 244.988
56.36000 230.061
56.40000 200.157
56.44000 193.978
56.48000 184.040
56.52000 177.215
56.56000 170.589
56.60000 170.865
56.64000 148.842
56.68000 160.604
56.72000 148.996
56.76000 152.418
56.80000 152.166
56.84000 140.439
56.88000 141.562
56.92000 134.757
56.96000 134.727
57.00000 147.535
57.04000 139.584
57.08000 135.475
57.12000 131.050
57.16000 136.631
57.20000 135.336
57.24000 140.198
57.28000 134.736
57.32000 121.484
57.36000 126.220
57.40000 132.811
57.44000 128.907
57.48000 126.408
57.52000 129.135
57.56000 126.669
57.60000 128.102
57.64000 118.232
57.68000 125.174
57.72000 127.362
57.76000 125.654
57.80000 132.326
57.84000 119.956
57.88000 129.181
57.92000 129.388
57.96000 124.015
58.00000 120.279
58.04000 127.079
58.08000 126.828
58.12000 129.766
58.16000 124.897
58.20000 122.341
58.24000 128.620
58.28000 116.157
58.32000 118.703
58.36000 116.786
58.40000 116.550
58.44000 132.468
58.48000 125.751
58.52000 121.417
58.56000 139.527
58.60000 125.593
58.64000 125.779
58.68000 116.974
58.72000 122.207
58.76000 126.740
58.80000 119.692
58.84000 118.832
58.88000 130.159
58.92000 122.961
58.96000 116.842
59.00000 127.826
59.04000 116.578
59.08000 123.230
59.12000 119.846
59.16000 124.362
59.20000 121.538
59.24000 108.082
59.28000 125.094
59.32000 118.163
59.36000 118.669
59.40000 132.602
59.44000 113.165
59.48000 109.605
59.52000 113.379
59.56000 118.735
59.60000 119.518
59.64000 120.686
59.68000 112.369
59.72000 112.525
59.76000 118.710
59.80000 109.849
59.84000 118.015
59.88000 131.400
59.92000 118.009
59.96000 117.206
60.00000 119.524
60.04000 115.446
60.08000 119.053
60.12000 118.152
60.16000 122.285
60.20000 125.325
60.24000 118.629
60.28000 120.023
60.32000 126.817
60.36000 111.753
60.40000 121.318
60.44000 114.020
60.48000 112.910
60.52000 114.377
60.56000 117.429
60.60000 115.963
60.64000 126.087
60.68000 125.156
60.72000 115.022
60.76000 114.431
60.80000 115.597
60.84000 114.805
60.88000 116.102
60.92000 114.404
60.96000 112.619
61.00000 121.356
61.04000 126.446
61.08000 127.280
61.12000 125.713
61.16000 128.207
61.20000 134.081
61.24000 137.324
61.28000 135.238
61.32000 120.916
61.36000 118.246
61.40000 135.991
61.44000 127.040
61.48000 143.765
61.52000 185.442
61.56000 257.282
61.60000 310.087
61.64000 369.898
61.68000 409.081
61.72000 387.542
61.76000 363.984
61.80000 259.253
61.84000 190.106
61.88000 156.644
61.92000 136.428
61.96000 136.636
62.00000 142.556
62.04000 133.371
62.08000 133.631
62.12000 129.956
62.16000 128.729
62.20000 123.695
62.24000 131.490
62.28000 128.069
62.32000 131.896
62.36000 134.371
62.40000 140.296
62.44000 144.689
62.48000 125.923
62.52000 132.530
62.56000 135.270
62.60000 127.243
62.64000 136.455
62.68000 143.681
62.72000 143.933
62.76000 136.234
62.80000 131.243
62.84000 132.201
62.88000 131.176
62.92000 139.373
62.96000 139.453
63.00000 139.410
63.04000 145.768
63.08000 143.911
63.12000 138.969
63.16000 144.057
63.20000 140.267
63.24000 140.142
63.28000 138.603
63.32000 137.023
63.36000 133.485
63.40000 143.450
63.44000 143.808
63.48000 142.735
63.52000 151.229
63.56000 134.698
63.60000 153.014
63.64000 146.219
63.68000 144.575
63.72000 149.939
63.76000 144.412
63.80000 144.110
63.84000 150.286
63.88000 148.081
63.92000 146.774
63.96000 163.002
64.00000 151.738
64.04000 147.300
64.08000 145.041
64.12000 150.759
64.16000 150.666
64.20000 161.690
64.24000 165.949
64.28000 165.800
64.32000 161.835
64.36000 167.501
64.40000 164.277
64.44000 159.016
64.48000 169.192
64.52000 174.801
64.56000 173.564
64.60000 171.563
64.64000 180.962
64.68000 175.091
64.72000 175.146
64.76000 185.499
64.80000 190.997
64.84000 194.284
64.88000 191.412
64.92000 205.317
64.96000 212.959
65.00000 209.435
65.04000 228.125
65.08000 220.914
65.12000 228.472
65.16000 245.975
65.20000 258.283
65.24000 271.873
65.28000 286.584
65.32000 309.957
65.36000 352.694
65.40000 356.252
65.44000 393.139
65.48000 444.994
65.52000 472.873
65.56000 524.189
65.60000 585.243
65.64000 656.867
65.68000 933.259
65.72000 1449.313
65.76000 2139.611
65.80000 2671.498
65.84000 2821.755
65.88000 2866.085
65.92000 2695.227
65.96000 2089.484
66.00000 1366.903
66.04000 850.942
66.08000 607.459
66.12000 517.459
66.16000 492.752
66.20000 478.476
66.24000 512.362
66.28000 614.711
66.32000 727.807
66.36000 817.058
66.40000 830.471
66.44000 850.705
66.48000 783.028
66.52000 693.681
66.56000 541.514
66.60000 484.218
66.64000 431.637
66.68000 432.420
66.72000 421.122
66.76000 418.654
66.80000 423.795
66.84000 433.428
66.88000 428.960
66.92000 426.607
66.96000 426.418
67.00000 451.531
67.04000 457.500
67.08000 457.697
67.12000 460.674
67.16000 451.017
67.20000 456.802
67.24000 478.775
67.28000 481.633
67.32000 480.664
67.36000 483.331
67.40000 482.143
67.44000 471.887
67.48000 501.124
67.52000 521.947
67.56000 511.397
67.60000 530.330
67.64000 524.136
67.68000 540.451
67.72000 509.083
67.76000 569.479
67.80000 591.109
67.84000 565.123
67.88000 560.288
67.92000 573.681
67.96000 576.713
68.00000 596.632
68.04000 613.246
68.08000 592.346
68.12000 637.908
68.16000 649.416
68.20000 667.600
68.24000 660.247
68.28000 701.844
68.32000 730.196
68.36000 735.929
68.40000 769.382
68.44000 798.618
68.48000 849.338
68.52000 908.500
68.56000 965.999
68.60000 1111.486
68.64000 1300.331
68.68000 1547.282
68.72000 1823.886
68.76000 2042.288
68.80000 2387.150
68.84000 2787.789
68.88000 3732.328
68.92000 6783.684
68.96000 16558.918
69.00000 35855.621
69.04000 54845.672
69.08000 64229.824
69.12000 68143.977
69.16000 72670.680
69.20000 69796.648
69.24000 54848.484
69.28000 41493.797
69.32000 34472.281
69.36000 31634.908
69.40000 25451.313
69.44000 14715.321
69.48000 6431.755
69.52000 2935.352
69.56000 1776.285
69.60000 1388.380
69.64000 1169.598
69.68000 993.348
69.72000 898.852
69.76000 822.284
69.80000 751.136
69.84000 695.484
69.88000 664.628
69.92000 625.734
69.96000 586.086
70.00000 579.382