File: XRD/XRD/09-10-2025 Dep 8/XY Data/BTO_Mapping_Theta2Theta_09-10-2025_001_47_-2-091_-19-890.xy
20.00000 482.796
20.04000 480.739
20.08000 502.419
20.12000 479.112
20.16000 498.071
20.20000 492.362
20.24000 493.085
20.28000 497.632
20.32000 481.484
20.36000 473.033
20.40000 500.213
20.44000 467.561
20.48000 484.157
20.52000 465.131
20.56000 482.858
20.60000 492.644
20.64000 477.271
20.68000 489.747
20.72000 479.702
20.76000 489.371
20.80000 477.034
20.84000 489.457
20.88000 486.290
20.92000 469.505
20.96000 473.820
21.00000 499.595
21.04000 524.037
21.08000 490.684
21.12000 478.873
21.16000 508.639
21.20000 485.545
21.24000 483.733
21.28000 492.307
21.32000 487.779
21.36000 499.499
21.40000 482.339
21.44000 500.368
21.48000 485.458
21.52000 474.053
21.56000 491.448
21.60000 489.146
21.64000 494.723
21.68000 536.793
21.72000 528.662
21.76000 497.701
21.80000 523.926
21.84000 547.592
21.88000 575.705
21.92000 610.741
21.96000 626.167
22.00000 661.900
22.04000 674.016
22.08000 682.011
22.12000 672.958
22.16000 675.338
22.20000 627.018
22.24000 601.132
22.28000 576.346
22.32000 548.414
22.36000 525.279
22.40000 533.673
22.44000 504.023
22.48000 492.012
22.52000 482.272
22.56000 468.221
22.60000 458.905
22.64000 455.075
22.68000 453.992
22.72000 450.601
22.76000 463.518
22.80000 437.053
22.84000 444.582
22.88000 454.205
22.92000 447.029
22.96000 453.460
23.00000 443.041
23.04000 429.129
23.08000 441.163
23.12000 443.121
23.16000 448.535
23.20000 473.702
23.24000 430.593
23.28000 426.034
23.32000 435.226
23.36000 430.580
23.40000 438.423
23.44000 432.218
23.48000 455.900
23.52000 437.232
23.56000 436.481
23.60000 421.540
23.64000 444.144
23.68000 442.344
23.72000 454.887
23.76000 443.115
23.80000 435.336
23.84000 429.316
23.88000 435.199
23.92000 427.211
23.96000 423.143
24.00000 432.455
24.04000 441.528
24.08000 435.763
24.12000 419.907
24.16000 419.295
24.20000 416.469
24.24000 422.586
24.28000 404.290
24.32000 435.212
24.36000 419.071
24.40000 421.557
24.44000 428.329
24.48000 421.181
24.52000 403.232
24.56000 392.671
24.60000 415.447
24.64000 417.862
24.68000 411.839
24.72000 410.660
24.76000 401.712
24.80000 403.070
24.84000 430.387
24.88000 399.097
24.92000 405.858
24.96000 412.724
25.00000 423.269
25.04000 407.528
25.08000 411.517
25.12000 422.480
25.16000 406.565
25.20000 405.536
25.24000 418.064
25.28000 419.865
25.32000 419.748
25.36000 399.859
25.40000 384.993
25.44000 397.842
25.48000 403.035
25.52000 423.331
25.56000 406.624
25.60000 424.682
25.64000 410.894
25.68000 398.029
25.72000 404.246
25.76000 402.763
25.80000 397.424
25.84000 408.915
25.88000 409.656
25.92000 409.080
25.96000 395.480
26.00000 398.121
26.04000 377.160
26.08000 395.596
26.12000 385.775
26.16000 398.217
26.20000 396.144
26.24000 400.014
26.28000 403.915
26.32000 382.584
26.36000 371.721
26.40000 402.141
26.44000 397.902
26.48000 390.699
26.52000 389.328
26.56000 382.141
26.60000 376.620
26.64000 392.389
26.68000 402.226
26.72000 395.438
26.76000 383.318
26.80000 388.593
26.84000 396.673
26.88000 410.177
26.92000 391.077
26.96000 372.420
27.00000 395.546
27.04000 377.463
27.08000 369.136
27.12000 373.511
27.16000 377.098
27.20000 382.819
27.24000 370.951
27.28000 370.098
27.32000 387.869
27.36000 377.925
27.40000 396.781
27.44000 363.641
27.48000 370.186
27.52000 371.909
27.56000 382.846
27.60000 366.591
27.64000 363.097
27.68000 374.001
27.72000 387.523
27.76000 376.092
27.80000 370.597
27.84000 381.286
27.88000 361.140
27.92000 373.474
27.96000 368.188
28.00000 389.246
28.04000 376.414
28.08000 373.619
28.12000 382.572
28.16000 380.395
28.20000 375.431
28.24000 390.100
28.28000 365.506
28.32000 364.521
28.36000 386.424
28.40000 395.186
28.44000 368.450
28.48000 364.067
28.52000 365.863
28.56000 366.422
28.60000 371.636
28.64000 363.633
28.68000 378.193
28.72000 365.600
28.76000 381.143
28.80000 370.019
28.84000 387.985
28.88000 375.335
28.92000 364.358
28.96000 364.842
29.00000 363.115
29.04000 359.592
29.08000 359.526
29.12000 381.507
29.16000 381.764
29.20000 368.796
29.24000 356.592
29.28000 380.763
29.32000 369.600
29.36000 363.939
29.40000 381.718
29.44000 369.613
29.48000 365.193
29.52000 355.579
29.56000 367.143
29.60000 381.623
29.64000 379.108
29.68000 366.569
29.72000 358.587
29.76000 370.172
29.80000 375.253
29.84000 415.414
29.88000 397.885
29.92000 431.594
29.96000 446.396
30.00000 463.237
30.04000 454.664
30.08000 474.833
30.12000 444.497
30.16000 451.314
30.20000 432.935
30.24000 437.712
30.28000 410.521
30.32000 406.969
30.36000 410.264
30.40000 397.850
30.44000 406.241
30.48000 400.161
30.52000 404.256
30.56000 413.569
30.60000 406.802
30.64000 405.151
30.68000 414.390
30.72000 409.594
30.76000 412.841
30.80000 434.991
30.84000 447.313
30.88000 463.173
30.92000 482.032
30.96000 522.993
31.00000 533.103
31.04000 622.965
31.08000 748.312
31.12000 875.554
31.16000 1102.791
31.20000 1429.021
31.24000 1797.829
31.28000 2264.344
31.32000 2665.051
31.36000 2992.101
31.40000 3135.887
31.44000 2989.561
31.48000 2695.823
31.52000 2312.208
31.56000 1898.356
31.60000 1466.560
31.64000 1115.036
31.68000 907.375
31.72000 758.175
31.76000 619.608
31.80000 551.778
31.84000 483.292
31.88000 459.095
31.92000 424.689
31.96000 405.183
32.00000 384.129
32.04000 381.936
32.08000 379.716
32.12000 364.025
32.16000 361.729
32.20000 352.382
32.24000 357.320
32.28000 356.669
32.32000 337.223
32.36000 344.350
32.40000 360.468
32.44000 342.342
32.48000 345.813
32.52000 352.776
32.56000 332.740
32.60000 346.786
32.64000 337.550
32.68000 321.821
32.72000 347.877
32.76000 327.759
32.80000 325.816
32.84000 325.355
32.88000 338.115
32.92000 345.001
32.96000 321.206
33.00000 314.500
33.04000 322.737
33.08000 315.991
33.12000 318.553
33.16000 300.760
33.20000 324.886
33.24000 308.093
33.28000 310.668
33.32000 280.324
33.36000 308.224
33.40000 295.268
33.44000 309.802
33.48000 306.417
33.52000 292.126
33.56000 306.201
33.60000 301.030
33.64000 300.553
33.68000 304.813
33.72000 295.120
33.76000 307.158
33.80000 294.027
33.84000 301.913
33.88000 303.904
33.92000 284.911
33.96000 295.906
34.00000 295.473
34.04000 293.420
34.08000 295.073
34.12000 299.932
34.16000 295.056
34.20000 290.740
34.24000 269.072
34.28000 296.878
34.32000 294.350
34.36000 292.778
34.40000 301.709
34.44000 292.022
34.48000 290.941
34.52000 291.495
34.56000 287.142
34.60000 276.531
34.64000 276.556
34.68000 293.657
34.72000 283.778
34.76000 273.883
34.80000 275.222
34.84000 286.092
34.88000 295.904
34.92000 278.436
34.96000 276.047
35.00000 287.028
35.04000 268.364
35.08000 263.865
35.12000 276.016
35.16000 261.991
35.20000 276.137
35.24000 283.891
35.28000 270.335
35.32000 282.198
35.36000 276.241
35.40000 271.648
35.44000 264.191
35.48000 294.005
35.52000 287.411
35.56000 265.048
35.60000 266.782
35.64000 265.677
35.68000 270.306
35.72000 257.112
35.76000 265.613
35.80000 283.689
35.84000 274.556
35.88000 264.156
35.92000 250.341
35.96000 274.850
36.00000 254.531
36.04000 280.695
36.08000 267.463
36.12000 256.336
36.16000 265.659
36.20000 264.901
36.24000 262.489
36.28000 268.067
36.32000 263.857
36.36000 267.836
36.40000 266.336
36.44000 261.627
36.48000 272.904
36.52000 279.677
36.56000 254.331
36.60000 259.059
36.64000 259.625
36.68000 259.187
36.72000 264.459
36.76000 276.245
36.80000 270.908
36.84000 275.473
36.88000 272.017
36.92000 281.989
36.96000 293.920
37.00000 299.320
37.04000 300.486
37.08000 274.633
37.12000 278.942
37.16000 289.992
37.20000 278.566
37.24000 270.777
37.28000 275.055
37.32000 262.090
37.36000 262.146
37.40000 280.962
37.44000 275.809
37.48000 264.515
37.52000 261.519
37.56000 238.496
37.60000 267.615
37.64000 259.563
37.68000 248.691
37.72000 255.641
37.76000 257.204
37.80000 259.113
37.84000 251.422
37.88000 276.480
37.92000 262.900
37.96000 249.911
38.00000 259.801
38.04000 254.658
38.08000 278.493
38.12000 269.583
38.16000 279.024
38.20000 278.055
38.24000 291.467
38.28000 309.435
38.32000 313.778
38.36000 342.046
38.40000 358.307
38.44000 391.010
38.48000 446.273
38.52000 580.368
38.56000 660.049
38.60000 806.928
38.64000 880.492
38.68000 988.766
38.72000 1030.879
38.76000 984.855
38.80000 910.308
38.84000 773.273
38.88000 664.476
38.92000 556.447
38.96000 444.764
39.00000 379.216
39.04000 319.198
39.08000 310.368
39.12000 288.313
39.16000 278.390
39.20000 283.980
39.24000 277.248
39.28000 268.709
39.32000 253.331
39.36000 247.847
39.40000 252.520
39.44000 242.717
39.48000 239.206
39.52000 254.371
39.56000 246.077
39.60000 230.684
39.64000 224.006
39.68000 235.610
39.72000 238.203
39.76000 224.757
39.80000 232.961
39.84000 237.457
39.88000 226.141
39.92000 226.701
39.96000 247.722
40.00000 235.479
40.04000 227.886
40.08000 225.992
40.12000 230.646
40.16000 229.465
40.20000 236.595
40.24000 225.300
40.28000 214.794
40.32000 231.255
40.36000 232.498
40.40000 229.465
40.44000 222.653
40.48000 214.791
40.52000 214.626
40.56000 219.517
40.60000 215.357
40.64000 225.161
40.68000 212.311
40.72000 222.272
40.76000 231.081
40.80000 226.517
40.84000 222.522
40.88000 213.625
40.92000 219.304
40.96000 212.291
41.00000 238.018
41.04000 216.538
41.08000 217.189
41.12000 219.738
41.16000 222.831
41.20000 212.405
41.24000 221.240
41.28000 214.503
41.32000 221.968
41.36000 214.970
41.40000 211.215
41.44000 209.972
41.48000 222.842
41.52000 199.920
41.56000 222.373
41.60000 202.093
41.64000 210.803
41.68000 221.117
41.72000 203.816
41.76000 219.686
41.80000 210.369
41.84000 211.106
41.88000 214.735
41.92000 209.111
41.96000 204.595
42.00000 205.328
42.04000 213.422
42.08000 218.739
42.12000 209.918
42.16000 193.701
42.20000 207.626
42.24000 210.533
42.28000 207.456
42.32000 205.817
42.36000 202.182
42.40000 204.375
42.44000 188.402
42.48000 198.080
42.52000 198.354
42.56000 209.930
42.60000 208.304
42.64000 217.524
42.68000 190.673
42.72000 196.099
42.76000 210.794
42.80000 201.553
42.84000 197.421
42.88000 205.293
42.92000 203.604
42.96000 207.281
43.00000 196.922
43.04000 207.819
43.08000 200.696
43.12000 203.793
43.16000 193.644
43.20000 219.555
43.24000 208.753
43.28000 213.250
43.32000 203.406
43.36000 204.021
43.40000 210.763
43.44000 203.915
43.48000 208.511
43.52000 189.438
43.56000 191.504
43.60000 203.463
43.64000 204.546
43.68000 211.536
43.72000 214.105
43.76000 196.721
43.80000 197.057
43.84000 199.430
43.88000 203.119
43.92000 203.773
43.96000 203.731
44.00000 196.809
44.04000 202.355
44.08000 187.687
44.12000 199.234
44.16000 205.972
44.20000 199.011
44.24000 205.107
44.28000 201.090
44.32000 196.056
44.36000 202.092
44.40000 206.016
44.44000 218.438
44.48000 207.514
44.52000 205.747
44.56000 210.056
44.60000 213.193
44.64000 210.686
44.68000 230.201
44.72000 233.040
44.76000 253.052
44.80000 259.549
44.84000 282.253
44.88000 290.414
44.92000 300.546
44.96000 344.362
45.00000 363.107
45.04000 375.303
45.08000 377.786
45.12000 387.614
45.16000 401.424
45.20000 369.799
45.24000 335.158
45.28000 339.518
45.32000 311.254
45.36000 287.072
45.40000 281.453
45.44000 264.659
45.48000 253.547
45.52000 252.011
45.56000 241.980
45.60000 231.026
45.64000 231.818
45.68000 210.978
45.72000 219.601
45.76000 216.891
45.80000 200.193
45.84000 209.135
45.88000 202.336
45.92000 196.032
45.96000 203.634
46.00000 196.582
46.04000 191.440
46.08000 199.773
46.12000 180.644
46.16000 184.462
46.20000 191.407
46.24000 189.088
46.28000 181.481
46.32000 188.020
46.36000 178.707
46.40000 178.517
46.44000 178.245
46.48000 176.137
46.52000 180.015
46.56000 192.408
46.60000 171.860
46.64000 180.945
46.68000 178.290
46.72000 169.300
46.76000 182.645
46.80000 170.970
46.84000 176.075
46.88000 178.682
46.92000 180.028
46.96000 166.210
47.00000 174.636
47.04000 184.557
47.08000 177.959
47.12000 165.638
47.16000 171.933
47.20000 161.495
47.24000 169.324
47.28000 162.706
47.32000 172.880
47.36000 171.969
47.40000 170.702
47.44000 176.937
47.48000 170.116
47.52000 168.380
47.56000 170.139
47.60000 160.620
47.64000 166.523
47.68000 162.185
47.72000 165.924
47.76000 176.319
47.80000 167.476
47.84000 158.832
47.88000 167.200
47.92000 162.890
47.96000 172.953
48.00000 167.076
48.04000 161.224
48.08000 162.019
48.12000 161.411
48.16000 178.230
48.20000 169.582
48.24000 173.105
48.28000 164.341
48.32000 165.756
48.36000 163.485
48.40000 146.798
48.44000 155.230
48.48000 167.705
48.52000 165.839
48.56000 154.762
48.60000 167.653
48.64000 159.535
48.68000 166.115
48.72000 167.566
48.76000 164.855
48.80000 164.898
48.84000 162.812
48.88000 158.230
48.92000 157.270
48.96000 159.991
49.00000 148.565
49.04000 159.128
49.08000 149.877
49.12000 156.206
49.16000 159.508
49.20000 153.709
49.24000 161.331
49.28000 149.649
49.32000 158.968
49.36000 154.178
49.40000 165.729
49.44000 151.676
49.48000 168.435
49.52000 160.415
49.56000 150.419
49.60000 159.924
49.64000 150.730
49.68000 152.846
49.72000 159.554
49.76000 156.891
49.80000 161.636
49.84000 162.801
49.88000 147.798
49.92000 162.755
49.96000 160.964
50.00000 153.704
50.04000 148.518
50.08000 160.335
50.12000 161.821
50.16000 160.816
50.20000 169.666
50.24000 157.575
50.28000 169.970
50.32000 167.893
50.36000 188.482
50.40000 175.336
50.44000 182.688
50.48000 187.219
50.52000 192.212
50.56000 196.628
50.60000 217.418
50.64000 230.973
50.68000 239.254
50.72000 234.589
50.76000 233.412
50.80000 242.555
50.84000 237.610
50.88000 224.030
50.92000 216.293
50.96000 196.458
51.00000 181.973
51.04000 182.605
51.08000 176.600
51.12000 174.154
51.16000 163.175
51.20000 168.535
51.24000 168.532
51.28000 160.904
51.32000 158.239
51.36000 156.401
51.40000 167.434
51.44000 151.855
51.48000 151.580
51.52000 152.191
51.56000 149.553
51.60000 145.245
51.64000 148.135
51.68000 142.879
51.72000 146.979
51.76000 153.677
51.80000 155.193
51.84000 150.770
51.88000 146.662
51.92000 148.728
51.96000 143.152
52.00000 148.237
52.04000 150.205
52.08000 148.766
52.12000 152.517
52.16000 158.464
52.20000 144.158
52.24000 139.775
52.28000 136.008
52.32000 148.777
52.36000 142.203
52.40000 144.848
52.44000 144.403
52.48000 138.329
52.52000 154.880
52.56000 146.697
52.60000 140.300
52.64000 147.394
52.68000 144.141
52.72000 143.161
52.76000 132.663
52.80000 144.881
52.84000 150.448
52.88000 133.439
52.92000 140.147
52.96000 134.564
53.00000 137.264
53.04000 134.029
53.08000 146.424
53.12000 153.815
53.16000 137.711
53.20000 149.855
53.24000 140.144
53.28000 146.954
53.32000 147.256
53.36000 155.891
53.40000 160.534
53.44000 148.468
53.48000 157.932
53.52000 146.718
53.56000 146.133
53.60000 149.764
53.64000 149.341
53.68000 152.955
53.72000 145.755
53.76000 142.346
53.80000 145.872
53.84000 149.889
53.88000 138.986
53.92000 148.523
53.96000 138.315
54.00000 141.033
54.04000 147.157
54.08000 143.311
54.12000 156.696
54.16000 140.053
54.20000 140.683
54.24000 132.882
54.28000 143.070
54.32000 148.579
54.36000 146.841
54.40000 136.758
54.44000 145.946
54.48000 140.058
54.52000 148.777
54.56000 141.712
54.60000 134.984
54.64000 150.845
54.68000 144.034
54.72000 148.200
54.76000 134.877
54.80000 139.136
54.84000 145.042
54.88000 153.968
54.92000 146.921
54.96000 140.768
55.00000 144.319
55.04000 151.313
55.08000 146.553
55.12000 142.685
55.16000 145.407
55.20000 161.605
55.24000 148.540
55.28000 162.903
55.32000 159.999
55.36000 170.546
55.40000 177.379
55.44000 164.177
55.48000 178.413
55.52000 195.710
55.56000 186.345
55.60000 221.062
55.64000 248.035
55.68000 274.811
55.72000 310.611
55.76000 359.351
55.80000 423.419
55.84000 471.333
55.88000 531.919
55.92000 577.015
55.96000 575.056
56.00000 572.123
56.04000 540.486
56.08000 482.980
56.12000 471.680
56.16000 413.002
56.20000 368.823
56.24000 331.949
56.28000 284.666
56.32000 255.744
56.36000 235.265
56.40000 209.694
56.44000 200.886
56.48000 173.981
56.52000 187.388
56.56000 169.686
56.60000 159.681
56.64000 161.383
56.68000 145.273
56.72000 141.971
56.76000 150.904
56.80000 146.511
56.84000 139.677
56.88000 130.810
56.92000 147.761
56.96000 142.930
57.00000 147.071
57.04000 133.154
57.08000 136.242
57.12000 144.837
57.16000 125.340
57.20000 124.567
57.24000 126.410
57.28000 134.597
57.32000 127.431
57.36000 120.839
57.40000 127.591
57.44000 124.009
57.48000 126.312
57.52000 122.668
57.56000 125.881
57.60000 127.594
57.64000 118.564
57.68000 123.326
57.72000 134.567
57.76000 130.480
57.80000 117.922
57.84000 120.251
57.88000 126.038
57.92000 123.111
57.96000 127.434
58.00000 118.564
58.04000 127.243
58.08000 126.192
58.12000 128.502
58.16000 122.452
58.20000 129.859
58.24000 121.688
58.28000 113.995
58.32000 118.920
58.36000 119.637
58.40000 131.094
58.44000 123.029
58.48000 116.068
58.52000 132.867
58.56000 118.851
58.60000 118.890
58.64000 114.714
58.68000 111.590
58.72000 124.324
58.76000 129.953
58.80000 115.917
58.84000 124.745
58.88000 121.424
58.92000 115.422
58.96000 122.832
59.00000 127.963
59.04000 114.892
59.08000 124.388
59.12000 122.706
59.16000 114.323
59.20000 116.523
59.24000 114.886
59.28000 116.669
59.32000 114.852
59.36000 120.344
59.40000 136.209
59.44000 115.269
59.48000 123.917
59.52000 117.065
59.56000 116.823
59.60000 118.130
59.64000 118.262
59.68000 123.965
59.72000 122.828
59.76000 115.497
59.80000 117.632
59.84000 108.067
59.88000 122.867
59.92000 120.403
59.96000 117.709
60.00000 124.660
60.04000 113.206
60.08000 118.913
60.12000 116.909
60.16000 119.363
60.20000 124.709
60.24000 115.041
60.28000 116.147
60.32000 115.175
60.36000 120.427
60.40000 122.267
60.44000 117.455
60.48000 118.303
60.52000 121.809
60.56000 117.772
60.60000 115.982
60.64000 124.543
60.68000 118.918
60.72000 120.379
60.76000 119.786
60.80000 116.399
60.84000 119.805
60.88000 119.858
60.92000 120.234
60.96000 120.875
61.00000 116.593
61.04000 131.201
61.08000 121.724
61.12000 123.488
61.16000 122.974
61.20000 133.631
61.24000 129.583
61.28000 125.744
61.32000 124.491
61.36000 122.313
61.40000 130.765
61.44000 130.709
61.48000 142.018
61.52000 197.332
61.56000 254.305
61.60000 333.795
61.64000 381.902
61.68000 408.657
61.72000 401.731
61.76000 370.364
61.80000 286.836
61.84000 199.676
61.88000 146.383
61.92000 143.877
61.96000 144.073
62.00000 149.731
62.04000 129.757
62.08000 129.361
62.12000 137.992
62.16000 131.973
62.20000 123.816
62.24000 134.906
62.28000 130.379
62.32000 132.070
62.36000 136.997
62.40000 141.035
62.44000 127.139
62.48000 137.025
62.52000 151.369
62.56000 137.229
62.60000 140.525
62.64000 134.943
62.68000 132.942
62.72000 136.102
62.76000 137.807
62.80000 141.179
62.84000 131.750
62.88000 142.188
62.92000 145.121
62.96000 141.577
63.00000 146.873
63.04000 141.830
63.08000 142.770
63.12000 146.971
63.16000 151.597
63.20000 145.635
63.24000 147.211
63.28000 135.436
63.32000 133.463
63.36000 136.901
63.40000 136.673
63.44000 150.299
63.48000 141.961
63.52000 137.396
63.56000 143.421
63.60000 144.688
63.64000 134.449
63.68000 144.461
63.72000 151.073
63.76000 150.812
63.80000 152.732
63.84000 153.916
63.88000 145.780
63.92000 158.421
63.96000 157.753
64.00000 149.639
64.04000 158.457
64.08000 158.017
64.12000 159.429
64.16000 153.387
64.20000 155.677
64.24000 157.363
64.28000 159.781
64.32000 173.203
64.36000 166.735
64.40000 166.022
64.44000 163.963
64.48000 171.731
64.52000 171.716
64.56000 178.394
64.60000 178.505
64.64000 181.193
64.68000 174.798
64.72000 191.161
64.76000 188.544
64.80000 193.062
64.84000 187.270
64.88000 205.376
64.92000 203.040
64.96000 207.800
65.00000 215.147
65.04000 230.017
65.08000 222.621
65.12000 226.514
65.16000 253.050
65.20000 258.973
65.24000 258.354
65.28000 301.047
65.32000 334.257
65.36000 333.890
65.40000 364.954
65.44000 382.215
65.48000 430.732
65.52000 492.001
65.56000 525.858
65.60000 574.839
65.64000 656.275
65.68000 971.425
65.72000 1519.807
65.76000 2223.758
65.80000 2823.097
65.84000 3042.712
65.88000 3028.893
65.92000 2834.802
65.96000 2274.650
66.00000 1522.925
66.04000 920.391
66.08000 649.632
66.12000 550.476
66.16000 517.175
66.20000 481.750
66.24000 516.866
66.28000 619.314
66.32000 741.628
66.36000 856.432
66.40000 885.335
66.44000 882.984
66.48000 823.999
66.52000 717.014
66.56000 618.569
66.60000 499.130
66.64000 465.129
66.68000 416.932
66.72000 444.359
66.76000 436.402
66.80000 420.584
66.84000 436.623
66.88000 450.142
66.92000 451.015
66.96000 459.943
67.00000 482.063
67.04000 473.460
67.08000 487.468
67.12000 472.268
67.16000 501.333
67.20000 489.384
67.24000 500.448
67.28000 490.025
67.32000 475.405
67.36000 511.639
67.40000 509.482
67.44000 524.222
67.48000 545.994
67.52000 542.116
67.56000 543.463
67.60000 534.506
67.64000 555.867
67.68000 554.646
67.72000 545.804
67.76000 573.444
67.80000 573.223
67.84000 588.238
67.88000 612.028
67.92000 594.962
67.96000 609.660
68.00000 608.435
68.04000 647.395
68.08000 648.421
68.12000 652.521
68.16000 671.817
68.20000 673.297
68.24000 722.919
68.28000 728.432
68.32000 732.140
68.36000 726.490
68.40000 796.724
68.44000 834.676
68.48000 873.014
68.52000 924.491
68.56000 1015.774
68.60000 1143.032
68.64000 1338.347
68.68000 1623.802
68.72000 1902.145
68.76000 2144.813
68.80000 2484.785
68.84000 2958.645
68.88000 3968.015
68.92000 7088.677
68.96000 16979.580
69.00000 37562.945
69.04000 57724.469
69.08000 68311.359
69.12000 72599.414
69.16000 76734.336
69.20000 74632.930
69.24000 59334.930
69.28000 45033.844
69.32000 37163.777
69.36000 33948.828
69.40000 27531.883
69.44000 16275.802
69.48000 7161.925
69.52000 3258.526
69.56000 1932.513
69.60000 1476.431
69.64000 1253.749
69.68000 1075.705
69.72000 949.867
69.76000 847.476
69.80000 762.008
69.84000 736.903
69.88000 671.050
69.92000 638.848
69.96000 623.733
70.00000 610.096