File: XRD/XRD/09-10-2025 Dep 8/XY Data/BTO_Mapping_Theta2Theta_09-10-2025_001_35_-19-563_-4-158.xy
20.00000 487.878
20.04000 497.748
20.08000 495.915
20.12000 495.351
20.16000 494.848
20.20000 493.071
20.24000 478.725
20.28000 480.130
20.32000 490.595
20.36000 490.048
20.40000 478.157
20.44000 492.797
20.48000 482.943
20.52000 489.739
20.56000 497.270
20.60000 483.770
20.64000 480.010
20.68000 478.648
20.72000 473.122
20.76000 478.219
20.80000 470.487
20.84000 473.782
20.88000 492.250
20.92000 482.219
20.96000 474.074
21.00000 485.474
21.04000 509.667
21.08000 501.091
21.12000 486.430
21.16000 478.770
21.20000 500.290
21.24000 495.004
21.28000 493.694
21.32000 500.889
21.36000 480.509
21.40000 471.394
21.44000 482.075
21.48000 482.348
21.52000 488.708
21.56000 479.263
21.60000 500.782
21.64000 509.126
21.68000 509.415
21.72000 536.404
21.76000 542.971
21.80000 560.147
21.84000 592.035
21.88000 641.210
21.92000 648.317
21.96000 687.360
22.00000 697.284
22.04000 731.085
22.08000 745.395
22.12000 720.747
22.16000 660.025
22.20000 611.526
22.24000 593.624
22.28000 564.929
22.32000 549.780
22.36000 532.103
22.40000 518.663
22.44000 495.114
22.48000 491.583
22.52000 485.271
22.56000 473.372
22.60000 474.438
22.64000 467.379
22.68000 456.072
22.72000 459.600
22.76000 447.061
22.80000 451.749
22.84000 456.112
22.88000 440.157
22.92000 440.342
22.96000 446.530
23.00000 444.693
23.04000 447.453
23.08000 446.857
23.12000 453.178
23.16000 442.478
23.20000 454.662
23.24000 446.704
23.28000 435.288
23.32000 429.510
23.36000 447.421
23.40000 438.934
23.44000 451.555
23.48000 435.551
23.52000 432.112
23.56000 448.051
23.60000 435.906
23.64000 429.260
23.68000 436.349
23.72000 411.333
23.76000 459.900
23.80000 445.019
23.84000 429.980
23.88000 430.741
23.92000 433.460
23.96000 430.895
24.00000 434.652
24.04000 441.471
24.08000 432.385
24.12000 429.754
24.16000 433.958
24.20000 435.111
24.24000 415.673
24.28000 420.668
24.32000 429.476
24.36000 428.163
24.40000 407.377
24.44000 416.188
24.48000 450.014
24.52000 431.465
24.56000 432.372
24.60000 430.838
24.64000 424.569
24.68000 429.340
24.72000 423.167
24.76000 422.167
24.80000 420.667
24.84000 417.484
24.88000 423.661
24.92000 395.411
24.96000 412.329
25.00000 400.431
25.04000 403.080
25.08000 412.044
25.12000 409.832
25.16000 411.304
25.20000 416.689
25.24000 413.699
25.28000 420.813
25.32000 424.250
25.36000 415.036
25.40000 389.934
25.44000 406.884
25.48000 402.571
25.52000 412.540
25.56000 413.179
25.60000 405.137
25.64000 402.580
25.68000 397.803
25.72000 417.339
25.76000 399.481
25.80000 397.536
25.84000 410.898
25.88000 393.763
25.92000 403.029
25.96000 394.437
26.00000 388.187
26.04000 419.527
26.08000 399.031
26.12000 397.762
26.16000 405.057
26.20000 394.964
26.24000 402.066
26.28000 397.737
26.32000 402.297
26.36000 414.250
26.40000 388.966
26.44000 395.052
26.48000 390.006
26.52000 374.609
26.56000 389.484
26.60000 384.212
26.64000 409.983
26.68000 398.826
26.72000 389.622
26.76000 380.716
26.80000 401.443
26.84000 380.925
26.88000 395.032
26.92000 397.746
26.96000 391.845
27.00000 386.944
27.04000 391.997
27.08000 367.357
27.12000 385.011
27.16000 388.128
27.20000 399.999
27.24000 395.255
27.28000 380.134
27.32000 371.115
27.36000 373.337
27.40000 394.804
27.44000 384.504
27.48000 375.225
27.52000 374.569
27.56000 388.211
27.60000 369.873
27.64000 386.323
27.68000 382.709
27.72000 382.037
27.76000 374.544
27.80000 388.295
27.84000 401.046
27.88000 364.632
27.92000 377.913
27.96000 371.990
28.00000 389.784
28.04000 379.922
28.08000 384.072
28.12000 369.333
28.16000 378.901
28.20000 384.038
28.24000 385.854
28.28000 382.215
28.32000 354.631
28.36000 371.120
28.40000 382.636
28.44000 387.729
28.48000 358.986
28.52000 354.655
28.56000 371.792
28.60000 362.823
28.64000 347.030
28.68000 373.192
28.72000 361.977
28.76000 358.440
28.80000 362.746
28.84000 382.316
28.88000 373.281
28.92000 352.185
28.96000 371.820
29.00000 347.684
29.04000 359.133
29.08000 377.610
29.12000 366.195
29.16000 368.412
29.20000 367.473
29.24000 360.629
29.28000 364.013
29.32000 365.068
29.36000 363.091
29.40000 348.249
29.44000 343.904
29.48000 363.350
29.52000 364.329
29.56000 367.448
29.60000 369.417
29.64000 386.079
29.68000 359.203
29.72000 377.563
29.76000 387.952
29.80000 397.950
29.84000 412.876
29.88000 419.086
29.92000 422.394
29.96000 465.911
30.00000 471.679
30.04000 448.296
30.08000 463.364
30.12000 455.126
30.16000 439.126
30.20000 415.173
30.24000 422.417
30.28000 409.537
30.32000 402.033
30.36000 404.967
30.40000 420.188
30.44000 412.779
30.48000 401.594
30.52000 403.668
30.56000 393.280
30.60000 389.086
30.64000 395.059
30.68000 407.515
30.72000 425.455
30.76000 404.172
30.80000 403.353
30.84000 430.441
30.88000 450.544
30.92000 458.077
30.96000 476.980
31.00000 530.815
31.04000 604.162
31.08000 733.906
31.12000 920.843
31.16000 1180.886
31.20000 1523.996
31.24000 1876.718
31.28000 2420.263
31.32000 2811.909
31.36000 3047.857
31.40000 3081.384
31.44000 2975.805
31.48000 2621.655
31.52000 2239.806
31.56000 1768.257
31.60000 1366.169
31.64000 1080.426
31.68000 843.418
31.72000 679.364
31.76000 610.395
31.80000 528.111
31.84000 470.143
31.88000 442.384
31.92000 406.783
31.96000 391.688
32.00000 379.050
32.04000 366.850
32.08000 369.809
32.12000 359.329
32.16000 366.015
32.20000 349.326
32.24000 341.042
32.28000 348.982
32.32000 363.031
32.36000 343.456
32.40000 343.152
32.44000 349.882
32.48000 334.749
32.52000 338.015
32.56000 354.342
32.60000 323.401
32.64000 334.942
32.68000 322.448
32.72000 339.831
32.76000 332.407
32.80000 321.381
32.84000 338.045
32.88000 327.453
32.92000 308.595
32.96000 310.008
33.00000 311.029
33.04000 312.821
33.08000 305.156
33.12000 312.307
33.16000 301.734
33.20000 318.112
33.24000 310.851
33.28000 312.166
33.32000 310.626
33.36000 295.389
33.40000 297.239
33.44000 318.357
33.48000 308.070
33.52000 311.187
33.56000 301.985
33.60000 309.379
33.64000 303.068
33.68000 297.599
33.72000 304.509
33.76000 306.839
33.80000 289.799
33.84000 286.849
33.88000 304.888
33.92000 294.301
33.96000 281.498
34.00000 290.030
34.04000 304.649
34.08000 292.740
34.12000 285.351
34.16000 296.645
34.20000 292.786
34.24000 299.245
34.28000 289.921
34.32000 285.183
34.36000 287.767
34.40000 293.311
34.44000 279.604
34.48000 303.154
34.52000 286.167
34.56000 291.916
34.60000 297.151
34.64000 264.929
34.68000 282.142
34.72000 277.164
34.76000 277.092
34.80000 294.342
34.84000 292.263
34.88000 296.549
34.92000 277.924
34.96000 284.564
35.00000 273.571
35.04000 275.347
35.08000 298.943
35.12000 278.646
35.16000 286.231
35.20000 277.819
35.24000 282.830
35.28000 270.016
35.32000 288.790
35.36000 278.021
35.40000 265.072
35.44000 273.017
35.48000 277.222
35.52000 282.899
35.56000 286.161
35.60000 277.666
35.64000 272.476
35.68000 260.212
35.72000 272.057
35.76000 270.634
35.80000 271.229
35.84000 277.255
35.88000 273.683
35.92000 268.023
35.96000 263.543
36.00000 263.993
36.04000 265.020
36.08000 261.079
36.12000 279.715
36.16000 268.797
36.20000 253.668
36.24000 266.665
36.28000 249.574
36.32000 283.007
36.36000 267.894
36.40000 268.879
36.44000 261.396
36.48000 258.730
36.52000 266.364
36.56000 268.337
36.60000 260.049
36.64000 264.626
36.68000 269.705
36.72000 266.289
36.76000 265.869
36.80000 267.355
36.84000 267.639
36.88000 272.070
36.92000 270.975
36.96000 271.033
37.00000 280.364
37.04000 267.033
37.08000 273.892
37.12000 274.999
37.16000 281.979
37.20000 270.345
37.24000 268.809
37.28000 266.713
37.32000 277.671
37.36000 264.791
37.40000 257.052
37.44000 260.379
37.48000 284.519
37.52000 253.939
37.56000 262.348
37.60000 258.493
37.64000 262.769
37.68000 257.955
37.72000 266.468
37.76000 266.988
37.80000 274.859
37.84000 272.127
37.88000 281.407
37.92000 267.774
37.96000 275.352
38.00000 266.970
38.04000 269.689
38.08000 291.212
38.12000 271.275
38.16000 282.844
38.20000 299.825
38.24000 281.808
38.28000 302.266
38.32000 343.609
38.36000 335.044
38.40000 354.365
38.44000 441.571
38.48000 490.456
38.52000 562.501
38.56000 636.799
38.60000 718.779
38.64000 792.522
38.68000 843.312
38.72000 814.245
38.76000 787.479
38.80000 729.723
38.84000 616.637
38.88000 520.839
38.92000 453.450
38.96000 398.255
39.00000 357.321
39.04000 314.330
39.08000 307.811
39.12000 291.961
39.16000 278.263
39.20000 267.031
39.24000 274.336
39.28000 261.552
39.32000 267.637
39.36000 262.502
39.40000 254.209
39.44000 263.257
39.48000 246.917
39.52000 249.943
39.56000 252.644
39.60000 243.096
39.64000 235.860
39.68000 243.326
39.72000 246.197
39.76000 232.406
39.80000 243.409
39.84000 237.394
39.88000 218.768
39.92000 228.042
39.96000 233.800
40.00000 239.455
40.04000 254.686
40.08000 217.031
40.12000 228.190
40.16000 233.835
40.20000 227.028
40.24000 239.090
40.28000 241.452
40.32000 225.198
40.36000 244.145
40.40000 223.673
40.44000 228.848
40.48000 220.537
40.52000 226.148
40.56000 226.430
40.60000 232.545
40.64000 219.226
40.68000 235.243
40.72000 226.626
40.76000 234.328
40.80000 237.873
40.84000 234.514
40.88000 216.659
40.92000 230.010
40.96000 215.767
41.00000 233.387
41.04000 216.916
41.08000 228.347
41.12000 202.821
41.16000 219.360
41.20000 205.091
41.24000 225.883
41.28000 224.641
41.32000 220.763
41.36000 217.435
41.40000 206.612
41.44000 228.824
41.48000 226.707
41.52000 220.647
41.56000 221.002
41.60000 211.698
41.64000 224.190
41.68000 223.503
41.72000 213.067
41.76000 223.189
41.80000 222.120
41.84000 204.256
41.88000 216.548
41.92000 237.325
41.96000 228.120
42.00000 222.125
42.04000 215.753
42.08000 211.002
42.12000 198.927
42.16000 215.009
42.20000 209.809
42.24000 223.089
42.28000 212.937
42.32000 202.524
42.36000 207.832
42.40000 204.345
42.44000 199.987
42.48000 195.166
42.52000 204.994
42.56000 209.392
42.60000 212.577
42.64000 222.578
42.68000 209.180
42.72000 224.141
42.76000 198.512
42.80000 210.734
42.84000 210.550
42.88000 212.574
42.92000 212.762
42.96000 217.266
43.00000 205.979
43.04000 221.205
43.08000 220.256
43.12000 218.838
43.16000 212.273
43.20000 206.346
43.24000 204.716
43.28000 207.320
43.32000 211.832
43.36000 206.838
43.40000 199.354
43.44000 204.682
43.48000 204.073
43.52000 213.254
43.56000 203.918
43.60000 198.857
43.64000 199.051
43.68000 204.215
43.72000 195.587
43.76000 207.743
43.80000 203.056
43.84000 206.231
43.88000 206.407
43.92000 195.104
43.96000 207.618
44.00000 203.558
44.04000 194.977
44.08000 208.052
44.12000 214.180
44.16000 201.032
44.20000 200.409
44.24000 210.551
44.28000 209.004
44.32000 220.529
44.36000 208.787
44.40000 214.445
44.44000 222.589
44.48000 220.801
44.52000 217.326
44.56000 238.759
44.60000 236.541
44.64000 254.401
44.68000 262.286
44.72000 281.907
44.76000 296.732
44.80000 315.114
44.84000 331.305
44.88000 354.735
44.92000 379.731
44.96000 414.317
45.00000 424.984
45.04000 440.108
45.08000 406.196
45.12000 402.556
45.16000 394.279
45.20000 367.830
45.24000 350.743
45.28000 317.221
45.32000 305.775
45.36000 297.690
45.40000 274.282
45.44000 267.345
45.48000 237.512
45.52000 242.299
45.56000 218.016
45.60000 235.990
45.64000 218.780
45.68000 214.579
45.72000 207.719
45.76000 203.905
45.80000 210.696
45.84000 203.301
45.88000 188.849
45.92000 181.211
45.96000 188.422
46.00000 188.670
46.04000 187.378
46.08000 196.121
46.12000 188.540
46.16000 183.114
46.20000 190.684
46.24000 185.378
46.28000 174.500
46.32000 179.897
46.36000 179.108
46.40000 188.668
46.44000 177.423
46.48000 177.537
46.52000 186.032
46.56000 182.268
46.60000 190.759
46.64000 186.773
46.68000 181.953
46.72000 177.161
46.76000 170.275
46.80000 161.168
46.84000 170.355
46.88000 171.841
46.92000 188.457
46.96000 164.203
47.00000 175.604
47.04000 186.093
47.08000 167.458
47.12000 167.619
47.16000 169.238
47.20000 162.684
47.24000 173.850
47.28000 174.926
47.32000 173.776
47.36000 151.380
47.40000 167.151
47.44000 173.729
47.48000 171.286
47.52000 165.686
47.56000 160.484
47.60000 166.233
47.64000 166.375
47.68000 165.321
47.72000 169.291
47.76000 178.578
47.80000 168.555
47.84000 158.737
47.88000 167.782
47.92000 172.803
47.96000 177.628
48.00000 166.229
48.04000 170.537
48.08000 167.681
48.12000 156.049
48.16000 164.223
48.20000 149.412
48.24000 154.323
48.28000 161.189
48.32000 166.105
48.36000 170.848
48.40000 161.335
48.44000 157.803
48.48000 168.107
48.52000 162.259
48.56000 166.345
48.60000 161.837
48.64000 160.605
48.68000 160.951
48.72000 155.818
48.76000 157.712
48.80000 156.085
48.84000 160.022
48.88000 168.180
48.92000 156.252
48.96000 161.073
49.00000 153.465
49.04000 155.205
49.08000 159.205
49.12000 171.352
49.16000 160.003
49.20000 157.800
49.24000 157.715
49.28000 159.515
49.32000 151.913
49.36000 160.810
49.40000 180.974
49.44000 159.562
49.48000 152.226
49.52000 180.989
49.56000 160.048
49.60000 168.494
49.64000 161.217
49.68000 155.556
49.72000 155.982
49.76000 163.055
49.80000 162.770
49.84000 148.498
49.88000 167.002
49.92000 161.508
49.96000 163.154
50.00000 160.261
50.04000 162.716
50.08000 165.985
50.12000 156.477
50.16000 158.256
50.20000 164.651
50.24000 166.406
50.28000 166.627
50.32000 171.877
50.36000 170.110
50.40000 182.734
50.44000 193.233
50.48000 206.181
50.52000 208.927
50.56000 228.901
50.60000 231.091
50.64000 239.081
50.68000 226.489
50.72000 244.754
50.76000 246.135
50.80000 226.406
50.84000 214.289
50.88000 215.683
50.92000 199.278
50.96000 176.396
51.00000 191.026
51.04000 186.053
51.08000 184.265
51.12000 163.771
51.16000 178.015
51.20000 175.895
51.24000 176.465
51.28000 163.216
51.32000 159.433
51.36000 152.516
51.40000 149.892
51.44000 166.297
51.48000 141.727
51.52000 161.553
51.56000 162.079
51.60000 157.114
51.64000 156.815
51.68000 150.214
51.72000 151.363
51.76000 140.671
51.80000 135.964
51.84000 142.360
51.88000 152.451
51.92000 142.184
51.96000 158.072
52.00000 149.599
52.04000 148.580
52.08000 149.261
52.12000 147.277
52.16000 153.617
52.20000 135.922
52.24000 144.078
52.28000 144.358
52.32000 140.290
52.36000 149.031
52.40000 142.045
52.44000 146.165
52.48000 140.208
52.52000 152.163
52.56000 150.224
52.60000 147.907
52.64000 137.089
52.68000 146.324
52.72000 153.673
52.76000 140.522
52.80000 140.977
52.84000 157.373
52.88000 147.450
52.92000 151.749
52.96000 143.056
53.00000 145.656
53.04000 159.674
53.08000 144.165
53.12000 149.000
53.16000 160.082
53.20000 144.397
53.24000 152.953
53.28000 150.381
53.32000 157.725
53.36000 154.335
53.40000 158.068
53.44000 151.709
53.48000 158.564
53.52000 161.528
53.56000 163.567
53.60000 150.402
53.64000 149.887
53.68000 150.011
53.72000 143.171
53.76000 149.739
53.80000 132.730
53.84000 147.904
53.88000 149.004
53.92000 144.342
53.96000 147.044
54.00000 141.156
54.04000 147.209
54.08000 134.073
54.12000 137.237
54.16000 128.680
54.20000 142.825
54.24000 138.210
54.28000 148.046
54.32000 141.531
54.36000 141.472
54.40000 135.149
54.44000 142.776
54.48000 146.579
54.52000 146.224
54.56000 143.633
54.60000 143.910
54.64000 146.238
54.68000 142.194
54.72000 143.889
54.76000 141.152
54.80000 151.234
54.84000 153.620
54.88000 149.550
54.92000 141.237
54.96000 146.977
55.00000 156.456
55.04000 170.648
55.08000 153.016
55.12000 153.627
55.16000 150.502
55.20000 159.099
55.24000 164.836
55.28000 166.108
55.32000 171.199
55.36000 166.719
55.40000 176.307
55.44000 194.258
55.48000 190.639
55.52000 212.303
55.56000 220.944
55.60000 263.658
55.64000 298.535
55.68000 341.179
55.72000 383.732
55.76000 413.201
55.80000 469.887
55.84000 502.121
55.88000 550.254
55.92000 581.847
55.96000 562.982
56.00000 536.336
56.04000 520.010
56.08000 465.432
56.12000 428.793
56.16000 370.737
56.20000 334.544
56.24000 277.610
56.28000 252.747
56.32000 226.279
56.36000 214.406
56.40000 207.837
56.44000 191.866
56.48000 185.208
56.52000 177.310
56.56000 170.515
56.60000 159.681
56.64000 152.588
56.68000 152.342
56.72000 152.904
56.76000 149.275
56.80000 157.488
56.84000 142.409
56.88000 140.690
56.92000 140.210
56.96000 145.985
57.00000 135.697
57.04000 141.600
57.08000 133.358
57.12000 129.041
57.16000 136.731
57.20000 139.808
57.24000 127.859
57.28000 134.114
57.32000 116.120
57.36000 130.091
57.40000 129.995
57.44000 131.938
57.48000 124.567
57.52000 128.942
57.56000 138.720
57.60000 134.294
57.64000 125.920
57.68000 122.559
57.72000 129.316
57.76000 132.459
57.80000 137.968
57.84000 128.217
57.88000 126.744
57.92000 127.647
57.96000 125.726
58.00000 128.637
58.04000 129.959
58.08000 134.030
58.12000 129.956
58.16000 132.546
58.20000 118.761
58.24000 128.287
58.28000 121.353
58.32000 125.889
58.36000 127.437
58.40000 123.544
58.44000 119.761
58.48000 124.152
58.52000 117.202
58.56000 124.525
58.60000 120.366
58.64000 122.412
58.68000 131.292
58.72000 121.906
58.76000 120.579
58.80000 114.628
58.84000 125.789
58.88000 126.888
58.92000 126.938
58.96000 123.886
59.00000 136.224
59.04000 127.619
59.08000 121.189
59.12000 128.271
59.16000 114.293
59.20000 119.135
59.24000 128.260
59.28000 135.921
59.32000 128.059
59.36000 123.582
59.40000 111.673
59.44000 121.666
59.48000 114.484
59.52000 120.103
59.56000 118.586
59.60000 108.768
59.64000 122.546
59.68000 128.642
59.72000 125.111
59.76000 123.690
59.80000 123.456
59.84000 124.422
59.88000 117.201
59.92000 122.114
59.96000 118.926
60.00000 126.664
60.04000 117.855
60.08000 120.696
60.12000 110.729
60.16000 120.194
60.20000 113.070
60.24000 122.574
60.28000 116.377
60.32000 120.161
60.36000 127.067
60.40000 118.427
60.44000 116.717
60.48000 117.522
60.52000 114.905
60.56000 115.881
60.60000 119.663
60.64000 123.667
60.68000 121.713
60.72000 116.254
60.76000 128.071
60.80000 122.058
60.84000 114.991
60.88000 114.812
60.92000 121.672
60.96000 128.061
61.00000 122.628
61.04000 118.028
61.08000 120.368
61.12000 135.934
61.16000 131.485
61.20000 132.695
61.24000 134.683
61.28000 121.034
61.32000 127.061
61.36000 124.635
61.40000 123.566
61.44000 134.308
61.48000 142.157
61.52000 197.618
61.56000 275.362
61.60000 360.257
61.64000 424.803
61.68000 476.765
61.72000 449.015
61.76000 408.034
61.80000 298.920
61.84000 217.731
61.88000 160.743
61.92000 139.676
61.96000 145.674
62.00000 142.571
62.04000 131.942
62.08000 129.107
62.12000 135.459
62.16000 132.787
62.20000 129.438
62.24000 136.555
62.28000 134.988
62.32000 132.739
62.36000 141.389
62.40000 147.179
62.44000 141.671
62.48000 138.524
62.52000 139.896
62.56000 136.154
62.60000 133.921
62.64000 135.356
62.68000 144.649
62.72000 140.614
62.76000 143.439
62.80000 141.358
62.84000 140.206
62.88000 138.733
62.92000 133.844
62.96000 138.951
63.00000 144.235
63.04000 156.880
63.08000 132.099
63.12000 130.316
63.16000 138.981
63.20000 144.224
63.24000 140.468
63.28000 140.051
63.32000 128.273
63.36000 140.036
63.40000 150.446
63.44000 146.260
63.48000 146.586
63.52000 146.110
63.56000 146.778
63.60000 147.076
63.64000 156.077
63.68000 148.566
63.72000 151.705
63.76000 156.287
63.80000 143.707
63.84000 158.595
63.88000 145.498
63.92000 154.267
63.96000 156.819
64.00000 159.833
64.04000 150.813
64.08000 154.995
64.12000 154.209
64.16000 161.255
64.20000 160.352
64.24000 166.121
64.28000 158.922
64.32000 159.457
64.36000 168.314
64.40000 168.853
64.44000 165.502
64.48000 177.522
64.52000 172.515
64.56000 189.322
64.60000 180.724
64.64000 180.002
64.68000 181.665
64.72000 187.171
64.76000 184.984
64.80000 194.508
64.84000 197.781
64.88000 195.681
64.92000 219.196
64.96000 220.937
65.00000 223.322
65.04000 222.053
65.08000 242.273
65.12000 241.980
65.16000 264.686
65.20000 269.832
65.24000 273.823
65.28000 305.138
65.32000 329.764
65.36000 354.253
65.40000 373.293
65.44000 419.860
65.48000 443.284
65.52000 484.045
65.56000 533.545
65.60000 585.632
65.64000 708.912
65.68000 1035.665
65.72000 1660.406
65.76000 2420.310
65.80000 3064.706
65.84000 3339.113
65.88000 3357.451
65.92000 3177.450
65.96000 2488.911
66.00000 1614.919
66.04000 982.166
66.08000 684.464
66.12000 578.628
66.16000 506.675
66.20000 516.727
66.24000 557.550
66.28000 688.967
66.32000 821.438
66.36000 916.655
66.40000 966.806
66.44000 975.576
66.48000 918.899
66.52000 791.073
66.56000 613.072
66.60000 541.582
66.64000 482.527
66.68000 466.724
66.72000 451.842
66.76000 452.570
66.80000 447.030
66.84000 453.518
66.88000 454.254
66.92000 474.455
66.96000 474.329
67.00000 504.911
67.04000 506.002
67.08000 501.672
67.12000 505.415
67.16000 488.925
67.20000 518.769
67.24000 511.172
67.28000 504.918
67.32000 535.032
67.36000 538.413
67.40000 533.887
67.44000 546.141
67.48000 543.660
67.52000 532.396
67.56000 545.512
67.60000 556.846
67.64000 570.287
67.68000 583.057
67.72000 595.589
67.76000 604.771
67.80000 595.872
67.84000 597.556
67.88000 608.817
67.92000 637.373
67.96000 632.189
68.00000 640.235
68.04000 676.638
68.08000 683.168
68.12000 674.048
68.16000 701.978
68.20000 708.727
68.24000 735.103
68.28000 762.099
68.32000 783.868
68.36000 808.820
68.40000 836.950
68.44000 890.879
68.48000 906.635
68.52000 969.384
68.56000 1055.964
68.60000 1212.135
68.64000 1456.623
68.68000 1723.281
68.72000 2049.809
68.76000 2327.066
68.80000 2759.548
68.84000 3270.848
68.88000 4397.014
68.92000 8038.274
68.96000 19155.232
69.00000 41902.617
69.04000 64414.762
69.08000 76091.164
69.12000 80901.930
69.16000 85661.602
69.20000 81991.789
69.24000 65922.367
69.28000 50309.867
69.32000 41101.473
69.36000 37691.457
69.40000 30391.707
69.44000 17986.385
69.48000 8022.466
69.52000 3567.568
69.56000 2092.072
69.60000 1578.991
69.64000 1320.488
69.68000 1097.665
69.72000 973.099
69.76000 862.129
69.80000 819.203
69.84000 777.083
69.88000 718.876
69.92000 668.381
69.96000 631.056
70.00000 623.738