File: XRD/XRD/09-10-2025 Dep 8/XY Data/BTO_Mapping_Theta2Theta_09-10-2025_001_30_-9-781_2-079.xy
20.00000 487.743
20.04000 487.535
20.08000 502.544
20.12000 487.190
20.16000 485.408
20.20000 467.886
20.24000 484.088
20.28000 482.053
20.32000 492.572
20.36000 485.760
20.40000 483.144
20.44000 494.182
20.48000 481.130
20.52000 479.465
20.56000 459.415
20.60000 478.418
20.64000 465.804
20.68000 494.806
20.72000 494.093
20.76000 483.123
20.80000 487.482
20.84000 462.431
20.88000 485.623
20.92000 480.629
20.96000 489.548
21.00000 485.379
21.04000 468.933
21.08000 467.354
21.12000 474.301
21.16000 474.440
21.20000 509.152
21.24000 486.306
21.28000 459.847
21.32000 463.509
21.36000 479.851
21.40000 479.103
21.44000 476.702
21.48000 489.094
21.52000 481.326
21.56000 484.035
21.60000 469.695
21.64000 495.628
21.68000 496.984
21.72000 511.181
21.76000 503.017
21.80000 539.380
21.84000 573.586
21.88000 602.772
21.92000 591.827
21.96000 629.242
22.00000 658.741
22.04000 686.194
22.08000 690.590
22.12000 661.275
22.16000 651.610
22.20000 633.516
22.24000 599.906
22.28000 564.610
22.32000 555.409
22.36000 535.834
22.40000 497.801
22.44000 498.598
22.48000 489.391
22.52000 504.412
22.56000 492.240
22.60000 475.583
22.64000 458.514
22.68000 464.137
22.72000 453.021
22.76000 454.349
22.80000 441.851
22.84000 463.789
22.88000 465.615
22.92000 450.746
22.96000 437.844
23.00000 448.340
23.04000 444.476
23.08000 457.622
23.12000 445.143
23.16000 435.743
23.20000 440.397
23.24000 434.961
23.28000 433.749
23.32000 404.609
23.36000 433.621
23.40000 443.637
23.44000 450.541
23.48000 444.108
23.52000 441.415
23.56000 430.432
23.60000 420.645
23.64000 431.007
23.68000 422.982
23.72000 438.936
23.76000 439.699
23.80000 432.020
23.84000 422.043
23.88000 446.109
23.92000 449.174
23.96000 459.497
24.00000 433.025
24.04000 424.269
24.08000 413.218
24.12000 442.385
24.16000 423.964
24.20000 433.805
24.24000 429.753
24.28000 438.398
24.32000 421.476
24.36000 407.986
24.40000 424.892
24.44000 418.401
24.48000 411.649
24.52000 427.637
24.56000 434.634
24.60000 432.516
24.64000 408.537
24.68000 422.608
24.72000 413.877
24.76000 409.446
24.80000 416.769
24.84000 417.689
24.88000 424.211
24.92000 430.009
24.96000 406.148
25.00000 399.801
25.04000 399.528
25.08000 409.157
25.12000 422.352
25.16000 399.354
25.20000 409.530
25.24000 414.759
25.28000 414.397
25.32000 413.443
25.36000 410.139
25.40000 396.008
25.44000 413.046
25.48000 413.554
25.52000 431.191
25.56000 400.451
25.60000 406.928
25.64000 405.793
25.68000 391.233
25.72000 381.337
25.76000 394.443
25.80000 402.975
25.84000 408.706
25.88000 401.016
25.92000 390.788
25.96000 412.266
26.00000 397.231
26.04000 393.583
26.08000 404.925
26.12000 404.024
26.16000 404.821
26.20000 387.621
26.24000 398.610
26.28000 399.985
26.32000 387.125
26.36000 393.096
26.40000 407.769
26.44000 406.403
26.48000 385.761
26.52000 382.257
26.56000 401.313
26.60000 396.828
26.64000 371.215
26.68000 400.626
26.72000 404.486
26.76000 381.223
26.80000 369.402
26.84000 382.117
26.88000 385.180
26.92000 398.965
26.96000 373.402
27.00000 378.663
27.04000 377.165
27.08000 382.758
27.12000 401.865
27.16000 387.624
27.20000 364.734
27.24000 371.256
27.28000 371.243
27.32000 379.879
27.36000 381.511
27.40000 396.092
27.44000 389.540
27.48000 395.445
27.52000 371.559
27.56000 394.552
27.60000 379.666
27.64000 391.403
27.68000 375.794
27.72000 380.807
27.76000 369.019
27.80000 385.324
27.84000 369.813
27.88000 360.043
27.92000 376.211
27.96000 388.359
28.00000 386.416
28.04000 377.845
28.08000 374.368
28.12000 389.740
28.16000 379.549
28.20000 383.321
28.24000 385.585
28.28000 379.791
28.32000 370.353
28.36000 360.039
28.40000 377.359
28.44000 374.499
28.48000 368.615
28.52000 366.701
28.56000 371.661
28.60000 357.703
28.64000 368.456
28.68000 373.686
28.72000 375.774
28.76000 368.824
28.80000 365.460
28.84000 369.165
28.88000 369.762
28.92000 389.526
28.96000 348.978
29.00000 377.018
29.04000 385.753
29.08000 378.523
29.12000 363.601
29.16000 373.686
29.20000 359.410
29.24000 387.138
29.28000 371.860
29.32000 358.322
29.36000 359.571
29.40000 358.650
29.44000 359.108
29.48000 355.781
29.52000 359.378
29.56000 383.300
29.60000 366.336
29.64000 372.716
29.68000 375.331
29.72000 371.081
29.76000 380.497
29.80000 396.657
29.84000 408.604
29.88000 427.978
29.92000 440.169
29.96000 446.207
30.00000 462.860
30.04000 463.866
30.08000 466.835
30.12000 462.343
30.16000 448.967
30.20000 420.556
30.24000 421.986
30.28000 414.964
30.32000 414.067
30.36000 406.415
30.40000 394.859
30.44000 398.874
30.48000 405.010
30.52000 407.163
30.56000 400.725
30.60000 420.913
30.64000 411.874
30.68000 408.046
30.72000 410.973
30.76000 419.186
30.80000 438.200
30.84000 447.857
30.88000 466.325
30.92000 461.622
30.96000 488.580
31.00000 546.547
31.04000 609.995
31.08000 719.994
31.12000 865.467
31.16000 1115.953
31.20000 1451.347
31.24000 1836.252
31.28000 2276.401
31.32000 2714.181
31.36000 2922.883
31.40000 3045.601
31.44000 2869.308
31.48000 2662.803
31.52000 2222.087
31.56000 1776.082
31.60000 1407.789
31.64000 1085.300
31.68000 878.263
31.72000 715.178
31.76000 609.682
31.80000 536.353
31.84000 505.849
31.88000 464.933
31.92000 437.262
31.96000 417.460
32.00000 392.783
32.04000 385.078
32.08000 381.628
32.12000 365.441
32.16000 353.798
32.20000 351.681
32.24000 361.112
32.28000 345.187
32.32000 352.459
32.36000 356.507
32.40000 351.768
32.44000 339.415
32.48000 363.237
32.52000 338.870
32.56000 329.083
32.60000 353.362
32.64000 345.186
32.68000 327.145
32.72000 333.643
32.76000 323.748
32.80000 313.411
32.84000 319.902
32.88000 316.417
32.92000 324.002
32.96000 318.709
33.00000 318.059
33.04000 321.612
33.08000 314.841
33.12000 321.390
33.16000 323.218
33.20000 331.544
33.24000 306.393
33.28000 304.866
33.32000 320.099
33.36000 305.392
33.40000 312.844
33.44000 305.897
33.48000 312.841
33.52000 307.369
33.56000 302.575
33.60000 302.370
33.64000 291.470
33.68000 299.405
33.72000 295.768
33.76000 287.463
33.80000 298.381
33.84000 303.608
33.88000 298.529
33.92000 294.344
33.96000 286.649
34.00000 294.328
34.04000 290.216
34.08000 294.056
34.12000 292.818
34.16000 300.168
34.20000 287.814
34.24000 293.244
34.28000 281.885
34.32000 270.959
34.36000 279.066
34.40000 285.819
34.44000 287.852
34.48000 286.031
34.52000 284.477
34.56000 296.539
34.60000 279.860
34.64000 290.288
34.68000 288.948
34.72000 273.873
34.76000 279.770
34.80000 283.745
34.84000 263.791
34.88000 291.675
34.92000 275.020
34.96000 296.895
35.00000 281.374
35.04000 275.488
35.08000 275.020
35.12000 281.672
35.16000 282.288
35.20000 289.693
35.24000 280.822
35.28000 275.484
35.32000 279.835
35.36000 270.558
35.40000 273.949
35.44000 296.157
35.48000 273.733
35.52000 277.203
35.56000 276.567
35.60000 263.752
35.64000 266.534
35.68000 265.112
35.72000 260.714
35.76000 271.679
35.80000 267.161
35.84000 272.243
35.88000 250.656
35.92000 266.052
35.96000 281.527
36.00000 285.192
36.04000 270.159
36.08000 266.189
36.12000 270.731
36.16000 268.914
36.20000 278.420
36.24000 267.050
36.28000 267.580
36.32000 255.260
36.36000 255.675
36.40000 256.589
36.44000 270.288
36.48000 265.604
36.52000 271.359
36.56000 271.792
36.60000 257.678
36.64000 258.400
36.68000 263.040
36.72000 277.616
36.76000 254.253
36.80000 276.643
36.84000 259.109
36.88000 277.171
36.92000 289.954
36.96000 276.099
37.00000 274.963
37.04000 290.982
37.08000 269.069
37.12000 284.564
37.16000 277.467
37.20000 265.352
37.24000 254.498
37.28000 262.355
37.32000 267.132
37.36000 253.846
37.40000 262.908
37.44000 261.928
37.48000 264.673
37.52000 269.529
37.56000 279.030
37.60000 257.464
37.64000 259.763
37.68000 260.097
37.72000 254.861
37.76000 266.860
37.80000 287.813
37.84000 265.012
37.88000 267.079
37.92000 249.606
37.96000 254.164
38.00000 268.407
38.04000 270.454
38.08000 263.959
38.12000 272.495
38.16000 285.746
38.20000 294.774
38.24000 294.927
38.28000 298.882
38.32000 304.832
38.36000 335.649
38.40000 373.240
38.44000 418.902
38.48000 477.323
38.52000 565.099
38.56000 677.183
38.60000 797.512
38.64000 894.855
38.68000 974.396
38.72000 1012.224
38.76000 952.511
38.80000 870.607
38.84000 751.809
38.88000 616.560
38.92000 511.922
38.96000 430.972
39.00000 374.862
39.04000 327.806
39.08000 296.688
39.12000 291.438
39.16000 279.302
39.20000 266.105
39.24000 277.378
39.28000 251.492
39.32000 254.580
39.36000 252.896
39.40000 251.084
39.44000 248.623
39.48000 254.984
39.52000 248.180
39.56000 247.557
39.60000 237.967
39.64000 237.841
39.68000 257.623
39.72000 248.374
39.76000 244.557
39.80000 246.641
39.84000 215.300
39.88000 234.409
39.92000 243.933
39.96000 238.058
40.00000 230.506
40.04000 231.033
40.08000 224.072
40.12000 235.306
40.16000 235.240
40.20000 227.510
40.24000 217.455
40.28000 227.935
40.32000 236.533
40.36000 221.498
40.40000 217.964
40.44000 227.862
40.48000 230.193
40.52000 231.506
40.56000 235.026
40.60000 212.678
40.64000 216.910
40.68000 223.665
40.72000 219.171
40.76000 226.940
40.80000 215.624
40.84000 220.822
40.88000 226.407
40.92000 220.774
40.96000 220.106
41.00000 228.195
41.04000 234.279
41.08000 224.657
41.12000 219.641
41.16000 216.840
41.20000 218.060
41.24000 228.943
41.28000 221.128
41.32000 216.313
41.36000 223.791
41.40000 229.375
41.44000 219.221
41.48000 222.539
41.52000 221.634
41.56000 208.894
41.60000 219.031
41.64000 217.302
41.68000 220.526
41.72000 218.876
41.76000 212.669
41.80000 216.717
41.84000 215.527
41.88000 217.041
41.92000 206.783
41.96000 211.330
42.00000 210.160
42.04000 203.459
42.08000 197.576
42.12000 206.595
42.16000 204.570
42.20000 215.129
42.24000 210.243
42.28000 205.053
42.32000 199.358
42.36000 204.666
42.40000 198.799
42.44000 222.982
42.48000 211.578
42.52000 206.036
42.56000 202.040
42.60000 198.480
42.64000 207.286
42.68000 217.701
42.72000 214.555
42.76000 208.483
42.80000 202.532
42.84000 202.698
42.88000 210.480
42.92000 218.497
42.96000 216.952
43.00000 202.132
43.04000 210.081
43.08000 193.023
43.12000 207.218
43.16000 213.433
43.20000 201.836
43.24000 210.264
43.28000 206.647
43.32000 199.834
43.36000 206.282
43.40000 202.277
43.44000 205.662
43.48000 196.585
43.52000 209.979
43.56000 202.022
43.60000 196.631
43.64000 201.507
43.68000 203.723
43.72000 185.672
43.76000 198.023
43.80000 195.301
43.84000 191.740
43.88000 195.166
43.92000 198.026
43.96000 191.836
44.00000 214.646
44.04000 194.940
44.08000 204.259
44.12000 198.043
44.16000 188.916
44.20000 201.540
44.24000 203.211
44.28000 203.259
44.32000 210.711
44.36000 193.674
44.40000 221.748
44.44000 205.499
44.48000 202.661
44.52000 219.133
44.56000 208.648
44.60000 215.103
44.64000 214.604
44.68000 234.605
44.72000 233.751
44.76000 248.918
44.80000 256.060
44.84000 275.750
44.88000 281.064
44.92000 313.665
44.96000 346.011
45.00000 346.513
45.04000 374.739
45.08000 385.995
45.12000 382.728
45.16000 367.852
45.20000 368.053
45.24000 328.229
45.28000 332.147
45.32000 320.955
45.36000 304.977
45.40000 277.064
45.44000 249.781
45.48000 256.632
45.52000 248.975
45.56000 266.422
45.60000 228.447
45.64000 225.377
45.68000 224.509
45.72000 226.965
45.76000 207.029
45.80000 206.109
45.84000 206.776
45.88000 184.995
45.92000 200.482
45.96000 199.793
46.00000 182.392
46.04000 185.634
46.08000 185.428
46.12000 197.616
46.16000 185.919
46.20000 184.763
46.24000 185.379
46.28000 176.530
46.32000 183.004
46.36000 185.034
46.40000 175.439
46.44000 174.603
46.48000 177.239
46.52000 177.090
46.56000 178.672
46.60000 179.932
46.64000 183.606
46.68000 166.356
46.72000 178.366
46.76000 180.738
46.80000 181.932
46.84000 169.798
46.88000 173.453
46.92000 183.346
46.96000 178.851
47.00000 172.770
47.04000 165.948
47.08000 185.192
47.12000 175.762
47.16000 169.529
47.20000 159.305
47.24000 167.905
47.28000 166.819
47.32000 161.043
47.36000 167.131
47.40000 168.635
47.44000 160.735
47.48000 161.572
47.52000 171.611
47.56000 171.860
47.60000 168.491
47.64000 168.131
47.68000 159.599
47.72000 167.081
47.76000 163.909
47.80000 161.699
47.84000 170.995
47.88000 160.265
47.92000 173.727
47.96000 166.729
48.00000 164.370
48.04000 159.392
48.08000 165.913
48.12000 161.661
48.16000 153.030
48.20000 160.152
48.24000 166.606
48.28000 173.910
48.32000 176.104
48.36000 170.425
48.40000 155.306
48.44000 169.638
48.48000 153.736
48.52000 165.430
48.56000 161.567
48.60000 166.786
48.64000 160.575
48.68000 157.906
48.72000 146.073
48.76000 152.039
48.80000 157.821
48.84000 151.896
48.88000 159.740
48.92000 154.988
48.96000 154.947
49.00000 169.711
49.04000 152.186
49.08000 158.281
49.12000 151.962
49.16000 161.113
49.20000 148.122
49.24000 150.220
49.28000 148.882
49.32000 166.076
49.36000 149.001
49.40000 161.273
49.44000 151.108
49.48000 153.455
49.52000 162.730
49.56000 155.444
49.60000 161.937
49.64000 158.007
49.68000 150.970
49.72000 154.847
49.76000 157.424
49.80000 159.757
49.84000 163.778
49.88000 157.083
49.92000 160.322
49.96000 160.997
50.00000 152.476
50.04000 159.862
50.08000 156.415
50.12000 160.300
50.16000 146.016
50.20000 162.068
50.24000 163.577
50.28000 176.384
50.32000 159.407
50.36000 180.065
50.40000 166.829
50.44000 184.786
50.48000 181.308
50.52000 194.026
50.56000 201.302
50.60000 222.505
50.64000 230.859
50.68000 235.750
50.72000 240.296
50.76000 232.649
50.80000 228.173
50.84000 216.008
50.88000 220.323
50.92000 209.484
50.96000 194.245
51.00000 186.437
51.04000 186.310
51.08000 175.041
51.12000 168.203
51.16000 155.140
51.20000 160.731
51.24000 161.916
51.28000 151.986
51.32000 153.987
51.36000 161.342
51.40000 149.381
51.44000 157.935
51.48000 145.545
51.52000 146.708
51.56000 155.021
51.60000 130.035
51.64000 147.469
51.68000 151.836
51.72000 155.792
51.76000 145.581
51.80000 142.941
51.84000 140.864
51.88000 143.302
51.92000 154.892
51.96000 147.872
52.00000 147.645
52.04000 145.375
52.08000 141.737
52.12000 153.347
52.16000 146.816
52.20000 144.015
52.24000 135.944
52.28000 141.644
52.32000 136.877
52.36000 135.721
52.40000 147.066
52.44000 148.102
52.48000 144.670
52.52000 144.737
52.56000 136.006
52.60000 134.921
52.64000 146.156
52.68000 148.146
52.72000 146.767
52.76000 140.846
52.80000 143.354
52.84000 136.961
52.88000 135.260
52.92000 134.084
52.96000 143.085
53.00000 137.372
53.04000 139.263
53.08000 138.231
53.12000 137.215
53.16000 152.389
53.20000 140.017
53.24000 147.197
53.28000 160.610
53.32000 151.061
53.36000 156.211
53.40000 155.627
53.44000 148.263
53.48000 152.041
53.52000 147.298
53.56000 151.286
53.60000 153.423
53.64000 142.552
53.68000 140.963
53.72000 144.336
53.76000 154.995
53.80000 148.140
53.84000 144.896
53.88000 143.832
53.92000 145.609
53.96000 136.508
54.00000 140.237
54.04000 152.459
54.08000 142.352
54.12000 143.104
54.16000 139.965
54.20000 143.961
54.24000 147.544
54.28000 144.153
54.32000 149.046
54.36000 142.313
54.40000 145.808
54.44000 135.008
54.48000 130.783
54.52000 139.488
54.56000 138.151
54.60000 141.443
54.64000 139.399
54.68000 138.190
54.72000 140.491
54.76000 137.412
54.80000 140.710
54.84000 151.395
54.88000 146.017
54.92000 147.004
54.96000 147.712
55.00000 154.688
55.04000 147.144
55.08000 154.194
55.12000 149.128
55.16000 154.006
55.20000 148.673
55.24000 155.619
55.28000 162.626
55.32000 160.880
55.36000 167.847
55.40000 160.422
55.44000 170.976
55.48000 180.475
55.52000 187.029
55.56000 198.309
55.60000 231.887
55.64000 251.782
55.68000 281.386
55.72000 317.190
55.76000 375.742
55.80000 437.124
55.84000 497.522
55.88000 538.140
55.92000 566.607
55.96000 591.169
56.00000 578.480
56.04000 537.868
56.08000 494.827
56.12000 431.834
56.16000 410.726
56.20000 359.754
56.24000 303.538
56.28000 286.555
56.32000 243.425
56.36000 222.340
56.40000 209.397
56.44000 191.188
56.48000 177.909
56.52000 181.057
56.56000 171.593
56.60000 157.803
56.64000 152.602
56.68000 162.477
56.72000 147.438
56.76000 151.240
56.80000 139.750
56.84000 144.644
56.88000 133.153
56.92000 142.590
56.96000 132.314
57.00000 134.516
57.04000 133.104
57.08000 130.435
57.12000 133.033
57.16000 128.676
57.20000 134.081
57.24000 128.929
57.28000 131.076
57.32000 126.410
57.36000 130.621
57.40000 122.978
57.44000 125.051
57.48000 131.534
57.52000 125.992
57.56000 133.249
57.60000 117.782
57.64000 122.931
57.68000 132.581
57.72000 130.582
57.76000 124.396
57.80000 130.062
57.84000 127.988
57.88000 125.376
57.92000 127.505
57.96000 127.751
58.00000 125.600
58.04000 130.914
58.08000 128.208
58.12000 127.229
58.16000 132.148
58.20000 125.932
58.24000 129.741
58.28000 128.811
58.32000 121.363
58.36000 142.251
58.40000 121.582
58.44000 122.895
58.48000 123.181
58.52000 118.807
58.56000 128.408
58.60000 131.075
58.64000 124.806
58.68000 120.269
58.72000 125.483
58.76000 122.425
58.80000 121.351
58.84000 129.238
58.88000 126.284
58.92000 127.561
58.96000 119.023
59.00000 116.813
59.04000 124.807
59.08000 121.854
59.12000 131.073
59.16000 128.363
59.20000 125.143
59.24000 125.974
59.28000 123.784
59.32000 114.097
59.36000 116.650
59.40000 118.969
59.44000 118.692
59.48000 121.056
59.52000 118.749
59.56000 120.394
59.60000 131.185
59.64000 117.605
59.68000 119.089
59.72000 125.444
59.76000 124.824
59.80000 114.158
59.84000 113.680
59.88000 115.359
59.92000 115.938
59.96000 114.932
60.00000 120.439
60.04000 116.102
60.08000 117.677
60.12000 132.621
60.16000 113.380
60.20000 115.165
60.24000 114.135
60.28000 118.678
60.32000 122.707
60.36000 113.487
60.40000 125.979
60.44000 130.527
60.48000 122.955
60.52000 118.383
60.56000 121.805
60.60000 129.108
60.64000 117.479
60.68000 122.133
60.72000 110.918
60.76000 120.433
60.80000 123.380
60.84000 118.651
60.88000 122.296
60.92000 120.310
60.96000 111.471
61.00000 126.582
61.04000 127.348
61.08000 130.254
61.12000 128.225
61.16000 129.323
61.20000 127.362
61.24000 118.409
61.28000 125.000
61.32000 124.189
61.36000 125.976
61.40000 133.728
61.44000 125.252
61.48000 159.163
61.52000 203.390
61.56000 280.484
61.60000 349.990
61.64000 392.413
61.68000 400.023
61.72000 407.306
61.76000 380.055
61.80000 305.391
61.84000 202.706
61.88000 159.402
61.92000 146.838
61.96000 141.938
62.00000 127.342
62.04000 134.664
62.08000 139.319
62.12000 130.913
62.16000 132.764
62.20000 141.585
62.24000 136.268
62.28000 127.097
62.32000 131.618
62.36000 127.960
62.40000 140.764
62.44000 131.895
62.48000 140.066
62.52000 134.818
62.56000 151.479
62.60000 141.399
62.64000 130.312
62.68000 138.130
62.72000 146.204
62.76000 146.428
62.80000 143.956
62.84000 128.366
62.88000 137.068
62.92000 137.960
62.96000 132.021
63.00000 136.082
63.04000 137.930
63.08000 141.082
63.12000 138.443
63.16000 133.009
63.20000 134.098
63.24000 133.625
63.28000 142.651
63.32000 142.540
63.36000 145.959
63.40000 137.138
63.44000 142.516
63.48000 140.658
63.52000 140.893
63.56000 149.364
63.60000 140.716
63.64000 153.313
63.68000 155.942
63.72000 161.138
63.76000 140.013
63.80000 147.263
63.84000 149.033
63.88000 150.096
63.92000 160.287
63.96000 150.174
64.00000 153.565
64.04000 156.952
64.08000 153.525
64.12000 150.075
64.16000 146.392
64.20000 157.360
64.24000 168.037
64.28000 161.825
64.32000 159.123
64.36000 156.350
64.40000 175.816
64.44000 168.154
64.48000 160.689
64.52000 179.379
64.56000 182.253
64.60000 177.624
64.64000 187.104
64.68000 185.745
64.72000 182.717
64.76000 187.147
64.80000 196.258
64.84000 200.044
64.88000 198.296
64.92000 196.882
64.96000 199.612
65.00000 198.722
65.04000 213.082
65.08000 229.403
65.12000 240.466
65.16000 255.954
65.20000 262.718
65.24000 265.214
65.28000 285.118
65.32000 324.595
65.36000 348.313
65.40000 364.076
65.44000 403.823
65.48000 448.827
65.52000 469.714
65.56000 517.793
65.60000 566.534
65.64000 703.212
65.68000 1029.155
65.72000 1569.765
65.76000 2332.755
65.80000 2855.008
65.84000 3141.311
65.88000 3086.286
65.92000 2938.132
65.96000 2261.132
66.00000 1465.191
66.04000 931.439
66.08000 638.592
66.12000 527.574
66.16000 508.979
66.20000 483.345
66.24000 548.237
66.28000 648.301
66.32000 778.652
66.36000 861.857
66.40000 916.310
66.44000 908.099
66.48000 857.861
66.52000 738.981
66.56000 609.184
66.60000 500.239
66.64000 473.161
66.68000 452.484
66.72000 445.584
66.76000 482.199
66.80000 446.182
66.84000 442.337
66.88000 460.582
66.92000 459.653
66.96000 449.797
67.00000 462.962
67.04000 461.126
67.08000 474.147
67.12000 479.204
67.16000 503.700
67.20000 501.517
67.24000 485.498
67.28000 491.807
67.32000 482.728
67.36000 494.470
67.40000 520.933
67.44000 533.551
67.48000 524.856
67.52000 550.462
67.56000 541.035
67.60000 543.627
67.64000 553.266
67.68000 547.716
67.72000 546.927
67.76000 562.894
67.80000 580.776
67.84000 603.656
67.88000 591.433
67.92000 600.780
67.96000 628.483
68.00000 619.837
68.04000 640.449
68.08000 640.236
68.12000 677.754
68.16000 685.637
68.20000 675.927
68.24000 709.179
68.28000 740.522
68.32000 747.035
68.36000 767.763
68.40000 796.400
68.44000 834.800
68.48000 874.612
68.52000 939.978
68.56000 1039.591
68.60000 1150.107
68.64000 1399.524
68.68000 1646.812
68.72000 1931.550
68.76000 2193.489
68.80000 2584.717
68.84000 3107.583
68.88000 4212.278
68.92000 7628.514
68.96000 18288.432
69.00000 39456.895
69.04000 59754.195
69.08000 70232.828
69.12000 74646.055
69.16000 78898.922
69.20000 75710.469
69.24000 59786.203
69.28000 45549.082
69.32000 37613.617
69.36000 34624.289
69.40000 27848.771
69.44000 16138.223
69.48000 7143.446
69.52000 3275.921
69.56000 1976.362
69.60000 1485.079
69.64000 1238.750
69.68000 1048.744
69.72000 931.546
69.76000 850.179
69.80000 801.853
69.84000 724.025
69.88000 687.993
69.92000 647.387
69.96000 604.391
70.00000 622.297