File: XRD/XRD/09-10-2025 Dep 8/XY Data/BTO_Mapping_Theta2Theta_09-10-2025_001_16_9-271_28-532.xy
20.00000 483.959
20.04000 498.741
20.08000 471.272
20.12000 484.819
20.16000 483.494
20.20000 483.273
20.24000 484.895
20.28000 478.229
20.32000 450.063
20.36000 464.656
20.40000 466.323
20.44000 472.187
20.48000 465.459
20.52000 472.867
20.56000 487.614
20.60000 488.115
20.64000 475.761
20.68000 484.276
20.72000 486.143
20.76000 482.683
20.80000 482.386
20.84000 492.566
20.88000 473.246
20.92000 465.814
20.96000 474.319
21.00000 467.765
21.04000 468.254
21.08000 472.933
21.12000 492.825
21.16000 460.743
21.20000 468.989
21.24000 484.942
21.28000 472.618
21.32000 465.192
21.36000 467.794
21.40000 472.137
21.44000 457.754
21.48000 481.000
21.52000 478.438
21.56000 492.045
21.60000 478.513
21.64000 484.377
21.68000 463.953
21.72000 483.311
21.76000 504.076
21.80000 486.435
21.84000 513.071
21.88000 521.980
21.92000 529.559
21.96000 520.340
22.00000 563.854
22.04000 583.692
22.08000 581.267
22.12000 591.685
22.16000 589.594
22.20000 597.650
22.24000 560.368
22.28000 584.697
22.32000 575.454
22.36000 551.874
22.40000 528.826
22.44000 515.890
22.48000 521.824
22.52000 486.786
22.56000 472.312
22.60000 445.739
22.64000 472.294
22.68000 484.528
22.72000 462.985
22.76000 451.944
22.80000 458.954
22.84000 462.031
22.88000 435.196
22.92000 432.743
22.96000 436.604
23.00000 432.907
23.04000 447.382
23.08000 444.306
23.12000 438.013
23.16000 457.304
23.20000 434.995
23.24000 435.230
23.28000 441.787
23.32000 450.376
23.36000 417.414
23.40000 437.184
23.44000 415.541
23.48000 426.901
23.52000 416.234
23.56000 441.147
23.60000 431.618
23.64000 457.152
23.68000 425.121
23.72000 427.607
23.76000 430.410
23.80000 433.380
23.84000 426.556
23.88000 446.979
23.92000 441.296
23.96000 452.100
24.00000 433.475
24.04000 419.487
24.08000 445.952
24.12000 447.562
24.16000 420.271
24.20000 438.552
24.24000 425.456
24.28000 425.019
24.32000 439.968
24.36000 441.938
24.40000 431.056
24.44000 418.186
24.48000 427.486
24.52000 398.202
24.56000 409.463
24.60000 405.505
24.64000 417.857
24.68000 400.761
24.72000 415.923
24.76000 413.090
24.80000 399.224
24.84000 407.400
24.88000 418.435
24.92000 397.855
24.96000 417.869
25.00000 398.687
25.04000 406.118
25.08000 393.557
25.12000 406.233
25.16000 399.979
25.20000 409.679
25.24000 407.242
25.28000 416.809
25.32000 415.314
25.36000 411.969
25.40000 407.130
25.44000 384.542
25.48000 400.830
25.52000 406.393
25.56000 399.907
25.60000 396.856
25.64000 400.029
25.68000 392.610
25.72000 405.916
25.76000 390.680
25.80000 388.482
25.84000 396.781
25.88000 397.957
25.92000 406.684
25.96000 395.158
26.00000 398.609
26.04000 392.968
26.08000 399.543
26.12000 390.874
26.16000 390.746
26.20000 390.981
26.24000 400.260
26.28000 392.638
26.32000 386.090
26.36000 389.598
26.40000 394.168
26.44000 386.708
26.48000 395.381
26.52000 396.952
26.56000 394.590
26.60000 384.535
26.64000 378.335
26.68000 391.945
26.72000 385.749
26.76000 379.105
26.80000 389.088
26.84000 372.306
26.88000 382.580
26.92000 392.290
26.96000 385.019
27.00000 397.553
27.04000 370.620
27.08000 394.196
27.12000 384.009
27.16000 385.976
27.20000 379.318
27.24000 388.653
27.28000 367.354
27.32000 371.366
27.36000 373.935
27.40000 380.764
27.44000 386.475
27.48000 371.719
27.52000 363.423
27.56000 386.192
27.60000 389.570
27.64000 382.667
27.68000 382.572
27.72000 376.159
27.76000 365.411
27.80000 369.199
27.84000 367.552
27.88000 383.341
27.92000 385.697
27.96000 373.389
28.00000 384.537
28.04000 370.852
28.08000 380.102
28.12000 373.784
28.16000 366.607
28.20000 370.460
28.24000 378.434
28.28000 363.767
28.32000 387.553
28.36000 370.140
28.40000 365.055
28.44000 363.716
28.48000 377.132
28.52000 381.667
28.56000 363.485
28.60000 358.551
28.64000 352.268
28.68000 367.280
28.72000 370.877
28.76000 355.962
28.80000 356.552
28.84000 360.797
28.88000 353.633
28.92000 361.072
28.96000 358.740
29.00000 357.689
29.04000 347.024
29.08000 368.596
29.12000 340.611
29.16000 344.084
29.20000 370.873
29.24000 365.269
29.28000 373.458
29.32000 347.437
29.36000 357.546
29.40000 362.607
29.44000 350.022
29.48000 355.570
29.52000 353.083
29.56000 378.719
29.60000 356.803
29.64000 356.897
29.68000 352.117
29.72000 360.842
29.76000 372.808
29.80000 374.442
29.84000 375.053
29.88000 372.739
29.92000 402.471
29.96000 394.728
30.00000 408.797
30.04000 416.071
30.08000 439.355
30.12000 442.847
30.16000 423.922
30.20000 407.047
30.24000 421.887
30.28000 394.016
30.32000 395.511
30.36000 393.500
30.40000 384.420
30.44000 389.289
30.48000 398.977
30.52000 386.102
30.56000 375.176
30.60000 379.052
30.64000 384.778
30.68000 396.354
30.72000 382.417
30.76000 400.744
30.80000 396.350
30.84000 416.319
30.88000 431.724
30.92000 434.344
30.96000 434.498
31.00000 470.512
31.04000 499.413
31.08000 537.750
31.12000 597.700
31.16000 709.215
31.20000 879.176
31.24000 1111.904
31.28000 1462.879
31.32000 1801.851
31.36000 2110.997
31.40000 2360.027
31.44000 2440.805
31.48000 2331.563
31.52000 2145.526
31.56000 1831.921
31.60000 1523.817
31.64000 1226.261
31.68000 970.368
31.72000 794.648
31.76000 671.995
31.80000 603.017
31.84000 509.083
31.88000 489.534
31.92000 443.044
31.96000 412.887
32.00000 397.091
32.04000 364.756
32.08000 383.339
32.12000 358.267
32.16000 351.022
32.20000 349.996
32.24000 353.618
32.28000 342.854
32.32000 339.836
32.36000 316.862
32.40000 355.724
32.44000 338.817
32.48000 349.404
32.52000 335.463
32.56000 331.318
32.60000 337.024
32.64000 323.109
32.68000 353.906
32.72000 323.880
32.76000 323.869
32.80000 329.001
32.84000 323.953
32.88000 307.335
32.92000 303.855
32.96000 309.458
33.00000 302.852
33.04000 308.612
33.08000 320.318
33.12000 315.570
33.16000 313.239
33.20000 307.272
33.24000 305.079
33.28000 305.512
33.32000 289.908
33.36000 291.571
33.40000 291.829
33.44000 304.351
33.48000 292.463
33.52000 299.670
33.56000 305.576
33.60000 289.179
33.64000 293.544
33.68000 287.304
33.72000 299.254
33.76000 307.966
33.80000 306.212
33.84000 304.393
33.88000 284.855
33.92000 298.352
33.96000 286.983
34.00000 299.956
34.04000 296.069
34.08000 293.351
34.12000 282.279
34.16000 282.513
34.20000 285.682
34.24000 302.533
34.28000 296.109
34.32000 280.264
34.36000 280.518
34.40000 283.488
34.44000 313.919
34.48000 277.088
34.52000 277.489
34.56000 306.647
34.60000 285.403
34.64000 279.495
34.68000 278.051
34.72000 279.256
34.76000 299.465
34.80000 272.985
34.84000 295.140
34.88000 291.200
34.92000 283.867
34.96000 282.905
35.00000 277.744
35.04000 292.660
35.08000 287.016
35.12000 272.375
35.16000 266.442
35.20000 279.901
35.24000 288.847
35.28000 269.014
35.32000 272.691
35.36000 262.989
35.40000 287.591
35.44000 262.291
35.48000 258.858
35.52000 270.781
35.56000 282.265
35.60000 268.845
35.64000 265.633
35.68000 259.685
35.72000 258.278
35.76000 269.177
35.80000 284.082
35.84000 264.800
35.88000 260.098
35.92000 254.652
35.96000 255.653
36.00000 280.596
36.04000 251.919
36.08000 254.296
36.12000 256.253
36.16000 247.881
36.20000 263.265
36.24000 269.940
36.28000 275.726
36.32000 263.211
36.36000 256.361
36.40000 258.708
36.44000 254.743
36.48000 258.419
36.52000 257.633
36.56000 267.983
36.60000 273.018
36.64000 241.682
36.68000 266.092
36.72000 266.571
36.76000 256.791
36.80000 265.106
36.84000 254.408
36.88000 274.926
36.92000 269.903
36.96000 269.792
37.00000 274.710
37.04000 291.562
37.08000 277.155
37.12000 276.897
37.16000 286.667
37.20000 266.233
37.24000 276.602
37.28000 276.336
37.32000 266.299
37.36000 266.090
37.40000 262.774
37.44000 264.416
37.48000 251.489
37.52000 267.631
37.56000 263.231
37.60000 266.589
37.64000 268.302
37.68000 270.930
37.72000 257.855
37.76000 255.944
37.80000 260.912
37.84000 255.186
37.88000 255.573
37.92000 246.503
37.96000 264.963
38.00000 249.011
38.04000 257.662
38.08000 234.750
38.12000 268.077
38.16000 255.967
38.20000 271.511
38.24000 271.311
38.28000 270.518
38.32000 279.271
38.36000 276.439
38.40000 291.181
38.44000 310.792
38.48000 350.190
38.52000 400.478
38.56000 494.154
38.60000 591.210
38.64000 744.447
38.68000 887.698
38.72000 1004.894
38.76000 1077.016
38.80000 1089.417
38.84000 996.426
38.88000 883.860
38.92000 716.999
38.96000 582.623
39.00000 503.573
39.04000 388.411
39.08000 343.238
39.12000 312.313
39.16000 276.734
39.20000 273.697
39.24000 277.382
39.28000 260.191
39.32000 245.024
39.36000 237.356
39.40000 246.277
39.44000 227.938
39.48000 240.284
39.52000 238.168
39.56000 242.655
39.60000 237.955
39.64000 236.821
39.68000 236.944
39.72000 231.192
39.76000 233.779
39.80000 222.589
39.84000 225.051
39.88000 228.568
39.92000 226.384
39.96000 233.988
40.00000 231.167
40.04000 227.828
40.08000 223.853
40.12000 227.964
40.16000 204.230
40.20000 222.074
40.24000 221.656
40.28000 203.846
40.32000 222.127
40.36000 226.657
40.40000 216.802
40.44000 206.089
40.48000 230.046
40.52000 219.471
40.56000 223.415
40.60000 218.510
40.64000 222.021
40.68000 224.626
40.72000 215.739
40.76000 223.079
40.80000 213.635
40.84000 214.459
40.88000 212.800
40.92000 222.997
40.96000 214.672
41.00000 224.728
41.04000 213.816
41.08000 216.954
41.12000 227.692
41.16000 230.786
41.20000 211.903
41.24000 215.993
41.28000 221.292
41.32000 217.968
41.36000 220.400
41.40000 211.903
41.44000 212.106
41.48000 218.224
41.52000 197.244
41.56000 214.950
41.60000 218.148
41.64000 209.044
41.68000 207.917
41.72000 210.762
41.76000 205.496
41.80000 213.072
41.84000 214.348
41.88000 211.116
41.92000 210.818
41.96000 216.653
42.00000 202.371
42.04000 202.353
42.08000 202.705
42.12000 204.169
42.16000 208.070
42.20000 207.623
42.24000 200.725
42.28000 200.499
42.32000 192.717
42.36000 210.256
42.40000 203.423
42.44000 240.102
42.48000 209.622
42.52000 210.094
42.56000 195.630
42.60000 200.406
42.64000 201.555
42.68000 196.345
42.72000 198.485
42.76000 192.442
42.80000 200.801
42.84000 199.609
42.88000 197.784
42.92000 203.812
42.96000 200.784
43.00000 197.901
43.04000 194.484
43.08000 193.853
43.12000 205.886
43.16000 195.966
43.20000 191.923
43.24000 203.704
43.28000 181.890
43.32000 187.677
43.36000 190.573
43.40000 183.413
43.44000 200.349
43.48000 201.965
43.52000 200.722
43.56000 188.562
43.60000 194.333
43.64000 191.809
43.68000 198.707
43.72000 194.635
43.76000 198.840
43.80000 188.277
43.84000 196.539
43.88000 189.018
43.92000 178.711
43.96000 186.049
44.00000 185.786
44.04000 191.140
44.08000 192.530
44.12000 189.412
44.16000 193.633
44.20000 192.359
44.24000 203.621
44.28000 199.623
44.32000 194.958
44.36000 187.098
44.40000 202.683
44.44000 192.743
44.48000 198.969
44.52000 198.019
44.56000 206.784
44.60000 207.888
44.64000 199.045
44.68000 200.607
44.72000 203.010
44.76000 213.365
44.80000 222.413
44.84000 214.349
44.88000 228.618
44.92000 226.892
44.96000 226.669
45.00000 238.906
45.04000 242.647
45.08000 263.043
45.12000 271.350
45.16000 286.222
45.20000 284.321
45.24000 274.886
45.28000 272.379
45.32000 278.583
45.36000 282.254
45.40000 260.961
45.44000 246.208
45.48000 255.967
45.52000 234.778
45.56000 251.557
45.60000 236.297
45.64000 238.150
45.68000 244.052
45.72000 223.277
45.76000 226.282
45.80000 220.206
45.84000 206.140
45.88000 201.646
45.92000 210.539
45.96000 198.360
46.00000 216.830
46.04000 209.318
46.08000 203.389
46.12000 182.948
46.16000 189.587
46.20000 195.103
46.24000 189.146
46.28000 178.733
46.32000 186.482
46.36000 184.672
46.40000 182.228
46.44000 177.236
46.48000 183.468
46.52000 172.606
46.56000 177.708
46.60000 169.134
46.64000 181.472
46.68000 175.777
46.72000 172.141
46.76000 176.563
46.80000 178.960
46.84000 168.519
46.88000 166.817
46.92000 166.701
46.96000 173.044
47.00000 162.082
47.04000 163.552
47.08000 169.832
47.12000 164.967
47.16000 161.598
47.20000 169.138
47.24000 173.928
47.28000 167.997
47.32000 167.661
47.36000 159.851
47.40000 164.143
47.44000 153.908
47.48000 167.423
47.52000 165.996
47.56000 164.595
47.60000 166.071
47.64000 160.990
47.68000 170.747
47.72000 164.936
47.76000 160.568
47.80000 156.221
47.84000 154.163
47.88000 169.325
47.92000 157.396
47.96000 156.931
48.00000 161.686
48.04000 155.969
48.08000 154.858
48.12000 156.470
48.16000 156.754
48.20000 165.050
48.24000 158.698
48.28000 166.128
48.32000 163.363
48.36000 160.889
48.40000 159.164
48.44000 161.219
48.48000 163.646
48.52000 163.971
48.56000 162.813
48.60000 159.893
48.64000 159.292
48.68000 162.574
48.72000 150.934
48.76000 155.991
48.80000 154.931
48.84000 164.241
48.88000 163.272
48.92000 155.142
48.96000 160.654
49.00000 162.203
49.04000 160.123
49.08000 167.802
49.12000 156.973
49.16000 164.428
49.20000 163.044
49.24000 153.950
49.28000 164.788
49.32000 154.422
49.36000 154.342
49.40000 161.067
49.44000 151.979
49.48000 147.956
49.52000 149.501
49.56000 155.042
49.60000 154.851
49.64000 140.236
49.68000 144.058
49.72000 154.220
49.76000 169.663
49.80000 162.759
49.84000 147.766
49.88000 147.894
49.92000 152.754
49.96000 156.857
50.00000 156.742
50.04000 160.430
50.08000 147.793
50.12000 161.692
50.16000 160.272
50.20000 162.376
50.24000 164.324
50.28000 159.727
50.32000 159.367
50.36000 165.210
50.40000 157.616
50.44000 167.657
50.48000 172.934
50.52000 169.901
50.56000 180.998
50.60000 185.574
50.64000 194.031
50.68000 203.591
50.72000 224.762
50.76000 218.401
50.80000 226.302
50.84000 230.015
50.88000 214.491
50.92000 209.786
50.96000 201.766
51.00000 203.198
51.04000 181.396
51.08000 166.186
51.12000 172.278
51.16000 174.328
51.20000 169.716
51.24000 160.090
51.28000 159.535
51.32000 152.511
51.36000 147.050
51.40000 152.586
51.44000 156.560
51.48000 160.207
51.52000 145.558
51.56000 151.249
51.60000 134.278
51.64000 147.630
51.68000 143.286
51.72000 139.936
51.76000 148.958
51.80000 134.451
51.84000 143.054
51.88000 131.681
51.92000 152.560
51.96000 147.980
52.00000 144.355
52.04000 137.724
52.08000 136.571
52.12000 140.130
52.16000 141.298
52.20000 145.037
52.24000 142.574
52.28000 141.361
52.32000 134.480
52.36000 139.742
52.40000 144.376
52.44000 138.474
52.48000 139.783
52.52000 126.054
52.56000 134.565
52.60000 137.777
52.64000 151.155
52.68000 142.448
52.72000 144.442
52.76000 144.539
52.80000 138.207
52.84000 126.559
52.88000 138.430
52.92000 139.265
52.96000 142.577
53.00000 152.470
53.04000 126.780
53.08000 139.647
53.12000 143.481
53.16000 147.710
53.20000 141.536
53.24000 135.595
53.28000 148.309
53.32000 149.293
53.36000 146.189
53.40000 149.215
53.44000 147.518
53.48000 147.665
53.52000 140.945
53.56000 162.110
53.60000 144.126
53.64000 143.446
53.68000 137.436
53.72000 136.612
53.76000 149.182
53.80000 148.168
53.84000 139.860
53.88000 146.344
53.92000 143.274
53.96000 135.521
54.00000 143.648
54.04000 138.719
54.08000 136.768
54.12000 145.863
54.16000 137.969
54.20000 137.092
54.24000 136.631
54.28000 136.732
54.32000 135.205
54.36000 144.194
54.40000 139.519
54.44000 143.654
54.48000 128.592
54.52000 129.217
54.56000 140.405
54.60000 125.396
54.64000 138.237
54.68000 131.055
54.72000 135.595
54.76000 132.457
54.80000 142.213
54.84000 134.454
54.88000 139.216
54.92000 143.693
54.96000 147.101
55.00000 148.887
55.04000 139.470
55.08000 138.770
55.12000 152.540
55.16000 135.945
55.20000 138.389
55.24000 143.141
55.28000 144.826
55.32000 139.373
55.36000 161.873
55.40000 159.090
55.44000 151.120
55.48000 167.371
55.52000 164.287
55.56000 167.161
55.60000 169.247
55.64000 192.902
55.68000 211.217
55.72000 217.919
55.76000 256.956
55.80000 285.786
55.84000 347.201
55.88000 409.416
55.92000 436.060
55.96000 504.446
56.00000 539.583
56.04000 546.198
56.08000 556.621
56.12000 509.430
56.16000 484.379
56.20000 458.677
56.24000 398.445
56.28000 357.456
56.32000 298.184
56.36000 268.049
56.40000 245.858
56.44000 211.767
56.48000 192.622
56.52000 188.017
56.56000 177.081
56.60000 164.058
56.64000 165.274
56.68000 158.232
56.72000 137.753
56.76000 140.061
56.80000 154.141
56.84000 137.791
56.88000 148.067
56.92000 148.785
56.96000 140.676
57.00000 141.493
57.04000 135.847
57.08000 144.698
57.12000 132.520
57.16000 118.805
57.20000 133.064
57.24000 133.859
57.28000 125.115
57.32000 121.830
57.36000 126.162
57.40000 128.842
57.44000 145.277
57.48000 124.010
57.52000 117.279
57.56000 118.641
57.60000 130.581
57.64000 130.138
57.68000 125.798
57.72000 120.269
57.76000 125.897
57.80000 117.541
57.84000 116.471
57.88000 122.220
57.92000 127.732
57.96000 118.688
58.00000 123.141
58.04000 126.898
58.08000 124.160
58.12000 122.817
58.16000 122.959
58.20000 120.699
58.24000 125.457
58.28000 127.442
58.32000 128.673
58.36000 127.481
58.40000 117.177
58.44000 125.992
58.48000 135.832
58.52000 126.977
58.56000 127.674
58.60000 124.136
58.64000 119.694
58.68000 127.417
58.72000 120.028
58.76000 117.687
58.80000 124.677
58.84000 120.378
58.88000 114.764
58.92000 113.344
58.96000 110.852
59.00000 120.314
59.04000 120.296
59.08000 109.840
59.12000 125.189
59.16000 122.379
59.20000 118.183
59.24000 121.609
59.28000 105.813
59.32000 115.798
59.36000 125.161
59.40000 103.026
59.44000 119.921
59.48000 118.439
59.52000 116.188
59.56000 122.405
59.60000 119.602
59.64000 123.425
59.68000 121.554
59.72000 125.566
59.76000 121.358
59.80000 117.363
59.84000 116.810
59.88000 119.262
59.92000 134.262
59.96000 120.724
60.00000 114.520
60.04000 111.904
60.08000 118.663
60.12000 114.941
60.16000 121.210
60.20000 112.301
60.24000 117.316
60.28000 119.103
60.32000 132.967
60.36000 118.118
60.40000 119.491
60.44000 120.557
60.48000 122.689
60.52000 120.884
60.56000 107.652
60.60000 122.413
60.64000 118.602
60.68000 115.527
60.72000 119.180
60.76000 111.605
60.80000 124.018
60.84000 117.902
60.88000 115.418
60.92000 118.179
60.96000 112.312
61.00000 108.405
61.04000 123.536
61.08000 115.944
61.12000 127.554
61.16000 125.657
61.20000 119.877
61.24000 122.041
61.28000 117.369
61.32000 131.134
61.36000 142.461
61.40000 126.033
61.44000 124.802
61.48000 133.252
61.52000 166.118
61.56000 229.526
61.60000 266.663
61.64000 324.016
61.68000 335.793
61.72000 337.758
61.76000 301.898
61.80000 235.188
61.84000 173.359
61.88000 153.800
61.92000 142.288
61.96000 141.719
62.00000 129.351
62.04000 131.852
62.08000 127.930
62.12000 130.102
62.16000 137.157
62.20000 126.125
62.24000 125.661
62.28000 124.830
62.32000 140.761
62.36000 127.787
62.40000 128.345
62.44000 128.830
62.48000 132.002
62.52000 126.929
62.56000 131.091
62.60000 137.739
62.64000 134.565
62.68000 120.334
62.72000 135.457
62.76000 134.791
62.80000 133.329
62.84000 129.555
62.88000 131.360
62.92000 140.835
62.96000 120.078
63.00000 132.747
63.04000 133.194
63.08000 127.897
63.12000 141.132
63.16000 130.983
63.20000 137.400
63.24000 149.648
63.28000 143.829
63.32000 137.342
63.36000 135.218
63.40000 137.404
63.44000 144.668
63.48000 134.727
63.52000 140.370
63.56000 144.288
63.60000 133.146
63.64000 141.776
63.68000 142.178
63.72000 151.642
63.76000 142.484
63.80000 152.636
63.84000 140.645
63.88000 147.467
63.92000 149.935
63.96000 150.380
64.00000 155.688
64.04000 146.819
64.08000 145.091
64.12000 153.263
64.16000 159.355
64.20000 160.695
64.24000 151.099
64.28000 158.950
64.32000 159.646
64.36000 155.077
64.40000 163.916
64.44000 164.361
64.48000 165.816
64.52000 165.459
64.56000 163.387
64.60000 177.963
64.64000 167.450
64.68000 176.055
64.72000 165.974
64.76000 190.470
64.80000 175.027
64.84000 187.620
64.88000 185.026
64.92000 201.144
64.96000 194.813
65.00000 190.010
65.04000 199.726
65.08000 203.376
65.12000 208.362
65.16000 207.728
65.20000 216.579
65.24000 218.665
65.28000 227.067
65.32000 252.600
65.36000 277.338
65.40000 287.233
65.44000 327.946
65.48000 329.557
65.52000 381.988
65.56000 429.516
65.60000 451.397
65.64000 510.954
65.68000 745.494
65.72000 1146.337
65.76000 1702.440
65.80000 2130.601
65.84000 2315.487
65.88000 2342.550
65.92000 2198.686
65.96000 1845.448
66.00000 1219.567
66.04000 763.472
66.08000 553.115
66.12000 473.006
66.16000 436.682
66.20000 417.096
66.24000 433.221
66.28000 534.430
66.32000 619.193
66.36000 704.718
66.40000 702.822
66.44000 712.109
66.48000 669.374
66.52000 594.811
66.56000 505.937
66.60000 438.758
66.64000 391.089
66.68000 388.954
66.72000 390.104
66.76000 378.164
66.80000 367.017
66.84000 390.889
66.88000 392.323
66.92000 393.015
66.96000 409.881
67.00000 392.268
67.04000 390.334
67.08000 393.684
67.12000 413.577
67.16000 413.474
67.20000 412.948
67.24000 415.270
67.28000 446.431
67.32000 439.916
67.36000 437.036
67.40000 439.910
67.44000 448.015
67.48000 464.540
67.52000 459.733
67.56000 480.886
67.60000 478.668
67.64000 475.706
67.68000 486.693
67.72000 496.189
67.76000 483.514
67.80000 518.687
67.84000 508.258
67.88000 516.070
67.92000 507.471
67.96000 543.949
68.00000 537.344
68.04000 553.421
68.08000 552.668
68.12000 557.208
68.16000 583.940
68.20000 601.780
68.24000 607.367
68.28000 627.634
68.32000 653.020
68.36000 651.592
68.40000 666.519
68.44000 693.184
68.48000 712.430
68.52000 796.877
68.56000 891.317
68.60000 973.032
68.64000 1090.820
68.68000 1330.545
68.72000 1543.378
68.76000 1737.922
68.80000 1974.616
68.84000 2357.662
68.88000 2967.785
68.92000 4958.288
68.96000 11755.381
69.00000 26964.168
69.04000 42709.598
69.08000 50990.563
69.12000 54135.484
69.16000 57541.008
69.20000 56606.039
69.24000 45813.418
69.28000 34092.754
69.32000 28174.330
69.36000 26122.137
69.40000 21492.518
69.44000 13009.683
69.48000 5686.270
69.52000 2700.337
69.56000 1639.190
69.60000 1254.934
69.64000 1057.531
69.68000 972.067
69.72000 850.640
69.76000 764.614
69.80000 679.120
69.84000 666.175
69.88000 612.078
69.92000 576.063
69.96000 556.533
70.00000 524.599