File: XRD/XRD/09-10-2025 Dep 8/XY Data/BTO_Mapping_Theta2Theta_09-10-2025_001_41_-32-361_-23-511.xy
20.00000 477.615
20.04000 490.270
20.08000 480.040
20.12000 488.928
20.16000 476.581
20.20000 483.331
20.24000 487.098
20.28000 501.238
20.32000 486.125
20.36000 481.820
20.40000 485.251
20.44000 514.660
20.48000 494.695
20.52000 492.759
20.56000 492.268
20.60000 481.230
20.64000 482.622
20.68000 488.725
20.72000 473.234
20.76000 485.309
20.80000 479.050
20.84000 481.961
20.88000 482.692
20.92000 509.198
20.96000 488.448
21.00000 503.368
21.04000 488.122
21.08000 499.288
21.12000 502.522
21.16000 479.277
21.20000 497.377
21.24000 483.817
21.28000 462.035
21.32000 488.241
21.36000 475.957
21.40000 484.856
21.44000 484.609
21.48000 483.434
21.52000 491.970
21.56000 490.335
21.60000 499.966
21.64000 516.311
21.68000 548.951
21.72000 553.258
21.76000 578.896
21.80000 626.621
21.84000 636.065
21.88000 693.951
21.92000 717.225
21.96000 748.834
22.00000 767.951
22.04000 749.069
22.08000 699.951
22.12000 690.755
22.16000 660.592
22.20000 638.519
22.24000 589.606
22.28000 579.412
22.32000 547.215
22.36000 527.743
22.40000 488.648
22.44000 502.773
22.48000 493.858
22.52000 495.953
22.56000 483.808
22.60000 491.588
22.64000 465.210
22.68000 476.999
22.72000 446.434
22.76000 448.485
22.80000 458.171
22.84000 448.886
22.88000 445.441
22.92000 442.947
22.96000 435.557
23.00000 465.831
23.04000 451.995
23.08000 447.594
23.12000 454.816
23.16000 439.353
23.20000 440.303
23.24000 444.193
23.28000 438.819
23.32000 455.992
23.36000 422.726
23.40000 431.636
23.44000 426.493
23.48000 422.934
23.52000 445.161
23.56000 436.901
23.60000 430.977
23.64000 453.143
23.68000 437.376
23.72000 441.300
23.76000 438.325
23.80000 437.785
23.84000 437.301
23.88000 435.897
23.92000 434.150
23.96000 443.381
24.00000 439.785
24.04000 439.663
24.08000 434.670
24.12000 423.355
24.16000 428.445
24.20000 425.234
24.24000 425.331
24.28000 437.059
24.32000 431.141
24.36000 422.790
24.40000 438.079
24.44000 400.216
24.48000 436.589
24.52000 429.345
24.56000 435.703
24.60000 426.079
24.64000 427.912
24.68000 443.141
24.72000 417.561
24.76000 434.447
24.80000 410.767
24.84000 419.615
24.88000 427.052
24.92000 432.884
24.96000 419.385
25.00000 430.493
25.04000 435.644
25.08000 433.521
25.12000 416.715
25.16000 419.555
25.20000 410.777
25.24000 417.169
25.28000 413.651
25.32000 395.344
25.36000 417.503
25.40000 401.538
25.44000 428.839
25.48000 390.964
25.52000 411.755
25.56000 414.495
25.60000 428.193
25.64000 424.492
25.68000 407.718
25.72000 424.940
25.76000 420.225
25.80000 406.390
25.84000 401.284
25.88000 405.212
25.92000 400.034
25.96000 405.521
26.00000 401.374
26.04000 405.121
26.08000 392.029
26.12000 383.469
26.16000 404.572
26.20000 395.354
26.24000 398.661
26.28000 395.067
26.32000 419.327
26.36000 399.577
26.40000 381.950
26.44000 401.230
26.48000 401.080
26.52000 408.906
26.56000 388.488
26.60000 396.657
26.64000 394.264
26.68000 411.308
26.72000 402.676
26.76000 392.613
26.80000 400.813
26.84000 405.189
26.88000 387.440
26.92000 390.866
26.96000 390.444
27.00000 393.419
27.04000 382.471
27.08000 398.374
27.12000 395.156
27.16000 383.749
27.20000 384.480
27.24000 405.826
27.28000 391.388
27.32000 384.073
27.36000 376.693
27.40000 389.711
27.44000 375.036
27.48000 389.049
27.52000 382.302
27.56000 385.762
27.60000 381.846
27.64000 367.857
27.68000 384.169
27.72000 395.332
27.76000 382.029
27.80000 383.203
27.84000 377.599
27.88000 387.477
27.92000 380.374
27.96000 368.523
28.00000 387.557
28.04000 392.283
28.08000 387.922
28.12000 401.579
28.16000 393.034
28.20000 399.903
28.24000 382.371
28.28000 395.805
28.32000 395.305
28.36000 385.445
28.40000 380.922
28.44000 378.776
28.48000 384.849
28.52000 393.276
28.56000 381.268
28.60000 377.083
28.64000 365.629
28.68000 395.740
28.72000 371.122
28.76000 379.315
28.80000 373.955
28.84000 378.102
28.88000 365.249
28.92000 379.557
28.96000 352.557
29.00000 372.497
29.04000 362.116
29.08000 379.985
29.12000 372.678
29.16000 373.595
29.20000 381.580
29.24000 364.199
29.28000 369.638
29.32000 373.061
29.36000 364.407
29.40000 375.186
29.44000 377.157
29.48000 396.781
29.52000 386.429
29.56000 395.408
29.60000 380.483
29.64000 380.225
29.68000 390.988
29.72000 412.118
29.76000 456.288
29.80000 492.658
29.84000 532.907
29.88000 624.584
29.92000 663.335
29.96000 663.947
30.00000 666.156
30.04000 608.352
30.08000 568.892
30.12000 561.108
30.16000 529.025
30.20000 512.668
30.24000 481.975
30.28000 482.318
30.32000 468.607
30.36000 463.791
30.40000 453.486
30.44000 438.936
30.48000 447.363
30.52000 439.204
30.56000 450.613
30.60000 445.695
30.64000 445.627
30.68000 456.941
30.72000 489.441
30.76000 488.366
30.80000 496.919
30.84000 514.335
30.88000 541.636
30.92000 566.087
30.96000 691.591
31.00000 850.007
31.04000 1221.446
31.08000 1805.202
31.12000 2730.564
31.16000 4043.078
31.20000 5559.819
31.24000 6831.399
31.28000 7899.185
31.32000 8325.950
31.36000 7916.755
31.40000 6827.934
31.44000 5295.633
31.48000 3862.165
31.52000 2644.710
31.56000 1859.480
31.60000 1308.704
31.64000 986.138
31.68000 770.342
31.72000 661.467
31.76000 580.223
31.80000 526.505
31.84000 477.423
31.88000 458.928
31.92000 441.726
31.96000 401.239
32.00000 404.587
32.04000 385.098
32.08000 387.054
32.12000 381.381
32.16000 366.467
32.20000 353.764
32.24000 373.351
32.28000 349.813
32.32000 369.798
32.36000 354.732
32.40000 364.128
32.44000 349.221
32.48000 353.584
32.52000 364.722
32.56000 348.132
32.60000 369.236
32.64000 345.960
32.68000 336.938
32.72000 347.233
32.76000 331.696
32.80000 345.934
32.84000 331.990
32.88000 346.210
32.92000 330.974
32.96000 332.334
33.00000 309.647
33.04000 315.517
33.08000 327.520
33.12000 322.030
33.16000 324.579
33.20000 309.912
33.24000 317.710
33.28000 312.452
33.32000 294.762
33.36000 314.925
33.40000 310.022
33.44000 311.085
33.48000 315.947
33.52000 313.839
33.56000 320.723
33.60000 311.128
33.64000 305.662
33.68000 311.410
33.72000 314.441
33.76000 314.582
33.80000 301.824
33.84000 305.892
33.88000 312.864
33.92000 304.502
33.96000 302.586
34.00000 303.491
34.04000 305.860
34.08000 308.380
34.12000 305.487
34.16000 302.640
34.20000 292.772
34.24000 279.753
34.28000 285.823
34.32000 299.504
34.36000 278.098
34.40000 290.897
34.44000 289.213
34.48000 303.214
34.52000 307.937
34.56000 283.661
34.60000 291.332
34.64000 294.691
34.68000 302.426
34.72000 290.864
34.76000 309.915
34.80000 288.937
34.84000 290.040
34.88000 290.779
34.92000 300.776
34.96000 305.193
35.00000 297.245
35.04000 291.265
35.08000 295.258
35.12000 281.278
35.16000 291.903
35.20000 284.048
35.24000 272.830
35.28000 286.590
35.32000 274.820
35.36000 279.925
35.40000 267.078
35.44000 278.926
35.48000 277.836
35.52000 277.365
35.56000 267.955
35.60000 270.533
35.64000 269.741
35.68000 278.529
35.72000 283.600
35.76000 274.878
35.80000 259.842
35.84000 286.967
35.88000 276.809
35.92000 266.973
35.96000 274.904
36.00000 275.835
36.04000 278.342
36.08000 284.727
36.12000 280.980
36.16000 277.379
36.20000 275.945
36.24000 275.859
36.28000 281.975
36.32000 273.931
36.36000 279.384
36.40000 268.203
36.44000 291.593
36.48000 268.175
36.52000 263.645
36.56000 279.554
36.60000 265.877
36.64000 272.695
36.68000 281.649
36.72000 280.066
36.76000 286.133
36.80000 288.527
36.84000 271.048
36.88000 282.412
36.92000 289.505
36.96000 287.323
37.00000 294.878
37.04000 270.864
37.08000 289.140
37.12000 279.506
37.16000 283.645
37.20000 277.066
37.24000 273.260
37.28000 272.793
37.32000 274.847
37.36000 275.318
37.40000 267.791
37.44000 268.549
37.48000 264.529
37.52000 265.807
37.56000 265.800
37.60000 264.990
37.64000 258.558
37.68000 260.288
37.72000 254.981
37.76000 276.717
37.80000 247.622
37.84000 265.505
37.88000 276.777
37.92000 276.864
37.96000 262.635
38.00000 274.951
38.04000 289.795
38.08000 280.854
38.12000 278.640
38.16000 283.670
38.20000 289.241
38.24000 307.654
38.28000 312.060
38.32000 324.678
38.36000 343.280
38.40000 365.528
38.44000 396.186
38.48000 450.600
38.52000 457.847
38.56000 463.583
38.60000 475.190
38.64000 467.637
38.68000 460.211
38.72000 452.410
38.76000 418.822
38.80000 373.314
38.84000 340.264
38.88000 331.104
38.92000 297.138
38.96000 297.046
39.00000 288.981
39.04000 276.817
39.08000 276.900
39.12000 263.229
39.16000 277.300
39.20000 250.736
39.24000 254.387
39.28000 255.087
39.32000 258.513
39.36000 239.953
39.40000 243.711
39.44000 234.885
39.48000 248.052
39.52000 234.033
39.56000 245.153
39.60000 245.068
39.64000 248.779
39.68000 237.467
39.72000 233.398
39.76000 242.032
39.80000 241.619
39.84000 247.680
39.88000 230.243
39.92000 227.526
39.96000 228.385
40.00000 235.246
40.04000 229.995
40.08000 233.094
40.12000 243.027
40.16000 247.986
40.20000 237.702
40.24000 235.997
40.28000 224.591
40.32000 230.859
40.36000 227.621
40.40000 228.179
40.44000 236.018
40.48000 230.122
40.52000 236.360
40.56000 235.008
40.60000 229.693
40.64000 218.240
40.68000 234.676
40.72000 235.526
40.76000 213.955
40.80000 234.379
40.84000 234.130
40.88000 227.900
40.92000 226.500
40.96000 222.131
41.00000 224.659
41.04000 218.352
41.08000 220.028
41.12000 212.848
41.16000 223.994
41.20000 222.023
41.24000 229.755
41.28000 213.214
41.32000 206.609
41.36000 219.764
41.40000 204.012
41.44000 209.019
41.48000 214.690
41.52000 208.680
41.56000 216.090
41.60000 227.971
41.64000 216.002
41.68000 219.740
41.72000 226.844
41.76000 211.752
41.80000 209.402
41.84000 204.005
41.88000 216.339
41.92000 204.719
41.96000 215.372
42.00000 212.937
42.04000 217.400
42.08000 215.902
42.12000 217.319
42.16000 213.985
42.20000 205.433
42.24000 202.275
42.28000 208.566
42.32000 214.588
42.36000 207.004
42.40000 206.385
42.44000 204.091
42.48000 208.123
42.52000 204.768
42.56000 210.179
42.60000 204.227
42.64000 219.873
42.68000 217.226
42.72000 222.698
42.76000 207.820
42.80000 208.689
42.84000 216.315
42.88000 195.852
42.92000 208.692
42.96000 210.350
43.00000 217.492
43.04000 211.877
43.08000 201.372
43.12000 209.814
43.16000 210.540
43.20000 214.516
43.24000 212.051
43.28000 210.219
43.32000 207.775
43.36000 203.565
43.40000 198.939
43.44000 207.751
43.48000 212.375
43.52000 211.956
43.56000 198.452
43.60000 210.645
43.64000 212.982
43.68000 220.550
43.72000 197.672
43.76000 198.866
43.80000 205.216
43.84000 209.565
43.88000 213.300
43.92000 196.104
43.96000 210.962
44.00000 189.812
44.04000 210.452
44.08000 208.710
44.12000 196.106
44.16000 218.690
44.20000 206.542
44.24000 208.533
44.28000 215.859
44.32000 218.492
44.36000 211.453
44.40000 226.119
44.44000 230.086
44.48000 236.089
44.52000 258.958
44.56000 259.576
44.60000 302.455
44.64000 322.554
44.68000 348.130
44.72000 387.671
44.76000 408.667
44.80000 451.757
44.84000 455.291
44.88000 471.166
44.92000 469.237
44.96000 467.813
45.00000 445.453
45.04000 446.501
45.08000 414.298
45.12000 410.465
45.16000 365.102
45.20000 351.164
45.24000 322.663
45.28000 315.304
45.32000 310.563
45.36000 296.563
45.40000 281.898
45.44000 274.178
45.48000 258.534
45.52000 252.914
45.56000 230.466
45.60000 243.486
45.64000 238.126
45.68000 235.771
45.72000 215.432
45.76000 207.580
45.80000 195.099
45.84000 214.221
45.88000 189.804
45.92000 209.009
45.96000 204.852
46.00000 205.727
46.04000 201.730
46.08000 191.745
46.12000 189.714
46.16000 191.237
46.20000 189.288
46.24000 187.299
46.28000 187.089
46.32000 178.999
46.36000 176.915
46.40000 175.906
46.44000 181.138
46.48000 175.724
46.52000 176.905
46.56000 175.856
46.60000 170.740
46.64000 168.966
46.68000 170.895
46.72000 175.952
46.76000 183.305
46.80000 175.705
46.84000 170.830
46.88000 168.349
46.92000 176.121
46.96000 181.414
47.00000 171.995
47.04000 172.919
47.08000 172.761
47.12000 171.483
47.16000 170.759
47.20000 181.393
47.24000 172.983
47.28000 169.620
47.32000 162.790
47.36000 163.504
47.40000 176.062
47.44000 177.172
47.48000 178.647
47.52000 171.834
47.56000 159.487
47.60000 171.741
47.64000 166.893
47.68000 166.613
47.72000 173.614
47.76000 181.249
47.80000 163.908
47.84000 164.039
47.88000 170.808
47.92000 177.364
47.96000 172.457
48.00000 163.693
48.04000 176.497
48.08000 174.052
48.12000 170.085
48.16000 157.415
48.20000 175.620
48.24000 177.548
48.28000 163.550
48.32000 162.252
48.36000 166.656
48.40000 161.420
48.44000 176.129
48.48000 164.967
48.52000 171.290
48.56000 155.605
48.60000 170.479
48.64000 158.872
48.68000 176.617
48.72000 161.414
48.76000 168.865
48.80000 158.485
48.84000 167.629
48.88000 157.618
48.92000 176.339
48.96000 170.413
49.00000 169.876
49.04000 173.929
49.08000 170.637
49.12000 169.808
49.16000 161.112
49.20000 172.577
49.24000 162.324
49.28000 167.208
49.32000 174.298
49.36000 170.308
49.40000 180.758
49.44000 173.003
49.48000 167.143
49.52000 162.327
49.56000 158.556
49.60000 165.020
49.64000 161.302
49.68000 147.324
49.72000 171.893
49.76000 163.351
49.80000 168.441
49.84000 157.578
49.88000 156.116
49.92000 171.993
49.96000 184.389
50.00000 181.621
50.04000 163.204
50.08000 176.639
50.12000 172.160
50.16000 173.085
50.20000 179.484
50.24000 188.679
50.28000 200.252
50.32000 197.278
50.36000 204.516
50.40000 226.714
50.44000 235.606
50.48000 247.758
50.52000 262.328
50.56000 265.025
50.60000 268.177
50.64000 241.323
50.68000 241.857
50.72000 233.880
50.76000 228.416
50.80000 212.930
50.84000 208.840
50.88000 200.416
50.92000 194.226
50.96000 176.079
51.00000 173.297
51.04000 174.493
51.08000 172.144
51.12000 170.792
51.16000 169.786
51.20000 157.014
51.24000 161.770
51.28000 153.891
51.32000 152.915
51.36000 154.253
51.40000 162.805
51.44000 154.157
51.48000 155.948
51.52000 162.090
51.56000 143.315
51.60000 156.031
51.64000 152.593
51.68000 155.484
51.72000 156.807
51.76000 159.900
51.80000 149.519
51.84000 154.541
51.88000 153.693
51.92000 147.008
51.96000 147.476
52.00000 148.787
52.04000 147.974
52.08000 144.228
52.12000 149.187
52.16000 149.514
52.20000 137.560
52.24000 146.629
52.28000 143.693
52.32000 132.377
52.36000 136.306
52.40000 141.395
52.44000 145.569
52.48000 145.699
52.52000 145.896
52.56000 149.775
52.60000 140.321
52.64000 140.965
52.68000 152.987
52.72000 148.205
52.76000 144.671
52.80000 138.713
52.84000 143.194
52.88000 146.040
52.92000 143.409
52.96000 164.969
53.00000 150.665
53.04000 141.583
53.08000 149.414
53.12000 156.033
53.16000 158.965
53.20000 151.571
53.24000 138.428
53.28000 145.740
53.32000 153.063
53.36000 140.763
53.40000 153.533
53.44000 147.023
53.48000 146.440
53.52000 143.303
53.56000 140.866
53.60000 136.112
53.64000 143.300
53.68000 155.912
53.72000 148.125
53.76000 147.224
53.80000 147.794
53.84000 144.120
53.88000 138.179
53.92000 137.870
53.96000 142.287
54.00000 149.362
54.04000 133.810
54.08000 150.496
54.12000 153.135
54.16000 145.076
54.20000 139.927
54.24000 140.985
54.28000 154.470
54.32000 147.615
54.36000 143.914
54.40000 143.746
54.44000 146.746
54.48000 142.924
54.52000 127.841
54.56000 143.192
54.60000 140.385
54.64000 151.462
54.68000 150.413
54.72000 144.822
54.76000 142.446
54.80000 143.571
54.84000 150.964
54.88000 145.583
54.92000 148.455
54.96000 145.062
55.00000 142.066
55.04000 143.830
55.08000 151.193
55.12000 138.792
55.16000 170.717
55.20000 158.305
55.24000 169.334
55.28000 175.658
55.32000 189.595
55.36000 204.208
55.40000 204.716
55.44000 244.997
55.48000 279.749
55.52000 317.347
55.56000 375.653
55.60000 426.675
55.64000 485.823
55.68000 512.907
55.72000 518.686
55.76000 504.510
55.80000 495.313
55.84000 466.142
55.88000 416.974
55.92000 389.872
55.96000 361.310
56.00000 325.785
56.04000 284.428
56.08000 247.759
56.12000 243.927
56.16000 215.589
56.20000 212.138
56.24000 195.097
56.28000 183.810
56.32000 180.787
56.36000 185.973
56.40000 167.725
56.44000 161.389
56.48000 154.829
56.52000 154.526
56.56000 157.814
56.60000 158.882
56.64000 140.552
56.68000 149.942
56.72000 139.427
56.76000 139.732
56.80000 146.214
56.84000 132.506
56.88000 133.770
56.92000 136.638
56.96000 132.997
57.00000 140.176
57.04000 138.982
57.08000 137.140
57.12000 135.787
57.16000 124.721
57.20000 124.952
57.24000 128.966
57.28000 131.295
57.32000 127.494
57.36000 122.467
57.40000 121.706
57.44000 118.964
57.48000 127.742
57.52000 120.141
57.56000 131.078
57.60000 124.067
57.64000 122.969
57.68000 126.679
57.72000 117.355
57.76000 126.551
57.80000 126.328
57.84000 138.319
57.88000 128.533
57.92000 126.290
57.96000 136.256
58.00000 125.797
58.04000 121.780
58.08000 116.466
58.12000 125.317
58.16000 118.086
58.20000 125.009
58.24000 127.142
58.28000 130.432
58.32000 124.758
58.36000 123.851
58.40000 125.055
58.44000 130.196
58.48000 127.383
58.52000 127.536
58.56000 121.253
58.60000 118.847
58.64000 117.164
58.68000 125.960
58.72000 128.475
58.76000 123.863
58.80000 121.853
58.84000 127.822
58.88000 122.018
58.92000 122.175
58.96000 117.747
59.00000 112.963
59.04000 125.746
59.08000 126.610
59.12000 121.786
59.16000 122.838
59.20000 117.029
59.24000 127.412
59.28000 124.716
59.32000 112.355
59.36000 116.090
59.40000 114.390
59.44000 124.838
59.48000 128.109
59.52000 123.341
59.56000 123.667
59.60000 115.190
59.64000 121.204
59.68000 115.301
59.72000 123.369
59.76000 124.328
59.80000 119.837
59.84000 122.145
59.88000 126.834
59.92000 126.145
59.96000 125.359
60.00000 117.041
60.04000 109.699
60.08000 117.271
60.12000 117.376
60.16000 111.800
60.20000 116.519
60.24000 116.733
60.28000 114.567
60.32000 120.875
60.36000 117.470
60.40000 117.870
60.44000 128.394
60.48000 121.046
60.52000 121.751
60.56000 124.700
60.60000 114.293
60.64000 122.328
60.68000 120.594
60.72000 113.944
60.76000 115.891
60.80000 124.098
60.84000 130.664
60.88000 124.347
60.92000 127.196
60.96000 129.569
61.00000 124.977
61.04000 129.913
61.08000 126.946
61.12000 128.555
61.16000 122.241
61.20000 124.806
61.24000 122.536
61.28000 130.309
61.32000 125.387
61.36000 136.510
61.40000 130.529
61.44000 132.511
61.48000 136.603
61.52000 190.814
61.56000 260.054
61.60000 352.194
61.64000 405.114
61.68000 432.582
61.72000 441.260
61.76000 417.490
61.80000 329.399
61.84000 224.184
61.88000 187.313
61.92000 165.157
61.96000 154.371
62.00000 134.507
62.04000 148.303
62.08000 150.315
62.12000 159.510
62.16000 144.588
62.20000 154.573
62.24000 150.594
62.28000 156.386
62.32000 155.151
62.36000 148.921
62.40000 149.061
62.44000 150.082
62.48000 146.242
62.52000 140.981
62.56000 140.055
62.60000 138.756
62.64000 132.600
62.68000 143.722
62.72000 148.092
62.76000 138.433
62.80000 131.285
62.84000 145.638
62.88000 140.633
62.92000 146.944
62.96000 145.751
63.00000 145.336
63.04000 148.251
63.08000 142.838
63.12000 138.684
63.16000 139.102
63.20000 145.303
63.24000 147.879
63.28000 143.456
63.32000 150.145
63.36000 147.580
63.40000 152.462
63.44000 146.164
63.48000 145.960
63.52000 153.518
63.56000 145.919
63.60000 146.799
63.64000 149.837
63.68000 148.755
63.72000 147.703
63.76000 160.233
63.80000 161.804
63.84000 150.906
63.88000 144.222
63.92000 156.664
63.96000 142.293
64.00000 161.289
64.04000 158.173
64.08000 159.032
64.12000 150.849
64.16000 155.750
64.20000 167.048
64.24000 173.660
64.28000 169.574
64.32000 161.543
64.36000 169.928
64.40000 163.091
64.44000 179.207
64.48000 175.453
64.52000 174.726
64.56000 192.732
64.60000 171.065
64.64000 191.917
64.68000 190.265
64.72000 194.576
64.76000 194.080
64.80000 212.976
64.84000 210.802
64.88000 224.837
64.92000 231.734
64.96000 254.126
65.00000 272.956
65.04000 317.705
65.08000 365.483
65.12000 412.041
65.16000 504.783
65.20000 561.021
65.24000 642.347
65.28000 713.987
65.32000 761.516
65.36000 807.665
65.40000 778.506
65.44000 784.557
65.48000 754.016
65.52000 746.655
65.56000 670.895
65.60000 695.151
65.64000 750.511
65.68000 966.179
65.72000 1438.722
65.76000 2253.365
65.80000 2893.108
65.84000 3208.555
65.88000 3292.596
65.92000 3127.366
65.96000 2604.480
66.00000 1782.307
66.04000 1072.746
66.08000 723.979
66.12000 589.326
66.16000 522.178
66.20000 502.633
66.24000 527.228
66.28000 626.086
66.32000 757.148
66.36000 881.281
66.40000 934.000
66.44000 937.951
66.48000 897.827
66.52000 779.135
66.56000 647.802
66.60000 536.870
66.64000 484.258
66.68000 474.189
66.72000 447.657
66.76000 461.961
66.80000 457.512
66.84000 450.410
66.88000 456.166
66.92000 458.054
66.96000 473.079
67.00000 460.048
67.04000 466.199
67.08000 469.618
67.12000 479.872
67.16000 494.851
67.20000 507.236
67.24000 496.690
67.28000 504.746
67.32000 528.660
67.36000 520.495
67.40000 527.281
67.44000 528.041
67.48000 536.952
67.52000 541.079
67.56000 561.525
67.60000 546.466
67.64000 570.350
67.68000 580.253
67.72000 589.103
67.76000 573.329
67.80000 586.616
67.84000 579.381
67.88000 613.184
67.92000 635.917
67.96000 630.910
68.00000 625.572
68.04000 658.508
68.08000 647.531
68.12000 655.356
68.16000 686.173
68.20000 696.806
68.24000 713.927
68.28000 741.645
68.32000 767.130
68.36000 753.404
68.40000 793.006
68.44000 848.004
68.48000 864.339
68.52000 914.582
68.56000 1013.320
68.60000 1108.995
68.64000 1328.850
68.68000 1618.127
68.72000 1922.991
68.76000 2119.186
68.80000 2524.274
68.84000 2989.657
68.88000 3851.333
68.92000 6348.873
68.96000 14567.667
69.00000 34682.402
69.04000 58291.559
69.08000 72238.914
69.12000 77630.344
69.16000 82254.906
69.20000 81349.656
69.24000 70265.570
69.28000 53297.109
69.32000 41289.988
69.36000 37565.207
69.40000 31682.662
69.44000 21024.492
69.48000 9901.542
69.52000 4149.472
69.56000 2268.162
69.60000 1626.633
69.64000 1329.235
69.68000 1136.608
69.72000 1000.195
69.76000 908.499
69.80000 819.123
69.84000 760.076
69.88000 704.136
69.92000 676.519
69.96000 616.792
70.00000 580.161