File: XRD/XRD/09-10-2025 Dep 8/XY Data/BTO_Mapping_Theta2Theta_09-10-2025_001_15_6-180_19-021.xy
20.00000 485.136
20.04000 496.107
20.08000 490.832
20.12000 500.463
20.16000 492.204
20.20000 487.030
20.24000 475.373
20.28000 478.214
20.32000 476.370
20.36000 468.299
20.40000 478.498
20.44000 470.409
20.48000 473.780
20.52000 463.966
20.56000 469.316
20.60000 467.312
20.64000 476.895
20.68000 473.590
20.72000 476.659
20.76000 474.166
20.80000 470.589
20.84000 488.983
20.88000 454.685
20.92000 458.467
20.96000 476.193
21.00000 481.151
21.04000 446.599
21.08000 453.861
21.12000 484.805
21.16000 467.417
21.20000 480.020
21.24000 482.336
21.28000 481.027
21.32000 473.801
21.36000 465.678
21.40000 480.914
21.44000 494.186
21.48000 465.935
21.52000 485.661
21.56000 469.968
21.60000 472.251
21.64000 469.051
21.68000 479.217
21.72000 454.720
21.76000 484.921
21.80000 497.375
21.84000 517.542
21.88000 516.965
21.92000 529.855
21.96000 549.302
22.00000 567.066
22.04000 580.158
22.08000 600.413
22.12000 595.267
22.16000 600.648
22.20000 584.921
22.24000 572.052
22.28000 581.715
22.32000 553.759
22.36000 532.187
22.40000 503.921
22.44000 512.079
22.48000 489.752
22.52000 484.186
22.56000 475.694
22.60000 467.921
22.64000 448.153
22.68000 459.517
22.72000 456.956
22.76000 471.918
22.80000 438.314
22.84000 446.092
22.88000 423.436
22.92000 457.919
22.96000 446.368
23.00000 439.928
23.04000 440.278
23.08000 430.198
23.12000 434.483
23.16000 428.234
23.20000 451.209
23.24000 432.140
23.28000 425.818
23.32000 446.221
23.36000 452.350
23.40000 449.008
23.44000 447.106
23.48000 445.690
23.52000 435.121
23.56000 423.143
23.60000 441.714
23.64000 445.476
23.68000 435.520
23.72000 425.528
23.76000 418.503
23.80000 418.820
23.84000 446.561
23.88000 446.827
23.92000 409.907
23.96000 440.747
24.00000 427.379
24.04000 409.628
24.08000 425.017
24.12000 427.155
24.16000 415.356
24.20000 419.139
24.24000 411.980
24.28000 414.569
24.32000 411.124
24.36000 434.094
24.40000 419.765
24.44000 439.411
24.48000 406.557
24.52000 417.817
24.56000 410.873
24.60000 425.950
24.64000 427.966
24.68000 419.445
24.72000 432.855
24.76000 406.196
24.80000 401.468
24.84000 412.450
24.88000 424.600
24.92000 404.894
24.96000 413.383
25.00000 420.751
25.04000 402.252
25.08000 393.660
25.12000 412.453
25.16000 417.543
25.20000 421.310
25.24000 411.136
25.28000 406.246
25.32000 417.652
25.36000 416.055
25.40000 402.911
25.44000 394.052
25.48000 389.763
25.52000 395.048
25.56000 408.558
25.60000 397.265
25.64000 393.733
25.68000 414.102
25.72000 391.788
25.76000 397.929
25.80000 395.459
25.84000 392.874
25.88000 393.245
25.92000 394.168
25.96000 383.187
26.00000 403.228
26.04000 418.616
26.08000 384.552
26.12000 400.318
26.16000 390.971
26.20000 392.585
26.24000 390.512
26.28000 393.085
26.32000 400.673
26.36000 387.296
26.40000 387.761
26.44000 402.963
26.48000 400.544
26.52000 384.982
26.56000 368.337
26.60000 383.591
26.64000 405.043
26.68000 381.957
26.72000 383.989
26.76000 391.598
26.80000 385.071
26.84000 383.783
26.88000 383.036
26.92000 394.046
26.96000 383.493
27.00000 374.409
27.04000 388.377
27.08000 378.917
27.12000 372.996
27.16000 374.061
27.20000 382.856
27.24000 395.367
27.28000 385.022
27.32000 382.008
27.36000 377.284
27.40000 370.073
27.44000 369.606
27.48000 381.393
27.52000 361.886
27.56000 379.533
27.60000 374.514
27.64000 385.557
27.68000 373.883
27.72000 366.076
27.76000 377.358
27.80000 376.817
27.84000 373.046
27.88000 373.734
27.92000 376.852
27.96000 378.277
28.00000 370.570
28.04000 375.068
28.08000 356.285
28.12000 373.505
28.16000 387.038
28.20000 364.211
28.24000 366.519
28.28000 373.555
28.32000 391.303
28.36000 376.980
28.40000 355.997
28.44000 368.483
28.48000 368.115
28.52000 358.904
28.56000 371.145
28.60000 362.076
28.64000 383.586
28.68000 363.994
28.72000 368.413
28.76000 369.316
28.80000 364.603
28.84000 359.871
28.88000 358.505
28.92000 362.941
28.96000 370.342
29.00000 366.264
29.04000 358.749
29.08000 361.789
29.12000 356.429
29.16000 360.107
29.20000 370.741
29.24000 360.171
29.28000 379.744
29.32000 356.451
29.36000 360.326
29.40000 352.419
29.44000 364.897
29.48000 377.735
29.52000 370.642
29.56000 368.625
29.60000 362.855
29.64000 371.070
29.68000 371.984
29.72000 364.849
29.76000 373.387
29.80000 368.359
29.84000 371.450
29.88000 409.911
29.92000 411.150
29.96000 420.416
30.00000 430.716
30.04000 440.329
30.08000 447.718
30.12000 433.423
30.16000 450.883
30.20000 450.961
30.24000 403.659
30.28000 416.522
30.32000 415.565
30.36000 406.455
30.40000 393.930
30.44000 394.758
30.48000 405.293
30.52000 385.074
30.56000 372.405
30.60000 418.871
30.64000 405.105
30.68000 406.031
30.72000 413.275
30.76000 412.227
30.80000 403.605
30.84000 429.391
30.88000 447.260
30.92000 446.885
30.96000 473.289
31.00000 521.216
31.04000 528.918
31.08000 592.548
31.12000 683.838
31.16000 900.767
31.20000 1126.032
31.24000 1390.857
31.28000 1848.534
31.32000 2334.924
31.36000 2675.693
31.40000 2895.145
31.44000 2924.683
31.48000 2699.793
31.52000 2424.432
31.56000 1965.599
31.60000 1578.673
31.64000 1239.563
31.68000 986.548
31.72000 785.412
31.76000 707.874
31.80000 590.829
31.84000 509.757
31.88000 483.495
31.92000 451.830
31.96000 429.761
32.00000 399.795
32.04000 387.865
32.08000 388.306
32.12000 383.733
32.16000 363.271
32.20000 347.078
32.24000 349.111
32.28000 360.154
32.32000 351.366
32.36000 351.221
32.40000 327.684
32.44000 323.038
32.48000 327.965
32.52000 333.313
32.56000 335.941
32.60000 338.965
32.64000 333.790
32.68000 325.648
32.72000 334.551
32.76000 307.143
32.80000 325.620
32.84000 324.611
32.88000 317.689
32.92000 320.631
32.96000 323.528
33.00000 310.079
33.04000 328.443
33.08000 317.849
33.12000 283.374
33.16000 292.749
33.20000 298.377
33.24000 302.341
33.28000 317.224
33.32000 299.616
33.36000 311.533
33.40000 287.449
33.44000 294.190
33.48000 300.052
33.52000 293.547
33.56000 291.448
33.60000 306.209
33.64000 301.378
33.68000 298.385
33.72000 290.309
33.76000 289.258
33.80000 279.435
33.84000 308.925
33.88000 290.157
33.92000 295.846
33.96000 300.970
34.00000 294.234
34.04000 279.676
34.08000 281.054
34.12000 288.434
34.16000 289.774
34.20000 283.540
34.24000 277.687
34.28000 293.915
34.32000 288.603
34.36000 277.802
34.40000 289.730
34.44000 288.798
34.48000 298.445
34.52000 285.066
34.56000 271.897
34.60000 298.867
34.64000 293.253
34.68000 287.730
34.72000 295.737
34.76000 283.362
34.80000 280.090
34.84000 294.671
34.88000 277.473
34.92000 289.321
34.96000 283.524
35.00000 275.977
35.04000 264.107
35.08000 275.947
35.12000 277.460
35.16000 257.326
35.20000 286.119
35.24000 274.803
35.28000 284.341
35.32000 282.767
35.36000 268.088
35.40000 267.740
35.44000 274.298
35.48000 271.507
35.52000 272.388
35.56000 271.588
35.60000 271.888
35.64000 270.898
35.68000 285.251
35.72000 257.351
35.76000 256.100
35.80000 266.760
35.84000 271.585
35.88000 266.653
35.92000 252.847
35.96000 266.722
36.00000 259.073
36.04000 263.006
36.08000 272.362
36.12000 270.857
36.16000 259.348
36.20000 258.832
36.24000 247.922
36.28000 265.869
36.32000 270.906
36.36000 260.918
36.40000 258.466
36.44000 261.376
36.48000 256.836
36.52000 255.967
36.56000 250.150
36.60000 247.573
36.64000 257.880
36.68000 264.333
36.72000 276.198
36.76000 265.808
36.80000 256.790
36.84000 269.589
36.88000 272.474
36.92000 270.053
36.96000 287.573
37.00000 266.369
37.04000 281.660
37.08000 267.411
37.12000 272.714
37.16000 278.172
37.20000 287.281
37.24000 264.579
37.28000 276.457
37.32000 268.533
37.36000 268.469
37.40000 276.245
37.44000 265.462
37.48000 247.057
37.52000 257.836
37.56000 257.033
37.60000 259.569
37.64000 262.640
37.68000 275.457
37.72000 259.739
37.76000 258.238
37.80000 263.244
37.84000 243.021
37.88000 261.529
37.92000 252.069
37.96000 263.734
38.00000 259.305
38.04000 255.419
38.08000 270.125
38.12000 284.479
38.16000 271.992
38.20000 271.172
38.24000 267.715
38.28000 288.371
38.32000 295.710
38.36000 302.270
38.40000 305.491
38.44000 348.081
38.48000 378.636
38.52000 429.563
38.56000 537.094
38.60000 637.622
38.64000 795.630
38.68000 905.705
38.72000 1023.622
38.76000 1082.188
38.80000 1067.516
38.84000 943.108
38.88000 808.128
38.92000 691.170
38.96000 538.569
39.00000 445.010
39.04000 374.062
39.08000 328.267
39.12000 288.706
39.16000 284.903
39.20000 267.360
39.24000 267.672
39.28000 262.842
39.32000 246.297
39.36000 260.007
39.40000 242.793
39.44000 254.158
39.48000 239.475
39.52000 242.597
39.56000 234.516
39.60000 237.387
39.64000 217.621
39.68000 237.035
39.72000 225.205
39.76000 227.366
39.80000 237.396
39.84000 240.919
39.88000 244.068
39.92000 232.319
39.96000 235.573
40.00000 252.060
40.04000 226.587
40.08000 233.065
40.12000 226.435
40.16000 245.716
40.20000 232.261
40.24000 217.561
40.28000 229.731
40.32000 230.780
40.36000 219.266
40.40000 223.146
40.44000 223.340
40.48000 224.824
40.52000 212.533
40.56000 216.414
40.60000 217.370
40.64000 226.171
40.68000 223.268
40.72000 232.097
40.76000 212.392
40.80000 215.344
40.84000 214.420
40.88000 217.619
40.92000 223.520
40.96000 219.178
41.00000 206.639
41.04000 214.573
41.08000 219.103
41.12000 216.718
41.16000 214.501
41.20000 229.608
41.24000 214.675
41.28000 219.497
41.32000 206.152
41.36000 209.375
41.40000 217.395
41.44000 207.394
41.48000 214.793
41.52000 225.018
41.56000 203.063
41.60000 208.802
41.64000 213.658
41.68000 207.611
41.72000 209.369
41.76000 207.969
41.80000 213.615
41.84000 215.649
41.88000 204.822
41.92000 195.985
41.96000 198.827
42.00000 204.219
42.04000 215.072
42.08000 207.667
42.12000 192.767
42.16000 207.367
42.20000 208.507
42.24000 208.407
42.28000 203.770
42.32000 199.964
42.36000 192.987
42.40000 214.128
42.44000 203.048
42.48000 196.519
42.52000 200.249
42.56000 212.178
42.60000 203.462
42.64000 205.690
42.68000 191.029
42.72000 198.317
42.76000 210.150
42.80000 203.972
42.84000 201.689
42.88000 198.889
42.92000 206.848
42.96000 204.289
43.00000 215.842
43.04000 205.467
43.08000 200.677
43.12000 205.264
43.16000 199.003
43.20000 213.992
43.24000 207.967
43.28000 202.307
43.32000 204.903
43.36000 198.638
43.40000 198.824
43.44000 188.027
43.48000 194.437
43.52000 211.171
43.56000 198.701
43.60000 203.355
43.64000 198.711
43.68000 207.538
43.72000 187.600
43.76000 192.096
43.80000 203.535
43.84000 198.607
43.88000 183.225
43.92000 199.776
43.96000 203.563
44.00000 193.036
44.04000 197.561
44.08000 190.492
44.12000 193.018
44.16000 192.287
44.20000 194.052
44.24000 187.793
44.28000 188.614
44.32000 194.795
44.36000 194.092
44.40000 198.693
44.44000 203.981
44.48000 200.508
44.52000 193.478
44.56000 197.611
44.60000 194.033
44.64000 204.673
44.68000 195.274
44.72000 215.869
44.76000 212.260
44.80000 218.179
44.84000 220.996
44.88000 228.972
44.92000 255.265
44.96000 236.049
45.00000 251.522
45.04000 268.653
45.08000 277.926
45.12000 288.783
45.16000 301.494
45.20000 300.576
45.24000 293.416
45.28000 303.620
45.32000 289.384
45.36000 271.860
45.40000 269.415
45.44000 273.884
45.48000 270.181
45.52000 246.812
45.56000 251.578
45.60000 246.859
45.64000 233.760
45.68000 222.154
45.72000 237.143
45.76000 221.634
45.80000 207.988
45.84000 212.777
45.88000 191.111
45.92000 199.395
45.96000 201.316
46.00000 191.649
46.04000 194.560
46.08000 185.720
46.12000 187.825
46.16000 183.896
46.20000 180.942
46.24000 192.691
46.28000 190.022
46.32000 184.259
46.36000 172.556
46.40000 174.289
46.44000 183.077
46.48000 181.876
46.52000 169.000
46.56000 175.945
46.60000 184.456
46.64000 176.673
46.68000 177.344
46.72000 173.014
46.76000 176.692
46.80000 165.750
46.84000 170.562
46.88000 162.701
46.92000 160.532
46.96000 181.418
47.00000 182.348
47.04000 169.180
47.08000 173.163
47.12000 171.933
47.16000 183.005
47.20000 170.966
47.24000 164.112
47.28000 173.782
47.32000 176.623
47.36000 167.538
47.40000 170.998
47.44000 165.476
47.48000 171.840
47.52000 166.134
47.56000 174.496
47.60000 167.275
47.64000 163.518
47.68000 157.308
47.72000 164.290
47.76000 171.766
47.80000 166.989
47.84000 170.956
47.88000 165.461
47.92000 164.170
47.96000 150.024
48.00000 166.877
48.04000 162.936
48.08000 161.051
48.12000 161.008
48.16000 168.211
48.20000 154.857
48.24000 152.294
48.28000 150.769
48.32000 166.826
48.36000 156.786
48.40000 160.057
48.44000 164.343
48.48000 144.880
48.52000 154.859
48.56000 166.108
48.60000 162.419
48.64000 164.885
48.68000 163.267
48.72000 161.232
48.76000 158.505
48.80000 160.077
48.84000 162.049
48.88000 165.331
48.92000 169.188
48.96000 170.219
49.00000 161.808
49.04000 158.439
49.08000 161.181
49.12000 152.630
49.16000 160.188
49.20000 159.917
49.24000 155.523
49.28000 151.897
49.32000 153.999
49.36000 155.241
49.40000 149.302
49.44000 151.994
49.48000 161.068
49.52000 165.199
49.56000 164.215
49.60000 149.946
49.64000 161.307
49.68000 159.214
49.72000 154.675
49.76000 153.167
49.80000 156.376
49.84000 153.548
49.88000 149.442
49.92000 150.832
49.96000 154.211
50.00000 166.390
50.04000 144.023
50.08000 164.322
50.12000 159.655
50.16000 160.896
50.20000 146.859
50.24000 154.029
50.28000 157.448
50.32000 154.314
50.36000 164.978
50.40000 167.343
50.44000 172.070
50.48000 154.941
50.52000 174.603
50.56000 189.522
50.60000 199.996
50.64000 205.298
50.68000 214.238
50.72000 219.290
50.76000 226.510
50.80000 224.604
50.84000 239.259
50.88000 223.451
50.92000 210.070
50.96000 197.376
51.00000 189.272
51.04000 180.895
51.08000 193.034
51.12000 178.910
51.16000 166.956
51.20000 163.528
51.24000 169.470
51.28000 173.210
51.32000 167.257
51.36000 149.768
51.40000 164.529
51.44000 153.219
51.48000 153.663
51.52000 154.214
51.56000 146.544
51.60000 153.551
51.64000 143.746
51.68000 145.611
51.72000 152.978
51.76000 139.202
51.80000 149.728
51.84000 149.717
51.88000 138.250
51.92000 150.311
51.96000 143.060
52.00000 141.161
52.04000 141.972
52.08000 141.769
52.12000 142.821
52.16000 147.596
52.20000 137.617
52.24000 147.105
52.28000 140.934
52.32000 142.858
52.36000 141.951
52.40000 141.736
52.44000 139.956
52.48000 148.261
52.52000 142.905
52.56000 133.134
52.60000 141.933
52.64000 141.311
52.68000 141.356
52.72000 140.024
52.76000 139.805
52.80000 141.504
52.84000 136.249
52.88000 129.225
52.92000 141.041
52.96000 126.541
53.00000 142.184
53.04000 134.429
53.08000 139.915
53.12000 136.329
53.16000 142.015
53.20000 140.664
53.24000 142.271
53.28000 152.333
53.32000 148.120
53.36000 149.846
53.40000 145.785
53.44000 154.457
53.48000 147.060
53.52000 153.590
53.56000 152.928
53.60000 146.331
53.64000 142.183
53.68000 128.498
53.72000 148.167
53.76000 139.874
53.80000 138.794
53.84000 143.810
53.88000 145.396
53.92000 141.016
53.96000 144.356
54.00000 143.250
54.04000 140.401
54.08000 140.426
54.12000 139.414
54.16000 136.354
54.20000 139.143
54.24000 136.899
54.28000 129.008
54.32000 138.410
54.36000 133.375
54.40000 126.209
54.44000 132.444
54.48000 141.395
54.52000 141.115
54.56000 140.184
54.60000 133.342
54.64000 130.004
54.68000 145.895
54.72000 129.576
54.76000 146.003
54.80000 141.980
54.84000 136.438
54.88000 138.981
54.92000 134.294
54.96000 131.649
55.00000 134.903
55.04000 147.350
55.08000 139.731
55.12000 153.238
55.16000 139.430
55.20000 140.788
55.24000 148.173
55.28000 148.983
55.32000 155.874
55.36000 147.921
55.40000 149.545
55.44000 160.774
55.48000 154.376
55.52000 172.652
55.56000 179.820
55.60000 181.295
55.64000 196.595
55.68000 207.105
55.72000 252.972
55.76000 278.895
55.80000 312.741
55.84000 375.472
55.88000 418.308
55.92000 476.016
55.96000 512.538
56.00000 543.022
56.04000 563.513
56.08000 532.855
56.12000 502.328
56.16000 454.954
56.20000 410.551
56.24000 347.126
56.28000 312.590
56.32000 294.187
56.36000 266.609
56.40000 224.834
56.44000 207.614
56.48000 205.014
56.52000 169.958
56.56000 172.641
56.60000 162.571
56.64000 158.394
56.68000 158.584
56.72000 151.039
56.76000 146.633
56.80000 149.333
56.84000 139.837
56.88000 140.035
56.92000 143.201
56.96000 144.328
57.00000 145.930
57.04000 137.224
57.08000 137.011
57.12000 131.779
57.16000 123.964
57.20000 132.459
57.24000 130.881
57.28000 123.971
57.32000 131.674
57.36000 124.789
57.40000 125.393
57.44000 131.677
57.48000 127.851
57.52000 123.535
57.56000 125.764
57.60000 130.370
57.64000 129.700
57.68000 121.847
57.72000 118.139
57.76000 128.526
57.80000 119.522
57.84000 122.589
57.88000 126.285
57.92000 128.920
57.96000 121.769
58.00000 124.871
58.04000 120.860
58.08000 128.856
58.12000 113.577
58.16000 124.732
58.20000 114.600
58.24000 131.751
58.28000 128.312
58.32000 118.597
58.36000 117.633
58.40000 123.337
58.44000 125.928
58.48000 122.957
58.52000 125.331
58.56000 127.776
58.60000 117.824
58.64000 115.936
58.68000 126.136
58.72000 119.903
58.76000 119.839
58.80000 122.520
58.84000 110.644
58.88000 128.386
58.92000 122.738
58.96000 132.037
59.00000 115.680
59.04000 120.543
59.08000 117.252
59.12000 113.074
59.16000 119.299
59.20000 103.042
59.24000 115.622
59.28000 127.531
59.32000 121.636
59.36000 118.755
59.40000 120.023
59.44000 119.416
59.48000 112.733
59.52000 111.104
59.56000 119.133
59.60000 116.009
59.64000 112.659
59.68000 118.625
59.72000 116.983
59.76000 124.650
59.80000 117.852
59.84000 122.468
59.88000 113.566
59.92000 109.099
59.96000 117.474
60.00000 107.484
60.04000 115.176
60.08000 119.532
60.12000 118.295
60.16000 116.918
60.20000 115.378
60.24000 111.511
60.28000 121.984
60.32000 118.035
60.36000 119.751
60.40000 127.410
60.44000 121.012
60.48000 108.356
60.52000 117.683
60.56000 122.509
60.60000 117.362
60.64000 117.178
60.68000 115.738
60.72000 116.369
60.76000 120.734
60.80000 113.818
60.84000 121.124
60.88000 115.618
60.92000 122.594
60.96000 112.357
61.00000 126.771
61.04000 128.357
61.08000 122.497
61.12000 125.439
61.16000 124.720
61.20000 119.640
61.24000 122.656
61.28000 129.116
61.32000 135.333
61.36000 117.511
61.40000 128.950
61.44000 125.460
61.48000 139.512
61.52000 175.847
61.56000 225.789
61.60000 283.245
61.64000 310.604
61.68000 312.449
61.72000 330.286
61.76000 304.880
61.80000 243.304
61.84000 176.864
61.88000 154.050
61.92000 144.709
61.96000 135.250
62.00000 129.859
62.04000 124.898
62.08000 124.964
62.12000 127.643
62.16000 135.389
62.20000 129.476
62.24000 136.113
62.28000 129.372
62.32000 120.376
62.36000 128.140
62.40000 133.140
62.44000 144.090
62.48000 136.527
62.52000 129.934
62.56000 125.500
62.60000 140.474
62.64000 132.680
62.68000 134.420
62.72000 135.794
62.76000 139.786
62.80000 138.976
62.84000 124.200
62.88000 125.479
62.92000 141.276
62.96000 131.566
63.00000 131.142
63.04000 135.359
63.08000 133.413
63.12000 141.194
63.16000 135.121
63.20000 127.404
63.24000 149.630
63.28000 149.624
63.32000 143.707
63.36000 127.710
63.40000 145.989
63.44000 143.491
63.48000 137.505
63.52000 141.950
63.56000 132.662
63.60000 141.781
63.64000 139.166
63.68000 148.939
63.72000 151.112
63.76000 148.311
63.80000 140.166
63.84000 134.805
63.88000 143.786
63.92000 139.089
63.96000 149.900
64.00000 152.905
64.04000 146.364
64.08000 149.268
64.12000 153.631
64.16000 156.449
64.20000 150.152
64.24000 162.822
64.28000 176.138
64.32000 154.392
64.36000 163.585
64.40000 164.950
64.44000 160.393
64.48000 167.527
64.52000 168.923
64.56000 164.677
64.60000 160.311
64.64000 163.735
64.68000 168.525
64.72000 167.330
64.76000 168.262
64.80000 173.034
64.84000 176.248
64.88000 205.832
64.92000 181.202
64.96000 202.740
65.00000 198.187
65.04000 192.930
65.08000 200.928
65.12000 196.958
65.16000 214.580
65.20000 221.930
65.24000 247.153
65.28000 251.465
65.32000 254.369
65.36000 279.607
65.40000 312.552
65.44000 337.241
65.48000 371.647
65.52000 409.735
65.56000 479.397
65.60000 507.513
65.64000 562.251
65.68000 768.817
65.72000 1163.817
65.76000 1738.084
65.80000 2166.083
65.84000 2372.028
65.88000 2310.064
65.92000 2221.670
65.96000 1814.200
66.00000 1182.393
66.04000 733.026
66.08000 554.511
66.12000 462.263
66.16000 417.976
66.20000 426.046
66.24000 453.932
66.28000 529.361
66.32000 622.886
66.36000 695.479
66.40000 729.513
66.44000 706.561
66.48000 688.456
66.52000 584.298
66.56000 486.860
66.60000 440.262
66.64000 407.528
66.68000 380.537
66.72000 375.438
66.76000 386.560
66.80000 390.595
66.84000 374.151
66.88000 391.138
66.92000 394.184
66.96000 401.744
67.00000 384.386
67.04000 404.825
67.08000 418.655
67.12000 423.151
67.16000 417.281
67.20000 412.682
67.24000 407.742
67.28000 447.170
67.32000 438.816
67.36000 443.678
67.40000 409.077
67.44000 451.785
67.48000 454.654
67.52000 465.885
67.56000 472.115
67.60000 477.810
67.64000 486.853
67.68000 491.780
67.72000 466.534
67.76000 486.285
67.80000 510.833
67.84000 503.655
67.88000 517.646
67.92000 529.143
67.96000 537.095
68.00000 538.120
68.04000 555.956
68.08000 561.588
68.12000 586.792
68.16000 584.872
68.20000 603.064
68.24000 619.626
68.28000 629.654
68.32000 627.365
68.36000 643.947
68.40000 673.395
68.44000 698.367
68.48000 777.430
68.52000 788.851
68.56000 865.609
68.60000 957.161
68.64000 1140.642
68.68000 1324.690
68.72000 1534.272
68.76000 1725.503
68.80000 2024.075
68.84000 2345.095
68.88000 2992.875
68.92000 5100.414
68.96000 12125.319
69.00000 27605.426
69.04000 43444.242
69.08000 51456.402
69.12000 54584.391
69.16000 57690.219
69.20000 56772.355
69.24000 45344.941
69.28000 33674.227
69.32000 27921.012
69.36000 25808.102
69.40000 21175.418
69.44000 12643.069
69.48000 5527.749
69.52000 2584.705
69.56000 1615.044
69.60000 1227.611
69.64000 1044.156
69.68000 929.225
69.72000 825.530
69.76000 750.419
69.80000 694.329
69.84000 651.128
69.88000 597.262
69.92000 580.606
69.96000 532.190
70.00000 549.611