File: XRD/XRD/09-10-2025 Dep 8/XY Data/BTO_Mapping_Theta2Theta_09-10-2025_001_52_9-271_-28-532.xy
20.00000 490.920
20.04000 476.104
20.08000 489.060
20.12000 476.736
20.16000 492.855
20.20000 483.864
20.24000 492.228
20.28000 481.687
20.32000 489.845
20.36000 482.230
20.40000 480.949
20.44000 481.611
20.48000 486.718
20.52000 480.578
20.56000 485.931
20.60000 492.302
20.64000 475.759
20.68000 479.936
20.72000 476.041
20.76000 474.438
20.80000 473.348
20.84000 489.297
20.88000 491.637
20.92000 484.077
20.96000 469.601
21.00000 484.317
21.04000 492.795
21.08000 482.592
21.12000 487.860
21.16000 478.705
21.20000 467.136
21.24000 489.393
21.28000 476.872
21.32000 474.065
21.36000 468.798
21.40000 485.279
21.44000 473.520
21.48000 480.773
21.52000 474.469
21.56000 488.686
21.60000 479.640
21.64000 490.124
21.68000 495.128
21.72000 484.156
21.76000 491.412
21.80000 502.153
21.84000 522.159
21.88000 546.642
21.92000 548.323
21.96000 547.257
22.00000 619.690
22.04000 632.632
22.08000 637.706
22.12000 640.331
22.16000 642.153
22.20000 631.253
22.24000 595.316
22.28000 567.951
22.32000 550.903
22.36000 536.537
22.40000 506.952
22.44000 493.452
22.48000 505.388
22.52000 474.609
22.56000 482.195
22.60000 456.286
22.64000 466.140
22.68000 466.413
22.72000 446.853
22.76000 451.674
22.80000 453.678
22.84000 453.024
22.88000 445.842
22.92000 432.827
22.96000 434.838
23.00000 443.482
23.04000 441.207
23.08000 448.350
23.12000 432.841
23.16000 444.926
23.20000 445.141
23.24000 445.646
23.28000 428.615
23.32000 440.857
23.36000 438.225
23.40000 446.416
23.44000 428.737
23.48000 443.393
23.52000 442.998
23.56000 445.406
23.60000 450.434
23.64000 436.411
23.68000 441.983
23.72000 451.009
23.76000 428.163
23.80000 443.959
23.84000 456.169
23.88000 415.850
23.92000 442.508
23.96000 434.762
24.00000 416.777
24.04000 431.003
24.08000 419.272
24.12000 425.412
24.16000 428.525
24.20000 400.992
24.24000 418.687
24.28000 424.049
24.32000 417.056
24.36000 428.399
24.40000 428.749
24.44000 414.247
24.48000 417.763
24.52000 435.377
24.56000 399.700
24.60000 415.271
24.64000 432.059
24.68000 417.663
24.72000 408.716
24.76000 420.292
24.80000 407.443
24.84000 425.342
24.88000 431.576
24.92000 410.676
24.96000 399.167
25.00000 391.294
25.04000 410.345
25.08000 406.823
25.12000 411.989
25.16000 410.453
25.20000 389.748
25.24000 414.253
25.28000 399.010
25.32000 398.137
25.36000 403.220
25.40000 413.462
25.44000 420.866
25.48000 418.723
25.52000 418.430
25.56000 377.539
25.60000 415.558
25.64000 405.392
25.68000 400.156
25.72000 404.137
25.76000 411.129
25.80000 411.653
25.84000 400.362
25.88000 398.559
25.92000 392.014
25.96000 409.082
26.00000 413.085
26.04000 387.293
26.08000 393.513
26.12000 400.533
26.16000 397.710
26.20000 395.739
26.24000 406.306
26.28000 373.009
26.32000 400.483
26.36000 409.462
26.40000 403.805
26.44000 394.148
26.48000 388.541
26.52000 401.107
26.56000 384.412
26.60000 405.044
26.64000 404.475
26.68000 376.556
26.72000 398.928
26.76000 389.302
26.80000 399.590
26.84000 376.572
26.88000 391.612
26.92000 382.476
26.96000 410.195
27.00000 380.772
27.04000 367.807
27.08000 373.231
27.12000 376.980
27.16000 375.654
27.20000 392.058
27.24000 384.965
27.28000 387.985
27.32000 370.901
27.36000 374.366
27.40000 386.176
27.44000 380.026
27.48000 374.108
27.52000 393.469
27.56000 381.170
27.60000 376.765
27.64000 367.738
27.68000 381.023
27.72000 391.626
27.76000 383.772
27.80000 354.071
27.84000 380.672
27.88000 383.937
27.92000 383.767
27.96000 376.495
28.00000 383.580
28.04000 373.200
28.08000 381.702
28.12000 383.025
28.16000 391.558
28.20000 357.765
28.24000 393.285
28.28000 374.138
28.32000 374.924
28.36000 381.970
28.40000 371.610
28.44000 376.599
28.48000 360.501
28.52000 382.768
28.56000 386.430
28.60000 361.945
28.64000 359.688
28.68000 366.715
28.72000 362.235
28.76000 356.786
28.80000 351.853
28.84000 358.486
28.88000 361.523
28.92000 362.271
28.96000 369.079
29.00000 380.318
29.04000 380.855
29.08000 366.843
29.12000 355.688
29.16000 364.497
29.20000 362.654
29.24000 366.961
29.28000 363.113
29.32000 362.402
29.36000 379.835
29.40000 352.814
29.44000 380.112
29.48000 369.061
29.52000 375.988
29.56000 351.670
29.60000 373.834
29.64000 377.638
29.68000 385.710
29.72000 363.964
29.76000 355.476
29.80000 378.291
29.84000 382.856
29.88000 406.461
29.92000 421.238
29.96000 428.206
30.00000 452.988
30.04000 461.419
30.08000 459.078
30.12000 444.873
30.16000 480.293
30.20000 438.280
30.24000 434.658
30.28000 412.353
30.32000 419.178
30.36000 409.317
30.40000 400.396
30.44000 408.400
30.48000 398.750
30.52000 416.098
30.56000 403.083
30.60000 407.713
30.64000 395.533
30.68000 408.224
30.72000 418.496
30.76000 427.551
30.80000 448.182
30.84000 429.904
30.88000 452.121
30.92000 476.389
30.96000 498.132
31.00000 510.028
31.04000 575.748
31.08000 655.081
31.12000 796.115
31.16000 1003.176
31.20000 1257.792
31.24000 1631.053
31.28000 2154.797
31.32000 2560.863
31.36000 2913.657
31.40000 3142.082
31.44000 3107.786
31.48000 2834.281
31.52000 2496.953
31.56000 2027.382
31.60000 1601.838
31.64000 1281.307
31.68000 1015.893
31.72000 820.801
31.76000 691.458
31.80000 606.392
31.84000 534.535
31.88000 491.097
31.92000 461.867
31.96000 446.454
32.00000 413.845
32.04000 396.331
32.08000 360.856
32.12000 367.149
32.16000 379.602
32.20000 370.300
32.24000 358.373
32.28000 343.861
32.32000 349.679
32.36000 364.217
32.40000 336.375
32.44000 348.436
32.48000 341.898
32.52000 336.055
32.56000 341.319
32.60000 316.609
32.64000 325.984
32.68000 332.847
32.72000 325.812
32.76000 320.538
32.80000 338.208
32.84000 326.218
32.88000 327.088
32.92000 309.941
32.96000 309.271
33.00000 310.869
33.04000 306.965
33.08000 308.502
33.12000 304.266
33.16000 306.862
33.20000 304.112
33.24000 305.243
33.28000 313.273
33.32000 308.958
33.36000 300.979
33.40000 308.441
33.44000 296.391
33.48000 302.781
33.52000 301.783
33.56000 307.762
33.60000 315.387
33.64000 308.462
33.68000 294.365
33.72000 292.756
33.76000 301.873
33.80000 298.109
33.84000 290.660
33.88000 297.499
33.92000 304.487
33.96000 292.547
34.00000 287.784
34.04000 276.066
34.08000 294.049
34.12000 282.953
34.16000 295.630
34.20000 294.197
34.24000 290.219
34.28000 299.106
34.32000 278.626
34.36000 270.701
34.40000 286.562
34.44000 294.774
34.48000 283.670
34.52000 292.299
34.56000 274.129
34.60000 274.433
34.64000 285.289
34.68000 297.170
34.72000 290.799
34.76000 290.904
34.80000 270.495
34.84000 284.109
34.88000 277.362
34.92000 276.573
34.96000 282.812
35.00000 272.728
35.04000 268.954
35.08000 279.190
35.12000 272.211
35.16000 258.750
35.20000 275.265
35.24000 268.883
35.28000 274.585
35.32000 263.176
35.36000 271.674
35.40000 268.201
35.44000 268.109
35.48000 282.944
35.52000 262.048
35.56000 265.593
35.60000 265.755
35.64000 249.593
35.68000 285.054
35.72000 261.728
35.76000 264.119
35.80000 267.709
35.84000 267.145
35.88000 262.462
35.92000 260.240
35.96000 256.127
36.00000 271.171
36.04000 277.291
36.08000 261.479
36.12000 276.948
36.16000 262.908
36.20000 251.090
36.24000 275.824
36.28000 257.106
36.32000 261.450
36.36000 259.619
36.40000 263.833
36.44000 260.929
36.48000 266.791
36.52000 260.251
36.56000 270.398
36.60000 257.263
36.64000 263.708
36.68000 260.317
36.72000 267.779
36.76000 257.309
36.80000 266.574
36.84000 278.161
36.88000 286.950
36.92000 288.052
36.96000 262.639
37.00000 283.802
37.04000 285.366
37.08000 284.295
37.12000 279.284
37.16000 267.994
37.20000 267.146
37.24000 271.756
37.28000 277.559
37.32000 274.294
37.36000 262.516
37.40000 260.079
37.44000 275.338
37.48000 273.703
37.52000 263.961
37.56000 256.067
37.60000 253.941
37.64000 262.994
37.68000 263.716
37.72000 260.395
37.76000 255.735
37.80000 260.410
37.84000 263.128
37.88000 269.245
37.92000 258.810
37.96000 264.309
38.00000 255.226
38.04000 260.319
38.08000 256.792
38.12000 265.001
38.16000 273.265
38.20000 267.397
38.24000 287.970
38.28000 290.298
38.32000 287.883
38.36000 319.161
38.40000 344.760
38.44000 372.917
38.48000 418.605
38.52000 504.986
38.56000 626.261
38.60000 755.133
38.64000 910.014
38.68000 1007.693
38.72000 1097.757
38.76000 1126.203
38.80000 1032.557
38.84000 914.242
38.88000 780.480
38.92000 650.714
38.96000 519.910
39.00000 434.045
39.04000 383.560
39.08000 325.213
39.12000 305.368
39.16000 280.002
39.20000 268.480
39.24000 266.389
39.28000 258.783
39.32000 267.751
39.36000 259.151
39.40000 248.205
39.44000 260.856
39.48000 249.410
39.52000 253.112
39.56000 243.130
39.60000 232.825
39.64000 242.645
39.68000 234.082
39.72000 220.441
39.76000 221.964
39.80000 238.820
39.84000 237.903
39.88000 234.415
39.92000 242.300
39.96000 241.484
40.00000 227.141
40.04000 214.836
40.08000 218.948
40.12000 232.274
40.16000 218.010
40.20000 228.618
40.24000 238.417
40.28000 223.109
40.32000 225.225
40.36000 220.046
40.40000 225.244
40.44000 224.818
40.48000 217.994
40.52000 231.044
40.56000 226.800
40.60000 231.181
40.64000 223.148
40.68000 223.670
40.72000 208.855
40.76000 212.015
40.80000 221.754
40.84000 220.895
40.88000 213.987
40.92000 215.746
40.96000 225.011
41.00000 212.877
41.04000 220.113
41.08000 202.059
41.12000 213.513
41.16000 214.288
41.20000 207.743
41.24000 221.813
41.28000 222.125
41.32000 207.735
41.36000 213.118
41.40000 208.600
41.44000 210.654
41.48000 202.731
41.52000 214.176
41.56000 213.588
41.60000 213.677
41.64000 199.635
41.68000 205.381
41.72000 219.213
41.76000 219.782
41.80000 217.201
41.84000 200.746
41.88000 195.112
41.92000 213.790
41.96000 213.887
42.00000 211.046
42.04000 228.349
42.08000 201.147
42.12000 196.986
42.16000 201.145
42.20000 209.281
42.24000 214.008
42.28000 201.549
42.32000 204.792
42.36000 206.596
42.40000 209.241
42.44000 191.348
42.48000 204.145
42.52000 192.356
42.56000 208.947
42.60000 203.690
42.64000 199.052
42.68000 196.267
42.72000 200.747
42.76000 217.529
42.80000 202.701
42.84000 199.820
42.88000 190.003
42.92000 200.116
42.96000 198.518
43.00000 198.913
43.04000 203.194
43.08000 205.481
43.12000 203.233
43.16000 201.704
43.20000 203.306
43.24000 195.963
43.28000 204.157
43.32000 203.736
43.36000 200.361
43.40000 214.748
43.44000 195.676
43.48000 195.248
43.52000 196.159
43.56000 199.616
43.60000 198.633
43.64000 193.335
43.68000 194.419
43.72000 207.092
43.76000 199.693
43.80000 200.938
43.84000 198.517
43.88000 194.594
43.92000 196.586
43.96000 203.462
44.00000 181.126
44.04000 202.826
44.08000 196.607
44.12000 197.846
44.16000 199.847
44.20000 202.979
44.24000 198.081
44.28000 202.409
44.32000 199.924
44.36000 200.726
44.40000 198.255
44.44000 197.622
44.48000 196.598
44.52000 210.758
44.56000 198.224
44.60000 196.146
44.64000 206.500
44.68000 213.584
44.72000 217.347
44.76000 219.266
44.80000 226.488
44.84000 237.080
44.88000 255.005
44.92000 265.335
44.96000 261.220
45.00000 278.336
45.04000 292.868
45.08000 297.640
45.12000 326.239
45.16000 331.192
45.20000 322.323
45.24000 317.456
45.28000 317.055
45.32000 316.369
45.36000 278.467
45.40000 282.349
45.44000 277.660
45.48000 260.669
45.52000 252.329
45.56000 248.668
45.60000 222.922
45.64000 216.082
45.68000 220.307
45.72000 218.311
45.76000 205.277
45.80000 215.780
45.84000 216.071
45.88000 205.356
45.92000 196.500
45.96000 203.292
46.00000 187.110
46.04000 201.588
46.08000 185.513
46.12000 194.527
46.16000 181.329
46.20000 178.380
46.24000 180.599
46.28000 186.794
46.32000 175.827
46.36000 191.378
46.40000 174.514
46.44000 180.908
46.48000 176.345
46.52000 178.792
46.56000 181.164
46.60000 179.220
46.64000 182.257
46.68000 181.945
46.72000 178.677
46.76000 174.834
46.80000 172.268
46.84000 165.904
46.88000 171.082
46.92000 171.372
46.96000 167.639
47.00000 174.861
47.04000 169.850
47.08000 163.848
47.12000 168.198
47.16000 175.357
47.20000 174.263
47.24000 174.045
47.28000 174.194
47.32000 167.139
47.36000 160.081
47.40000 155.274
47.44000 158.168
47.48000 163.401
47.52000 167.262
47.56000 162.761
47.60000 164.218
47.64000 154.289
47.68000 162.990
47.72000 175.188
47.76000 167.950
47.80000 161.798
47.84000 166.315
47.88000 165.306
47.92000 157.828
47.96000 172.136
48.00000 148.135
48.04000 168.791
48.08000 160.048
48.12000 160.184
48.16000 167.701
48.20000 175.904
48.24000 170.095
48.28000 160.687
48.32000 166.468
48.36000 158.375
48.40000 173.919
48.44000 160.288
48.48000 159.470
48.52000 158.144
48.56000 162.349
48.60000 155.526
48.64000 161.566
48.68000 165.411
48.72000 163.533
48.76000 160.033
48.80000 144.442
48.84000 155.678
48.88000 161.092
48.92000 152.337
48.96000 145.393
49.00000 145.858
49.04000 166.813
49.08000 169.608
49.12000 142.323
49.16000 150.417
49.20000 145.596
49.24000 155.394
49.28000 164.239
49.32000 148.001
49.36000 147.053
49.40000 151.469
49.44000 159.801
49.48000 159.699
49.52000 161.415
49.56000 165.162
49.60000 150.773
49.64000 168.720
49.68000 156.420
49.72000 150.618
49.76000 156.999
49.80000 154.779
49.84000 154.175
49.88000 157.944
49.92000 161.469
49.96000 150.901
50.00000 156.268
50.04000 165.046
50.08000 149.174
50.12000 147.742
50.16000 163.276
50.20000 158.168
50.24000 165.048
50.28000 165.385
50.32000 157.811
50.36000 167.194
50.40000 168.893
50.44000 170.528
50.48000 172.254
50.52000 183.458
50.56000 188.690
50.60000 206.533
50.64000 230.178
50.68000 221.471
50.72000 228.905
50.76000 237.420
50.80000 231.931
50.84000 234.111
50.88000 233.968
50.92000 206.664
50.96000 197.222
51.00000 180.582
51.04000 185.522
51.08000 172.311
51.12000 175.301
51.16000 166.227
51.20000 160.462
51.24000 161.760
51.28000 165.760
51.32000 159.789
51.36000 157.303
51.40000 152.648
51.44000 151.078
51.48000 148.107
51.52000 152.214
51.56000 160.497
51.60000 156.780
51.64000 146.612
51.68000 157.281
51.72000 164.483
51.76000 155.907
51.80000 146.336
51.84000 136.452
51.88000 136.841
51.92000 145.836
51.96000 148.346
52.00000 141.783
52.04000 136.644
52.08000 146.612
52.12000 137.078
52.16000 142.478
52.20000 151.694
52.24000 141.333
52.28000 140.493
52.32000 140.927
52.36000 131.076
52.40000 142.408
52.44000 142.588
52.48000 142.446
52.52000 143.510
52.56000 144.103
52.60000 143.769
52.64000 145.878
52.68000 142.164
52.72000 140.253
52.76000 143.931
52.80000 137.358
52.84000 142.444
52.88000 139.020
52.92000 144.376
52.96000 137.230
53.00000 134.776
53.04000 133.617
53.08000 133.794
53.12000 139.863
53.16000 155.439
53.20000 146.892
53.24000 150.890
53.28000 153.207
53.32000 147.172
53.36000 138.958
53.40000 152.802
53.44000 155.886
53.48000 165.374
53.52000 153.939
53.56000 156.237
53.60000 148.786
53.64000 144.877
53.68000 139.360
53.72000 141.140
53.76000 156.938
53.80000 147.886
53.84000 147.394
53.88000 146.413
53.92000 149.818
53.96000 140.793
54.00000 149.888
54.04000 130.370
54.08000 140.973
54.12000 141.333
54.16000 143.371
54.20000 138.232
54.24000 130.577
54.28000 142.459
54.32000 141.267
54.36000 139.962
54.40000 135.672
54.44000 145.310
54.48000 146.263
54.52000 142.002
54.56000 130.822
54.60000 153.466
54.64000 136.325
54.68000 139.510
54.72000 148.160
54.76000 141.950
54.80000 136.848
54.84000 142.559
54.88000 144.952
54.92000 132.717
54.96000 134.947
55.00000 149.230
55.04000 145.828
55.08000 141.757
55.12000 150.009
55.16000 139.591
55.20000 148.204
55.24000 153.635
55.28000 145.102
55.32000 156.258
55.36000 165.407
55.40000 160.177
55.44000 168.694
55.48000 168.727
55.52000 167.229
55.56000 185.413
55.60000 189.661
55.64000 205.504
55.68000 218.916
55.72000 272.084
55.76000 305.795
55.80000 360.367
55.84000 424.403
55.88000 465.254
55.92000 541.909
55.96000 558.979
56.00000 566.542
56.04000 555.613
56.08000 539.222
56.12000 477.515
56.16000 457.791
56.20000 396.538
56.24000 355.235
56.28000 307.045
56.32000 267.400
56.36000 233.648
56.40000 213.829
56.44000 199.404
56.48000 193.740
56.52000 189.931
56.56000 174.037
56.60000 174.214
56.64000 166.983
56.68000 160.977
56.72000 147.388
56.76000 151.858
56.80000 138.615
56.84000 144.145
56.88000 146.142
56.92000 137.367
56.96000 141.393
57.00000 143.500
57.04000 139.477
57.08000 132.860
57.12000 130.858
57.16000 134.798
57.20000 128.071
57.24000 127.595
57.28000 125.697
57.32000 134.757
57.36000 131.831
57.40000 125.535
57.44000 134.193
57.48000 134.845
57.52000 126.116
57.56000 122.856
57.60000 131.437
57.64000 125.716
57.68000 121.215
57.72000 123.030
57.76000 124.325
57.80000 130.068
57.84000 125.651
57.88000 124.498
57.92000 123.412
57.96000 120.764
58.00000 122.460
58.04000 139.703
58.08000 117.808
58.12000 121.953
58.16000 131.794
58.20000 128.781
58.24000 123.946
58.28000 125.033
58.32000 120.841
58.36000 130.027
58.40000 127.323
58.44000 132.127
58.48000 126.173
58.52000 130.892
58.56000 119.996
58.60000 124.038
58.64000 120.452
58.68000 110.283
58.72000 114.608
58.76000 123.333
58.80000 120.686
58.84000 129.876
58.88000 114.217
58.92000 128.117
58.96000 121.010
59.00000 119.477
59.04000 121.148
59.08000 122.219
59.12000 113.275
59.16000 117.651
59.20000 118.756
59.24000 123.904
59.28000 116.019
59.32000 117.740
59.36000 122.694
59.40000 114.406
59.44000 116.656
59.48000 118.571
59.52000 120.703
59.56000 120.459
59.60000 131.473
59.64000 113.940
59.68000 107.952
59.72000 114.161
59.76000 113.748
59.80000 123.711
59.84000 126.482
59.88000 119.105
59.92000 122.496
59.96000 120.907
60.00000 124.987
60.04000 119.742
60.08000 121.068
60.12000 124.957
60.16000 121.081
60.20000 122.881
60.24000 121.001
60.28000 113.011
60.32000 114.885
60.36000 120.500
60.40000 119.000
60.44000 116.638
60.48000 117.301
60.52000 110.010
60.56000 123.162
60.60000 122.585
60.64000 127.820
60.68000 119.814
60.72000 118.971
60.76000 113.663
60.80000 113.036
60.84000 117.423
60.88000 124.294
60.92000 118.807
60.96000 118.427
61.00000 112.203
61.04000 121.021
61.08000 123.171
61.12000 128.632
61.16000 125.838
61.20000 128.805
61.24000 121.196
61.28000 123.800
61.32000 127.045
61.36000 125.366
61.40000 124.083
61.44000 134.886
61.48000 131.118
61.52000 176.666
61.56000 227.553
61.60000 298.063
61.64000 333.594
61.68000 346.518
61.72000 368.889
61.76000 352.496
61.80000 259.867
61.84000 195.615
61.88000 154.304
61.92000 146.228
61.96000 139.618
62.00000 135.990
62.04000 130.289
62.08000 123.389
62.12000 139.101
62.16000 130.867
62.20000 127.554
62.24000 132.672
62.28000 136.227
62.32000 134.541
62.36000 136.254
62.40000 126.627
62.44000 128.505
62.48000 128.657
62.52000 139.553
62.56000 134.763
62.60000 134.449
62.64000 135.627
62.68000 132.275
62.72000 142.931
62.76000 128.675
62.80000 132.516
62.84000 142.879
62.88000 138.266
62.92000 148.020
62.96000 145.220
63.00000 135.484
63.04000 148.150
63.08000 139.365
63.12000 136.637
63.16000 139.783
63.20000 142.994
63.24000 142.891
63.28000 130.657
63.32000 143.805
63.36000 136.601
63.40000 132.446
63.44000 144.135
63.48000 136.708
63.52000 144.518
63.56000 144.298
63.60000 143.754
63.64000 131.671
63.68000 144.514
63.72000 143.056
63.76000 159.030
63.80000 145.299
63.84000 139.591
63.88000 153.443
63.92000 150.853
63.96000 160.813
64.00000 153.360
64.04000 150.489
64.08000 156.398
64.12000 147.670
64.16000 152.847
64.20000 155.433
64.24000 155.507
64.28000 174.864
64.32000 162.635
64.36000 159.342
64.40000 167.806
64.44000 171.976
64.48000 153.052
64.52000 176.643
64.56000 170.748
64.60000 158.885
64.64000 172.564
64.68000 181.460
64.72000 180.711
64.76000 173.350
64.80000 191.914
64.84000 185.873
64.88000 192.865
64.92000 187.862
64.96000 196.631
65.00000 201.275
65.04000 209.110
65.08000 207.823
65.12000 219.422
65.16000 229.095
65.20000 231.633
65.24000 250.783
65.28000 254.524
65.32000 288.798
65.36000 307.376
65.40000 343.962
65.44000 376.136
65.48000 412.326
65.52000 444.907
65.56000 497.998
65.60000 545.847
65.64000 605.326
65.68000 841.840
65.72000 1302.380
65.76000 1918.670
65.80000 2431.173
65.84000 2643.732
65.88000 2658.783
65.92000 2514.585
65.96000 2018.994
66.00000 1349.199
66.04000 844.211
66.08000 586.390
66.12000 481.066
66.16000 430.531
66.20000 445.212
66.24000 483.140
66.28000 563.463
66.32000 660.896
66.36000 761.731
66.40000 788.410
66.44000 798.016
66.48000 734.255
66.52000 670.277
66.56000 537.310
66.60000 462.668
66.64000 422.510
66.68000 413.256
66.72000 424.109
66.76000 404.252
66.80000 412.223
66.84000 413.443
66.88000 416.597
66.92000 414.946
66.96000 414.638
67.00000 433.515
67.04000 430.291
67.08000 434.073
67.12000 441.492
67.16000 440.484
67.20000 418.076
67.24000 449.721
67.28000 462.141
67.32000 439.287
67.36000 478.842
67.40000 478.477
67.44000 480.784
67.48000 482.323
67.52000 476.867
67.56000 496.804
67.60000 486.774
67.64000 515.486
67.68000 500.641
67.72000 505.762
67.76000 508.776
67.80000 517.864
67.84000 551.711
67.88000 543.823
67.92000 566.009
67.96000 573.208
68.00000 573.578
68.04000 581.156
68.08000 587.306
68.12000 614.838
68.16000 599.372
68.20000 625.759
68.24000 650.526
68.28000 665.852
68.32000 701.838
68.36000 688.942
68.40000 719.764
68.44000 781.203
68.48000 789.962
68.52000 864.270
68.56000 891.024
68.60000 1014.272
68.64000 1234.566
68.68000 1435.615
68.72000 1696.843
68.76000 1902.946
68.80000 2178.569
68.84000 2515.377
68.88000 3285.553
68.92000 5620.534
68.96000 13572.352
69.00000 30864.775
69.04000 48806.605
69.08000 58170.801
69.12000 61891.289
69.16000 65723.211
69.20000 64404.863
69.24000 52056.027
69.28000 38732.438
69.32000 31752.762
69.36000 29353.846
69.40000 24279.127
69.44000 14661.835
69.48000 6371.861
69.52000 2937.251
69.56000 1759.312
69.60000 1357.556
69.64000 1146.155
69.68000 976.748
69.72000 878.802
69.76000 784.488
69.80000 731.534
69.84000 683.013
69.88000 638.245
69.92000 604.450
69.96000 577.885
70.00000 558.340