File: XRD/XRD/09-10-2025 Dep 8/XY Data/BTO_Mapping_Theta2Theta_09-10-2025_001_54_6-691_-7-431.xy
20.00000 469.441
20.04000 504.463
20.08000 496.315
20.12000 495.496
20.16000 489.709
20.20000 485.856
20.24000 498.171
20.28000 484.749
20.32000 492.002
20.36000 497.016
20.40000 479.186
20.44000 492.996
20.48000 485.861
20.52000 473.881
20.56000 490.539
20.60000 482.672
20.64000 481.270
20.68000 492.950
20.72000 497.401
20.76000 478.113
20.80000 478.111
20.84000 464.930
20.88000 469.636
20.92000 496.270
20.96000 466.611
21.00000 476.993
21.04000 503.363
21.08000 477.956
21.12000 460.458
21.16000 488.420
21.20000 513.898
21.24000 514.675
21.28000 488.272
21.32000 468.883
21.36000 454.053
21.40000 486.741
21.44000 472.081
21.48000 484.459
21.52000 489.016
21.56000 468.434
21.60000 476.699
21.64000 480.164
21.68000 492.706
21.72000 483.715
21.76000 497.895
21.80000 512.162
21.84000 536.546
21.88000 552.589
21.92000 567.410
21.96000 581.995
22.00000 597.093
22.04000 623.635
22.08000 615.662
22.12000 643.981
22.16000 635.000
22.20000 640.163
22.24000 589.151
22.28000 582.899
22.32000 554.581
22.36000 535.700
22.40000 519.599
22.44000 506.491
22.48000 491.789
22.52000 469.011
22.56000 471.350
22.60000 474.630
22.64000 472.481
22.68000 496.608
22.72000 444.495
22.76000 467.015
22.80000 460.383
22.84000 471.255
22.88000 453.792
22.92000 413.407
22.96000 439.453
23.00000 438.777
23.04000 441.835
23.08000 450.364
23.12000 432.372
23.16000 437.453
23.20000 437.394
23.24000 442.144
23.28000 456.284
23.32000 429.492
23.36000 441.217
23.40000 432.124
23.44000 434.973
23.48000 422.179
23.52000 454.949
23.56000 438.827
23.60000 420.923
23.64000 423.062
23.68000 418.275
23.72000 434.704
23.76000 428.874
23.80000 439.696
23.84000 421.992
23.88000 432.740
23.92000 426.098
23.96000 444.817
24.00000 418.676
24.04000 420.387
24.08000 414.663
24.12000 427.585
24.16000 434.690
24.20000 423.866
24.24000 408.104
24.28000 442.952
24.32000 430.046
24.36000 426.464
24.40000 414.081
24.44000 436.073
24.48000 421.419
24.52000 420.606
24.56000 419.918
24.60000 399.333
24.64000 398.855
24.68000 405.878
24.72000 414.519
24.76000 429.186
24.80000 402.402
24.84000 413.668
24.88000 420.237
24.92000 421.103
24.96000 420.116
25.00000 399.907
25.04000 413.824
25.08000 409.758
25.12000 401.408
25.16000 398.335
25.20000 404.127
25.24000 426.027
25.28000 431.973
25.32000 416.130
25.36000 410.554
25.40000 398.176
25.44000 403.970
25.48000 416.518
25.52000 392.900
25.56000 400.297
25.60000 406.226
25.64000 411.303
25.68000 405.753
25.72000 404.930
25.76000 400.552
25.80000 399.412
25.84000 397.731
25.88000 402.825
25.92000 391.626
25.96000 401.170
26.00000 403.277
26.04000 401.249
26.08000 397.996
26.12000 399.628
26.16000 405.481
26.20000 391.867
26.24000 406.454
26.28000 394.186
26.32000 408.169
26.36000 376.419
26.40000 378.360
26.44000 393.941
26.48000 381.309
26.52000 386.254
26.56000 399.388
26.60000 397.160
26.64000 387.944
26.68000 382.839
26.72000 393.557
26.76000 394.239
26.80000 385.958
26.84000 380.192
26.88000 382.995
26.92000 402.769
26.96000 389.612
27.00000 386.677
27.04000 364.022
27.08000 362.839
27.12000 384.681
27.16000 400.930
27.20000 374.167
27.24000 384.462
27.28000 390.445
27.32000 385.547
27.36000 386.300
27.40000 382.474
27.44000 381.865
27.48000 379.042
27.52000 394.724
27.56000 374.847
27.60000 373.617
27.64000 386.426
27.68000 380.698
27.72000 374.943
27.76000 368.826
27.80000 364.984
27.84000 384.271
27.88000 384.272
27.92000 396.848
27.96000 366.488
28.00000 378.188
28.04000 380.061
28.08000 385.276
28.12000 378.183
28.16000 363.840
28.20000 381.973
28.24000 392.181
28.28000 358.246
28.32000 387.234
28.36000 374.120
28.40000 364.196
28.44000 356.688
28.48000 370.408
28.52000 374.192
28.56000 374.663
28.60000 367.031
28.64000 372.754
28.68000 380.182
28.72000 374.132
28.76000 368.733
28.80000 354.761
28.84000 352.158
28.88000 370.177
28.92000 370.811
28.96000 385.488
29.00000 367.420
29.04000 359.716
29.08000 357.570
29.12000 370.420
29.16000 386.838
29.20000 366.608
29.24000 364.473
29.28000 365.504
29.32000 369.177
29.36000 369.380
29.40000 378.512
29.44000 357.379
29.48000 356.241
29.52000 369.680
29.56000 365.565
29.60000 373.153
29.64000 362.628
29.68000 375.335
29.72000 383.847
29.76000 387.981
29.80000 385.841
29.84000 401.009
29.88000 429.307
29.92000 422.513
29.96000 455.224
30.00000 451.297
30.04000 462.483
30.08000 465.623
30.12000 455.622
30.16000 445.922
30.20000 478.728
30.24000 428.204
30.28000 418.448
30.32000 398.509
30.36000 411.700
30.40000 424.752
30.44000 414.590
30.48000 401.678
30.52000 399.449
30.56000 405.517
30.60000 394.266
30.64000 409.916
30.68000 418.294
30.72000 432.695
30.76000 419.791
30.80000 449.936
30.84000 449.160
30.88000 470.378
30.92000 486.527
30.96000 500.050
31.00000 541.042
31.04000 619.485
31.08000 678.969
31.12000 862.124
31.16000 1068.922
31.20000 1394.521
31.24000 1736.120
31.28000 2257.068
31.32000 2713.814
31.36000 3091.307
31.40000 3214.859
31.44000 3194.672
31.48000 2820.322
31.52000 2447.616
31.56000 1935.933
31.60000 1552.768
31.64000 1177.831
31.68000 961.401
31.72000 779.970
31.76000 649.463
31.80000 558.072
31.84000 535.055
31.88000 475.262
31.92000 439.580
31.96000 431.196
32.00000 410.074
32.04000 392.008
32.08000 379.775
32.12000 363.765
32.16000 354.127
32.20000 369.245
32.24000 358.856
32.28000 375.237
32.32000 349.835
32.36000 341.712
32.40000 338.444
32.44000 344.574
32.48000 313.240
32.52000 322.935
32.56000 357.288
32.60000 336.576
32.64000 342.487
32.68000 346.377
32.72000 344.919
32.76000 341.519
32.80000 336.397
32.84000 341.632
32.88000 321.316
32.92000 314.179
32.96000 329.965
33.00000 329.150
33.04000 310.174
33.08000 322.877
33.12000 291.927
33.16000 302.235
33.20000 311.550
33.24000 306.086
33.28000 310.570
33.32000 308.875
33.36000 299.187
33.40000 303.272
33.44000 302.971
33.48000 299.174
33.52000 277.966
33.56000 301.636
33.60000 306.915
33.64000 289.294
33.68000 292.167
33.72000 306.100
33.76000 285.100
33.80000 287.906
33.84000 301.831
33.88000 306.365
33.92000 316.277
33.96000 295.039
34.00000 294.699
34.04000 283.162
34.08000 291.464
34.12000 290.100
34.16000 280.719
34.20000 310.822
34.24000 276.918
34.28000 292.156
34.32000 289.907
34.36000 297.125
34.40000 285.535
34.44000 280.230
34.48000 293.931
34.52000 288.968
34.56000 286.691
34.60000 285.497
34.64000 288.561
34.68000 276.833
34.72000 278.671
34.76000 283.597
34.80000 289.022
34.84000 299.303
34.88000 282.984
34.92000 275.005
34.96000 269.992
35.00000 271.430
35.04000 282.730
35.08000 289.258
35.12000 280.819
35.16000 273.197
35.20000 275.964
35.24000 271.239
35.28000 267.897
35.32000 268.330
35.36000 273.733
35.40000 268.497
35.44000 280.081
35.48000 249.756
35.52000 273.309
35.56000 278.932
35.60000 263.551
35.64000 262.038
35.68000 262.568
35.72000 267.457
35.76000 265.845
35.80000 277.944
35.84000 269.729
35.88000 289.205
35.92000 262.997
35.96000 271.084
36.00000 262.656
36.04000 260.207
36.08000 265.138
36.12000 248.995
36.16000 259.513
36.20000 257.565
36.24000 265.746
36.28000 261.292
36.32000 269.327
36.36000 266.992
36.40000 266.501
36.44000 269.320
36.48000 253.422
36.52000 260.130
36.56000 273.963
36.60000 269.415
36.64000 259.611
36.68000 260.279
36.72000 260.815
36.76000 272.657
36.80000 275.772
36.84000 271.902
36.88000 279.475
36.92000 281.649
36.96000 278.866
37.00000 287.411
37.04000 294.484
37.08000 291.435
37.12000 283.295
37.16000 280.364
37.20000 283.086
37.24000 278.561
37.28000 268.532
37.32000 274.759
37.36000 245.220
37.40000 269.559
37.44000 273.664
37.48000 257.982
37.52000 253.429
37.56000 258.798
37.60000 259.587
37.64000 265.100
37.68000 265.352
37.72000 262.537
37.76000 263.367
37.80000 257.485
37.84000 257.383
37.88000 269.638
37.92000 260.149
37.96000 275.547
38.00000 265.301
38.04000 267.638
38.08000 282.569
38.12000 260.088
38.16000 263.944
38.20000 291.420
38.24000 290.654
38.28000 296.854
38.32000 306.711
38.36000 311.250
38.40000 342.127
38.44000 377.114
38.48000 426.420
38.52000 530.224
38.56000 653.999
38.60000 767.206
38.64000 920.479
38.68000 1069.626
38.72000 1113.737
38.76000 1114.500
38.80000 1028.724
38.84000 932.618
38.88000 787.224
38.92000 633.193
38.96000 492.177
39.00000 425.214
39.04000 363.490
39.08000 318.261
39.12000 305.094
39.16000 283.019
39.20000 266.078
39.24000 248.528
39.28000 259.703
39.32000 257.044
39.36000 264.969
39.40000 251.845
39.44000 262.032
39.48000 245.770
39.52000 249.165
39.56000 250.269
39.60000 232.325
39.64000 228.111
39.68000 224.388
39.72000 239.595
39.76000 247.851
39.80000 232.100
39.84000 228.455
39.88000 232.672
39.92000 234.002
39.96000 237.057
40.00000 235.802
40.04000 238.294
40.08000 233.941
40.12000 226.916
40.16000 228.977
40.20000 220.732
40.24000 240.007
40.28000 227.731
40.32000 233.745
40.36000 229.645
40.40000 225.665
40.44000 228.659
40.48000 221.921
40.52000 216.123
40.56000 226.458
40.60000 235.420
40.64000 224.584
40.68000 227.881
40.72000 227.191
40.76000 222.199
40.80000 226.430
40.84000 220.078
40.88000 217.981
40.92000 205.659
40.96000 222.005
41.00000 213.749
41.04000 222.382
41.08000 213.457
41.12000 222.590
41.16000 215.423
41.20000 205.244
41.24000 216.028
41.28000 207.439
41.32000 209.467
41.36000 218.701
41.40000 211.675
41.44000 210.506
41.48000 213.991
41.52000 220.551
41.56000 211.128
41.60000 213.725
41.64000 209.676
41.68000 208.004
41.72000 212.105
41.76000 225.067
41.80000 211.977
41.84000 209.478
41.88000 209.057
41.92000 222.435
41.96000 211.420
42.00000 217.443
42.04000 208.562
42.08000 195.310
42.12000 214.950
42.16000 199.783
42.20000 202.040
42.24000 202.427
42.28000 203.886
42.32000 212.719
42.36000 198.295
42.40000 201.607
42.44000 211.702
42.48000 212.185
42.52000 207.266
42.56000 208.907
42.60000 210.325
42.64000 201.811
42.68000 197.222
42.72000 201.864
42.76000 202.456
42.80000 207.182
42.84000 201.811
42.88000 198.854
42.92000 210.871
42.96000 212.618
43.00000 197.766
43.04000 203.963
43.08000 198.949
43.12000 202.295
43.16000 211.499
43.20000 220.491
43.24000 201.760
43.28000 210.884
43.32000 193.552
43.36000 201.012
43.40000 206.009
43.44000 199.224
43.48000 212.473
43.52000 204.944
43.56000 198.297
43.60000 199.390
43.64000 200.270
43.68000 199.164
43.72000 209.273
43.76000 195.902
43.80000 202.992
43.84000 193.087
43.88000 199.246
43.92000 197.498
43.96000 196.798
44.00000 206.077
44.04000 201.854
44.08000 206.323
44.12000 192.750
44.16000 192.044
44.20000 194.350
44.24000 203.033
44.28000 203.339
44.32000 194.021
44.36000 205.021
44.40000 198.876
44.44000 196.968
44.48000 203.764
44.52000 208.063
44.56000 205.525
44.60000 210.140
44.64000 213.212
44.68000 212.325
44.72000 207.898
44.76000 225.847
44.80000 215.040
44.84000 226.634
44.88000 246.824
44.92000 258.164
44.96000 288.261
45.00000 297.217
45.04000 309.701
45.08000 312.468
45.12000 302.449
45.16000 325.487
45.20000 316.921
45.24000 309.570
45.28000 321.047
45.32000 313.284
45.36000 291.948
45.40000 273.284
45.44000 279.464
45.48000 250.909
45.52000 247.923
45.56000 249.811
45.60000 232.123
45.64000 229.038
45.68000 218.581
45.72000 235.001
45.76000 210.888
45.80000 195.250
45.84000 203.852
45.88000 209.925
45.92000 199.550
45.96000 207.094
46.00000 190.535
46.04000 196.122
46.08000 192.304
46.12000 184.911
46.16000 192.529
46.20000 195.444
46.24000 183.357
46.28000 166.708
46.32000 176.179
46.36000 178.740
46.40000 168.021
46.44000 179.182
46.48000 182.002
46.52000 179.046
46.56000 179.164
46.60000 179.104
46.64000 181.569
46.68000 174.604
46.72000 184.940
46.76000 175.241
46.80000 183.735
46.84000 181.850
46.88000 175.244
46.92000 171.310
46.96000 172.382
47.00000 178.348
47.04000 178.161
47.08000 169.565
47.12000 173.505
47.16000 179.578
47.20000 171.256
47.24000 163.171
47.28000 167.544
47.32000 175.485
47.36000 158.474
47.40000 168.792
47.44000 161.378
47.48000 163.572
47.52000 170.418
47.56000 158.958
47.60000 162.905
47.64000 176.957
47.68000 158.775
47.72000 164.905
47.76000 160.167
47.80000 162.554
47.84000 157.847
47.88000 171.022
47.92000 173.289
47.96000 168.311
48.00000 161.653
48.04000 164.295
48.08000 171.355
48.12000 162.664
48.16000 161.172
48.20000 165.665
48.24000 154.836
48.28000 149.677
48.32000 162.253
48.36000 158.033
48.40000 165.505
48.44000 160.659
48.48000 163.907
48.52000 166.785
48.56000 166.401
48.60000 168.263
48.64000 167.883
48.68000 162.889
48.72000 155.929
48.76000 156.661
48.80000 155.262
48.84000 159.913
48.88000 170.199
48.92000 160.896
48.96000 149.486
49.00000 160.233
49.04000 159.607
49.08000 154.824
49.12000 151.695
49.16000 163.128
49.20000 169.301
49.24000 150.440
49.28000 158.279
49.32000 150.381
49.36000 162.263
49.40000 149.071
49.44000 152.388
49.48000 153.970
49.52000 141.952
49.56000 154.044
49.60000 156.144
49.64000 151.351
49.68000 156.061
49.72000 158.513
49.76000 155.614
49.80000 154.085
49.84000 166.242
49.88000 159.414
49.92000 143.772
49.96000 153.899
50.00000 145.052
50.04000 155.274
50.08000 164.510
50.12000 165.087
50.16000 169.741
50.20000 166.767
50.24000 166.364
50.28000 161.090
50.32000 158.061
50.36000 159.463
50.40000 166.785
50.44000 169.341
50.48000 177.350
50.52000 178.619
50.56000 181.654
50.60000 195.774
50.64000 213.419
50.68000 229.422
50.72000 224.644
50.76000 220.200
50.80000 236.684
50.84000 233.046
50.88000 225.874
50.92000 205.160
50.96000 192.310
51.00000 198.743
51.04000 192.288
51.08000 170.238
51.12000 165.054
51.16000 178.130
51.20000 167.403
51.24000 163.680
51.28000 168.927
51.32000 167.193
51.36000 159.742
51.40000 157.447
51.44000 149.715
51.48000 155.682
51.52000 165.954
51.56000 157.866
51.60000 147.555
51.64000 143.903
51.68000 145.955
51.72000 143.220
51.76000 138.608
51.80000 133.131
51.84000 143.208
51.88000 129.711
51.92000 144.664
51.96000 155.795
52.00000 149.083
52.04000 147.045
52.08000 150.797
52.12000 146.700
52.16000 137.967
52.20000 146.046
52.24000 141.450
52.28000 136.281
52.32000 153.127
52.36000 141.467
52.40000 147.380
52.44000 144.296
52.48000 145.084
52.52000 131.581
52.56000 140.807
52.60000 138.374
52.64000 141.073
52.68000 135.369
52.72000 154.965
52.76000 134.478
52.80000 139.525
52.84000 139.449
52.88000 138.234
52.92000 147.723
52.96000 143.231
53.00000 154.867
53.04000 152.000
53.08000 151.172
53.12000 142.299
53.16000 152.722
53.20000 146.921
53.24000 149.948
53.28000 146.931
53.32000 148.015
53.36000 153.365
53.40000 146.030
53.44000 152.781
53.48000 159.520
53.52000 151.817
53.56000 152.600
53.60000 153.220
53.64000 141.661
53.68000 144.268
53.72000 143.414
53.76000 150.237
53.80000 145.129
53.84000 146.469
53.88000 135.408
53.92000 153.507
53.96000 145.783
54.00000 141.172
54.04000 137.077
54.08000 136.692
54.12000 145.875
54.16000 144.511
54.20000 138.162
54.24000 140.127
54.28000 135.769
54.32000 144.569
54.36000 136.656
54.40000 158.032
54.44000 143.211
54.48000 139.044
54.52000 138.052
54.56000 134.857
54.60000 148.356
54.64000 141.594
54.68000 144.383
54.72000 135.763
54.76000 134.385
54.80000 135.070
54.84000 146.310
54.88000 138.788
54.92000 137.454
54.96000 145.270
55.00000 132.794
55.04000 148.609
55.08000 144.903
55.12000 153.052
55.16000 147.562
55.20000 147.296
55.24000 145.257
55.28000 146.065
55.32000 152.248
55.36000 178.932
55.40000 166.259
55.44000 169.464
55.48000 174.367
55.52000 178.254
55.56000 188.529
55.60000 192.841
55.64000 210.684
55.68000 242.600
55.72000 281.815
55.76000 322.149
55.80000 359.705
55.84000 419.028
55.88000 465.159
55.92000 513.418
55.96000 537.013
56.00000 551.307
56.04000 554.238
56.08000 514.594
56.12000 446.435
56.16000 411.379
56.20000 378.438
56.24000 325.540
56.28000 296.034
56.32000 266.865
56.36000 256.648
56.40000 214.772
56.44000 203.535
56.48000 187.899
56.52000 179.809
56.56000 183.455
56.60000 154.752
56.64000 160.390
56.68000 159.136
56.72000 161.921
56.76000 151.988
56.80000 143.548
56.84000 144.737
56.88000 149.696
56.92000 138.136
56.96000 147.395
57.00000 150.211
57.04000 144.347
57.08000 127.861
57.12000 131.833
57.16000 129.892
57.20000 128.124
57.24000 131.705
57.28000 132.942
57.32000 124.322
57.36000 134.951
57.40000 136.000
57.44000 127.308
57.48000 127.299
57.52000 136.363
57.56000 124.426
57.60000 120.272
57.64000 130.701
57.68000 124.159
57.72000 129.983
57.76000 121.894
57.80000 122.356
57.84000 118.713
57.88000 128.116
57.92000 119.456
57.96000 125.487
58.00000 134.660
58.04000 126.789
58.08000 128.802
58.12000 127.649
58.16000 122.313
58.20000 129.522
58.24000 120.815
58.28000 125.844
58.32000 126.100
58.36000 124.221
58.40000 121.718
58.44000 116.963
58.48000 131.350
58.52000 118.492
58.56000 125.894
58.60000 117.848
58.64000 131.028
58.68000 110.783
58.72000 116.920
58.76000 114.991
58.80000 127.651
58.84000 121.322
58.88000 120.537
58.92000 124.185
58.96000 128.110
59.00000 115.724
59.04000 124.988
59.08000 134.174
59.12000 130.433
59.16000 121.602
59.20000 119.163
59.24000 122.411
59.28000 127.544
59.32000 127.014
59.36000 120.743
59.40000 118.292
59.44000 124.705
59.48000 118.849
59.52000 122.263
59.56000 117.388
59.60000 110.384
59.64000 110.257
59.68000 111.679
59.72000 117.908
59.76000 114.981
59.80000 124.334
59.84000 118.479
59.88000 110.920
59.92000 115.611
59.96000 111.783
60.00000 117.937
60.04000 116.350
60.08000 122.583
60.12000 114.644
60.16000 120.726
60.20000 119.674
60.24000 113.469
60.28000 120.304
60.32000 117.447
60.36000 117.352
60.40000 118.710
60.44000 124.129
60.48000 115.598
60.52000 111.286
60.56000 117.988
60.60000 115.079
60.64000 128.573
60.68000 125.333
60.72000 122.042
60.76000 119.379
60.80000 124.159
60.84000 125.686
60.88000 122.141
60.92000 118.720
60.96000 118.355
61.00000 117.553
61.04000 126.511
61.08000 130.358
61.12000 115.216
61.16000 125.458
61.20000 130.509
61.24000 115.856
61.28000 121.783
61.32000 121.921
61.36000 120.450
61.40000 127.189
61.44000 135.589
61.48000 138.058
61.52000 172.409
61.56000 236.577
61.60000 295.827
61.64000 335.890
61.68000 342.122
61.72000 355.872
61.76000 310.460
61.80000 249.092
61.84000 182.207
61.88000 155.638
61.92000 144.754
61.96000 137.918
62.00000 129.892
62.04000 141.056
62.08000 137.329
62.12000 129.814
62.16000 136.476
62.20000 131.583
62.24000 137.700
62.28000 130.922
62.32000 135.859
62.36000 131.582
62.40000 138.735
62.44000 135.787
62.48000 139.237
62.52000 136.553
62.56000 145.117
62.60000 130.337
62.64000 133.199
62.68000 134.732
62.72000 134.437
62.76000 133.091
62.80000 139.747
62.84000 139.077
62.88000 135.180
62.92000 130.127
62.96000 136.193
63.00000 141.827
63.04000 149.399
63.08000 141.963
63.12000 127.313
63.16000 142.233
63.20000 132.797
63.24000 148.105
63.28000 139.896
63.32000 139.876
63.36000 135.493
63.40000 140.393
63.44000 141.799
63.48000 140.386
63.52000 136.050
63.56000 136.189
63.60000 146.119
63.64000 143.853
63.68000 144.250
63.72000 143.610
63.76000 142.058
63.80000 140.851
63.84000 154.868
63.88000 144.658
63.92000 153.482
63.96000 151.481
64.00000 165.213
64.04000 154.226
64.08000 152.817
64.12000 150.613
64.16000 148.818
64.20000 150.965
64.24000 159.344
64.28000 148.491
64.32000 167.443
64.36000 163.914
64.40000 160.839
64.44000 167.436
64.48000 161.134
64.52000 165.452
64.56000 169.136
64.60000 170.826
64.64000 180.138
64.68000 180.470
64.72000 185.446
64.76000 179.381
64.80000 186.778
64.84000 194.586
64.88000 190.166
64.92000 193.329
64.96000 192.578
65.00000 203.987
65.04000 200.464
65.08000 211.555
65.12000 222.500
65.16000 232.473
65.20000 244.113
65.24000 266.780
65.28000 264.280
65.32000 275.447
65.36000 315.118
65.40000 337.896
65.44000 391.853
65.48000 428.734
65.52000 455.688
65.56000 494.320
65.60000 559.242
65.64000 654.432
65.68000 849.727
65.72000 1299.460
65.76000 1895.442
65.80000 2361.701
65.84000 2532.675
65.88000 2532.583
65.92000 2427.565
65.96000 1921.442
66.00000 1254.481
66.04000 762.540
66.08000 557.517
66.12000 457.262
66.16000 450.795
66.20000 436.566
66.24000 470.777
66.28000 545.243
66.32000 656.375
66.36000 746.933
66.40000 750.863
66.44000 752.639
66.48000 716.252
66.52000 616.007
66.56000 517.697
66.60000 459.942
66.64000 410.277
66.68000 402.182
66.72000 395.158
66.76000 396.367
66.80000 397.469
66.84000 405.018
66.88000 400.666
66.92000 406.775
66.96000 406.487
67.00000 424.638
67.04000 421.469
67.08000 419.189
67.12000 424.128
67.16000 426.281
67.20000 449.779
67.24000 443.794
67.28000 430.231
67.32000 447.690
67.36000 460.127
67.40000 453.011
67.44000 480.133
67.48000 472.995
67.52000 464.827
67.56000 488.318
67.60000 489.312
67.64000 492.678
67.68000 489.771
67.72000 493.242
67.76000 512.661
67.80000 520.999
67.84000 549.618
67.88000 528.615
67.92000 548.778
67.96000 542.677
68.00000 580.321
68.04000 581.717
68.08000 591.150
68.12000 626.080
68.16000 604.554
68.20000 605.523
68.24000 623.592
68.28000 634.560
68.32000 662.008
68.36000 688.788
68.40000 695.697
68.44000 733.233
68.48000 776.061
68.52000 838.255
68.56000 913.243
68.60000 1005.101
68.64000 1201.285
68.68000 1396.486
68.72000 1675.190
68.76000 1851.000
68.80000 2136.615
68.84000 2453.747
68.88000 3232.605
68.92000 5666.249
68.96000 13892.428
69.00000 31214.574
69.04000 47580.867
69.08000 56240.926
69.12000 59588.598
69.16000 63216.641
69.20000 61117.406
69.24000 48582.766
69.28000 36470.016
69.32000 30260.268
69.36000 27997.518
69.40000 22723.635
69.44000 13214.916
69.48000 5693.348
69.52000 2667.367
69.56000 1626.811
69.60000 1286.563
69.64000 1093.737
69.68000 958.846
69.72000 843.834
69.76000 772.550
69.80000 728.124
69.84000 667.734
69.88000 619.755
69.92000 596.246
69.96000 557.432
70.00000 566.491