File: XRD/XRD/09-10-2025 Dep 8/XY Data/BTO_Mapping_Theta2Theta_09-10-2025_001_07_18-271_8-135.xy
20.00000 470.301
20.04000 472.461
20.08000 475.941
20.12000 491.080
20.16000 494.152
20.20000 492.560
20.24000 486.637
20.28000 495.815
20.32000 484.149
20.36000 483.218
20.40000 477.830
20.44000 485.747
20.48000 482.244
20.52000 491.485
20.56000 489.888
20.60000 493.283
20.64000 476.646
20.68000 479.100
20.72000 471.351
20.76000 466.553
20.80000 473.905
20.84000 482.748
20.88000 498.493
20.92000 479.010
20.96000 489.466
21.00000 466.386
21.04000 486.911
21.08000 466.641
21.12000 475.504
21.16000 469.918
21.20000 473.241
21.24000 481.074
21.28000 477.170
21.32000 463.650
21.36000 481.831
21.40000 462.369
21.44000 478.323
21.48000 490.164
21.52000 474.755
21.56000 496.770
21.60000 480.861
21.64000 477.782
21.68000 474.384
21.72000 490.306
21.76000 491.705
21.80000 493.527
21.84000 492.250
21.88000 506.094
21.92000 516.610
21.96000 555.868
22.00000 540.423
22.04000 550.549
22.08000 561.696
22.12000 592.208
22.16000 590.241
22.20000 580.743
22.24000 575.776
22.28000 572.451
22.32000 544.403
22.36000 549.871
22.40000 530.077
22.44000 521.004
22.48000 507.644
22.52000 510.661
22.56000 480.060
22.60000 461.682
22.64000 471.434
22.68000 458.552
22.72000 454.944
22.76000 447.480
22.80000 448.861
22.84000 435.044
22.88000 447.516
22.92000 444.892
22.96000 438.760
23.00000 452.993
23.04000 438.463
23.08000 455.878
23.12000 451.552
23.16000 443.677
23.20000 449.596
23.24000 445.104
23.28000 438.712
23.32000 430.447
23.36000 432.134
23.40000 447.999
23.44000 424.418
23.48000 443.353
23.52000 435.966
23.56000 442.482
23.60000 424.390
23.64000 432.469
23.68000 424.509
23.72000 441.895
23.76000 444.385
23.80000 440.923
23.84000 431.055
23.88000 423.034
23.92000 440.063
23.96000 445.898
24.00000 449.679
24.04000 428.281
24.08000 429.273
24.12000 419.463
24.16000 443.325
24.20000 423.056
24.24000 416.131
24.28000 433.172
24.32000 419.316
24.36000 419.259
24.40000 424.790
24.44000 418.524
24.48000 410.902
24.52000 418.244
24.56000 399.298
24.60000 425.250
24.64000 408.247
24.68000 425.970
24.72000 415.406
24.76000 418.167
24.80000 415.053
24.84000 411.854
24.88000 406.420
24.92000 408.243
24.96000 410.711
25.00000 419.119
25.04000 415.864
25.08000 399.251
25.12000 409.972
25.16000 414.081
25.20000 413.826
25.24000 412.587
25.28000 410.304
25.32000 412.360
25.36000 403.167
25.40000 383.651
25.44000 405.170
25.48000 415.175
25.52000 386.303
25.56000 389.987
25.60000 378.057
25.64000 399.551
25.68000 388.968
25.72000 398.683
25.76000 395.164
25.80000 411.268
25.84000 395.444
25.88000 399.241
25.92000 411.880
25.96000 402.241
26.00000 399.454
26.04000 393.807
26.08000 396.996
26.12000 390.348
26.16000 385.460
26.20000 397.595
26.24000 381.730
26.28000 399.438
26.32000 383.884
26.36000 393.737
26.40000 378.816
26.44000 408.250
26.48000 398.813
26.52000 406.148
26.56000 383.664
26.60000 396.626
26.64000 396.418
26.68000 395.359
26.72000 395.654
26.76000 375.480
26.80000 396.166
26.84000 389.303
26.88000 391.673
26.92000 366.465
26.96000 382.737
27.00000 373.046
27.04000 370.686
27.08000 389.969
27.12000 386.643
27.16000 392.134
27.20000 380.499
27.24000 386.073
27.28000 372.524
27.32000 379.797
27.36000 366.566
27.40000 379.181
27.44000 392.385
27.48000 374.064
27.52000 370.566
27.56000 383.882
27.60000 372.334
27.64000 384.652
27.68000 373.983
27.72000 371.142
27.76000 380.698
27.80000 373.565
27.84000 372.032
27.88000 380.537
27.92000 368.497
27.96000 368.450
28.00000 370.198
28.04000 375.134
28.08000 369.222
28.12000 379.582
28.16000 364.534
28.20000 379.509
28.24000 372.180
28.28000 374.576
28.32000 375.817
28.36000 368.927
28.40000 373.196
28.44000 373.073
28.48000 355.979
28.52000 349.982
28.56000 368.958
28.60000 360.067
28.64000 356.875
28.68000 380.383
28.72000 342.407
28.76000 367.241
28.80000 359.063
28.84000 365.116
28.88000 363.332
28.92000 355.950
28.96000 353.702
29.00000 365.313
29.04000 372.098
29.08000 352.222
29.12000 354.597
29.16000 365.744
29.20000 349.357
29.24000 373.258
29.28000 366.643
29.32000 359.896
29.36000 348.559
29.40000 363.484
29.44000 378.841
29.48000 363.521
29.52000 354.933
29.56000 351.837
29.60000 365.342
29.64000 369.929
29.68000 366.289
29.72000 367.517
29.76000 373.215
29.80000 374.372
29.84000 377.127
29.88000 397.230
29.92000 409.089
29.96000 423.836
30.00000 443.158
30.04000 434.162
30.08000 441.443
30.12000 449.267
30.16000 432.784
30.20000 398.076
30.24000 404.138
30.28000 421.400
30.32000 394.086
30.36000 394.831
30.40000 395.995
30.44000 384.208
30.48000 391.605
30.52000 387.617
30.56000 392.213
30.60000 393.587
30.64000 399.487
30.68000 407.243
30.72000 412.010
30.76000 383.918
30.80000 424.313
30.84000 428.375
30.88000 423.766
30.92000 446.956
30.96000 455.702
31.00000 496.653
31.04000 533.394
31.08000 582.010
31.12000 653.372
31.16000 811.555
31.20000 1050.354
31.24000 1323.675
31.28000 1733.421
31.32000 2090.251
31.36000 2440.373
31.40000 2586.968
31.44000 2681.797
31.48000 2511.303
31.52000 2192.572
31.56000 1819.082
31.60000 1469.545
31.64000 1175.356
31.68000 910.802
31.72000 741.042
31.76000 655.548
31.80000 565.916
31.84000 494.055
31.88000 461.154
31.92000 434.869
31.96000 403.367
32.00000 409.981
32.04000 379.404
32.08000 371.399
32.12000 363.579
32.16000 361.517
32.20000 349.944
32.24000 350.950
32.28000 332.848
32.32000 329.105
32.36000 327.996
32.40000 345.769
32.44000 333.117
32.48000 348.740
32.52000 329.355
32.56000 344.970
32.60000 331.159
32.64000 329.511
32.68000 330.099
32.72000 322.292
32.76000 335.879
32.80000 327.551
32.84000 329.499
32.88000 315.157
32.92000 324.493
32.96000 313.293
33.00000 324.552
33.04000 301.810
33.08000 305.139
33.12000 305.864
33.16000 304.383
33.20000 303.333
33.24000 294.436
33.28000 297.270
33.32000 296.436
33.36000 298.503
33.40000 300.362
33.44000 301.417
33.48000 305.748
33.52000 301.949
33.56000 292.359
33.60000 300.420
33.64000 277.778
33.68000 299.263
33.72000 296.566
33.76000 292.202
33.80000 294.179
33.84000 285.105
33.88000 302.219
33.92000 316.098
33.96000 298.367
34.00000 307.742
34.04000 301.684
34.08000 293.366
34.12000 292.682
34.16000 264.607
34.20000 284.627
34.24000 282.142
34.28000 281.181
34.32000 266.052
34.36000 267.924
34.40000 287.061
34.44000 282.567
34.48000 281.539
34.52000 277.416
34.56000 280.879
34.60000 285.617
34.64000 282.969
34.68000 275.291
34.72000 286.003
34.76000 294.135
34.80000 295.638
34.84000 273.615
34.88000 288.864
34.92000 273.066
34.96000 263.734
35.00000 270.107
35.04000 284.971
35.08000 274.399
35.12000 269.517
35.16000 272.076
35.20000 281.253
35.24000 275.794
35.28000 266.875
35.32000 268.283
35.36000 274.183
35.40000 262.801
35.44000 278.100
35.48000 282.955
35.52000 264.825
35.56000 256.391
35.60000 277.979
35.64000 269.640
35.68000 264.716
35.72000 273.013
35.76000 256.873
35.80000 269.617
35.84000 261.997
35.88000 268.924
35.92000 259.781
35.96000 261.497
36.00000 264.781
36.04000 270.741
36.08000 269.563
36.12000 264.679
36.16000 255.024
36.20000 251.180
36.24000 262.653
36.28000 266.592
36.32000 249.625
36.36000 256.954
36.40000 271.684
36.44000 250.650
36.48000 262.986
36.52000 266.421
36.56000 254.089
36.60000 244.452
36.64000 255.067
36.68000 264.872
36.72000 269.703
36.76000 258.956
36.80000 263.189
36.84000 279.619
36.88000 269.884
36.92000 270.293
36.96000 303.547
37.00000 275.601
37.04000 278.947
37.08000 282.713
37.12000 290.442
37.16000 279.011
37.20000 267.536
37.24000 268.519
37.28000 262.185
37.32000 254.945
37.36000 274.452
37.40000 261.466
37.44000 247.200
37.48000 253.860
37.52000 264.704
37.56000 252.062
37.60000 256.923
37.64000 259.679
37.68000 249.862
37.72000 265.926
37.76000 257.927
37.80000 264.156
37.84000 269.667
37.88000 260.081
37.92000 243.904
37.96000 253.159
38.00000 254.624
38.04000 257.227
38.08000 260.531
38.12000 257.915
38.16000 265.897
38.20000 272.084
38.24000 269.425
38.28000 271.989
38.32000 285.789
38.36000 284.861
38.40000 303.490
38.44000 329.970
38.48000 359.084
38.52000 422.446
38.56000 510.622
38.60000 613.845
38.64000 720.233
38.68000 866.971
38.72000 923.391
38.76000 971.289
38.80000 962.082
38.84000 870.249
38.88000 759.459
38.92000 635.760
38.96000 510.428
39.00000 431.729
39.04000 375.876
39.08000 309.109
39.12000 309.283
39.16000 283.733
39.20000 270.438
39.24000 263.661
39.28000 252.953
39.32000 252.774
39.36000 248.566
39.40000 246.010
39.44000 245.043
39.48000 250.936
39.52000 238.375
39.56000 240.139
39.60000 243.948
39.64000 245.903
39.68000 227.172
39.72000 234.889
39.76000 244.921
39.80000 229.290
39.84000 229.320
39.88000 243.051
39.92000 225.422
39.96000 234.869
40.00000 225.697
40.04000 220.473
40.08000 222.395
40.12000 236.149
40.16000 220.575
40.20000 233.096
40.24000 232.361
40.28000 222.095
40.32000 228.085
40.36000 224.024
40.40000 224.365
40.44000 220.515
40.48000 230.934
40.52000 222.070
40.56000 232.317
40.60000 225.897
40.64000 212.334
40.68000 206.715
40.72000 214.942
40.76000 222.378
40.80000 216.969
40.84000 221.429
40.88000 219.787
40.92000 209.190
40.96000 212.442
41.00000 209.557
41.04000 212.276
41.08000 211.461
41.12000 200.789
41.16000 218.552
41.20000 213.086
41.24000 217.539
41.28000 217.011
41.32000 213.693
41.36000 215.180
41.40000 223.804
41.44000 218.868
41.48000 201.134
41.52000 213.976
41.56000 214.793
41.60000 201.653
41.64000 220.567
41.68000 220.612
41.72000 218.713
41.76000 210.664
41.80000 213.056
41.84000 201.488
41.88000 213.107
41.92000 211.999
41.96000 204.204
42.00000 202.014
42.04000 211.877
42.08000 207.116
42.12000 207.991
42.16000 208.780
42.20000 213.344
42.24000 208.052
42.28000 203.352
42.32000 206.305
42.36000 211.474
42.40000 211.634
42.44000 196.871
42.48000 198.370
42.52000 194.887
42.56000 214.586
42.60000 200.330
42.64000 204.041
42.68000 207.742
42.72000 195.197
42.76000 198.036
42.80000 208.511
42.84000 187.229
42.88000 201.338
42.92000 194.552
42.96000 194.873
43.00000 204.035
43.04000 203.425
43.08000 212.615
43.12000 210.182
43.16000 201.660
43.20000 201.787
43.24000 198.570
43.28000 192.609
43.32000 198.074
43.36000 200.743
43.40000 190.391
43.44000 190.358
43.48000 197.973
43.52000 183.761
43.56000 192.424
43.60000 201.438
43.64000 201.034
43.68000 207.253
43.72000 194.116
43.76000 189.960
43.80000 190.501
43.84000 206.427
43.88000 197.406
43.92000 209.663
43.96000 196.242
44.00000 192.311
44.04000 191.475
44.08000 200.155
44.12000 187.016
44.16000 197.558
44.20000 187.531
44.24000 194.763
44.28000 203.601
44.32000 181.341
44.36000 197.706
44.40000 190.808
44.44000 193.066
44.48000 193.177
44.52000 200.474
44.56000 199.622
44.60000 203.176
44.64000 198.484
44.68000 201.930
44.72000 202.615
44.76000 218.671
44.80000 219.413
44.84000 221.662
44.88000 228.946
44.92000 231.349
44.96000 232.780
45.00000 244.632
45.04000 251.920
45.08000 264.894
45.12000 275.932
45.16000 290.504
45.20000 292.562
45.24000 286.656
45.28000 293.665
45.32000 273.877
45.36000 287.532
45.40000 270.222
45.44000 264.900
45.48000 261.555
45.52000 242.883
45.56000 213.934
45.60000 240.535
45.64000 235.092
45.68000 232.981
45.72000 212.135
45.76000 222.120
45.80000 223.626
45.84000 212.221
45.88000 206.119
45.92000 211.702
45.96000 210.315
46.00000 182.006
46.04000 190.430
46.08000 196.978
46.12000 181.898
46.16000 193.767
46.20000 186.300
46.24000 186.480
46.28000 188.535
46.32000 179.320
46.36000 181.747
46.40000 179.997
46.44000 176.125
46.48000 170.158
46.52000 183.100
46.56000 181.889
46.60000 168.315
46.64000 179.511
46.68000 174.856
46.72000 174.459
46.76000 178.621
46.80000 174.199
46.84000 176.127
46.88000 172.551
46.92000 176.448
46.96000 169.003
47.00000 167.605
47.04000 182.289
47.08000 163.461
47.12000 161.899
47.16000 171.823
47.20000 167.247
47.24000 159.691
47.28000 168.820
47.32000 162.783
47.36000 157.334
47.40000 154.881
47.44000 164.531
47.48000 155.827
47.52000 165.964
47.56000 167.302
47.60000 169.997
47.64000 161.271
47.68000 163.914
47.72000 159.752
47.76000 164.614
47.80000 163.636
47.84000 165.072
47.88000 165.611
47.92000 166.451
47.96000 181.712
48.00000 158.438
48.04000 171.378
48.08000 155.905
48.12000 164.043
48.16000 148.300
48.20000 164.789
48.24000 163.613
48.28000 145.309
48.32000 161.628
48.36000 179.900
48.40000 164.194
48.44000 166.110
48.48000 160.928
48.52000 155.854
48.56000 168.801
48.60000 148.908
48.64000 151.783
48.68000 158.398
48.72000 148.908
48.76000 161.610
48.80000 159.598
48.84000 161.661
48.88000 157.631
48.92000 154.167
48.96000 157.129
49.00000 163.540
49.04000 153.928
49.08000 158.778
49.12000 159.432
49.16000 150.429
49.20000 156.510
49.24000 144.377
49.28000 156.954
49.32000 151.211
49.36000 154.155
49.40000 145.146
49.44000 151.818
49.48000 147.798
49.52000 157.037
49.56000 155.628
49.60000 153.899
49.64000 157.601
49.68000 159.546
49.72000 150.594
49.76000 157.034
49.80000 156.130
49.84000 148.744
49.88000 155.738
49.92000 156.852
49.96000 146.700
50.00000 154.056
50.04000 148.002
50.08000 161.848
50.12000 158.333
50.16000 161.542
50.20000 166.151
50.24000 146.219
50.28000 155.178
50.32000 155.705
50.36000 147.484
50.40000 171.154
50.44000 185.277
50.48000 162.329
50.52000 181.394
50.56000 175.278
50.60000 199.439
50.64000 198.822
50.68000 213.167
50.72000 226.095
50.76000 228.673
50.80000 219.094
50.84000 218.596
50.88000 228.956
50.92000 222.158
50.96000 206.158
51.00000 191.987
51.04000 192.499
51.08000 181.737
51.12000 169.865
51.16000 168.089
51.20000 152.828
51.24000 156.699
51.28000 157.445
51.32000 143.156
51.36000 155.079
51.40000 157.198
51.44000 155.662
51.48000 150.614
51.52000 155.453
51.56000 149.202
51.60000 156.678
51.64000 154.576
51.68000 146.078
51.72000 146.102
51.76000 151.465
51.80000 140.942
51.84000 144.439
51.88000 142.680
51.92000 152.404
51.96000 151.429
52.00000 144.877
52.04000 152.905
52.08000 139.571
52.12000 142.245
52.16000 144.969
52.20000 139.803
52.24000 142.454
52.28000 142.786
52.32000 148.649
52.36000 143.554
52.40000 145.684
52.44000 122.752
52.48000 146.399
52.52000 151.526
52.56000 146.288
52.60000 137.194
52.64000 143.055
52.68000 136.498
52.72000 141.884
52.76000 145.512
52.80000 145.716
52.84000 148.092
52.88000 132.232
52.92000 137.736
52.96000 142.199
53.00000 144.375
53.04000 138.531
53.08000 149.741
53.12000 152.339
53.16000 140.088
53.20000 144.927
53.24000 137.354
53.28000 136.402
53.32000 146.802
53.36000 161.953
53.40000 147.634
53.44000 160.557
53.48000 144.579
53.52000 149.861
53.56000 155.616
53.60000 151.178
53.64000 143.157
53.68000 147.985
53.72000 141.881
53.76000 138.327
53.80000 142.753
53.84000 140.731
53.88000 141.569
53.92000 138.754
53.96000 142.717
54.00000 141.171
54.04000 141.824
54.08000 150.831
54.12000 134.872
54.16000 137.825
54.20000 136.005
54.24000 136.467
54.28000 135.622
54.32000 136.919
54.36000 135.026
54.40000 140.509
54.44000 130.949
54.48000 136.136
54.52000 144.086
54.56000 138.701
54.60000 145.711
54.64000 127.435
54.68000 124.048
54.72000 133.000
54.76000 134.274
54.80000 146.764
54.84000 139.713
54.88000 140.185
54.92000 145.182
54.96000 145.264
55.00000 141.085
55.04000 147.926
55.08000 142.886
55.12000 136.420
55.16000 139.308
55.20000 142.673
55.24000 156.388
55.28000 149.823
55.32000 142.616
55.36000 148.563
55.40000 151.080
55.44000 161.252
55.48000 155.470
55.52000 170.065
55.56000 179.046
55.60000 181.162
55.64000 208.043
55.68000 210.695
55.72000 224.152
55.76000 248.556
55.80000 312.397
55.84000 362.005
55.88000 427.511
55.92000 486.547
55.96000 555.769
56.00000 538.448
56.04000 550.611
56.08000 526.405
56.12000 493.737
56.16000 468.892
56.20000 399.007
56.24000 365.362
56.28000 329.673
56.32000 283.377
56.36000 251.972
56.40000 215.516
56.44000 210.047
56.48000 178.323
56.52000 183.146
56.56000 173.830
56.60000 170.215
56.64000 157.851
56.68000 149.624
56.72000 138.008
56.76000 148.376
56.80000 152.952
56.84000 135.771
56.88000 140.792
56.92000 146.059
56.96000 143.447
57.00000 138.015
57.04000 130.509
57.08000 126.880
57.12000 130.649
57.16000 121.921
57.20000 134.283
57.24000 129.511
57.28000 133.122
57.32000 128.833
57.36000 134.492
57.40000 130.807
57.44000 125.314
57.48000 123.946
57.52000 127.553
57.56000 131.197
57.60000 128.513
57.64000 122.078
57.68000 123.699
57.72000 129.089
57.76000 124.578
57.80000 128.611
57.84000 127.860
57.88000 128.226
57.92000 123.338
57.96000 127.605
58.00000 121.517
58.04000 131.126
58.08000 128.248
58.12000 133.748
58.16000 131.497
58.20000 125.381
58.24000 120.291
58.28000 118.234
58.32000 127.334
58.36000 123.983
58.40000 129.321
58.44000 118.211
58.48000 121.376
58.52000 118.923
58.56000 126.092
58.60000 112.662
58.64000 124.367
58.68000 122.736
58.72000 117.059
58.76000 126.704
58.80000 123.419
58.84000 124.408
58.88000 123.199
58.92000 116.340
58.96000 122.605
59.00000 122.704
59.04000 113.531
59.08000 117.182
59.12000 114.048
59.16000 127.174
59.20000 114.180
59.24000 117.089
59.28000 118.795
59.32000 112.567
59.36000 120.284
59.40000 115.417
59.44000 118.754
59.48000 120.723
59.52000 120.688
59.56000 116.432
59.60000 120.401
59.64000 124.021
59.68000 114.964
59.72000 118.121
59.76000 110.729
59.80000 114.877
59.84000 119.280
59.88000 119.915
59.92000 105.697
59.96000 126.799
60.00000 120.449
60.04000 114.917
60.08000 119.855
60.12000 127.741
60.16000 118.530
60.20000 113.534
60.24000 121.440
60.28000 116.778
60.32000 116.594
60.36000 116.438
60.40000 114.322
60.44000 112.393
60.48000 120.088
60.52000 121.110
60.56000 119.177
60.60000 114.522
60.64000 124.654
60.68000 117.077
60.72000 125.198
60.76000 119.405
60.80000 124.653
60.84000 121.554
60.88000 123.372
60.92000 125.094
60.96000 113.487
61.00000 129.539
61.04000 115.050
61.08000 133.864
61.12000 127.100
61.16000 119.759
61.20000 125.228
61.24000 122.317
61.28000 136.227
61.32000 129.179
61.36000 126.109
61.40000 125.648
61.44000 132.273
61.48000 141.991
61.52000 172.428
61.56000 214.543
61.60000 275.637
61.64000 316.540
61.68000 312.731
61.72000 332.158
61.76000 292.129
61.80000 229.579
61.84000 173.415
61.88000 143.324
61.92000 137.169
61.96000 127.595
62.00000 136.653
62.04000 131.346
62.08000 127.716
62.12000 136.882
62.16000 122.609
62.20000 124.237
62.24000 125.275
62.28000 124.994
62.32000 136.557
62.36000 131.742
62.40000 135.716
62.44000 136.786
62.48000 130.341
62.52000 130.905
62.56000 132.272
62.60000 133.705
62.64000 137.953
62.68000 138.639
62.72000 134.718
62.76000 137.492
62.80000 136.989
62.84000 131.385
62.88000 129.606
62.92000 140.618
62.96000 147.808
63.00000 130.417
63.04000 134.568
63.08000 139.658
63.12000 129.374
63.16000 137.498
63.20000 142.552
63.24000 130.065
63.28000 137.621
63.32000 130.604
63.36000 131.486
63.40000 136.157
63.44000 142.393
63.48000 139.445
63.52000 145.477
63.56000 145.191
63.60000 139.981
63.64000 138.946
63.68000 134.269
63.72000 133.079
63.76000 144.728
63.80000 149.410
63.84000 145.403
63.88000 131.689
63.92000 146.926
63.96000 144.629
64.00000 144.606
64.04000 149.128
64.08000 139.199
64.12000 148.438
64.16000 153.040
64.20000 147.718
64.24000 159.132
64.28000 166.595
64.32000 150.349
64.36000 156.849
64.40000 167.838
64.44000 157.643
64.48000 166.152
64.52000 159.322
64.56000 169.565
64.60000 157.943
64.64000 166.394
64.68000 172.587
64.72000 171.606
64.76000 170.258
64.80000 189.582
64.84000 176.451
64.88000 185.958
64.92000 189.744
64.96000 179.859
65.00000 193.334
65.04000 202.898
65.08000 215.572
65.12000 218.598
65.16000 213.056
65.20000 232.938
65.24000 228.997
65.28000 237.036
65.32000 244.982
65.36000 277.555
65.40000 305.474
65.44000 329.248
65.48000 360.505
65.52000 389.206
65.56000 415.330
65.60000 489.638
65.64000 607.294
65.68000 758.015
65.72000 1174.013
65.76000 1684.870
65.80000 2099.035
65.84000 2253.842
65.88000 2268.836
65.92000 2143.541
65.96000 1678.191
66.00000 1110.623
66.04000 703.385
66.08000 512.800
66.12000 441.006
66.16000 429.069
66.20000 405.917
66.24000 436.558
66.28000 506.344
66.32000 612.132
66.36000 672.830
66.40000 680.591
66.44000 687.438
66.48000 666.429
66.52000 577.970
66.56000 483.681
66.60000 418.139
66.64000 393.005
66.68000 363.554
66.72000 377.482
66.76000 370.256
66.80000 388.318
66.84000 393.439
66.88000 380.145
66.92000 395.122
66.96000 407.748
67.00000 385.775
67.04000 408.662
67.08000 408.436
67.12000 405.982
67.16000 431.001
67.20000 420.355
67.24000 416.062
67.28000 401.216
67.32000 417.800
67.36000 430.742
67.40000 438.876
67.44000 452.091
67.48000 451.245
67.52000 455.218
67.56000 471.356
67.60000 466.534
67.64000 470.433
67.68000 476.142
67.72000 499.344
67.76000 491.593
67.80000 469.481
67.84000 510.007
67.88000 505.565
67.92000 517.901
67.96000 508.940
68.00000 537.548
68.04000 557.154
68.08000 558.128
68.12000 568.974
68.16000 568.666
68.20000 598.650
68.24000 572.529
68.28000 616.596
68.32000 621.948
68.36000 633.215
68.40000 677.258
68.44000 718.409
68.48000 728.944
68.52000 769.484
68.56000 841.131
68.60000 931.607
68.64000 1094.539
68.68000 1316.132
68.72000 1503.436
68.76000 1688.806
68.80000 1929.833
68.84000 2256.798
68.88000 2891.409
68.92000 4996.225
68.96000 12501.938
69.00000 27941.924
69.04000 42521.543
69.08000 49548.348
69.12000 52450.262
69.16000 55733.484
69.20000 54089.879
69.24000 42627.535
69.28000 31615.924
69.32000 26534.775
69.36000 24660.611
69.40000 19976.219
69.44000 11485.444
69.48000 4888.101
69.52000 2387.160
69.56000 1488.352
69.60000 1181.657
69.64000 1033.378
69.68000 887.174
69.72000 785.065
69.76000 708.671
69.80000 680.878
69.84000 657.819
69.88000 608.473
69.92000 573.321
69.96000 552.080
70.00000 547.110