File: XRD/XRD/09-10-2025 Dep 8/XY Data/BTO_Mapping_Theta2Theta_09-10-2025_001_57_26-765_-29-726.xy
20.00000 490.911
20.04000 489.637
20.08000 498.373
20.12000 468.568
20.16000 478.943
20.20000 476.554
20.24000 480.445
20.28000 478.781
20.32000 457.490
20.36000 483.224
20.40000 476.055
20.44000 482.092
20.48000 479.312
20.52000 485.300
20.56000 475.933
20.60000 474.086
20.64000 464.344
20.68000 482.461
20.72000 482.562
20.76000 464.407
20.80000 464.081
20.84000 468.760
20.88000 466.254
20.92000 472.451
20.96000 486.566
21.00000 482.479
21.04000 476.360
21.08000 471.187
21.12000 464.389
21.16000 459.731
21.20000 475.998
21.24000 472.373
21.28000 477.769
21.32000 488.459
21.36000 481.095
21.40000 471.916
21.44000 462.557
21.48000 488.393
21.52000 487.663
21.56000 473.140
21.60000 480.701
21.64000 472.883
21.68000 485.017
21.72000 484.201
21.76000 473.598
21.80000 473.819
21.84000 504.235
21.88000 523.251
21.92000 519.939
21.96000 539.048
22.00000 558.397
22.04000 551.963
22.08000 576.910
22.12000 593.080
22.16000 590.134
22.20000 570.156
22.24000 584.225
22.28000 560.210
22.32000 544.866
22.36000 528.774
22.40000 507.308
22.44000 511.574
22.48000 492.168
22.52000 477.705
22.56000 492.387
22.60000 489.113
22.64000 463.756
22.68000 462.650
22.72000 464.043
22.76000 468.056
22.80000 461.064
22.84000 455.924
22.88000 462.139
22.92000 460.363
22.96000 432.918
23.00000 440.193
23.04000 456.408
23.08000 437.388
23.12000 424.001
23.16000 429.751
23.20000 449.677
23.24000 445.984
23.28000 436.911
23.32000 456.864
23.36000 440.369
23.40000 444.977
23.44000 429.429
23.48000 417.364
23.52000 427.212
23.56000 447.445
23.60000 439.987
23.64000 459.776
23.68000 433.847
23.72000 465.950
23.76000 434.809
23.80000 439.896
23.84000 444.290
23.88000 444.509
23.92000 431.363
23.96000 440.220
24.00000 437.903
24.04000 442.308
24.08000 433.272
24.12000 450.466
24.16000 427.131
24.20000 423.200
24.24000 436.583
24.28000 417.417
24.32000 432.653
24.36000 417.057
24.40000 413.612
24.44000 440.097
24.48000 410.978
24.52000 400.780
24.56000 428.809
24.60000 420.776
24.64000 411.603
24.68000 419.354
24.72000 421.258
24.76000 405.730
24.80000 415.839
24.84000 406.410
24.88000 423.367
24.92000 414.806
24.96000 413.459
25.00000 435.262
25.04000 403.889
25.08000 406.817
25.12000 396.344
25.16000 398.561
25.20000 396.834
25.24000 398.580
25.28000 412.098
25.32000 396.201
25.36000 424.756
25.40000 421.426
25.44000 406.611
25.48000 408.513
25.52000 417.043
25.56000 408.506
25.60000 397.237
25.64000 410.063
25.68000 393.899
25.72000 409.300
25.76000 396.489
25.80000 415.757
25.84000 397.180
25.88000 396.321
25.92000 404.093
25.96000 392.928
26.00000 400.939
26.04000 395.590
26.08000 391.400
26.12000 390.367
26.16000 377.937
26.20000 393.933
26.24000 406.099
26.28000 392.439
26.32000 393.910
26.36000 399.789
26.40000 394.323
26.44000 401.746
26.48000 383.575
26.52000 392.605
26.56000 386.930
26.60000 387.801
26.64000 386.572
26.68000 385.447
26.72000 384.371
26.76000 396.290
26.80000 372.108
26.84000 389.445
26.88000 383.603
26.92000 390.029
26.96000 381.516
27.00000 384.307
27.04000 378.896
27.08000 383.507
27.12000 377.225
27.16000 365.980
27.20000 367.313
27.24000 399.561
27.28000 374.598
27.32000 369.576
27.36000 384.857
27.40000 369.946
27.44000 393.694
27.48000 373.137
27.52000 385.844
27.56000 374.625
27.60000 373.034
27.64000 374.973
27.68000 379.844
27.72000 368.095
27.76000 376.332
27.80000 364.624
27.84000 360.498
27.88000 362.276
27.92000 374.457
27.96000 365.759
28.00000 345.428
28.04000 377.227
28.08000 353.493
28.12000 386.138
28.16000 373.582
28.20000 356.233
28.24000 355.783
28.28000 364.879
28.32000 379.096
28.36000 354.381
28.40000 370.722
28.44000 361.293
28.48000 376.638
28.52000 374.409
28.56000 376.840
28.60000 376.553
28.64000 364.931
28.68000 363.426
28.72000 367.161
28.76000 361.961
28.80000 349.271
28.84000 335.361
28.88000 371.236
28.92000 359.317
28.96000 357.584
29.00000 349.144
29.04000 363.616
29.08000 368.020
29.12000 369.264
29.16000 370.307
29.20000 358.230
29.24000 371.329
29.28000 366.379
29.32000 335.099
29.36000 350.431
29.40000 341.458
29.44000 329.349
29.48000 356.234
29.52000 344.688
29.56000 364.754
29.60000 354.931
29.64000 367.602
29.68000 348.712
29.72000 345.015
29.76000 378.728
29.80000 363.433
29.84000 370.187
29.88000 383.193
29.92000 400.786
29.96000 408.888
30.00000 409.146
30.04000 442.842
30.08000 433.485
30.12000 438.224
30.16000 419.290
30.20000 418.377
30.24000 411.008
30.28000 401.403
30.32000 397.088
30.36000 397.141
30.40000 390.757
30.44000 407.079
30.48000 383.502
30.52000 409.183
30.56000 386.167
30.60000 381.043
30.64000 373.810
30.68000 384.912
30.72000 393.800
30.76000 398.726
30.80000 395.520
30.84000 407.753
30.88000 414.619
30.92000 414.976
30.96000 447.809
31.00000 451.125
31.04000 476.752
31.08000 538.713
31.12000 614.107
31.16000 699.681
31.20000 928.453
31.24000 1105.611
31.28000 1454.428
31.32000 1765.234
31.36000 2104.363
31.40000 2267.799
31.44000 2401.147
31.48000 2268.886
31.52000 2024.933
31.56000 1778.675
31.60000 1455.846
31.64000 1182.074
31.68000 963.770
31.72000 792.072
31.76000 688.812
31.80000 564.032
31.84000 516.090
31.88000 470.546
31.92000 448.280
31.96000 410.415
32.00000 385.883
32.04000 386.121
32.08000 361.946
32.12000 365.946
32.16000 357.283
32.20000 370.234
32.24000 347.758
32.28000 343.888
32.32000 351.746
32.36000 337.345
32.40000 332.883
32.44000 335.141
32.48000 314.504
32.52000 320.289
32.56000 322.996
32.60000 330.228
32.64000 316.581
32.68000 322.696
32.72000 321.227
32.76000 333.431
32.80000 319.949
32.84000 330.100
32.88000 324.714
32.92000 308.108
32.96000 321.285
33.00000 293.032
33.04000 301.558
33.08000 310.533
33.12000 321.664
33.16000 299.669
33.20000 311.137
33.24000 305.136
33.28000 305.410
33.32000 320.485
33.36000 299.371
33.40000 281.522
33.44000 305.148
33.48000 303.914
33.52000 301.645
33.56000 296.062
33.60000 306.590
33.64000 292.352
33.68000 288.564
33.72000 296.244
33.76000 289.566
33.80000 304.029
33.84000 296.050
33.88000 288.089
33.92000 294.847
33.96000 295.985
34.00000 286.222
34.04000 285.027
34.08000 298.162
34.12000 303.828
34.16000 282.338
34.20000 297.766
34.24000 277.134
34.28000 285.273
34.32000 291.322
34.36000 301.279
34.40000 298.236
34.44000 281.741
34.48000 283.344
34.52000 286.271
34.56000 283.062
34.60000 274.792
34.64000 284.327
34.68000 282.773
34.72000 287.440
34.76000 278.022
34.80000 289.207
34.84000 270.837
34.88000 288.449
34.92000 269.152
34.96000 280.956
35.00000 271.870
35.04000 263.355
35.08000 274.007
35.12000 271.412
35.16000 291.141
35.20000 277.704
35.24000 269.930
35.28000 272.453
35.32000 274.078
35.36000 276.191
35.40000 257.635
35.44000 272.535
35.48000 269.685
35.52000 260.808
35.56000 248.315
35.60000 251.373
35.64000 267.782
35.68000 282.149
35.72000 275.347
35.76000 266.919
35.80000 276.885
35.84000 274.862
35.88000 262.105
35.92000 252.502
35.96000 255.909
36.00000 263.834
36.04000 268.978
36.08000 254.832
36.12000 253.104
36.16000 261.766
36.20000 253.528
36.24000 268.657
36.28000 258.551
36.32000 257.430
36.36000 261.194
36.40000 260.447
36.44000 252.037
36.48000 268.345
36.52000 259.640
36.56000 249.252
36.60000 260.912
36.64000 247.169
36.68000 250.928
36.72000 250.569
36.76000 259.190
36.80000 263.633
36.84000 274.251
36.88000 267.555
36.92000 269.569
36.96000 289.432
37.00000 288.428
37.04000 272.368
37.08000 294.409
37.12000 291.193
37.16000 292.922
37.20000 286.829
37.24000 271.440
37.28000 256.985
37.32000 255.393
37.36000 271.900
37.40000 257.460
37.44000 264.465
37.48000 249.951
37.52000 266.705
37.56000 260.087
37.60000 259.340
37.64000 251.707
37.68000 268.060
37.72000 269.742
37.76000 257.136
37.80000 250.944
37.84000 263.803
37.88000 248.892
37.92000 252.513
37.96000 262.515
38.00000 248.947
38.04000 268.753
38.08000 269.416
38.12000 267.818
38.16000 271.633
38.20000 265.703
38.24000 280.447
38.28000 282.399
38.32000 276.670
38.36000 290.623
38.40000 317.421
38.44000 328.798
38.48000 358.360
38.52000 415.284
38.56000 524.867
38.60000 634.113
38.64000 819.738
38.68000 944.378
38.72000 1090.757
38.76000 1154.467
38.80000 1173.236
38.84000 1075.208
38.88000 952.038
38.92000 808.846
38.96000 609.002
39.00000 495.286
39.04000 408.083
39.08000 340.694
39.12000 326.089
39.16000 297.110
39.20000 281.563
39.24000 268.845
39.28000 257.339
39.32000 251.198
39.36000 259.119
39.40000 246.703
39.44000 243.926
39.48000 235.265
39.52000 227.463
39.56000 240.187
39.60000 244.458
39.64000 223.694
39.68000 231.922
39.72000 236.548
39.76000 234.983
39.80000 226.835
39.84000 234.914
39.88000 237.602
39.92000 233.166
39.96000 224.770
40.00000 231.019
40.04000 234.436
40.08000 234.058
40.12000 222.861
40.16000 242.212
40.20000 221.610
40.24000 229.664
40.28000 221.308
40.32000 222.196
40.36000 228.775
40.40000 208.111
40.44000 236.782
40.48000 205.871
40.52000 213.429
40.56000 220.028
40.60000 227.188
40.64000 216.561
40.68000 219.262
40.72000 227.338
40.76000 223.371
40.80000 220.682
40.84000 217.991
40.88000 226.312
40.92000 216.380
40.96000 206.209
41.00000 206.694
41.04000 207.048
41.08000 221.940
41.12000 212.559
41.16000 210.512
41.20000 219.217
41.24000 217.946
41.28000 210.854
41.32000 201.772
41.36000 211.558
41.40000 210.994
41.44000 205.916
41.48000 209.462
41.52000 213.160
41.56000 211.004
41.60000 216.484
41.64000 206.973
41.68000 203.391
41.72000 213.883
41.76000 216.123
41.80000 207.774
41.84000 216.062
41.88000 200.809
41.92000 209.185
41.96000 213.928
42.00000 202.675
42.04000 207.293
42.08000 195.358
42.12000 201.499
42.16000 204.935
42.20000 204.088
42.24000 216.203
42.28000 208.200
42.32000 196.358
42.36000 207.258
42.40000 198.462
42.44000 193.734
42.48000 197.090
42.52000 209.072
42.56000 192.504
42.60000 207.019
42.64000 201.987
42.68000 196.101
42.72000 197.735
42.76000 200.209
42.80000 198.127
42.84000 207.529
42.88000 191.618
42.92000 189.314
42.96000 197.274
43.00000 189.442
43.04000 194.887
43.08000 201.183
43.12000 199.356
43.16000 196.602
43.20000 193.040
43.24000 200.497
43.28000 203.477
43.32000 199.274
43.36000 193.456
43.40000 205.548
43.44000 202.911
43.48000 199.663
43.52000 181.232
43.56000 189.790
43.60000 193.453
43.64000 199.922
43.68000 194.647
43.72000 193.593
43.76000 199.136
43.80000 188.433
43.84000 195.175
43.88000 191.702
43.92000 191.709
43.96000 190.889
44.00000 192.235
44.04000 196.227
44.08000 194.209
44.12000 186.885
44.16000 196.016
44.20000 190.222
44.24000 195.265
44.28000 185.349
44.32000 196.844
44.36000 191.515
44.40000 197.430
44.44000 184.642
44.48000 210.826
44.52000 207.035
44.56000 204.462
44.60000 206.203
44.64000 217.217
44.68000 203.050
44.72000 195.799
44.76000 231.139
44.80000 226.244
44.84000 208.685
44.88000 226.007
44.92000 235.216
44.96000 230.196
45.00000 240.090
45.04000 244.817
45.08000 267.236
45.12000 271.101
45.16000 259.547
45.20000 283.156
45.24000 277.685
45.28000 281.304
45.32000 272.241
45.36000 264.671
45.40000 260.995
45.44000 257.257
45.48000 235.475
45.52000 241.362
45.56000 245.355
45.60000 229.988
45.64000 224.204
45.68000 223.812
45.72000 198.732
45.76000 208.357
45.80000 215.773
45.84000 204.536
45.88000 203.410
45.92000 201.569
45.96000 187.942
46.00000 202.504
46.04000 199.106
46.08000 195.658
46.12000 189.926
46.16000 186.608
46.20000 181.375
46.24000 183.214
46.28000 191.724
46.32000 177.762
46.36000 179.756
46.40000 186.182
46.44000 178.387
46.48000 171.512
46.52000 185.591
46.56000 180.094
46.60000 175.074
46.64000 172.628
46.68000 175.862
46.72000 176.901
46.76000 173.314
46.80000 173.270
46.84000 172.239
46.88000 176.578
46.92000 171.323
46.96000 174.698
47.00000 176.662
47.04000 163.628
47.08000 163.022
47.12000 168.088
47.16000 157.063
47.20000 173.035
47.24000 172.507
47.28000 167.906
47.32000 171.197
47.36000 161.057
47.40000 167.560
47.44000 162.359
47.48000 158.653
47.52000 157.977
47.56000 158.864
47.60000 165.485
47.64000 154.646
47.68000 156.853
47.72000 164.611
47.76000 173.539
47.80000 172.015
47.84000 156.945
47.88000 157.474
47.92000 165.863
47.96000 157.287
48.00000 153.686
48.04000 168.428
48.08000 171.292
48.12000 154.498
48.16000 142.119
48.20000 161.163
48.24000 155.577
48.28000 156.300
48.32000 172.937
48.36000 158.401
48.40000 154.037
48.44000 171.289
48.48000 153.176
48.52000 160.996
48.56000 152.878
48.60000 159.741
48.64000 157.907
48.68000 164.216
48.72000 161.791
48.76000 159.658
48.80000 161.777
48.84000 154.334
48.88000 162.983
48.92000 159.135
48.96000 165.413
49.00000 172.801
49.04000 149.231
49.08000 153.839
49.12000 154.639
49.16000 146.720
49.20000 155.491
49.24000 158.783
49.28000 157.609
49.32000 159.090
49.36000 165.953
49.40000 159.559
49.44000 144.774
49.48000 151.500
49.52000 150.866
49.56000 155.287
49.60000 151.746
49.64000 155.598
49.68000 154.229
49.72000 153.780
49.76000 146.860
49.80000 145.777
49.84000 175.556
49.88000 158.442
49.92000 164.825
49.96000 155.630
50.00000 155.565
50.04000 146.520
50.08000 145.732
50.12000 151.597
50.16000 168.919
50.20000 150.998
50.24000 157.972
50.28000 156.662
50.32000 161.610
50.36000 143.232
50.40000 161.099
50.44000 155.356
50.48000 166.605
50.52000 172.666
50.56000 174.571
50.60000 184.159
50.64000 184.000
50.68000 209.351
50.72000 219.207
50.76000 200.674
50.80000 219.857
50.84000 220.962
50.88000 213.197
50.92000 209.832
50.96000 189.568
51.00000 194.958
51.04000 175.162
51.08000 169.823
51.12000 177.607
51.16000 156.601
51.20000 153.959
51.24000 152.701
51.28000 155.596
51.32000 154.772
51.36000 155.990
51.40000 165.253
51.44000 146.526
51.48000 144.547
51.52000 148.856
51.56000 154.935
51.60000 153.235
51.64000 154.986
51.68000 154.786
51.72000 156.362
51.76000 147.957
51.80000 138.771
51.84000 145.424
51.88000 144.171
51.92000 143.712
51.96000 148.069
52.00000 147.246
52.04000 143.792
52.08000 143.643
52.12000 139.507
52.16000 145.702
52.20000 149.094
52.24000 138.072
52.28000 143.293
52.32000 146.307
52.36000 139.129
52.40000 141.700
52.44000 145.693
52.48000 134.876
52.52000 142.415
52.56000 134.224
52.60000 147.505
52.64000 140.985
52.68000 140.256
52.72000 137.968
52.76000 147.439
52.80000 148.966
52.84000 143.208
52.88000 137.932
52.92000 142.871
52.96000 144.754
53.00000 139.239
53.04000 153.025
53.08000 135.417
53.12000 143.316
53.16000 138.069
53.20000 139.739
53.24000 139.551
53.28000 143.022
53.32000 151.632
53.36000 139.284
53.40000 155.820
53.44000 156.415
53.48000 157.083
53.52000 158.297
53.56000 144.098
53.60000 144.053
53.64000 150.437
53.68000 138.811
53.72000 145.376
53.76000 140.021
53.80000 145.121
53.84000 143.201
53.88000 150.050
53.92000 148.340
53.96000 133.728
54.00000 142.605
54.04000 143.096
54.08000 144.654
54.12000 137.859
54.16000 131.425
54.20000 137.237
54.24000 142.922
54.28000 139.620
54.32000 133.113
54.36000 129.722
54.40000 144.674
54.44000 136.096
54.48000 138.551
54.52000 134.970
54.56000 139.606
54.60000 139.351
54.64000 135.762
54.68000 138.701
54.72000 148.945
54.76000 133.645
54.80000 137.016
54.84000 142.945
54.88000 139.016
54.92000 148.905
54.96000 137.136
55.00000 139.012
55.04000 133.169
55.08000 141.002
55.12000 136.393
55.16000 147.187
55.20000 145.010
55.24000 146.084
55.28000 148.154
55.32000 152.325
55.36000 149.289
55.40000 151.606
55.44000 155.064
55.48000 148.939
55.52000 168.269
55.56000 161.055
55.60000 182.494
55.64000 181.473
55.68000 203.631
55.72000 227.499
55.76000 232.966
55.80000 289.531
55.84000 343.582
55.88000 381.451
55.92000 448.440
55.96000 504.582
56.00000 536.967
56.04000 545.344
56.08000 529.334
56.12000 537.756
56.16000 498.142
56.20000 443.606
56.24000 391.711
56.28000 329.202
56.32000 293.101
56.36000 260.912
56.40000 229.338
56.44000 214.102
56.48000 202.971
56.52000 177.701
56.56000 175.934
56.60000 168.096
56.64000 158.986
56.68000 146.312
56.72000 153.213
56.76000 138.083
56.80000 147.625
56.84000 145.607
56.88000 137.530
56.92000 148.241
56.96000 140.364
57.00000 145.140
57.04000 132.065
57.08000 129.310
57.12000 142.306
57.16000 132.576
57.20000 129.256
57.24000 131.900
57.28000 129.984
57.32000 116.201
57.36000 121.317
57.40000 131.487
57.44000 120.752
57.48000 120.209
57.52000 136.763
57.56000 118.547
57.60000 131.997
57.64000 120.025
57.68000 122.357
57.72000 120.650
57.76000 118.759
57.80000 122.494
57.84000 122.862
57.88000 125.163
57.92000 119.569
57.96000 127.576
58.00000 124.898
58.04000 123.593
58.08000 117.982
58.12000 126.672
58.16000 113.602
58.20000 120.249
58.24000 120.652
58.28000 121.776
58.32000 128.319
58.36000 124.022
58.40000 120.655
58.44000 123.891
58.48000 117.977
58.52000 127.530
58.56000 117.297
58.60000 124.871
58.64000 123.247
58.68000 124.811
58.72000 127.910
58.76000 127.399
58.80000 126.352
58.84000 118.049
58.88000 134.806
58.92000 123.641
58.96000 123.230
59.00000 121.008
59.04000 117.896
59.08000 126.998
59.12000 125.040
59.16000 127.110
59.20000 109.288
59.24000 115.195
59.28000 115.773
59.32000 129.636
59.36000 121.354
59.40000 124.321
59.44000 125.029
59.48000 121.282
59.52000 120.915
59.56000 112.683
59.60000 119.902
59.64000 128.830
59.68000 117.755
59.72000 124.784
59.76000 123.077
59.80000 124.087
59.84000 125.400
59.88000 113.682
59.92000 135.527
59.96000 126.560
60.00000 125.249
60.04000 121.256
60.08000 124.899
60.12000 109.722
60.16000 121.113
60.20000 132.249
60.24000 113.159
60.28000 123.858
60.32000 115.028
60.36000 119.115
60.40000 122.399
60.44000 107.160
60.48000 121.152
60.52000 112.047
60.56000 126.159
60.60000 127.014
60.64000 116.817
60.68000 122.862
60.72000 123.572
60.76000 116.985
60.80000 116.225
60.84000 115.304
60.88000 117.420
60.92000 114.518
60.96000 118.288
61.00000 123.714
61.04000 115.917
61.08000 125.689
61.12000 120.593
61.16000 122.426
61.20000 127.190
61.24000 126.048
61.28000 129.810
61.32000 122.210
61.36000 117.770
61.40000 124.826
61.44000 127.287
61.48000 134.099
61.52000 160.846
61.56000 218.526
61.60000 259.583
61.64000 311.539
61.68000 338.167
61.72000 326.404
61.76000 319.155
61.80000 243.624
61.84000 180.014
61.88000 156.619
61.92000 133.366
61.96000 139.635
62.00000 141.338
62.04000 126.047
62.08000 117.401
62.12000 126.431
62.16000 131.183
62.20000 123.489
62.24000 134.263
62.28000 126.256
62.32000 126.428
62.36000 133.891
62.40000 131.831
62.44000 131.023
62.48000 131.926
62.52000 136.527
62.56000 131.499
62.60000 127.589
62.64000 132.545
62.68000 137.123
62.72000 121.920
62.76000 141.501
62.80000 134.460
62.84000 142.064
62.88000 133.271
62.92000 139.792
62.96000 133.139
63.00000 130.244
63.04000 126.155
63.08000 127.942
63.12000 140.111
63.16000 138.146
63.20000 149.761
63.24000 148.764
63.28000 140.298
63.32000 145.060
63.36000 133.064
63.40000 141.818
63.44000 134.045
63.48000 142.633
63.52000 142.417
63.56000 141.629
63.60000 144.155
63.64000 140.122
63.68000 144.403
63.72000 138.459
63.76000 131.460
63.80000 140.992
63.84000 145.731
63.88000 140.127
63.92000 143.779
63.96000 147.134
64.00000 146.916
64.04000 148.552
64.08000 149.215
64.12000 152.684
64.16000 160.477
64.20000 150.186
64.24000 155.697
64.28000 153.537
64.32000 163.689
64.36000 170.206
64.40000 151.319
64.44000 167.421
64.48000 173.695
64.52000 171.349
64.56000 167.770
64.60000 179.781
64.64000 168.298
64.68000 176.531
64.72000 180.031
64.76000 174.028
64.80000 176.358
64.84000 180.286
64.88000 181.984
64.92000 187.446
64.96000 185.778
65.00000 208.872
65.04000 203.885
65.08000 213.443
65.12000 213.641
65.16000 203.487
65.20000 217.077
65.24000 222.767
65.28000 219.226
65.32000 250.822
65.36000 263.551
65.40000 268.699
65.44000 304.206
65.48000 342.499
65.52000 381.176
65.56000 423.179
65.60000 464.204
65.64000 527.537
65.68000 725.368
65.72000 1091.234
65.76000 1666.893
65.80000 2110.775
65.84000 2336.638
65.88000 2356.963
65.92000 2248.936
65.96000 1810.411
66.00000 1247.730
66.04000 750.375
66.08000 561.463
66.12000 470.097
66.16000 449.338
66.20000 412.410
66.24000 464.658
66.28000 527.228
66.32000 618.933
66.36000 675.418
66.40000 738.905
66.44000 694.264
66.48000 655.459
66.52000 597.996
66.56000 483.198
66.60000 427.974
66.64000 389.377
66.68000 373.758
66.72000 387.058
66.76000 370.794
66.80000 385.280
66.84000 382.913
66.88000 387.469
66.92000 389.227
66.96000 386.323
67.00000 393.191
67.04000 401.946
67.08000 410.758
67.12000 399.272
67.16000 409.977
67.20000 421.154
67.24000 419.057
67.28000 442.146
67.32000 441.630
67.36000 447.366
67.40000 449.029
67.44000 446.322
67.48000 443.919
67.52000 474.207
67.56000 489.213
67.60000 477.027
67.64000 484.579
67.68000 490.868
67.72000 525.103
67.76000 481.131
67.80000 505.638
67.84000 501.705
67.88000 507.100
67.92000 536.597
67.96000 536.079
68.00000 552.402
68.04000 551.845
68.08000 582.284
68.12000 567.460
68.16000 591.760
68.20000 584.755
68.24000 600.070
68.28000 626.745
68.32000 636.012
68.36000 668.567
68.40000 699.783
68.44000 734.851
68.48000 764.024
68.52000 797.028
68.56000 857.826
68.60000 939.803
68.64000 1088.543
68.68000 1329.943
68.72000 1513.418
68.76000 1731.686
68.80000 1981.367
68.84000 2258.727
68.88000 2823.176
68.92000 4768.268
68.96000 11450.046
69.00000 26567.900
69.04000 42495.266
69.08000 50797.668
69.12000 54043.172
69.16000 57844.750
69.20000 57030.293
69.24000 46465.938
69.28000 34266.758
69.32000 28106.773
69.36000 25999.773
69.40000 21737.162
69.44000 13316.814
69.48000 5767.195
69.52000 2729.861
69.56000 1685.196
69.60000 1289.502
69.64000 1066.955
69.68000 948.394
69.72000 842.751
69.76000 768.177
69.80000 704.653
69.84000 654.444
69.88000 597.474
69.92000 582.903
69.96000 560.143
70.00000 553.452