File: XRD/XRD/09-10-2025 Dep 8/XY Data/BTO_Mapping_Theta2Theta_09-10-2025_001_48_-3-136_-29-836.xy
20.00000 503.451
20.04000 476.904
20.08000 475.245
20.12000 484.215
20.16000 489.164
20.20000 473.498
20.24000 475.583
20.28000 488.917
20.32000 487.773
20.36000 488.571
20.40000 472.780
20.44000 488.990
20.48000 497.080
20.52000 481.509
20.56000 477.589
20.60000 485.136
20.64000 483.505
20.68000 485.359
20.72000 477.721
20.76000 483.064
20.80000 498.175
20.84000 496.684
20.88000 485.969
20.92000 478.491
20.96000 501.653
21.00000 478.425
21.04000 487.943
21.08000 481.668
21.12000 501.398
21.16000 493.234
21.20000 484.401
21.24000 502.017
21.28000 472.065
21.32000 495.801
21.36000 478.631
21.40000 464.070
21.44000 489.383
21.48000 466.031
21.52000 479.647
21.56000 480.487
21.60000 494.047
21.64000 483.984
21.68000 498.543
21.72000 500.841
21.76000 536.490
21.80000 527.062
21.84000 528.395
21.88000 591.580
21.92000 607.229
21.96000 615.099
22.00000 659.206
22.04000 677.133
22.08000 700.404
22.12000 672.406
22.16000 664.293
22.20000 623.204
22.24000 598.682
22.28000 554.978
22.32000 568.008
22.36000 532.238
22.40000 524.143
22.44000 497.443
22.48000 495.796
22.52000 471.291
22.56000 475.967
22.60000 467.093
22.64000 468.512
22.68000 475.566
22.72000 453.655
22.76000 440.898
22.80000 449.659
22.84000 449.972
22.88000 450.696
22.92000 453.274
22.96000 445.171
23.00000 455.871
23.04000 442.755
23.08000 429.784
23.12000 453.398
23.16000 445.175
23.20000 445.482
23.24000 439.524
23.28000 451.227
23.32000 435.673
23.36000 443.233
23.40000 445.303
23.44000 437.415
23.48000 442.529
23.52000 450.383
23.56000 443.617
23.60000 432.673
23.64000 449.065
23.68000 429.765
23.72000 428.492
23.76000 437.908
23.80000 439.485
23.84000 412.180
23.88000 425.235
23.92000 436.295
23.96000 431.857
24.00000 440.880
24.04000 451.424
24.08000 426.168
24.12000 425.688
24.16000 428.703
24.20000 419.070
24.24000 423.676
24.28000 423.511
24.32000 439.184
24.36000 432.369
24.40000 441.786
24.44000 428.682
24.48000 410.724
24.52000 433.234
24.56000 419.255
24.60000 414.167
24.64000 411.774
24.68000 416.750
24.72000 433.611
24.76000 420.563
24.80000 415.272
24.84000 424.218
24.88000 415.389
24.92000 418.017
24.96000 409.946
25.00000 406.040
25.04000 427.268
25.08000 411.123
25.12000 398.368
25.16000 400.835
25.20000 392.177
25.24000 392.018
25.28000 404.054
25.32000 409.630
25.36000 402.572
25.40000 418.955
25.44000 415.759
25.48000 409.332
25.52000 418.498
25.56000 400.636
25.60000 388.599
25.64000 414.634
25.68000 394.836
25.72000 388.487
25.76000 400.479
25.80000 394.063
25.84000 398.981
25.88000 394.250
25.92000 394.882
25.96000 405.708
26.00000 399.937
26.04000 385.598
26.08000 395.583
26.12000 397.599
26.16000 387.075
26.20000 388.501
26.24000 418.506
26.28000 399.073
26.32000 394.446
26.36000 400.456
26.40000 381.495
26.44000 392.722
26.48000 401.470
26.52000 397.232
26.56000 382.920
26.60000 391.932
26.64000 380.654
26.68000 387.533
26.72000 376.946
26.76000 368.027
26.80000 386.515
26.84000 394.807
26.88000 388.520
26.92000 393.471
26.96000 389.808
27.00000 385.980
27.04000 390.012
27.08000 372.406
27.12000 382.081
27.16000 392.012
27.20000 403.999
27.24000 394.048
27.28000 389.539
27.32000 385.916
27.36000 363.430
27.40000 373.673
27.44000 378.030
27.48000 375.246
27.52000 379.710
27.56000 371.027
27.60000 404.419
27.64000 383.393
27.68000 374.862
27.72000 385.407
27.76000 390.122
27.80000 373.215
27.84000 363.237
27.88000 386.861
27.92000 366.652
27.96000 375.767
28.00000 377.072
28.04000 365.785
28.08000 392.774
28.12000 399.818
28.16000 367.306
28.20000 367.426
28.24000 396.782
28.28000 387.191
28.32000 387.068
28.36000 379.423
28.40000 384.350
28.44000 365.560
28.48000 368.566
28.52000 360.603
28.56000 382.407
28.60000 353.082
28.64000 369.288
28.68000 374.127
28.72000 364.062
28.76000 368.833
28.80000 352.838
28.84000 350.408
28.88000 381.969
28.92000 365.462
28.96000 380.501
29.00000 359.344
29.04000 364.999
29.08000 369.182
29.12000 367.307
29.16000 370.353
29.20000 366.425
29.24000 372.971
29.28000 366.129
29.32000 357.023
29.36000 370.878
29.40000 374.493
29.44000 345.773
29.48000 376.841
29.52000 359.018
29.56000 376.562
29.60000 360.509
29.64000 376.651
29.68000 387.666
29.72000 378.665
29.76000 367.492
29.80000 372.594
29.84000 401.749
29.88000 398.543
29.92000 429.906
29.96000 435.568
30.00000 450.190
30.04000 452.066
30.08000 457.364
30.12000 447.782
30.16000 427.325
30.20000 437.651
30.24000 417.127
30.28000 428.629
30.32000 410.047
30.36000 418.764
30.40000 393.974
30.44000 400.058
30.48000 394.606
30.52000 413.615
30.56000 408.044
30.60000 409.792
30.64000 397.135
30.68000 429.527
30.72000 408.564
30.76000 413.119
30.80000 430.537
30.84000 441.812
30.88000 432.021
30.92000 460.915
30.96000 489.805
31.00000 540.472
31.04000 626.034
31.08000 684.126
31.12000 832.061
31.16000 1077.156
31.20000 1381.113
31.24000 1726.623
31.28000 2238.019
31.32000 2636.780
31.36000 2900.080
31.40000 3061.513
31.44000 3006.574
31.48000 2724.830
31.52000 2366.703
31.56000 1939.039
31.60000 1532.712
31.64000 1168.768
31.68000 922.911
31.72000 781.596
31.76000 666.414
31.80000 581.911
31.84000 495.396
31.88000 469.783
31.92000 428.551
31.96000 411.220
32.00000 401.580
32.04000 381.830
32.08000 379.137
32.12000 376.333
32.16000 362.882
32.20000 350.592
32.24000 353.669
32.28000 351.854
32.32000 347.254
32.36000 346.278
32.40000 342.705
32.44000 330.091
32.48000 333.892
32.52000 336.322
32.56000 343.902
32.60000 325.206
32.64000 342.313
32.68000 326.771
32.72000 331.415
32.76000 317.846
32.80000 342.581
32.84000 318.919
32.88000 328.654
32.92000 327.899
32.96000 326.000
33.00000 330.301
33.04000 300.269
33.08000 318.212
33.12000 298.145
33.16000 314.315
33.20000 313.387
33.24000 301.172
33.28000 306.537
33.32000 314.605
33.36000 306.464
33.40000 281.799
33.44000 311.742
33.48000 298.573
33.52000 315.472
33.56000 310.334
33.60000 289.182
33.64000 303.338
33.68000 285.945
33.72000 299.564
33.76000 303.108
33.80000 281.758
33.84000 297.694
33.88000 287.821
33.92000 298.395
33.96000 287.533
34.00000 285.734
34.04000 293.832
34.08000 297.303
34.12000 288.564
34.16000 284.909
34.20000 282.351
34.24000 272.593
34.28000 289.868
34.32000 289.542
34.36000 294.144
34.40000 299.426
34.44000 314.749
34.48000 300.026
34.52000 289.640
34.56000 292.171
34.60000 275.274
34.64000 287.748
34.68000 294.503
34.72000 272.333
34.76000 287.623
34.80000 289.135
34.84000 284.832
34.88000 279.762
34.92000 279.465
34.96000 276.213
35.00000 295.522
35.04000 271.032
35.08000 262.214
35.12000 265.104
35.16000 270.578
35.20000 281.689
35.24000 285.261
35.28000 268.922
35.32000 281.814
35.36000 272.438
35.40000 261.531
35.44000 271.227
35.48000 283.466
35.52000 285.984
35.56000 290.916
35.60000 266.432
35.64000 274.485
35.68000 263.810
35.72000 265.983
35.76000 268.799
35.80000 273.839
35.84000 270.265
35.88000 269.952
35.92000 236.768
35.96000 264.854
36.00000 266.912
36.04000 278.638
36.08000 276.565
36.12000 262.370
36.16000 268.822
36.20000 280.070
36.24000 261.199
36.28000 265.801
36.32000 268.886
36.36000 264.093
36.40000 259.480
36.44000 270.600
36.48000 265.480
36.52000 264.136
36.56000 263.204
36.60000 259.843
36.64000 268.221
36.68000 270.176
36.72000 269.657
36.76000 273.056
36.80000 269.998
36.84000 261.741
36.88000 272.705
36.92000 284.810
36.96000 278.860
37.00000 281.459
37.04000 278.217
37.08000 281.351
37.12000 285.112
37.16000 275.712
37.20000 276.755
37.24000 262.482
37.28000 275.270
37.32000 275.212
37.36000 266.844
37.40000 278.857
37.44000 266.265
37.48000 253.246
37.52000 256.669
37.56000 250.610
37.60000 249.675
37.64000 259.931
37.68000 278.749
37.72000 258.563
37.76000 262.661
37.80000 261.290
37.84000 258.981
37.88000 277.558
37.92000 266.847
37.96000 256.595
38.00000 272.289
38.04000 258.967
38.08000 265.213
38.12000 265.460
38.16000 268.535
38.20000 289.212
38.24000 291.683
38.28000 288.507
38.32000 303.113
38.36000 320.618
38.40000 357.887
38.44000 406.136
38.48000 450.388
38.52000 545.266
38.56000 634.189
38.60000 761.060
38.64000 867.840
38.68000 940.041
38.72000 990.935
38.76000 968.419
38.80000 856.663
38.84000 748.330
38.88000 633.437
38.92000 546.038
38.96000 433.823
39.00000 379.107
39.04000 348.442
39.08000 303.773
39.12000 314.374
39.16000 277.714
39.20000 289.189
39.24000 257.374
39.28000 272.633
39.32000 267.874
39.36000 244.517
39.40000 238.503
39.44000 250.862
39.48000 251.221
39.52000 254.847
39.56000 248.757
39.60000 253.644
39.64000 243.994
39.68000 241.660
39.72000 236.253
39.76000 248.392
39.80000 245.300
39.84000 238.664
39.88000 221.245
39.92000 227.130
39.96000 242.348
40.00000 233.610
40.04000 225.456
40.08000 248.986
40.12000 242.044
40.16000 217.700
40.20000 237.144
40.24000 221.053
40.28000 246.477
40.32000 224.430
40.36000 231.635
40.40000 226.642
40.44000 225.464
40.48000 228.543
40.52000 228.500
40.56000 228.047
40.60000 223.452
40.64000 225.022
40.68000 219.888
40.72000 227.052
40.76000 222.778
40.80000 217.693
40.84000 232.531
40.88000 237.206
40.92000 209.291
40.96000 214.844
41.00000 212.480
41.04000 222.718
41.08000 213.569
41.12000 219.646
41.16000 224.445
41.20000 208.096
41.24000 214.636
41.28000 230.075
41.32000 218.512
41.36000 208.996
41.40000 210.364
41.44000 222.334
41.48000 221.585
41.52000 207.999
41.56000 204.047
41.60000 204.624
41.64000 212.798
41.68000 222.729
41.72000 219.007
41.76000 208.548
41.80000 214.644
41.84000 208.760
41.88000 211.096
41.92000 193.365
41.96000 222.684
42.00000 204.919
42.04000 204.839
42.08000 213.966
42.12000 211.542
42.16000 209.227
42.20000 211.310
42.24000 215.231
42.28000 204.821
42.32000 216.656
42.36000 206.795
42.40000 214.488
42.44000 211.707
42.48000 206.598
42.52000 203.874
42.56000 215.663
42.60000 214.632
42.64000 212.378
42.68000 207.849
42.72000 204.959
42.76000 209.003
42.80000 200.750
42.84000 207.195
42.88000 210.032
42.92000 204.199
42.96000 195.098
43.00000 209.109
43.04000 203.151
43.08000 223.282
43.12000 212.571
43.16000 195.556
43.20000 222.234
43.24000 209.799
43.28000 205.300
43.32000 208.102
43.36000 198.762
43.40000 204.799
43.44000 197.350
43.48000 209.920
43.52000 198.424
43.56000 205.715
43.60000 200.414
43.64000 197.805
43.68000 197.444
43.72000 207.577
43.76000 202.868
43.80000 207.763
43.84000 195.675
43.88000 192.455
43.92000 199.106
43.96000 200.794
44.00000 195.174
44.04000 198.907
44.08000 202.703
44.12000 204.445
44.16000 201.478
44.20000 204.554
44.24000 205.125
44.28000 211.095
44.32000 209.090
44.36000 199.820
44.40000 202.139
44.44000 204.475
44.48000 212.484
44.52000 212.192
44.56000 211.141
44.60000 215.008
44.64000 235.468
44.68000 238.329
44.72000 237.492
44.76000 261.293
44.80000 271.066
44.84000 286.430
44.88000 308.598
44.92000 311.078
44.96000 338.496
45.00000 378.781
45.04000 375.703
45.08000 383.349
45.12000 387.176
45.16000 371.280
45.20000 358.920
45.24000 338.395
45.28000 327.763
45.32000 304.654
45.36000 284.157
45.40000 268.357
45.44000 259.161
45.48000 262.925
45.52000 253.105
45.56000 247.314
45.60000 228.970
45.64000 224.155
45.68000 211.060
45.72000 212.046
45.76000 187.179
45.80000 219.521
45.84000 217.191
45.88000 199.975
45.92000 183.619
45.96000 198.651
46.00000 192.630
46.04000 194.937
46.08000 188.389
46.12000 179.345
46.16000 188.369
46.20000 189.260
46.24000 171.975
46.28000 179.474
46.32000 185.532
46.36000 186.344
46.40000 179.781
46.44000 167.639
46.48000 172.896
46.52000 173.597
46.56000 179.260
46.60000 183.061
46.64000 168.822
46.68000 177.858
46.72000 172.022
46.76000 176.473
46.80000 171.740
46.84000 178.761
46.88000 177.958
46.92000 189.510
46.96000 167.766
47.00000 178.001
47.04000 173.311
47.08000 166.543
47.12000 161.996
47.16000 171.641
47.20000 164.600
47.24000 177.197
47.28000 172.004
47.32000 174.393
47.36000 165.119
47.40000 168.054
47.44000 170.516
47.48000 165.575
47.52000 159.988
47.56000 159.176
47.60000 172.734
47.64000 169.605
47.68000 167.607
47.72000 160.751
47.76000 155.657
47.80000 158.974
47.84000 164.923
47.88000 161.414
47.92000 158.731
47.96000 166.185
48.00000 172.316
48.04000 177.865
48.08000 160.635
48.12000 159.995
48.16000 169.154
48.20000 170.403
48.24000 158.111
48.28000 162.631
48.32000 165.111
48.36000 162.741
48.40000 174.183
48.44000 173.940
48.48000 161.498
48.52000 167.325
48.56000 167.713
48.60000 158.108
48.64000 162.684
48.68000 157.704
48.72000 163.597
48.76000 159.540
48.80000 166.939
48.84000 171.462
48.88000 158.019
48.92000 148.622
48.96000 163.013
49.00000 159.647
49.04000 163.679
49.08000 158.146
49.12000 165.148
49.16000 154.526
49.20000 159.140
49.24000 164.640
49.28000 168.612
49.32000 155.069
49.36000 157.401
49.40000 147.828
49.44000 158.369
49.48000 163.667
49.52000 165.909
49.56000 153.455
49.60000 148.293
49.64000 148.331
49.68000 157.490
49.72000 149.753
49.76000 163.388
49.80000 166.290
49.84000 154.283
49.88000 158.766
49.92000 164.662
49.96000 163.803
50.00000 161.948
50.04000 156.178
50.08000 160.548
50.12000 153.840
50.16000 156.621
50.20000 158.193
50.24000 149.089
50.28000 162.718
50.32000 178.197
50.36000 168.395
50.40000 171.925
50.44000 187.855
50.48000 194.964
50.52000 205.967
50.56000 218.176
50.60000 219.104
50.64000 220.567
50.68000 243.533
50.72000 250.681
50.76000 255.545
50.80000 239.316
50.84000 230.519
50.88000 216.301
50.92000 217.087
50.96000 197.619
51.00000 197.476
51.04000 187.677
51.08000 167.473
51.12000 169.551
51.16000 171.247
51.20000 159.896
51.24000 164.068
51.28000 167.649
51.32000 155.639
51.36000 152.959
51.40000 154.274
51.44000 158.815
51.48000 155.447
51.52000 152.140
51.56000 159.493
51.60000 156.445
51.64000 159.135
51.68000 141.718
51.72000 150.605
51.76000 147.746
51.80000 148.306
51.84000 146.397
51.88000 144.911
51.92000 152.422
51.96000 136.958
52.00000 142.402
52.04000 133.893
52.08000 145.244
52.12000 147.935
52.16000 142.066
52.20000 150.027
52.24000 139.075
52.28000 148.371
52.32000 133.429
52.36000 144.168
52.40000 140.822
52.44000 157.681
52.48000 141.725
52.52000 141.997
52.56000 132.945
52.60000 140.683
52.64000 136.008
52.68000 150.088
52.72000 134.402
52.76000 145.993
52.80000 136.744
52.84000 144.303
52.88000 136.136
52.92000 135.824
52.96000 140.189
53.00000 138.671
53.04000 133.899
53.08000 144.615
53.12000 133.935
53.16000 156.340
53.20000 151.558
53.24000 157.322
53.28000 150.471
53.32000 156.287
53.36000 160.807
53.40000 158.171
53.44000 148.132
53.48000 161.936
53.52000 157.780
53.56000 148.600
53.60000 150.936
53.64000 162.547
53.68000 135.107
53.72000 142.578
53.76000 147.951
53.80000 136.209
53.84000 137.716
53.88000 148.346
53.92000 143.506
53.96000 138.430
54.00000 141.410
54.04000 145.090
54.08000 149.080
54.12000 142.302
54.16000 152.313
54.20000 142.994
54.24000 135.491
54.28000 146.466
54.32000 142.911
54.36000 137.329
54.40000 144.018
54.44000 138.848
54.48000 149.733
54.52000 139.357
54.56000 138.040
54.60000 139.106
54.64000 147.930
54.68000 132.875
54.72000 139.789
54.76000 142.053
54.80000 142.558
54.84000 143.549
54.88000 138.332
54.92000 150.619
54.96000 152.255
55.00000 141.375
55.04000 152.276
55.08000 150.735
55.12000 147.488
55.16000 147.199
55.20000 143.521
55.24000 159.214
55.28000 152.398
55.32000 159.323
55.36000 167.135
55.40000 170.189
55.44000 161.347
55.48000 180.953
55.52000 187.965
55.56000 213.506
55.60000 220.903
55.64000 255.660
55.68000 262.901
55.72000 318.449
55.76000 377.944
55.80000 429.079
55.84000 486.701
55.88000 521.827
55.92000 564.986
55.96000 611.058
56.00000 588.264
56.04000 553.023
56.08000 508.765
56.12000 479.331
56.16000 417.190
56.20000 372.250
56.24000 325.317
56.28000 286.149
56.32000 238.702
56.36000 236.407
56.40000 214.744
56.44000 198.874
56.48000 179.540
56.52000 169.506
56.56000 158.966
56.60000 163.586
56.64000 154.664
56.68000 155.081
56.72000 157.625
56.76000 140.444
56.80000 155.953
56.84000 135.055
56.88000 137.485
56.92000 142.067
56.96000 145.529
57.00000 138.477
57.04000 140.083
57.08000 137.524
57.12000 129.124
57.16000 137.806
57.20000 124.794
57.24000 132.618
57.28000 138.785
57.32000 144.787
57.36000 133.908
57.40000 123.303
57.44000 127.679
57.48000 132.435
57.52000 123.193
57.56000 123.836
57.60000 125.810
57.64000 133.735
57.68000 123.247
57.72000 124.529
57.76000 128.627
57.80000 119.328
57.84000 138.219
57.88000 120.521
57.92000 123.803
57.96000 129.659
58.00000 130.901
58.04000 132.272
58.08000 122.914
58.12000 124.318
58.16000 131.340
58.20000 123.271
58.24000 143.061
58.28000 117.194
58.32000 123.864
58.36000 117.542
58.40000 123.594
58.44000 121.658
58.48000 119.816
58.52000 131.368
58.56000 126.671
58.60000 127.585
58.64000 120.541
58.68000 110.990
58.72000 126.184
58.76000 117.700
58.80000 122.666
58.84000 118.592
58.88000 116.280
58.92000 126.660
58.96000 119.156
59.00000 117.636
59.04000 121.958
59.08000 129.155
59.12000 125.673
59.16000 128.054
59.20000 125.998
59.24000 113.045
59.28000 117.656
59.32000 124.024
59.36000 121.537
59.40000 116.778
59.44000 124.727
59.48000 110.979
59.52000 123.013
59.56000 126.633
59.60000 129.003
59.64000 124.293
59.68000 118.296
59.72000 123.299
59.76000 121.212
59.80000 115.586
59.84000 112.791
59.88000 120.890
59.92000 103.586
59.96000 121.311
60.00000 113.640
60.04000 123.863
60.08000 118.791
60.12000 121.796
60.16000 120.312
60.20000 113.892
60.24000 127.990
60.28000 121.060
60.32000 116.907
60.36000 108.839
60.40000 122.331
60.44000 118.771
60.48000 123.693
60.52000 118.197
60.56000 118.031
60.60000 120.705
60.64000 118.923
60.68000 116.177
60.72000 121.593
60.76000 115.547
60.80000 115.252
60.84000 117.829
60.88000 130.385
60.92000 119.454
60.96000 117.745
61.00000 121.112
61.04000 131.595
61.08000 118.257
61.12000 124.569
61.16000 129.806
61.20000 129.444
61.24000 133.857
61.28000 124.959
61.32000 126.051
61.36000 132.803
61.40000 126.562
61.44000 139.651
61.48000 134.301
61.52000 192.083
61.56000 254.362
61.60000 346.402
61.64000 386.914
61.68000 417.086
61.72000 432.641
61.76000 384.380
61.80000 300.932
61.84000 205.230
61.88000 167.888
61.92000 149.088
61.96000 145.574
62.00000 129.385
62.04000 135.337
62.08000 143.122
62.12000 134.479
62.16000 140.157
62.20000 131.436
62.24000 143.710
62.28000 124.322
62.32000 130.551
62.36000 133.711
62.40000 134.304
62.44000 142.132
62.48000 143.230
62.52000 138.730
62.56000 151.746
62.60000 137.449
62.64000 133.941
62.68000 137.399
62.72000 138.183
62.76000 136.606
62.80000 134.138
62.84000 132.975
62.88000 139.448
62.92000 135.734
62.96000 144.606
63.00000 141.298
63.04000 136.530
63.08000 142.501
63.12000 140.824
63.16000 150.083
63.20000 141.607
63.24000 145.015
63.28000 143.832
63.32000 144.156
63.36000 142.198
63.40000 145.411
63.44000 136.804
63.48000 147.377
63.52000 139.361
63.56000 151.064
63.60000 154.046
63.64000 143.099
63.68000 145.865
63.72000 150.051
63.76000 145.011
63.80000 147.662
63.84000 140.231
63.88000 151.744
63.92000 157.515
63.96000 159.608
64.00000 154.229
64.04000 153.746
64.08000 152.504
64.12000 157.600
64.16000 158.041
64.20000 161.767
64.24000 165.667
64.28000 161.764
64.32000 171.444
64.36000 166.334
64.40000 168.210
64.44000 175.987
64.48000 179.158
64.52000 174.398
64.56000 169.179
64.60000 168.488
64.64000 173.343
64.68000 179.411
64.72000 184.210
64.76000 184.485
64.80000 186.664
64.84000 196.152
64.88000 205.369
64.92000 204.604
64.96000 206.249
65.00000 230.256
65.04000 211.846
65.08000 226.273
65.12000 239.754
65.16000 237.231
65.20000 256.122
65.24000 269.666
65.28000 286.835
65.32000 313.385
65.36000 331.184
65.40000 347.134
65.44000 401.048
65.48000 443.865
65.52000 470.723
65.56000 514.788
65.60000 589.959
65.64000 700.721
65.68000 994.936
65.72000 1517.872
65.76000 2260.572
65.80000 2878.641
65.84000 3154.571
65.88000 3235.086
65.92000 3010.422
65.96000 2444.182
66.00000 1614.132
66.04000 962.866
66.08000 687.813
66.12000 547.868
66.16000 514.717
66.20000 509.147
66.24000 547.004
66.28000 627.519
66.32000 756.514
66.36000 900.913
66.40000 921.716
66.44000 896.791
66.48000 865.256
66.52000 746.984
66.56000 612.829
66.60000 515.628
66.64000 456.214
66.68000 454.684
66.72000 441.536
66.76000 454.018
66.80000 436.837
66.84000 451.796
66.88000 456.769
66.92000 451.162
66.96000 464.765
67.00000 479.292
67.04000 488.953
67.08000 465.397
67.12000 492.729
67.16000 492.219
67.20000 485.153
67.24000 507.656
67.28000 507.225
67.32000 511.270
67.36000 528.413
67.40000 523.097
67.44000 510.574
67.48000 522.772
67.52000 536.583
67.56000 555.575
67.60000 574.212
67.64000 556.535
67.68000 562.135
67.72000 578.088
67.76000 596.105
67.80000 569.997
67.84000 607.556
67.88000 609.867
67.92000 623.147
67.96000 621.441
68.00000 629.186
68.04000 621.422
68.08000 663.050
68.12000 659.731
68.16000 670.852
68.20000 695.607
68.24000 685.280
68.28000 725.818
68.32000 726.520
68.36000 771.530
68.40000 829.609
68.44000 833.950
68.48000 887.348
68.52000 953.757
68.56000 995.449
68.60000 1170.572
68.64000 1389.204
68.68000 1606.338
68.72000 1965.072
68.76000 2188.401
68.80000 2630.891
68.84000 3086.882
68.88000 4124.152
68.92000 7150.372
68.96000 16927.211
69.00000 37663.617
69.04000 59318.969
69.08000 71012.859
69.12000 75838.711
69.16000 80273.242
69.20000 78140.406
69.24000 63354.293
69.28000 48178.207
69.32000 39012.172
69.36000 35664.168
69.40000 29494.660
69.44000 17818.580
69.48000 8193.798
69.52000 3610.952
69.56000 2073.769
69.60000 1534.165
69.64000 1265.564
69.68000 1104.168
69.72000 990.111
69.76000 877.626
69.80000 801.499
69.84000 738.158
69.88000 686.055
69.92000 685.338
69.96000 642.673
70.00000 614.181