File: XRD/XRD/09-10-2025 Dep 8/XY Data/BTO_Mapping_Theta2Theta_09-10-2025_001_09_36-542_16-269.xy
20.00000 485.587
20.04000 481.786
20.08000 486.632
20.12000 480.218
20.16000 480.412
20.20000 484.836
20.24000 454.559
20.28000 461.992
20.32000 477.293
20.36000 491.255
20.40000 482.551
20.44000 470.761
20.48000 487.924
20.52000 483.833
20.56000 484.590
20.60000 485.756
20.64000 481.533
20.68000 477.501
20.72000 487.998
20.76000 478.978
20.80000 464.303
20.84000 495.589
20.88000 493.795
20.92000 483.700
20.96000 483.347
21.00000 468.959
21.04000 469.743
21.08000 466.208
21.12000 471.704
21.16000 463.885
21.20000 472.119
21.24000 465.806
21.28000 471.227
21.32000 484.290
21.36000 451.535
21.40000 467.412
21.44000 462.580
21.48000 477.686
21.52000 457.079
21.56000 465.980
21.60000 496.442
21.64000 471.998
21.68000 473.746
21.72000 488.570
21.76000 476.892
21.80000 480.860
21.84000 472.822
21.88000 509.068
21.92000 508.178
21.96000 526.745
22.00000 541.423
22.04000 558.828
22.08000 585.728
22.12000 577.101
22.16000 587.515
22.20000 569.229
22.24000 568.368
22.28000 543.286
22.32000 519.677
22.36000 516.130
22.40000 531.348
22.44000 499.803
22.48000 489.763
22.52000 474.027
22.56000 463.430
22.60000 463.392
22.64000 451.531
22.68000 461.804
22.72000 461.036
22.76000 445.890
22.80000 429.565
22.84000 439.878
22.88000 447.475
22.92000 447.080
22.96000 452.475
23.00000 453.441
23.04000 456.398
23.08000 458.955
23.12000 450.015
23.16000 437.749
23.20000 436.146
23.24000 435.166
23.28000 433.098
23.32000 431.626
23.36000 459.503
23.40000 452.413
23.44000 417.408
23.48000 446.728
23.52000 451.859
23.56000 449.692
23.60000 451.453
23.64000 442.861
23.68000 418.969
23.72000 461.155
23.76000 441.603
23.80000 453.407
23.84000 463.814
23.88000 452.093
23.92000 450.768
23.96000 469.250
24.00000 473.958
24.04000 490.998
24.08000 461.110
24.12000 462.051
24.16000 464.797
24.20000 450.341
24.24000 437.397
24.28000 438.499
24.32000 425.233
24.36000 420.364
24.40000 413.124
24.44000 407.034
24.48000 413.473
24.52000 425.543
24.56000 428.766
24.60000 421.748
24.64000 419.732
24.68000 399.053
24.72000 415.880
24.76000 425.097
24.80000 405.232
24.84000 408.073
24.88000 429.888
24.92000 414.678
24.96000 418.825
25.00000 416.759
25.04000 413.786
25.08000 403.380
25.12000 397.413
25.16000 406.974
25.20000 400.972
25.24000 414.541
25.28000 406.667
25.32000 401.693
25.36000 404.072
25.40000 396.131
25.44000 411.822
25.48000 412.174
25.52000 396.997
25.56000 400.336
25.60000 412.377
25.64000 399.288
25.68000 416.487
25.72000 392.701
25.76000 398.013
25.80000 397.681
25.84000 404.250
25.88000 387.755
25.92000 394.046
25.96000 393.166
26.00000 376.496
26.04000 388.320
26.08000 399.178
26.12000 405.043
26.16000 408.784
26.20000 394.977
26.24000 391.888
26.28000 400.871
26.32000 405.300
26.36000 374.483
26.40000 387.205
26.44000 380.880
26.48000 402.050
26.52000 388.841
26.56000 377.174
26.60000 394.981
26.64000 395.591
26.68000 371.286
26.72000 379.837
26.76000 382.261
26.80000 369.277
26.84000 382.669
26.88000 413.916
26.92000 393.543
26.96000 372.230
27.00000 373.693
27.04000 379.256
27.08000 389.946
27.12000 382.821
27.16000 385.497
27.20000 372.291
27.24000 381.265
27.28000 377.553
27.32000 371.588
27.36000 371.946
27.40000 364.587
27.44000 381.696
27.48000 362.865
27.52000 354.463
27.56000 367.827
27.60000 369.913
27.64000 370.374
27.68000 368.126
27.72000 366.649
27.76000 365.576
27.80000 363.727
27.84000 378.838
27.88000 365.844
27.92000 364.605
27.96000 377.777
28.00000 398.083
28.04000 361.825
28.08000 364.496
28.12000 357.595
28.16000 362.323
28.20000 367.729
28.24000 354.304
28.28000 371.156
28.32000 363.529
28.36000 361.905
28.40000 355.691
28.44000 372.787
28.48000 355.078
28.52000 354.767
28.56000 359.888
28.60000 358.133
28.64000 363.466
28.68000 348.787
28.72000 348.698
28.76000 365.096
28.80000 346.400
28.84000 384.250
28.88000 365.026
28.92000 360.545
28.96000 366.115
29.00000 362.020
29.04000 358.043
29.08000 357.334
29.12000 358.646
29.16000 338.713
29.20000 351.622
29.24000 347.510
29.28000 344.694
29.32000 352.295
29.36000 344.361
29.40000 346.438
29.44000 348.951
29.48000 341.752
29.52000 351.603
29.56000 363.875
29.60000 360.582
29.64000 341.307
29.68000 354.769
29.72000 344.224
29.76000 361.807
29.80000 360.219
29.84000 375.937
29.88000 379.370
29.92000 375.972
29.96000 378.407
30.00000 390.819
30.04000 401.281
30.08000 389.690
30.12000 398.270
30.16000 388.260
30.20000 376.952
30.24000 390.272
30.28000 396.274
30.32000 373.088
30.36000 376.581
30.40000 362.084
30.44000 370.590
30.48000 366.600
30.52000 372.834
30.56000 369.083
30.60000 362.862
30.64000 370.313
30.68000 369.867
30.72000 372.608
30.76000 379.144
30.80000 376.763
30.84000 393.973
30.88000 415.395
30.92000 405.253
30.96000 415.591
31.00000 442.215
31.04000 448.657
31.08000 490.751
31.12000 537.779
31.16000 606.013
31.20000 709.151
31.24000 871.137
31.28000 1018.958
31.32000 1254.168
31.36000 1433.479
31.40000 1581.493
31.44000 1649.111
31.48000 1615.374
31.52000 1482.303
31.56000 1351.576
31.60000 1184.213
31.64000 999.841
31.68000 809.720
31.72000 682.576
31.76000 584.411
31.80000 527.575
31.84000 487.007
31.88000 443.336
31.92000 415.952
31.96000 402.106
32.00000 380.866
32.04000 378.004
32.08000 355.529
32.12000 351.963
32.16000 356.460
32.20000 346.629
32.24000 334.207
32.28000 326.267
32.32000 326.677
32.36000 324.145
32.40000 348.272
32.44000 343.071
32.48000 328.386
32.52000 327.374
32.56000 314.319
32.60000 333.703
32.64000 321.985
32.68000 328.213
32.72000 322.340
32.76000 312.047
32.80000 321.287
32.84000 309.367
32.88000 312.363
32.92000 309.221
32.96000 303.963
33.00000 296.698
33.04000 305.348
33.08000 311.774
33.12000 291.228
33.16000 297.959
33.20000 296.512
33.24000 301.020
33.28000 286.596
33.32000 299.541
33.36000 300.250
33.40000 293.079
33.44000 289.344
33.48000 290.722
33.52000 282.276
33.56000 283.649
33.60000 285.860
33.64000 300.554
33.68000 295.102
33.72000 298.908
33.76000 304.256
33.80000 286.829
33.84000 300.427
33.88000 290.962
33.92000 305.604
33.96000 299.317
34.00000 291.874
34.04000 280.174
34.08000 287.842
34.12000 288.493
34.16000 291.523
34.20000 306.090
34.24000 287.256
34.28000 294.678
34.32000 288.365
34.36000 305.719
34.40000 293.523
34.44000 291.123
34.48000 284.874
34.52000 296.720
34.56000 293.035
34.60000 286.141
34.64000 279.026
34.68000 282.855
34.72000 281.703
34.76000 284.341
34.80000 286.178
34.84000 277.917
34.88000 275.071
34.92000 268.914
34.96000 273.623
35.00000 270.971
35.04000 282.051
35.08000 282.094
35.12000 272.815
35.16000 273.308
35.20000 274.231
35.24000 272.454
35.28000 267.301
35.32000 269.441
35.36000 280.342
35.40000 264.819
35.44000 262.762
35.48000 274.475
35.52000 264.751
35.56000 264.051
35.60000 281.522
35.64000 269.161
35.68000 258.333
35.72000 266.636
35.76000 267.818
35.80000 264.221
35.84000 281.019
35.88000 270.695
35.92000 260.115
35.96000 268.629
36.00000 253.732
36.04000 266.148
36.08000 272.360
36.12000 270.885
36.16000 259.371
36.20000 256.004
36.24000 265.536
36.28000 260.025
36.32000 266.713
36.36000 253.085
36.40000 258.830
36.44000 261.915
36.48000 258.162
36.52000 254.812
36.56000 264.788
36.60000 254.834
36.64000 253.326
36.68000 257.567
36.72000 252.216
36.76000 254.209
36.80000 255.307
36.84000 280.123
36.88000 261.501
36.92000 261.541
36.96000 267.054
37.00000 280.111
37.04000 271.168
37.08000 272.975
37.12000 267.246
37.16000 259.600
37.20000 269.823
37.24000 271.877
37.28000 269.190
37.32000 260.369
37.36000 260.655
37.40000 263.746
37.44000 257.624
37.48000 269.122
37.52000 258.127
37.56000 257.127
37.60000 254.901
37.64000 245.115
37.68000 263.311
37.72000 253.101
37.76000 258.394
37.80000 254.405
37.84000 252.338
37.88000 263.668
37.92000 253.122
37.96000 230.367
38.00000 257.132
38.04000 263.124
38.08000 241.824
38.12000 257.754
38.16000 262.621
38.20000 264.590
38.24000 260.828
38.28000 262.448
38.32000 273.790
38.36000 259.207
38.40000 270.746
38.44000 283.165
38.48000 313.697
38.52000 337.119
38.56000 377.765
38.60000 463.494
38.64000 565.366
38.68000 700.304
38.72000 820.687
38.76000 885.770
38.80000 902.761
38.84000 880.209
38.88000 809.265
38.92000 728.256
38.96000 580.216
39.00000 480.347
39.04000 393.950
39.08000 343.962
39.12000 331.543
39.16000 283.352
39.20000 272.820
39.24000 251.987
39.28000 253.920
39.32000 245.728
39.36000 250.127
39.40000 239.268
39.44000 233.845
39.48000 251.859
39.52000 244.088
39.56000 235.519
39.60000 232.531
39.64000 238.371
39.68000 233.491
39.72000 221.921
39.76000 227.717
39.80000 231.859
39.84000 217.251
39.88000 232.221
39.92000 237.068
39.96000 226.267
40.00000 240.463
40.04000 226.588
40.08000 234.349
40.12000 235.507
40.16000 225.544
40.20000 227.918
40.24000 215.643
40.28000 220.788
40.32000 225.361
40.36000 215.446
40.40000 227.653
40.44000 217.585
40.48000 219.122
40.52000 226.932
40.56000 227.914
40.60000 213.638
40.64000 234.072
40.68000 222.187
40.72000 217.471
40.76000 228.988
40.80000 221.672
40.84000 218.838
40.88000 215.695
40.92000 219.521
40.96000 219.975
41.00000 217.716
41.04000 215.002
41.08000 206.700
41.12000 203.072
41.16000 204.840
41.20000 212.574
41.24000 215.796
41.28000 211.065
41.32000 207.907
41.36000 206.433
41.40000 205.250
41.44000 203.885
41.48000 209.367
41.52000 209.201
41.56000 208.972
41.60000 211.044
41.64000 203.096
41.68000 209.379
41.72000 202.629
41.76000 206.187
41.80000 213.371
41.84000 204.840
41.88000 209.870
41.92000 210.975
41.96000 220.988
42.00000 215.170
42.04000 206.047
42.08000 214.048
42.12000 209.347
42.16000 197.729
42.20000 219.949
42.24000 204.912
42.28000 201.451
42.32000 205.300
42.36000 205.730
42.40000 205.673
42.44000 202.169
42.48000 209.714
42.52000 215.954
42.56000 207.878
42.60000 199.527
42.64000 208.428
42.68000 208.147
42.72000 202.452
42.76000 194.393
42.80000 202.620
42.84000 204.987
42.88000 201.830
42.92000 215.619
42.96000 204.456
43.00000 213.169
43.04000 213.989
43.08000 209.749
43.12000 198.495
43.16000 193.374
43.20000 200.746
43.24000 201.194
43.28000 205.579
43.32000 195.984
43.36000 197.664
43.40000 207.754
43.44000 200.318
43.48000 207.591
43.52000 202.563
43.56000 195.094
43.60000 202.493
43.64000 195.951
43.68000 192.697
43.72000 203.771
43.76000 202.210
43.80000 183.906
43.84000 193.422
43.88000 184.445
43.92000 202.731
43.96000 192.481
44.00000 193.321
44.04000 194.527
44.08000 198.862
44.12000 180.151
44.16000 199.883
44.20000 189.646
44.24000 200.541
44.28000 199.078
44.32000 178.624
44.36000 194.063
44.40000 187.599
44.44000 188.711
44.48000 196.993
44.52000 202.224
44.56000 205.968
44.60000 202.637
44.64000 202.881
44.68000 202.803
44.72000 204.541
44.76000 208.979
44.80000 209.845
44.84000 217.372
44.88000 221.417
44.92000 227.278
44.96000 234.678
45.00000 253.670
45.04000 248.416
45.08000 258.475
45.12000 262.032
45.16000 266.003
45.20000 282.109
45.24000 260.514
45.28000 262.669
45.32000 256.027
45.36000 258.464
45.40000 247.199
45.44000 232.211
45.48000 241.267
45.52000 237.869
45.56000 226.689
45.60000 229.369
45.64000 225.664
45.68000 223.276
45.72000 207.673
45.76000 225.692
45.80000 219.608
45.84000 211.823
45.88000 203.526
45.92000 207.027
45.96000 193.026
46.00000 191.199
46.04000 197.681
46.08000 193.461
46.12000 171.663
46.16000 177.381
46.20000 174.309
46.24000 181.123
46.28000 187.351
46.32000 171.741
46.36000 186.679
46.40000 178.372
46.44000 172.767
46.48000 200.688
46.52000 176.090
46.56000 175.456
46.60000 172.353
46.64000 179.908
46.68000 181.500
46.72000 184.232
46.76000 172.373
46.80000 169.443
46.84000 169.390
46.88000 166.218
46.92000 178.179
46.96000 175.356
47.00000 170.899
47.04000 173.774
47.08000 160.335
47.12000 168.046
47.16000 163.186
47.20000 171.170
47.24000 161.841
47.28000 174.156
47.32000 167.512
47.36000 171.808
47.40000 167.464
47.44000 176.145
47.48000 155.150
47.52000 157.881
47.56000 162.908
47.60000 161.496
47.64000 162.127
47.68000 157.471
47.72000 162.563
47.76000 155.857
47.80000 154.482
47.84000 161.403
47.88000 169.258
47.92000 165.444
47.96000 154.391
48.00000 159.439
48.04000 163.551
48.08000 171.869
48.12000 163.468
48.16000 156.180
48.20000 158.487
48.24000 159.214
48.28000 160.586
48.32000 161.797
48.36000 161.308
48.40000 164.924
48.44000 156.803
48.48000 167.100
48.52000 151.436
48.56000 158.813
48.60000 154.665
48.64000 155.399
48.68000 158.176
48.72000 153.155
48.76000 152.897
48.80000 150.769
48.84000 156.613
48.88000 152.566
48.92000 154.630
48.96000 157.165
49.00000 158.630
49.04000 144.777
49.08000 151.467
49.12000 156.201
49.16000 162.570
49.20000 156.142
49.24000 155.396
49.28000 159.467
49.32000 157.889
49.36000 163.400
49.40000 155.722
49.44000 152.050
49.48000 159.756
49.52000 167.230
49.56000 150.129
49.60000 165.098
49.64000 153.116
49.68000 158.344
49.72000 154.153
49.76000 155.908
49.80000 158.222
49.84000 145.275
49.88000 151.607
49.92000 143.504
49.96000 157.903
50.00000 154.865
50.04000 151.789
50.08000 161.541
50.12000 152.995
50.16000 150.471
50.20000 153.270
50.24000 149.147
50.28000 153.462
50.32000 156.246
50.36000 160.844
50.40000 159.383
50.44000 161.791
50.48000 169.638
50.52000 164.611
50.56000 174.633
50.60000 164.989
50.64000 170.431
50.68000 176.163
50.72000 178.353
50.76000 194.043
50.80000 186.637
50.84000 187.747
50.88000 197.400
50.92000 183.497
50.96000 171.513
51.00000 180.030
51.04000 177.921
51.08000 166.651
51.12000 167.235
51.16000 161.134
51.20000 164.357
51.24000 159.276
51.28000 161.399
51.32000 155.670
51.36000 154.172
51.40000 141.330
51.44000 150.381
51.48000 148.994
51.52000 155.233
51.56000 148.929
51.60000 144.262
51.64000 159.429
51.68000 148.185
51.72000 143.721
51.76000 146.044
51.80000 147.353
51.84000 135.615
51.88000 141.674
51.92000 128.292
51.96000 144.613
52.00000 137.439
52.04000 143.137
52.08000 144.900
52.12000 143.878
52.16000 143.459
52.20000 139.149
52.24000 140.411
52.28000 142.831
52.32000 148.525
52.36000 138.763
52.40000 136.843
52.44000 144.230
52.48000 147.527
52.52000 131.661
52.56000 134.924
52.60000 141.239
52.64000 137.867
52.68000 130.742
52.72000 138.267
52.76000 141.041
52.80000 141.489
52.84000 137.745
52.88000 143.308
52.92000 144.041
52.96000 137.981
53.00000 128.771
53.04000 132.463
53.08000 135.860
53.12000 134.742
53.16000 138.011
53.20000 141.868
53.24000 150.093
53.28000 150.737
53.32000 142.992
53.36000 140.806
53.40000 151.081
53.44000 159.503
53.48000 154.652
53.52000 153.317
53.56000 156.595
53.60000 148.974
53.64000 152.192
53.68000 135.682
53.72000 147.468
53.76000 159.587
53.80000 137.132
53.84000 147.565
53.88000 133.543
53.92000 141.943
53.96000 149.641
54.00000 143.619
54.04000 133.075
54.08000 136.845
54.12000 134.106
54.16000 135.278
54.20000 135.146
54.24000 135.616
54.28000 140.687
54.32000 133.272
54.36000 132.731
54.40000 133.768
54.44000 140.971
54.48000 142.231
54.52000 134.929
54.56000 138.609
54.60000 139.345
54.64000 144.613
54.68000 143.395
54.72000 145.781
54.76000 142.763
54.80000 141.422
54.84000 141.650
54.88000 132.616
54.92000 145.402
54.96000 138.707
55.00000 140.560
55.04000 145.097
55.08000 133.769
55.12000 131.603
55.16000 141.432
55.20000 138.460
55.24000 130.491
55.28000 143.594
55.32000 153.261
55.36000 146.853
55.40000 151.580
55.44000 164.587
55.48000 159.053
55.52000 156.337
55.56000 163.949
55.60000 172.525
55.64000 177.720
55.68000 201.953
55.72000 225.341
55.76000 238.804
55.80000 276.882
55.84000 334.073
55.88000 390.494
55.92000 442.930
55.96000 504.319
56.00000 526.128
56.04000 553.355
56.08000 570.513
56.12000 554.159
56.16000 520.506
56.20000 488.952
56.24000 436.617
56.28000 376.505
56.32000 317.592
56.36000 281.650
56.40000 247.637
56.44000 231.239
56.48000 192.384
56.52000 192.570
56.56000 183.031
56.60000 161.088
56.64000 161.594
56.68000 144.664
56.72000 154.378
56.76000 144.556
56.80000 147.203
56.84000 135.069
56.88000 134.867
56.92000 137.993
56.96000 136.245
57.00000 129.173
57.04000 128.367
57.08000 130.027
57.12000 140.715
57.16000 125.793
57.20000 131.737
57.24000 134.196
57.28000 132.878
57.32000 120.649
57.36000 124.015
57.40000 128.055
57.44000 121.317
57.48000 134.539
57.52000 132.162
57.56000 131.406
57.60000 122.523
57.64000 124.666
57.68000 118.804
57.72000 123.235
57.76000 137.437
57.80000 127.810
57.84000 133.421
57.88000 130.912
57.92000 123.117
57.96000 125.632
58.00000 128.223
58.04000 124.471
58.08000 126.254
58.12000 123.828
58.16000 125.876
58.20000 122.153
58.24000 116.170
58.28000 129.842
58.32000 123.122
58.36000 124.569
58.40000 114.925
58.44000 113.850
58.48000 124.383
58.52000 120.842
58.56000 124.129
58.60000 129.589
58.64000 124.144
58.68000 108.006
58.72000 122.130
58.76000 118.589
58.80000 116.203
58.84000 111.786
58.88000 130.159
58.92000 124.433
58.96000 113.641
59.00000 121.381
59.04000 109.110
59.08000 127.373
59.12000 113.822
59.16000 116.097
59.20000 121.482
59.24000 117.175
59.28000 109.741
59.32000 119.984
59.36000 123.964
59.40000 114.844
59.44000 121.170
59.48000 112.259
59.52000 124.357
59.56000 122.999
59.60000 120.796
59.64000 117.219
59.68000 111.834
59.72000 117.151
59.76000 127.977
59.80000 124.253
59.84000 121.467
59.88000 113.686
59.92000 117.466
59.96000 116.205
60.00000 120.827
60.04000 121.384
60.08000 114.477
60.12000 116.098
60.16000 120.245
60.20000 124.970
60.24000 117.891
60.28000 119.862
60.32000 118.123
60.36000 124.375
60.40000 122.119
60.44000 119.762
60.48000 118.062
60.52000 120.777
60.56000 110.725
60.60000 122.809
60.64000 122.565
60.68000 120.312
60.72000 117.611
60.76000 114.507
60.80000 117.885
60.84000 121.233
60.88000 117.339
60.92000 115.472
60.96000 122.201
61.00000 127.236
61.04000 130.467
61.08000 120.468
61.12000 130.246
61.16000 123.395
61.20000 127.972
61.24000 118.412
61.28000 124.128
61.32000 124.122
61.36000 126.147
61.40000 113.190
61.44000 122.810
61.48000 120.809
61.52000 149.018
61.56000 203.955
61.60000 256.377
61.64000 278.481
61.68000 297.080
61.72000 288.971
61.76000 267.902
61.80000 229.161
61.84000 171.156
61.88000 146.526
61.92000 139.227
61.96000 131.245
62.00000 127.897
62.04000 128.687
62.08000 127.237
62.12000 127.206
62.16000 137.309
62.20000 137.681
62.24000 125.314
62.28000 134.121
62.32000 120.375
62.36000 129.956
62.40000 123.726
62.44000 126.727
62.48000 131.565
62.52000 129.227
62.56000 130.030
62.60000 129.134
62.64000 138.647
62.68000 138.028
62.72000 140.534
62.76000 136.205
62.80000 137.406
62.84000 128.206
62.88000 127.766
62.92000 136.793
62.96000 132.316
63.00000 137.542
63.04000 147.533
63.08000 123.383
63.12000 132.834
63.16000 133.271
63.20000 142.938
63.24000 137.234
63.28000 133.640
63.32000 128.499
63.36000 140.844
63.40000 135.930
63.44000 130.449
63.48000 138.435
63.52000 137.973
63.56000 144.658
63.60000 136.681
63.64000 142.366
63.68000 138.258
63.72000 142.642
63.76000 142.464
63.80000 138.803
63.84000 145.034
63.88000 147.648
63.92000 149.818
63.96000 146.518
64.00000 148.699
64.04000 153.944
64.08000 139.906
64.12000 151.170
64.16000 152.873
64.20000 151.047
64.24000 147.043
64.28000 154.018
64.32000 148.736
64.36000 154.601
64.40000 159.361
64.44000 152.512
64.48000 156.875
64.52000 159.834
64.56000 169.330
64.60000 160.638
64.64000 175.313
64.68000 173.372
64.72000 175.641
64.76000 183.779
64.80000 169.733
64.84000 180.518
64.88000 165.296
64.92000 178.531
64.96000 179.825
65.00000 184.848
65.04000 187.746
65.08000 197.760
65.12000 185.254
65.16000 200.869
65.20000 205.008
65.24000 202.786
65.28000 213.012
65.32000 220.197
65.36000 244.770
65.40000 241.414
65.44000 259.738
65.48000 295.644
65.52000 313.187
65.56000 362.687
65.60000 387.963
65.64000 426.120
65.68000 617.458
65.72000 950.608
65.76000 1434.650
65.80000 1803.903
65.84000 1974.629
65.88000 1983.482
65.92000 1871.608
65.96000 1564.494
66.00000 1053.736
66.04000 651.112
66.08000 492.713
66.12000 424.278
66.16000 384.831
66.20000 390.636
66.24000 407.347
66.28000 484.936
66.32000 538.989
66.36000 607.687
66.40000 630.212
66.44000 633.184
66.48000 619.451
66.52000 543.157
66.56000 437.459
66.60000 390.057
66.64000 364.962
66.68000 339.856
66.72000 343.019
66.76000 356.265
66.80000 357.549
66.84000 368.124
66.88000 373.046
66.92000 370.057
66.96000 379.822
67.00000 347.888
67.04000 383.514
67.08000 384.665
67.12000 382.359
67.16000 397.171
67.20000 401.724
67.24000 402.819
67.28000 406.009
67.32000 406.933
67.36000 423.118
67.40000 411.487
67.44000 411.344
67.48000 427.023
67.52000 418.839
67.56000 442.360
67.60000 457.833
67.64000 460.921
67.68000 445.374
67.72000 478.787
67.76000 467.962
67.80000 479.795
67.84000 485.465
67.88000 490.158
67.92000 487.778
67.96000 506.882
68.00000 523.883
68.04000 498.647
68.08000 524.895
68.12000 529.732
68.16000 556.837
68.20000 560.009
68.24000 581.688
68.28000 596.958
68.32000 622.176
68.36000 618.260
68.40000 650.764
68.44000 676.778
68.48000 688.690
68.52000 739.812
68.56000 784.076
68.60000 876.690
68.64000 1018.059
68.68000 1181.403
68.72000 1368.929
68.76000 1544.342
68.80000 1750.213
68.84000 2016.185
68.88000 2559.410
68.92000 4147.307
68.96000 10006.896
69.00000 22828.367
69.04000 36201.383
69.08000 43427.141
69.12000 45927.875
69.16000 48870.988
69.20000 48323.824
69.24000 39337.230
69.28000 28956.215
69.32000 23825.625
69.36000 22186.250
69.40000 18422.648
69.44000 11234.939
69.48000 4900.229
69.52000 2310.349
69.56000 1449.032
69.60000 1144.431
69.64000 979.110
69.68000 849.847
69.72000 786.998
69.76000 716.354
69.80000 656.385
69.84000 630.256
69.88000 583.388
69.92000 569.480
69.96000 532.518
70.00000 505.281