File: XRD/XRD/09-10-2025 Dep 8/XY Data/BTO_Mapping_Theta2Theta_09-10-2025_001_43_-10-000_-17-321.xy
20.00000 497.878
20.04000 485.553
20.08000 482.423
20.12000 490.126
20.16000 482.910
20.20000 495.131
20.24000 478.489
20.28000 504.072
20.32000 488.682
20.36000 478.635
20.40000 482.932
20.44000 487.324
20.48000 483.859
20.52000 489.330
20.56000 485.874
20.60000 491.226
20.64000 478.676
20.68000 477.790
20.72000 481.599
20.76000 472.678
20.80000 475.181
20.84000 469.309
20.88000 486.629
20.92000 487.079
20.96000 491.070
21.00000 464.472
21.04000 454.341
21.08000 482.642
21.12000 513.474
21.16000 484.457
21.20000 495.273
21.24000 476.947
21.28000 490.302
21.32000 494.476
21.36000 455.033
21.40000 487.926
21.44000 480.724
21.48000 476.433
21.52000 476.325
21.56000 488.499
21.60000 482.801
21.64000 499.265
21.68000 527.184
21.72000 507.698
21.76000 521.009
21.80000 563.599
21.84000 575.548
21.88000 601.011
21.92000 620.849
21.96000 658.760
22.00000 714.083
22.04000 704.129
22.08000 706.809
22.12000 702.846
22.16000 677.820
22.20000 637.126
22.24000 590.226
22.28000 569.249
22.32000 557.455
22.36000 531.666
22.40000 518.052
22.44000 498.758
22.48000 477.214
22.52000 490.459
22.56000 482.215
22.60000 471.557
22.64000 473.598
22.68000 465.309
22.72000 453.336
22.76000 469.094
22.80000 447.893
22.84000 455.803
22.88000 462.836
22.92000 458.883
22.96000 449.827
23.00000 425.289
23.04000 449.062
23.08000 437.516
23.12000 449.896
23.16000 443.525
23.20000 439.705
23.24000 438.179
23.28000 428.701
23.32000 425.224
23.36000 447.949
23.40000 439.890
23.44000 441.729
23.48000 432.642
23.52000 422.920
23.56000 437.342
23.60000 430.741
23.64000 442.582
23.68000 440.094
23.72000 431.663
23.76000 425.992
23.80000 435.428
23.84000 439.583
23.88000 433.908
23.92000 415.008
23.96000 438.845
24.00000 422.708
24.04000 446.012
24.08000 435.584
24.12000 433.457
24.16000 424.450
24.20000 427.308
24.24000 421.551
24.28000 409.467
24.32000 438.078
24.36000 414.662
24.40000 421.936
24.44000 420.699
24.48000 423.686
24.52000 417.699
24.56000 417.504
24.60000 420.006
24.64000 435.497
24.68000 427.898
24.72000 414.577
24.76000 411.722
24.80000 398.434
24.84000 410.530
24.88000 406.866
24.92000 426.734
24.96000 423.799
25.00000 416.872
25.04000 431.743
25.08000 433.033
25.12000 406.886
25.16000 408.929
25.20000 411.400
25.24000 415.404
25.28000 416.891
25.32000 383.973
25.36000 409.443
25.40000 402.204
25.44000 398.268
25.48000 399.895
25.52000 409.096
25.56000 401.867
25.60000 407.709
25.64000 393.900
25.68000 394.844
25.72000 410.231
25.76000 419.678
25.80000 403.214
25.84000 409.485
25.88000 406.864
25.92000 393.932
25.96000 403.934
26.00000 396.082
26.04000 392.755
26.08000 387.681
26.12000 373.273
26.16000 403.918
26.20000 400.843
26.24000 378.007
26.28000 406.973
26.32000 404.218
26.36000 387.406
26.40000 395.780
26.44000 392.998
26.48000 402.792
26.52000 395.574
26.56000 397.209
26.60000 397.963
26.64000 383.385
26.68000 386.044
26.72000 400.922
26.76000 397.638
26.80000 402.654
26.84000 392.143
26.88000 387.261
26.92000 392.812
26.96000 392.873
27.00000 393.327
27.04000 379.895
27.08000 380.097
27.12000 378.533
27.16000 367.840
27.20000 382.190
27.24000 380.598
27.28000 375.532
27.32000 385.288
27.36000 381.885
27.40000 385.830
27.44000 373.957
27.48000 380.350
27.52000 384.626
27.56000 392.770
27.60000 370.262
27.64000 378.616
27.68000 383.130
27.72000 378.246
27.76000 391.320
27.80000 363.644
27.84000 377.162
27.88000 373.468
27.92000 394.654
27.96000 367.686
28.00000 381.635
28.04000 380.890
28.08000 373.969
28.12000 366.576
28.16000 380.177
28.20000 394.131
28.24000 380.410
28.28000 378.067
28.32000 374.407
28.36000 371.192
28.40000 366.032
28.44000 383.582
28.48000 364.879
28.52000 381.911
28.56000 369.319
28.60000 352.877
28.64000 377.543
28.68000 373.008
28.72000 364.788
28.76000 365.651
28.80000 371.514
28.84000 354.518
28.88000 365.704
28.92000 362.030
28.96000 365.785
29.00000 360.838
29.04000 353.600
29.08000 375.443
29.12000 376.373
29.16000 387.061
29.20000 365.069
29.24000 354.308
29.28000 368.077
29.32000 350.437
29.36000 351.966
29.40000 374.316
29.44000 384.316
29.48000 379.507
29.52000 372.356
29.56000 351.510
29.60000 368.507
29.64000 344.806
29.68000 372.424
29.72000 366.811
29.76000 377.341
29.80000 384.212
29.84000 404.658
29.88000 390.711
29.92000 410.003
29.96000 428.726
30.00000 454.847
30.04000 453.024
30.08000 446.143
30.12000 459.651
30.16000 447.222
30.20000 434.787
30.24000 422.239
30.28000 407.659
30.32000 407.286
30.36000 408.371
30.40000 400.952
30.44000 386.256
30.48000 387.737
30.52000 417.699
30.56000 406.467
30.60000 413.312
30.64000 403.647
30.68000 411.694
30.72000 424.894
30.76000 421.754
30.80000 423.764
30.84000 436.042
30.88000 436.157
30.92000 437.808
30.96000 495.310
31.00000 531.010
31.04000 609.803
31.08000 711.380
31.12000 906.344
31.16000 1127.781
31.20000 1441.177
31.24000 1787.385
31.28000 2248.775
31.32000 2662.443
31.36000 2926.870
31.40000 2974.148
31.44000 2862.533
31.48000 2537.886
31.52000 2145.386
31.56000 1708.903
31.60000 1360.998
31.64000 1068.188
31.68000 840.985
31.72000 708.541
31.76000 592.326
31.80000 531.941
31.84000 485.738
31.88000 437.379
31.92000 425.523
31.96000 408.793
32.00000 392.652
32.04000 391.373
32.08000 372.415
32.12000 368.191
32.16000 368.127
32.20000 356.817
32.24000 355.107
32.28000 367.657
32.32000 341.279
32.36000 337.217
32.40000 340.402
32.44000 334.669
32.48000 326.389
32.52000 346.978
32.56000 340.656
32.60000 340.256
32.64000 326.770
32.68000 340.557
32.72000 321.094
32.76000 328.367
32.80000 332.691
32.84000 330.965
32.88000 322.812
32.92000 315.510
32.96000 314.353
33.00000 316.671
33.04000 333.474
33.08000 305.636
33.12000 309.116
33.16000 319.498
33.20000 289.094
33.24000 318.498
33.28000 297.990
33.32000 311.046
33.36000 290.495
33.40000 289.806
33.44000 301.937
33.48000 310.225
33.52000 314.297
33.56000 305.290
33.60000 313.040
33.64000 298.053
33.68000 308.633
33.72000 299.575
33.76000 287.200
33.80000 293.434
33.84000 297.759
33.88000 298.450
33.92000 312.885
33.96000 280.072
34.00000 281.632
34.04000 293.933
34.08000 295.318
34.12000 302.029
34.16000 303.545
34.20000 293.174
34.24000 293.568
34.28000 288.934
34.32000 284.803
34.36000 302.833
34.40000 286.546
34.44000 297.054
34.48000 297.655
34.52000 279.046
34.56000 285.890
34.60000 283.517
34.64000 266.524
34.68000 286.757
34.72000 288.949
34.76000 282.752
34.80000 290.876
34.84000 270.875
34.88000 282.586
34.92000 291.124
34.96000 274.331
35.00000 281.078
35.04000 278.279
35.08000 273.639
35.12000 274.460
35.16000 278.870
35.20000 266.088
35.24000 269.119
35.28000 288.714
35.32000 266.710
35.36000 274.867
35.40000 283.906
35.44000 268.643
35.48000 274.711
35.52000 267.028
35.56000 267.299
35.60000 269.384
35.64000 273.674
35.68000 249.799
35.72000 270.627
35.76000 287.862
35.80000 264.490
35.84000 282.387
35.88000 273.053
35.92000 281.509
35.96000 267.303
36.00000 282.686
36.04000 280.380
36.08000 273.707
36.12000 274.188
36.16000 261.796
36.20000 261.561
36.24000 260.187
36.28000 254.429
36.32000 262.048
36.36000 266.979
36.40000 262.605
36.44000 260.862
36.48000 266.072
36.52000 274.549
36.56000 265.303
36.60000 254.184
36.64000 267.869
36.68000 263.082
36.72000 258.535
36.76000 275.458
36.80000 277.386
36.84000 268.500
36.88000 275.374
36.92000 276.125
36.96000 288.971
37.00000 291.647
37.04000 298.164
37.08000 278.750
37.12000 282.164
37.16000 250.773
37.20000 276.017
37.24000 278.138
37.28000 269.054
37.32000 271.989
37.36000 264.767
37.40000 266.584
37.44000 270.456
37.48000 273.457
37.52000 274.473
37.56000 277.143
37.60000 263.094
37.64000 265.569
37.68000 267.258
37.72000 264.794
37.76000 278.739
37.80000 259.361
37.84000 274.489
37.88000 273.742
37.92000 277.009
37.96000 273.914
38.00000 264.476
38.04000 259.187
38.08000 278.243
38.12000 277.247
38.16000 294.804
38.20000 303.249
38.24000 290.151
38.28000 305.491
38.32000 315.022
38.36000 331.434
38.40000 375.028
38.44000 430.025
38.48000 483.911
38.52000 568.361
38.56000 650.497
38.60000 788.927
38.64000 856.688
38.68000 889.160
38.72000 897.265
38.76000 862.339
38.80000 772.245
38.84000 671.154
38.88000 582.667
38.92000 499.152
38.96000 431.446
39.00000 380.800
39.04000 328.869
39.08000 304.480
39.12000 283.068
39.16000 279.365
39.20000 290.316
39.24000 272.137
39.28000 260.472
39.32000 256.622
39.36000 257.651
39.40000 255.411
39.44000 256.530
39.48000 248.735
39.52000 245.110
39.56000 246.436
39.60000 239.184
39.64000 241.904
39.68000 246.392
39.72000 238.866
39.76000 243.633
39.80000 242.786
39.84000 244.517
39.88000 231.951
39.92000 238.257
39.96000 232.496
40.00000 229.106
40.04000 237.443
40.08000 233.409
40.12000 235.588
40.16000 237.255
40.20000 242.143
40.24000 240.558
40.28000 236.190
40.32000 238.601
40.36000 233.682
40.40000 219.459
40.44000 229.316
40.48000 230.558
40.52000 218.794
40.56000 230.357
40.60000 238.959
40.64000 224.684
40.68000 217.662
40.72000 228.581
40.76000 222.497
40.80000 225.342
40.84000 221.065
40.88000 225.421
40.92000 220.234
40.96000 216.043
41.00000 201.501
41.04000 224.841
41.08000 220.207
41.12000 238.618
41.16000 229.291
41.20000 227.001
41.24000 215.326
41.28000 216.590
41.32000 215.383
41.36000 214.803
41.40000 212.106
41.44000 216.632
41.48000 208.569
41.52000 217.657
41.56000 204.080
41.60000 215.091
41.64000 215.176
41.68000 214.392
41.72000 204.630
41.76000 220.015
41.80000 225.036
41.84000 206.671
41.88000 207.569
41.92000 213.301
41.96000 212.318
42.00000 198.577
42.04000 212.272
42.08000 203.672
42.12000 220.518
42.16000 217.262
42.20000 204.446
42.24000 209.084
42.28000 212.439
42.32000 222.525
42.36000 209.308
42.40000 203.688
42.44000 204.863
42.48000 198.130
42.52000 200.472
42.56000 194.969
42.60000 201.819
42.64000 214.051
42.68000 210.319
42.72000 204.944
42.76000 204.837
42.80000 222.221
42.84000 208.444
42.88000 207.060
42.92000 208.274
42.96000 213.895
43.00000 208.767
43.04000 198.090
43.08000 212.460
43.12000 207.508
43.16000 204.919
43.20000 212.901
43.24000 213.234
43.28000 203.587
43.32000 204.737
43.36000 204.376
43.40000 194.782
43.44000 192.682
43.48000 213.061
43.52000 194.735
43.56000 201.236
43.60000 217.633
43.64000 193.442
43.68000 186.851
43.72000 205.403
43.76000 207.587
43.80000 188.110
43.84000 210.129
43.88000 194.449
43.92000 203.012
43.96000 204.023
44.00000 202.788
44.04000 206.734
44.08000 206.371
44.12000 213.643
44.16000 205.656
44.20000 200.843
44.24000 210.229
44.28000 209.750
44.32000 198.219
44.36000 210.861
44.40000 217.318
44.44000 222.615
44.48000 214.052
44.52000 221.187
44.56000 224.384
44.60000 232.912
44.64000 240.140
44.68000 252.454
44.72000 252.986
44.76000 283.961
44.80000 304.881
44.84000 304.395
44.88000 332.585
44.92000 360.591
44.96000 382.487
45.00000 404.108
45.04000 407.200
45.08000 408.263
45.12000 386.608
45.16000 391.457
45.20000 362.697
45.24000 352.313
45.28000 318.888
45.32000 312.298
45.36000 288.400
45.40000 287.049
45.44000 266.624
45.48000 267.038
45.52000 246.808
45.56000 250.422
45.60000 236.773
45.64000 227.124
45.68000 231.267
45.72000 215.893
45.76000 205.700
45.80000 205.939
45.84000 206.892
45.88000 176.908
45.92000 197.094
45.96000 194.578
46.00000 195.511
46.04000 201.084
46.08000 189.813
46.12000 183.188
46.16000 186.062
46.20000 175.228
46.24000 186.668
46.28000 179.890
46.32000 181.460
46.36000 184.872
46.40000 179.093
46.44000 178.450
46.48000 180.392
46.52000 178.807
46.56000 175.038
46.60000 183.126
46.64000 170.043
46.68000 181.608
46.72000 170.060
46.76000 182.246
46.80000 185.655
46.84000 171.371
46.88000 175.850
46.92000 181.198
46.96000 165.725
47.00000 171.726
47.04000 159.507
47.08000 175.236
47.12000 173.664
47.16000 174.580
47.20000 172.571
47.24000 162.591
47.28000 169.016
47.32000 165.521
47.36000 174.301
47.40000 170.788
47.44000 185.296
47.48000 165.540
47.52000 160.508
47.56000 180.195
47.60000 171.257
47.64000 171.802
47.68000 171.932
47.72000 170.687
47.76000 159.416
47.80000 168.120
47.84000 169.969
47.88000 149.528
47.92000 156.591
47.96000 164.354
48.00000 157.572
48.04000 159.244
48.08000 152.656
48.12000 166.784
48.16000 163.908
48.20000 165.806
48.24000 157.972
48.28000 169.102
48.32000 166.307
48.36000 162.779
48.40000 172.735
48.44000 164.998
48.48000 179.046
48.52000 169.145
48.56000 170.079
48.60000 156.625
48.64000 152.998
48.68000 178.685
48.72000 155.318
48.76000 159.246
48.80000 162.031
48.84000 162.057
48.88000 158.934
48.92000 164.054
48.96000 154.325
49.00000 152.973
49.04000 162.340
49.08000 156.283
49.12000 154.219
49.16000 160.509
49.20000 154.985
49.24000 154.885
49.28000 148.456
49.32000 161.530
49.36000 161.459
49.40000 157.266
49.44000 158.288
49.48000 151.665
49.52000 175.858
49.56000 164.014
49.60000 148.310
49.64000 156.905
49.68000 160.259
49.72000 155.287
49.76000 173.595
49.80000 151.171
49.84000 157.110
49.88000 147.794
49.92000 166.224
49.96000 160.321
50.00000 166.596
50.04000 152.957
50.08000 155.889
50.12000 160.278
50.16000 167.244
50.20000 171.212
50.24000 162.808
50.28000 169.043
50.32000 163.542
50.36000 179.709
50.40000 174.097
50.44000 199.653
50.48000 190.180
50.52000 197.673
50.56000 217.452
50.60000 221.420
50.64000 234.540
50.68000 245.066
50.72000 246.577
50.76000 242.326
50.80000 240.112
50.84000 231.144
50.88000 216.649
50.92000 216.442
50.96000 209.927
51.00000 199.741
51.04000 181.472
51.08000 171.660
51.12000 179.048
51.16000 171.447
51.20000 167.696
51.24000 159.607
51.28000 163.826
51.32000 161.265
51.36000 157.580
51.40000 156.796
51.44000 161.441
51.48000 153.236
51.52000 157.382
51.56000 158.028
51.60000 168.912
51.64000 156.601
51.68000 154.172
51.72000 153.653
51.76000 148.063
51.80000 144.820
51.84000 144.244
51.88000 143.074
51.92000 152.427
51.96000 142.781
52.00000 138.980
52.04000 145.879
52.08000 145.462
52.12000 153.279
52.16000 148.746
52.20000 157.860
52.24000 146.238
52.28000 142.492
52.32000 139.407
52.36000 148.379
52.40000 147.754
52.44000 151.549
52.48000 145.986
52.52000 139.317
52.56000 148.817
52.60000 151.239
52.64000 152.349
52.68000 137.978
52.72000 136.766
52.76000 141.219
52.80000 135.456
52.84000 146.218
52.88000 144.215
52.92000 142.300
52.96000 140.084
53.00000 147.826
53.04000 155.412
53.08000 142.164
53.12000 142.829
53.16000 134.253
53.20000 145.916
53.24000 146.374
53.28000 150.393
53.32000 151.800
53.36000 159.636
53.40000 165.110
53.44000 161.611
53.48000 153.415
53.52000 157.883
53.56000 160.192
53.60000 145.069
53.64000 150.530
53.68000 147.125
53.72000 143.411
53.76000 144.709
53.80000 143.162
53.84000 141.434
53.88000 148.829
53.92000 144.016
53.96000 145.973
54.00000 141.065
54.04000 144.136
54.08000 151.220
54.12000 141.751
54.16000 138.689
54.20000 140.375
54.24000 148.303
54.28000 142.614
54.32000 141.106
54.36000 138.164
54.40000 139.938
54.44000 141.335
54.48000 139.420
54.52000 138.358
54.56000 129.064
54.60000 139.092
54.64000 148.544
54.68000 137.476
54.72000 141.747
54.76000 147.586
54.80000 142.909
54.84000 143.693
54.88000 142.613
54.92000 153.794
54.96000 144.197
55.00000 146.851
55.04000 141.451
55.08000 143.657
55.12000 134.764
55.16000 156.585
55.20000 156.242
55.24000 161.421
55.28000 151.547
55.32000 161.231
55.36000 172.032
55.40000 167.278
55.44000 188.940
55.48000 198.919
55.52000 204.905
55.56000 223.776
55.60000 245.599
55.64000 266.812
55.68000 314.543
55.72000 351.651
55.76000 387.494
55.80000 463.004
55.84000 529.324
55.88000 548.643
55.92000 573.185
55.96000 602.567
56.00000 554.820
56.04000 515.740
56.08000 477.883
56.12000 442.900
56.16000 381.532
56.20000 346.445
56.24000 314.032
56.28000 269.451
56.32000 244.586
56.36000 237.404
56.40000 209.616
56.44000 200.355
56.48000 186.681
56.52000 171.199
56.56000 161.688
56.60000 162.921
56.64000 150.480
56.68000 152.735
56.72000 148.780
56.76000 138.457
56.80000 156.125
56.84000 140.415
56.88000 141.253
56.92000 129.162
56.96000 135.541
57.00000 129.729
57.04000 142.837
57.08000 138.142
57.12000 135.791
57.16000 130.748
57.20000 136.234
57.24000 124.132
57.28000 139.158
57.32000 117.717
57.36000 127.173
57.40000 128.468
57.44000 132.945
57.48000 124.326
57.52000 131.168
57.56000 126.591
57.60000 129.089
57.64000 132.007
57.68000 134.524
57.72000 130.617
57.76000 124.672
57.80000 130.041
57.84000 119.861
57.88000 129.129
57.92000 129.203
57.96000 132.520
58.00000 129.541
58.04000 137.166
58.08000 127.060
58.12000 139.129
58.16000 134.828
58.20000 120.762
58.24000 127.659
58.28000 126.545
58.32000 133.018
58.36000 133.205
58.40000 123.908
58.44000 121.985
58.48000 124.728
58.52000 132.048
58.56000 131.489
58.60000 123.587
58.64000 120.920
58.68000 117.409
58.72000 122.465
58.76000 119.681
58.80000 122.988
58.84000 123.391
58.88000 113.406
58.92000 117.947
58.96000 109.232
59.00000 123.006
59.04000 117.251
59.08000 127.726
59.12000 116.691
59.16000 116.348
59.20000 120.975
59.24000 110.478
59.28000 111.081
59.32000 116.449
59.36000 116.950
59.40000 113.968
59.44000 116.205
59.48000 132.947
59.52000 126.560
59.56000 127.536
59.60000 133.848
59.64000 114.977
59.68000 116.680
59.72000 123.782
59.76000 124.084
59.80000 130.772
59.84000 119.797
59.88000 124.550
59.92000 134.137
59.96000 114.012
60.00000 110.102
60.04000 119.835
60.08000 126.870
60.12000 117.403
60.16000 126.309
60.20000 120.194
60.24000 112.706
60.28000 124.096
60.32000 120.146
60.36000 116.838
60.40000 116.136
60.44000 119.089
60.48000 116.987
60.52000 125.028
60.56000 118.068
60.60000 119.068
60.64000 124.674
60.68000 105.125
60.72000 113.061
60.76000 115.344
60.80000 117.140
60.84000 113.850
60.88000 130.942
60.92000 122.155
60.96000 121.540
61.00000 119.001
61.04000 125.147
61.08000 141.738
61.12000 120.771
61.16000 129.587
61.20000 121.828
61.24000 125.237
61.28000 127.800
61.32000 128.727
61.36000 130.200
61.40000 126.740
61.44000 128.278
61.48000 140.823
61.52000 205.000
61.56000 287.459
61.60000 377.247
61.64000 439.214
61.68000 487.711
61.72000 442.971
61.76000 400.032
61.80000 304.777
61.84000 205.727
61.88000 165.452
61.92000 143.147
61.96000 143.409
62.00000 158.289
62.04000 149.733
62.08000 139.609
62.12000 136.776
62.16000 135.146
62.20000 131.546
62.24000 140.413
62.28000 133.565
62.32000 143.604
62.36000 139.920
62.40000 139.595
62.44000 131.070
62.48000 138.470
62.52000 136.398
62.56000 143.736
62.60000 138.063
62.64000 141.199
62.68000 134.810
62.72000 125.901
62.76000 140.289
62.80000 143.945
62.84000 143.526
62.88000 141.748
62.92000 146.500
62.96000 137.424
63.00000 138.134
63.04000 144.193
63.08000 134.344
63.12000 140.289
63.16000 135.300
63.20000 152.253
63.24000 136.237
63.28000 139.222
63.32000 141.396
63.36000 149.472
63.40000 137.344
63.44000 149.112
63.48000 150.027
63.52000 144.237
63.56000 136.911
63.60000 149.054
63.64000 145.854
63.68000 148.896
63.72000 150.820
63.76000 156.662
63.80000 145.917
63.84000 159.185
63.88000 158.892
63.92000 153.030
63.96000 154.194
64.00000 163.495
64.04000 155.964
64.08000 149.989
64.12000 151.399
64.16000 159.829
64.20000 164.260
64.24000 163.857
64.28000 159.393
64.32000 176.911
64.36000 168.128
64.40000 187.537
64.44000 176.438
64.48000 175.009
64.52000 171.828
64.56000 177.926
64.60000 188.010
64.64000 186.053
64.68000 182.964
64.72000 193.212
64.76000 193.777
64.80000 211.533
64.84000 203.472
64.88000 207.855
64.92000 203.713
64.96000 215.095
65.00000 214.388
65.04000 224.614
65.08000 235.054
65.12000 245.707
65.16000 263.081
65.20000 286.331
65.24000 275.347
65.28000 301.670
65.32000 326.878
65.36000 341.681
65.40000 369.317
65.44000 415.253
65.48000 433.162
65.52000 497.667
65.56000 548.231
65.60000 614.607
65.64000 702.946
65.68000 1023.028
65.72000 1693.260
65.76000 2513.076
65.80000 3178.129
65.84000 3413.833
65.88000 3408.241
65.92000 3191.240
65.96000 2555.692
66.00000 1657.016
66.04000 997.253
66.08000 703.941
66.12000 570.467
66.16000 509.786
66.20000 522.263
66.24000 586.959
66.28000 676.666
66.32000 826.257
66.36000 926.764
66.40000 979.752
66.44000 959.295
66.48000 925.909
66.52000 807.701
66.56000 627.701
66.60000 538.487
66.64000 495.230
66.68000 475.127
66.72000 472.567
66.76000 473.718
66.80000 457.837
66.84000 471.832
66.88000 468.737
66.92000 470.532
66.96000 491.768
67.00000 500.522
67.04000 507.972
67.08000 491.738
67.12000 506.219
67.16000 520.780
67.20000 498.572
67.24000 513.410
67.28000 523.238
67.32000 516.928
67.36000 538.323
67.40000 554.850
67.44000 531.747
67.48000 552.251
67.52000 584.585
67.56000 569.287
67.60000 581.391
67.64000 602.927
67.68000 614.663
67.72000 611.428
67.76000 600.684
67.80000 607.825
67.84000 617.286
67.88000 628.728
67.92000 628.310
67.96000 634.407
68.00000 651.370
68.04000 670.967
68.08000 696.944
68.12000 715.365
68.16000 712.862
68.20000 738.634
68.24000 729.489
68.28000 765.574
68.32000 795.211
68.36000 825.089
68.40000 849.058
68.44000 887.725
68.48000 938.907
68.52000 974.792
68.56000 1073.426
68.60000 1243.259
68.64000 1520.025
68.68000 1781.142
68.72000 2094.195
68.76000 2389.337
68.80000 2792.243
68.84000 3313.746
68.88000 4590.738
68.92000 8271.995
68.96000 19774.377
69.00000 42614.012
69.04000 65544.859
69.08000 77297.344
69.12000 82343.141
69.16000 87157.008
69.20000 83919.398
69.24000 66968.078
69.28000 51066.848
69.32000 41981.953
69.36000 38490.754
69.40000 30999.516
69.44000 18401.482
69.48000 8255.473
69.52000 3692.646
69.56000 2109.011
69.60000 1597.562
69.64000 1348.437
69.68000 1148.265
69.72000 1019.840
69.76000 912.661
69.80000 838.975
69.84000 773.790
69.88000 727.419
69.92000 654.754
69.96000 651.270
70.00000 629.180