File: XRD/XRD/09-10-2025 Dep 8/XY Data/BTO_Mapping_Theta2Theta_09-10-2025_001_34_-9-781_-2-079.xy
20.00000 490.890
20.04000 492.995
20.08000 496.431
20.12000 486.121
20.16000 483.692
20.20000 478.981
20.24000 500.637
20.28000 477.354
20.32000 473.665
20.36000 502.104
20.40000 479.454
20.44000 494.648
20.48000 482.457
20.52000 486.431
20.56000 484.986
20.60000 483.527
20.64000 489.688
20.68000 497.191
20.72000 491.477
20.76000 482.228
20.80000 478.469
20.84000 469.528
20.88000 489.244
20.92000 464.050
20.96000 497.436
21.00000 490.672
21.04000 474.745
21.08000 465.548
21.12000 474.369
21.16000 478.556
21.20000 490.824
21.24000 504.323
21.28000 483.497
21.32000 476.431
21.36000 485.010
21.40000 481.682
21.44000 477.893
21.48000 474.024
21.52000 495.136
21.56000 492.276
21.60000 504.876
21.64000 501.395
21.68000 494.895
21.72000 507.966
21.76000 511.243
21.80000 525.228
21.84000 556.902
21.88000 598.027
21.92000 611.757
21.96000 658.462
22.00000 704.761
22.04000 694.766
22.08000 682.995
22.12000 686.140
22.16000 694.808
22.20000 625.262
22.24000 604.874
22.28000 567.742
22.32000 557.383
22.36000 522.380
22.40000 492.567
22.44000 513.691
22.48000 478.949
22.52000 468.488
22.56000 470.122
22.60000 459.730
22.64000 463.657
22.68000 464.121
22.72000 459.800
22.76000 451.588
22.80000 470.189
22.84000 453.362
22.88000 452.877
22.92000 451.103
22.96000 450.068
23.00000 450.938
23.04000 448.496
23.08000 434.934
23.12000 435.102
23.16000 437.032
23.20000 442.360
23.24000 428.076
23.28000 446.386
23.32000 434.666
23.36000 433.827
23.40000 437.353
23.44000 428.417
23.48000 422.037
23.52000 431.746
23.56000 420.530
23.60000 445.247
23.64000 421.738
23.68000 428.081
23.72000 437.998
23.76000 423.359
23.80000 439.048
23.84000 432.790
23.88000 418.172
23.92000 419.201
23.96000 443.663
24.00000 431.139
24.04000 431.014
24.08000 431.598
24.12000 408.873
24.16000 428.121
24.20000 429.649
24.24000 448.784
24.28000 424.801
24.32000 434.277
24.36000 422.245
24.40000 429.913
24.44000 417.752
24.48000 427.815
24.52000 415.817
24.56000 421.344
24.60000 396.786
24.64000 410.248
24.68000 412.068
24.72000 417.554
24.76000 421.575
24.80000 409.458
24.84000 425.730
24.88000 419.729
24.92000 413.789
24.96000 410.614
25.00000 417.470
25.04000 411.541
25.08000 439.117
25.12000 419.481
25.16000 413.842
25.20000 406.811
25.24000 424.189
25.28000 422.542
25.32000 403.533
25.36000 397.585
25.40000 396.132
25.44000 400.091
25.48000 406.699
25.52000 390.454
25.56000 413.346
25.60000 400.059
25.64000 400.667
25.68000 409.029
25.72000 415.138
25.76000 408.279
25.80000 401.626
25.84000 405.531
25.88000 398.762
25.92000 397.947
25.96000 417.625
26.00000 408.458
26.04000 386.263
26.08000 401.393
26.12000 402.453
26.16000 405.882
26.20000 399.381
26.24000 394.548
26.28000 392.082
26.32000 394.834
26.36000 397.444
26.40000 395.784
26.44000 375.906
26.48000 399.010
26.52000 402.360
26.56000 378.162
26.60000 380.724
26.64000 382.864
26.68000 380.033
26.72000 393.938
26.76000 372.599
26.80000 367.643
26.84000 378.368
26.88000 400.678
26.92000 393.606
26.96000 375.994
27.00000 382.817
27.04000 380.925
27.08000 387.144
27.12000 375.981
27.16000 370.786
27.20000 391.507
27.24000 366.501
27.28000 386.102
27.32000 385.173
27.36000 371.838
27.40000 393.241
27.44000 403.927
27.48000 360.878
27.52000 380.898
27.56000 395.472
27.60000 386.584
27.64000 384.122
27.68000 368.044
27.72000 373.172
27.76000 388.576
27.80000 380.699
27.84000 386.195
27.88000 378.442
27.92000 368.075
27.96000 383.898
28.00000 372.878
28.04000 381.210
28.08000 384.309
28.12000 374.924
28.16000 389.759
28.20000 377.715
28.24000 394.520
28.28000 372.281
28.32000 379.899
28.36000 385.346
28.40000 366.920
28.44000 370.403
28.48000 369.368
28.52000 374.349
28.56000 374.189
28.60000 363.268
28.64000 389.733
28.68000 367.935
28.72000 378.089
28.76000 368.128
28.80000 364.658
28.84000 363.181
28.88000 371.146
28.92000 369.543
28.96000 374.254
29.00000 365.344
29.04000 361.162
29.08000 366.107
29.12000 369.909
29.16000 360.076
29.20000 357.113
29.24000 358.222
29.28000 386.891
29.32000 370.452
29.36000 350.217
29.40000 352.653
29.44000 373.150
29.48000 371.233
29.52000 358.800
29.56000 346.506
29.60000 362.175
29.64000 362.633
29.68000 376.676
29.72000 375.094
29.76000 384.914
29.80000 389.340
29.84000 381.043
29.88000 421.002
29.92000 428.182
29.96000 445.710
30.00000 460.361
30.04000 467.522
30.08000 449.900
30.12000 454.992
30.16000 444.208
30.20000 419.135
30.24000 408.468
30.28000 390.613
30.32000 403.928
30.36000 390.114
30.40000 405.901
30.44000 394.509
30.48000 397.712
30.52000 392.986
30.56000 395.579
30.60000 410.081
30.64000 411.663
30.68000 419.790
30.72000 428.388
30.76000 412.111
30.80000 443.536
30.84000 444.073
30.88000 458.223
30.92000 472.958
30.96000 502.925
31.00000 541.934
31.04000 625.293
31.08000 739.141
31.12000 897.643
31.16000 1111.501
31.20000 1424.076
31.24000 1776.526
31.28000 2254.520
31.32000 2704.113
31.36000 2894.958
31.40000 3020.502
31.44000 2884.803
31.48000 2546.731
31.52000 2154.320
31.56000 1740.615
31.60000 1346.658
31.64000 1075.501
31.68000 851.013
31.72000 720.032
31.76000 608.969
31.80000 533.936
31.84000 498.391
31.88000 457.418
31.92000 416.839
31.96000 400.703
32.00000 389.619
32.04000 386.258
32.08000 382.381
32.12000 368.994
32.16000 361.573
32.20000 360.947
32.24000 338.929
32.28000 341.773
32.32000 344.111
32.36000 348.927
32.40000 340.324
32.44000 337.786
32.48000 348.501
32.52000 338.508
32.56000 334.814
32.60000 345.907
32.64000 340.422
32.68000 326.385
32.72000 335.911
32.76000 340.712
32.80000 326.770
32.84000 329.536
32.88000 325.726
32.92000 320.637
32.96000 329.445
33.00000 303.990
33.04000 316.246
33.08000 309.168
33.12000 299.815
33.16000 325.282
33.20000 307.813
33.24000 310.303
33.28000 303.095
33.32000 335.324
33.36000 304.354
33.40000 325.462
33.44000 302.482
33.48000 312.836
33.52000 308.527
33.56000 308.034
33.60000 297.363
33.64000 297.623
33.68000 306.587
33.72000 309.934
33.76000 289.449
33.80000 294.951
33.84000 291.634
33.88000 295.753
33.92000 291.794
33.96000 303.216
34.00000 287.048
34.04000 285.612
34.08000 301.728
34.12000 293.351
34.16000 290.977
34.20000 277.920
34.24000 282.082
34.28000 292.850
34.32000 289.752
34.36000 281.952
34.40000 290.425
34.44000 303.513
34.48000 285.448
34.52000 273.877
34.56000 291.566
34.60000 279.267
34.64000 291.195
34.68000 292.794
34.72000 277.162
34.76000 265.906
34.80000 280.280
34.84000 272.452
34.88000 272.623
34.92000 284.385
34.96000 282.245
35.00000 286.480
35.04000 274.533
35.08000 296.646
35.12000 287.257
35.16000 273.801
35.20000 280.635
35.24000 266.421
35.28000 257.695
35.32000 279.383
35.36000 277.740
35.40000 286.799
35.44000 285.885
35.48000 273.431
35.52000 275.380
35.56000 279.986
35.60000 260.014
35.64000 272.625
35.68000 268.591
35.72000 277.751
35.76000 261.740
35.80000 255.941
35.84000 276.813
35.88000 269.018
35.92000 268.755
35.96000 261.791
36.00000 244.909
36.04000 260.195
36.08000 269.942
36.12000 274.601
36.16000 269.617
36.20000 267.745
36.24000 276.505
36.28000 281.396
36.32000 257.854
36.36000 258.062
36.40000 276.716
36.44000 255.376
36.48000 267.632
36.52000 264.588
36.56000 264.257
36.60000 263.844
36.64000 271.634
36.68000 267.221
36.72000 250.606
36.76000 265.474
36.80000 282.246
36.84000 268.630
36.88000 271.136
36.92000 274.033
36.96000 276.757
37.00000 278.581
37.04000 285.259
37.08000 272.658
37.12000 286.904
37.16000 287.980
37.20000 276.056
37.24000 265.790
37.28000 269.268
37.32000 273.386
37.36000 258.090
37.40000 266.404
37.44000 260.547
37.48000 262.699
37.52000 271.165
37.56000 260.669
37.60000 265.009
37.64000 266.238
37.68000 249.827
37.72000 263.715
37.76000 266.737
37.80000 258.492
37.84000 264.994
37.88000 265.486
37.92000 275.095
37.96000 258.055
38.00000 271.740
38.04000 258.199
38.08000 274.328
38.12000 293.735
38.16000 265.611
38.20000 281.221
38.24000 294.834
38.28000 316.604
38.32000 304.537
38.36000 335.008
38.40000 357.400
38.44000 426.206
38.48000 487.829
38.52000 574.673
38.56000 695.058
38.60000 818.954
38.64000 898.613
38.68000 973.012
38.72000 988.544
38.76000 952.553
38.80000 846.898
38.84000 723.874
38.88000 609.322
38.92000 529.014
38.96000 437.772
39.00000 377.044
39.04000 347.846
39.08000 298.670
39.12000 300.334
39.16000 283.964
39.20000 281.242
39.24000 267.453
39.28000 258.300
39.32000 240.799
39.36000 253.266
39.40000 255.594
39.44000 252.807
39.48000 249.053
39.52000 234.260
39.56000 252.211
39.60000 253.161
39.64000 241.282
39.68000 242.429
39.72000 238.821
39.76000 245.713
39.80000 239.622
39.84000 226.662
39.88000 247.259
39.92000 239.283
39.96000 229.555
40.00000 228.983
40.04000 227.723
40.08000 223.278
40.12000 225.503
40.16000 246.718
40.20000 226.548
40.24000 236.873
40.28000 235.851
40.32000 222.997
40.36000 229.225
40.40000 235.069
40.44000 238.223
40.48000 228.857
40.52000 241.488
40.56000 228.691
40.60000 222.593
40.64000 234.899
40.68000 228.677
40.72000 228.839
40.76000 220.833
40.80000 209.100
40.84000 225.543
40.88000 218.342
40.92000 224.035
40.96000 223.454
41.00000 207.913
41.04000 216.696
41.08000 212.647
41.12000 215.580
41.16000 216.257
41.20000 223.293
41.24000 205.356
41.28000 211.803
41.32000 219.095
41.36000 216.867
41.40000 216.926
41.44000 209.271
41.48000 215.113
41.52000 206.533
41.56000 219.287
41.60000 213.009
41.64000 215.812
41.68000 212.663
41.72000 215.056
41.76000 204.902
41.80000 215.056
41.84000 208.341
41.88000 211.947
41.92000 214.669
41.96000 211.561
42.00000 213.332
42.04000 215.827
42.08000 207.031
42.12000 210.831
42.16000 212.192
42.20000 216.987
42.24000 219.099
42.28000 214.423
42.32000 221.225
42.36000 222.744
42.40000 213.144
42.44000 188.269
42.48000 210.731
42.52000 207.168
42.56000 208.379
42.60000 220.615
42.64000 196.666
42.68000 204.959
42.72000 202.666
42.76000 201.186
42.80000 204.085
42.84000 203.689
42.88000 196.983
42.92000 198.815
42.96000 205.171
43.00000 202.654
43.04000 201.848
43.08000 208.023
43.12000 201.814
43.16000 189.928
43.20000 211.519
43.24000 203.213
43.28000 208.306
43.32000 203.664
43.36000 202.071
43.40000 197.348
43.44000 212.567
43.48000 208.952
43.52000 195.462
43.56000 201.857
43.60000 199.436
43.64000 201.478
43.68000 202.908
43.72000 211.567
43.76000 198.002
43.80000 204.362
43.84000 197.113
43.88000 199.211
43.92000 204.482
43.96000 211.189
44.00000 208.706
44.04000 191.356
44.08000 200.292
44.12000 201.937
44.16000 191.386
44.20000 196.893
44.24000 192.601
44.28000 181.051
44.32000 187.675
44.36000 203.908
44.40000 199.801
44.44000 205.392
44.48000 219.546
44.52000 218.686
44.56000 215.935
44.60000 220.595
44.64000 229.285
44.68000 242.625
44.72000 248.034
44.76000 253.613
44.80000 261.195
44.84000 286.853
44.88000 307.030
44.92000 320.483
44.96000 355.907
45.00000 375.058
45.04000 370.701
45.08000 386.219
45.12000 386.661
45.16000 376.220
45.20000 364.858
45.24000 343.713
45.28000 323.505
45.32000 317.529
45.36000 305.145
45.40000 279.885
45.44000 278.688
45.48000 261.085
45.52000 242.649
45.56000 234.974
45.60000 222.706
45.64000 228.609
45.68000 230.065
45.72000 208.779
45.76000 207.750
45.80000 205.081
45.84000 198.396
45.88000 198.464
45.92000 193.634
45.96000 191.268
46.00000 203.771
46.04000 200.345
46.08000 200.787
46.12000 178.105
46.16000 187.214
46.20000 189.077
46.24000 187.619
46.28000 181.095
46.32000 176.631
46.36000 175.421
46.40000 176.913
46.44000 174.346
46.48000 173.360
46.52000 177.507
46.56000 175.784
46.60000 190.808
46.64000 167.766
46.68000 167.433
46.72000 172.607
46.76000 175.073
46.80000 172.101
46.84000 169.723
46.88000 169.173
46.92000 181.346
46.96000 168.454
47.00000 180.508
47.04000 168.786
47.08000 168.345
47.12000 181.203
47.16000 171.923
47.20000 165.327
47.24000 171.443
47.28000 170.083
47.32000 169.749
47.36000 162.260
47.40000 179.378
47.44000 159.215
47.48000 177.436
47.52000 162.659
47.56000 169.401
47.60000 167.969
47.64000 170.835
47.68000 177.073
47.72000 177.025
47.76000 170.927
47.80000 166.183
47.84000 167.383
47.88000 172.482
47.92000 168.365
47.96000 143.647
48.00000 156.024
48.04000 161.328
48.08000 173.078
48.12000 171.206
48.16000 165.991
48.20000 158.343
48.24000 158.578
48.28000 154.597
48.32000 162.011
48.36000 174.975
48.40000 170.553
48.44000 157.685
48.48000 156.935
48.52000 155.615
48.56000 160.047
48.60000 159.669
48.64000 167.537
48.68000 152.526
48.72000 158.775
48.76000 163.450
48.80000 159.922
48.84000 162.382
48.88000 156.182
48.92000 174.191
48.96000 162.965
49.00000 150.243
49.04000 151.109
49.08000 147.306
49.12000 150.696
49.16000 156.686
49.20000 161.862
49.24000 152.709
49.28000 156.211
49.32000 152.135
49.36000 155.201
49.40000 156.948
49.44000 170.171
49.48000 151.126
49.52000 157.237
49.56000 152.941
49.60000 145.105
49.64000 160.636
49.68000 159.033
49.72000 152.368
49.76000 146.184
49.80000 159.342
49.84000 157.445
49.88000 172.710
49.92000 161.253
49.96000 151.489
50.00000 147.656
50.04000 164.417
50.08000 156.417
50.12000 161.320
50.16000 154.268
50.20000 164.831
50.24000 162.897
50.28000 164.980
50.32000 165.691
50.36000 173.593
50.40000 167.486
50.44000 179.848
50.48000 189.071
50.52000 197.512
50.56000 216.224
50.60000 219.411
50.64000 228.700
50.68000 233.885
50.72000 233.726
50.76000 238.417
50.80000 232.808
50.84000 226.204
50.88000 209.614
50.92000 209.682
50.96000 200.676
51.00000 194.175
51.04000 179.400
51.08000 167.611
51.12000 181.754
51.16000 181.493
51.20000 170.820
51.24000 167.281
51.28000 165.043
51.32000 163.024
51.36000 154.327
51.40000 171.294
51.44000 157.909
51.48000 157.462
51.52000 153.058
51.56000 157.666
51.60000 149.767
51.64000 152.810
51.68000 144.674
51.72000 148.771
51.76000 149.512
51.80000 149.230
51.84000 148.664
51.88000 143.120
51.92000 148.315
51.96000 144.067
52.00000 152.218
52.04000 132.590
52.08000 142.193
52.12000 140.474
52.16000 146.002
52.20000 136.458
52.24000 139.419
52.28000 151.281
52.32000 138.072
52.36000 140.153
52.40000 145.031
52.44000 141.518
52.48000 144.537
52.52000 139.500
52.56000 149.329
52.60000 152.830
52.64000 145.430
52.68000 145.761
52.72000 141.658
52.76000 145.276
52.80000 145.600
52.84000 150.862
52.88000 135.955
52.92000 145.223
52.96000 141.408
53.00000 147.512
53.04000 143.649
53.08000 147.497
53.12000 146.348
53.16000 138.527
53.20000 151.835
53.24000 153.642
53.28000 152.120
53.32000 153.087
53.36000 157.450
53.40000 162.630
53.44000 152.735
53.48000 152.072
53.52000 152.080
53.56000 158.515
53.60000 148.735
53.64000 146.620
53.68000 143.581
53.72000 145.743
53.76000 141.314
53.80000 142.662
53.84000 134.942
53.88000 147.167
53.92000 154.285
53.96000 139.670
54.00000 148.546
54.04000 139.303
54.08000 152.269
54.12000 143.439
54.16000 142.446
54.20000 129.845
54.24000 138.435
54.28000 133.822
54.32000 139.629
54.36000 132.415
54.40000 137.138
54.44000 133.533
54.48000 138.221
54.52000 149.776
54.56000 145.199
54.60000 155.147
54.64000 140.946
54.68000 145.150
54.72000 129.580
54.76000 145.038
54.80000 144.208
54.84000 154.055
54.88000 149.769
54.92000 147.348
54.96000 144.691
55.00000 148.725
55.04000 149.183
55.08000 142.856
55.12000 145.040
55.16000 148.423
55.20000 155.055
55.24000 145.467
55.28000 165.483
55.32000 164.207
55.36000 164.408
55.40000 170.449
55.44000 176.562
55.48000 190.589
55.52000 196.129
55.56000 217.949
55.60000 243.720
55.64000 267.259
55.68000 274.928
55.72000 332.981
55.76000 365.472
55.80000 442.585
55.84000 480.458
55.88000 534.013
55.92000 558.446
55.96000 587.504
56.00000 576.982
56.04000 530.585
56.08000 502.776
56.12000 444.052
56.16000 400.042
56.20000 341.554
56.24000 323.758
56.28000 283.209
56.32000 233.033
56.36000 236.570
56.40000 205.105
56.44000 191.182
56.48000 176.639
56.52000 175.996
56.56000 160.029
56.60000 173.888
56.64000 163.776
56.68000 151.958
56.72000 159.246
56.76000 151.298
56.80000 148.378
56.84000 141.913
56.88000 139.077
56.92000 142.561
56.96000 135.251
57.00000 139.439
57.04000 133.860
57.08000 135.817
57.12000 127.365
57.16000 137.381
57.20000 124.168
57.24000 135.671
57.28000 129.616
57.32000 127.002
57.36000 132.450
57.40000 126.486
57.44000 128.276
57.48000 128.149
57.52000 131.138
57.56000 129.955
57.60000 120.727
57.64000 121.174
57.68000 127.201
57.72000 130.183
57.76000 116.766
57.80000 120.402
57.84000 136.805
57.88000 130.212
57.92000 127.962
57.96000 133.415
58.00000 128.304
58.04000 127.363
58.08000 128.082
58.12000 133.073
58.16000 122.857
58.20000 121.813
58.24000 125.685
58.28000 134.378
58.32000 115.776
58.36000 119.706
58.40000 121.685
58.44000 122.600
58.48000 127.813
58.52000 119.099
58.56000 124.846
58.60000 128.511
58.64000 117.714
58.68000 119.264
58.72000 126.541
58.76000 124.995
58.80000 128.063
58.84000 119.174
58.88000 118.733
58.92000 125.496
58.96000 126.991
59.00000 124.716
59.04000 117.736
59.08000 113.735
59.12000 115.973
59.16000 125.676
59.20000 125.827
59.24000 125.957
59.28000 121.007
59.32000 121.227
59.36000 114.676
59.40000 122.001
59.44000 121.710
59.48000 122.191
59.52000 128.582
59.56000 115.361
59.60000 116.052
59.64000 116.243
59.68000 123.253
59.72000 118.786
59.76000 113.420
59.80000 120.366
59.84000 112.912
59.88000 113.372
59.92000 109.391
59.96000 120.409
60.00000 117.925
60.04000 110.702
60.08000 117.680
60.12000 119.206
60.16000 123.198
60.20000 118.302
60.24000 115.930
60.28000 116.822
60.32000 115.987
60.36000 120.434
60.40000 126.320
60.44000 114.040
60.48000 109.938
60.52000 121.140
60.56000 124.039
60.60000 123.318
60.64000 128.158
60.68000 121.757
60.72000 129.218
60.76000 128.732
60.80000 128.839
60.84000 117.457
60.88000 115.232
60.92000 123.418
60.96000 115.093
61.00000 115.584
61.04000 128.724
61.08000 121.784
61.12000 122.020
61.16000 118.482
61.20000 121.160
61.24000 126.328
61.28000 123.434
61.32000 133.892
61.36000 136.030
61.40000 126.322
61.44000 127.743
61.48000 159.023
61.52000 192.840
61.56000 279.375
61.60000 335.993
61.64000 403.461
61.68000 439.179
61.72000 443.273
61.76000 375.646
61.80000 287.812
61.84000 208.608
61.88000 158.439
61.92000 140.739
61.96000 140.641
62.00000 130.921
62.04000 132.886
62.08000 136.164
62.12000 136.990
62.16000 126.592
62.20000 128.555
62.24000 122.589
62.28000 135.876
62.32000 135.080
62.36000 127.386
62.40000 140.263
62.44000 134.606
62.48000 136.456
62.52000 144.373
62.56000 132.639
62.60000 137.464
62.64000 138.102
62.68000 153.689
62.72000 136.160
62.76000 136.489
62.80000 135.517
62.84000 136.039
62.88000 131.295
62.92000 129.336
62.96000 143.209
63.00000 141.884
63.04000 147.528
63.08000 142.680
63.12000 127.197
63.16000 143.218
63.20000 144.506
63.24000 143.954
63.28000 145.595
63.32000 143.919
63.36000 147.811
63.40000 146.753
63.44000 145.163
63.48000 142.140
63.52000 144.720
63.56000 139.650
63.60000 148.127
63.64000 151.467
63.68000 134.801
63.72000 140.720
63.76000 154.781
63.80000 148.717
63.84000 154.888
63.88000 153.750
63.92000 157.398
63.96000 147.984
64.00000 155.183
64.04000 159.517
64.08000 160.366
64.12000 158.327
64.16000 163.778
64.20000 156.979
64.24000 147.889
64.28000 164.020
64.32000 162.852
64.36000 167.540
64.40000 168.744
64.44000 159.713
64.48000 172.433
64.52000 177.441
64.56000 180.244
64.60000 171.471
64.64000 173.581
64.68000 172.336
64.72000 187.367
64.76000 184.230
64.80000 182.299
64.84000 207.962
64.88000 199.198
64.92000 207.179
64.96000 214.455
65.00000 217.364
65.04000 235.570
65.08000 237.930
65.12000 250.284
65.16000 247.249
65.20000 247.217
65.24000 281.619
65.28000 300.864
65.32000 318.438
65.36000 334.370
65.40000 380.586
65.44000 409.686
65.48000 451.871
65.52000 467.582
65.56000 543.569
65.60000 597.457
65.64000 708.856
65.68000 1019.724
65.72000 1598.927
65.76000 2324.266
65.80000 2922.214
65.84000 3191.897
65.88000 3192.585
65.92000 2977.940
65.96000 2357.656
66.00000 1517.599
66.04000 966.656
66.08000 668.380
66.12000 554.758
66.16000 482.968
66.20000 513.119
66.24000 530.954
66.28000 664.491
66.32000 790.935
66.36000 899.070
66.40000 924.296
66.44000 918.738
66.48000 869.942
66.52000 747.558
66.56000 603.479
66.60000 531.595
66.64000 456.828
66.68000 448.826
66.72000 453.608
66.76000 437.722
66.80000 453.950
66.84000 461.233
66.88000 491.384
66.92000 451.279
66.96000 464.478
67.00000 472.858
67.04000 465.809
67.08000 492.741
67.12000 500.005
67.16000 489.465
67.20000 499.556
67.24000 504.193
67.28000 516.469
67.32000 506.247
67.36000 522.193
67.40000 518.903
67.44000 528.561
67.48000 518.043
67.52000 549.690
67.56000 561.749
67.60000 553.914
67.64000 576.344
67.68000 560.372
67.72000 569.701
67.76000 589.041
67.80000 590.635
67.84000 598.990
67.88000 607.477
67.92000 622.164
67.96000 633.593
68.00000 611.970
68.04000 633.820
68.08000 639.787
68.12000 669.724
68.16000 692.141
68.20000 697.871
68.24000 696.854
68.28000 731.864
68.32000 769.384
68.36000 792.167
68.40000 811.207
68.44000 884.664
68.48000 914.236
68.52000 947.582
68.56000 1053.358
68.60000 1158.327
68.64000 1421.634
68.68000 1677.218
68.72000 1998.693
68.76000 2223.856
68.80000 2660.324
68.84000 3181.286
68.88000 4321.563
68.92000 7868.293
68.96000 19011.709
69.00000 40708.516
69.04000 61572.230
69.08000 72528.461
69.12000 76786.875
69.16000 81400.180
69.20000 77873.766
69.24000 61726.395
69.28000 47063.914
69.32000 38879.898
69.36000 35710.543
69.40000 28537.125
69.44000 16610.096
69.48000 7396.294
69.52000 3320.546
69.56000 2001.382
69.60000 1499.667
69.64000 1242.989
69.68000 1091.893
69.72000 964.494
69.76000 890.832
69.80000 793.858
69.84000 748.263
69.88000 668.540
69.92000 669.533
69.96000 640.403
70.00000 610.147