File: XRD/XRD/09-10-2025 Dep 8/XY Data/BTO_Mapping_Theta2Theta_09-10-2025_001_55_13-383_-14-863.xy
20.00000 492.127
20.04000 498.150
20.08000 473.405
20.12000 489.574
20.16000 498.045
20.20000 459.664
20.24000 491.691
20.28000 498.459
20.32000 490.179
20.36000 488.810
20.40000 473.452
20.44000 483.013
20.48000 477.376
20.52000 465.408
20.56000 471.059
20.60000 484.306
20.64000 488.037
20.68000 480.687
20.72000 495.535
20.76000 487.263
20.80000 471.294
20.84000 482.904
20.88000 475.878
20.92000 484.721
20.96000 477.136
21.00000 462.976
21.04000 458.411
21.08000 475.334
21.12000 470.745
21.16000 479.746
21.20000 487.263
21.24000 484.811
21.28000 485.425
21.32000 478.142
21.36000 477.149
21.40000 476.466
21.44000 467.044
21.48000 476.104
21.52000 480.723
21.56000 496.820
21.60000 463.661
21.64000 475.128
21.68000 518.076
21.72000 492.755
21.76000 479.100
21.80000 506.431
21.84000 524.256
21.88000 529.774
21.92000 547.692
21.96000 564.284
22.00000 579.574
22.04000 593.844
22.08000 597.396
22.12000 619.604
22.16000 613.132
22.20000 608.397
22.24000 561.516
22.28000 579.469
22.32000 568.101
22.36000 538.994
22.40000 516.298
22.44000 495.095
22.48000 506.811
22.52000 472.098
22.56000 461.937
22.60000 471.353
22.64000 457.045
22.68000 446.645
22.72000 463.445
22.76000 471.274
22.80000 463.193
22.84000 440.538
22.88000 438.658
22.92000 462.535
22.96000 452.308
23.00000 431.172
23.04000 448.346
23.08000 437.188
23.12000 428.590
23.16000 442.604
23.20000 444.216
23.24000 450.461
23.28000 442.354
23.32000 435.238
23.36000 429.044
23.40000 435.590
23.44000 426.106
23.48000 436.056
23.52000 438.735
23.56000 441.645
23.60000 438.668
23.64000 420.244
23.68000 438.086
23.72000 431.237
23.76000 435.936
23.80000 433.915
23.84000 421.667
23.88000 436.785
23.92000 439.000
23.96000 425.440
24.00000 418.642
24.04000 428.076
24.08000 430.175
24.12000 433.048
24.16000 414.031
24.20000 417.789
24.24000 434.714
24.28000 423.315
24.32000 432.084
24.36000 429.597
24.40000 405.225
24.44000 414.166
24.48000 429.889
24.52000 421.403
24.56000 401.861
24.60000 421.494
24.64000 415.716
24.68000 419.668
24.72000 429.980
24.76000 433.110
24.80000 410.919
24.84000 416.227
24.88000 419.539
24.92000 414.907
24.96000 412.571
25.00000 394.533
25.04000 403.805
25.08000 417.749
25.12000 406.975
25.16000 404.705
25.20000 425.442
25.24000 413.716
25.28000 408.752
25.32000 394.473
25.36000 415.021
25.40000 407.837
25.44000 399.299
25.48000 409.276
25.52000 421.449
25.56000 401.916
25.60000 396.149
25.64000 394.426
25.68000 398.015
25.72000 393.138
25.76000 400.823
25.80000 388.302
25.84000 382.450
25.88000 398.246
25.92000 404.740
25.96000 407.443
26.00000 409.715
26.04000 395.569
26.08000 389.556
26.12000 395.515
26.16000 393.363
26.20000 401.225
26.24000 379.551
26.28000 383.907
26.32000 400.535
26.36000 378.148
26.40000 378.501
26.44000 389.712
26.48000 388.194
26.52000 388.414
26.56000 397.121
26.60000 394.244
26.64000 389.880
26.68000 399.590
26.72000 395.849
26.76000 399.060
26.80000 377.353
26.84000 382.899
26.88000 394.719
26.92000 387.036
26.96000 376.334
27.00000 391.368
27.04000 383.413
27.08000 391.190
27.12000 381.825
27.16000 375.170
27.20000 390.181
27.24000 388.260
27.28000 381.393
27.32000 373.138
27.36000 365.286
27.40000 391.767
27.44000 381.777
27.48000 387.657
27.52000 381.603
27.56000 387.322
27.60000 367.159
27.64000 374.142
27.68000 381.393
27.72000 379.337
27.76000 370.105
27.80000 373.299
27.84000 371.359
27.88000 396.721
27.92000 373.555
27.96000 385.599
28.00000 385.331
28.04000 385.494
28.08000 366.437
28.12000 366.287
28.16000 378.700
28.20000 352.416
28.24000 376.840
28.28000 375.882
28.32000 373.693
28.36000 394.444
28.40000 370.888
28.44000 371.348
28.48000 372.335
28.52000 362.995
28.56000 377.464
28.60000 363.809
28.64000 361.537
28.68000 363.878
28.72000 377.810
28.76000 371.361
28.80000 387.369
28.84000 346.443
28.88000 388.062
28.92000 361.395
28.96000 361.373
29.00000 357.814
29.04000 383.660
29.08000 379.982
29.12000 358.343
29.16000 348.547
29.20000 359.315
29.24000 345.093
29.28000 340.273
29.32000 358.276
29.36000 366.727
29.40000 355.838
29.44000 377.652
29.48000 377.193
29.52000 378.268
29.56000 365.977
29.60000 368.872
29.64000 374.983
29.68000 357.926
29.72000 377.227
29.76000 377.065
29.80000 382.810
29.84000 387.647
29.88000 423.578
29.92000 431.044
29.96000 430.535
30.00000 460.429
30.04000 445.243
30.08000 439.509
30.12000 445.191
30.16000 456.600
30.20000 448.574
30.24000 426.531
30.28000 426.591
30.32000 414.594
30.36000 416.526
30.40000 406.076
30.44000 406.849
30.48000 402.645
30.52000 377.800
30.56000 387.324
30.60000 408.787
30.64000 407.082
30.68000 417.491
30.72000 392.383
30.76000 412.357
30.80000 422.677
30.84000 436.619
30.88000 455.367
30.92000 465.168
30.96000 487.108
31.00000 528.294
31.04000 574.766
31.08000 680.648
31.12000 750.699
31.16000 992.214
31.20000 1255.246
31.24000 1611.479
31.28000 2073.780
31.32000 2559.836
31.36000 2919.416
31.40000 3013.344
31.44000 2984.025
31.48000 2746.273
31.52000 2345.088
31.56000 1975.963
31.60000 1560.675
31.64000 1203.065
31.68000 936.041
31.72000 761.616
31.76000 659.227
31.80000 571.933
31.84000 516.983
31.88000 473.543
31.92000 458.959
31.96000 431.363
32.00000 408.806
32.04000 409.232
32.08000 387.242
32.12000 383.529
32.16000 381.461
32.20000 360.880
32.24000 371.484
32.28000 344.829
32.32000 344.108
32.36000 355.620
32.40000 335.207
32.44000 329.679
32.48000 331.971
32.52000 331.247
32.56000 321.741
32.60000 336.815
32.64000 326.453
32.68000 329.938
32.72000 334.409
32.76000 328.644
32.80000 313.492
32.84000 335.605
32.88000 301.440
32.92000 332.579
32.96000 324.835
33.00000 282.926
33.04000 307.086
33.08000 297.495
33.12000 313.833
33.16000 314.828
33.20000 322.994
33.24000 308.056
33.28000 308.706
33.32000 298.090
33.36000 304.886
33.40000 291.088
33.44000 319.016
33.48000 301.686
33.52000 311.697
33.56000 301.251
33.60000 303.637
33.64000 300.972
33.68000 302.988
33.72000 298.293
33.76000 286.336
33.80000 283.706
33.84000 288.628
33.88000 292.406
33.92000 288.204
33.96000 286.011
34.00000 289.055
34.04000 282.655
34.08000 293.939
34.12000 293.443
34.16000 300.665
34.20000 295.537
34.24000 295.225
34.28000 300.397
34.32000 296.493
34.36000 288.332
34.40000 275.738
34.44000 281.573
34.48000 280.558
34.52000 285.038
34.56000 267.970
34.60000 273.398
34.64000 279.435
34.68000 288.895
34.72000 289.377
34.76000 287.451
34.80000 286.395
34.84000 280.827
34.88000 295.324
34.92000 291.274
34.96000 287.349
35.00000 269.404
35.04000 271.918
35.08000 281.919
35.12000 269.270
35.16000 279.216
35.20000 266.871
35.24000 273.540
35.28000 276.398
35.32000 272.928
35.36000 270.166
35.40000 281.755
35.44000 259.185
35.48000 275.504
35.52000 274.866
35.56000 281.891
35.60000 272.783
35.64000 260.383
35.68000 279.513
35.72000 260.524
35.76000 268.178
35.80000 271.221
35.84000 275.573
35.88000 263.166
35.92000 256.675
35.96000 274.874
36.00000 272.488
36.04000 271.180
36.08000 273.905
36.12000 271.406
36.16000 274.366
36.20000 271.789
36.24000 253.588
36.28000 255.926
36.32000 265.268
36.36000 258.577
36.40000 282.573
36.44000 244.681
36.48000 267.717
36.52000 266.826
36.56000 272.367
36.60000 261.476
36.64000 265.829
36.68000 263.420
36.72000 263.192
36.76000 271.555
36.80000 262.652
36.84000 264.118
36.88000 266.491
36.92000 276.508
36.96000 269.603
37.00000 288.338
37.04000 290.031
37.08000 291.934
37.12000 286.803
37.16000 286.075
37.20000 273.538
37.24000 284.196
37.28000 260.864
37.32000 260.184
37.36000 274.741
37.40000 279.581
37.44000 261.848
37.48000 272.243
37.52000 252.070
37.56000 261.575
37.60000 270.198
37.64000 272.138
37.68000 276.268
37.72000 251.345
37.76000 261.106
37.80000 256.404
37.84000 257.463
37.88000 262.282
37.92000 269.446
37.96000 276.102
38.00000 250.055
38.04000 258.899
38.08000 268.006
38.12000 276.314
38.16000 273.740
38.20000 309.254
38.24000 278.648
38.28000 289.486
38.32000 302.324
38.36000 324.600
38.40000 328.972
38.44000 364.737
38.48000 414.743
38.52000 491.315
38.56000 618.730
38.60000 750.198
38.64000 924.607
38.68000 1087.962
38.72000 1117.332
38.76000 1128.295
38.80000 1095.519
38.84000 972.646
38.88000 838.273
38.92000 663.744
38.96000 560.742
39.00000 434.141
39.04000 374.918
39.08000 330.542
39.12000 295.834
39.16000 292.924
39.20000 277.199
39.24000 256.705
39.28000 263.983
39.32000 258.501
39.36000 261.708
39.40000 250.864
39.44000 253.036
39.48000 239.627
39.52000 246.975
39.56000 257.985
39.60000 238.546
39.64000 234.467
39.68000 249.552
39.72000 233.293
39.76000 229.254
39.80000 232.744
39.84000 219.127
39.88000 227.584
39.92000 226.457
39.96000 235.603
40.00000 236.543
40.04000 231.720
40.08000 208.538
40.12000 223.923
40.16000 227.205
40.20000 232.100
40.24000 237.282
40.28000 225.890
40.32000 219.903
40.36000 226.771
40.40000 213.434
40.44000 213.067
40.48000 230.687
40.52000 221.467
40.56000 211.268
40.60000 218.462
40.64000 223.090
40.68000 239.015
40.72000 210.673
40.76000 220.172
40.80000 226.929
40.84000 225.157
40.88000 229.019
40.92000 206.708
40.96000 218.046
41.00000 216.032
41.04000 219.581
41.08000 210.749
41.12000 200.747
41.16000 203.808
41.20000 232.491
41.24000 213.674
41.28000 202.878
41.32000 216.687
41.36000 202.336
41.40000 206.232
41.44000 204.368
41.48000 208.949
41.52000 212.289
41.56000 206.122
41.60000 218.580
41.64000 199.231
41.68000 210.577
41.72000 212.714
41.76000 215.629
41.80000 210.604
41.84000 207.537
41.88000 207.222
41.92000 199.849
41.96000 209.839
42.00000 202.472
42.04000 203.023
42.08000 207.908
42.12000 227.463
42.16000 193.295
42.20000 217.772
42.24000 201.148
42.28000 206.444
42.32000 213.303
42.36000 207.083
42.40000 203.671
42.44000 213.237
42.48000 207.070
42.52000 212.089
42.56000 189.560
42.60000 206.320
42.64000 201.625
42.68000 212.745
42.72000 195.592
42.76000 187.971
42.80000 210.821
42.84000 199.524
42.88000 197.351
42.92000 209.101
42.96000 210.064
43.00000 208.471
43.04000 203.938
43.08000 206.920
43.12000 208.610
43.16000 205.309
43.20000 207.479
43.24000 202.048
43.28000 205.797
43.32000 203.445
43.36000 207.140
43.40000 200.097
43.44000 207.021
43.48000 193.436
43.52000 202.884
43.56000 203.356
43.60000 195.270
43.64000 205.498
43.68000 204.129
43.72000 194.724
43.76000 198.138
43.80000 205.809
43.84000 199.046
43.88000 201.086
43.92000 192.764
43.96000 195.666
44.00000 209.078
44.04000 189.819
44.08000 190.817
44.12000 196.975
44.16000 190.956
44.20000 194.860
44.24000 199.120
44.28000 202.703
44.32000 203.603
44.36000 193.406
44.40000 198.355
44.44000 191.612
44.48000 195.524
44.52000 199.889
44.56000 213.177
44.60000 211.605
44.64000 200.764
44.68000 199.579
44.72000 205.891
44.76000 229.772
44.80000 224.241
44.84000 230.960
44.88000 241.189
44.92000 252.834
44.96000 265.250
45.00000 261.465
45.04000 280.429
45.08000 304.472
45.12000 304.286
45.16000 312.107
45.20000 310.311
45.24000 302.023
45.28000 314.557
45.32000 291.055
45.36000 300.341
45.40000 259.923
45.44000 264.413
45.48000 257.459
45.52000 244.031
45.56000 247.541
45.60000 223.584
45.64000 237.082
45.68000 219.992
45.72000 217.611
45.76000 225.405
45.80000 218.497
45.84000 215.854
45.88000 204.075
45.92000 200.775
45.96000 201.500
46.00000 188.839
46.04000 199.678
46.08000 197.998
46.12000 188.239
46.16000 185.845
46.20000 181.808
46.24000 173.253
46.28000 187.120
46.32000 170.221
46.36000 181.270
46.40000 179.152
46.44000 175.002
46.48000 177.424
46.52000 178.724
46.56000 178.006
46.60000 168.762
46.64000 181.863
46.68000 175.783
46.72000 174.665
46.76000 170.235
46.80000 176.973
46.84000 172.805
46.88000 168.302
46.92000 165.423
46.96000 171.005
47.00000 168.220
47.04000 190.978
47.08000 178.307
47.12000 165.938
47.16000 164.009
47.20000 176.394
47.24000 167.985
47.28000 164.095
47.32000 162.261
47.36000 163.665
47.40000 168.049
47.44000 149.789
47.48000 167.717
47.52000 177.470
47.56000 168.575
47.60000 171.929
47.64000 171.875
47.68000 175.417
47.72000 166.271
47.76000 171.276
47.80000 159.500
47.84000 161.416
47.88000 172.619
47.92000 163.671
47.96000 171.282
48.00000 160.248
48.04000 167.717
48.08000 155.451
48.12000 160.332
48.16000 162.538
48.20000 157.816
48.24000 160.852
48.28000 165.928
48.32000 169.580
48.36000 165.042
48.40000 174.811
48.44000 156.105
48.48000 180.695
48.52000 158.028
48.56000 158.982
48.60000 171.752
48.64000 155.927
48.68000 156.599
48.72000 151.142
48.76000 155.742
48.80000 153.710
48.84000 152.777
48.88000 168.260
48.92000 153.612
48.96000 151.199
49.00000 152.031
49.04000 153.736
49.08000 166.641
49.12000 162.603
49.16000 155.698
49.20000 159.428
49.24000 155.306
49.28000 158.054
49.32000 153.045
49.36000 154.402
49.40000 156.273
49.44000 146.185
49.48000 155.234
49.52000 150.302
49.56000 147.216
49.60000 160.853
49.64000 161.176
49.68000 149.669
49.72000 149.892
49.76000 155.695
49.80000 149.708
49.84000 151.162
49.88000 163.343
49.92000 157.184
49.96000 164.963
50.00000 158.835
50.04000 146.673
50.08000 148.967
50.12000 158.425
50.16000 155.007
50.20000 153.468
50.24000 156.661
50.28000 160.162
50.32000 161.136
50.36000 178.003
50.40000 174.646
50.44000 166.828
50.48000 165.794
50.52000 182.369
50.56000 207.593
50.60000 195.700
50.64000 225.660
50.68000 216.920
50.72000 222.810
50.76000 229.510
50.80000 232.512
50.84000 219.751
50.88000 219.073
50.92000 197.460
50.96000 207.482
51.00000 194.750
51.04000 182.867
51.08000 167.934
51.12000 176.767
51.16000 175.473
51.20000 166.619
51.24000 163.679
51.28000 153.147
51.32000 156.269
51.36000 151.651
51.40000 165.214
51.44000 157.562
51.48000 161.925
51.52000 164.276
51.56000 159.605
51.60000 167.481
51.64000 142.674
51.68000 151.075
51.72000 147.999
51.76000 141.189
51.80000 138.456
51.84000 143.197
51.88000 144.303
51.92000 152.082
51.96000 145.225
52.00000 139.242
52.04000 142.649
52.08000 133.906
52.12000 138.610
52.16000 145.627
52.20000 145.380
52.24000 135.697
52.28000 142.309
52.32000 129.369
52.36000 142.360
52.40000 138.578
52.44000 135.489
52.48000 127.984
52.52000 142.331
52.56000 147.656
52.60000 140.261
52.64000 143.367
52.68000 137.115
52.72000 137.323
52.76000 138.540
52.80000 145.697
52.84000 141.670
52.88000 144.128
52.92000 133.738
52.96000 147.436
53.00000 136.001
53.04000 138.329
53.08000 145.166
53.12000 139.003
53.16000 145.930
53.20000 155.821
53.24000 154.424
53.28000 142.385
53.32000 139.353
53.36000 153.838
53.40000 147.997
53.44000 151.129
53.48000 151.789
53.52000 151.682
53.56000 144.357
53.60000 148.580
53.64000 150.463
53.68000 151.413
53.72000 138.479
53.76000 146.187
53.80000 152.297
53.84000 145.600
53.88000 132.735
53.92000 147.723
53.96000 140.873
54.00000 143.124
54.04000 136.489
54.08000 135.736
54.12000 142.566
54.16000 138.155
54.20000 131.410
54.24000 141.979
54.28000 139.713
54.32000 137.984
54.36000 134.519
54.40000 134.335
54.44000 137.246
54.48000 131.528
54.52000 134.659
54.56000 135.094
54.60000 138.225
54.64000 139.379
54.68000 139.590
54.72000 138.763
54.76000 139.400
54.80000 132.925
54.84000 135.670
54.88000 131.100
54.92000 139.254
54.96000 146.433
55.00000 136.532
55.04000 147.953
55.08000 151.561
55.12000 149.369
55.16000 150.012
55.20000 149.193
55.24000 144.618
55.28000 143.198
55.32000 148.074
55.36000 147.367
55.40000 155.278
55.44000 163.973
55.48000 164.417
55.52000 175.299
55.56000 184.069
55.60000 190.515
55.64000 210.915
55.68000 242.585
55.72000 257.977
55.76000 271.447
55.80000 329.717
55.84000 389.069
55.88000 451.209
55.92000 493.089
55.96000 536.587
56.00000 538.389
56.04000 546.935
56.08000 507.266
56.12000 468.214
56.16000 421.146
56.20000 392.533
56.24000 341.799
56.28000 301.833
56.32000 275.115
56.36000 231.721
56.40000 220.185
56.44000 206.337
56.48000 188.936
56.52000 180.918
56.56000 175.932
56.60000 158.963
56.64000 155.831
56.68000 155.476
56.72000 146.091
56.76000 151.884
56.80000 150.235
56.84000 146.721
56.88000 142.547
56.92000 132.861
56.96000 141.599
57.00000 136.344
57.04000 137.569
57.08000 130.826
57.12000 132.111
57.16000 130.377
57.20000 133.641
57.24000 132.545
57.28000 125.575
57.32000 123.496
57.36000 128.447
57.40000 135.455
57.44000 132.035
57.48000 130.751
57.52000 124.883
57.56000 118.774
57.60000 123.012
57.64000 128.676
57.68000 122.980
57.72000 121.938
57.76000 122.149
57.80000 118.876
57.84000 126.018
57.88000 131.352
57.92000 126.620
57.96000 130.655
58.00000 124.865
58.04000 128.072
58.08000 126.308
58.12000 116.691
58.16000 125.094
58.20000 117.097
58.24000 118.011
58.28000 121.734
58.32000 110.187
58.36000 128.448
58.40000 127.658
58.44000 127.804
58.48000 114.369
58.52000 129.263
58.56000 122.423
58.60000 113.152
58.64000 116.877
58.68000 126.340
58.72000 125.709
58.76000 119.934
58.80000 121.666
58.84000 113.402
58.88000 121.263
58.92000 108.811
58.96000 117.432
59.00000 112.991
59.04000 120.285
59.08000 121.490
59.12000 123.869
59.16000 119.179
59.20000 120.449
59.24000 119.553
59.28000 130.210
59.32000 115.758
59.36000 112.832
59.40000 115.326
59.44000 117.825
59.48000 119.171
59.52000 127.585
59.56000 119.771
59.60000 116.171
59.64000 117.599
59.68000 121.722
59.72000 132.150
59.76000 119.594
59.80000 126.047
59.84000 120.927
59.88000 127.963
59.92000 114.816
59.96000 118.551
60.00000 107.509
60.04000 117.142
60.08000 114.635
60.12000 124.637
60.16000 118.977
60.20000 124.456
60.24000 119.909
60.28000 109.302
60.32000 124.133
60.36000 118.480
60.40000 119.467
60.44000 110.921
60.48000 115.924
60.52000 126.840
60.56000 122.150
60.60000 118.636
60.64000 127.579
60.68000 119.317
60.72000 119.645
60.76000 123.583
60.80000 112.193
60.84000 123.981
60.88000 125.388
60.92000 121.544
60.96000 123.505
61.00000 126.445
61.04000 112.851
61.08000 121.157
61.12000 119.477
61.16000 111.344
61.20000 127.609
61.24000 131.055
61.28000 125.009
61.32000 122.445
61.36000 122.590
61.40000 122.080
61.44000 130.751
61.48000 131.330
61.52000 172.134
61.56000 240.346
61.60000 281.348
61.64000 320.364
61.68000 357.168
61.72000 351.336
61.76000 331.886
61.80000 239.981
61.84000 178.380
61.88000 148.445
61.92000 134.116
61.96000 136.841
62.00000 140.442
62.04000 132.726
62.08000 125.653
62.12000 128.736
62.16000 129.096
62.20000 130.337
62.24000 128.784
62.28000 132.934
62.32000 134.468
62.36000 127.479
62.40000 137.808
62.44000 129.833
62.48000 128.379
62.52000 130.976
62.56000 138.218
62.60000 138.668
62.64000 132.451
62.68000 134.841
62.72000 141.622
62.76000 128.129
62.80000 121.718
62.84000 135.878
62.88000 138.381
62.92000 136.298
62.96000 130.141
63.00000 138.861
63.04000 135.120
63.08000 136.822
63.12000 135.621
63.16000 133.315
63.20000 146.267
63.24000 133.332
63.28000 138.904
63.32000 137.790
63.36000 141.148
63.40000 142.637
63.44000 146.943
63.48000 142.982
63.52000 138.006
63.56000 138.153
63.60000 138.040
63.64000 141.199
63.68000 136.635
63.72000 153.324
63.76000 148.688
63.80000 150.526
63.84000 147.484
63.88000 149.546
63.92000 141.170
63.96000 145.649
64.00000 148.490
64.04000 149.535
64.08000 163.952
64.12000 165.069
64.16000 156.431
64.20000 147.880
64.24000 159.220
64.28000 149.655
64.32000 156.182
64.36000 151.397
64.40000 168.970
64.44000 154.197
64.48000 156.761
64.52000 165.899
64.56000 161.679
64.60000 167.984
64.64000 169.786
64.68000 174.630
64.72000 174.719
64.76000 178.313
64.80000 184.288
64.84000 184.092
64.88000 187.071
64.92000 181.354
64.96000 191.274
65.00000 205.661
65.04000 215.995
65.08000 211.824
65.12000 225.282
65.16000 214.506
65.20000 242.447
65.24000 236.790
65.28000 259.899
65.32000 277.721
65.36000 298.216
65.40000 337.171
65.44000 362.680
65.48000 389.959
65.52000 429.893
65.56000 458.032
65.60000 543.579
65.64000 589.142
65.68000 807.960
65.72000 1227.132
65.76000 1828.145
65.80000 2232.225
65.84000 2438.005
65.88000 2445.397
65.92000 2281.989
65.96000 1788.343
66.00000 1200.488
66.04000 748.154
66.08000 539.764
66.12000 469.940
66.16000 427.737
66.20000 433.823
66.24000 460.372
66.28000 529.142
66.32000 649.709
66.36000 719.374
66.40000 723.995
66.44000 723.028
66.48000 683.730
66.52000 609.557
66.56000 512.562
66.60000 447.231
66.64000 406.574
66.68000 405.805
66.72000 391.354
66.76000 378.362
66.80000 388.124
66.84000 393.505
66.88000 405.360
66.92000 410.974
66.96000 399.539
67.00000 392.625
67.04000 433.384
67.08000 416.711
67.12000 404.634
67.16000 417.815
67.20000 425.979
67.24000 431.429
67.28000 424.343
67.32000 446.472
67.36000 457.115
67.40000 455.609
67.44000 451.439
67.48000 456.632
67.52000 446.175
67.56000 466.820
67.60000 469.294
67.64000 463.799
67.68000 496.675
67.72000 507.728
67.76000 513.268
67.80000 499.223
67.84000 519.892
67.88000 521.826
67.92000 533.502
67.96000 541.621
68.00000 545.570
68.04000 577.786
68.08000 565.096
68.12000 593.778
68.16000 585.059
68.20000 589.551
68.24000 606.215
68.28000 650.737
68.32000 656.105
68.36000 669.238
68.40000 703.317
68.44000 724.548
68.48000 755.964
68.52000 817.095
68.56000 879.416
68.60000 986.346
68.64000 1158.567
68.68000 1362.244
68.72000 1590.942
68.76000 1813.795
68.80000 2049.192
68.84000 2368.922
68.88000 3097.390
68.92000 5417.017
68.96000 13372.785
69.00000 29595.357
69.04000 45459.363
69.08000 53181.551
69.12000 56643.832
69.16000 60335.672
69.20000 58299.172
69.24000 46332.422
69.28000 34419.090
69.32000 28780.936
69.36000 26734.652
69.40000 21740.715
69.44000 12661.318
69.48000 5506.307
69.52000 2552.644
69.56000 1593.821
69.60000 1255.243
69.64000 1058.203
69.68000 905.540
69.72000 812.156
69.76000 755.755
69.80000 696.177
69.84000 651.170
69.88000 630.375
69.92000 593.601
69.96000 561.315
70.00000 507.764