File: XRD/XRD/09-10-2025 Dep 8/XY Data/BTO_Mapping_Theta2Theta_09-10-2025_001_02_10-000_0-000.xy
20.00000 474.701
20.04000 485.666
20.08000 489.901
20.12000 483.341
20.16000 489.927
20.20000 472.496
20.24000 487.450
20.28000 484.290
20.32000 481.651
20.36000 497.947
20.40000 494.562
20.44000 483.962
20.48000 474.355
20.52000 489.005
20.56000 489.111
20.60000 486.371
20.64000 480.574
20.68000 483.770
20.72000 456.131
20.76000 470.089
20.80000 485.652
20.84000 501.472
20.88000 475.070
20.92000 483.706
20.96000 480.636
21.00000 498.525
21.04000 466.778
21.08000 476.763
21.12000 492.297
21.16000 463.041
21.20000 489.797
21.24000 491.841
21.28000 477.798
21.32000 489.191
21.36000 487.963
21.40000 486.217
21.44000 483.195
21.48000 490.466
21.52000 483.653
21.56000 464.293
21.60000 481.820
21.64000 481.271
21.68000 496.289
21.72000 478.860
21.76000 479.708
21.80000 496.251
21.84000 527.759
21.88000 512.587
21.92000 556.116
21.96000 554.760
22.00000 581.841
22.04000 608.740
22.08000 628.612
22.12000 624.193
22.16000 602.189
22.20000 601.955
22.24000 590.068
22.28000 585.485
22.32000 547.668
22.36000 561.936
22.40000 519.819
22.44000 516.323
22.48000 510.931
22.52000 496.295
22.56000 473.063
22.60000 474.072
22.64000 474.218
22.68000 446.628
22.72000 441.717
22.76000 456.452
22.80000 447.372
22.84000 463.211
22.88000 452.748
22.92000 436.236
22.96000 458.094
23.00000 442.085
23.04000 420.973
23.08000 439.541
23.12000 421.292
23.16000 443.033
23.20000 448.239
23.24000 437.793
23.28000 423.315
23.32000 431.044
23.36000 433.866
23.40000 429.237
23.44000 428.335
23.48000 419.664
23.52000 433.097
23.56000 439.191
23.60000 432.448
23.64000 444.622
23.68000 437.138
23.72000 435.833
23.76000 454.400
23.80000 439.781
23.84000 446.267
23.88000 412.945
23.92000 422.206
23.96000 437.593
24.00000 430.371
24.04000 423.926
24.08000 425.473
24.12000 437.188
24.16000 430.920
24.20000 424.160
24.24000 427.397
24.28000 427.133
24.32000 421.291
24.36000 415.542
24.40000 412.163
24.44000 416.699
24.48000 402.681
24.52000 420.047
24.56000 438.937
24.60000 430.534
24.64000 438.049
24.68000 407.899
24.72000 405.090
24.76000 399.097
24.80000 419.210
24.84000 403.705
24.88000 433.088
24.92000 414.866
24.96000 413.722
25.00000 437.739
25.04000 409.732
25.08000 406.214
25.12000 395.596
25.16000 413.596
25.20000 407.081
25.24000 419.103
25.28000 389.684
25.32000 406.538
25.36000 416.185
25.40000 396.661
25.44000 402.843
25.48000 389.509
25.52000 400.065
25.56000 384.944
25.60000 409.003
25.64000 394.666
25.68000 397.191
25.72000 404.002
25.76000 415.622
25.80000 405.409
25.84000 393.152
25.88000 393.795
25.92000 399.559
25.96000 405.884
26.00000 401.722
26.04000 416.115
26.08000 392.385
26.12000 396.443
26.16000 388.117
26.20000 400.309
26.24000 406.452
26.28000 406.244
26.32000 391.176
26.36000 398.453
26.40000 401.866
26.44000 383.256
26.48000 374.947
26.52000 400.891
26.56000 383.218
26.60000 388.409
26.64000 402.114
26.68000 390.813
26.72000 394.966
26.76000 395.617
26.80000 384.552
26.84000 383.069
26.88000 379.881
26.92000 384.768
26.96000 385.125
27.00000 387.481
27.04000 382.977
27.08000 383.402
27.12000 385.228
27.16000 384.300
27.20000 387.550
27.24000 372.686
27.28000 373.852
27.32000 374.927
27.36000 391.633
27.40000 388.527
27.44000 377.509
27.48000 392.096
27.52000 383.517
27.56000 381.705
27.60000 376.329
27.64000 397.892
27.68000 376.852
27.72000 378.950
27.76000 369.517
27.80000 377.769
27.84000 376.710
27.88000 373.976
27.92000 358.176
27.96000 366.232
28.00000 390.133
28.04000 370.817
28.08000 375.381
28.12000 363.189
28.16000 383.407
28.20000 375.449
28.24000 379.078
28.28000 376.598
28.32000 386.328
28.36000 387.447
28.40000 371.467
28.44000 367.680
28.48000 354.190
28.52000 351.444
28.56000 357.670
28.60000 362.787
28.64000 348.429
28.68000 362.182
28.72000 345.853
28.76000 365.616
28.80000 365.609
28.84000 374.248
28.88000 371.195
28.92000 369.138
28.96000 363.396
29.00000 353.071
29.04000 357.272
29.08000 360.461
29.12000 372.671
29.16000 349.317
29.20000 368.577
29.24000 370.421
29.28000 362.430
29.32000 374.411
29.36000 357.317
29.40000 368.299
29.44000 378.003
29.48000 377.866
29.52000 362.427
29.56000 365.411
29.60000 372.099
29.64000 367.254
29.68000 376.380
29.72000 386.703
29.76000 384.014
29.80000 370.482
29.84000 396.236
29.88000 401.569
29.92000 427.227
29.96000 431.861
30.00000 424.978
30.04000 447.683
30.08000 475.478
30.12000 448.370
30.16000 442.648
30.20000 435.600
30.24000 431.543
30.28000 408.695
30.32000 414.362
30.36000 389.800
30.40000 415.591
30.44000 404.941
30.48000 407.303
30.52000 375.312
30.56000 387.975
30.60000 382.434
30.64000 400.858
30.68000 410.692
30.72000 415.218
30.76000 437.099
30.80000 425.506
30.84000 448.004
30.88000 476.349
30.92000 464.768
30.96000 496.043
31.00000 556.726
31.04000 579.839
31.08000 657.896
31.12000 806.719
31.16000 1005.576
31.20000 1328.148
31.24000 1667.940
31.28000 2162.564
31.32000 2611.998
31.36000 2960.596
31.40000 3081.843
31.44000 3078.884
31.48000 2816.100
31.52000 2431.554
31.56000 1954.354
31.60000 1532.097
31.64000 1161.635
31.68000 915.816
31.72000 739.756
31.76000 630.152
31.80000 561.368
31.84000 529.028
31.88000 467.530
31.92000 443.424
31.96000 404.445
32.00000 414.699
32.04000 391.021
32.08000 376.169
32.12000 371.729
32.16000 360.670
32.20000 355.828
32.24000 362.863
32.28000 350.709
32.32000 348.494
32.36000 365.833
32.40000 337.601
32.44000 328.012
32.48000 328.686
32.52000 327.901
32.56000 322.579
32.60000 325.598
32.64000 336.778
32.68000 328.356
32.72000 324.019
32.76000 325.889
32.80000 336.270
32.84000 317.785
32.88000 320.403
32.92000 344.245
32.96000 316.692
33.00000 317.123
33.04000 317.769
33.08000 308.861
33.12000 290.445
33.16000 310.972
33.20000 298.279
33.24000 317.099
33.28000 303.586
33.32000 304.977
33.36000 308.382
33.40000 304.084
33.44000 314.070
33.48000 308.638
33.52000 307.436
33.56000 310.215
33.60000 303.628
33.64000 297.439
33.68000 300.243
33.72000 316.960
33.76000 310.348
33.80000 297.307
33.84000 288.088
33.88000 287.678
33.92000 302.027
33.96000 290.882
34.00000 282.250
34.04000 276.454
34.08000 288.955
34.12000 274.854
34.16000 289.586
34.20000 288.098
34.24000 293.319
34.28000 278.010
34.32000 283.674
34.36000 290.154
34.40000 289.819
34.44000 304.104
34.48000 295.004
34.52000 282.943
34.56000 281.392
34.60000 294.236
34.64000 288.025
34.68000 282.795
34.72000 276.476
34.76000 269.735
34.80000 283.792
34.84000 284.245
34.88000 278.964
34.92000 276.450
34.96000 270.697
35.00000 280.877
35.04000 281.844
35.08000 280.978
35.12000 284.836
35.16000 267.694
35.20000 280.277
35.24000 272.733
35.28000 274.380
35.32000 274.015
35.36000 282.888
35.40000 284.782
35.44000 275.186
35.48000 280.755
35.52000 263.562
35.56000 265.428
35.60000 268.933
35.64000 273.981
35.68000 262.334
35.72000 267.628
35.76000 261.937
35.80000 272.952
35.84000 259.541
35.88000 253.353
35.92000 270.704
35.96000 262.844
36.00000 262.005
36.04000 274.651
36.08000 255.862
36.12000 269.913
36.16000 265.759
36.20000 261.054
36.24000 270.914
36.28000 257.645
36.32000 256.373
36.36000 273.642
36.40000 261.581
36.44000 249.981
36.48000 268.471
36.52000 270.441
36.56000 252.712
36.60000 265.272
36.64000 263.961
36.68000 275.545
36.72000 276.335
36.76000 269.471
36.80000 253.512
36.84000 264.181
36.88000 273.712
36.92000 265.506
36.96000 281.097
37.00000 287.015
37.04000 268.123
37.08000 277.128
37.12000 271.708
37.16000 273.817
37.20000 265.165
37.24000 277.686
37.28000 251.279
37.32000 254.851
37.36000 280.305
37.40000 269.644
37.44000 247.426
37.48000 253.736
37.52000 249.466
37.56000 266.607
37.60000 261.791
37.64000 270.735
37.68000 267.714
37.72000 260.355
37.76000 263.330
37.80000 260.233
37.84000 269.962
37.88000 273.698
37.92000 265.905
37.96000 267.869
38.00000 268.973
38.04000 271.723
38.08000 262.545
38.12000 263.304
38.16000 258.438
38.20000 286.842
38.24000 272.590
38.28000 283.863
38.32000 293.865
38.36000 306.372
38.40000 313.738
38.44000 353.251
38.48000 409.787
38.52000 483.940
38.56000 599.277
38.60000 716.175
38.64000 869.115
38.68000 964.987
38.72000 1069.033
38.76000 1081.905
38.80000 1012.195
38.84000 895.905
38.88000 765.346
38.92000 622.209
38.96000 498.910
39.00000 404.446
39.04000 347.254
39.08000 314.796
39.12000 291.933
39.16000 294.287
39.20000 271.936
39.24000 260.235
39.28000 248.280
39.32000 251.622
39.36000 243.334
39.40000 251.419
39.44000 239.376
39.48000 244.875
39.52000 244.245
39.56000 238.601
39.60000 237.593
39.64000 238.722
39.68000 226.178
39.72000 242.985
39.76000 235.309
39.80000 238.385
39.84000 227.154
39.88000 225.919
39.92000 232.844
39.96000 230.991
40.00000 235.104
40.04000 229.959
40.08000 225.758
40.12000 232.479
40.16000 237.433
40.20000 223.974
40.24000 231.470
40.28000 225.034
40.32000 222.223
40.36000 223.694
40.40000 226.763
40.44000 229.523
40.48000 224.464
40.52000 228.044
40.56000 224.133
40.60000 229.800
40.64000 216.244
40.68000 222.686
40.72000 218.187
40.76000 226.060
40.80000 219.479
40.84000 209.514
40.88000 217.007
40.92000 223.103
40.96000 209.806
41.00000 226.694
41.04000 220.788
41.08000 216.765
41.12000 214.358
41.16000 209.721
41.20000 226.723
41.24000 210.087
41.28000 229.121
41.32000 218.195
41.36000 212.191
41.40000 214.330
41.44000 204.204
41.48000 216.884
41.52000 222.477
41.56000 195.020
41.60000 210.985
41.64000 215.468
41.68000 202.976
41.72000 213.551
41.76000 208.060
41.80000 216.143
41.84000 225.339
41.88000 224.626
41.92000 202.166
41.96000 208.552
42.00000 201.157
42.04000 220.735
42.08000 202.469
42.12000 212.894
42.16000 208.102
42.20000 221.397
42.24000 210.781
42.28000 221.800
42.32000 212.624
42.36000 214.275
42.40000 218.764
42.44000 209.894
42.48000 202.115
42.52000 202.571
42.56000 199.771
42.60000 205.636
42.64000 198.376
42.68000 197.572
42.72000 209.630
42.76000 205.004
42.80000 200.626
42.84000 198.109
42.88000 211.224
42.92000 198.004
42.96000 197.319
43.00000 197.642
43.04000 205.679
43.08000 210.505
43.12000 218.937
43.16000 199.860
43.20000 211.243
43.24000 195.464
43.28000 184.843
43.32000 208.658
43.36000 200.270
43.40000 208.054
43.44000 198.110
43.48000 210.327
43.52000 186.454
43.56000 189.736
43.60000 195.705
43.64000 192.868
43.68000 211.826
43.72000 188.359
43.76000 188.126
43.80000 216.604
43.84000 204.148
43.88000 197.732
43.92000 185.142
43.96000 183.019
44.00000 189.128
44.04000 184.241
44.08000 185.457
44.12000 201.167
44.16000 204.635
44.20000 194.160
44.24000 204.505
44.28000 208.808
44.32000 193.112
44.36000 197.749
44.40000 200.662
44.44000 187.512
44.48000 186.295
44.52000 199.250
44.56000 207.487
44.60000 215.814
44.64000 210.947
44.68000 209.638
44.72000 204.301
44.76000 212.224
44.80000 218.113
44.84000 230.091
44.88000 240.688
44.92000 247.147
44.96000 256.197
45.00000 271.222
45.04000 273.111
45.08000 287.283
45.12000 295.064
45.16000 295.132
45.20000 304.957
45.24000 299.951
45.28000 306.224
45.32000 286.648
45.36000 301.464
45.40000 278.431
45.44000 280.170
45.48000 252.323
45.52000 253.746
45.56000 252.262
45.60000 248.393
45.64000 232.212
45.68000 222.686
45.72000 218.472
45.76000 220.534
45.80000 210.644
45.84000 204.467
45.88000 202.225
45.92000 196.262
45.96000 199.670
46.00000 200.194
46.04000 193.562
46.08000 184.827
46.12000 194.239
46.16000 184.437
46.20000 174.596
46.24000 181.713
46.28000 185.537
46.32000 175.044
46.36000 182.380
46.40000 180.998
46.44000 171.568
46.48000 177.659
46.52000 184.862
46.56000 180.799
46.60000 184.231
46.64000 183.320
46.68000 177.379
46.72000 174.861
46.76000 180.964
46.80000 188.511
46.84000 174.332
46.88000 175.312
46.92000 176.214
46.96000 163.664
47.00000 180.087
47.04000 164.422
47.08000 176.164
47.12000 171.850
47.16000 182.740
47.20000 164.750
47.24000 161.822
47.28000 157.056
47.32000 168.366
47.36000 169.101
47.40000 167.454
47.44000 165.106
47.48000 170.080
47.52000 155.041
47.56000 165.651
47.60000 166.558
47.64000 177.416
47.68000 158.832
47.72000 162.251
47.76000 150.147
47.80000 165.278
47.84000 163.072
47.88000 157.426
47.92000 164.006
47.96000 160.492
48.00000 161.176
48.04000 160.537
48.08000 165.336
48.12000 167.989
48.16000 170.145
48.20000 156.298
48.24000 162.436
48.28000 166.133
48.32000 160.470
48.36000 165.431
48.40000 160.581
48.44000 163.883
48.48000 161.860
48.52000 165.899
48.56000 154.105
48.60000 150.516
48.64000 159.388
48.68000 157.225
48.72000 165.351
48.76000 161.464
48.80000 159.149
48.84000 163.462
48.88000 158.671
48.92000 161.567
48.96000 160.555
49.00000 161.367
49.04000 162.970
49.08000 162.399
49.12000 153.548
49.16000 149.263
49.20000 154.177
49.24000 152.695
49.28000 156.958
49.32000 162.639
49.36000 161.682
49.40000 156.525
49.44000 154.946
49.48000 155.501
49.52000 169.579
49.56000 155.360
49.60000 160.503
49.64000 153.733
49.68000 155.372
49.72000 156.051
49.76000 148.306
49.80000 148.438
49.84000 153.640
49.88000 158.688
49.92000 156.187
49.96000 161.478
50.00000 156.628
50.04000 150.161
50.08000 160.909
50.12000 145.861
50.16000 142.163
50.20000 149.829
50.24000 154.240
50.28000 163.097
50.32000 150.148
50.36000 151.256
50.40000 160.864
50.44000 161.471
50.48000 169.398
50.52000 183.109
50.56000 184.639
50.60000 210.304
50.64000 208.951
50.68000 220.697
50.72000 227.504
50.76000 241.353
50.80000 228.822
50.84000 236.514
50.88000 216.683
50.92000 212.355
50.96000 197.622
51.00000 186.254
51.04000 182.851
51.08000 165.073
51.12000 172.614
51.16000 176.246
51.20000 167.048
51.24000 161.394
51.28000 164.344
51.32000 161.934
51.36000 157.891
51.40000 163.888
51.44000 159.273
51.48000 154.474
51.52000 157.541
51.56000 139.414
51.60000 151.446
51.64000 151.464
51.68000 143.638
51.72000 150.756
51.76000 153.118
51.80000 138.030
51.84000 138.838
51.88000 147.210
51.92000 137.173
51.96000 148.175
52.00000 143.399
52.04000 152.204
52.08000 152.532
52.12000 148.820
52.16000 144.624
52.20000 144.869
52.24000 135.301
52.28000 139.591
52.32000 138.064
52.36000 146.596
52.40000 130.617
52.44000 141.973
52.48000 143.347
52.52000 144.675
52.56000 137.760
52.60000 144.708
52.64000 135.236
52.68000 147.626
52.72000 140.539
52.76000 145.669
52.80000 143.063
52.84000 138.741
52.88000 146.630
52.92000 147.959
52.96000 136.644
53.00000 140.051
53.04000 144.063
53.08000 151.113
53.12000 147.868
53.16000 134.736
53.20000 150.157
53.24000 147.616
53.28000 144.478
53.32000 151.603
53.36000 148.487
53.40000 149.240
53.44000 151.635
53.48000 151.011
53.52000 155.745
53.56000 158.271
53.60000 143.673
53.64000 147.940
53.68000 145.681
53.72000 142.152
53.76000 145.539
53.80000 149.616
53.84000 147.148
53.88000 138.873
53.92000 137.791
53.96000 149.187
54.00000 133.452
54.04000 140.062
54.08000 140.481
54.12000 139.600
54.16000 134.423
54.20000 146.521
54.24000 138.750
54.28000 134.014
54.32000 142.624
54.36000 142.842
54.40000 152.476
54.44000 136.297
54.48000 139.599
54.52000 134.694
54.56000 130.363
54.60000 137.762
54.64000 141.525
54.68000 135.146
54.72000 155.330
54.76000 138.355
54.80000 143.371
54.84000 140.350
54.88000 143.024
54.92000 141.765
54.96000 136.245
55.00000 133.159
55.04000 157.735
55.08000 142.517
55.12000 150.708
55.16000 145.367
55.20000 138.098
55.24000 147.249
55.28000 147.817
55.32000 145.659
55.36000 157.431
55.40000 147.518
55.44000 155.638
55.48000 170.351
55.52000 163.250
55.56000 181.199
55.60000 192.835
55.64000 204.548
55.68000 225.256
55.72000 261.103
55.76000 291.812
55.80000 349.034
55.84000 405.757
55.88000 454.600
55.92000 509.536
55.96000 554.788
56.00000 549.730
56.04000 565.037
56.08000 517.506
56.12000 489.578
56.16000 425.002
56.20000 388.345
56.24000 341.001
56.28000 305.689
56.32000 271.743
56.36000 227.033
56.40000 219.477
56.44000 198.028
56.48000 190.657
56.52000 175.288
56.56000 171.096
56.60000 154.541
56.64000 159.837
56.68000 153.012
56.72000 148.993
56.76000 143.922
56.80000 140.795
56.84000 138.169
56.88000 138.681
56.92000 137.527
56.96000 129.615
57.00000 132.731
57.04000 134.231
57.08000 127.806
57.12000 128.726
57.16000 129.736
57.20000 128.412
57.24000 129.939
57.28000 124.695
57.32000 133.142
57.36000 130.313
57.40000 127.097
57.44000 129.810
57.48000 128.877
57.52000 114.301
57.56000 135.746
57.60000 129.112
57.64000 126.508
57.68000 132.599
57.72000 129.772
57.76000 134.177
57.80000 124.451
57.84000 116.748
57.88000 126.232
57.92000 127.859
57.96000 135.783
58.00000 131.192
58.04000 119.345
58.08000 121.983
58.12000 121.170
58.16000 116.325
58.20000 124.315
58.24000 126.379
58.28000 119.351
58.32000 136.303
58.36000 133.956
58.40000 121.606
58.44000 132.564
58.48000 130.490
58.52000 124.127
58.56000 133.643
58.60000 131.512
58.64000 121.929
58.68000 124.223
58.72000 123.889
58.76000 113.050
58.80000 121.453
58.84000 126.574
58.88000 116.053
58.92000 121.086
58.96000 116.901
59.00000 119.216
59.04000 123.325
59.08000 114.681
59.12000 120.486
59.16000 122.194
59.20000 120.944
59.24000 119.737
59.28000 122.560
59.32000 119.082
59.36000 114.976
59.40000 114.654
59.44000 118.304
59.48000 120.098
59.52000 124.442
59.56000 117.664
59.60000 118.375
59.64000 106.494
59.68000 118.079
59.72000 114.236
59.76000 114.464
59.80000 130.949
59.84000 114.051
59.88000 118.556
59.92000 111.059
59.96000 117.272
60.00000 125.351
60.04000 119.390
60.08000 125.381
60.12000 116.524
60.16000 118.733
60.20000 133.318
60.24000 124.959
60.28000 124.356
60.32000 125.564
60.36000 126.042
60.40000 110.126
60.44000 125.135
60.48000 121.903
60.52000 115.312
60.56000 124.010
60.60000 121.665
60.64000 114.467
60.68000 114.566
60.72000 122.658
60.76000 111.699
60.80000 122.477
60.84000 126.339
60.88000 118.571
60.92000 126.416
60.96000 128.463
61.00000 124.902
61.04000 119.609
61.08000 121.451
61.12000 122.490
61.16000 121.528
61.20000 125.774
61.24000 126.077
61.28000 128.096
61.32000 128.985
61.36000 129.057
61.40000 128.539
61.44000 130.009
61.48000 149.371
61.52000 169.274
61.56000 222.062
61.60000 297.503
61.64000 325.231
61.68000 328.839
61.72000 331.148
61.76000 294.234
61.80000 230.494
61.84000 177.944
61.88000 141.466
61.92000 136.400
61.96000 130.964
62.00000 129.828
62.04000 128.611
62.08000 124.826
62.12000 138.427
62.16000 129.857
62.20000 131.050
62.24000 133.901
62.28000 128.943
62.32000 127.558
62.36000 128.041
62.40000 133.959
62.44000 138.581
62.48000 137.299
62.52000 140.767
62.56000 139.027
62.60000 137.639
62.64000 134.614
62.68000 137.931
62.72000 130.655
62.76000 136.491
62.80000 137.213
62.84000 130.318
62.88000 135.728
62.92000 141.695
62.96000 142.699
63.00000 140.411
63.04000 147.380
63.08000 135.917
63.12000 139.363
63.16000 140.532
63.20000 146.459
63.24000 128.506
63.28000 137.330
63.32000 136.187
63.36000 145.413
63.40000 133.590
63.44000 143.679
63.48000 143.303
63.52000 146.903
63.56000 137.438
63.60000 138.858
63.64000 149.845
63.68000 139.705
63.72000 141.413
63.76000 143.826
63.80000 145.914
63.84000 148.296
63.88000 156.024
63.92000 143.297
63.96000 164.873
64.00000 157.244
64.04000 152.385
64.08000 149.400
64.12000 157.359
64.16000 141.957
64.20000 159.160
64.24000 152.034
64.28000 155.523
64.32000 163.871
64.36000 157.160
64.40000 166.100
64.44000 164.168
64.48000 159.855
64.52000 162.914
64.56000 158.441
64.60000 173.034
64.64000 166.877
64.68000 182.044
64.72000 164.392
64.76000 177.924
64.80000 181.261
64.84000 187.261
64.88000 200.648
64.92000 192.479
64.96000 192.564
65.00000 197.298
65.04000 196.230
65.08000 209.781
65.12000 206.060
65.16000 223.584
65.20000 237.599
65.24000 229.010
65.28000 264.642
65.32000 283.152
65.36000 303.425
65.40000 339.297
65.44000 375.571
65.48000 416.279
65.52000 432.000
65.56000 475.443
65.60000 543.144
65.64000 602.667
65.68000 820.232
65.72000 1250.539
65.76000 1789.318
65.80000 2202.349
65.84000 2317.973
65.88000 2317.649
65.92000 2164.107
65.96000 1726.612
66.00000 1139.673
66.04000 698.590
66.08000 498.013
66.12000 451.815
66.16000 433.332
66.20000 442.247
66.24000 457.640
66.28000 536.995
66.32000 633.932
66.36000 699.256
66.40000 709.579
66.44000 700.762
66.48000 670.239
66.52000 579.073
66.56000 483.332
66.60000 415.832
66.64000 396.798
66.68000 375.493
66.72000 383.570
66.76000 389.628
66.80000 380.971
66.84000 400.410
66.88000 376.415
66.92000 399.836
66.96000 394.426
67.00000 384.941
67.04000 402.391
67.08000 422.065
67.12000 405.116
67.16000 414.847
67.20000 436.840
67.24000 443.080
67.28000 427.395
67.32000 425.380
67.36000 419.923
67.40000 442.737
67.44000 442.219
67.48000 449.419
67.52000 445.584
67.56000 464.632
67.60000 468.029
67.64000 476.864
67.68000 480.975
67.72000 500.772
67.76000 485.796
67.80000 510.492
67.84000 506.486
67.88000 514.995
67.92000 519.380
67.96000 543.972
68.00000 536.120
68.04000 548.308
68.08000 556.225
68.12000 560.287
68.16000 592.955
68.20000 591.761
68.24000 598.225
68.28000 612.647
68.32000 640.868
68.36000 674.172
68.40000 704.992
68.44000 718.881
68.48000 738.978
68.52000 779.313
68.56000 866.966
68.60000 982.718
68.64000 1164.182
68.68000 1355.679
68.72000 1571.098
68.76000 1791.046
68.80000 2061.927
68.84000 2392.514
68.88000 3130.219
68.92000 5675.697
68.96000 14017.425
69.00000 30453.689
69.04000 45703.211
69.08000 52898.609
69.12000 55593.828
69.16000 59433.797
69.20000 56693.254
69.24000 44110.840
69.28000 32968.773
69.32000 27994.758
69.36000 25874.768
69.40000 20737.457
69.44000 11674.617
69.48000 4948.411
69.52000 2420.140
69.56000 1528.684
69.60000 1205.519
69.64000 1026.968
69.68000 893.509
69.72000 833.343
69.76000 726.478
69.80000 702.785
69.84000 630.884
69.88000 616.612
69.92000 589.337
69.96000 546.792
70.00000 526.274