File: XRD/XRD/09-10-2025 Dep 8/XY Data/BTO_Mapping_Theta2Theta_09-10-2025_001_08_27-406_12-202.xy
20.00000 475.830
20.04000 490.114
20.08000 483.311
20.12000 490.361
20.16000 483.282
20.20000 473.888
20.24000 486.232
20.28000 478.041
20.32000 481.970
20.36000 476.125
20.40000 474.487
20.44000 470.042
20.48000 471.168
20.52000 481.628
20.56000 482.072
20.60000 471.372
20.64000 481.624
20.68000 472.161
20.72000 488.155
20.76000 462.051
20.80000 487.191
20.84000 453.937
20.88000 485.618
20.92000 477.121
20.96000 482.019
21.00000 478.150
21.04000 470.105
21.08000 463.657
21.12000 471.197
21.16000 474.524
21.20000 487.377
21.24000 483.437
21.28000 473.392
21.32000 460.453
21.36000 460.940
21.40000 464.474
21.44000 476.212
21.48000 462.242
21.52000 466.652
21.56000 474.947
21.60000 487.814
21.64000 463.646
21.68000 478.951
21.72000 463.455
21.76000 468.936
21.80000 498.536
21.84000 498.077
21.88000 519.046
21.92000 522.442
21.96000 533.392
22.00000 552.490
22.04000 584.517
22.08000 598.546
22.12000 591.896
22.16000 601.783
22.20000 588.487
22.24000 562.354
22.28000 565.118
22.32000 554.128
22.36000 526.460
22.40000 511.781
22.44000 506.568
22.48000 494.376
22.52000 484.294
22.56000 480.659
22.60000 464.963
22.64000 452.882
22.68000 439.761
22.72000 451.214
22.76000 450.785
22.80000 436.083
22.84000 438.361
22.88000 438.650
22.92000 441.918
22.96000 455.507
23.00000 447.161
23.04000 436.258
23.08000 445.633
23.12000 430.511
23.16000 445.903
23.20000 435.055
23.24000 450.601
23.28000 445.075
23.32000 437.117
23.36000 448.141
23.40000 449.253
23.44000 424.599
23.48000 440.891
23.52000 458.066
23.56000 440.421
23.60000 447.378
23.64000 460.394
23.68000 473.613
23.72000 456.871
23.76000 453.835
23.80000 463.687
23.84000 469.791
23.88000 462.782
23.92000 438.326
23.96000 458.517
24.00000 464.394
24.04000 453.430
24.08000 440.403
24.12000 456.758
24.16000 455.746
24.20000 462.604
24.24000 436.147
24.28000 428.780
24.32000 430.013
24.36000 413.905
24.40000 447.634
24.44000 420.301
24.48000 421.466
24.52000 427.232
24.56000 440.525
24.60000 412.295
24.64000 421.319
24.68000 429.286
24.72000 410.251
24.76000 389.232
24.80000 409.751
24.84000 404.556
24.88000 420.818
24.92000 421.046
24.96000 405.813
25.00000 426.535
25.04000 421.433
25.08000 415.914
25.12000 400.375
25.16000 418.247
25.20000 421.112
25.24000 415.238
25.28000 418.422
25.32000 397.825
25.36000 401.801
25.40000 394.470
25.44000 397.146
25.48000 403.960
25.52000 393.793
25.56000 406.620
25.60000 405.163
25.64000 413.224
25.68000 400.396
25.72000 381.954
25.76000 386.582
25.80000 386.723
25.84000 390.290
25.88000 391.146
25.92000 379.290
25.96000 398.090
26.00000 409.091
26.04000 407.709
26.08000 391.210
26.12000 396.677
26.16000 394.543
26.20000 388.241
26.24000 425.099
26.28000 390.924
26.32000 394.132
26.36000 381.626
26.40000 384.556
26.44000 387.473
26.48000 388.917
26.52000 377.760
26.56000 383.487
26.60000 378.309
26.64000 406.834
26.68000 374.919
26.72000 388.871
26.76000 379.166
26.80000 372.030
26.84000 371.870
26.88000 404.009
26.92000 368.216
26.96000 385.373
27.00000 379.940
27.04000 371.620
27.08000 369.850
27.12000 366.607
27.16000 386.839
27.20000 371.202
27.24000 374.186
27.28000 380.710
27.32000 382.464
27.36000 371.629
27.40000 377.805
27.44000 393.203
27.48000 390.804
27.52000 374.649
27.56000 374.092
27.60000 354.567
27.64000 363.929
27.68000 361.871
27.72000 374.044
27.76000 371.993
27.80000 365.322
27.84000 373.071
27.88000 360.730
27.92000 363.118
27.96000 383.560
28.00000 385.818
28.04000 356.234
28.08000 353.137
28.12000 355.816
28.16000 374.585
28.20000 382.288
28.24000 379.560
28.28000 374.968
28.32000 381.819
28.36000 376.850
28.40000 377.222
28.44000 360.111
28.48000 372.294
28.52000 363.102
28.56000 362.013
28.60000 362.297
28.64000 366.398
28.68000 366.937
28.72000 343.911
28.76000 354.742
28.80000 372.310
28.84000 331.805
28.88000 350.307
28.92000 350.163
28.96000 366.462
29.00000 347.950
29.04000 361.050
29.08000 364.179
29.12000 359.583
29.16000 337.447
29.20000 360.742
29.24000 380.743
29.28000 369.897
29.32000 361.436
29.36000 340.786
29.40000 346.092
29.44000 360.237
29.48000 356.050
29.52000 373.381
29.56000 354.445
29.60000 356.668
29.64000 367.499
29.68000 342.256
29.72000 359.060
29.76000 390.573
29.80000 352.156
29.84000 372.283
29.88000 376.233
29.92000 386.800
29.96000 387.811
30.00000 417.503
30.04000 408.202
30.08000 402.732
30.12000 421.423
30.16000 399.492
30.20000 416.345
30.24000 398.277
30.28000 399.827
30.32000 394.844
30.36000 386.741
30.40000 382.752
30.44000 380.336
30.48000 355.123
30.52000 388.189
30.56000 394.848
30.60000 365.727
30.64000 400.247
30.68000 384.368
30.72000 376.635
30.76000 375.624
30.80000 373.892
30.84000 402.098
30.88000 402.522
30.92000 431.794
30.96000 419.970
31.00000 444.261
31.04000 473.663
31.08000 530.667
31.12000 585.221
31.16000 680.857
31.20000 823.744
31.24000 1004.861
31.28000 1283.593
31.32000 1525.698
31.36000 1830.613
31.40000 1990.063
31.44000 2017.308
31.48000 1953.716
31.52000 1858.628
31.56000 1572.261
31.60000 1328.968
31.64000 1070.590
31.68000 881.001
31.72000 722.358
31.76000 627.784
31.80000 539.016
31.84000 488.149
31.88000 446.110
31.92000 426.799
31.96000 407.739
32.00000 380.375
32.04000 376.127
32.08000 362.280
32.12000 359.599
32.16000 354.200
32.20000 346.101
32.24000 339.605
32.28000 349.821
32.32000 336.108
32.36000 337.349
32.40000 345.161
32.44000 327.874
32.48000 321.044
32.52000 341.238
32.56000 346.187
32.60000 313.876
32.64000 331.804
32.68000 328.776
32.72000 331.322
32.76000 330.599
32.80000 330.615
32.84000 320.157
32.88000 323.980
32.92000 296.991
32.96000 297.906
33.00000 289.567
33.04000 303.831
33.08000 314.385
33.12000 309.565
33.16000 305.143
33.20000 310.572
33.24000 308.094
33.28000 299.871
33.32000 315.713
33.36000 294.245
33.40000 292.884
33.44000 296.455
33.48000 302.863
33.52000 280.829
33.56000 293.730
33.60000 281.603
33.64000 291.663
33.68000 271.998
33.72000 283.287
33.76000 293.686
33.80000 276.993
33.84000 280.108
33.88000 289.917
33.92000 285.235
33.96000 289.916
34.00000 291.381
34.04000 266.340
34.08000 294.206
34.12000 287.857
34.16000 309.382
34.20000 292.993
34.24000 303.798
34.28000 292.560
34.32000 283.127
34.36000 300.231
34.40000 297.693
34.44000 298.963
34.48000 310.043
34.52000 299.400
34.56000 295.604
34.60000 297.943
34.64000 290.645
34.68000 302.518
34.72000 290.167
34.76000 296.141
34.80000 275.151
34.84000 283.870
34.88000 268.449
34.92000 281.965
34.96000 267.085
35.00000 272.897
35.04000 280.810
35.08000 282.550
35.12000 275.157
35.16000 267.681
35.20000 294.723
35.24000 282.892
35.28000 275.996
35.32000 270.738
35.36000 264.831
35.40000 276.243
35.44000 267.214
35.48000 258.230
35.52000 269.745
35.56000 263.632
35.60000 283.995
35.64000 275.329
35.68000 267.423
35.72000 255.025
35.76000 266.594
35.80000 254.884
35.84000 254.792
35.88000 259.863
35.92000 261.918
35.96000 269.270
36.00000 272.540
36.04000 257.876
36.08000 269.232
36.12000 268.230
36.16000 266.215
36.20000 255.611
36.24000 272.825
36.28000 261.680
36.32000 264.551
36.36000 259.474
36.40000 263.945
36.44000 267.436
36.48000 257.103
36.52000 265.316
36.56000 270.656
36.60000 260.552
36.64000 264.606
36.68000 249.113
36.72000 253.650
36.76000 267.946
36.80000 259.549
36.84000 262.884
36.88000 259.587
36.92000 268.691
36.96000 279.606
37.00000 284.934
37.04000 279.694
37.08000 277.250
37.12000 275.113
37.16000 286.370
37.20000 268.997
37.24000 266.119
37.28000 258.715
37.32000 258.561
37.36000 275.455
37.40000 254.953
37.44000 263.795
37.48000 258.392
37.52000 261.176
37.56000 273.970
37.60000 248.928
37.64000 248.516
37.68000 261.282
37.72000 257.375
37.76000 265.031
37.80000 258.105
37.84000 251.828
37.88000 254.251
37.92000 260.533
37.96000 250.704
38.00000 262.005
38.04000 255.479
38.08000 247.117
38.12000 249.121
38.16000 257.681
38.20000 253.673
38.24000 262.518
38.28000 267.919
38.32000 281.233
38.36000 282.555
38.40000 291.365
38.44000 308.263
38.48000 316.848
38.52000 383.980
38.56000 449.482
38.60000 523.974
38.64000 668.281
38.68000 801.899
38.72000 874.376
38.76000 933.288
38.80000 958.773
38.84000 891.253
38.88000 776.919
38.92000 654.758
38.96000 539.048
39.00000 437.822
39.04000 396.262
39.08000 336.664
39.12000 292.915
39.16000 281.021
39.20000 269.767
39.24000 265.026
39.28000 253.981
39.32000 248.217
39.36000 246.923
39.40000 245.107
39.44000 236.668
39.48000 242.328
39.52000 240.225
39.56000 240.011
39.60000 235.665
39.64000 241.475
39.68000 235.210
39.72000 236.507
39.76000 231.917
39.80000 228.325
39.84000 223.615
39.88000 223.380
39.92000 223.288
39.96000 233.643
40.00000 223.967
40.04000 230.891
40.08000 231.849
40.12000 230.307
40.16000 237.938
40.20000 221.963
40.24000 227.756
40.28000 226.021
40.32000 227.980
40.36000 224.308
40.40000 213.532
40.44000 226.194
40.48000 213.285
40.52000 217.448
40.56000 211.584
40.60000 226.194
40.64000 222.393
40.68000 233.854
40.72000 226.114
40.76000 223.353
40.80000 205.176
40.84000 218.882
40.88000 202.536
40.92000 214.843
40.96000 200.886
41.00000 204.618
41.04000 205.217
41.08000 209.858
41.12000 219.104
41.16000 217.764
41.20000 208.659
41.24000 212.292
41.28000 218.934
41.32000 202.360
41.36000 215.090
41.40000 205.121
41.44000 207.923
41.48000 199.763
41.52000 206.035
41.56000 209.467
41.60000 211.765
41.64000 218.429
41.68000 220.118
41.72000 229.572
41.76000 208.346
41.80000 218.663
41.84000 213.414
41.88000 208.279
41.92000 216.263
41.96000 208.076
42.00000 216.548
42.04000 207.145
42.08000 212.934
42.12000 198.111
42.16000 201.542
42.20000 217.733
42.24000 209.727
42.28000 208.072
42.32000 218.713
42.36000 204.974
42.40000 205.482
42.44000 201.834
42.48000 204.985
42.52000 212.963
42.56000 195.603
42.60000 203.673
42.64000 200.940
42.68000 205.212
42.72000 203.779
42.76000 204.474
42.80000 211.787
42.84000 211.722
42.88000 199.372
42.92000 199.313
42.96000 200.376
43.00000 200.269
43.04000 194.186
43.08000 200.055
43.12000 206.973
43.16000 202.275
43.20000 201.452
43.24000 204.519
43.28000 196.099
43.32000 196.458
43.36000 200.772
43.40000 192.914
43.44000 189.084
43.48000 186.549
43.52000 189.008
43.56000 190.083
43.60000 192.050
43.64000 195.716
43.68000 201.707
43.72000 186.596
43.76000 187.787
43.80000 194.929
43.84000 186.007
43.88000 190.906
43.92000 201.548
43.96000 189.479
44.00000 188.711
44.04000 189.845
44.08000 195.425
44.12000 200.316
44.16000 193.689
44.20000 184.853
44.24000 196.126
44.28000 187.409
44.32000 194.111
44.36000 187.591
44.40000 207.289
44.44000 207.511
44.48000 207.846
44.52000 198.368
44.56000 199.462
44.60000 194.404
44.64000 206.293
44.68000 205.775
44.72000 208.293
44.76000 209.335
44.80000 210.488
44.84000 218.707
44.88000 223.608
44.92000 226.262
44.96000 233.762
45.00000 240.338
45.04000 251.032
45.08000 258.101
45.12000 255.497
45.16000 268.865
45.20000 279.389
45.24000 277.404
45.28000 269.785
45.32000 256.972
45.36000 252.297
45.40000 256.351
45.44000 254.976
45.48000 242.888
45.52000 246.080
45.56000 230.834
45.60000 234.231
45.64000 229.369
45.68000 215.610
45.72000 222.215
45.76000 228.900
45.80000 216.854
45.84000 208.440
45.88000 192.740
45.92000 202.990
45.96000 205.000
46.00000 196.055
46.04000 196.682
46.08000 192.882
46.12000 184.204
46.16000 175.735
46.20000 187.807
46.24000 186.158
46.28000 182.484
46.32000 174.187
46.36000 169.993
46.40000 176.472
46.44000 179.108
46.48000 179.519
46.52000 174.728
46.56000 171.562
46.60000 178.432
46.64000 178.319
46.68000 175.863
46.72000 191.075
46.76000 173.260
46.80000 175.356
46.84000 171.144
46.88000 170.035
46.92000 162.766
46.96000 165.892
47.00000 172.400
47.04000 167.069
47.08000 161.064
47.12000 173.894
47.16000 172.985
47.20000 178.347
47.24000 168.105
47.28000 175.670
47.32000 177.314
47.36000 166.102
47.40000 169.277
47.44000 163.896
47.48000 177.805
47.52000 162.704
47.56000 172.166
47.60000 159.897
47.64000 161.250
47.68000 168.914
47.72000 162.626
47.76000 158.349
47.80000 165.203
47.84000 155.932
47.88000 151.265
47.92000 160.004
47.96000 159.573
48.00000 165.427
48.04000 173.088
48.08000 150.742
48.12000 150.151
48.16000 154.581
48.20000 155.158
48.24000 162.533
48.28000 160.201
48.32000 162.434
48.36000 168.224
48.40000 161.016
48.44000 161.301
48.48000 161.645
48.52000 161.979
48.56000 161.484
48.60000 159.340
48.64000 162.550
48.68000 154.871
48.72000 159.607
48.76000 151.844
48.80000 157.781
48.84000 156.429
48.88000 152.047
48.92000 150.915
48.96000 153.657
49.00000 154.216
49.04000 159.273
49.08000 163.751
49.12000 149.157
49.16000 163.150
49.20000 157.227
49.24000 162.582
49.28000 156.672
49.32000 161.167
49.36000 152.370
49.40000 142.928
49.44000 136.711
49.48000 142.424
49.52000 159.420
49.56000 145.815
49.60000 152.576
49.64000 153.842
49.68000 162.446
49.72000 155.940
49.76000 149.810
49.80000 141.149
49.84000 148.872
49.88000 157.112
49.92000 142.731
49.96000 148.914
50.00000 149.028
50.04000 156.877
50.08000 161.736
50.12000 157.399
50.16000 151.569
50.20000 161.573
50.24000 149.484
50.28000 151.066
50.32000 153.381
50.36000 161.180
50.40000 166.908
50.44000 169.812
50.48000 161.219
50.52000 171.911
50.56000 171.727
50.60000 190.882
50.64000 196.568
50.68000 188.306
50.72000 205.483
50.76000 192.527
50.80000 203.323
50.84000 217.629
50.88000 195.299
50.92000 202.825
50.96000 180.523
51.00000 184.250
51.04000 182.542
51.08000 177.554
51.12000 162.198
51.16000 160.167
51.20000 163.890
51.24000 164.077
51.28000 159.797
51.32000 162.303
51.36000 144.898
51.40000 148.495
51.44000 144.935
51.48000 145.011
51.52000 159.541
51.56000 146.555
51.60000 145.510
51.64000 148.550
51.68000 155.350
51.72000 138.673
51.76000 146.566
51.80000 135.752
51.84000 139.359
51.88000 137.763
51.92000 135.101
51.96000 140.525
52.00000 140.255
52.04000 142.824
52.08000 142.387
52.12000 143.935
52.16000 142.338
52.20000 130.301
52.24000 149.969
52.28000 146.646
52.32000 138.649
52.36000 146.477
52.40000 140.197
52.44000 138.041
52.48000 130.189
52.52000 134.411
52.56000 128.582
52.60000 142.489
52.64000 142.067
52.68000 137.228
52.72000 145.881
52.76000 143.448
52.80000 141.313
52.84000 143.122
52.88000 134.532
52.92000 134.690
52.96000 147.309
53.00000 136.657
53.04000 143.910
53.08000 142.718
53.12000 137.704
53.16000 145.358
53.20000 138.001
53.24000 146.164
53.28000 138.076
53.32000 139.185
53.36000 131.184
53.40000 149.540
53.44000 148.462
53.48000 145.749
53.52000 149.305
53.56000 150.007
53.60000 147.374
53.64000 151.127
53.68000 144.753
53.72000 133.322
53.76000 138.313
53.80000 147.897
53.84000 148.399
53.88000 144.176
53.92000 139.850
53.96000 138.737
54.00000 140.355
54.04000 130.934
54.08000 137.785
54.12000 136.925
54.16000 134.421
54.20000 139.783
54.24000 138.824
54.28000 133.314
54.32000 146.760
54.36000 135.543
54.40000 147.943
54.44000 134.858
54.48000 135.157
54.52000 129.830
54.56000 133.130
54.60000 127.822
54.64000 132.003
54.68000 137.599
54.72000 145.302
54.76000 145.012
54.80000 138.170
54.84000 126.355
54.88000 141.630
54.92000 136.551
54.96000 139.958
55.00000 142.382
55.04000 141.810
55.08000 127.749
55.12000 136.368
55.16000 151.983
55.20000 138.323
55.24000 149.630
55.28000 143.638
55.32000 152.806
55.36000 151.419
55.40000 152.623
55.44000 150.394
55.48000 147.750
55.52000 160.896
55.56000 164.675
55.60000 185.541
55.64000 192.252
55.68000 208.102
55.72000 221.132
55.76000 251.040
55.80000 297.862
55.84000 354.509
55.88000 407.382
55.92000 459.273
55.96000 507.780
56.00000 560.703
56.04000 597.511
56.08000 593.257
56.12000 562.772
56.16000 515.997
56.20000 455.938
56.24000 429.436
56.28000 354.322
56.32000 327.707
56.36000 282.200
56.40000 242.603
56.44000 214.749
56.48000 193.941
56.52000 182.238
56.56000 172.350
56.60000 158.747
56.64000 162.592
56.68000 149.102
56.72000 145.500
56.76000 143.625
56.80000 134.709
56.84000 142.531
56.88000 143.843
56.92000 138.840
56.96000 137.227
57.00000 134.524
57.04000 134.433
57.08000 123.880
57.12000 133.217
57.16000 127.498
57.20000 121.579
57.24000 137.804
57.28000 138.637
57.32000 129.204
57.36000 129.003
57.40000 132.211
57.44000 126.397
57.48000 125.429
57.52000 108.500
57.56000 122.829
57.60000 134.910
57.64000 127.028
57.68000 126.961
57.72000 119.038
57.76000 131.578
57.80000 123.757
57.84000 111.237
57.88000 124.015
57.92000 126.976
57.96000 126.034
58.00000 121.166
58.04000 109.963
58.08000 117.522
58.12000 116.883
58.16000 124.709
58.20000 123.296
58.24000 123.880
58.28000 115.814
58.32000 120.423
58.36000 130.989
58.40000 121.200
58.44000 133.152
58.48000 116.894
58.52000 115.393
58.56000 127.639
58.60000 121.755
58.64000 119.880
58.68000 111.654
58.72000 117.415
58.76000 128.698
58.80000 115.191
58.84000 120.611
58.88000 117.688
58.92000 113.009
58.96000 108.126
59.00000 125.125
59.04000 115.835
59.08000 113.566
59.12000 119.993
59.16000 114.152
59.20000 107.931
59.24000 109.886
59.28000 115.311
59.32000 120.313
59.36000 118.017
59.40000 116.840
59.44000 118.645
59.48000 113.811
59.52000 112.308
59.56000 117.436
59.60000 116.375
59.64000 116.717
59.68000 115.932
59.72000 126.125
59.76000 125.949
59.80000 120.723
59.84000 108.926
59.88000 120.472
59.92000 116.929
59.96000 119.892
60.00000 122.498
60.04000 116.510
60.08000 115.775
60.12000 121.900
60.16000 114.576
60.20000 121.278
60.24000 117.328
60.28000 116.338
60.32000 114.700
60.36000 116.714
60.40000 113.510
60.44000 125.257
60.48000 122.818
60.52000 109.613
60.56000 119.364
60.60000 115.789
60.64000 133.170
60.68000 120.753
60.72000 121.319
60.76000 123.756
60.80000 118.297
60.84000 120.877
60.88000 115.984
60.92000 123.592
60.96000 122.760
61.00000 124.951
61.04000 114.929
61.08000 124.539
61.12000 128.112
61.16000 114.280
61.20000 123.988
61.24000 117.360
61.28000 118.491
61.32000 119.102
61.36000 120.286
61.40000 124.285
61.44000 123.115
61.48000 124.740
61.52000 161.597
61.56000 211.709
61.60000 254.111
61.64000 277.598
61.68000 304.102
61.72000 296.603
61.76000 268.592
61.80000 224.171
61.84000 169.062
61.88000 147.321
61.92000 134.424
61.96000 137.572
62.00000 125.118
62.04000 140.725
62.08000 121.423
62.12000 122.738
62.16000 122.431
62.20000 137.295
62.24000 120.401
62.28000 126.853
62.32000 130.573
62.36000 138.317
62.40000 139.995
62.44000 128.630
62.48000 128.865
62.52000 124.878
62.56000 134.844
62.60000 128.443
62.64000 128.681
62.68000 134.174
62.72000 143.631
62.76000 141.295
62.80000 137.240
62.84000 134.651
62.88000 143.761
62.92000 126.964
62.96000 132.720
63.00000 135.273
63.04000 150.891
63.08000 122.159
63.12000 144.574
63.16000 138.692
63.20000 133.544
63.24000 130.271
63.28000 147.615
63.32000 128.497
63.36000 139.150
63.40000 134.749
63.44000 130.356
63.48000 126.230
63.52000 133.072
63.56000 141.676
63.60000 131.911
63.64000 123.546
63.68000 140.443
63.72000 127.042
63.76000 151.949
63.80000 141.268
63.84000 131.522
63.88000 141.158
63.92000 153.304
63.96000 141.835
64.00000 142.879
64.04000 147.473
64.08000 144.036
64.12000 141.951
64.16000 152.795
64.20000 143.356
64.24000 147.034
64.28000 153.560
64.32000 159.087
64.36000 154.559
64.40000 167.041
64.44000 157.762
64.48000 159.248
64.52000 158.289
64.56000 164.548
64.60000 160.612
64.64000 167.948
64.68000 161.924
64.72000 163.014
64.76000 177.237
64.80000 168.673
64.84000 176.920
64.88000 182.462
64.92000 169.262
64.96000 183.038
65.00000 178.745
65.04000 193.757
65.08000 199.066
65.12000 205.640
65.16000 206.626
65.20000 213.471
65.24000 232.162
65.28000 233.698
65.32000 240.339
65.36000 249.763
65.40000 271.645
65.44000 298.155
65.48000 301.786
65.52000 328.274
65.56000 377.659
65.60000 435.428
65.64000 495.237
65.68000 662.750
65.72000 1057.983
65.76000 1493.672
65.80000 1899.822
65.84000 2023.366
65.88000 2072.747
65.92000 1969.801
65.96000 1573.871
66.00000 1071.785
66.04000 672.410
66.08000 481.111
66.12000 422.295
66.16000 401.246
66.20000 377.592
66.24000 413.165
66.28000 487.120
66.32000 572.475
66.36000 628.422
66.40000 656.513
66.44000 650.211
66.48000 622.312
66.52000 557.103
66.56000 427.398
66.60000 395.920
66.64000 376.857
66.68000 370.549
66.72000 363.031
66.76000 360.143
66.80000 362.937
66.84000 358.939
66.88000 382.598
66.92000 371.908
66.96000 371.553
67.00000 381.215
67.04000 378.016
67.08000 374.106
67.12000 386.502
67.16000 407.913
67.20000 400.307
67.24000 393.845
67.28000 408.385
67.32000 414.636
67.36000 413.361
67.40000 409.450
67.44000 432.712
67.48000 443.137
67.52000 435.409
67.56000 455.327
67.60000 449.584
67.64000 458.582
67.68000 461.536
67.72000 434.771
67.76000 491.161
67.80000 464.995
67.84000 489.795
67.88000 495.930
67.92000 491.916
67.96000 505.346
68.00000 533.159
68.04000 541.533
68.08000 529.665
68.12000 528.915
68.16000 550.661
68.20000 554.297
68.24000 559.477
68.28000 588.919
68.32000 618.953
68.36000 624.366
68.40000 655.785
68.44000 681.720
68.48000 716.046
68.52000 743.183
68.56000 792.226
68.60000 897.876
68.64000 1038.190
68.68000 1254.140
68.72000 1425.194
68.76000 1580.698
68.80000 1781.086
68.84000 2140.010
68.88000 2717.617
68.92000 4624.621
68.96000 11020.711
69.00000 24931.836
69.04000 38599.973
69.08000 45171.570
69.12000 47891.855
69.16000 51058.828
69.20000 49764.879
69.24000 39739.723
69.28000 29268.641
69.32000 24574.236
69.36000 23010.086
69.40000 18719.883
69.44000 11027.295
69.48000 4684.578
69.52000 2282.633
69.56000 1460.829
69.60000 1173.326
69.64000 986.842
69.68000 889.428
69.72000 773.698
69.76000 717.273
69.80000 677.189
69.84000 611.151
69.88000 574.285
69.92000 539.254
69.96000 523.502
70.00000 534.302