File: XRD/XRD/09-10-2025 Dep 8/XY Data/BTO_Mapping_Theta2Theta_09-10-2025_001_12_20-074_22-294.xy
20.00000 497.444
20.04000 476.481
20.08000 475.391
20.12000 503.449
20.16000 486.077
20.20000 470.103
20.24000 484.969
20.28000 483.311
20.32000 486.472
20.36000 459.190
20.40000 479.605
20.44000 470.741
20.48000 481.560
20.52000 478.872
20.56000 486.896
20.60000 487.928
20.64000 472.390
20.68000 474.328
20.72000 452.769
20.76000 457.807
20.80000 479.671
20.84000 493.264
20.88000 461.842
20.92000 473.215
20.96000 484.803
21.00000 483.088
21.04000 482.649
21.08000 489.136
21.12000 477.849
21.16000 463.761
21.20000 470.436
21.24000 482.519
21.28000 476.382
21.32000 465.667
21.36000 462.784
21.40000 474.837
21.44000 483.365
21.48000 479.967
21.52000 479.812
21.56000 471.233
21.60000 481.678
21.64000 472.346
21.68000 493.111
21.72000 478.290
21.76000 477.826
21.80000 492.368
21.84000 490.263
21.88000 512.097
21.92000 521.384
21.96000 541.602
22.00000 550.607
22.04000 556.780
22.08000 558.992
22.12000 564.668
22.16000 575.982
22.20000 585.264
22.24000 570.559
22.28000 560.491
22.32000 545.687
22.36000 537.041
22.40000 507.084
22.44000 520.197
22.48000 518.827
22.52000 489.761
22.56000 486.903
22.60000 458.981
22.64000 476.285
22.68000 458.780
22.72000 442.100
22.76000 459.384
22.80000 473.272
22.84000 438.508
22.88000 449.606
22.92000 440.263
22.96000 462.522
23.00000 440.109
23.04000 435.912
23.08000 433.619
23.12000 406.459
23.16000 452.213
23.20000 444.372
23.24000 427.364
23.28000 420.766
23.32000 457.760
23.36000 436.834
23.40000 443.676
23.44000 422.264
23.48000 415.875
23.52000 444.297
23.56000 449.649
23.60000 435.689
23.64000 429.811
23.68000 432.935
23.72000 436.488
23.76000 440.923
23.80000 434.408
23.84000 438.468
23.88000 466.817
23.92000 468.956
23.96000 457.455
24.00000 444.221
24.04000 470.191
24.08000 471.956
24.12000 457.164
24.16000 436.783
24.20000 430.760
24.24000 432.775
24.28000 416.142
24.32000 429.990
24.36000 416.046
24.40000 425.235
24.44000 429.851
24.48000 417.027
24.52000 409.272
24.56000 388.910
24.60000 410.554
24.64000 422.431
24.68000 395.465
24.72000 418.809
24.76000 418.849
24.80000 425.412
24.84000 404.721
24.88000 396.392
24.92000 408.646
24.96000 403.541
25.00000 394.158
25.04000 406.635
25.08000 411.916
25.12000 418.167
25.16000 400.422
25.20000 403.601
25.24000 408.607
25.28000 401.507
25.32000 404.024
25.36000 404.884
25.40000 410.296
25.44000 409.755
25.48000 409.199
25.52000 415.257
25.56000 394.256
25.60000 412.628
25.64000 400.390
25.68000 387.111
25.72000 391.564
25.76000 389.291
25.80000 393.587
25.84000 394.592
25.88000 389.935
25.92000 388.889
25.96000 396.890
26.00000 404.285
26.04000 394.534
26.08000 403.667
26.12000 392.622
26.16000 395.407
26.20000 385.831
26.24000 370.639
26.28000 380.613
26.32000 402.957
26.36000 403.598
26.40000 376.639
26.44000 379.180
26.48000 383.914
26.52000 383.989
26.56000 355.862
26.60000 382.291
26.64000 390.265
26.68000 375.940
26.72000 397.367
26.76000 372.027
26.80000 377.702
26.84000 368.660
26.88000 379.182
26.92000 359.184
26.96000 382.709
27.00000 389.223
27.04000 384.135
27.08000 389.061
27.12000 365.774
27.16000 392.962
27.20000 372.503
27.24000 378.622
27.28000 387.963
27.32000 379.597
27.36000 374.071
27.40000 386.193
27.44000 376.117
27.48000 388.518
27.52000 379.953
27.56000 383.773
27.60000 367.828
27.64000 365.258
27.68000 371.499
27.72000 372.209
27.76000 377.531
27.80000 393.614
27.84000 376.858
27.88000 380.728
27.92000 355.269
27.96000 369.742
28.00000 375.108
28.04000 374.126
28.08000 364.866
28.12000 359.213
28.16000 360.370
28.20000 375.279
28.24000 364.970
28.28000 360.020
28.32000 383.286
28.36000 354.296
28.40000 354.785
28.44000 365.636
28.48000 364.764
28.52000 359.711
28.56000 365.610
28.60000 363.827
28.64000 357.538
28.68000 366.920
28.72000 362.801
28.76000 369.494
28.80000 366.658
28.84000 353.435
28.88000 358.133
28.92000 367.626
28.96000 373.142
29.00000 357.500
29.04000 364.553
29.08000 354.465
29.12000 364.382
29.16000 347.370
29.20000 353.032
29.24000 343.752
29.28000 367.569
29.32000 363.365
29.36000 358.334
29.40000 353.674
29.44000 355.009
29.48000 362.159
29.52000 354.604
29.56000 371.636
29.60000 375.247
29.64000 360.194
29.68000 351.765
29.72000 365.686
29.76000 383.268
29.80000 377.377
29.84000 370.212
29.88000 375.804
29.92000 380.047
29.96000 401.751
30.00000 396.992
30.04000 397.208
30.08000 428.576
30.12000 421.974
30.16000 404.577
30.20000 409.082
30.24000 410.116
30.28000 407.836
30.32000 383.646
30.36000 397.462
30.40000 366.469
30.44000 375.166
30.48000 381.117
30.52000 378.238
30.56000 384.076
30.60000 410.193
30.64000 382.991
30.68000 385.712
30.72000 392.820
30.76000 365.180
30.80000 400.174
30.84000 389.078
30.88000 393.962
30.92000 434.558
30.96000 426.869
31.00000 445.807
31.04000 474.456
31.08000 516.339
31.12000 586.304
31.16000 679.293
31.20000 851.780
31.24000 1015.812
31.28000 1306.162
31.32000 1607.270
31.36000 1878.308
31.40000 2026.759
31.44000 2177.367
31.48000 2097.414
31.52000 1909.208
31.56000 1659.407
31.60000 1373.417
31.64000 1127.515
31.68000 892.640
31.72000 764.059
31.76000 675.796
31.80000 552.869
31.84000 496.102
31.88000 457.388
31.92000 434.886
31.96000 408.527
32.00000 389.046
32.04000 391.640
32.08000 345.557
32.12000 369.220
32.16000 353.786
32.20000 345.902
32.24000 348.571
32.28000 339.929
32.32000 336.020
32.36000 335.639
32.40000 329.812
32.44000 332.946
32.48000 328.118
32.52000 328.119
32.56000 318.817
32.60000 330.795
32.64000 334.713
32.68000 314.715
32.72000 314.219
32.76000 313.389
32.80000 297.807
32.84000 312.682
32.88000 309.384
32.92000 307.985
32.96000 309.502
33.00000 324.335
33.04000 312.176
33.08000 318.496
33.12000 292.806
33.16000 297.786
33.20000 304.239
33.24000 316.453
33.28000 317.803
33.32000 318.629
33.36000 310.063
33.40000 284.748
33.44000 288.611
33.48000 289.136
33.52000 310.179
33.56000 294.911
33.60000 299.855
33.64000 297.115
33.68000 281.975
33.72000 294.362
33.76000 285.060
33.80000 281.586
33.84000 308.784
33.88000 296.313
33.92000 296.646
33.96000 300.841
34.00000 289.595
34.04000 297.422
34.08000 304.352
34.12000 320.220
34.16000 285.365
34.20000 292.841
34.24000 290.743
34.28000 283.281
34.32000 289.093
34.36000 279.079
34.40000 290.391
34.44000 278.268
34.48000 291.102
34.52000 304.214
34.56000 281.846
34.60000 296.780
34.64000 293.513
34.68000 278.238
34.72000 275.811
34.76000 281.948
34.80000 273.689
34.84000 283.199
34.88000 284.243
34.92000 275.378
34.96000 281.125
35.00000 286.957
35.04000 274.926
35.08000 272.711
35.12000 281.754
35.16000 287.878
35.20000 275.616
35.24000 271.841
35.28000 278.494
35.32000 275.858
35.36000 268.679
35.40000 273.073
35.44000 274.505
35.48000 261.434
35.52000 274.522
35.56000 270.433
35.60000 271.273
35.64000 266.420
35.68000 261.898
35.72000 260.342
35.76000 267.246
35.80000 255.855
35.84000 260.675
35.88000 266.490
35.92000 278.621
35.96000 261.165
36.00000 260.908
36.04000 276.183
36.08000 274.100
36.12000 259.548
36.16000 249.459
36.20000 258.307
36.24000 251.597
36.28000 263.806
36.32000 276.042
36.36000 257.070
36.40000 255.295
36.44000 261.784
36.48000 258.748
36.52000 269.237
36.56000 251.961
36.60000 258.012
36.64000 255.800
36.68000 252.175
36.72000 263.670
36.76000 253.374
36.80000 254.826
36.84000 262.364
36.88000 259.259
36.92000 261.818
36.96000 275.299
37.00000 271.989
37.04000 291.454
37.08000 274.649
37.12000 279.673
37.16000 272.722
37.20000 274.673
37.24000 260.705
37.28000 271.134
37.32000 261.183
37.36000 271.395
37.40000 251.136
37.44000 250.067
37.48000 259.464
37.52000 258.858
37.56000 252.740
37.60000 254.200
37.64000 261.728
37.68000 252.440
37.72000 251.078
37.76000 263.020
37.80000 256.562
37.84000 250.036
37.88000 262.745
37.92000 261.841
37.96000 261.495
38.00000 248.455
38.04000 272.113
38.08000 260.984
38.12000 251.425
38.16000 256.238
38.20000 271.237
38.24000 271.706
38.28000 273.546
38.32000 264.598
38.36000 275.172
38.40000 299.103
38.44000 308.550
38.48000 334.128
38.52000 395.850
38.56000 466.672
38.60000 536.922
38.64000 664.529
38.68000 812.307
38.72000 929.420
38.76000 977.735
38.80000 1012.492
38.84000 921.949
38.88000 832.565
38.92000 706.399
38.96000 537.313
39.00000 441.567
39.04000 374.076
39.08000 325.835
39.12000 293.503
39.16000 283.407
39.20000 276.379
39.24000 254.950
39.28000 246.609
39.32000 248.100
39.36000 241.306
39.40000 251.589
39.44000 256.234
39.48000 237.306
39.52000 229.553
39.56000 237.560
39.60000 247.326
39.64000 226.681
39.68000 243.755
39.72000 226.639
39.76000 230.215
39.80000 222.997
39.84000 243.182
39.88000 229.941
39.92000 232.071
39.96000 233.401
40.00000 240.278
40.04000 245.626
40.08000 230.297
40.12000 232.667
40.16000 226.070
40.20000 216.973
40.24000 223.548
40.28000 222.559
40.32000 213.782
40.36000 224.682
40.40000 234.923
40.44000 235.265
40.48000 220.408
40.52000 217.899
40.56000 224.516
40.60000 231.137
40.64000 218.047
40.68000 228.571
40.72000 219.611
40.76000 203.994
40.80000 237.702
40.84000 211.040
40.88000 205.656
40.92000 214.920
40.96000 226.458
41.00000 206.483
41.04000 203.967
41.08000 221.177
41.12000 198.596
41.16000 206.826
41.20000 214.007
41.24000 215.200
41.28000 220.990
41.32000 216.603
41.36000 226.786
41.40000 222.642
41.44000 212.639
41.48000 219.233
41.52000 208.107
41.56000 203.962
41.60000 220.061
41.64000 207.566
41.68000 210.512
41.72000 209.577
41.76000 207.311
41.80000 212.318
41.84000 224.433
41.88000 209.752
41.92000 220.027
41.96000 201.680
42.00000 212.377
42.04000 210.091
42.08000 211.078
42.12000 205.684
42.16000 199.201
42.20000 198.583
42.24000 205.927
42.28000 200.291
42.32000 197.384
42.36000 199.976
42.40000 202.189
42.44000 198.537
42.48000 204.197
42.52000 203.675
42.56000 206.221
42.60000 198.407
42.64000 203.777
42.68000 201.225
42.72000 210.784
42.76000 200.088
42.80000 204.669
42.84000 197.624
42.88000 199.465
42.92000 207.993
42.96000 198.524
43.00000 199.649
43.04000 194.032
43.08000 196.519
43.12000 202.029
43.16000 205.213
43.20000 198.274
43.24000 195.518
43.28000 201.985
43.32000 199.651
43.36000 197.687
43.40000 194.193
43.44000 208.990
43.48000 206.966
43.52000 192.868
43.56000 202.647
43.60000 201.110
43.64000 191.094
43.68000 201.080
43.72000 198.182
43.76000 191.904
43.80000 202.415
43.84000 197.480
43.88000 184.854
43.92000 181.619
43.96000 198.868
44.00000 204.809
44.04000 200.508
44.08000 191.861
44.12000 190.988
44.16000 193.207
44.20000 188.281
44.24000 191.335
44.28000 195.487
44.32000 203.879
44.36000 202.240
44.40000 195.755
44.44000 188.373
44.48000 201.267
44.52000 196.809
44.56000 211.974
44.60000 199.111
44.64000 200.364
44.68000 212.959
44.72000 207.029
44.76000 207.773
44.80000 211.512
44.84000 226.232
44.88000 218.158
44.92000 232.924
44.96000 234.419
45.00000 242.936
45.04000 242.216
45.08000 259.980
45.12000 272.681
45.16000 264.840
45.20000 280.314
45.24000 268.169
45.28000 275.339
45.32000 275.198
45.36000 278.372
45.40000 258.719
45.44000 247.760
45.48000 250.675
45.52000 251.938
45.56000 231.709
45.60000 235.335
45.64000 236.877
45.68000 217.515
45.72000 216.000
45.76000 219.600
45.80000 205.498
45.84000 209.951
45.88000 211.742
45.92000 197.847
45.96000 208.526
46.00000 177.706
46.04000 187.756
46.08000 187.579
46.12000 182.361
46.16000 186.391
46.20000 175.835
46.24000 182.985
46.28000 191.364
46.32000 179.537
46.36000 177.578
46.40000 176.975
46.44000 185.772
46.48000 173.684
46.52000 184.905
46.56000 176.195
46.60000 177.278
46.64000 173.482
46.68000 171.848
46.72000 173.434
46.76000 168.139
46.80000 172.089
46.84000 177.554
46.88000 164.719
46.92000 183.914
46.96000 174.818
47.00000 177.517
47.04000 164.557
47.08000 174.058
47.12000 178.560
47.16000 164.243
47.20000 173.114
47.24000 169.721
47.28000 176.887
47.32000 160.728
47.36000 172.501
47.40000 158.274
47.44000 163.038
47.48000 170.570
47.52000 165.844
47.56000 169.464
47.60000 172.367
47.64000 160.201
47.68000 162.461
47.72000 156.346
47.76000 165.442
47.80000 163.208
47.84000 167.352
47.88000 166.960
47.92000 166.656
47.96000 166.557
48.00000 168.106
48.04000 175.488
48.08000 154.548
48.12000 172.057
48.16000 163.037
48.20000 171.458
48.24000 168.053
48.28000 161.990
48.32000 165.656
48.36000 161.893
48.40000 152.810
48.44000 162.277
48.48000 160.191
48.52000 156.018
48.56000 163.116
48.60000 169.113
48.64000 164.004
48.68000 150.805
48.72000 160.471
48.76000 157.353
48.80000 155.440
48.84000 158.065
48.88000 162.908
48.92000 159.794
48.96000 160.310
49.00000 155.054
49.04000 157.978
49.08000 156.679
49.12000 160.930
49.16000 158.870
49.20000 150.324
49.24000 165.011
49.28000 156.451
49.32000 148.598
49.36000 162.411
49.40000 152.006
49.44000 150.426
49.48000 157.442
49.52000 171.292
49.56000 162.037
49.60000 160.203
49.64000 158.581
49.68000 158.838
49.72000 154.896
49.76000 159.717
49.80000 157.889
49.84000 151.338
49.88000 150.591
49.92000 152.343
49.96000 154.167
50.00000 152.232
50.04000 154.630
50.08000 161.913
50.12000 154.601
50.16000 156.031
50.20000 165.101
50.24000 159.601
50.28000 161.578
50.32000 165.630
50.36000 162.835
50.40000 154.077
50.44000 160.993
50.48000 164.390
50.52000 176.242
50.56000 174.398
50.60000 180.272
50.64000 199.365
50.68000 199.127
50.72000 200.997
50.76000 209.200
50.80000 217.348
50.84000 209.590
50.88000 206.540
50.92000 204.104
50.96000 200.599
51.00000 187.155
51.04000 179.483
51.08000 163.539
51.12000 169.619
51.16000 161.499
51.20000 160.550
51.24000 158.541
51.28000 168.415
51.32000 155.578
51.36000 155.865
51.40000 156.484
51.44000 151.214
51.48000 146.800
51.52000 150.118
51.56000 152.173
51.60000 145.412
51.64000 153.921
51.68000 147.779
51.72000 150.547
51.76000 155.982
51.80000 142.722
51.84000 133.879
51.88000 150.990
51.92000 138.470
51.96000 132.095
52.00000 132.985
52.04000 144.454
52.08000 144.534
52.12000 136.331
52.16000 145.422
52.20000 148.754
52.24000 130.906
52.28000 144.182
52.32000 142.521
52.36000 145.131
52.40000 136.778
52.44000 134.332
52.48000 133.340
52.52000 133.344
52.56000 147.263
52.60000 142.412
52.64000 138.580
52.68000 142.591
52.72000 144.412
52.76000 135.542
52.80000 141.575
52.84000 146.219
52.88000 137.945
52.92000 139.021
52.96000 144.581
53.00000 137.808
53.04000 145.498
53.08000 151.278
53.12000 140.341
53.16000 153.421
53.20000 146.280
53.24000 143.128
53.28000 143.309
53.32000 140.748
53.36000 148.868
53.40000 143.978
53.44000 147.467
53.48000 167.447
53.52000 157.466
53.56000 147.955
53.60000 140.627
53.64000 141.459
53.68000 145.313
53.72000 140.108
53.76000 145.538
53.80000 143.459
53.84000 141.263
53.88000 139.901
53.92000 139.431
53.96000 134.515
54.00000 138.940
54.04000 137.867
54.08000 141.739
54.12000 142.135
54.16000 140.659
54.20000 132.536
54.24000 139.838
54.28000 134.266
54.32000 143.776
54.36000 143.823
54.40000 136.798
54.44000 141.711
54.48000 139.680
54.52000 131.835
54.56000 133.883
54.60000 146.293
54.64000 129.830
54.68000 131.803
54.72000 151.865
54.76000 130.213
54.80000 142.776
54.84000 135.809
54.88000 143.072
54.92000 151.003
54.96000 134.525
55.00000 134.788
55.04000 126.510
55.08000 135.341
55.12000 139.977
55.16000 142.646
55.20000 146.731
55.24000 139.948
55.28000 144.072
55.32000 152.133
55.36000 144.252
55.40000 147.364
55.44000 157.883
55.48000 154.430
55.52000 169.772
55.56000 163.445
55.60000 171.461
55.64000 186.045
55.68000 210.596
55.72000 222.337
55.76000 266.403
55.80000 283.385
55.84000 348.134
55.88000 407.438
55.92000 468.924
55.96000 554.479
56.00000 568.111
56.04000 575.789
56.08000 607.327
56.12000 560.582
56.16000 503.256
56.20000 452.961
56.24000 412.053
56.28000 358.751
56.32000 305.720
56.36000 262.073
56.40000 243.168
56.44000 214.227
56.48000 187.527
56.52000 177.566
56.56000 175.526
56.60000 161.728
56.64000 162.831
56.68000 163.435
56.72000 140.080
56.76000 142.915
56.80000 148.325
56.84000 142.855
56.88000 144.701
56.92000 133.530
56.96000 130.592
57.00000 127.769
57.04000 140.573
57.08000 122.918
57.12000 123.958
57.16000 127.942
57.20000 125.863
57.24000 127.864
57.28000 127.269
57.32000 132.857
57.36000 125.750
57.40000 124.834
57.44000 122.468
57.48000 130.163
57.52000 124.660
57.56000 125.513
57.60000 120.833
57.64000 117.609
57.68000 118.774
57.72000 119.823
57.76000 127.853
57.80000 143.519
57.84000 119.684
57.88000 120.835
57.92000 115.594
57.96000 116.735
58.00000 121.695
58.04000 132.894
58.08000 125.272
58.12000 125.819
58.16000 133.071
58.20000 125.649
58.24000 128.906
58.28000 128.086
58.32000 126.412
58.36000 123.930
58.40000 119.904
58.44000 117.160
58.48000 118.199
58.52000 112.492
58.56000 128.593
58.60000 119.153
58.64000 121.992
58.68000 125.969
58.72000 119.137
58.76000 111.239
58.80000 118.375
58.84000 119.656
58.88000 114.291
58.92000 118.681
58.96000 122.732
59.00000 124.132
59.04000 124.834
59.08000 125.412
59.12000 127.296
59.16000 117.997
59.20000 123.054
59.24000 126.867
59.28000 119.720
59.32000 118.834
59.36000 119.459
59.40000 123.506
59.44000 105.415
59.48000 120.099
59.52000 111.829
59.56000 118.393
59.60000 125.252
59.64000 122.149
59.68000 120.448
59.72000 126.687
59.76000 119.602
59.80000 118.615
59.84000 119.635
59.88000 118.070
59.92000 114.374
59.96000 114.640
60.00000 114.944
60.04000 119.192
60.08000 125.719
60.12000 118.375
60.16000 115.594
60.20000 119.840
60.24000 113.131
60.28000 117.883
60.32000 124.355
60.36000 119.986
60.40000 121.639
60.44000 113.493
60.48000 124.870
60.52000 114.670
60.56000 113.206
60.60000 118.991
60.64000 120.154
60.68000 118.633
60.72000 122.454
60.76000 118.641
60.80000 117.639
60.84000 112.408
60.88000 111.443
60.92000 115.405
60.96000 118.329
61.00000 118.163
61.04000 118.377
61.08000 132.522
61.12000 126.028
61.16000 122.813
61.20000 130.029
61.24000 114.522
61.28000 124.899
61.32000 120.335
61.36000 123.528
61.40000 125.915
61.44000 130.466
61.48000 147.944
61.52000 168.695
61.56000 222.083
61.60000 257.607
61.64000 298.112
61.68000 300.351
61.72000 322.138
61.76000 270.714
61.80000 228.598
61.84000 172.411
61.88000 139.260
61.92000 143.043
61.96000 139.254
62.00000 137.930
62.04000 134.229
62.08000 134.892
62.12000 131.423
62.16000 128.403
62.20000 136.528
62.24000 127.130
62.28000 120.724
62.32000 120.668
62.36000 126.903
62.40000 127.343
62.44000 129.991
62.48000 123.756
62.52000 116.232
62.56000 129.770
62.60000 134.982
62.64000 125.485
62.68000 124.623
62.72000 136.540
62.76000 142.065
62.80000 130.908
62.84000 129.284
62.88000 129.826
62.92000 129.277
62.96000 137.412
63.00000 134.320
63.04000 144.416
63.08000 134.864
63.12000 137.045
63.16000 141.140
63.20000 144.546
63.24000 132.209
63.28000 147.005
63.32000 132.886
63.36000 138.100
63.40000 137.994
63.44000 137.541
63.48000 139.033
63.52000 135.138
63.56000 134.643
63.60000 138.941
63.64000 129.085
63.68000 146.279
63.72000 147.537
63.76000 131.549
63.80000 139.806
63.84000 143.059
63.88000 154.560
63.92000 141.151
63.96000 147.511
64.00000 147.515
64.04000 145.184
64.08000 143.772
64.12000 147.791
64.16000 145.655
64.20000 152.343
64.24000 166.919
64.28000 151.150
64.32000 164.528
64.36000 160.398
64.40000 160.419
64.44000 160.787
64.48000 152.989
64.52000 154.720
64.56000 157.741
64.60000 160.323
64.64000 165.260
64.68000 184.903
64.72000 168.448
64.76000 178.417
64.80000 167.629
64.84000 182.130
64.88000 184.760
64.92000 186.000
64.96000 196.543
65.00000 185.734
65.04000 192.236
65.08000 191.930
65.12000 190.229
65.16000 213.483
65.20000 213.478
65.24000 221.517
65.28000 232.326
65.32000 239.860
65.36000 251.185
65.40000 276.116
65.44000 296.409
65.48000 314.590
65.52000 331.803
65.56000 377.420
65.60000 442.352
65.64000 500.275
65.68000 714.392
65.72000 1068.365
65.76000 1576.365
65.80000 1965.003
65.84000 2131.137
65.88000 2145.024
65.92000 2008.455
65.96000 1621.648
66.00000 1079.033
66.04000 703.708
66.08000 514.197
66.12000 446.863
66.16000 402.110
66.20000 401.734
66.24000 418.729
66.28000 496.987
66.32000 601.709
66.36000 655.221
66.40000 681.613
66.44000 656.397
66.48000 639.662
66.52000 562.701
66.56000 478.621
66.60000 407.614
66.64000 380.232
66.68000 368.501
66.72000 364.710
66.76000 370.733
66.80000 372.885
66.84000 373.882
66.88000 363.406
66.92000 384.301
66.96000 386.595
67.00000 375.674
67.04000 388.960
67.08000 392.443
67.12000 420.638
67.16000 424.790
67.20000 381.089
67.24000 422.119
67.28000 419.683
67.32000 419.759
67.36000 430.993
67.40000 436.116
67.44000 430.499
67.48000 455.007
67.52000 458.630
67.56000 460.734
67.60000 486.246
67.64000 470.885
67.68000 475.057
67.72000 481.122
67.76000 470.786
67.80000 475.469
67.84000 492.528
67.88000 509.102
67.92000 504.933
67.96000 532.920
68.00000 523.840
68.04000 546.265
68.08000 552.897
68.12000 550.234
68.16000 558.244
68.20000 581.706
68.24000 612.084
68.28000 624.456
68.32000 617.692
68.36000 640.012
68.40000 660.747
68.44000 677.058
68.48000 709.307
68.52000 767.033
68.56000 828.651
68.60000 916.928
68.64000 1094.820
68.68000 1266.085
68.72000 1455.378
68.76000 1583.389
68.80000 1878.978
68.84000 2160.326
68.88000 2814.500
68.92000 4696.691
68.96000 11507.115
69.00000 25742.930
69.04000 40076.594
69.08000 47042.383
69.12000 49992.910
69.16000 53361.461
69.20000 51761.793
69.24000 41330.504
69.28000 30789.117
69.32000 25631.725
69.36000 23877.705
69.40000 19480.254
69.44000 11570.042
69.48000 5009.181
69.52000 2417.924
69.56000 1525.172
69.60000 1184.693
69.64000 1028.289
69.68000 874.911
69.72000 807.765
69.76000 727.460
69.80000 667.918
69.84000 643.294
69.88000 600.955
69.92000 574.695
69.96000 542.380
70.00000 533.666