File: XRD/XRD/09-10-2025 Dep 8/XY Data/BTO_Mapping_Theta2Theta_09-10-2025_001_51_6-180_-19-021.xy
20.00000 496.528
20.04000 486.367
20.08000 474.424
20.12000 478.612
20.16000 493.928
20.20000 491.431
20.24000 484.574
20.28000 492.782
20.32000 480.625
20.36000 475.304
20.40000 483.518
20.44000 473.153
20.48000 480.408
20.52000 475.437
20.56000 483.031
20.60000 488.742
20.64000 495.814
20.68000 485.740
20.72000 469.179
20.76000 467.106
20.80000 486.906
20.84000 482.259
20.88000 483.028
20.92000 487.204
20.96000 477.649
21.00000 488.091
21.04000 469.667
21.08000 488.773
21.12000 488.626
21.16000 491.673
21.20000 484.264
21.24000 481.178
21.28000 481.578
21.32000 485.176
21.36000 478.905
21.40000 472.975
21.44000 482.698
21.48000 486.606
21.52000 486.600
21.56000 508.235
21.60000 486.198
21.64000 470.595
21.68000 487.838
21.72000 507.137
21.76000 503.528
21.80000 520.391
21.84000 527.504
21.88000 544.367
21.92000 552.815
21.96000 554.127
22.00000 586.925
22.04000 650.899
22.08000 648.408
22.12000 659.274
22.16000 640.429
22.20000 617.399
22.24000 617.425
22.28000 556.581
22.32000 569.400
22.36000 554.783
22.40000 514.469
22.44000 498.229
22.48000 491.808
22.52000 484.981
22.56000 484.406
22.60000 469.442
22.64000 460.821
22.68000 455.893
22.72000 459.898
22.76000 457.002
22.80000 443.406
22.84000 457.575
22.88000 459.069
22.92000 444.333
22.96000 453.187
23.00000 454.685
23.04000 428.017
23.08000 448.532
23.12000 432.359
23.16000 441.574
23.20000 452.366
23.24000 431.596
23.28000 456.114
23.32000 454.649
23.36000 444.339
23.40000 427.121
23.44000 427.495
23.48000 448.860
23.52000 448.905
23.56000 429.104
23.60000 429.413
23.64000 457.353
23.68000 444.498
23.72000 423.968
23.76000 441.132
23.80000 430.555
23.84000 452.238
23.88000 424.418
23.92000 433.911
23.96000 425.847
24.00000 412.437
24.04000 420.341
24.08000 431.487
24.12000 429.733
24.16000 429.538
24.20000 431.128
24.24000 415.474
24.28000 429.542
24.32000 416.431
24.36000 428.952
24.40000 417.657
24.44000 425.124
24.48000 425.494
24.52000 419.801
24.56000 429.875
24.60000 438.538
24.64000 423.275
24.68000 415.503
24.72000 415.166
24.76000 417.229
24.80000 404.906
24.84000 409.537
24.88000 432.636
24.92000 408.440
24.96000 417.056
25.00000 401.944
25.04000 411.315
25.08000 414.512
25.12000 417.759
25.16000 403.066
25.20000 423.116
25.24000 413.909
25.28000 409.450
25.32000 397.614
25.36000 418.809
25.40000 420.218
25.44000 391.246
25.48000 390.058
25.52000 396.670
25.56000 414.015
25.60000 407.079
25.64000 409.291
25.68000 405.362
25.72000 410.712
25.76000 402.010
25.80000 413.572
25.84000 389.485
25.88000 405.072
25.92000 397.129
25.96000 390.789
26.00000 396.084
26.04000 387.694
26.08000 377.002
26.12000 392.798
26.16000 398.952
26.20000 404.614
26.24000 400.831
26.28000 393.382
26.32000 384.758
26.36000 390.402
26.40000 398.195
26.44000 396.541
26.48000 381.916
26.52000 397.413
26.56000 378.425
26.60000 387.587
26.64000 399.498
26.68000 368.070
26.72000 383.681
26.76000 395.483
26.80000 390.271
26.84000 396.841
26.88000 384.270
26.92000 388.071
26.96000 378.562
27.00000 385.839
27.04000 381.885
27.08000 370.950
27.12000 384.351
27.16000 383.053
27.20000 379.676
27.24000 384.164
27.28000 382.141
27.32000 376.598
27.36000 376.508
27.40000 374.194
27.44000 379.805
27.48000 381.564
27.52000 382.052
27.56000 375.231
27.60000 387.111
27.64000 398.227
27.68000 356.524
27.72000 371.845
27.76000 395.448
27.80000 390.957
27.84000 379.578
27.88000 389.831
27.92000 373.298
27.96000 366.292
28.00000 366.973
28.04000 370.094
28.08000 375.204
28.12000 382.618
28.16000 379.619
28.20000 384.486
28.24000 391.820
28.28000 393.062
28.32000 369.769
28.36000 367.340
28.40000 381.587
28.44000 379.896
28.48000 367.331
28.52000 387.376
28.56000 374.836
28.60000 382.608
28.64000 366.885
28.68000 369.171
28.72000 369.396
28.76000 358.724
28.80000 359.491
28.84000 361.483
28.88000 377.100
28.92000 378.801
28.96000 356.242
29.00000 368.968
29.04000 361.925
29.08000 361.627
29.12000 352.337
29.16000 387.384
29.20000 370.413
29.24000 363.572
29.28000 358.001
29.32000 367.349
29.36000 366.792
29.40000 366.350
29.44000 383.491
29.48000 358.542
29.52000 374.287
29.56000 362.157
29.60000 366.992
29.64000 358.184
29.68000 365.999
29.72000 370.284
29.76000 381.175
29.80000 392.703
29.84000 409.482
29.88000 399.789
29.92000 431.477
29.96000 441.613
30.00000 461.452
30.04000 474.036
30.08000 486.602
30.12000 458.736
30.16000 434.355
30.20000 473.135
30.24000 424.685
30.28000 420.849
30.32000 401.857
30.36000 407.371
30.40000 411.479
30.44000 417.737
30.48000 394.022
30.52000 415.445
30.56000 406.207
30.60000 411.559
30.64000 406.121
30.68000 401.622
30.72000 413.336
30.76000 432.447
30.80000 428.671
30.84000 427.665
30.88000 465.860
30.92000 481.168
30.96000 517.304
31.00000 550.825
31.04000 609.128
31.08000 687.984
31.12000 813.534
31.16000 1054.056
31.20000 1369.387
31.24000 1725.179
31.28000 2251.705
31.32000 2691.447
31.36000 3023.705
31.40000 3146.755
31.44000 3135.495
31.48000 2831.349
31.52000 2407.544
31.56000 1993.421
31.60000 1541.106
31.64000 1212.379
31.68000 967.568
31.72000 789.832
31.76000 673.675
31.80000 576.828
31.84000 507.955
31.88000 464.555
31.92000 448.468
31.96000 414.041
32.00000 398.133
32.04000 392.548
32.08000 374.913
32.12000 372.740
32.16000 367.166
32.20000 356.662
32.24000 335.858
32.28000 363.813
32.32000 355.303
32.36000 337.799
32.40000 348.086
32.44000 348.256
32.48000 336.328
32.52000 338.124
32.56000 344.868
32.60000 340.929
32.64000 335.602
32.68000 324.525
32.72000 329.830
32.76000 322.991
32.80000 338.979
32.84000 324.356
32.88000 325.598
32.92000 321.922
32.96000 322.935
33.00000 313.947
33.04000 311.723
33.08000 321.662
33.12000 320.911
33.16000 313.697
33.20000 309.341
33.24000 318.125
33.28000 314.504
33.32000 305.454
33.36000 297.656
33.40000 296.373
33.44000 304.332
33.48000 297.184
33.52000 290.592
33.56000 286.061
33.60000 301.115
33.64000 286.151
33.68000 290.031
33.72000 300.464
33.76000 314.048
33.80000 298.930
33.84000 299.119
33.88000 280.236
33.92000 293.288
33.96000 300.167
34.00000 288.254
34.04000 278.329
34.08000 295.753
34.12000 282.239
34.16000 294.208
34.20000 297.150
34.24000 294.005
34.28000 277.830
34.32000 291.005
34.36000 294.616
34.40000 294.913
34.44000 296.096
34.48000 284.748
34.52000 279.524
34.56000 296.158
34.60000 288.909
34.64000 284.056
34.68000 283.641
34.72000 278.844
34.76000 286.130
34.80000 284.850
34.84000 283.640
34.88000 283.402
34.92000 284.187
34.96000 290.572
35.00000 285.482
35.04000 275.844
35.08000 268.402
35.12000 276.988
35.16000 278.551
35.20000 277.365
35.24000 274.931
35.28000 284.181
35.32000 279.436
35.36000 275.566
35.40000 290.257
35.44000 268.688
35.48000 262.675
35.52000 271.068
35.56000 253.230
35.60000 275.828
35.64000 269.746
35.68000 271.970
35.72000 272.160
35.76000 262.185
35.80000 274.623
35.84000 273.205
35.88000 265.684
35.92000 262.956
35.96000 270.796
36.00000 281.892
36.04000 262.021
36.08000 263.052
36.12000 260.071
36.16000 259.165
36.20000 256.663
36.24000 253.165
36.28000 249.463
36.32000 268.968
36.36000 262.354
36.40000 256.702
36.44000 270.371
36.48000 268.270
36.52000 265.304
36.56000 272.657
36.60000 269.008
36.64000 256.001
36.68000 242.077
36.72000 253.997
36.76000 262.956
36.80000 274.512
36.84000 267.542
36.88000 270.690
36.92000 295.051
36.96000 294.081
37.00000 292.657
37.04000 283.880
37.08000 280.147
37.12000 285.965
37.16000 295.222
37.20000 278.946
37.24000 279.635
37.28000 278.147
37.32000 267.386
37.36000 284.801
37.40000 264.057
37.44000 249.370
37.48000 270.345
37.52000 258.393
37.56000 250.300
37.60000 256.280
37.64000 260.821
37.68000 254.031
37.72000 263.396
37.76000 266.060
37.80000 270.252
37.84000 262.915
37.88000 279.693
37.92000 266.668
37.96000 263.322
38.00000 262.725
38.04000 269.974
38.08000 268.717
38.12000 261.819
38.16000 272.357
38.20000 283.222
38.24000 295.422
38.28000 304.182
38.32000 304.088
38.36000 323.910
38.40000 357.152
38.44000 389.835
38.48000 431.517
38.52000 539.460
38.56000 647.932
38.60000 778.054
38.64000 941.050
38.68000 1025.991
38.72000 1128.902
38.76000 1086.312
38.80000 1048.373
38.84000 886.422
38.88000 755.274
38.92000 587.777
38.96000 500.355
39.00000 413.771
39.04000 342.678
39.08000 330.343
39.12000 313.182
39.16000 288.356
39.20000 273.172
39.24000 255.656
39.28000 272.719
39.32000 257.754
39.36000 258.530
39.40000 243.048
39.44000 243.258
39.48000 255.443
39.52000 244.944
39.56000 244.636
39.60000 251.955
39.64000 253.285
39.68000 237.780
39.72000 235.811
39.76000 250.479
39.80000 233.612
39.84000 232.272
39.88000 236.620
39.92000 229.731
39.96000 237.650
40.00000 227.397
40.04000 240.458
40.08000 233.911
40.12000 223.533
40.16000 224.458
40.20000 240.495
40.24000 239.831
40.28000 234.929
40.32000 226.535
40.36000 222.429
40.40000 222.967
40.44000 234.807
40.48000 234.766
40.52000 228.123
40.56000 222.759
40.60000 232.597
40.64000 220.912
40.68000 208.658
40.72000 209.574
40.76000 224.072
40.80000 217.720
40.84000 214.762
40.88000 218.534
40.92000 229.081
40.96000 209.957
41.00000 212.349
41.04000 205.145
41.08000 221.693
41.12000 220.507
41.16000 220.209
41.20000 223.486
41.24000 201.278
41.28000 212.753
41.32000 210.186
41.36000 219.088
41.40000 204.154
41.44000 215.894
41.48000 212.163
41.52000 208.951
41.56000 216.843
41.60000 211.336
41.64000 196.666
41.68000 208.080
41.72000 214.250
41.76000 215.234
41.80000 210.730
41.84000 214.833
41.88000 212.559
41.92000 213.756
41.96000 209.238
42.00000 198.128
42.04000 205.918
42.08000 200.727
42.12000 202.829
42.16000 211.466
42.20000 214.636
42.24000 216.390
42.28000 205.508
42.32000 205.049
42.36000 213.861
42.40000 210.434
42.44000 206.789
42.48000 207.919
42.52000 216.945
42.56000 189.128
42.60000 202.224
42.64000 206.273
42.68000 198.999
42.72000 198.154
42.76000 197.379
42.80000 203.016
42.84000 205.575
42.88000 213.289
42.92000 198.805
42.96000 220.043
43.00000 210.393
43.04000 203.701
43.08000 200.658
43.12000 200.782
43.16000 196.358
43.20000 197.816
43.24000 201.322
43.28000 214.672
43.32000 200.272
43.36000 209.807
43.40000 189.909
43.44000 200.570
43.48000 207.527
43.52000 189.083
43.56000 192.921
43.60000 189.366
43.64000 197.112
43.68000 196.341
43.72000 191.430
43.76000 182.982
43.80000 192.719
43.84000 196.799
43.88000 191.986
43.92000 207.444
43.96000 200.205
44.00000 205.639
44.04000 212.737
44.08000 201.445
44.12000 189.891
44.16000 195.047
44.20000 201.014
44.24000 205.862
44.28000 187.900
44.32000 196.930
44.36000 211.803
44.40000 208.243
44.44000 200.095
44.48000 203.247
44.52000 219.429
44.56000 207.614
44.60000 198.082
44.64000 206.241
44.68000 211.988
44.72000 208.923
44.76000 225.628
44.80000 223.992
44.84000 246.816
44.88000 259.505
44.92000 280.269
44.96000 282.326
45.00000 288.643
45.04000 319.084
45.08000 326.135
45.12000 333.656
45.16000 331.721
45.20000 331.976
45.24000 328.531
45.28000 307.879
45.32000 317.225
45.36000 287.030
45.40000 275.834
45.44000 278.269
45.48000 261.767
45.52000 244.116
45.56000 240.259
45.60000 234.642
45.64000 228.206
45.68000 227.640
45.72000 212.229
45.76000 206.274
45.80000 210.879
45.84000 204.412
45.88000 202.938
45.92000 187.681
45.96000 207.362
46.00000 193.699
46.04000 189.084
46.08000 187.536
46.12000 187.925
46.16000 190.635
46.20000 179.365
46.24000 175.270
46.28000 191.751
46.32000 177.099
46.36000 181.511
46.40000 168.482
46.44000 184.206
46.48000 173.880
46.52000 184.973
46.56000 171.375
46.60000 167.067
46.64000 177.028
46.68000 174.625
46.72000 172.853
46.76000 176.712
46.80000 164.435
46.84000 174.471
46.88000 174.418
46.92000 172.198
46.96000 180.672
47.00000 166.907
47.04000 176.596
47.08000 165.081
47.12000 177.131
47.16000 176.859
47.20000 163.457
47.24000 176.072
47.28000 167.572
47.32000 159.507
47.36000 169.998
47.40000 156.982
47.44000 171.231
47.48000 165.291
47.52000 168.449
47.56000 160.790
47.60000 159.170
47.64000 160.242
47.68000 166.941
47.72000 164.189
47.76000 170.685
47.80000 163.702
47.84000 170.323
47.88000 167.488
47.92000 171.877
47.96000 168.958
48.00000 155.089
48.04000 157.624
48.08000 173.768
48.12000 163.568
48.16000 171.916
48.20000 166.711
48.24000 158.382
48.28000 161.370
48.32000 164.503
48.36000 164.873
48.40000 156.776
48.44000 159.262
48.48000 163.215
48.52000 163.767
48.56000 163.358
48.60000 154.888
48.64000 168.100
48.68000 159.080
48.72000 158.371
48.76000 158.815
48.80000 164.002
48.84000 159.315
48.88000 154.415
48.92000 159.762
48.96000 166.528
49.00000 152.753
49.04000 164.292
49.08000 163.103
49.12000 162.673
49.16000 156.685
49.20000 159.691
49.24000 158.378
49.28000 156.391
49.32000 155.073
49.36000 151.846
49.40000 138.111
49.44000 156.067
49.48000 162.029
49.52000 172.386
49.56000 160.371
49.60000 160.528
49.64000 162.251
49.68000 153.839
49.72000 156.444
49.76000 150.501
49.80000 155.948
49.84000 161.041
49.88000 159.295
49.92000 149.757
49.96000 158.666
50.00000 153.742
50.04000 154.691
50.08000 156.477
50.12000 166.579
50.16000 150.633
50.20000 164.259
50.24000 144.015
50.28000 157.868
50.32000 157.567
50.36000 160.006
50.40000 179.919
50.44000 180.030
50.48000 171.677
50.52000 184.980
50.56000 191.844
50.60000 204.786
50.64000 217.908
50.68000 236.778
50.72000 235.098
50.76000 238.006
50.80000 239.845
50.84000 233.034
50.88000 218.279
50.92000 212.095
50.96000 202.923
51.00000 205.686
51.04000 193.487
51.08000 179.768
51.12000 174.884
51.16000 163.797
51.20000 161.595
51.24000 165.862
51.28000 162.622
51.32000 156.004
51.36000 155.270
51.40000 142.768
51.44000 156.230
51.48000 145.632
51.52000 158.817
51.56000 159.657
51.60000 152.354
51.64000 152.702
51.68000 152.842
51.72000 147.880
51.76000 145.572
51.80000 152.341
51.84000 142.686
51.88000 144.194
51.92000 151.315
51.96000 150.121
52.00000 146.725
52.04000 143.966
52.08000 146.253
52.12000 151.152
52.16000 144.357
52.20000 140.946
52.24000 142.987
52.28000 144.082
52.32000 147.133
52.36000 140.721
52.40000 141.729
52.44000 137.626
52.48000 136.290
52.52000 139.612
52.56000 148.323
52.60000 148.878
52.64000 148.481
52.68000 144.908
52.72000 135.793
52.76000 140.415
52.80000 146.691
52.84000 145.198
52.88000 132.412
52.92000 139.101
52.96000 131.665
53.00000 140.852
53.04000 153.147
53.08000 155.154
53.12000 151.477
53.16000 136.894
53.20000 141.875
53.24000 136.891
53.28000 147.366
53.32000 154.883
53.36000 140.350
53.40000 154.757
53.44000 154.049
53.48000 151.457
53.52000 149.431
53.56000 154.272
53.60000 138.852
53.64000 150.995
53.68000 147.470
53.72000 143.776
53.76000 155.525
53.80000 140.741
53.84000 140.745
53.88000 138.510
53.92000 144.674
53.96000 139.427
54.00000 139.150
54.04000 141.162
54.08000 135.420
54.12000 151.402
54.16000 139.523
54.20000 140.875
54.24000 147.569
54.28000 137.129
54.32000 143.908
54.36000 132.395
54.40000 131.304
54.44000 138.222
54.48000 140.650
54.52000 140.121
54.56000 145.230
54.60000 128.616
54.64000 142.578
54.68000 137.986
54.72000 141.842
54.76000 131.086
54.80000 142.102
54.84000 143.862
54.88000 135.702
54.92000 136.889
54.96000 137.202
55.00000 127.920
55.04000 137.013
55.08000 142.859
55.12000 153.327
55.16000 154.856
55.20000 139.143
55.24000 149.413
55.28000 162.224
55.32000 146.708
55.36000 163.372
55.40000 153.522
55.44000 162.974
55.48000 170.846
55.52000 176.536
55.56000 178.042
55.60000 210.864
55.64000 213.900
55.68000 248.154
55.72000 273.641
55.76000 328.288
55.80000 381.222
55.84000 425.294
55.88000 493.436
55.92000 535.233
55.96000 550.649
56.00000 573.147
56.04000 548.927
56.08000 525.757
56.12000 473.674
56.16000 417.064
56.20000 366.724
56.24000 324.946
56.28000 286.607
56.32000 253.359
56.36000 237.689
56.40000 204.092
56.44000 209.431
56.48000 186.943
56.52000 190.530
56.56000 168.293
56.60000 160.098
56.64000 161.433
56.68000 154.252
56.72000 148.045
56.76000 154.413
56.80000 160.357
56.84000 147.189
56.88000 135.179
56.92000 146.938
56.96000 155.380
57.00000 148.661
57.04000 136.521
57.08000 142.118
57.12000 124.985
57.16000 127.905
57.20000 150.418
57.24000 140.996
57.28000 128.217
57.32000 133.616
57.36000 119.476
57.40000 132.707
57.44000 120.831
57.48000 130.433
57.52000 127.080
57.56000 135.974
57.60000 127.231
57.64000 119.166
57.68000 132.954
57.72000 118.137
57.76000 125.775
57.80000 133.534
57.84000 129.104
57.88000 127.337
57.92000 128.483
57.96000 133.149
58.00000 124.539
58.04000 124.266
58.08000 116.724
58.12000 124.705
58.16000 131.348
58.20000 125.566
58.24000 122.490
58.28000 124.419
58.32000 125.683
58.36000 120.616
58.40000 124.034
58.44000 123.772
58.48000 126.330
58.52000 127.397
58.56000 123.397
58.60000 118.893
58.64000 116.929
58.68000 125.213
58.72000 123.825
58.76000 115.045
58.80000 114.825
58.84000 119.589
58.88000 128.035
58.92000 120.969
58.96000 120.457
59.00000 113.763
59.04000 119.285
59.08000 116.159
59.12000 117.141
59.16000 127.118
59.20000 120.141
59.24000 112.252
59.28000 125.169
59.32000 124.418
59.36000 118.067
59.40000 127.413
59.44000 116.446
59.48000 113.461
59.52000 117.872
59.56000 121.691
59.60000 114.747
59.64000 118.274
59.68000 124.212
59.72000 113.184
59.76000 118.820
59.80000 121.683
59.84000 114.085
59.88000 108.715
59.92000 122.325
59.96000 120.059
60.00000 108.898
60.04000 115.226
60.08000 114.186
60.12000 112.647
60.16000 123.167
60.20000 118.129
60.24000 115.899
60.28000 121.791
60.32000 121.223
60.36000 118.158
60.40000 119.790
60.44000 118.461
60.48000 118.256
60.52000 115.605
60.56000 124.332
60.60000 119.562
60.64000 112.192
60.68000 114.129
60.72000 120.390
60.76000 119.375
60.80000 123.027
60.84000 122.753
60.88000 117.049
60.92000 107.891
60.96000 121.685
61.00000 120.564
61.04000 122.164
61.08000 120.397
61.12000 117.247
61.16000 123.241
61.20000 124.159
61.24000 120.824
61.28000 116.263
61.32000 123.657
61.36000 123.115
61.40000 118.946
61.44000 129.373
61.48000 146.059
61.52000 174.942
61.56000 237.353
61.60000 293.447
61.64000 335.036
61.68000 358.920
61.72000 358.377
61.76000 334.767
61.80000 253.033
61.84000 190.191
61.88000 154.443
61.92000 140.173
61.96000 142.413
62.00000 126.143
62.04000 127.398
62.08000 129.843
62.12000 139.984
62.16000 126.887
62.20000 134.627
62.24000 134.110
62.28000 133.215
62.32000 133.428
62.36000 137.725
62.40000 132.754
62.44000 139.201
62.48000 135.246
62.52000 150.515
62.56000 139.316
62.60000 138.347
62.64000 134.009
62.68000 132.862
62.72000 146.800
62.76000 135.677
62.80000 134.400
62.84000 147.176
62.88000 136.320
62.92000 127.384
62.96000 135.941
63.00000 148.626
63.04000 141.825
63.08000 140.000
63.12000 153.126
63.16000 139.778
63.20000 135.675
63.24000 134.429
63.28000 135.409
63.32000 132.625
63.36000 143.436
63.40000 137.438
63.44000 139.809
63.48000 144.001
63.52000 151.802
63.56000 138.742
63.60000 137.384
63.64000 142.077
63.68000 143.496
63.72000 138.809
63.76000 145.489
63.80000 140.286
63.84000 139.870
63.88000 144.695
63.92000 147.129
63.96000 147.878
64.00000 149.487
64.04000 161.816
64.08000 155.375
64.12000 147.519
64.16000 146.044
64.20000 145.269
64.24000 149.585
64.28000 155.305
64.32000 157.515
64.36000 164.453
64.40000 161.997
64.44000 164.364
64.48000 161.120
64.52000 170.682
64.56000 172.525
64.60000 155.389
64.64000 187.614
64.68000 171.274
64.72000 188.300
64.76000 178.620
64.80000 182.442
64.84000 189.121
64.88000 196.282
64.92000 193.836
64.96000 196.603
65.00000 205.179
65.04000 205.048
65.08000 210.289
65.12000 218.170
65.16000 232.379
65.20000 238.738
65.24000 262.765
65.28000 281.710
65.32000 309.759
65.36000 312.398
65.40000 361.806
65.44000 375.782
65.48000 407.840
65.52000 467.442
65.56000 499.233
65.60000 562.189
65.64000 632.654
65.68000 881.038
65.72000 1317.723
65.76000 1973.941
65.80000 2451.935
65.84000 2709.948
65.88000 2653.705
65.92000 2500.603
65.96000 2010.573
66.00000 1285.471
66.04000 799.613
66.08000 581.827
66.12000 486.116
66.16000 446.977
66.20000 455.021
66.24000 495.395
66.28000 573.958
66.32000 674.440
66.36000 743.689
66.40000 791.274
66.44000 812.214
66.48000 743.137
66.52000 649.939
66.56000 540.604
66.60000 460.574
66.64000 416.837
66.68000 421.330
66.72000 400.225
66.76000 391.122
66.80000 410.252
66.84000 415.352
66.88000 411.574
66.92000 417.717
66.96000 426.359
67.00000 439.571
67.04000 434.370
67.08000 424.162
67.12000 456.038
67.16000 432.417
67.20000 450.643
67.24000 449.192
67.28000 454.591
67.32000 442.999
67.36000 482.151
67.40000 480.043
67.44000 487.256
67.48000 471.611
67.52000 510.132
67.56000 494.887
67.60000 522.452
67.64000 514.339
67.68000 511.781
67.72000 516.821
67.76000 536.715
67.80000 526.898
67.84000 550.298
67.88000 544.936
67.92000 542.431
67.96000 563.727
68.00000 595.397
68.04000 586.079
68.08000 579.040
68.12000 628.083
68.16000 627.777
68.20000 624.727
68.24000 641.729
68.28000 684.600
68.32000 725.936
68.36000 698.300
68.40000 726.731
68.44000 742.977
68.48000 803.624
68.52000 864.325
68.56000 932.656
68.60000 1068.152
68.64000 1190.657
68.68000 1445.595
68.72000 1721.947
68.76000 1897.941
68.80000 2237.044
68.84000 2580.986
68.88000 3323.904
68.92000 5994.910
68.96000 14695.515
69.00000 32605.592
69.04000 49945.012
69.08000 59255.836
69.12000 62691.555
69.16000 66687.648
69.20000 64813.438
69.24000 51402.469
69.28000 38545.969
69.32000 31974.969
69.36000 29513.063
69.40000 24110.109
69.44000 14218.166
69.48000 6121.252
69.52000 2851.305
69.56000 1679.996
69.60000 1345.566
69.64000 1136.321
69.68000 984.601
69.72000 897.220
69.76000 790.376
69.80000 701.468
69.84000 688.734
69.88000 638.366
69.92000 620.677
69.96000 581.170
70.00000 568.162