File: XRD/XRD/09-10-2025 Dep 8/XY Data/BTO_Mapping_Theta2Theta_09-10-2025_001_45_-20-000_-34-641.xy
20.00000 480.544
20.04000 490.720
20.08000 488.749
20.12000 479.380
20.16000 495.380
20.20000 490.624
20.24000 486.116
20.28000 478.407
20.32000 476.164
20.36000 500.082
20.40000 490.364
20.44000 482.471
20.48000 479.130
20.52000 491.992
20.56000 486.148
20.60000 477.761
20.64000 471.529
20.68000 481.471
20.72000 480.880
20.76000 459.739
20.80000 477.842
20.84000 492.473
20.88000 480.559
20.92000 495.942
20.96000 467.534
21.00000 493.225
21.04000 499.843
21.08000 467.947
21.12000 490.884
21.16000 491.188
21.20000 481.080
21.24000 501.189
21.28000 484.147
21.32000 483.851
21.36000 495.883
21.40000 486.312
21.44000 485.003
21.48000 495.775
21.52000 484.029
21.56000 478.018
21.60000 481.454
21.64000 496.087
21.68000 499.411
21.72000 527.362
21.76000 559.995
21.80000 565.966
21.84000 590.316
21.88000 620.619
21.92000 638.053
21.96000 638.191
22.00000 680.417
22.04000 698.470
22.08000 672.385
22.12000 652.415
22.16000 617.112
22.20000 604.131
22.24000 573.728
22.28000 548.429
22.32000 523.190
22.36000 505.893
22.40000 515.697
22.44000 477.609
22.48000 460.353
22.52000 484.025
22.56000 467.115
22.60000 468.886
22.64000 459.362
22.68000 471.673
22.72000 468.263
22.76000 465.487
22.80000 455.924
22.84000 428.971
22.88000 430.024
22.92000 490.443
22.96000 446.287
23.00000 448.248
23.04000 448.479
23.08000 450.144
23.12000 448.232
23.16000 442.491
23.20000 437.097
23.24000 441.602
23.28000 446.161
23.32000 433.358
23.36000 446.077
23.40000 416.912
23.44000 413.827
23.48000 441.146
23.52000 437.662
23.56000 422.431
23.60000 426.816
23.64000 450.773
23.68000 442.789
23.72000 437.980
23.76000 434.241
23.80000 429.811
23.84000 421.206
23.88000 424.710
23.92000 434.306
23.96000 449.918
24.00000 425.725
24.04000 428.128
24.08000 412.263
24.12000 432.124
24.16000 437.314
24.20000 433.124
24.24000 435.234
24.28000 426.630
24.32000 428.964
24.36000 409.465
24.40000 433.155
24.44000 438.399
24.48000 422.332
24.52000 427.982
24.56000 430.905
24.60000 415.057
24.64000 408.713
24.68000 411.449
24.72000 418.722
24.76000 408.430
24.80000 422.736
24.84000 405.961
24.88000 408.838
24.92000 425.447
24.96000 420.675
25.00000 397.501
25.04000 416.602
25.08000 424.761
25.12000 422.570
25.16000 400.822
25.20000 413.804
25.24000 396.310
25.28000 413.482
25.32000 416.913
25.36000 422.238
25.40000 424.053
25.44000 416.958
25.48000 417.709
25.52000 400.322
25.56000 416.622
25.60000 395.085
25.64000 400.303
25.68000 408.807
25.72000 406.364
25.76000 411.174
25.80000 415.316
25.84000 416.363
25.88000 380.279
25.92000 410.967
25.96000 391.883
26.00000 406.709
26.04000 381.272
26.08000 394.611
26.12000 408.190
26.16000 399.206
26.20000 407.256
26.24000 395.172
26.28000 389.813
26.32000 401.630
26.36000 398.709
26.40000 409.665
26.44000 407.886
26.48000 409.665
26.52000 391.368
26.56000 398.036
26.60000 380.713
26.64000 383.928
26.68000 391.338
26.72000 390.013
26.76000 378.230
26.80000 396.586
26.84000 379.728
26.88000 392.057
26.92000 407.626
26.96000 394.648
27.00000 388.255
27.04000 373.857
27.08000 387.111
27.12000 393.059
27.16000 374.487
27.20000 403.413
27.24000 384.888
27.28000 385.865
27.32000 381.706
27.36000 378.938
27.40000 365.291
27.44000 390.602
27.48000 367.210
27.52000 385.343
27.56000 375.186
27.60000 385.824
27.64000 372.744
27.68000 387.684
27.72000 391.162
27.76000 377.056
27.80000 368.396
27.84000 369.719
27.88000 368.245
27.92000 359.495
27.96000 378.755
28.00000 377.451
28.04000 367.745
28.08000 382.003
28.12000 396.917
28.16000 396.649
28.20000 386.517
28.24000 373.495
28.28000 383.235
28.32000 388.825
28.36000 390.280
28.40000 375.595
28.44000 381.304
28.48000 379.281
28.52000 371.047
28.56000 377.952
28.60000 358.118
28.64000 387.155
28.68000 377.852
28.72000 359.471
28.76000 371.740
28.80000 383.782
28.84000 351.275
28.88000 364.324
28.92000 369.484
28.96000 359.214
29.00000 361.523
29.04000 357.259
29.08000 369.647
29.12000 368.961
29.16000 372.094
29.20000 359.947
29.24000 358.491
29.28000 366.158
29.32000 373.985
29.36000 357.718
29.40000 370.448
29.44000 361.786
29.48000 377.331
29.52000 354.309
29.56000 353.141
29.60000 345.395
29.64000 358.262
29.68000 360.866
29.72000 387.205
29.76000 387.969
29.80000 416.557
29.84000 431.937
29.88000 487.655
29.92000 482.729
29.96000 506.834
30.00000 537.881
30.04000 523.212
30.08000 517.138
30.12000 508.518
30.16000 470.074
30.20000 481.410
30.24000 429.901
30.28000 446.116
30.32000 442.135
30.36000 433.101
30.40000 417.838
30.44000 414.444
30.48000 419.132
30.52000 392.140
30.56000 412.375
30.60000 420.734
30.64000 416.673
30.68000 417.091
30.72000 414.945
30.76000 441.706
30.80000 434.778
30.84000 442.051
30.88000 459.604
30.92000 478.426
30.96000 521.417
31.00000 595.284
31.04000 698.795
31.08000 858.388
31.12000 1134.316
31.16000 1607.576
31.20000 2199.895
31.24000 2860.298
31.28000 3705.875
31.32000 4286.210
31.36000 4731.830
31.40000 4810.728
31.44000 4540.477
31.48000 3937.295
31.52000 3176.783
31.56000 2475.944
31.60000 1778.982
31.64000 1328.424
31.68000 1031.107
31.72000 817.227
31.76000 659.072
31.80000 589.643
31.84000 540.916
31.88000 467.811
31.92000 425.032
31.96000 408.842
32.00000 403.552
32.04000 391.290
32.08000 388.887
32.12000 375.383
32.16000 364.646
32.20000 369.502
32.24000 361.567
32.28000 351.830
32.32000 360.177
32.36000 349.117
32.40000 347.011
32.44000 341.025
32.48000 338.314
32.52000 330.529
32.56000 346.156
32.60000 341.437
32.64000 346.217
32.68000 327.453
32.72000 328.379
32.76000 335.271
32.80000 336.513
32.84000 327.506
32.88000 326.956
32.92000 315.231
32.96000 313.633
33.00000 323.017
33.04000 308.549
33.08000 303.032
33.12000 321.877
33.16000 307.598
33.20000 320.164
33.24000 329.831
33.28000 317.920
33.32000 312.168
33.36000 305.215
33.40000 294.939
33.44000 316.515
33.48000 298.081
33.52000 300.613
33.56000 303.933
33.60000 320.208
33.64000 293.486
33.68000 306.454
33.72000 301.218
33.76000 314.818
33.80000 309.628
33.84000 296.396
33.88000 301.498
33.92000 295.550
33.96000 282.358
34.00000 297.193
34.04000 295.475
34.08000 308.030
34.12000 286.517
34.16000 299.647
34.20000 291.460
34.24000 291.353
34.28000 303.218
34.32000 289.394
34.36000 301.032
34.40000 288.092
34.44000 289.420
34.48000 293.928
34.52000 280.805
34.56000 307.784
34.60000 295.417
34.64000 271.080
34.68000 294.315
34.72000 284.961
34.76000 275.801
34.80000 289.463
34.84000 290.372
34.88000 285.929
34.92000 277.164
34.96000 274.741
35.00000 274.860
35.04000 280.967
35.08000 288.346
35.12000 281.446
35.16000 289.037
35.20000 276.860
35.24000 289.037
35.28000 274.024
35.32000 278.037
35.36000 277.226
35.40000 286.196
35.44000 266.480
35.48000 290.472
35.52000 275.689
35.56000 271.063
35.60000 269.750
35.64000 273.333
35.68000 271.003
35.72000 254.950
35.76000 275.768
35.80000 259.943
35.84000 274.436
35.88000 274.275
35.92000 285.566
35.96000 265.408
36.00000 279.790
36.04000 269.399
36.08000 265.758
36.12000 252.457
36.16000 259.793
36.20000 267.885
36.24000 270.162
36.28000 263.217
36.32000 267.487
36.36000 264.660
36.40000 266.962
36.44000 259.932
36.48000 271.805
36.52000 277.956
36.56000 268.107
36.60000 271.968
36.64000 270.115
36.68000 276.571
36.72000 276.201
36.76000 284.766
36.80000 267.145
36.84000 261.596
36.88000 275.543
36.92000 289.648
36.96000 270.094
37.00000 272.233
37.04000 269.921
37.08000 280.960
37.12000 274.961
37.16000 281.850
37.20000 282.734
37.24000 278.301
37.28000 266.425
37.32000 279.186
37.36000 256.220
37.40000 275.103
37.44000 275.189
37.48000 260.470
37.52000 269.756
37.56000 267.060
37.60000 254.673
37.64000 257.185
37.68000 277.208
37.72000 256.015
37.76000 266.418
37.80000 262.774
37.84000 269.187
37.88000 261.168
37.92000 258.111
37.96000 267.985
38.00000 269.606
38.04000 267.365
38.08000 271.763
38.12000 271.211
38.16000 279.456
38.20000 293.979
38.24000 302.729
38.28000 311.616
38.32000 319.976
38.36000 346.026
38.40000 372.237
38.44000 408.392
38.48000 449.332
38.52000 495.738
38.56000 559.348
38.60000 589.667
38.64000 628.627
38.68000 637.662
38.72000 627.122
38.76000 605.889
38.80000 536.857
38.84000 505.682
38.88000 465.436
38.92000 398.843
38.96000 366.246
39.00000 336.384
39.04000 307.331
39.08000 284.323
39.12000 278.132
39.16000 280.197
39.20000 259.538
39.24000 266.691
39.28000 255.634
39.32000 256.236
39.36000 258.904
39.40000 248.327
39.44000 240.266
39.48000 237.519
39.52000 237.004
39.56000 241.666
39.60000 234.703
39.64000 232.095
39.68000 235.270
39.72000 231.859
39.76000 243.634
39.80000 241.964
39.84000 232.972
39.88000 241.649
39.92000 245.719
39.96000 219.196
40.00000 238.843
40.04000 241.770
40.08000 243.589
40.12000 240.210
40.16000 249.142
40.20000 230.186
40.24000 227.583
40.28000 228.576
40.32000 240.002
40.36000 243.649
40.40000 241.273
40.44000 228.126
40.48000 218.549
40.52000 227.739
40.56000 228.193
40.60000 232.777
40.64000 237.161
40.68000 215.207
40.72000 233.974
40.76000 239.879
40.80000 213.116
40.84000 224.769
40.88000 209.123
40.92000 237.729
40.96000 229.688
41.00000 221.643
41.04000 225.030
41.08000 232.104
41.12000 220.832
41.16000 217.518
41.20000 207.065
41.24000 220.778
41.28000 235.343
41.32000 224.125
41.36000 227.973
41.40000 221.392
41.44000 208.176
41.48000 229.522
41.52000 208.986
41.56000 215.968
41.60000 222.385
41.64000 209.647
41.68000 207.288
41.72000 228.975
41.76000 218.385
41.80000 213.527
41.84000 233.728
41.88000 207.550
41.92000 201.037
41.96000 198.271
42.00000 212.900
42.04000 213.058
42.08000 208.436
42.12000 205.000
42.16000 207.102
42.20000 217.667
42.24000 207.405
42.28000 208.337
42.32000 203.367
42.36000 218.781
42.40000 206.504
42.44000 206.115
42.48000 224.576
42.52000 206.974
42.56000 209.750
42.60000 211.639
42.64000 208.194
42.68000 228.426
42.72000 196.956
42.76000 202.640
42.80000 198.830
42.84000 220.683
42.88000 210.393
42.92000 206.052
42.96000 212.796
43.00000 213.660
43.04000 207.959
43.08000 209.835
43.12000 217.718
43.16000 198.090
43.20000 208.934
43.24000 199.839
43.28000 204.281
43.32000 202.049
43.36000 203.046
43.40000 197.330
43.44000 207.103
43.48000 200.850
43.52000 200.704
43.56000 192.760
43.60000 210.965
43.64000 202.804
43.68000 195.602
43.72000 199.619
43.76000 198.143
43.80000 197.879
43.84000 206.871
43.88000 205.092
43.92000 199.936
43.96000 200.155
44.00000 192.674
44.04000 203.233
44.08000 195.466
44.12000 191.383
44.16000 200.505
44.20000 214.087
44.24000 200.735
44.28000 194.999
44.32000 207.061
44.36000 206.456
44.40000 216.901
44.44000 213.121
44.48000 216.478
44.52000 224.021
44.56000 237.260
44.60000 242.034
44.64000 267.059
44.68000 268.994
44.72000 288.735
44.76000 303.646
44.80000 321.718
44.84000 366.381
44.88000 371.375
44.92000 378.205
44.96000 404.121
45.00000 396.655
45.04000 396.875
45.08000 377.065
45.12000 366.499
45.16000 356.392
45.20000 326.730
45.24000 302.853
45.28000 305.860
45.32000 291.619
45.36000 282.559
45.40000 257.432
45.44000 238.827
45.48000 243.109
45.52000 223.828
45.56000 248.228
45.60000 223.778
45.64000 226.653
45.68000 214.832
45.72000 207.793
45.76000 216.011
45.80000 211.499
45.84000 200.821
45.88000 204.343
45.92000 204.656
45.96000 203.425
46.00000 186.627
46.04000 196.841
46.08000 179.801
46.12000 190.101
46.16000 179.755
46.20000 196.912
46.24000 186.205
46.28000 181.121
46.32000 171.237
46.36000 183.399
46.40000 177.961
46.44000 184.082
46.48000 186.377
46.52000 172.404
46.56000 178.650
46.60000 178.373
46.64000 182.961
46.68000 170.970
46.72000 173.801
46.76000 180.714
46.80000 169.940
46.84000 180.730
46.88000 170.966
46.92000 163.907
46.96000 170.854
47.00000 172.168
47.04000 172.564
47.08000 178.173
47.12000 154.163
47.16000 164.589
47.20000 162.449
47.24000 177.486
47.28000 172.703
47.32000 179.132
47.36000 175.677
47.40000 175.464
47.44000 154.399
47.48000 171.652
47.52000 168.452
47.56000 173.758
47.60000 165.269
47.64000 162.518
47.68000 159.111
47.72000 165.479
47.76000 172.087
47.80000 157.643
47.84000 176.521
47.88000 166.428
47.92000 164.053
47.96000 181.281
48.00000 166.429
48.04000 170.665
48.08000 157.302
48.12000 170.118
48.16000 165.730
48.20000 151.267
48.24000 158.029
48.28000 177.133
48.32000 162.269
48.36000 161.781
48.40000 174.350
48.44000 160.695
48.48000 152.176
48.52000 160.961
48.56000 167.681
48.60000 165.034
48.64000 164.192
48.68000 161.490
48.72000 158.633
48.76000 156.757
48.80000 154.376
48.84000 160.457
48.88000 175.061
48.92000 162.433
48.96000 155.521
49.00000 171.609
49.04000 153.268
49.08000 158.654
49.12000 160.219
49.16000 168.827
49.20000 162.292
49.24000 158.308
49.28000 153.172
49.32000 157.133
49.36000 156.077
49.40000 156.395
49.44000 159.764
49.48000 156.817
49.52000 153.688
49.56000 154.118
49.60000 163.506
49.64000 150.318
49.68000 150.475
49.72000 163.895
49.76000 148.510
49.80000 150.009
49.84000 151.066
49.88000 152.537
49.92000 176.439
49.96000 165.107
50.00000 159.613
50.04000 153.964
50.08000 167.098
50.12000 165.938
50.16000 162.292
50.20000 171.044
50.24000 170.891
50.28000 188.038
50.32000 192.837
50.36000 187.685
50.40000 203.414
50.44000 218.250
50.48000 224.251
50.52000 243.150
50.56000 228.923
50.60000 259.044
50.64000 251.944
50.68000 242.694
50.72000 251.657
50.76000 253.146
50.80000 232.681
50.84000 232.394
50.88000 201.216
50.92000 207.406
50.96000 191.767
51.00000 183.313
51.04000 185.122
51.08000 181.264
51.12000 175.223
51.16000 164.188
51.20000 172.112
51.24000 168.638
51.28000 171.065
51.32000 162.660
51.36000 159.619
51.40000 164.934
51.44000 161.685
51.48000 157.975
51.52000 152.811
51.56000 151.251
51.60000 159.051
51.64000 155.513
51.68000 157.405
51.72000 149.795
51.76000 150.581
51.80000 161.385
51.84000 144.248
51.88000 146.578
51.92000 151.217
51.96000 149.491
52.00000 152.534
52.04000 157.301
52.08000 146.600
52.12000 144.674
52.16000 146.546
52.20000 146.051
52.24000 143.676
52.28000 148.302
52.32000 143.392
52.36000 143.885
52.40000 147.947
52.44000 142.791
52.48000 154.181
52.52000 149.668
52.56000 148.056
52.60000 147.759
52.64000 146.695
52.68000 146.926
52.72000 142.355
52.76000 139.245
52.80000 147.897
52.84000 148.245
52.88000 150.603
52.92000 150.822
52.96000 140.480
53.00000 149.613
53.04000 140.811
53.08000 150.788
53.12000 149.648
53.16000 165.004
53.20000 154.952
53.24000 156.561
53.28000 162.247
53.32000 145.687
53.36000 149.460
53.40000 149.712
53.44000 151.462
53.48000 157.543
53.52000 146.406
53.56000 149.937
53.60000 152.033
53.64000 139.221
53.68000 150.012
53.72000 148.676
53.76000 139.995
53.80000 152.943
53.84000 143.495
53.88000 140.987
53.92000 135.522
53.96000 140.665
54.00000 140.300
54.04000 130.655
54.08000 139.525
54.12000 141.813
54.16000 151.898
54.20000 143.189
54.24000 145.324
54.28000 145.691
54.32000 140.938
54.36000 142.282
54.40000 142.971
54.44000 145.014
54.48000 142.683
54.52000 143.169
54.56000 137.379
54.60000 137.918
54.64000 152.428
54.68000 146.992
54.72000 133.634
54.76000 147.207
54.80000 147.574
54.84000 150.564
54.88000 159.593
54.92000 153.037
54.96000 134.259
55.00000 144.301
55.04000 138.539
55.08000 146.461
55.12000 149.118
55.16000 158.037
55.20000 164.080
55.24000 155.752
55.28000 171.658
55.32000 160.692
55.36000 174.162
55.40000 180.590
55.44000 209.014
55.48000 207.337
55.52000 228.166
55.56000 253.821
55.60000 287.464
55.64000 335.032
55.68000 379.643
55.72000 418.418
55.76000 463.438
55.80000 475.877
55.84000 514.790
55.88000 513.267
55.92000 515.973
55.96000 514.456
56.00000 483.583
56.04000 430.194
56.08000 394.475
56.12000 360.248
56.16000 305.182
56.20000 275.376
56.24000 253.809
56.28000 246.782
56.32000 230.706
56.36000 218.119
56.40000 195.950
56.44000 185.582
56.48000 178.919
56.52000 159.793
56.56000 158.933
56.60000 154.941
56.64000 158.812
56.68000 151.132
56.72000 144.974
56.76000 145.606
56.80000 139.556
56.84000 152.132
56.88000 145.323
56.92000 143.624
56.96000 138.244
57.00000 134.018
57.04000 139.254
57.08000 132.066
57.12000 127.979
57.16000 132.691
57.20000 127.168
57.24000 123.151
57.28000 128.774
57.32000 127.559
57.36000 127.028
57.40000 131.749
57.44000 122.158
57.48000 128.758
57.52000 133.861
57.56000 130.768
57.60000 124.674
57.64000 127.390
57.68000 125.162
57.72000 136.415
57.76000 122.262
57.80000 124.645
57.84000 124.455
57.88000 137.910
57.92000 125.082
57.96000 130.535
58.00000 129.514
58.04000 129.150
58.08000 122.121
58.12000 125.991
58.16000 136.542
58.20000 122.453
58.24000 128.325
58.28000 129.393
58.32000 119.756
58.36000 129.894
58.40000 133.496
58.44000 123.602
58.48000 127.008
58.52000 125.513
58.56000 121.664
58.60000 122.751
58.64000 121.950
58.68000 125.592
58.72000 126.886
58.76000 114.130
58.80000 119.078
58.84000 123.464
58.88000 119.530
58.92000 120.485
58.96000 121.430
59.00000 119.161
59.04000 118.846
59.08000 120.708
59.12000 121.267
59.16000 114.126
59.20000 115.214
59.24000 120.874
59.28000 125.172
59.32000 129.087
59.36000 129.120
59.40000 123.627
59.44000 116.484
59.48000 124.655
59.52000 122.673
59.56000 123.447
59.60000 122.044
59.64000 108.656
59.68000 129.785
59.72000 117.293
59.76000 126.397
59.80000 126.258
59.84000 121.816
59.88000 116.198
59.92000 122.805
59.96000 115.700
60.00000 121.189
60.04000 121.074
60.08000 117.234
60.12000 119.999
60.16000 133.692
60.20000 119.658
60.24000 121.913
60.28000 114.584
60.32000 116.345
60.36000 124.628
60.40000 124.546
60.44000 119.123
60.48000 118.797
60.52000 113.889
60.56000 125.224
60.60000 108.990
60.64000 115.093
60.68000 117.686
60.72000 120.151
60.76000 113.215
60.80000 116.957
60.84000 123.206
60.88000 123.076
60.92000 121.068
60.96000 124.040
61.00000 119.120
61.04000 114.176
61.08000 120.573
61.12000 126.262
61.16000 151.291
61.20000 124.853
61.24000 119.565
61.28000 132.199
61.32000 130.519
61.36000 124.958
61.40000 122.439
61.44000 143.717
61.48000 138.792
61.52000 187.038
61.56000 267.771
61.60000 349.168
61.64000 409.859
61.68000 427.669
61.72000 434.957
61.76000 400.941
61.80000 329.505
61.84000 229.487
61.88000 172.366
61.92000 163.380
61.96000 147.894
62.00000 139.449
62.04000 128.929
62.08000 134.898
62.12000 137.550
62.16000 137.265
62.20000 155.381
62.24000 135.791
62.28000 141.126
62.32000 144.979
62.36000 147.204
62.40000 137.609
62.44000 132.851
62.48000 150.769
62.52000 140.108
62.56000 150.150
62.60000 149.294
62.64000 143.206
62.68000 144.705
62.72000 140.776
62.76000 140.790
62.80000 141.155
62.84000 143.825
62.88000 141.721
62.92000 127.593
62.96000 138.904
63.00000 135.373
63.04000 143.450
63.08000 141.337
63.12000 133.065
63.16000 141.866
63.20000 137.173
63.24000 131.578
63.28000 136.567
63.32000 142.942
63.36000 144.402
63.40000 143.636
63.44000 149.922
63.48000 145.429
63.52000 141.701
63.56000 146.530
63.60000 159.606
63.64000 149.881
63.68000 143.711
63.72000 142.229
63.76000 152.599
63.80000 141.903
63.84000 154.514
63.88000 135.296
63.92000 158.148
63.96000 154.714
64.00000 152.158
64.04000 152.193
64.08000 164.243
64.12000 161.882
64.16000 155.142
64.20000 156.194
64.24000 156.410
64.28000 168.463
64.32000 173.502
64.36000 175.780
64.40000 160.042
64.44000 170.123
64.48000 178.687
64.52000 177.741
64.56000 175.967
64.60000 190.560
64.64000 173.545
64.68000 180.080
64.72000 184.932
64.76000 191.438
64.80000 167.784
64.84000 199.296
64.88000 206.418
64.92000 214.885
64.96000 223.323
65.00000 224.690
65.04000 239.310
65.08000 245.073
65.12000 270.035
65.16000 286.157
65.20000 293.031
65.24000 332.194
65.28000 372.560
65.32000 405.740
65.36000 455.197
65.40000 484.460
65.44000 527.120
65.48000 567.956
65.52000 587.114
65.56000 639.276
65.60000 681.555
65.64000 767.779
65.68000 1028.200
65.72000 1533.260
65.76000 2330.389
65.80000 2985.925
65.84000 3384.755
65.88000 3392.226
65.92000 3232.738
65.96000 2697.633
66.00000 1819.463
66.04000 1132.346
66.08000 741.693
66.12000 593.970
66.16000 540.925
66.20000 517.701
66.24000 546.808
66.28000 667.970
66.32000 792.449
66.36000 919.481
66.40000 936.239
66.44000 952.450
66.48000 919.957
66.52000 806.505
66.56000 662.472
66.60000 548.542
66.64000 482.768
66.68000 465.496
66.72000 482.849
66.76000 474.716
66.80000 456.866
66.84000 457.695
66.88000 463.442
66.92000 473.990
66.96000 464.832
67.00000 479.625
67.04000 483.742
67.08000 469.165
67.12000 484.646
67.16000 514.510
67.20000 486.405
67.24000 494.413
67.28000 520.983
67.32000 510.554
67.36000 528.078
67.40000 534.704
67.44000 528.294
67.48000 535.169
67.52000 562.276
67.56000 557.065
67.60000 556.998
67.64000 573.281
67.68000 560.160
67.72000 584.165
67.76000 610.090
67.80000 607.730
67.84000 605.148
67.88000 632.906
67.92000 628.543
67.96000 626.851
68.00000 654.791
68.04000 667.138
68.08000 674.768
68.12000 662.843
68.16000 705.612
68.20000 713.190
68.24000 724.870
68.28000 736.551
68.32000 762.860
68.36000 797.204
68.40000 836.812
68.44000 884.059
68.48000 910.760
68.52000 960.685
68.56000 1047.590
68.60000 1173.197
68.64000 1416.370
68.68000 1647.945
68.72000 1974.974
68.76000 2249.091
68.80000 2607.917
68.84000 3067.714
68.88000 4022.935
68.92000 6687.686
68.96000 15491.552
69.00000 36286.680
69.04000 60240.055
69.08000 74483.523
69.12000 79818.781
69.16000 84834.711
69.20000 83590.641
69.24000 70230.047
69.28000 54082.730
69.32000 42278.996
69.36000 38605.152
69.40000 32234.232
69.44000 20795.127
69.48000 9927.219
69.52000 4212.048
69.56000 2292.834
69.60000 1661.769
69.64000 1358.228
69.68000 1162.033
69.72000 1039.997
69.76000 922.390
69.80000 846.199
69.84000 778.961
69.88000 704.085
69.92000 672.114
69.96000 646.554
70.00000 605.846