File: XRD/XRD/09-10-2025 Dep 8/XY Data/BTO_Mapping_Theta2Theta_09-10-2025_001_36_-29-344_-6-237.xy
20.00000 512.445
20.04000 481.495
20.08000 477.530
20.12000 503.536
20.16000 483.683
20.20000 483.142
20.24000 479.700
20.28000 491.208
20.32000 495.959
20.36000 484.787
20.40000 497.536
20.44000 511.976
20.48000 482.108
20.52000 478.823
20.56000 485.272
20.60000 494.940
20.64000 475.566
20.68000 466.373
20.72000 489.117
20.76000 484.935
20.80000 495.938
20.84000 492.473
20.88000 495.593
20.92000 496.546
20.96000 502.545
21.00000 486.132
21.04000 483.415
21.08000 502.038
21.12000 492.041
21.16000 489.036
21.20000 488.735
21.24000 478.236
21.28000 484.300
21.32000 476.394
21.36000 497.687
21.40000 503.893
21.44000 503.435
21.48000 483.240
21.52000 489.554
21.56000 480.263
21.60000 484.310
21.64000 521.564
21.68000 506.590
21.72000 528.995
21.76000 558.629
21.80000 585.513
21.84000 629.561
21.88000 642.893
21.92000 674.224
21.96000 725.033
22.00000 719.843
22.04000 733.813
22.08000 688.185
22.12000 697.260
22.16000 647.666
22.20000 626.622
22.24000 561.587
22.28000 540.483
22.32000 538.700
22.36000 531.993
22.40000 503.720
22.44000 491.025
22.48000 473.814
22.52000 469.792
22.56000 475.682
22.60000 473.162
22.64000 463.873
22.68000 442.655
22.72000 464.909
22.76000 470.282
22.80000 457.167
22.84000 452.190
22.88000 453.449
22.92000 447.239
22.96000 446.349
23.00000 439.832
23.04000 461.257
23.08000 452.682
23.12000 443.434
23.16000 446.979
23.20000 445.348
23.24000 449.506
23.28000 432.555
23.32000 448.881
23.36000 452.789
23.40000 445.962
23.44000 450.634
23.48000 444.324
23.52000 445.260
23.56000 451.165
23.60000 441.124
23.64000 424.583
23.68000 441.059
23.72000 452.875
23.76000 421.630
23.80000 423.151
23.84000 437.192
23.88000 445.285
23.92000 434.608
23.96000 428.011
24.00000 438.546
24.04000 422.864
24.08000 423.763
24.12000 427.246
24.16000 432.779
24.20000 434.869
24.24000 434.839
24.28000 431.034
24.32000 426.081
24.36000 433.629
24.40000 414.351
24.44000 411.351
24.48000 415.747
24.52000 426.245
24.56000 417.805
24.60000 438.559
24.64000 412.198
24.68000 430.288
24.72000 425.747
24.76000 415.308
24.80000 410.089
24.84000 411.680
24.88000 399.157
24.92000 440.084
24.96000 419.363
25.00000 405.714
25.04000 412.433
25.08000 418.127
25.12000 417.427
25.16000 412.004
25.20000 398.565
25.24000 409.377
25.28000 416.192
25.32000 411.968
25.36000 404.396
25.40000 396.089
25.44000 409.087
25.48000 411.393
25.52000 411.935
25.56000 408.639
25.60000 404.347
25.64000 393.992
25.68000 409.641
25.72000 409.060
25.76000 406.053
25.80000 402.133
25.84000 418.588
25.88000 415.275
25.92000 425.185
25.96000 395.225
26.00000 411.882
26.04000 401.925
26.08000 405.001
26.12000 397.090
26.16000 391.867
26.20000 407.892
26.24000 395.318
26.28000 386.052
26.32000 376.425
26.36000 421.548
26.40000 391.362
26.44000 394.920
26.48000 391.723
26.52000 402.672
26.56000 389.680
26.60000 406.098
26.64000 398.813
26.68000 377.605
26.72000 401.867
26.76000 399.745
26.80000 396.054
26.84000 409.741
26.88000 382.940
26.92000 383.346
26.96000 379.749
27.00000 387.408
27.04000 381.802
27.08000 397.054
27.12000 388.543
27.16000 397.865
27.20000 390.681
27.24000 388.433
27.28000 373.209
27.32000 389.639
27.36000 396.651
27.40000 375.168
27.44000 379.739
27.48000 378.645
27.52000 402.770
27.56000 397.325
27.60000 385.090
27.64000 367.148
27.68000 390.553
27.72000 380.425
27.76000 385.218
27.80000 392.160
27.84000 387.687
27.88000 373.549
27.92000 365.997
27.96000 365.588
28.00000 378.857
28.04000 383.417
28.08000 372.628
28.12000 385.565
28.16000 379.723
28.20000 391.644
28.24000 391.323
28.28000 388.329
28.32000 373.023
28.36000 392.904
28.40000 392.052
28.44000 383.230
28.48000 371.937
28.52000 370.123
28.56000 376.586
28.60000 373.242
28.64000 376.933
28.68000 375.279
28.72000 367.562
28.76000 372.023
28.80000 370.225
28.84000 376.034
28.88000 367.955
28.92000 365.642
28.96000 356.249
29.00000 366.547
29.04000 366.234
29.08000 376.860
29.12000 376.044
29.16000 360.613
29.20000 370.660
29.24000 368.366
29.28000 359.690
29.32000 369.162
29.36000 358.158
29.40000 357.137
29.44000 363.959
29.48000 382.254
29.52000 381.918
29.56000 347.624
29.60000 373.413
29.64000 387.627
29.68000 385.859
29.72000 386.907
29.76000 393.354
29.80000 432.882
29.84000 437.013
29.88000 470.540
29.92000 482.080
29.96000 493.950
30.00000 515.697
30.04000 517.793
30.08000 486.594
30.12000 487.162
30.16000 476.440
30.20000 472.410
30.24000 449.332
30.28000 452.110
30.32000 440.296
30.36000 415.900
30.40000 402.951
30.44000 396.153
30.48000 395.268
30.52000 389.469
30.56000 396.615
30.60000 409.031
30.64000 408.401
30.68000 413.668
30.72000 403.519
30.76000 419.309
30.80000 439.756
30.84000 462.994
30.88000 448.847
30.92000 502.962
30.96000 538.205
31.00000 604.207
31.04000 776.323
31.08000 1016.938
31.12000 1410.763
31.16000 1890.343
31.20000 2554.180
31.24000 3218.770
31.28000 3886.049
31.32000 4346.311
31.36000 4514.144
31.40000 4339.257
31.44000 3989.098
31.48000 3207.762
31.52000 2517.581
31.56000 1863.495
31.60000 1423.704
31.64000 1048.663
31.68000 831.391
31.72000 693.571
31.76000 570.737
31.80000 500.085
31.84000 478.540
31.88000 430.030
31.92000 419.547
31.96000 403.472
32.00000 367.812
32.04000 371.262
32.08000 373.598
32.12000 365.939
32.16000 355.721
32.20000 365.278
32.24000 349.015
32.28000 346.020
32.32000 346.248
32.36000 337.998
32.40000 363.571
32.44000 341.730
32.48000 353.676
32.52000 337.600
32.56000 348.731
32.60000 331.085
32.64000 330.197
32.68000 328.233
32.72000 323.651
32.76000 338.203
32.80000 351.625
32.84000 338.689
32.88000 339.597
32.92000 323.245
32.96000 315.931
33.00000 304.711
33.04000 318.005
33.08000 314.723
33.12000 319.914
33.16000 305.183
33.20000 318.670
33.24000 315.074
33.28000 299.095
33.32000 323.865
33.36000 308.244
33.40000 311.438
33.44000 311.272
33.48000 312.872
33.52000 303.797
33.56000 315.491
33.60000 310.684
33.64000 307.740
33.68000 302.189
33.72000 298.863
33.76000 298.575
33.80000 309.896
33.84000 309.787
33.88000 289.726
33.92000 307.275
33.96000 309.814
34.00000 306.848
34.04000 302.417
34.08000 297.852
34.12000 291.799
34.16000 284.859
34.20000 291.118
34.24000 305.687
34.28000 286.904
34.32000 288.803
34.36000 304.652
34.40000 300.269
34.44000 275.974
34.48000 287.273
34.52000 291.839
34.56000 303.158
34.60000 295.316
34.64000 287.836
34.68000 287.450
34.72000 298.693
34.76000 272.681
34.80000 288.951
34.84000 283.253
34.88000 291.472
34.92000 297.911
34.96000 311.621
35.00000 280.286
35.04000 279.661
35.08000 277.295
35.12000 291.666
35.16000 280.336
35.20000 281.351
35.24000 281.688
35.28000 276.986
35.32000 280.082
35.36000 286.988
35.40000 303.179
35.44000 267.654
35.48000 275.692
35.52000 277.810
35.56000 266.472
35.60000 276.342
35.64000 265.166
35.68000 273.486
35.72000 277.105
35.76000 266.567
35.80000 260.189
35.84000 277.695
35.88000 274.654
35.92000 264.316
35.96000 279.910
36.00000 270.294
36.04000 269.109
36.08000 254.476
36.12000 266.532
36.16000 269.972
36.20000 277.446
36.24000 267.922
36.28000 262.548
36.32000 257.838
36.36000 263.981
36.40000 279.308
36.44000 272.722
36.48000 264.157
36.52000 279.463
36.56000 275.001
36.60000 261.787
36.64000 291.632
36.68000 265.139
36.72000 268.573
36.76000 270.635
36.80000 277.475
36.84000 283.671
36.88000 290.040
36.92000 279.411
36.96000 284.225
37.00000 276.093
37.04000 283.195
37.08000 282.161
37.12000 266.326
37.16000 271.233
37.20000 274.177
37.24000 265.559
37.28000 264.890
37.32000 272.602
37.36000 257.816
37.40000 276.095
37.44000 253.186
37.48000 256.335
37.52000 266.372
37.56000 255.533
37.60000 276.378
37.64000 276.179
37.68000 273.283
37.72000 261.059
37.76000 263.862
37.80000 271.703
37.84000 274.677
37.88000 264.400
37.92000 275.636
37.96000 280.122
38.00000 271.363
38.04000 276.939
38.08000 289.370
38.12000 294.851
38.16000 306.024
38.20000 305.333
38.24000 311.138
38.28000 339.354
38.32000 348.974
38.36000 371.993
38.40000 398.054
38.44000 441.363
38.48000 502.732
38.52000 549.337
38.56000 595.142
38.60000 644.063
38.64000 653.253
38.68000 640.796
38.72000 625.363
38.76000 582.060
38.80000 539.954
38.84000 496.195
38.88000 435.391
38.92000 395.517
38.96000 360.428
39.00000 325.867
39.04000 298.297
39.08000 295.594
39.12000 297.579
39.16000 285.142
39.20000 263.013
39.24000 263.295
39.28000 258.650
39.32000 259.866
39.36000 244.531
39.40000 244.773
39.44000 247.856
39.48000 243.840
39.52000 247.748
39.56000 246.317
39.60000 249.500
39.64000 245.935
39.68000 242.657
39.72000 243.476
39.76000 226.977
39.80000 252.816
39.84000 234.000
39.88000 235.657
39.92000 227.929
39.96000 239.218
40.00000 237.147
40.04000 251.792
40.08000 229.391
40.12000 231.629
40.16000 227.797
40.20000 229.176
40.24000 230.702
40.28000 240.676
40.32000 225.470
40.36000 246.159
40.40000 227.046
40.44000 228.941
40.48000 228.629
40.52000 228.539
40.56000 220.591
40.60000 237.118
40.64000 228.133
40.68000 227.131
40.72000 225.860
40.76000 227.776
40.80000 236.235
40.84000 225.071
40.88000 225.236
40.92000 229.543
40.96000 229.399
41.00000 217.020
41.04000 237.784
41.08000 224.366
41.12000 222.735
41.16000 214.880
41.20000 214.217
41.24000 224.439
41.28000 215.123
41.32000 218.483
41.36000 208.769
41.40000 212.134
41.44000 222.738
41.48000 227.785
41.52000 229.318
41.56000 205.854
41.60000 215.816
41.64000 224.489
41.68000 213.264
41.72000 225.526
41.76000 220.551
41.80000 207.367
41.84000 209.784
41.88000 207.150
41.92000 208.989
41.96000 206.927
42.00000 219.424
42.04000 220.725
42.08000 217.944
42.12000 214.813
42.16000 202.418
42.20000 206.733
42.24000 216.424
42.28000 206.826
42.32000 224.851
42.36000 210.063
42.40000 204.661
42.44000 205.771
42.48000 200.391
42.52000 209.082
42.56000 214.141
42.60000 205.432
42.64000 207.455
42.68000 227.622
42.72000 221.654
42.76000 206.749
42.80000 218.882
42.84000 209.781
42.88000 223.254
42.92000 211.006
42.96000 210.656
43.00000 214.407
43.04000 209.140
43.08000 223.602
43.12000 215.051
43.16000 226.857
43.20000 198.536
43.24000 210.131
43.28000 190.889
43.32000 202.939
43.36000 199.836
43.40000 196.706
43.44000 206.139
43.48000 204.670
43.52000 206.977
43.56000 208.044
43.60000 207.626
43.64000 208.193
43.68000 219.398
43.72000 211.469
43.76000 201.527
43.80000 193.963
43.84000 208.955
43.88000 206.018
43.92000 206.132
43.96000 197.201
44.00000 196.599
44.04000 210.508
44.08000 203.242
44.12000 208.178
44.16000 213.674
44.20000 208.916
44.24000 211.000
44.28000 218.363
44.32000 203.598
44.36000 207.206
44.40000 220.876
44.44000 233.294
44.48000 240.258
44.52000 246.080
44.56000 259.579
44.60000 273.619
44.64000 285.094
44.68000 304.090
44.72000 324.213
44.76000 354.265
44.80000 389.357
44.84000 399.715
44.88000 421.625
44.92000 428.302
44.96000 431.241
45.00000 430.429
45.04000 429.432
45.08000 400.276
45.12000 373.336
45.16000 357.933
45.20000 337.218
45.24000 325.041
45.28000 307.401
45.32000 293.608
45.36000 268.195
45.40000 266.927
45.44000 242.911
45.48000 250.693
45.52000 237.227
45.56000 237.037
45.60000 225.967
45.64000 219.981
45.68000 206.926
45.72000 218.499
45.76000 224.119
45.80000 210.535
45.84000 196.158
45.88000 185.509
45.92000 196.933
45.96000 183.812
46.00000 200.070
46.04000 195.106
46.08000 180.036
46.12000 186.587
46.16000 180.038
46.20000 185.948
46.24000 189.077
46.28000 182.393
46.32000 177.496
46.36000 178.944
46.40000 194.491
46.44000 168.565
46.48000 176.700
46.52000 179.113
46.56000 186.136
46.60000 182.914
46.64000 177.085
46.68000 168.797
46.72000 177.977
46.76000 181.132
46.80000 191.836
46.84000 165.026
46.88000 177.712
46.92000 175.399
46.96000 176.949
47.00000 181.999
47.04000 161.019
47.08000 169.926
47.12000 164.824
47.16000 177.231
47.20000 192.230
47.24000 164.839
47.28000 172.333
47.32000 170.448
47.36000 166.322
47.40000 174.645
47.44000 159.437
47.48000 168.396
47.52000 175.990
47.56000 162.120
47.60000 169.653
47.64000 167.958
47.68000 181.734
47.72000 174.320
47.76000 174.022
47.80000 170.354
47.84000 168.164
47.88000 165.271
47.92000 171.455
47.96000 175.477
48.00000 173.941
48.04000 166.701
48.08000 166.034
48.12000 164.918
48.16000 166.481
48.20000 168.473
48.24000 173.031
48.28000 172.736
48.32000 172.520
48.36000 165.123
48.40000 161.920
48.44000 167.256
48.48000 168.715
48.52000 160.336
48.56000 165.942
48.60000 165.764
48.64000 159.705
48.68000 166.579
48.72000 172.592
48.76000 167.200
48.80000 153.156
48.84000 162.854
48.88000 161.876
48.92000 169.567
48.96000 164.237
49.00000 161.328
49.04000 157.971
49.08000 144.785
49.12000 161.845
49.16000 158.262
49.20000 167.478
49.24000 154.642
49.28000 161.378
49.32000 166.861
49.36000 163.177
49.40000 155.931
49.44000 162.894
49.48000 157.186
49.52000 160.528
49.56000 159.412
49.60000 161.485
49.64000 156.222
49.68000 157.402
49.72000 164.447
49.76000 175.289
49.80000 167.808
49.84000 152.850
49.88000 149.289
49.92000 157.145
49.96000 164.141
50.00000 162.611
50.04000 169.723
50.08000 159.369
50.12000 176.083
50.16000 166.068
50.20000 169.198
50.24000 177.399
50.28000 179.913
50.32000 185.474
50.36000 192.237
50.40000 210.194
50.44000 221.610
50.48000 244.416
50.52000 238.436
50.56000 236.677
50.60000 255.843
50.64000 268.482
50.68000 242.795
50.72000 242.947
50.76000 239.013
50.80000 224.535
50.84000 209.159
50.88000 188.589
50.92000 196.840
50.96000 190.538
51.00000 182.738
51.04000 173.916
51.08000 168.711
51.12000 177.525
51.16000 171.276
51.20000 158.208
51.24000 162.901
51.28000 178.152
51.32000 163.161
51.36000 158.653
51.40000 161.959
51.44000 155.862
51.48000 147.712
51.52000 154.410
51.56000 160.362
51.60000 144.983
51.64000 147.295
51.68000 141.395
51.72000 146.677
51.76000 154.202
51.80000 164.206
51.84000 144.143
51.88000 150.448
51.92000 147.845
51.96000 157.668
52.00000 141.808
52.04000 155.310
52.08000 147.373
52.12000 151.766
52.16000 148.104
52.20000 146.648
52.24000 150.673
52.28000 145.539
52.32000 150.428
52.36000 152.612
52.40000 156.087
52.44000 155.317
52.48000 148.124
52.52000 141.691
52.56000 157.119
52.60000 139.716
52.64000 146.725
52.68000 146.082
52.72000 150.874
52.76000 151.036
52.80000 145.520
52.84000 159.939
52.88000 141.570
52.92000 142.857
52.96000 158.314
53.00000 146.350
53.04000 156.749
53.08000 152.320
53.12000 150.402
53.16000 160.607
53.20000 150.872
53.24000 160.183
53.28000 156.929
53.32000 153.726
53.36000 155.054
53.40000 159.371
53.44000 163.040
53.48000 165.634
53.52000 148.493
53.56000 155.582
53.60000 158.757
53.64000 152.565
53.68000 150.676
53.72000 148.175
53.76000 146.743
53.80000 154.025
53.84000 150.511
53.88000 148.614
53.92000 143.406
53.96000 139.795
54.00000 151.262
54.04000 141.890
54.08000 142.530
54.12000 145.818
54.16000 139.525
54.20000 148.894
54.24000 144.901
54.28000 146.023
54.32000 143.984
54.36000 140.476
54.40000 138.885
54.44000 146.839
54.48000 150.087
54.52000 147.184
54.56000 142.178
54.60000 151.014
54.64000 137.423
54.68000 145.153
54.72000 158.142
54.76000 149.705
54.80000 141.311
54.84000 136.104
54.88000 149.021
54.92000 147.657
54.96000 138.607
55.00000 143.892
55.04000 161.605
55.08000 158.257
55.12000 149.757
55.16000 159.207
55.20000 164.816
55.24000 176.471
55.28000 170.210
55.32000 181.887
55.36000 187.293
55.40000 193.866
55.44000 212.927
55.48000 236.616
55.52000 260.678
55.56000 284.564
55.60000 325.282
55.64000 376.918
55.68000 416.164
55.72000 449.656
55.76000 493.722
55.80000 511.867
55.84000 535.857
55.88000 523.472
55.92000 503.002
55.96000 446.770
56.00000 429.164
56.04000 394.275
56.08000 353.297
56.12000 313.213
56.16000 297.100
56.20000 269.263
56.24000 247.678
56.28000 224.738
56.32000 212.004
56.36000 211.226
56.40000 176.453
56.44000 178.879
56.48000 154.200
56.52000 160.507
56.56000 165.702
56.60000 149.605
56.64000 149.718
56.68000 161.773
56.72000 150.975
56.76000 150.839
56.80000 146.498
56.84000 139.891
56.88000 140.736
56.92000 139.079
56.96000 138.001
57.00000 137.222
57.04000 128.962
57.08000 123.859
57.12000 131.497
57.16000 132.122
57.20000 138.225
57.24000 134.877
57.28000 132.303
57.32000 127.610
57.36000 136.679
57.40000 131.304
57.44000 122.247
57.48000 130.580
57.52000 130.816
57.56000 132.120
57.60000 127.367
57.64000 129.596
57.68000 134.353
57.72000 130.954
57.76000 135.605
57.80000 134.878
57.84000 118.622
57.88000 128.876
57.92000 125.384
57.96000 132.513
58.00000 129.514
58.04000 125.527
58.08000 128.312
58.12000 132.279
58.16000 128.646
58.20000 125.419
58.24000 109.565
58.28000 130.102
58.32000 129.152
58.36000 135.679
58.40000 124.514
58.44000 125.128
58.48000 126.787
58.52000 132.071
58.56000 116.007
58.60000 121.767
58.64000 113.945
58.68000 129.163
58.72000 123.952
58.76000 132.856
58.80000 129.598
58.84000 121.182
58.88000 128.783
58.92000 128.157
58.96000 126.350
59.00000 123.763
59.04000 119.891
59.08000 117.045
59.12000 121.581
59.16000 115.560
59.20000 116.195
59.24000 124.889
59.28000 120.474
59.32000 120.869
59.36000 118.460
59.40000 116.515
59.44000 132.331
59.48000 122.075
59.52000 123.252
59.56000 119.583
59.60000 119.663
59.64000 122.013
59.68000 124.131
59.72000 125.065
59.76000 122.830
59.80000 121.437
59.84000 125.427
59.88000 113.573
59.92000 114.822
59.96000 121.071
60.00000 111.019
60.04000 118.982
60.08000 114.360
60.12000 119.403
60.16000 118.733
60.20000 110.613
60.24000 110.735
60.28000 120.882
60.32000 124.808
60.36000 118.506
60.40000 120.057
60.44000 117.005
60.48000 126.553
60.52000 123.282
60.56000 128.108
60.60000 126.677
60.64000 120.693
60.68000 115.197
60.72000 133.117
60.76000 118.435
60.80000 125.532
60.84000 125.916
60.88000 119.429
60.92000 124.523
60.96000 124.242
61.00000 122.832
61.04000 115.760
61.08000 125.695
61.12000 122.035
61.16000 120.464
61.20000 126.491
61.24000 127.488
61.28000 116.944
61.32000 125.189
61.36000 131.865
61.40000 134.278
61.44000 138.720
61.48000 142.088
61.52000 186.306
61.56000 261.374
61.60000 357.973
61.64000 411.967
61.68000 430.578
61.72000 451.527
61.76000 419.250
61.80000 303.189
61.84000 226.418
61.88000 166.136
61.92000 140.996
61.96000 140.532
62.00000 136.148
62.04000 136.642
62.08000 136.201
62.12000 144.327
62.16000 135.157
62.20000 136.866
62.24000 138.056
62.28000 132.108
62.32000 153.971
62.36000 135.429
62.40000 132.059
62.44000 148.179
62.48000 143.823
62.52000 145.088
62.56000 142.434
62.60000 138.735
62.64000 141.473
62.68000 131.874
62.72000 138.985
62.76000 146.362
62.80000 142.363
62.84000 145.055
62.88000 139.793
62.92000 148.135
62.96000 142.338
63.00000 129.149
63.04000 144.917
63.08000 140.851
63.12000 153.160
63.16000 147.458
63.20000 154.232
63.24000 134.367
63.28000 140.748
63.32000 139.462
63.36000 139.953
63.40000 141.798
63.44000 151.547
63.48000 144.687
63.52000 139.390
63.56000 148.163
63.60000 143.423
63.64000 148.955
63.68000 151.434
63.72000 142.447
63.76000 155.463
63.80000 151.360
63.84000 153.215
63.88000 157.113
63.92000 153.758
63.96000 159.965
64.00000 160.191
64.04000 151.223
64.08000 169.233
64.12000 168.533
64.16000 163.922
64.20000 161.222
64.24000 164.395
64.28000 171.473
64.32000 165.154
64.36000 179.085
64.40000 167.395
64.44000 175.148
64.48000 174.194
64.52000 175.392
64.56000 170.828
64.60000 186.341
64.64000 182.524
64.68000 170.610
64.72000 186.194
64.76000 189.402
64.80000 186.559
64.84000 196.364
64.88000 199.416
64.92000 213.171
64.96000 216.225
65.00000 232.431
65.04000 239.668
65.08000 243.493
65.12000 289.272
65.16000 294.606
65.20000 330.103
65.24000 359.381
65.28000 413.865
65.32000 441.100
65.36000 475.518
65.40000 516.649
65.44000 523.568
65.48000 552.461
65.52000 556.098
65.56000 598.713
65.60000 653.896
65.64000 746.120
65.68000 1017.357
65.72000 1562.124
65.76000 2398.164
65.80000 3043.161
65.84000 3373.121
65.88000 3377.929
65.92000 3209.656
65.96000 2533.421
66.00000 1675.647
66.04000 1018.250
66.08000 714.006
66.12000 577.695
66.16000 503.714
66.20000 519.291
66.24000 569.025
66.28000 643.627
66.32000 792.545
66.36000 924.771
66.40000 968.988
66.44000 932.077
66.48000 891.969
66.52000 787.818
66.56000 627.137
66.60000 548.774
66.64000 488.853
66.68000 466.624
66.72000 462.552
66.76000 452.620
66.80000 447.776
66.84000 471.229
66.88000 472.858
66.92000 471.388
66.96000 473.104
67.00000 487.577
67.04000 478.322
67.08000 483.061
67.12000 482.927
67.16000 507.088
67.20000 503.989
67.24000 514.278
67.28000 504.935
67.32000 541.421
67.36000 524.943
67.40000 536.142
67.44000 540.704
67.48000 552.421
67.52000 549.595
67.56000 554.716
67.60000 568.406
67.64000 557.637
67.68000 576.758
67.72000 589.102
67.76000 587.047
67.80000 594.239
67.84000 593.662
67.88000 601.609
67.92000 638.473
67.96000 643.735
68.00000 616.510
68.04000 658.707
68.08000 674.716
68.12000 689.227
68.16000 704.232
68.20000 701.646
68.24000 732.691
68.28000 754.150
68.32000 753.842
68.36000 785.859
68.40000 820.191
68.44000 852.283
68.48000 895.743
68.52000 950.728
68.56000 1058.553
68.60000 1205.865
68.64000 1381.235
68.68000 1682.298
68.72000 1986.135
68.76000 2281.847
68.80000 2649.363
68.84000 3141.076
68.88000 4146.108
68.92000 7236.626
68.96000 17315.629
69.00000 39144.148
69.04000 62768.520
69.08000 74881.383
69.12000 80011.516
69.16000 84434.680
69.20000 82046.281
69.24000 68186.375
69.28000 51549.695
69.32000 41191.270
69.36000 37861.109
69.40000 30879.811
69.44000 19354.879
69.48000 8738.768
69.52000 3720.742
69.56000 2119.604
69.60000 1590.980
69.64000 1298.988
69.68000 1153.462
69.72000 998.362
69.76000 911.049
69.80000 817.846
69.84000 754.848
69.88000 749.542
69.92000 688.466
69.96000 629.284
70.00000 611.616