File: XRD/XRD/09-10-2025 Dep 8/XY Data/BTO_Mapping_Theta2Theta_09-10-2025_001_26_-8-090_5-878.xy
20.00000 513.637
20.04000 499.345
20.08000 493.568
20.12000 480.572
20.16000 490.887
20.20000 484.541
20.24000 492.008
20.28000 479.479
20.32000 485.145
20.36000 478.115
20.40000 470.293
20.44000 472.368
20.48000 491.863
20.52000 483.211
20.56000 478.029
20.60000 468.581
20.64000 472.259
20.68000 470.663
20.72000 474.757
20.76000 481.582
20.80000 487.345
20.84000 470.837
20.88000 475.296
20.92000 476.853
20.96000 490.749
21.00000 475.978
21.04000 480.511
21.08000 470.466
21.12000 490.984
21.16000 477.601
21.20000 485.249
21.24000 498.486
21.28000 495.349
21.32000 488.315
21.36000 494.487
21.40000 475.423
21.44000 488.090
21.48000 486.226
21.52000 487.122
21.56000 461.517
21.60000 470.960
21.64000 471.951
21.68000 503.660
21.72000 526.839
21.76000 517.073
21.80000 531.359
21.84000 522.629
21.88000 583.606
21.92000 601.147
21.96000 623.920
22.00000 654.982
22.04000 660.308
22.08000 678.453
22.12000 663.237
22.16000 651.483
22.20000 618.854
22.24000 582.184
22.28000 552.359
22.32000 545.310
22.36000 509.432
22.40000 530.530
22.44000 500.271
22.48000 496.970
22.52000 474.936
22.56000 467.228
22.60000 477.701
22.64000 468.602
22.68000 444.612
22.72000 469.714
22.76000 451.390
22.80000 465.138
22.84000 443.321
22.88000 435.837
22.92000 451.879
22.96000 448.399
23.00000 457.170
23.04000 441.047
23.08000 442.545
23.12000 436.025
23.16000 448.363
23.20000 446.113
23.24000 443.595
23.28000 423.729
23.32000 420.779
23.36000 442.582
23.40000 434.734
23.44000 426.384
23.48000 440.720
23.52000 434.130
23.56000 438.296
23.60000 424.149
23.64000 426.695
23.68000 422.208
23.72000 428.573
23.76000 440.714
23.80000 418.353
23.84000 442.928
23.88000 431.277
23.92000 419.700
23.96000 432.655
24.00000 423.341
24.04000 430.727
24.08000 422.866
24.12000 428.214
24.16000 427.425
24.20000 422.659
24.24000 420.338
24.28000 421.828
24.32000 422.573
24.36000 433.842
24.40000 416.433
24.44000 415.741
24.48000 424.058
24.52000 417.661
24.56000 430.662
24.60000 422.556
24.64000 427.426
24.68000 411.444
24.72000 419.940
24.76000 405.350
24.80000 414.586
24.84000 422.354
24.88000 414.679
24.92000 401.342
24.96000 418.673
25.00000 409.681
25.04000 409.114
25.08000 403.959
25.12000 416.666
25.16000 404.290
25.20000 405.492
25.24000 414.049
25.28000 414.938
25.32000 396.317
25.36000 402.040
25.40000 405.941
25.44000 405.790
25.48000 394.540
25.52000 396.874
25.56000 399.785
25.60000 411.864
25.64000 415.137
25.68000 401.414
25.72000 378.891
25.76000 395.806
25.80000 392.662
25.84000 399.857
25.88000 414.909
25.92000 390.536
25.96000 403.003
26.00000 390.814
26.04000 402.274
26.08000 390.202
26.12000 389.152
26.16000 401.681
26.20000 390.345
26.24000 407.497
26.28000 400.325
26.32000 404.070
26.36000 406.857
26.40000 402.578
26.44000 385.627
26.48000 400.964
26.52000 400.904
26.56000 396.705
26.60000 405.229
26.64000 364.459
26.68000 380.440
26.72000 385.866
26.76000 382.348
26.80000 397.383
26.84000 403.519
26.88000 400.013
26.92000 394.914
26.96000 385.445
27.00000 392.067
27.04000 390.138
27.08000 392.130
27.12000 382.621
27.16000 371.565
27.20000 387.437
27.24000 372.599
27.28000 371.289
27.32000 389.206
27.36000 389.954
27.40000 377.522
27.44000 377.234
27.48000 385.965
27.52000 377.093
27.56000 383.372
27.60000 385.976
27.64000 379.987
27.68000 359.376
27.72000 385.270
27.76000 376.004
27.80000 376.382
27.84000 382.710
27.88000 395.319
27.92000 374.006
27.96000 381.266
28.00000 385.743
28.04000 376.239
28.08000 382.126
28.12000 385.247
28.16000 377.530
28.20000 377.972
28.24000 380.338
28.28000 393.468
28.32000 382.408
28.36000 377.434
28.40000 376.337
28.44000 369.822
28.48000 364.064
28.52000 374.056
28.56000 364.875
28.60000 371.006
28.64000 370.505
28.68000 359.634
28.72000 369.613
28.76000 355.812
28.80000 360.549
28.84000 371.344
28.88000 369.877
28.92000 366.083
28.96000 376.425
29.00000 379.480
29.04000 365.064
29.08000 366.637
29.12000 364.222
29.16000 365.854
29.20000 376.797
29.24000 361.321
29.28000 374.010
29.32000 364.762
29.36000 348.973
29.40000 371.527
29.44000 365.814
29.48000 370.018
29.52000 371.370
29.56000 358.698
29.60000 375.090
29.64000 365.393
29.68000 373.306
29.72000 378.321
29.76000 362.960
29.80000 392.482
29.84000 401.327
29.88000 417.282
29.92000 433.245
29.96000 434.622
30.00000 465.488
30.04000 478.544
30.08000 471.135
30.12000 447.422
30.16000 459.281
30.20000 439.521
30.24000 428.904
30.28000 417.638
30.32000 410.383
30.36000 401.987
30.40000 384.281
30.44000 403.131
30.48000 412.286
30.52000 413.652
30.56000 394.159
30.60000 405.995
30.64000 423.214
30.68000 411.122
30.72000 408.586
30.76000 428.581
30.80000 436.879
30.84000 441.880
30.88000 450.929
30.92000 484.278
30.96000 520.892
31.00000 523.385
31.04000 594.370
31.08000 715.749
31.12000 868.353
31.16000 1098.009
31.20000 1436.350
31.24000 1754.800
31.28000 2294.138
31.32000 2695.802
31.36000 2962.271
31.40000 3100.947
31.44000 2979.669
31.48000 2681.971
31.52000 2278.613
31.56000 1847.492
31.60000 1421.913
31.64000 1116.223
31.68000 890.699
31.72000 740.042
31.76000 648.995
31.80000 550.721
31.84000 521.216
31.88000 472.199
31.92000 433.474
31.96000 410.405
32.00000 400.222
32.04000 380.212
32.08000 379.596
32.12000 369.460
32.16000 371.868
32.20000 358.198
32.24000 374.679
32.28000 364.618
32.32000 341.031
32.36000 335.671
32.40000 348.137
32.44000 339.426
32.48000 349.942
32.52000 342.400
32.56000 338.223
32.60000 352.200
32.64000 346.609
32.68000 327.433
32.72000 332.286
32.76000 346.953
32.80000 307.741
32.84000 320.905
32.88000 328.190
32.92000 326.246
32.96000 322.661
33.00000 320.835
33.04000 318.334
33.08000 308.780
33.12000 297.604
33.16000 324.865
33.20000 309.681
33.24000 305.973
33.28000 310.695
33.32000 308.355
33.36000 306.046
33.40000 308.942
33.44000 308.556
33.48000 302.747
33.52000 306.971
33.56000 301.429
33.60000 303.523
33.64000 304.613
33.68000 301.338
33.72000 320.087
33.76000 297.365
33.80000 287.454
33.84000 281.317
33.88000 290.124
33.92000 305.058
33.96000 303.969
34.00000 290.441
34.04000 293.742
34.08000 304.280
34.12000 293.130
34.16000 295.940
34.20000 286.635
34.24000 282.134
34.28000 277.860
34.32000 282.077
34.36000 311.904
34.40000 287.672
34.44000 303.694
34.48000 283.218
34.52000 273.772
34.56000 297.720
34.60000 282.163
34.64000 286.033
34.68000 290.225
34.72000 288.343
34.76000 279.050
34.80000 288.662
34.84000 290.854
34.88000 266.429
34.92000 276.708
34.96000 290.973
35.00000 277.007
35.04000 283.406
35.08000 278.188
35.12000 272.786
35.16000 284.321
35.20000 282.240
35.24000 281.938
35.28000 270.098
35.32000 277.831
35.36000 278.820
35.40000 255.646
35.44000 273.190
35.48000 282.166
35.52000 264.504
35.56000 281.189
35.60000 280.356
35.64000 277.590
35.68000 254.281
35.72000 257.516
35.76000 274.726
35.80000 273.469
35.84000 268.289
35.88000 267.102
35.92000 276.718
35.96000 261.685
36.00000 258.155
36.04000 272.909
36.08000 271.118
36.12000 254.084
36.16000 270.956
36.20000 270.673
36.24000 260.525
36.28000 272.685
36.32000 270.892
36.36000 251.387
36.40000 263.981
36.44000 265.596
36.48000 258.245
36.52000 261.557
36.56000 246.814
36.60000 269.684
36.64000 256.479
36.68000 272.514
36.72000 276.810
36.76000 280.860
36.80000 268.381
36.84000 288.804
36.88000 271.430
36.92000 274.969
36.96000 283.360
37.00000 277.071
37.04000 284.533
37.08000 276.218
37.12000 275.498
37.16000 279.909
37.20000 281.874
37.24000 281.806
37.28000 268.657
37.32000 271.066
37.36000 258.227
37.40000 269.754
37.44000 272.504
37.48000 267.924
37.52000 265.059
37.56000 277.004
37.60000 268.718
37.64000 269.064
37.68000 267.885
37.72000 256.806
37.76000 258.972
37.80000 261.696
37.84000 261.461
37.88000 275.722
37.92000 271.711
37.96000 266.220
38.00000 256.868
38.04000 274.177
38.08000 277.444
38.12000 283.618
38.16000 293.257
38.20000 282.314
38.24000 292.527
38.28000 312.580
38.32000 311.878
38.36000 324.156
38.40000 359.920
38.44000 405.035
38.48000 472.280
38.52000 549.750
38.56000 687.439
38.60000 816.246
38.64000 920.633
38.68000 1011.317
38.72000 1047.323
38.76000 1014.123
38.80000 926.373
38.84000 803.951
38.88000 657.490
38.92000 557.663
38.96000 455.911
39.00000 393.911
39.04000 332.995
39.08000 304.779
39.12000 280.831
39.16000 295.707
39.20000 270.262
39.24000 258.888
39.28000 259.309
39.32000 253.703
39.36000 267.436
39.40000 269.576
39.44000 256.469
39.48000 234.954
39.52000 235.065
39.56000 245.018
39.60000 234.553
39.64000 239.380
39.68000 250.640
39.72000 235.996
39.76000 245.141
39.80000 245.222
39.84000 239.863
39.88000 220.765
39.92000 230.798
39.96000 238.692
40.00000 238.993
40.04000 228.237
40.08000 231.090
40.12000 226.836
40.16000 207.830
40.20000 233.945
40.24000 208.870
40.28000 226.071
40.32000 235.951
40.36000 224.183
40.40000 228.269
40.44000 233.075
40.48000 223.195
40.52000 222.293
40.56000 237.456
40.60000 227.641
40.64000 218.800
40.68000 216.203
40.72000 214.520
40.76000 214.078
40.80000 216.307
40.84000 218.290
40.88000 226.466
40.92000 225.500
40.96000 220.046
41.00000 216.708
41.04000 221.021
41.08000 220.646
41.12000 219.407
41.16000 207.324
41.20000 212.340
41.24000 213.526
41.28000 219.997
41.32000 238.885
41.36000 221.876
41.40000 214.210
41.44000 220.510
41.48000 216.979
41.52000 202.891
41.56000 216.271
41.60000 209.554
41.64000 213.109
41.68000 217.158
41.72000 210.392
41.76000 217.615
41.80000 214.256
41.84000 204.872
41.88000 225.696
41.92000 209.882
41.96000 220.260
42.00000 209.610
42.04000 210.419
42.08000 205.728
42.12000 216.625
42.16000 203.527
42.20000 205.088
42.24000 198.710
42.28000 205.069
42.32000 199.337
42.36000 212.072
42.40000 196.577
42.44000 213.160
42.48000 196.911
42.52000 203.097
42.56000 194.777
42.60000 197.661
42.64000 200.938
42.68000 200.926
42.72000 194.579
42.76000 220.486
42.80000 197.256
42.84000 183.164
42.88000 205.962
42.92000 208.497
42.96000 209.953
43.00000 212.317
43.04000 202.004
43.08000 196.155
43.12000 204.328
43.16000 213.628
43.20000 203.226
43.24000 194.499
43.28000 207.594
43.32000 206.893
43.36000 205.254
43.40000 202.289
43.44000 214.126
43.48000 209.214
43.52000 200.283
43.56000 201.859
43.60000 194.004
43.64000 198.150
43.68000 200.206
43.72000 198.510
43.76000 197.526
43.80000 203.241
43.84000 192.106
43.88000 196.693
43.92000 209.662
43.96000 203.512
44.00000 208.186
44.04000 195.946
44.08000 196.116
44.12000 217.103
44.16000 200.058
44.20000 212.760
44.24000 202.740
44.28000 200.050
44.32000 197.562
44.36000 199.196
44.40000 200.277
44.44000 203.837
44.48000 198.892
44.52000 195.816
44.56000 203.767
44.60000 217.959
44.64000 210.879
44.68000 212.635
44.72000 225.360
44.76000 250.291
44.80000 264.141
44.84000 250.582
44.88000 285.282
44.92000 298.487
44.96000 322.291
45.00000 330.679
45.04000 349.643
45.08000 370.599
45.12000 373.092
45.16000 366.337
45.20000 354.914
45.24000 326.326
45.28000 322.678
45.32000 313.562
45.36000 296.326
45.40000 276.837
45.44000 261.351
45.48000 249.956
45.52000 243.304
45.56000 245.548
45.60000 234.230
45.64000 225.621
45.68000 228.812
45.72000 218.627
45.76000 201.766
45.80000 207.358
45.84000 210.509
45.88000 217.085
45.92000 199.000
45.96000 191.097
46.00000 191.422
46.04000 186.421
46.08000 193.456
46.12000 192.537
46.16000 180.631
46.20000 183.571
46.24000 188.900
46.28000 177.061
46.32000 168.169
46.36000 172.784
46.40000 172.865
46.44000 177.403
46.48000 186.164
46.52000 165.956
46.56000 174.584
46.60000 181.630
46.64000 180.663
46.68000 177.349
46.72000 167.688
46.76000 167.660
46.80000 179.684
46.84000 173.154
46.88000 174.137
46.92000 179.458
46.96000 172.180
47.00000 169.619
47.04000 169.601
47.08000 177.688
47.12000 166.938
47.16000 169.869
47.20000 176.799
47.24000 171.038
47.28000 166.043
47.32000 165.882
47.36000 161.509
47.40000 162.957
47.44000 170.260
47.48000 170.827
47.52000 182.589
47.56000 161.253
47.60000 175.622
47.64000 176.652
47.68000 173.619
47.72000 175.283
47.76000 172.259
47.80000 168.533
47.84000 167.486
47.88000 163.532
47.92000 158.869
47.96000 150.557
48.00000 163.816
48.04000 165.292
48.08000 175.864
48.12000 157.009
48.16000 174.746
48.20000 161.686
48.24000 160.922
48.28000 158.039
48.32000 158.829
48.36000 158.309
48.40000 164.627
48.44000 168.461
48.48000 172.882
48.52000 165.728
48.56000 169.278
48.60000 153.386
48.64000 151.729
48.68000 156.557
48.72000 159.426
48.76000 158.529
48.80000 172.660
48.84000 148.502
48.88000 159.096
48.92000 158.662
48.96000 159.237
49.00000 156.059
49.04000 157.191
49.08000 156.233
49.12000 149.658
49.16000 156.052
49.20000 153.940
49.24000 154.624
49.28000 152.668
49.32000 166.150
49.36000 150.439
49.40000 157.822
49.44000 157.999
49.48000 151.456
49.52000 150.987
49.56000 158.703
49.60000 160.101
49.64000 152.964
49.68000 150.004
49.72000 161.966
49.76000 163.638
49.80000 145.639
49.84000 162.458
49.88000 153.760
49.92000 162.693
49.96000 153.552
50.00000 153.656
50.04000 155.828
50.08000 155.537
50.12000 161.904
50.16000 162.548
50.20000 171.896
50.24000 158.148
50.28000 164.718
50.32000 162.608
50.36000 168.698
50.40000 168.308
50.44000 173.285
50.48000 176.554
50.52000 186.768
50.56000 214.540
50.60000 206.700
50.64000 231.738
50.68000 223.683
50.72000 228.426
50.76000 244.663
50.80000 231.042
50.84000 228.047
50.88000 210.442
50.92000 207.070
50.96000 199.611
51.00000 199.261
51.04000 192.408
51.08000 170.399
51.12000 175.370
51.16000 167.555
51.20000 165.979
51.24000 161.375
51.28000 162.861
51.32000 169.031
51.36000 162.649
51.40000 150.177
51.44000 145.731
51.48000 146.883
51.52000 150.686
51.56000 141.127
51.60000 150.794
51.64000 152.266
51.68000 152.778
51.72000 152.887
51.76000 149.635
51.80000 147.754
51.84000 146.269
51.88000 148.173
51.92000 149.076
51.96000 139.097
52.00000 142.124
52.04000 140.930
52.08000 151.320
52.12000 142.979
52.16000 134.081
52.20000 149.175
52.24000 150.419
52.28000 142.186
52.32000 144.216
52.36000 148.182
52.40000 144.205
52.44000 131.409
52.48000 143.655
52.52000 152.041
52.56000 148.337
52.60000 142.357
52.64000 146.594
52.68000 139.200
52.72000 148.846
52.76000 137.347
52.80000 140.072
52.84000 145.791
52.88000 143.884
52.92000 148.732
52.96000 146.407
53.00000 141.913
53.04000 130.659
53.08000 145.562
53.12000 142.013
53.16000 141.337
53.20000 146.989
53.24000 157.047
53.28000 160.076
53.32000 148.479
53.36000 153.633
53.40000 148.286
53.44000 145.561
53.48000 161.338
53.52000 149.770
53.56000 144.300
53.60000 149.649
53.64000 144.565
53.68000 157.655
53.72000 143.075
53.76000 155.419
53.80000 147.362
53.84000 138.973
53.88000 136.807
53.92000 142.249
53.96000 148.051
54.00000 138.193
54.04000 142.361
54.08000 142.743
54.12000 142.142
54.16000 137.170
54.20000 126.051
54.24000 140.572
54.28000 136.127
54.32000 151.425
54.36000 148.505
54.40000 133.502
54.44000 136.714
54.48000 139.414
54.52000 138.955
54.56000 145.029
54.60000 143.563
54.64000 135.618
54.68000 145.358
54.72000 144.743
54.76000 147.857
54.80000 156.138
54.84000 134.036
54.88000 150.787
54.92000 139.115
54.96000 143.998
55.00000 149.044
55.04000 147.016
55.08000 140.311
55.12000 149.914
55.16000 148.463
55.20000 147.797
55.24000 160.622
55.28000 154.023
55.32000 161.394
55.36000 147.994
55.40000 162.140
55.44000 175.188
55.48000 174.819
55.52000 189.731
55.56000 199.096
55.60000 212.706
55.64000 236.129
55.68000 267.322
55.72000 300.120
55.76000 322.895
55.80000 395.488
55.84000 474.502
55.88000 548.587
55.92000 561.564
55.96000 596.160
56.00000 573.612
56.04000 565.768
56.08000 517.125
56.12000 455.327
56.16000 402.242
56.20000 362.269
56.24000 315.057
56.28000 283.905
56.32000 253.631
56.36000 230.149
56.40000 213.055
56.44000 203.748
56.48000 184.708
56.52000 183.751
56.56000 167.018
56.60000 155.541
56.64000 151.266
56.68000 145.966
56.72000 149.026
56.76000 147.285
56.80000 147.186
56.84000 153.920
56.88000 142.245
56.92000 139.567
56.96000 141.776
57.00000 140.421
57.04000 142.777
57.08000 131.346
57.12000 134.523
57.16000 131.958
57.20000 140.342
57.24000 134.338
57.28000 127.341
57.32000 125.706
57.36000 129.387
57.40000 142.424
57.44000 134.051
57.48000 136.060
57.52000 129.446
57.56000 128.558
57.60000 123.477
57.64000 116.664
57.68000 121.636
57.72000 130.248
57.76000 127.290
57.80000 128.741
57.84000 121.701
57.88000 129.071
57.92000 124.372
57.96000 136.911
58.00000 125.566
58.04000 134.692
58.08000 130.698
58.12000 123.027
58.16000 126.757
58.20000 134.746
58.24000 128.003
58.28000 126.929
58.32000 120.274
58.36000 131.132
58.40000 117.512
58.44000 117.948
58.48000 134.229
58.52000 123.172
58.56000 133.416
58.60000 116.571
58.64000 120.443
58.68000 118.741
58.72000 130.006
58.76000 117.558
58.80000 132.771
58.84000 128.614
58.88000 129.146
58.92000 120.303
58.96000 121.861
59.00000 119.841
59.04000 123.390
59.08000 121.540
59.12000 122.783
59.16000 125.262
59.20000 125.251
59.24000 125.560
59.28000 118.169
59.32000 123.651
59.36000 122.804
59.40000 110.671
59.44000 117.861
59.48000 121.740
59.52000 129.344
59.56000 119.628
59.60000 133.940
59.64000 127.547
59.68000 117.697
59.72000 115.791
59.76000 121.811
59.80000 116.776
59.84000 122.932
59.88000 123.108
59.92000 119.470
59.96000 121.004
60.00000 133.525
60.04000 113.144
60.08000 124.976
60.12000 114.712
60.16000 123.600
60.20000 118.718
60.24000 126.739
60.28000 128.027
60.32000 122.784
60.36000 117.085
60.40000 120.439
60.44000 109.189
60.48000 116.767
60.52000 123.966
60.56000 118.265
60.60000 125.184
60.64000 111.235
60.68000 114.297
60.72000 122.203
60.76000 112.907
60.80000 124.700
60.84000 120.129
60.88000 120.778
60.92000 119.904
60.96000 103.116
61.00000 121.244
61.04000 130.320
61.08000 125.718
61.12000 123.318
61.16000 120.843
61.20000 126.439
61.24000 133.169
61.28000 126.866
61.32000 126.743
61.36000 129.603
61.40000 124.897
61.44000 125.577
61.48000 131.214
61.52000 181.468
61.56000 254.280
61.60000 345.598
61.64000 391.198
61.68000 401.013
61.72000 403.088
61.76000 346.647
61.80000 265.357
61.84000 196.805
61.88000 154.793
61.92000 156.466
61.96000 137.993
62.00000 138.296
62.04000 136.691
62.08000 131.414
62.12000 130.982
62.16000 130.225
62.20000 140.497
62.24000 134.218
62.28000 131.858
62.32000 142.431
62.36000 139.955
62.40000 133.108
62.44000 144.864
62.48000 139.834
62.52000 134.143
62.56000 135.811
62.60000 130.323
62.64000 132.774
62.68000 143.232
62.72000 132.627
62.76000 136.695
62.80000 141.006
62.84000 140.158
62.88000 147.111
62.92000 133.756
62.96000 137.638
63.00000 140.688
63.04000 153.206
63.08000 132.221
63.12000 137.923
63.16000 140.413
63.20000 135.838
63.24000 141.669
63.28000 140.471
63.32000 155.255
63.36000 144.308
63.40000 147.710
63.44000 136.421
63.48000 138.201
63.52000 148.635
63.56000 146.234
63.60000 142.616
63.64000 148.859
63.68000 139.209
63.72000 148.023
63.76000 157.604
63.80000 155.678
63.84000 159.980
63.88000 149.954
63.92000 151.535
63.96000 165.528
64.00000 162.932
64.04000 161.281
64.08000 150.463
64.12000 159.659
64.16000 156.901
64.20000 169.988
64.24000 162.682
64.28000 147.861
64.32000 155.443
64.36000 167.724
64.40000 165.071
64.44000 155.965
64.48000 173.162
64.52000 172.718
64.56000 169.337
64.60000 183.028
64.64000 174.941
64.68000 177.768
64.72000 184.447
64.76000 196.552
64.80000 206.210
64.84000 196.103
64.88000 193.521
64.92000 195.558
64.96000 196.341
65.00000 197.562
65.04000 210.765
65.08000 217.938
65.12000 224.101
65.16000 240.729
65.20000 255.557
65.24000 271.897
65.28000 297.688
65.32000 299.730
65.36000 326.392
65.40000 356.612
65.44000 410.156
65.48000 437.434
65.52000 480.076
65.56000 530.760
65.60000 578.184
65.64000 671.853
65.68000 939.466
65.72000 1489.540
65.76000 2141.214
65.80000 2704.758
65.84000 2977.565
65.88000 2963.130
65.92000 2754.342
65.96000 2182.670
66.00000 1400.743
66.04000 883.808
66.08000 618.184
66.12000 497.567
66.16000 488.912
66.20000 486.798
66.24000 538.150
66.28000 603.445
66.32000 726.204
66.36000 827.707
66.40000 865.291
66.44000 867.799
66.48000 828.729
66.52000 695.828
66.56000 576.198
66.60000 485.841
66.64000 446.311
66.68000 436.946
66.72000 430.452
66.76000 419.876
66.80000 434.712
66.84000 426.504
66.88000 450.928
66.92000 439.303
66.96000 445.362
67.00000 431.373
67.04000 468.363
67.08000 463.638
67.12000 476.151
67.16000 458.461
67.20000 493.206
67.24000 468.461
67.28000 461.317
67.32000 485.561
67.36000 473.746
67.40000 489.617
67.44000 504.297
67.48000 514.336
67.52000 510.896
67.56000 518.448
67.60000 527.155
67.64000 531.109
67.68000 560.808
67.72000 533.523
67.76000 565.949
67.80000 572.164
67.84000 587.197
67.88000 596.758
67.92000 579.427
67.96000 596.145
68.00000 616.216
68.04000 614.121
68.08000 612.266
68.12000 664.115
68.16000 648.494
68.20000 671.126
68.24000 678.600
68.28000 697.557
68.32000 721.639
68.36000 743.766
68.40000 764.389
68.44000 800.474
68.48000 858.681
68.52000 893.434
68.56000 976.214
68.60000 1114.058
68.64000 1315.958
68.68000 1580.205
68.72000 1832.472
68.76000 2101.075
68.80000 2443.549
68.84000 2951.760
68.88000 3898.529
68.92000 7095.513
68.96000 17153.869
69.00000 37035.359
69.04000 56412.059
69.08000 66138.453
69.12000 70355.133
69.16000 74058.320
69.20000 71393.000
69.24000 56552.000
69.28000 42854.055
69.32000 35571.977
69.36000 32946.801
69.40000 26146.283
69.44000 15234.778
69.48000 6752.065
69.52000 3064.521
69.56000 1821.161
69.60000 1407.386
69.64000 1178.877
69.68000 1007.997
69.72000 902.519
69.76000 831.395
69.80000 793.333
69.84000 727.647
69.88000 647.211
69.92000 628.286
69.96000 594.419
70.00000 586.768